sender,sender_type,sender_id,timestamp,meta,,Blues,Classical,Country,Dance,Electronic,Folk,Gospel,Hip-Hop,Jazz,Latin,Musical/Film,New-age,Pop,Prolific_id,Provo_ID,R&B,Rap,Reggae,Religious,Rock,Soul,Swing,Traditional,age,artist_name,correct,correctResponse,distraction,duration,education,ended_on,familiarity,gender,headphone_check_performance,item,list,music_frequency,offensiveness,pleasantness,position_correct,preference,response,response_action,snippet_file,song_name,song_rating,sound,stimulus_1,stimulus_2,stimulus_3,text,time_commit,time_end,time_render,time_run,time_show,time_switch,url,word,word_ID
Prolific ID,html.Form,0,2022-02-02T17:54:01.370Z,"{""labjs_version"":""20.2.2"",""labjs_build"":{""flavor"":""production"",""commit"":""a25486e0c714a0ae2ce03ff94b7bb6896854dcfa""},""location"":""https://run.pavlovia.org/mvasilev/prolific2_music_e/"",""userAgent"":""Mozilla/5.0 (Windows NT 10.0; Win64; x64) AppleWebKit/537.36 (KHTML, like Gecko) Chrome/97.0.4692.99 Safari/537.36"",""platform"":""Win32"",""language"":""en-GB"",""locale"":""en-GB"",""timeZone"":""Europe/London"",""timezoneOffset"":0,""screen_width"":2560,""screen_height"":1440,""scroll_width"":1327,""scroll_height"":814,""window_innerWidth"":1327,""window_innerHeight"":862,""devicePixelRatio"":1.5}",,,,,,,,,,,,,,,,,,,,,,,,,,,,,,9862.157,,form submission,,,,,,,,,,,,,,,,,,,,,23234.199999999255,23234,13338.284,13349.699999999255,13371.843,23238.827,{},,
Introduction,html.Screen,1_0,2022-02-02T17:54:04.707Z,,,,,,,,,,,,,,,,,,,,,,,,,,,,,,,3331.372999999254,,response,,,,,,,,,,,continue,click button,,,,,,,,,26571.699999999255,26570.199999999255,23222.163,23234.5,23238.827,26588.98,,,
Volume calibration,html.Screen,1_1,2022-02-02T17:54:19.483Z,,,,,,,,,,,,,,,,,,,,,,,,,,,,,,,14756.81999999702,,response,,,,,,,,,,,continue,click button,,,,,,,,,41347.39999999851,41345.79999999702,26572.302,26571.89999999851,26588.98,41356.202,,,
Task instructions,html.Screen,1_2,2022-02-02T17:54:32.968Z,,,,,,,,,,,,,,,,,,,,,,,,,,,,,,,13475.697999998512,,response,,,,,,,,,,,continue,click button,,,,,,,,,54832.39999999851,54831.89999999851,41339.542,41347.5,41356.202,54840.097,,,
Sounds,html.Screen,1_3_0_0,2022-02-02T17:54:37.211Z,,,,,,,,,,,,,,,,,,,,,,,,,,,,,,,4250.144,,timeout,,,,,,,,,1,,,,,,,,S,O,I,,59075,59073.576,54823.546,54832.699999999255,54840.097,59090.241,,,
Judgement,html.Screen,1_3_0_1,2022-02-02T17:54:39.350Z,,,,,,,,,,,,,,,,,,,,,,,,,,,,true,1,,2123.358999997763,,response,,,,,,,,,1,,1,click #choice-1,,,,,S,O,I,,61214.199999999255,61213.599999997765,59073.576,59075.199999999255,59090.241,61223.678,,,
Trial,flow.Sequence,1_3_0,2022-02-02T17:54:39.350Z,,,,,,,,,,,,,,,,,,,,,,,,,,,,,,,6373.502999997763,,completion,,,,,,,,,1,,,,,,,,S,O,I,,61214.39999999851,61213.599999997765,54823.546,54832.699999999255,54840.097,61223.678,,,
Sounds,html.Screen,1_3_1_0,2022-02-02T17:54:43.594Z,,,,,,,,,,,,,,,,,,,,,,,,,,,,,,,4250.123,,timeout,,,,,,,,,3,,,,,,,,I,O,S,,65458.099999997765,65457.135,61206.991,61214.599999997765,61223.678,65473.801,,,
Judgement,html.Screen,1_3_1_1,2022-02-02T17:54:44.270Z,,,,,,,,,,,,,,,,,,,,,,,,,,,,true,3,,659.5989999985104,,response,,,,,,,,,3,,3,click #choice-3,,,,,I,O,S,,66134.19999999925,66133.39999999851,65457.135,65458.199999999255,65473.801,66140.507,,,
Trial,flow.Sequence,1_3_1,2022-02-02T17:54:44.270Z,,,,,,,,,,,,,,,,,,,,,,,,,,,,,,,4909.72199999851,,completion,,,,,,,,,3,,,,,,,,I,O,S,,66134.39999999851,66133.39999999851,61206.991,61214.5,61223.678,66140.507,,,
Sounds,html.Screen,1_3_2_0,2022-02-02T17:54:48.510Z,,,,,,,,,,,,,,,,,,,,,,,,,,,,,,,4250.176999999996,,timeout,,,,,,,,,2,,,,,,,,I,S,O,,70374.59999999776,70373.995,66123.822,66134.59999999776,66140.507,70390.684,,,
Judgement,html.Screen,1_3_2_1,2022-02-02T17:54:49.121Z,,,,,,,,,,,,,,,,,,,,,,,,,,,,true,2,,594.5159999992611,,response,,,,,,,,,2,,2,click #choice-2,,,,,I,S,O,,70985.89999999851,70985.19999999925,70373.995,70374.69999999925,70390.684,71007.385,,,
Trial,flow.Sequence,1_3_2,2022-02-02T17:54:49.122Z,,,,,,,,,,,,,,,,,,,,,,,,,,,,,,,4844.692999999257,,completion,,,,,,,,,2,,,,,,,,I,S,O,,70986.09999999776,70985.19999999925,66123.822,66134.5,66140.507,71007.385,,,
Sounds,html.Screen,1_3_3_0,2022-02-02T17:54:53.377Z,,,,,,,,,,,,,,,,,,,,,,,,,,,,,,,4250.166000000012,,timeout,,,,,,,,,1,,,,,,,,S,I,O,,75241.89999999851,75240.865,70990.687,70986.19999999925,71007.385,75257.551,,,
Judgement,html.Screen,1_3_3_1,2022-02-02T17:54:53.976Z,,,,,,,,,,,,,,,,,,,,,,,,,,,,true,1,,581.748999997013,,response,,,,,,,,,1,,1,click #choice-1,,,,,S,I,O,,75840.19999999925,75839.29999999702,75240.865,75242,75257.551,75857.55,,,
Trial,flow.Sequence,1_3_3,2022-02-02T17:54:53.976Z,,,,,,,,,,,,,,,,,,,,,,,,,,,,,,,4831.914999997025,,completion,,,,,,,,,1,,,,,,,,S,I,O,,75840.39999999851,75839.29999999702,70990.687,70986.19999999925,71007.385,75857.55,,,
Sounds,html.Screen,1_3_4_0,2022-02-02T17:54:58.227Z,,,,,,,,,,,,,,,,,,,,,,,,,,,,,,,4250.20199999999,,timeout,,,,,,,,,2,,,,,,,,O,S,I,,80091.89999999851,80091.095,75840.886,75840.59999999776,75857.55,80107.752,,,
Judgement,html.Screen,1_3_4_1,2022-02-02T17:54:58.789Z,,,,,,,,,,,,,,,,,,,,,,,,,,,,true,2,,545.4479999992618,,response,,,,,,,,,2,,2,click #choice-2,,,,,O,S,I,,80653.79999999702,80653.19999999925,80091.095,80092,80107.752,80674.427,,,
Trial,flow.Sequence,1_3_4,2022-02-02T17:54:58.790Z,,,,,,,,,,,,,,,,,,,,,,,,,,,,,,,4795.649999999252,,completion,,,,,,,,,2,,,,,,,,O,S,I,,80653.89999999851,80653.19999999925,75840.886,75840.5,75857.55,80674.427,,,
Sounds,html.Screen,1_3_5_0,2022-02-02T17:55:03.044Z,,,,,,,,,,,,,,,,,,,,,,,,,,,,,,,4250.180000000008,,timeout,,,,,,,,,3,,,,,,,,O,I,S,,84908.5,84907.922,80657.75,80654,80674.427,84924.607,,,
Judgement,html.Screen,1_3_5_1,2022-02-02T17:55:03.598Z,,,,,,,,,,,,,,,,,,,,,,,,,,,,true,3,,536.3929999999964,,response,,,,,,,,,3,,3,click #choice-3,,,,,O,I,S,,85462,85461,84907.922,84908.59999999776,84924.607,85474.597,,,
Trial,flow.Sequence,1_3_5,2022-02-02T17:55:03.598Z,,,,,,,,,,,,,,,,,,,,,,,,,,,,,,,4786.573000000004,,completion,,,,,,,,,3,,,,,,,,O,I,S,,85462.09999999776,85461,80657.75,80654,80674.427,85474.597,,,
Task,flow.Loop,1_3,2022-02-02T17:55:03.600Z,,,,,,,,,,,,,,,,,,,,,,,,,,,,,,,30620.903,,completion,,,1,,,,,,,,,,,,,,,,,,85464.39999999851,85461,54823.546,54832.599999997765,54840.097,85474.597,,,
Trap,html.Screen,1_4,2022-02-02T17:55:03.601Z,,,,,,,,,,,,,,,,,,,,,,,,,,,,,,,NaN,,skipped,,,,,,,,,,,,,,,,,,,,,85465.19999999925,85461,,85465,,85474.597,,,
Thanks,html.Screen,1_5,2022-02-02T17:55:07.781Z,,,,,,,,,,,,,,,,,,,,,,,,,,,,,,,4170.302999998516,,response,,,,,,,,,,,continue,click button,,,,,,,,,89645.39999999851,89644.89999999851,85457.909,85465.19999999925,85474.597,92841.566,,,
Headphone screening,flow.Sequence,1,2022-02-02T17:55:07.781Z,,,,,,,,,,,,,,,,,,,,,,,,,,,,,,,66406.0729999985,,completion,,,,,,,,,,,,,,,,,,,,,89645.5,89644.89999999851,23222.163,23234.5,23238.827,92841.566,,,
Instructions,html.Page,2_0,2022-02-02T17:55:26.517Z,,,,,,,,,,,,,,,,,,,,,,,,,,,,,,,15539.733999997014,,form submission,,,,,,,,,,,,,,,,,,,,,108381.59999999776,108381.29999999702,92824.872,92827.59999999776,92841.566,108392.143,,,
Holding screen,html.Screen,2_1_0_0,2022-02-02T17:55:36.512Z,,,,,,,,,,,,,,,,,,,,,,,,,,,,,,,10000.413,,timeout,,,,,,,,,,,,,,,,,,,,,118376.5,118375.877,108375.472,108381.79999999702,108392.143,118392.556,,,
screen,html.Screen,2_1_0_1_0,2022-02-02T17:55:37.579Z,,,,,,,,,,,,,,,,,53,,,,,,,,,,,,,,1048.143999999258,,response,,,,99,,,,,,,Space,keypress(Space),,,,,,,,When -- ----- -- ------ - ------- --- ----------<br>------------- ------ ------ ---- ---- ------- ----- -- ----<br>-------- ------- -- ---------- --- - --- ----- ----- ----<br>---- --- --- ----- --- ---- ---- ------- ----- ---- -------<br>--- --- -- ----- -- --- ---- -- --- ---- -- ------ ------<br>--- ----- -- ----,119443.89999999851,119440.69999999925,118375.877,118376.69999999925,118392.556,119459.271,,0,When
screen,html.Screen,2_1_0_1_1,2022-02-02T17:55:38.183Z,,,,,,,,,,,,,,,,,53,,,,,,,,,,,,,,588.6289999985165,,response,,,,99,,,,,,,Space,keypress(Space),,,,,,,,---- it ----- -- ------ - ------- --- ----------<br>------------- ------ ------ ---- ---- ------- ----- -- ----<br>-------- ------- -- ---------- --- - --- ----- ----- ----<br>---- --- --- ----- --- ---- ---- ------- ----- ---- -------<br>--- --- -- ----- -- --- ---- -- --- ---- -- ------ ------<br>--- ----- -- ----,120048.19999999925,120047.89999999851,119442.617,119444,119459.271,120059.264,,1,it
screen,html.Screen,2_1_0_1_2,2022-02-02T17:55:38.778Z,,,,,,,,,,,,,,,,,53,,,,,,,,,,,,,,582.6359999985143,,response,,,,99,,,,,,,Space,keypress(Space),,,,,,,,---- -- comes -- ------ - ------- --- ----------<br>------------- ------ ------ ---- ---- ------- ----- -- ----<br>-------- ------- -- ---------- --- - --- ----- ----- ----<br>---- --- --- ----- --- ---- ---- ------- ----- ---- -------<br>--- --- -- ----- -- --- ---- -- --- ---- -- ------ ------<br>--- ----- -- ----,120642.69999999925,120641.89999999851,120042.618,120048.39999999851,120059.264,120659.308,,2,comes
screen,html.Screen,2_1_0_1_3,2022-02-02T17:55:39.227Z,,,,,,,,,,,,,,,,,53,,,,,,,,,,,,,,432.19199999999546,,response,,,,99,,,,,,,Space,keypress(Space),,,,,,,,---- -- ----- to ------ - ------- --- ----------<br>------------- ------ ------ ---- ---- ------- ----- -- ----<br>-------- ------- -- ---------- --- - --- ----- ----- ----<br>---- --- --- ----- --- ---- ---- ------- ----- ---- -------<br>--- --- -- ----- -- --- ---- -- --- ---- -- ------ ------<br>--- ----- -- ----,121091.79999999702,121091.5,120642.629,120642.89999999851,120659.308,121109.322,,3,to
screen,html.Screen,2_1_0_1_4,2022-02-02T17:55:39.795Z,,,,,,,,,,,,,,,,,53,,,,,,,,,,,,,,550.2779999977647,,response,,,,99,,,,,,,Space,keypress(Space),,,,,,,,---- -- ----- -- having - ------- --- ----------<br>------------- ------ ------ ---- ---- ------- ----- -- ----<br>-------- ------- -- ---------- --- - --- ----- ----- ----<br>---- --- --- ----- --- ---- ---- ------- ----- ---- -------<br>--- --- -- ----- -- --- ---- -- --- ---- -- ------ ------<br>--- ----- -- ----,121660.09999999776,121659.59999999776,121092.641,121091.89999999851,121109.322,121676.015,,4,having
screen,html.Screen,2_1_0_1_5,2022-02-02T17:55:40.565Z,,,,,,,,,,,,,,,,,53,,,,,,,,,,,,,,753.5849999977654,,response,,,,99,,,,,,,Space,keypress(Space),,,,,,,,---- -- ----- -- ------ a ------- --- ----------<br>------------- ------ ------ ---- ---- ------- ----- -- ----<br>-------- ------- -- ---------- --- - --- ----- ----- ----<br>---- --- --- ----- --- ---- ---- ------- ----- ---- -------<br>--- --- -- ----- -- --- ---- -- --- ---- -- ------ ------<br>--- ----- -- ----,122430.29999999702,122429.59999999776,121659.332,121660.19999999925,121676.015,122442.708,,5,a
screen,html.Screen,2_1_0_1_6,2022-02-02T17:55:41.243Z,,,,,,,,,,,,,,,,,53,,,,,,,,,,,,,,664.7920000000013,,response,,,,99,,,,,,,Space,keypress(Space),,,,,,,,---- -- ----- -- ------ - lasting --- ----------<br>------------- ------ ------ ---- ---- ------- ----- -- ----<br>-------- ------- -- ---------- --- - --- ----- ----- ----<br>---- --- --- ----- --- ---- ---- ------- ----- ---- -------<br>--- --- -- ----- -- --- ---- -- --- ---- -- ------ ------<br>--- ----- -- ----,123107.89999999851,123107.5,122426,122430.39999999851,122442.708,123109.378,,6,lasting
screen,html.Screen,2_1_0_1_7,2022-02-02T17:55:41.677Z,,,,,,,,,,,,,,,,,53,,,,,,,,,,,,,,431.622000000003,,response,,,,99,,,,,,,Space,keypress(Space),,,,,,,,---- -- ----- -- ------ - ------- and ----------<br>------------- ------ ------ ---- ---- ------- ----- -- ----<br>-------- ------- -- ---------- --- - --- ----- ----- ----<br>---- --- --- ----- --- ---- ---- ------- ----- ---- -------<br>--- --- -- ----- -- --- ---- -- --- ---- -- ------ ------<br>--- ----- -- ----,123541.59999999776,123541,123092.733,123108,123109.378,123563.294,,7,and
screen,html.Screen,2_1_0_1_8,2022-02-02T17:55:42.512Z,,,,,,,,,,,,,,,,,53,,,,,,,,,,,,,,812.4059999992605,,response,,,,99,,,,,,,Space,keypress(Space),,,,,,,,---- -- ----- -- ------ - ------- --- fulfilling<br>------------- ------ ------ ---- ---- ------- ----- -- ----<br>-------- ------- -- ---------- --- - --- ----- ----- ----<br>---- --- --- ----- --- ---- ---- ------- ----- ---- -------<br>--- --- -- ----- -- --- ---- -- --- ---- -- ------ ------<br>--- ----- -- ----,124376.39999999851,124375.69999999925,123526.069,123541.69999999925,123563.294,124392.774,,8,fulfilling
screen,html.Screen,2_1_0_1_9,2022-02-02T17:55:43.333Z,,,,,,,,,,,,,,,,,53,,,,,,,,,,,,,,804.92599999925,,response,,,,99,,,,,,,Space,keypress(Space),,,,,,,,"---- -- ----- -- ------ - ------- --- ----------<br>relationship, ------ ------ ---- ---- ------- ----- -- ----<br>-------- ------- -- ---------- --- - --- ----- ----- ----<br>---- --- --- ----- --- ---- ---- ------- ----- ---- -------<br>--- --- -- ----- -- --- ---- -- --- ---- -- ------ ------<br>--- ----- -- ----",125198.19999999925,125197.69999999925,124376.119,124376.5,124392.774,125209.455,,9,"relationship,"
screen,html.Screen,2_1_0_1_10,2022-02-02T17:55:43.855Z,,,,,,,,,,,,,,,,,53,,,,,,,,,,,,,,510.04499999999825,,response,,,,99,,,,,,,Space,keypress(Space),,,,,,,,---- -- ----- -- ------ - ------- --- ----------<br>------------- common ------ ---- ---- ------- ----- -- ----<br>-------- ------- -- ---------- --- - --- ----- ----- ----<br>---- --- --- ----- --- ---- ---- ------- ----- ---- -------<br>--- --- -- ----- -- --- ---- -- --- ---- -- ------ ------<br>--- ----- -- ----,125720,125719.5,125192.796,125198.29999999702,125209.455,125726.142,,10,common
screen,html.Screen,2_1_0_1_11,2022-02-02T17:55:44.391Z,,,,,,,,,,,,,,,,,53,,,,,,,,,,,,,,529.1579999970127,,response,,,,99,,,,,,,Space,keypress(Space),,,,,,,,---- -- ----- -- ------ - ------- --- ----------<br>------------- ------ wisdom ---- ---- ------- ----- -- ----<br>-------- ------- -- ---------- --- - --- ----- ----- ----<br>---- --- --- ----- --- ---- ---- ------- ----- ---- -------<br>--- --- -- ----- -- --- ---- -- --- ---- -- ------ ------<br>--- ----- -- ----,126255.59999999776,126255.29999999702,125709.456,125720.09999999776,125726.142,126259.503,,11,wisdom
screen,html.Screen,2_1_0_1_12,2022-02-02T17:55:44.910Z,,,,,,,,,,,,,,,,,53,,,,,,,,,,,,,,514.8969999985129,,response,,,,99,,,,,,,Space,keypress(Space),,,,,,,,---- -- ----- -- ------ - ------- --- ----------<br>------------- ------ ------ says ---- ------- ----- -- ----<br>-------- ------- -- ---------- --- - --- ----- ----- ----<br>---- --- --- ----- --- ---- ---- ------- ----- ---- -------<br>--- --- -- ----- -- --- ---- -- --- ---- -- ------ ------<br>--- ----- -- ----,126775,126774.39999999851,126242.841,126255.69999999925,126259.503,126796.042,,12,says
screen,html.Screen,2_1_0_1_13,2022-02-02T17:55:45.370Z,,,,,,,,,,,,,,,,,53,,,,,,,,,,,,,,438.05799999776355,,response,,,,99,,,,,,,Space,keypress(Space),,,,,,,,---- -- ----- -- ------ - ------- --- ----------<br>------------- ------ ------ ---- that ------- ----- -- ----<br>-------- ------- -- ---------- --- - --- ----- ----- ----<br>---- --- --- ----- --- ---- ---- ------- ----- ---- -------<br>--- --- -- ----- -- --- ---- -- --- ---- -- ------ ------<br>--- ----- -- ----,127234.5,127234.09999999776,126759.526,126775.09999999776,126796.042,127242.904,,13,that
screen,html.Screen,2_1_0_1_14,2022-02-02T17:55:45.764Z,,,,,,,,,,,,,,,,,53,,,,,,,,,,,,,,384.9959999985149,,response,,,,99,,,,,,,Space,keypress(Space),,,,,,,,---- -- ----- -- ------ - ------- --- ----------<br>------------- ------ ------ ---- ---- feeling ----- -- ----<br>-------- ------- -- ---------- --- - --- ----- ----- ----<br>---- --- --- ----- --- ---- ---- ------- ----- ---- -------<br>--- --- -- ----- -- --- ---- -- --- ---- -- ------ ------<br>--- ----- -- ----,127628.5,127627.89999999851,127226.231,127234.69999999925,127242.904,127642.896,,14,feeling
screen,html.Screen,2_1_0_1_15,2022-02-02T17:55:46.223Z,,,,,,,,,,,,,,,,,53,,,,,,,,,,,,,,445.0039999985165,,response,,,,99,,,,,,,Space,keypress(Space),,,,,,,,---- -- ----- -- ------ - ------- --- ----------<br>------------- ------ ------ ---- ---- ------- close -- ----<br>-------- ------- -- ---------- --- - --- ----- ----- ----<br>---- --- --- ----- --- ---- ---- ------- ----- ---- -------<br>--- --- -- ----- -- --- ---- -- --- ---- -- ------ ------<br>--- ----- -- ----,128088.29999999702,128087.89999999851,127626.238,127628.59999999776,127642.896,128092.913,,15,close
screen,html.Screen,2_1_0_1_16,2022-02-02T17:55:46.622Z,,,,,,,,,,,,,,,,,53,,,,,,,,,,,,,,393.18699999776436,,response,,,,99,,,,,,,Space,keypress(Space),,,,,,,,---- -- ----- -- ------ - ------- --- ----------<br>------------- ------ ------ ---- ---- ------- ----- to ----<br>-------- ------- -- ---------- --- - --- ----- ----- ----<br>---- --- --- ----- --- ---- ---- ------- ----- ---- -------<br>--- --- -- ----- -- --- ---- -- --- ---- -- ------ ------<br>--- ----- -- ----,128486.69999999925,128486.09999999776,128076.221,128088.39999999851,128092.913,128492.955,,16,to
screen,html.Screen,2_1_0_1_17,2022-02-02T17:55:47.105Z,,,,,,,,,,,,,,,,,53,,,,,,,,,,,,,,476.2449999992532,,response,,,,99,,,,,,,Space,keypress(Space),,,,,,,,---- -- ----- -- ------ - ------- --- ----------<br>------------- ------ ------ ---- ---- ------- ----- -- your<br>-------- ------- -- ---------- --- - --- ----- ----- ----<br>---- --- --- ----- --- ---- ---- ------- ----- ---- -------<br>--- --- -- ----- -- --- ---- -- --- ---- -- ------ ------<br>--- ----- -- ----,128969.59999999776,128969.19999999925,128476.258,128486.89999999851,128492.955,128976.27,,17,your
screen,html.Screen,2_1_0_1_18,2022-02-02T17:55:47.671Z,,,,,,,,,,,,,,,,,53,,,,,,,,,,,,,,559.5299999970157,,response,,,,99,,,,,,,Space,keypress(Space),,,,,,,,---- -- ----- -- ------ - ------- --- ----------<br>------------- ------ ------ ---- ---- ------- ----- -- ----<br>romantic ------- -- ---------- --- - --- ----- ----- ----<br>---- --- --- ----- --- ---- ---- ------- ----- ---- -------<br>--- --- -- ----- -- --- ---- -- --- ---- -- ------ ------<br>--- ----- -- ----,129536.29999999702,129535.79999999702,128959.598,128969.69999999925,128976.27,129542.975,,18,romantic
screen,html.Screen,2_1_0_1_19,2022-02-02T17:55:48.101Z,,,,,,,,,,,,,,,,,53,,,,,,,,,,,,,,422.5249999999942,,response,,,,99,,,,,,,Space,keypress(Space),,,,,,,,---- -- ----- -- ------ - ------- --- ----------<br>------------- ------ ------ ---- ---- ------- ----- -- ----<br>-------- partner -- ---------- --- - --- ----- ----- ----<br>---- --- --- ----- --- ---- ---- ------- ----- ---- -------<br>--- --- -- ----- -- --- ---- -- --- ---- -- ------ ------<br>--- ----- -- ----,129966,129965.5,129526.311,129536.39999999851,129542.975,129976.344,,19,partner
screen,html.Screen,2_1_0_1_20,2022-02-02T17:55:48.525Z,,,,,,,,,,,,,,,,,53,,,,,,,,,,,,,,413.1560000000027,,response,,,,99,,,,,,,Space,keypress(Space),,,,,,,,---- -- ----- -- ------ - ------- --- ----------<br>------------- ------ ------ ---- ---- ------- ----- -- ----<br>-------- ------- is ---------- --- - --- ----- ----- ----<br>---- --- --- ----- --- ---- ---- ------- ----- ---- -------<br>--- --- -- ----- -- --- ---- -- --- ---- -- ------ ------<br>--- ----- -- ----,130390,130389.5,129959.629,129966.09999999776,129976.344,130393.005,,20,is
screen,html.Screen,2_1_0_1_21,2022-02-02T17:55:48.910Z,,,,,,,,,,,,,,,,,53,,,,,,,,,,,,,,380.8949999985052,,response,,,,99,,,,,,,Space,keypress(Space),,,,,,,,---- -- ----- -- ------ - ------- --- ----------<br>------------- ------ ------ ---- ---- ------- ----- -- ----<br>-------- ------- -- paramount. --- - --- ----- ----- ----<br>---- --- --- ----- --- ---- ---- ------- ----- ---- -------<br>--- --- -- ----- -- --- ---- -- --- ---- -- ------ ------<br>--- ----- -- ----,130774.59999999776,130773.89999999851,130376.32,130390,130393.005,130776.524,,21,paramount.
screen,html.Screen,2_1_0_1_22,2022-02-02T17:55:49.504Z,,,,,,,,,,,,,,,,,53,,,,,,,,,,,,,,591.375999998505,,response,,,,99,,,,,,,Space,keypress(Space),,,,,,,,---- -- ----- -- ------ - ------- --- ----------<br>------------- ------ ------ ---- ---- ------- ----- -- ----<br>-------- ------- -- ---------- But - --- ----- ----- ----<br>---- --- --- ----- --- ---- ---- ------- ----- ---- -------<br>--- --- -- ----- -- --- ---- -- --- ---- -- ------ ------<br>--- ----- -- ----,131368.69999999925,131367.8999999985,130759.675,130774.79999999702,130776.524,131376.363,,22,But
screen,html.Screen,2_1_0_1_23,2022-02-02T17:55:49.922Z,,,,,,,,,,,,,,,,,53,,,,,,,,,,,,,,409.7369999977527,,response,,,,99,,,,,,,Space,keypress(Space),,,,,,,,---- -- ----- -- ------ - ------- --- ----------<br>------------- ------ ------ ---- ---- ------- ----- -- ----<br>-------- ------- -- ---------- --- a --- ----- ----- ----<br>---- --- --- ----- --- ---- ---- ------- ----- ---- -------<br>--- --- -- ----- -- --- ---- -- --- ---- -- ------ ------<br>--- ----- -- ----,131786.5,131786.09999999776,131359.741,131368.79999999702,131376.363,131793.049,,23,a
screen,html.Screen,2_1_0_1_24,2022-02-02T17:55:50.289Z,,,,,,,,,,,,,,,,,53,,,,,,,,,,,,,,360.05099999776576,,response,,,,99,,,,,,,Space,keypress(Space),,,,,,,,---- -- ----- -- ------ - ------- --- ----------<br>------------- ------ ------ ---- ---- ------- ----- -- ----<br>-------- ------- -- ---------- --- - new ----- ----- ----<br>---- --- --- ----- --- ---- ---- ------- ----- ---- -------<br>--- --- -- ----- -- --- ---- -- --- ---- -- ------ ------<br>--- ----- -- ----,132153.59999999776,132153.09999999776,131776.378,131786.5,131793.049,132159.751,,24,new
screen,html.Screen,2_1_0_1_25,2022-02-02T17:55:50.667Z,,,,,,,,,,,,,,,,,53,,,,,,,,,,,,,,371.94899999926565,,response,,,,99,,,,,,,Space,keypress(Space),,,,,,,,---- -- ----- -- ------ - ------- --- ----------<br>------------- ------ ------ ---- ---- ------- ----- -- ----<br>-------- ------- -- ---------- --- - --- study ----- ----<br>---- --- --- ----- --- ---- ---- ------- ----- ---- -------<br>--- --- -- ----- -- --- ---- -- --- ---- -- ------ ------<br>--- ----- -- ----,132532.09999999776,132531.69999999925,132143.12,132153.69999999925,132159.751,132543.13,,25,study
screen,html.Screen,2_1_0_1_26,2022-02-02T17:55:51.025Z,,,,,,,,,,,,,,,,,53,,,,,,,,,,,,,,346.5699999992503,,response,,,,99,,,,,,,Space,keypress(Space),,,,,,,,---- -- ----- -- ------ - ------- --- ----------<br>------------- ------ ------ ---- ---- ------- ----- -- ----<br>-------- ------- -- ---------- --- - --- ----- finds ----<br>---- --- --- ----- --- ---- ---- ------- ----- ---- -------<br>--- --- -- ----- -- --- ---- -- --- ---- -- ------ ------<br>--- ----- -- ----,132890,132889.69999999925,132526.428,132532.19999999925,132543.13,132893.117,,26,finds
screen,html.Screen,2_1_0_1_27,2022-02-02T17:55:51.421Z,,,,,,,,,,,,,,,,,53,,,,,,,,,,,,,,392.38300000000163,,response,,,,99,,,,,,,Space,keypress(Space),,,,,,,,---- -- ----- -- ------ - ------- --- ----------<br>------------- ------ ------ ---- ---- ------- ----- -- ----<br>-------- ------- -- ---------- --- - --- ----- ----- that<br>---- --- --- ----- --- ---- ---- ------- ----- ---- -------<br>--- --- -- ----- -- --- ---- -- --- ---- -- ------ ------<br>--- ----- -- ----,133285.79999999702,133285.5,132876.42,132890.09999999776,132893.117,133293.134,,27,that
screen,html.Screen,2_1_0_1_28,2022-02-02T17:55:51.824Z,,,,,,,,,,,,,,,,,53,,,,,,,,,,,,,,395.065999999264,,response,,,,99,,,,,,,Space,keypress(Space),,,,,,,,---- -- ----- -- ------ - ------- --- ----------<br>------------- ------ ------ ---- ---- ------- ----- -- ----<br>-------- ------- -- ---------- --- - --- ----- ----- ----<br>it's --- --- ----- --- ---- ---- ------- ----- ---- -------<br>--- --- -- ----- -- --- ---- -- --- ---- -- ------ ------<br>--- ----- -- ----,133688.8999999985,133688.19999999925,133276.426,133285.8999999985,133293.134,133693.117,,28,it's
screen,html.Screen,2_1_0_1_29,2022-02-02T17:55:52.223Z,,,,,,,,,,,,,,,,,53,,,,,,,,,,,,,,394.5829999992566,,response,,,,99,,,,,,,Space,keypress(Space),,,,,,,,---- -- ----- -- ------ - ------- --- ----------<br>------------- ------ ------ ---- ---- ------- ----- -- ----<br>-------- ------- -- ---------- --- - --- ----- ----- ----<br>---- not --- ----- --- ---- ---- ------- ----- ---- -------<br>--- --- -- ----- -- --- ---- -- --- ---- -- ------ ------<br>--- ----- -- ----,134088.09999999776,134087.69999999925,133676.454,133689,133693.117,134093.131,,29,not
screen,html.Screen,2_1_0_1_30,2022-02-02T17:55:52.608Z,,,,,,,,,,,,,,,,,53,,,,,,,,,,,,,,379.1689999970258,,response,,,,99,,,,,,,Space,keypress(Space),,,,,,,,---- -- ----- -- ------ - ------- --- ----------<br>------------- ------ ------ ---- ---- ------- ----- -- ----<br>-------- ------- -- ---------- --- - --- ----- ----- ----<br>---- --- how ----- --- ---- ---- ------- ----- ---- -------<br>--- --- -- ----- -- --- ---- -- --- ---- -- ------ ------<br>--- ----- -- ----,134473,134472.29999999702,134076.498,134088.29999999702,134093.131,134476.531,,30,how
screen,html.Screen,2_1_0_1_31,2022-02-02T17:55:52.959Z,,,,,,,,,,,,,,,,,53,,,,,,,,,,,,,,347.0689999977767,,response,,,,99,,,,,,,Space,keypress(Space),,,,,,,,---- -- ----- -- ------ - ------- --- ----------<br>------------- ------ ------ ---- ---- ------- ----- -- ----<br>-------- ------- -- ---------- --- - --- ----- ----- ----<br>---- --- --- close --- ---- ---- ------- ----- ---- -------<br>--- --- -- ----- -- --- ---- -- --- ---- -- ------ ------<br>--- ----- -- ----,134824.29999999702,134823.59999999776,134459.826,134473.29999999702,134476.531,134826.497,,31,close
screen,html.Screen,2_1_0_1_32,2022-02-02T17:55:53.353Z,,,,,,,,,,,,,,,,,53,,,,,,,,,,,,,,391.1029999977618,,response,,,,99,,,,,,,Space,keypress(Space),,,,,,,,---- -- ----- -- ------ - ------- --- ----------<br>------------- ------ ------ ---- ---- ------- ----- -- ----<br>-------- ------- -- ---------- --- - --- ----- ----- ----<br>---- --- --- ----- you ---- ---- ------- ----- ---- -------<br>--- --- -- ----- -- --- ---- -- --- ---- -- ------ ------<br>--- ----- -- ----,135218.19999999925,135217.59999999776,134809.906,134824.5,134826.497,135226.541,,32,you
screen,html.Screen,2_1_0_1_33,2022-02-02T17:55:53.685Z,,,,,,,,,,,,,,,,,53,,,,,,,,,,,,,,322.95900000000256,,response,,,,99,,,,,,,Space,keypress(Space),,,,,,,,---- -- ----- -- ------ - ------- --- ----------<br>------------- ------ ------ ---- ---- ------- ----- -- ----<br>-------- ------- -- ---------- --- - --- ----- ----- ----<br>---- --- --- ----- --- feel ---- ------- ----- ---- -------<br>--- --- -- ----- -- --- ---- -- --- ---- -- ------ ------<br>--- ----- -- ----,135549.8999999985,135549.5,135209.926,135218.19999999925,135226.541,135559.867,,33,feel
screen,html.Screen,2_1_0_1_34,2022-02-02T17:55:54.048Z,,,,,,,,,,,,,,,,,53,,,,,,,,,,,,,,352.4329999970214,,response,,,,99,,,,,,,Space,keypress(Space),,,,,,,,---- -- ----- -- ------ - ------- --- ----------<br>------------- ------ ------ ---- ---- ------- ----- -- ----<br>-------- ------- -- ---------- --- - --- ----- ----- ----<br>---- --- --- ----- --- ---- that ------- ----- ---- -------<br>--- --- -- ----- -- --- ---- -- --- ---- -- ------ ------<br>--- ----- -- ----,135913,135912.29999999702,135543.203,135550,135559.867,135926.564,,34,that
screen,html.Screen,2_1_0_1_35,2022-02-02T17:55:54.433Z,,,,,,,,,,,,,,,,,53,,,,,,,,,,,,,,370.83599999849685,,response,,,,99,,,,,,,Space,keypress(Space),,,,,,,,---- -- ----- -- ------ - ------- --- ----------<br>------------- ------ ------ ---- ---- ------- ----- -- ----<br>-------- ------- -- ---------- --- - --- ----- ----- ----<br>---- --- --- ----- --- ---- ---- matters ----- ---- -------<br>--- --- -- ----- -- --- ---- -- --- ---- -- ------ ------<br>--- ----- -- ----,136297.8999999985,136297.3999999985,135909.894,135913.09999999776,135926.564,136309.895,,35,matters
screen,html.Screen,2_1_0_1_36,2022-02-02T17:55:54.842Z,,,,,,,,,,,,,,,,,53,,,,,,,,,,,,,,396.50499999852036,,response,,,,99,,,,,,,Space,keypress(Space),,,,,,,,"---- -- ----- -- ------ - ------- --- ----------<br>------------- ------ ------ ---- ---- ------- ----- -- ----<br>-------- ------- -- ---------- --- - --- ----- ----- ----<br>---- --- --- ----- --- ---- ---- ------- most, ---- -------<br>--- --- -- ----- -- --- ---- -- --- ---- -- ------ ------<br>--- ----- -- ----",136707.09999999776,136706.3999999985,136293.235,136298,136309.895,136709.931,,36,"most,"
screen,html.Screen,2_1_0_1_37,2022-02-02T17:55:55.235Z,,,,,,,,,,,,,,,,,53,,,,,,,,,,,,,,389.4689999984985,,response,,,,99,,,,,,,Space,keypress(Space),,,,,,,,---- -- ----- -- ------ - ------- --- ----------<br>------------- ------ ------ ---- ---- ------- ----- -- ----<br>-------- ------- -- ---------- --- - --- ----- ----- ----<br>---- --- --- ----- --- ---- ---- ------- ----- it's -------<br>--- --- -- ----- -- --- ---- -- --- ---- -- ------ ------<br>--- ----- -- ----,137099.79999999702,137099.3999999985,136693.244,136707.29999999702,136709.931,137109.917,,37,it's
screen,html.Screen,2_1_0_1_38,2022-02-02T17:55:55.613Z,,,,,,,,,,,,,,,,,53,,,,,,,,,,,,,,367.38299999703304,,response,,,,99,,,,,,,Space,keypress(Space),,,,,,,,---- -- ----- -- ------ - ------- --- ----------<br>------------- ------ ------ ---- ---- ------- ----- -- ----<br>-------- ------- -- ---------- --- - --- ----- ----- ----<br>---- --- --- ----- --- ---- ---- ------- ----- ---- whether<br>--- --- -- ----- -- --- ---- -- --- ---- -- ------ ------<br>--- ----- -- ----,137477.8999999985,137477.29999999702,137093.413,137100,137109.917,137493.611,,38,whether
screen,html.Screen,2_1_0_1_39,2022-02-02T17:55:56.037Z,,,,,,,,,,,,,,,,,53,,,,,,,,,,,,,,407.78899999850546,,response,,,,99,,,,,,,Space,keypress(Space),,,,,,,,---- -- ----- -- ------ - ------- --- ----------<br>------------- ------ ------ ---- ---- ------- ----- -- ----<br>-------- ------- -- ---------- --- - --- ----- ----- ----<br>---- --- --- ----- --- ---- ---- ------- ----- ---- -------<br>you --- -- ----- -- --- ---- -- --- ---- -- ------ ------<br>--- ----- -- ----,137901.69999999925,137901.3999999985,137476.604,137478.09999999776,137493.611,137909.949,,39,you
screen,html.Screen,2_1_0_1_40,2022-02-02T17:55:56.366Z,,,,,,,,,,,,,,,,,53,,,,,,,,,,,,,,320.3509999970265,,response,,,,99,,,,,,,Space,keypress(Space),,,,,,,,---- -- ----- -- ------ - ------- --- ----------<br>------------- ------ ------ ---- ---- ------- ----- -- ----<br>-------- ------- -- ---------- --- - --- ----- ----- ----<br>---- --- --- ----- --- ---- ---- ------- ----- ---- -------<br>--- are -- ----- -- --- ---- -- --- ---- -- ------ ------<br>--- ----- -- ----,138230.8999999985,138230.29999999702,137893.281,137901.8999999985,137909.949,138243.542,,40,are
screen,html.Screen,2_1_0_1_41,2022-02-02T17:55:56.744Z,,,,,,,,,,,,,,,,,53,,,,,,,,,,,,,,364.45800000001327,,response,,,,99,,,,,,,Space,keypress(Space),,,,,,,,---- -- ----- -- ------ - ------- --- ----------<br>------------- ------ ------ ---- ---- ------- ----- -- ----<br>-------- ------- -- ---------- --- - --- ----- ----- ----<br>---- --- --- ----- --- ---- ---- ------- ----- ---- -------<br>--- --- as ----- -- --- ---- -- --- ---- -- ------ ------<br>--- ----- -- ----,138608.79999999702,138608,138226.674,138231,138243.542,138630.716,,41,as
screen,html.Screen,2_1_0_1_42,2022-02-02T17:55:57.116Z,,,,,,,,,,,,,,,,,53,,,,,,,,,,,,,,349.2840000000142,,response,,,,99,,,,,,,Space,keypress(Space),,,,,,,,---- -- ----- -- ------ - ------- --- ----------<br>------------- ------ ------ ---- ---- ------- ----- -- ----<br>-------- ------- -- ---------- --- - --- ----- ----- ----<br>---- --- --- ----- --- ---- ---- ------- ----- ---- -------<br>--- --- -- close -- --- ---- -- --- ---- -- ------ ------<br>--- ----- -- ----,138980.5,138980,138593.368,138608.8999999985,138630.716,138993.331,,42,close
screen,html.Screen,2_1_0_1_43,2022-02-02T17:55:57.516Z,,,,,,,,,,,,,,,,,53,,,,,,,,,,,,,,386.76899999775924,,response,,,,99,,,,,,,Space,keypress(Space),,,,,,,,---- -- ----- -- ------ - ------- --- ----------<br>------------- ------ ------ ---- ---- ------- ----- -- ----<br>-------- ------- -- ---------- --- - --- ----- ----- ----<br>---- --- --- ----- --- ---- ---- ------- ----- ---- -------<br>--- --- -- ----- as --- ---- -- --- ---- -- ------ ------<br>--- ----- -- ----,139380.59999999776,139380.09999999776,138976.664,138980.59999999776,138993.331,139393.432,,43,as
screen,html.Screen,2_1_0_1_44,2022-02-02T17:55:57.889Z,,,,,,,,,,,,,,,,,53,,,,,,,,,,,,,,360.1679999977641,,response,,,,99,,,,,,,Space,keypress(Space),,,,,,,,---- -- ----- -- ------ - ------- --- ----------<br>------------- ------ ------ ---- ---- ------- ----- -- ----<br>-------- ------- -- ---------- --- - --- ----- ----- ----<br>---- --- --- ----- --- ---- ---- ------- ----- ---- -------<br>--- --- -- ----- -- you ---- -- --- ---- -- ------ ------<br>--- ----- -- ----,139754.09999999776,139753.59999999776,139376.728,139380.79999999702,139393.432,139760.017,,44,you
screen,html.Screen,2_1_0_1_45,2022-02-02T17:55:58.278Z,,,,,,,,,,,,,,,,,53,,,,,,,,,,,,,,381.7829999970272,,response,,,,99,,,,,,,Space,keypress(Space),,,,,,,,---- -- ----- -- ------ - ------- --- ----------<br>------------- ------ ------ ---- ---- ------- ----- -- ----<br>-------- ------- -- ---------- --- - --- ----- ----- ----<br>---- --- --- ----- --- ---- ---- ------- ----- ---- -------<br>--- --- -- ----- -- --- want -- --- ---- -- ------ ------<br>--- ----- -- ----,140142.29999999702,140141.79999999702,139743.357,139754.19999999925,139760.017,140172.054,,45,want
screen,html.Screen,2_1_0_1_46,2022-02-02T17:55:58.639Z,,,,,,,,,,,,,,,,,53,,,,,,,,,,,,,,331.1459999992512,,response,,,,99,,,,,,,Space,keypress(Space),,,,,,,,---- -- ----- -- ------ - ------- --- ----------<br>------------- ------ ------ ---- ---- ------- ----- -- ----<br>-------- ------- -- ---------- --- - --- ----- ----- ----<br>---- --- --- ----- --- ---- ---- ------- ----- ---- -------<br>--- --- -- ----- -- --- ---- to --- ---- -- ------ ------<br>--- ----- -- ----,140503.59999999776,140503.19999999925,140126.722,140142.5,140172.054,140510.05,,46,to
screen,html.Screen,2_1_0_1_47,2022-02-02T17:55:58.953Z,,,,,,,,,,,,,,,,,53,,,,,,,,,,,,,,307.2499999970314,,response,,,,99,,,,,,,Space,keypress(Space),,,,,,,,"---- -- ----- -- ------ - ------- --- ----------<br>------------- ------ ------ ---- ---- ------- ----- -- ----<br>-------- ------- -- ---------- --- - --- ----- ----- ----<br>---- --- --- ----- --- ---- ---- ------- ----- ---- -------<br>--- --- -- ----- -- --- ---- -- be, ---- -- ------ ------<br>--- ----- -- ----",140817.69999999925,140817.29999999702,140493.39,140503.69999999925,140510.05,140826.729,,47,"be,"
screen,html.Screen,2_1_0_1_48,2022-02-02T17:55:59.398Z,,,,,,,,,,,,,,,,,53,,,,,,,,,,,,,,431.0709999970277,,response,,,,99,,,,,,,Space,keypress(Space),,,,,,,,---- -- ----- -- ------ - ------- --- ----------<br>------------- ------ ------ ---- ---- ------- ----- -- ----<br>-------- ------- -- ---------- --- - --- ----- ----- ----<br>---- --- --- ----- --- ---- ---- ------- ----- ---- -------<br>--- --- -- ----- -- --- ---- -- --- even -- ------ ------<br>--- ----- -- ----,141262.69999999925,141257.79999999702,140810.058,140817.69999999925,140826.729,141276.783,,48,even
screen,html.Screen,2_1_0_1_49,2022-02-02T17:55:59.792Z,,,,,,,,,,,,,,,,,53,,,,,,,,,,,,,,379.41699999925913,,response,,,,99,,,,,,,Space,keypress(Space),,,,,,,,---- -- ----- -- ------ - ------- --- ----------<br>------------- ------ ------ ---- ---- ------- ----- -- ----<br>-------- ------- -- ---------- --- - --- ----- ----- ----<br>---- --- --- ----- --- ---- ---- ------- ----- ---- -------<br>--- --- -- ----- -- --- ---- -- --- ---- if ------ ------<br>--- ----- -- ----,141657,141656.19999999925,141260.078,141262.69999999925,141276.783,141660.17,,49,if
screen,html.Screen,2_1_0_1_50,2022-02-02T17:56:00.111Z,,,,,,,,,,,,,,,,,53,,,,,,,,,,,,,,314.8299999999872,,response,,,,99,,,,,,,Space,keypress(Space),,,,,,,,---- -- ----- -- ------ - ------- --- ----------<br>------------- ------ ------ ---- ---- ------- ----- -- ----<br>-------- ------- -- ---------- --- - --- ----- ----- ----<br>---- --- --- ----- --- ---- ---- ------- ----- ---- -------<br>--- --- -- ----- -- --- ---- -- --- ---- -- that's ------<br>--- ----- -- ----,141975.5,141975,141643.47,141657.19999999925,141660.17,141994.47,,50,that's
screen,html.Screen,2_1_0_1_51,2022-02-02T17:56:00.510Z,,,,,,,,,,,,,,,,,53,,,,,,,,,,,,,,379.8299999970186,,response,,,,99,,,,,,,Space,keypress(Space),,,,,,,,---- -- ----- -- ------ - ------- --- ----------<br>------------- ------ ------ ---- ---- ------- ----- -- ----<br>-------- ------- -- ---------- --- - --- ----- ----- ----<br>---- --- --- ----- --- ---- ---- ------- ----- ---- -------<br>--- --- -- ----- -- --- ---- -- --- ---- -- ------ really<br>--- ----- -- ----,142374.69999999925,142374.29999999702,141960.145,141975.5,141994.47,142376.81,,51,really
screen,html.Screen,2_1_0_1_52,2022-02-02T17:56:00.917Z,,,,,,,,,,,,,,,,,53,,,,,,,,,,,,,,404.4899999970221,,response,,,,99,,,,,,,Space,keypress(Space),,,,,,,,---- -- ----- -- ------ - ------- --- ----------<br>------------- ------ ------ ---- ---- ------- ----- -- ----<br>-------- ------- -- ---------- --- - --- ----- ----- ----<br>---- --- --- ----- --- ---- ---- ------- ----- ---- -------<br>--- --- -- ----- -- --- ---- -- --- ---- -- ------ ------<br>not ----- -- ----,142781.69999999925,142781.29999999702,142360.123,142374.79999999702,142376.81,142793.49,,52,not
screen,html.Screen,2_1_0_1_53,2022-02-02T17:56:01.244Z,,,,,,,,,,,,,,,,,53,,,,,,,,,,,,,,314.5100000000093,,response,,,,99,,,,,,,Space,keypress(Space),,,,,,,,---- -- ----- -- ------ - ------- --- ----------<br>------------- ------ ------ ---- ---- ------- ----- -- ----<br>-------- ------- -- ---------- --- - --- ----- ----- ----<br>---- --- --- ----- --- ---- ---- ------- ----- ---- -------<br>--- --- -- ----- -- --- ---- -- --- ---- -- ------ ------<br>--- close -- ----,143108.69999999925,143108,142776.859,142781.79999999702,142793.49,143138.701,,53,close
screen,html.Screen,2_1_0_1_54,2022-02-02T17:56:01.601Z,,,,,,,,,,,,,,,,,53,,,,,,,,,,,,,,326.498999999254,,response,,,,99,,,,,,,Space,keypress(Space),,,,,,,,---- -- ----- -- ------ - ------- --- ----------<br>------------- ------ ------ ---- ---- ------- ----- -- ----<br>-------- ------- -- ---------- --- - --- ----- ----- ----<br>---- --- --- ----- --- ---- ---- ------- ----- ---- -------<br>--- --- -- ----- -- --- ---- -- --- ---- -- ------ ------<br>--- ----- at ----,143465.59999999776,143465.19999999925,143093.48,143108.79999999702,143138.701,143476.853,,54,at
screen,html.Screen,2_1_0_1_55,2022-02-02T17:56:02.040Z,,,,,,,,,,,,,,,,,53,,,,,,,,,,,,,,428.0469999985071,,response,,,,99,,,,,,,Space,keypress(Space),,,,,,,,---- -- ----- -- ------ - ------- --- ----------<br>------------- ------ ------ ---- ---- ------- ----- -- ----<br>-------- ------- -- ---------- --- - --- ----- ----- ----<br>---- --- --- ----- --- ---- ---- ------- ----- ---- -------<br>--- --- -- ----- -- --- ---- -- --- ---- -- ------ ------<br>--- ----- -- all.,143905.29999999702,143904.8999999985,143460.207,143465.69999999925,143476.853,143910.198,,55,all.
Item 99,flow.Loop,2_1_0_1,2022-02-02T17:56:02.041Z,,,,,,,,,,,,,,,,,,,,,,,,,,,,,,,25512.343999998513,,completion,,,,,E,,,,,,,,,,,silence,,,,,143905.3999999985,143904.8999999985,118375.877,118376.59999999776,118392.556,143910.198,,,
Question 1,html.Screen,2_1_0_2,2022-02-02T17:56:09.628Z,,,,,,,,,,,,,,,,,,,,,,,,,,,,false,FALSE,,7581.801999999996,,response,,,,99,E,,,,,,TRUE,click #choice-1,,,,silence,,,,,151492.3999999985,151492,143893.528,143905.5,143910.198,151510.482,,,
Question 2,html.Screen,2_1_0_3,2022-02-02T17:56:14.858Z,,,,,,,,,,,,,,,,,,,,,,,,,,,,true,TRUE,,5210.317999997031,,response,,,,99,E,,,,,,TRUE,click #choice-1,,,,silence,,,,,156722.5,156720.79999999702,151493.816,151492.3999999985,151510.482,156744.089,,,
Item 99,flow.Sequence,2_1_0,2022-02-02T17:56:14.858Z,,,,,,,,,,,,,,,,,,,,,,,,,,,,,,,48328.65699999702,,completion,,,,,,,,,,,,,,,,,,,,,156723,156720.79999999702,108375.472,108381.79999999702,108392.143,156744.089,,,
Holding screen,html.Screen,2_1_1_0,2022-02-02T17:56:24.863Z,,,,,,,,,,,,,,,,,,,,,,,,,,,,,,,10000.32699999999,,timeout,,,,,,,,,,,,,,,,,,,,,166728.09999999776,166727.724,156727.499,156723.09999999776,156744.089,166744.416,,,
screen,html.Screen,2_1_1_1_0,2022-02-02T17:56:25.969Z,,,,,,,,,,,,,,,,,54,,,,,,,,,,,,,,1088.4839999985124,,response,,,,100,,,,,,,Space,keypress(Space),,,,,,,,At --- ---- --- ------ ----- ------- ---- -- --- ------- --<br>------- ---------- ------ -- ----- -- ----- -- ---- ------<br>--- ----- --- --- ------ -------- ----- --- ------ ----- --<br>----- ----- ---------- --- --- ------ ------ ---- -- ------<br>------- --- ------ ----- --- ---- ------- -- ---- --- --<br>------- ------,167833.79999999702,167832.8999999985,166727.724,166728.19999999925,166744.416,167844.45,,0,At
screen,html.Screen,2_1_1_1_1,2022-02-02T17:56:26.394Z,,,,,,,,,,,,,,,,,54,,,,,,,,,,,,,,414.1499999977532,,response,,,,100,,,,,,,Space,keypress(Space),,,,,,,,-- the ---- --- ------ ----- ------- ---- -- --- ------- --<br>------- ---------- ------ -- ----- -- ----- -- ---- ------<br>--- ----- --- --- ------ -------- ----- --- ------ ----- --<br>----- ----- ---------- --- --- ------ ------ ---- -- ------<br>------- --- ------ ----- --- ---- ------- -- ---- --- --<br>------- ------,168259,168258.59999999776,167827.755,167834,167844.45,168261.135,,1,the
screen,html.Screen,2_1_1_1_2,2022-02-02T17:56:26.680Z,,,,,,,,,,,,,,,,,54,,,,,,,,,,,,,,283.56499999924563,,response,,,,100,,,,,,,Space,keypress(Space),,,,,,,,-- --- time --- ------ ----- ------- ---- -- --- ------- --<br>------- ---------- ------ -- ----- -- ----- -- ---- ------<br>--- ----- --- --- ------ -------- ----- --- ------ ----- --<br>----- ----- ---------- --- --- ------ ------ ---- -- ------<br>------- --- ------ ----- --- ---- ------- -- ---- --- --<br>------- ------,168545.19999999925,168544.69999999925,168244.474,168259.09999999776,168261.135,168561.169,,2,time
screen,html.Screen,2_1_1_1_3,2022-02-02T17:56:27.086Z,,,,,,,,,,,,,,,,,54,,,,,,,,,,,,,,389.63099999702536,,response,,,,100,,,,,,,Space,keypress(Space),,,,,,,,-- --- ---- the ------ ----- ------- ---- -- --- ------- --<br>------- ---------- ------ -- ----- -- ----- -- ---- ------<br>--- ----- --- --- ------ -------- ----- --- ------ ----- --<br>----- ----- ---------- --- --- ------ ------ ---- -- ------<br>------- --- ------ ----- --- ---- ------- -- ---- --- --<br>------- ------,168951.19999999925,168950.79999999702,168544.502,168545.3999999985,168561.169,168961.149,,3,the
screen,html.Screen,2_1_1_1_4,2022-02-02T17:56:27.419Z,,,,,,,,,,,,,,,,,54,,,,,,,,,,,,,,322.250999998505,,response,,,,100,,,,,,,Space,keypress(Space),,,,,,,,-- --- ---- --- French ----- ------- ---- -- --- ------- --<br>------- ---------- ------ -- ----- -- ----- -- ---- ------<br>--- ----- --- --- ------ -------- ----- --- ------ ----- --<br>----- ----- ---------- --- --- ------ ------ ---- -- ------<br>------- --- ------ ----- --- ---- ------- -- ---- --- --<br>------- ------,169284.09999999776,169283.3999999985,168944.51,168951.29999999702,168961.149,169294.547,,4,French
screen,html.Screen,2_1_1_1_5,2022-02-02T17:56:27.817Z,,,,,,,,,,,,,,,,,54,,,,,,,,,,,,,,386.55299999777344,,response,,,,100,,,,,,,Space,keypress(Space),,,,,,,,-- --- ---- --- ------ crown ------- ---- -- --- ------- --<br>------- ---------- ------ -- ----- -- ----- -- ---- ------<br>--- ----- --- --- ------ -------- ----- --- ------ ----- --<br>----- ----- ---------- --- --- ------ ------ ---- -- ------<br>------- --- ------ ----- --- ---- ------- -- ---- --- --<br>------- ------,169681.59999999776,169681.09999999776,169277.861,169284.19999999925,169294.547,169694.531,,5,crown
screen,html.Screen,2_1_1_1_6,2022-02-02T17:56:28.251Z,,,,,,,,,,,,,,,,,54,,,,,,,,,,,,,,420.5689999977767,,response,,,,100,,,,,,,Space,keypress(Space),,,,,,,,-- --- ---- --- ------ ----- secured ---- -- --- ------- --<br>------- ---------- ------ -- ----- -- ----- -- ---- ------<br>--- ----- --- --- ------ -------- ----- --- ------ ----- --<br>----- ----- ---------- --- --- ------ ------ ---- -- ------<br>------- --- ------ ----- --- ---- ------- -- ---- --- --<br>------- ------,170115.79999999702,170115.09999999776,169677.853,169681.59999999776,169694.531,170127.909,,6,secured
screen,html.Screen,2_1_1_1_7,2022-02-02T17:56:28.663Z,,,,,,,,,,,,,,,,,54,,,,,,,,,,,,,,398.9909999984957,,response,,,,100,,,,,,,Space,keypress(Space),,,,,,,,-- --- ---- --- ------ ----- ------- much -- --- ------- --<br>------- ---------- ------ -- ----- -- ----- -- ---- ------<br>--- ----- --- --- ------ -------- ----- --- ------ ----- --<br>----- ----- ---------- --- --- ------ ------ ---- -- ------<br>------- --- ------ ----- --- ---- ------- -- ---- --- --<br>------- ------,170527.5,170526.8999999985,170111.664,170116,170127.909,170544.573,,7,much
screen,html.Screen,2_1_1_1_8,2022-02-02T17:56:29.078Z,,,,,,,,,,,,,,,,,54,,,,,,,,,,,,,,398.02699999776087,,response,,,,100,,,,,,,Space,keypress(Space),,,,,,,,-- --- ---- --- ------ ----- ------- ---- of --- ------- --<br>------- ---------- ------ -- ----- -- ----- -- ---- ------<br>--- ----- --- --- ------ -------- ----- --- ------ ----- --<br>----- ----- ---------- --- --- ------ ------ ---- -- ------<br>------- --- ------ ----- --- ---- ------- -- ---- --- --<br>------- ------,170942.8999999985,170942.59999999776,170527.901,170527.59999999776,170544.573,170944.577,,8,of
screen,html.Screen,2_1_1_1_9,2022-02-02T17:56:29.426Z,,,,,,,,,,,,,,,,,54,,,,,,,,,,,,,,346.4230000000098,,response,,,,100,,,,,,,Space,keypress(Space),,,,,,,,-- --- ---- --- ------ ----- ------- ---- -- its ------- --<br>------- ---------- ------ -- ----- -- ----- -- ---- ------<br>--- ----- --- --- ------ -------- ----- --- ------ ----- --<br>----- ----- ---------- --- --- ------ ------ ---- -- ------<br>------- --- ------ ----- --- ---- ------- -- ---- --- --<br>------- ------,171291.29999999702,171291,170927.889,170943,170944.577,171294.569,,9,its
screen,html.Screen,2_1_1_1_10,2022-02-02T17:56:29.773Z,,,,,,,,,,,,,,,,,54,,,,,,,,,,,,,,341.63099999926635,,response,,,,100,,,,,,,Space,keypress(Space),,,,,,,,-- --- ---- --- ------ ----- ------- ---- -- --- revenue --<br>------- ---------- ------ -- ----- -- ----- -- ---- ------<br>--- ----- --- --- ------ -------- ----- --- ------ ----- --<br>----- ----- ---------- --- --- ------ ------ ---- -- ------<br>------- --- ------ ----- --- ---- ------- -- ---- --- --<br>------- ------,171637.29999999702,171636.19999999925,171277.914,171291.3999999985,171294.569,171644.608,,10,revenue
screen,html.Screen,2_1_1_1_11,2022-02-02T17:56:30.368Z,,,,,,,,,,,,,,,,,54,,,,,,,,,,,,,,588.1919999970123,,response,,,,100,,,,,,,Space,keypress(Space),,,,,,,,-- --- ---- --- ------ ----- ------- ---- -- --- ------- by<br>------- ---------- ------ -- ----- -- ----- -- ---- ------<br>--- ----- --- --- ------ -------- ----- --- ------ ----- --<br>----- ----- ---------- --- --- ------ ------ ---- -- ------<br>------- --- ------ ----- --- ---- ------- -- ---- --- --<br>------- ------,172233.09999999776,172232.79999999702,171627.949,171637.59999999776,171644.608,172244.709,,11,by
screen,html.Screen,2_1_1_1_12,2022-02-02T17:56:30.787Z,,,,,,,,,,,,,,,,,54,,,,,,,,,,,,,,406.6909999985073,,response,,,,100,,,,,,,Space,keypress(Space),,,,,,,,-- --- ---- --- ------ ----- ------- ---- -- --- ------- --<br>issuing ---------- ------ -- ----- -- ----- -- ---- ------<br>--- ----- --- --- ------ -------- ----- --- ------ ----- --<br>----- ----- ---------- --- --- ------ ------ ---- -- ------<br>------- --- ------ ----- --- ---- ------- -- ---- --- --<br>------- ------,172652.19999999925,172651.3999999985,172227.948,172233.29999999702,172244.709,172661.34,,12,issuing
screen,html.Screen,2_1_1_1_13,2022-02-02T17:56:31.160Z,,,,,,,,,,,,,,,,,54,,,,,,,,,,,,,,363.2599999977683,,response,,,,100,,,,,,,Space,keypress(Space),,,,,,,,-- --- ---- --- ------ ----- ------- ---- -- --- ------- --<br>------- government ------ -- ----- -- ----- -- ---- ------<br>--- ----- --- --- ------ -------- ----- --- ------ ----- --<br>----- ----- ---------- --- --- ------ ------ ---- -- ------<br>------- --- ------ ----- --- ---- ------- -- ---- --- --<br>------- ------,173024.8999999985,173024.59999999776,172644.629,172652.3999999985,172661.34,173028.085,,13,government
screen,html.Screen,2_1_1_1_14,2022-02-02T17:56:31.595Z,,,,,,,,,,,,,,,,,54,,,,,,,,,,,,,,430.91500000000815,,response,,,,100,,,,,,,Space,keypress(Space),,,,,,,,-- --- ---- --- ------ ----- ------- ---- -- --- ------- --<br>------- ---------- bonds. -- ----- -- ----- -- ---- ------<br>--- ----- --- --- ------ -------- ----- --- ------ ----- --<br>----- ----- ---------- --- --- ------ ------ ---- -- ------<br>------- --- ------ ----- --- ---- ------- -- ---- --- --<br>------- ------,173459.3999999985,173459,173011.326,173025.09999999776,173028.085,173461.33,,14,bonds.
screen,html.Screen,2_1_1_1_15,2022-02-02T17:56:32.126Z,,,,,,,,,,,,,,,,,54,,,,,,,,,,,,,,529.2699999977776,,response,,,,100,,,,,,,Space,keypress(Space),,,,,,,,-- --- ---- --- ------ ----- ------- ---- -- --- ------- --<br>------- ---------- ------ In ----- -- ----- -- ---- ------<br>--- ----- --- --- ------ -------- ----- --- ------ ----- --<br>----- ----- ---------- --- --- ------ ------ ---- -- ------<br>------- --- ------ ----- --- ---- ------- -- ---- --- --<br>------- ------,173990.8999999985,173990.59999999776,173444.68,173459.5,173461.33,173994.692,,15,In
screen,html.Screen,2_1_1_1_16,2022-02-02T17:56:32.536Z,,,,,,,,,,,,,,,,,54,,,,,,,,,,,,,,405.80799999999,,response,,,,100,,,,,,,Space,keypress(Space),,,,,,,,"-- --- ---- --- ------ ----- ------- ---- -- --- ------- --<br>------- ---------- ------ -- 1727, -- ----- -- ---- ------<br>--- ----- --- --- ------ -------- ----- --- ------ ----- --<br>----- ----- ---------- --- --- ------ ------ ---- -- ------<br>------- --- ------ ----- --- ---- ------- -- ---- --- --<br>------- ------",174401.09999999776,174400.5,173978.025,173991,173994.692,174411.415,,16,"1727,"
screen,html.Screen,2_1_1_1_17,2022-02-02T17:56:33.208Z,,,,,,,,,,,,,,,,,54,,,,,,,,,,,,,,661.0849999999919,,response,,,,100,,,,,,,Space,keypress(Space),,,,,,,,-- --- ---- --- ------ ----- ------- ---- -- --- ------- --<br>------- ---------- ------ -- ----- in ----- -- ---- ------<br>--- ----- --- --- ------ -------- ----- --- ------ ----- --<br>----- ----- ---------- --- --- ------ ------ ---- -- ------<br>------- --- ------ ----- --- ---- ------- -- ---- --- --<br>------- ------,175073,175072.5,174394.696,174401.09999999776,174411.415,175078.059,,17,in
screen,html.Screen,2_1_1_1_18,2022-02-02T17:56:33.682Z,,,,,,,,,,,,,,,,,54,,,,,,,,,,,,,,468.7409999970114,,response,,,,100,,,,,,,Space,keypress(Space),,,,,,,,-- --- ---- --- ------ ----- ------- ---- -- --- ------- --<br>------- ---------- ------ -- ----- -- order -- ---- ------<br>--- ----- --- --- ------ -------- ----- --- ------ ----- --<br>----- ----- ---------- --- --- ------ ------ ---- -- ------<br>------- --- ------ ----- --- ---- ------- -- ---- --- --<br>------- ------,175547.19999999925,175546.79999999702,175061.421,175073,175078.059,175561.437,,18,order
screen,html.Screen,2_1_1_1_19,2022-02-02T17:56:34.069Z,,,,,,,,,,,,,,,,,54,,,,,,,,,,,,,,371.96299999850453,,response,,,,100,,,,,,,Space,keypress(Space),,,,,,,,-- --- ---- --- ------ ----- ------- ---- -- --- ------- --<br>------- ---------- ------ -- ----- -- ----- to ---- ------<br>--- ----- --- --- ------ -------- ----- --- ------ ----- --<br>----- ----- ---------- --- --- ------ ------ ---- -- ------<br>------- --- ------ ----- --- ---- ------- -- ---- --- --<br>------- ------,175934.3999999985,175933.3999999985,175544.731,175547.29999999702,175561.437,175944.775,,19,to
screen,html.Screen,2_1_1_1_20,2022-02-02T17:56:34.438Z,,,,,,,,,,,,,,,,,54,,,,,,,,,,,,,,358.0249999970256,,response,,,,100,,,,,,,Space,keypress(Space),,,,,,,,-- --- ---- --- ------ ----- ------- ---- -- --- ------- --<br>------- ---------- ------ -- ----- -- ----- -- save ------<br>--- ----- --- --- ------ -------- ----- --- ------ ----- --<br>----- ----- ---------- --- --- ------ ------ ---- -- ------<br>------- --- ------ ----- --- ---- ------- -- ---- --- --<br>------- ------,176303.29999999702,176302.79999999702,175928.084,175934.5,175944.775,176311.473,,20,save
screen,html.Screen,2_1_1_1_21,2022-02-02T17:56:34.863Z,,,,,,,,,,,,,,,,,54,,,,,,,,,,,,,,416.32699999702163,,response,,,,100,,,,,,,Space,keypress(Space),,,,,,,,"-- --- ---- --- ------ ----- ------- ---- -- --- ------- --<br>------- ---------- ------ -- ----- -- ----- -- ---- money,<br>--- ----- --- --- ------ -------- ----- --- ------ ----- --<br>----- ----- ---------- --- --- ------ ------ ---- -- ------<br>------- --- ------ ----- --- ---- ------- -- ---- --- --<br>------- ------",176728.19999999925,176727.79999999702,176294.783,176303.29999999702,176311.473,176744.793,,21,"money,"
screen,html.Screen,2_1_1_1_22,2022-02-02T17:56:35.458Z,,,,,,,,,,,,,,,,,54,,,,,,,,,,,,,,577.8069999977597,,response,,,,100,,,,,,,Space,keypress(Space),,,,,,,,-- --- ---- --- ------ ----- ------- ---- -- --- ------- --<br>------- ---------- ------ -- ----- -- ----- -- ---- ------<br>the ----- --- --- ------ -------- ----- --- ------ ----- --<br>----- ----- ---------- --- --- ------ ------ ---- -- ------<br>------- --- ------ ----- --- ---- ------- -- ---- --- --<br>------- ------,177323.09999999776,177322.59999999776,176728.124,176728.29999999702,176744.793,177328.155,,22,the
screen,html.Screen,2_1_1_1_23,2022-02-02T17:56:35.987Z,,,,,,,,,,,,,,,,,54,,,,,,,,,,,,,,523.1449999970209,,response,,,,100,,,,,,,Space,keypress(Space),,,,,,,,-- --- ---- --- ------ ----- ------- ---- -- --- ------- --<br>------- ---------- ------ -- ----- -- ----- -- ---- ------<br>--- state --- --- ------ -------- ----- --- ------ ----- --<br>----- ----- ---------- --- --- ------ ------ ---- -- ------<br>------- --- ------ ----- --- ---- ------- -- ---- --- --<br>------- ------,177851.5,177851.29999999702,177311.513,177323.09999999776,177328.155,177861.493,,23,state
screen,html.Screen,2_1_1_1_24,2022-02-02T17:56:36.390Z,,,,,,,,,,,,,,,,,54,,,,,,,,,,,,,,393.10699999777717,,response,,,,100,,,,,,,Space,keypress(Space),,,,,,,,-- --- ---- --- ------ ----- ------- ---- -- --- ------- --<br>------- ---------- ------ -- ----- -- ----- -- ---- ------<br>--- ----- cut --- ------ -------- ----- --- ------ ----- --<br>----- ----- ---------- --- --- ------ ------ ---- -- ------<br>------- --- ------ ----- --- ---- ------- -- ---- --- --<br>------- ------,178255,178254.59999999776,177844.812,177851.59999999776,177861.493,178261.514,,24,cut
screen,html.Screen,2_1_1_1_25,2022-02-02T17:56:36.766Z,,,,,,,,,,,,,,,,,54,,,,,,,,,,,,,,368.9860000000044,,response,,,,100,,,,,,,Space,keypress(Space),,,,,,,,-- --- ---- --- ------ ----- ------- ---- -- --- ------- --<br>------- ---------- ------ -- ----- -- ----- -- ---- ------<br>--- ----- --- the ------ -------- ----- --- ------ ----- --<br>----- ----- ---------- --- --- ------ ------ ---- -- ------<br>------- --- ------ ----- --- ---- ------- -- ---- --- --<br>------- ------,178630.8999999985,178630.5,178244.842,178255.19999999925,178261.514,178644.972,,25,the
screen,html.Screen,2_1_1_1_26,2022-02-02T17:56:37.138Z,,,,,,,,,,,,,,,,,54,,,,,,,,,,,,,,357.627999997756,,response,,,,100,,,,,,,Space,keypress(Space),,,,,,,,-- --- ---- --- ------ ----- ------- ---- -- --- ------- --<br>------- ---------- ------ -- ----- -- ----- -- ---- ------<br>--- ----- --- --- bonds' -------- ----- --- ------ ----- --<br>----- ----- ---------- --- --- ------ ------ ---- -- ------<br>------- --- ------ ----- --- ---- ------- -- ---- --- --<br>------- ------,179003.09999999776,179002.59999999776,178628.197,178631,178644.972,179011.687,,26,bonds'
screen,html.Screen,2_1_1_1_27,2022-02-02T17:56:37.583Z,,,,,,,,,,,,,,,,,54,,,,,,,,,,,,,,435.81299999999464,,response,,,,100,,,,,,,Space,keypress(Space),,,,,,,,-- --- ---- --- ------ ----- ------- ---- -- --- ------- --<br>------- ---------- ------ -- ----- -- ----- -- ---- ------<br>--- ----- --- --- ------ interest ----- --- ------ ----- --<br>----- ----- ---------- --- --- ------ ------ ---- -- ------<br>------- --- ------ ----- --- ---- ------- -- ---- --- --<br>------- ------,179448.19999999925,179447.5,178994.924,179003.19999999925,179011.687,179461.585,,27,interest
screen,html.Screen,2_1_1_1_28,2022-02-02T17:56:38.082Z,,,,,,,,,,,,,,,,,54,,,,,,,,,,,,,,485.2149999970279,,response,,,,100,,,,,,,Space,keypress(Space),,,,,,,,-- --- ---- --- ------ ----- ------- ---- -- --- ------- --<br>------- ---------- ------ -- ----- -- ----- -- ---- ------<br>--- ----- --- --- ------ -------- rate. --- ------ ----- --<br>----- ----- ---------- --- --- ------ ------ ---- -- ------<br>------- --- ------ ----- --- ---- ------- -- ---- --- --<br>------- ------,179947.19999999925,179946.79999999702,179444.964,179448.3999999985,179461.585,179961.595,,28,rate.
screen,html.Screen,2_1_1_1_29,2022-02-02T17:56:38.647Z,,,,,,,,,,,,,,,,,54,,,,,,,,,,,,,,549.4049999999988,,response,,,,100,,,,,,,Space,keypress(Space),,,,,,,,-- --- ---- --- ------ ----- ------- ---- -- --- ------- --<br>------- ---------- ------ -- ----- -- ----- -- ---- ------<br>--- ----- --- --- ------ -------- ----- The ------ ----- --<br>----- ----- ---------- --- --- ------ ------ ---- -- ------<br>------- --- ------ ----- --- ---- ------- -- ---- --- --<br>------- ------,180511.59999999776,180511,179944.893,179947.29999999702,179961.595,180528.274,,29,The
screen,html.Screen,2_1_1_1_30,2022-02-02T17:56:39.018Z,,,,,,,,,,,,,,,,,54,,,,,,,,,,,,,,354.32599999775994,,response,,,,100,,,,,,,Space,keypress(Space),,,,,,,,-- --- ---- --- ------ ----- ------- ---- -- --- ------- --<br>------- ---------- ------ -- ----- -- ----- -- ---- ------<br>--- ----- --- --- ------ -------- ----- --- market ----- --<br>----- ----- ---------- --- --- ------ ------ ---- -- ------<br>------- --- ------ ----- --- ---- ------- -- ---- --- --<br>------- ------,180883,180882.59999999776,180511.609,180511.79999999702,180528.274,180894.952,,30,market
screen,html.Screen,2_1_1_1_31,2022-02-02T17:56:39.413Z,,,,,,,,,,,,,,,,,54,,,,,,,,,,,,,,381.44799999851966,,response,,,,100,,,,,,,Space,keypress(Space),,,,,,,,-- --- ---- --- ------ ----- ------- ---- -- --- ------- --<br>------- ---------- ------ -- ----- -- ----- -- ---- ------<br>--- ----- --- --- ------ -------- ----- --- ------ value --<br>----- ----- ---------- --- --- ------ ------ ---- -- ------<br>------- --- ------ ----- --- ---- ------- -- ---- --- --<br>------- ------,181277.5,181276.3999999985,180878.293,180883,180894.952,181306.08,,31,value
screen,html.Screen,2_1_1_1_32,2022-02-02T17:56:39.868Z,,,,,,,,,,,,,,,,,54,,,,,,,,,,,,,,426.4200000000128,,response,,,,100,,,,,,,Space,keypress(Space),,,,,,,,-- --- ---- --- ------ ----- ------- ---- -- --- ------- --<br>------- ---------- ------ -- ----- -- ----- -- ---- ------<br>--- ----- --- --- ------ -------- ----- --- ------ ----- of<br>----- ----- ---------- --- --- ------ ------ ---- -- ------<br>------- --- ------ ----- --- ---- ------- -- ---- --- --<br>------- ------,181732.8999999985,181732.5,181261.621,181277.59999999776,181306.08,181744.999,,32,of
screen,html.Screen,2_1_1_1_33,2022-02-02T17:56:40.294Z,,,,,,,,,,,,,,,,,54,,,,,,,,,,,,,,412.70099999924423,,response,,,,100,,,,,,,Space,keypress(Space),,,,,,,,-- --- ---- --- ------ ----- ------- ---- -- --- ------- --<br>------- ---------- ------ -- ----- -- ----- -- ---- ------<br>--- ----- --- --- ------ -------- ----- --- ------ ----- --<br>these ----- ---------- --- --- ------ ------ ---- -- ------<br>------- --- ------ ----- --- ---- ------- -- ---- --- --<br>------- ------,182158.5,182157.69999999925,181728.324,181733,181744.999,182161.678,,33,these
screen,html.Screen,2_1_1_1_34,2022-02-02T17:56:40.707Z,,,,,,,,,,,,,,,,,54,,,,,,,,,,,,,,409.9219999977504,,response,,,,100,,,,,,,Space,keypress(Space),,,,,,,,-- --- ---- --- ------ ----- ------- ---- -- --- ------- --<br>------- ---------- ------ -- ----- -- ----- -- ---- ------<br>--- ----- --- --- ------ -------- ----- --- ------ ----- --<br>----- bonds ---------- --- --- ------ ------ ---- -- ------<br>------- --- ------ ----- --- ---- ------- -- ---- --- --<br>------- ------,182572.19999999925,182571.59999999776,182145.002,182158.69999999925,182161.678,182578.379,,34,bonds
screen,html.Screen,2_1_1_1_35,2022-02-02T17:56:41.164Z,,,,,,,,,,,,,,,,,54,,,,,,,,,,,,,,450.0209999985236,,response,,,,100,,,,,,,Space,keypress(Space),,,,,,,,"-- --- ---- --- ------ ----- ------- ---- -- --- ------- --<br>------- ---------- ------ -- ----- -- ----- -- ---- ------<br>--- ----- --- --- ------ -------- ----- --- ------ ----- --<br>----- ----- plummeted, --- --- ------ ------ ---- -- ------<br>------- --- ------ ----- --- ---- ------- -- ---- --- --<br>------- ------",183029.09999999776,183028.3999999985,182561.699,182572.29999999702,182578.379,183045.057,,35,"plummeted,"
screen,html.Screen,2_1_1_1_36,2022-02-02T17:56:41.658Z,,,,,,,,,,,,,,,,,54,,,,,,,,,,,,,,477.5429999977641,,response,,,,100,,,,,,,Space,keypress(Space),,,,,,,,-- --- ---- --- ------ ----- ------- ---- -- --- ------- --<br>------- ---------- ------ -- ----- -- ----- -- ---- ------<br>--- ----- --- --- ------ -------- ----- --- ------ ----- --<br>----- ----- ---------- and --- ------ ------ ---- -- ------<br>------- --- ------ ----- --- ---- ------- -- ---- --- --<br>------- ------,183523.09999999776,183522.59999999776,183028.383,183029.19999999925,183045.057,183528.399,,36,and
screen,html.Screen,2_1_1_1_37,2022-02-02T17:56:42.026Z,,,,,,,,,,,,,,,,,54,,,,,,,,,,,,,,361.9009999970149,,response,,,,100,,,,,,,Space,keypress(Space),,,,,,,,-- --- ---- --- ------ ----- ------- ---- -- --- ------- --<br>------- ---------- ------ -- ----- -- ----- -- ---- ------<br>--- ----- --- --- ------ -------- ----- --- ------ ----- --<br>----- ----- ---------- --- the ------ ------ ---- -- ------<br>------- --- ------ ----- --- ---- ------- -- ---- --- --<br>------- ------,183890.69999999925,183890.29999999702,183511.724,183523.09999999776,183528.399,183895.071,,37,the
screen,html.Screen,2_1_1_1_38,2022-02-02T17:56:42.420Z,,,,,,,,,,,,,,,,,54,,,,,,,,,,,,,,389.2289999970235,,response,,,,100,,,,,,,Space,keypress(Space),,,,,,,,-- --- ---- --- ------ ----- ------- ---- -- --- ------- --<br>------- ---------- ------ -- ----- -- ----- -- ---- ------<br>--- ----- --- --- ------ -------- ----- --- ------ ----- --<br>----- ----- ---------- --- --- market ------ ---- -- ------<br>------- --- ------ ----- --- ---- ------- -- ---- --- --<br>------- ------,184284.69999999925,184284.29999999702,183878.396,183890.79999999702,183895.071,184295.114,,38,market
screen,html.Screen,2_1_1_1_39,2022-02-02T17:56:42.828Z,,,,,,,,,,,,,,,,,54,,,,,,,,,,,,,,397.2859999985085,,response,,,,100,,,,,,,Space,keypress(Space),,,,,,,,-- --- ---- --- ------ ----- ------- ---- -- --- ------- --<br>------- ---------- ------ -- ----- -- ----- -- ---- ------<br>--- ----- --- --- ------ -------- ----- --- ------ ----- --<br>----- ----- ---------- --- --- ------ became ---- -- ------<br>------- --- ------ ----- --- ---- ------- -- ---- --- --<br>------- ------,184692.8999999985,184692.3999999985,184278.408,184284.79999999702,184295.114,184695.102,,39,became
screen,html.Screen,2_1_1_1_40,2022-02-02T17:56:43.229Z,,,,,,,,,,,,,,,,,54,,,,,,,,,,,,,,397.8979999999865,,response,,,,100,,,,,,,Space,keypress(Space),,,,,,,,-- --- ---- --- ------ ----- ------- ---- -- --- ------- --<br>------- ---------- ------ -- ----- -- ----- -- ---- ------<br>--- ----- --- --- ------ -------- ----- --- ------ ----- --<br>----- ----- ---------- --- --- ------ ------ wary -- ------<br>------- --- ------ ----- --- ---- ------- -- ---- --- --<br>------- ------,185093.59999999776,185093,184678.439,184693.09999999776,184695.102,185095.123,,40,wary
screen,html.Screen,2_1_1_1_41,2022-02-02T17:56:43.658Z,,,,,,,,,,,,,,,,,54,,,,,,,,,,,,,,427.5769999992626,,response,,,,100,,,,,,,Space,keypress(Space),,,,,,,,-- --- ---- --- ------ ----- ------- ---- -- --- ------- --<br>------- ---------- ------ -- ----- -- ----- -- ---- ------<br>--- ----- --- --- ------ -------- ----- --- ------ ----- --<br>----- ----- ---------- --- --- ------ ------ ---- of ------<br>------- --- ------ ----- --- ---- ------- -- ---- --- --<br>------- ------,185523,185522.69999999925,185078.459,185093.59999999776,185095.123,185528.458,,41,of
screen,html.Screen,2_1_1_1_42,2022-02-02T17:56:44.072Z,,,,,,,,,,,,,,,,,54,,,,,,,,,,,,,,407.74199999924167,,response,,,,100,,,,,,,Space,keypress(Space),,,,,,,,-- --- ---- --- ------ ----- ------- ---- -- --- ------- --<br>------- ---------- ------ -- ----- -- ----- -- ---- ------<br>--- ----- --- --- ------ -------- ----- --- ------ ----- --<br>----- ----- ---------- --- --- ------ ------ ---- -- French<br>------- --- ------ ----- --- ---- ------- -- ---- --- --<br>------- ------,185936.59999999776,185936.19999999925,185511.834,185523.19999999925,185528.458,185945.175,,42,French
screen,html.Screen,2_1_1_1_43,2022-02-02T17:56:44.551Z,,,,,,,,,,,,,,,,,54,,,,,,,,,,,,,,469.92499999777647,,response,,,,100,,,,,,,Space,keypress(Space),,,,,,,,-- --- ---- --- ------ ----- ------- ---- -- --- ------- --<br>------- ---------- ------ -- ----- -- ----- -- ---- ------<br>--- ----- --- --- ------ -------- ----- --- ------ ----- --<br>----- ----- ---------- --- --- ------ ------ ---- -- ------<br>credit. --- ------ ----- --- ---- ------- -- ---- --- --<br>------- ------,186415.59999999776,186415.09999999776,185928.493,185936.69999999925,185945.175,186428.524,,43,credit.
screen,html.Screen,2_1_1_1_44,2022-02-02T17:56:45.062Z,,,,,,,,,,,,,,,,,54,,,,,,,,,,,,,,496.7759999970149,,response,,,,100,,,,,,,Space,keypress(Space),,,,,,,,-- --- ---- --- ------ ----- ------- ---- -- --- ------- --<br>------- ---------- ------ -- ----- -- ----- -- ---- ------<br>--- ----- --- --- ------ -------- ----- --- ------ ----- --<br>----- ----- ---------- --- --- ------ ------ ---- -- ------<br>------- The ------ ----- --- ---- ------- -- ---- --- --<br>------- ------,186927.09999999776,186925.29999999702,186411.826,186415.69999999925,186428.524,186948.382,,44,The
screen,html.Screen,2_1_1_1_45,2022-02-02T17:56:45.434Z,,,,,,,,,,,,,,,,,54,,,,,,,,,,,,,,349.9179999970074,,response,,,,100,,,,,,,Space,keypress(Space),,,,,,,,-- --- ---- --- ------ ----- ------- ---- -- --- ------- --<br>------- ---------- ------ -- ----- -- ----- -- ---- ------<br>--- ----- --- --- ------ -------- ----- --- ------ ----- --<br>----- ----- ---------- --- --- ------ ------ ---- -- ------<br>------- --- French ----- --- ---- ------- -- ---- --- --<br>------- ------,187298.79999999702,187298.29999999702,186911.851,186927.3999999985,186948.382,187311.865,,45,French
screen,html.Screen,2_1_1_1_46,2022-02-02T17:56:45.800Z,,,,,,,,,,,,,,,,,54,,,,,,,,,,,,,,352.4349999970291,,response,,,,100,,,,,,,Space,keypress(Space),,,,,,,,-- --- ---- --- ------ ----- ------- ---- -- --- ------- --<br>------- ---------- ------ -- ----- -- ----- -- ---- ------<br>--- ----- --- --- ------ -------- ----- --- ------ ----- --<br>----- ----- ---------- --- --- ------ ------ ---- -- ------<br>------- --- ------ state --- ---- ------- -- ---- --- --<br>------- ------,187665,187664.29999999702,187295.209,187298.79999999702,187311.865,187678.571,,46,state
screen,html.Screen,2_1_1_1_47,2022-02-02T17:56:46.511Z,,,,,,,,,,,,,,,,,54,,,,,,,,,,,,,,696.4290000000037,,response,,,,100,,,,,,,Space,keypress(Space),,,,,,,,-- --- ---- --- ------ ----- ------- ---- -- --- ------- --<br>------- ---------- ------ -- ----- -- ----- -- ---- ------<br>--- ----- --- --- ------ -------- ----- --- ------ ----- --<br>----- ----- ---------- --- --- ------ ------ ---- -- ------<br>------- --- ------ ----- was ---- ------- -- ---- --- --<br>------- ------,188375.5,188375,187661.905,187665.09999999776,187678.571,188378.628,,47,was
screen,html.Screen,2_1_1_1_48,2022-02-02T17:56:47.039Z,,,,,,,,,,,,,,,,,54,,,,,,,,,,,,,,524.372000000003,,response,,,,100,,,,,,,Space,keypress(Space),,,,,,,,-- --- ---- --- ------ ----- ------- ---- -- --- ------- --<br>------- ---------- ------ -- ----- -- ----- -- ---- ------<br>--- ----- --- --- ------ -------- ----- --- ------ ----- --<br>----- ----- ---------- --- --- ------ ------ ---- -- ------<br>------- --- ------ ----- --- left ------- -- ---- --- --<br>------- ------,188903.59999999776,188903,188361.9,188375.5,188378.628,188911.971,,48,left
screen,html.Screen,2_1_1_1_49,2022-02-02T17:56:47.507Z,,,,,,,,,,,,,,,,,54,,,,,,,,,,,,,,459.2289999992645,,response,,,,100,,,,,,,Space,keypress(Space),,,,,,,,-- --- ---- --- ------ ----- ------- ---- -- --- ------- --<br>------- ---------- ------ -- ----- -- ----- -- ---- ------<br>--- ----- --- --- ------ -------- ----- --- ------ ----- --<br>----- ----- ---------- --- --- ------ ------ ---- -- ------<br>------- --- ------ ----- --- ---- without -- ---- --- --<br>------- ------,189371.59999999776,189371.19999999925,188895.27,188903.79999999702,188911.971,189378.69,,49,without
screen,html.Screen,2_1_1_1_50,2022-02-02T17:56:47.947Z,,,,,,,,,,,,,,,,,54,,,,,,,,,,,,,,432.20999999850756,,response,,,,100,,,,,,,Space,keypress(Space),,,,,,,,-- --- ---- --- ------ ----- ------- ---- -- --- ------- --<br>------- ---------- ------ -- ----- -- ----- -- ---- ------<br>--- ----- --- --- ------ -------- ----- --- ------ ----- --<br>----- ----- ---------- --- --- ------ ------ ---- -- ------<br>------- --- ------ ----- --- ---- ------- an ---- --- --<br>------- ------,189811.3999999985,189810.8999999985,189361.933,189371.79999999702,189378.69,189830.01,,50,an
screen,html.Screen,2_1_1_1_51,2022-02-02T17:56:48.315Z,,,,,,,,,,,,,,,,,54,,,,,,,,,,,,,,348.78999999701045,,response,,,,100,,,,,,,Space,keypress(Space),,,,,,,,-- --- ---- --- ------ ----- ------- ---- -- --- ------- --<br>------- ---------- ------ -- ----- -- ----- -- ---- ------<br>--- ----- --- --- ------ -------- ----- --- ------ ----- --<br>----- ----- ---------- --- --- ------ ------ ---- -- ------<br>------- --- ------ ----- --- ---- ------- -- easy --- --<br>------- ------,190179.69999999925,190178.79999999702,189795.32,189811.5,189830.01,190195.339,,51,easy
screen,html.Screen,2_1_1_1_52,2022-02-02T17:56:48.744Z,,,,,,,,,,,,,,,,,54,,,,,,,,,,,,,,413.1609999999928,,response,,,,100,,,,,,,Space,keypress(Space),,,,,,,,-- --- ---- --- ------ ----- ------- ---- -- --- ------- --<br>------- ---------- ------ -- ----- -- ----- -- ---- ------<br>--- ----- --- --- ------ -------- ----- --- ------ ----- --<br>----- ----- ---------- --- --- ------ ------ ---- -- ------<br>------- --- ------ ----- --- ---- ------- -- ---- way --<br>------- ------,190609,190608.5,190178.733,190179.79999999702,190195.339,190611.992,,52,way
screen,html.Screen,2_1_1_1_53,2022-02-02T17:56:49.297Z,,,,,,,,,,,,,,,,,54,,,,,,,,,,,,,,549.3079999970214,,response,,,,100,,,,,,,Space,keypress(Space),,,,,,,,-- --- ---- --- ------ ----- ------- ---- -- --- ------- --<br>------- ---------- ------ -- ----- -- ----- -- ---- ------<br>--- ----- --- --- ------ -------- ----- --- ------ ----- --<br>----- ----- ---------- --- --- ------ ------ ---- -- ------<br>------- --- ------ ----- --- ---- ------- -- ---- --- of<br>------- ------,191161.8999999985,191161.29999999702,190595.368,190609,190611.992,191178.712,,53,of
screen,html.Screen,2_1_1_1_54,2022-02-02T17:56:49.799Z,,,,,,,,,,,,,,,,,54,,,,,,,,,,,,,,484.58799999702023,,response,,,,100,,,,,,,Space,keypress(Space),,,,,,,,-- --- ---- --- ------ ----- ------- ---- -- --- ------- --<br>------- ---------- ------ -- ----- -- ----- -- ---- ------<br>--- ----- --- --- ------ -------- ----- --- ------ ----- --<br>----- ----- ---------- --- --- ------ ------ ---- -- ------<br>------- --- ------ ----- --- ---- ------- -- ---- --- --<br>raising ------,191663.69999999925,191663.29999999702,191162.051,191162,191178.712,191678.751,,54,raising
screen,html.Screen,2_1_1_1_55,2022-02-02T17:56:50.336Z,,,,,,,,,,,,,,,,,54,,,,,,,,,,,,,,521.3489999977755,,response,,,,100,,,,,,,Space,keypress(Space),,,,,,,,-- --- ---- --- ------ ----- ------- ---- -- --- ------- --<br>------- ---------- ------ -- ----- -- ----- -- ---- ------<br>--- ----- --- --- ------ -------- ----- --- ------ ----- --<br>----- ----- ---------- --- --- ------ ------ ---- -- ------<br>------- --- ------ ----- --- ---- ------- -- ---- --- --<br>------- money.,192200.69999999925,192200.09999999776,191662.038,191663.69999999925,191678.751,192212.09,,55,money.
Item 100,flow.Loop,2_1_1_1,2022-02-02T17:56:50.336Z,,,,,,,,,,,,,,,,,,,,,,,,,,,,,,,25455.683999997767,,completion,,,,,E,,,,,,,,,,,silence,,,,,192200.79999999702,192200.09999999776,166727.724,166728.19999999925,166744.416,192212.09,,,
Question 1,html.Screen,2_1_1_2,2022-02-02T17:56:55.707Z,,,,,,,,,,,,,,,,,,,,,,,,,,,,true,TRUE,,5359.009999997768,,response,,,,100,E,,,,,,TRUE,click #choice-1,,,,silence,,,,,197571.5,197571.09999999776,192195.388,192200.8999999985,192212.09,197595.597,,,
Question 2,html.Screen,2_1_1_3,2022-02-02T17:56:59.345Z,,,,,,,,,,,,,,,,,,,,,,,,,,,,true,FALSE,,3613.502999997756,,response,,,,100,E,,,,,,FALSE,click #choice-2,,,,silence,,,,,201209.79999999702,201209.09999999776,197578.931,197571.59999999776,197595.597,201229.09,,,
Item 100,flow.Sequence,2_1_1,2022-02-02T17:56:59.345Z,,,,,,,,,,,,,,,,,,,,,,,,,,,,,,,44465.01099999776,,completion,,,,,,,,,,,,,,,,,,,,,201209.8999999985,201209.09999999776,156727.499,156723.09999999776,156744.089,201229.09,,,
End of Practice,html.Page,2_1_2,2022-02-02T17:57:03.567Z,,,,,,,,,,,,,,,,,,,,,,,,,,,,,,,4202.509999997768,,form submission,,,,,,,,,,,,,,,,,,,,,205431.8999999985,205431.59999999776,201212.416,201209.8999999985,201229.09,205445.907,,,
Practice,flow.Sequence,2_1,2022-02-02T17:57:03.567Z,,,,,,,,,,,,,,,,,,,,,,,,,,,,,,,97039.45699999777,,completion,,,,,,,,,,,,,,,,,,,,,205432,205431.59999999776,108375.472,108381.69999999925,108392.143,205445.907,,,
Trap_instruction,html.Page,2_2_0,2022-02-02T17:57:08.420Z,,,,,,,,,,,,,,,,,,,,,,,,,,,,,,,4838.892999997013,,form submission,,,,,,,,,,,,,,,,,,,,,210285.09999999776,210284.79999999702,205429.233,205432.09999999776,205445.907,210312.76,,,
trap_trial,html.Screen,2_2_1,2022-02-02T17:57:11.210Z,,,,,,,,,,,,,,,,,,,,,,,,,,,,true,1,,2760.7399999999907,,response,,,,,,,,,,,1,click #choice-1,,,,,,,,,213074.59999999776,213073.5,210296.119,210285.19999999925,210312.76,213096.207,,,
end of trap trial,html.Page,2_2_2,2022-02-02T17:57:14.719Z,,,,,,,,,,,,,,,,,,,,,,,,,,,,,,,3487.49299999926,,form submission,,,,,,,,,,,,,,,,,,,,,216583.8999999985,216583.69999999925,213079.544,213074.79999999702,213096.207,216613.067,,,
Trap 1,flow.Sequence,2_2,2022-02-02T17:57:14.719Z,,,,,,,,,,,,,,,,,,,,,,,,,,,,,,,11137.792999999248,,completion,,,,,,,,,,,,,,,,,,,,,216584,216583.69999999925,205429.233,205432.09999999776,205445.907,216613.067,,,
Standby,html.Page,2_3_0,2022-02-02T17:57:22.733Z,,,,,,,,,,,,,,,,,,,,,,,,,,,,,,,8000.237999999983,,timeout,,,,,,,,,,,,,,,,,,,,,224597.5,224596.674,216596.337,216584.09999999776,216613.067,224613.305,,,
Holding screen,html.Screen,2_3_1_0_0,2022-02-02T17:57:29.732Z,,,,,,,,,,,,,,,,,,,,,,,,,,,,,,,7000.266000000003,,timeout,,,,,,,,,,,,,,,,,,,,,231597.19999999925,231596.953,224596.674,224597.69999999925,224613.305,231613.571,,,
screen,html.Screen,2_3_1_0_1_0,2022-02-02T17:57:31.447Z,,,,,,,,,,,,,,,,,51,,,,,,,,,,,,,,1697.1289999992587,,response,,,,13,E,,,,,,Space,keypress(Space),,,,lyrical,,,,American -------- --- --- ---- --- --- ------ -- --------<br>---- --------- --- ------- ------------ ---------- ---------<br>--- ---------- ------- ---------- ------- -- -------- ----<br>---- --- ------ ----- ------ -- ---- --- ----- -- - -------<br>-------- -- --- --- -- ----- ----------- ----- -----------<br>---- --- ---------- --- ---- --- -- ----------,233311.69999999925,233310.69999999925,231596.953,231597.29999999702,231613.571,233313.659,,0,American
screen,html.Screen,2_3_1_0_1_1,2022-02-02T17:57:32.406Z,,,,,,,,,,,,,,,,,51,,,,,,,,,,,,,,956.1409999970056,,response,,,,13,E,,,,,,Space,keypress(Space),,,,lyrical,,,,-------- industry --- --- ---- --- --- ------ -- --------<br>---- --------- --- ------- ------------ ---------- ---------<br>--- ---------- ------- ---------- ------- -- -------- ----<br>---- --- ------ ----- ------ -- ---- --- ----- -- - -------<br>-------- -- --- --- -- ----- ----------- ----- -----------<br>---- --- ---------- --- ---- --- -- ----------,234270.3999999985,234269.79999999702,233296.966,233311.79999999702,233313.659,234280.372,,1,industry
screen,html.Screen,2_3_1_0_1_2,2022-02-02T17:57:33.219Z,,,,,,,,,,,,,,,,,51,,,,,,,,,,,,,,803.0279999985069,,response,,,,13,E,,,,,,Space,keypress(Space),,,,lyrical,,,,-------- -------- may --- ---- --- --- ------ -- --------<br>---- --------- --- ------- ------------ ---------- ---------<br>--- ---------- ------- ---------- ------- -- -------- ----<br>---- --- ------ ----- ------ -- ---- --- ----- -- - -------<br>-------- -- --- --- -- ----- ----------- ----- -----------<br>---- --- ---------- --- ---- --- -- ----------,235083.79999999702,235083.3999999985,234263.692,234270.5,234280.372,235097.222,,2,may
screen,html.Screen,2_3_1_0_1_3,2022-02-02T17:57:33.658Z,,,,,,,,,,,,,,,,,51,,,,,,,,,,,,,,424.5779999970109,,response,,,,13,E,,,,,,Space,keypress(Space),,,,lyrical,,,,-------- -------- --- not ---- --- --- ------ -- --------<br>---- --------- --- ------- ------------ ---------- ---------<br>--- ---------- ------- ---------- ------- -- -------- ----<br>---- --- ------ ----- ------ -- ---- --- ----- -- - -------<br>-------- -- --- --- -- ----- ----------- ----- -----------<br>---- --- ---------- --- ---- --- -- ----------,235522.59999999776,235521.79999999702,235080.396,235083.79999999702,235097.222,235530.411,,3,not
screen,html.Screen,2_3_1_0_1_4,2022-02-02T17:57:34.036Z,,,,,,,,,,,,,,,,,51,,,,,,,,,,,,,,369.78899999926216,,response,,,,13,E,,,,,,Space,keypress(Space),,,,lyrical,,,,-------- -------- --- --- know --- --- ------ -- --------<br>---- --------- --- ------- ------------ ---------- ---------<br>--- ---------- ------- ---------- ------- -- -------- ----<br>---- --- ------ ----- ------ -- ---- --- ----- -- - -------<br>-------- -- --- --- -- ----- ----------- ----- -----------<br>---- --- ---------- --- ---- --- -- ----------,235900.79999999702,235900.19999999925,235513.785,235523,235530.411,235913.8,,4,know
screen,html.Screen,2_3_1_0_1_5,2022-02-02T17:57:34.501Z,,,,,,,,,,,,,,,,,51,,,,,,,,,,,,,,451.9999999970314,,response,,,,13,E,,,,,,Space,keypress(Space),,,,lyrical,,,,"-------- -------- --- --- ---- it, --- ------ -- --------<br>---- --------- --- ------- ------------ ---------- ---------<br>--- ---------- ------- ---------- ------- -- -------- ----<br>---- --- ------ ----- ------ -- ---- --- ----- -- - -------<br>-------- -- --- --- -- ----- ----------- ----- -----------<br>---- --- ---------- --- ---- --- -- ----------",236366.19999999925,236365.79999999702,235897.242,235900.79999999702,235913.8,236380.508,,5,"it,"
screen,html.Screen,2_3_1_0_1_6,2022-02-02T17:57:35.037Z,,,,,,,,,,,,,,,,,51,,,,,,,,,,,,,,520.8919999985083,,response,,,,13,E,,,,,,Space,keypress(Space),,,,lyrical,,,,-------- -------- --- --- ---- --- but ------ -- --------<br>---- --------- --- ------- ------------ ---------- ---------<br>--- ---------- ------- ---------- ------- -- -------- ----<br>---- --- ------ ----- ------ -- ---- --- ----- -- - -------<br>-------- -- --- --- -- ----- ----------- ----- -----------<br>---- --- ---------- --- ---- --- -- ----------,236901.69999999925,236901.3999999985,236363.785,236366.29999999702,236380.508,236913.819,,6,but
screen,html.Screen,2_3_1_0_1_7,2022-02-02T17:57:35.442Z,,,,,,,,,,,,,,,,,51,,,,,,,,,,,,,,392.1810000000114,,response,,,,13,E,,,,,,Space,keypress(Space),,,,lyrical,,,,-------- -------- --- --- ---- --- --- debate -- --------<br>---- --------- --- ------- ------------ ---------- ---------<br>--- ---------- ------- ---------- ------- -- -------- ----<br>---- --- ------ ----- ------ -- ---- --- ----- -- - -------<br>-------- -- --- --- -- ----- ----------- ----- -----------<br>---- --- ---------- --- ---- --- -- ----------,237306.5,237306,236897.125,236901.69999999925,236913.819,237313.816,,7,debate
screen,html.Screen,2_3_1_0_1_8,2022-02-02T17:57:35.870Z,,,,,,,,,,,,,,,,,51,,,,,,,,,,,,,,420.48399999702815,,response,,,,13,E,,,,,,Space,keypress(Space),,,,lyrical,,,,-------- -------- --- --- ---- --- --- ------ in --------<br>---- --------- --- ------- ------------ ---------- ---------<br>--- ---------- ------- ---------- ------- -- -------- ----<br>---- --- ------ ----- ------ -- ---- --- ----- -- - -------<br>-------- -- --- --- -- ----- ----------- ----- -----------<br>---- --- ---------- --- ---- --- -- ----------,237734.69999999925,237734.29999999702,237297.152,237306.5,237313.816,237747.178,,8,in
screen,html.Screen,2_3_1_0_1_9,2022-02-02T17:57:36.465Z,,,,,,,,,,,,,,,,,51,,,,,,,,,,,,,,582.2219999984954,,response,,,,13,E,,,,,,Space,keypress(Space),,,,lyrical,,,,-------- -------- --- --- ---- --- --- ------ -- Congress<br>---- --------- --- ------- ------------ ---------- ---------<br>--- ---------- ------- ---------- ------- -- -------- ----<br>---- --- ------ ----- ------ -- ---- --- ----- -- - -------<br>-------- -- --- --- -- ----- ----------- ----- -----------<br>---- --- ---------- --- ---- --- -- ----------,238329.79999999702,238329.3999999985,237730.499,237734.79999999702,237747.178,238355.325,,9,Congress
screen,html.Screen,2_3_1_0_1_10,2022-02-02T17:57:36.987Z,,,,,,,,,,,,,,,,,51,,,,,,,,,,,,,,496.3749999992433,,response,,,,13,E,,,,,,Space,keypress(Space),,,,lyrical,,,,-------- -------- --- --- ---- --- --- ------ -- --------<br>over --------- --- ------- ------------ ---------- ---------<br>--- ---------- ------- ---------- ------- -- -------- ----<br>---- --- ------ ----- ------ -- ---- --- ----- -- - -------<br>-------- -- --- --- -- ----- ----------- ----- -----------<br>---- --- ---------- --- ---- --- -- ----------,238852.09999999776,238851.69999999925,238313.835,238329.8999999985,238355.325,238863.858,,10,over
screen,html.Screen,2_3_1_0_1_11,2022-02-02T17:57:37.551Z,,,,,,,,,,,,,,,,,51,,,,,,,,,,,,,,551.7419999977574,,response,,,,13,E,,,,,,Space,keypress(Space),,,,lyrical,,,,-------- -------- --- --- ---- --- --- ------ -- --------<br>---- reforming --- ------- ------------ ---------- ---------<br>--- ---------- ------- ---------- ------- -- -------- ----<br>---- --- ------ ----- ------ -- ---- --- ----- -- - -------<br>-------- -- --- --- -- ----- ----------- ----- -----------<br>---- --- ---------- --- ---- --- -- ----------,239416.19999999925,239415.59999999776,238847.223,238852.09999999776,238863.858,239430.588,,11,reforming
screen,html.Screen,2_3_1_0_1_12,2022-02-02T17:57:38.047Z,,,,,,,,,,,,,,,,,51,,,,,,,,,,,,,,480.81199999852106,,response,,,,13,E,,,,,,Space,keypress(Space),,,,lyrical,,,,-------- -------- --- --- ---- --- --- ------ -- --------<br>---- --------- the ------- ------------ ---------- ---------<br>--- ---------- ------- ---------- ------- -- -------- ----<br>---- --- ------ ----- ------ -- ---- --- ----- -- - -------<br>-------- -- --- --- -- ----- ----------- ----- -----------<br>---- --- ---------- --- ---- --- -- ----------,239911.8999999985,239911.3999999985,239413.87,239416.3999999985,239430.588,239913.892,,12,the
screen,html.Screen,2_3_1_0_1_13,2022-02-02T17:57:38.670Z,,,,,,,,,,,,,,,,,51,,,,,,,,,,,,,,620.0079999985173,,response,,,,13,E,,,,,,Space,keypress(Space),,,,lyrical,,,,-------- -------- --- --- ---- --- --- ------ -- --------<br>---- --------- --- federal ------------ ---------- ---------<br>--- ---------- ------- ---------- ------- -- -------- ----<br>---- --- ------ ----- ------ -- ---- --- ----- -- - -------<br>-------- -- --- --- -- ----- ----------- ----- -----------<br>---- --- ---------- --- ---- --- -- ----------,240534.5,240533.8999999985,239897.254,239912,239913.892,240547.304,,13,federal
screen,html.Screen,2_3_1_0_1_14,2022-02-02T17:57:39.311Z,,,,,,,,,,,,,,,,,51,,,,,,,,,,,,,,628.1959999999963,,response,,,,13,E,,,,,,Space,keypress(Space),,,,lyrical,,,,-------- -------- --- --- ---- --- --- ------ -- --------<br>---- --------- --- ------- government's ---------- ---------<br>--- ---------- ------- ---------- ------- -- -------- ----<br>---- --- ------ ----- ------ -- ---- --- ----- -- - -------<br>-------- -- --- --- -- ----- ----------- ----- -----------<br>---- --- ---------- --- ---- --- -- ----------,241176.29999999702,241175.5,240530.586,240534.5,240547.304,241180.697,,14,government's
screen,html.Screen,2_3_1_0_1_15,2022-02-02T17:57:40.088Z,,,,,,,,,,,,,,,,,51,,,,,,,,,,,,,,771.4029999977793,,response,,,,13,E,,,,,,Space,keypress(Space),,,,lyrical,,,,-------- -------- --- --- ---- --- --- ------ -- --------<br>---- --------- --- ------- ------------ regulatory ---------<br>--- ---------- ------- ---------- ------- -- -------- ----<br>---- --- ------ ----- ------ -- ---- --- ----- -- - -------<br>-------- -- --- --- -- ----- ----------- ----- -----------<br>---- --- ---------- --- ---- --- -- ----------,241952.79999999702,241952.09999999776,241163.983,241176.3999999985,241180.697,241963.983,,15,regulatory
screen,html.Screen,2_3_1_0_1_16,2022-02-02T17:57:40.916Z,,,,,,,,,,,,,,,,,51,,,,,,,,,,,,,,816.0169999999925,,response,,,,13,E,,,,,,Space,keypress(Space),,,,lyrical,,,,-------- -------- --- --- ---- --- --- ------ -- --------<br>---- --------- --- ------- ------------ ---------- apparatus<br>--- ---------- ------- ---------- ------- -- -------- ----<br>---- --- ------ ----- ------ -- ---- --- ----- -- - -------<br>-------- -- --- --- -- ----- ----------- ----- -----------<br>---- --- ---------- --- ---- --- -- ----------,242780.59999999776,242780,241947.294,241953,241963.983,242797.396,,16,apparatus
screen,html.Screen,2_3_1_0_1_17,2022-02-02T17:57:41.440Z,,,,,,,,,,,,,,,,,51,,,,,,,,,,,,,,506.6039999999921,,response,,,,13,E,,,,,,Space,keypress(Space),,,,lyrical,,,,-------- -------- --- --- ---- --- --- ------ -- --------<br>---- --------- --- ------- ------------ ---------- ---------<br>may ---------- ------- ---------- ------- -- -------- ----<br>---- --- ------ ----- ------ -- ---- --- ----- -- - -------<br>-------- -- --- --- -- ----- ----------- ----- -----------<br>---- --- ---------- --- ---- --- -- ----------,243304.59999999776,243304,242780.659,242780.69999999925,242797.396,243314.055,,17,may
screen,html.Screen,2_3_1_0_1_18,2022-02-02T17:57:41.881Z,,,,,,,,,,,,,,,,,51,,,,,,,,,,,,,,431.5449999977718,,response,,,,13,E,,,,,,Space,keypress(Space),,,,lyrical,,,,-------- -------- --- --- ---- --- --- ------ -- --------<br>---- --------- --- ------- ------------ ---------- ---------<br>--- profoundly ------- ---------- ------- -- -------- ----<br>---- --- ------ ----- ------ -- ---- --- ----- -- - -------<br>-------- -- --- --- -- ----- ----------- ----- -----------<br>---- --- ---------- --- ---- --- -- ----------,243745.8999999985,243745.59999999776,243297.389,243304.59999999776,243314.055,243747.379,,18,profoundly
screen,html.Screen,2_3_1_0_1_19,2022-02-02T17:57:42.361Z,,,,,,,,,,,,,,,,,51,,,,,,,,,,,,,,478.3209999992687,,response,,,,13,E,,,,,,Space,keypress(Space),,,,lyrical,,,,-------- -------- --- --- ---- --- --- ------ -- --------<br>---- --------- --- ------- ------------ ---------- ---------<br>--- ---------- improve ---------- ------- -- -------- ----<br>---- --- ------ ----- ------ -- ---- --- ----- -- - -------<br>-------- -- --- --- -- ----- ----------- ----- -----------<br>---- --- ---------- --- ---- --- -- ----------,244226.19999999925,244225.69999999925,243730.713,243746,243747.379,244230.765,,19,improve
screen,html.Screen,2_3_1_0_1_20,2022-02-02T17:57:42.915Z,,,,,,,,,,,,,,,,,51,,,,,,,,,,,,,,548.5349999970058,,response,,,,13,E,,,,,,Space,keypress(Space),,,,lyrical,,,,-------- -------- --- --- ---- --- --- ------ -- --------<br>---- --------- --- ------- ------------ ---------- ---------<br>--- ---------- ------- companies' ------- -- -------- ----<br>---- --- ------ ----- ------ -- ---- --- ----- -- - -------<br>-------- -- --- --- -- ----- ----------- ----- -----------<br>---- --- ---------- --- ---- --- -- ----------,244779.69999999925,244779.29999999702,244214.066,244226.3999999985,244230.765,244811.638,,20,companies'
screen,html.Screen,2_3_1_0_1_21,2022-02-02T17:57:43.518Z,,,,,,,,,,,,,,,,,51,,,,,,,,,,,,,,570.0619999992487,,response,,,,13,E,,,,,,Space,keypress(Space),,,,lyrical,,,,-------- -------- --- --- ---- --- --- ------ -- --------<br>---- --------- --- ------- ------------ ---------- ---------<br>--- ---------- ------- ---------- ability -- -------- ----<br>---- --- ------ ----- ------ -- ---- --- ----- -- - -------<br>-------- -- --- --- -- ----- ----------- ----- -----------<br>---- --- ---------- --- ---- --- -- ----------,245382.79999999702,245381.69999999925,244764.112,244779.8999999985,244811.638,245397.727,,21,ability
screen,html.Screen,2_3_1_0_1_22,2022-02-02T17:57:43.987Z,,,,,,,,,,,,,,,,,51,,,,,,,,,,,,,,453.7729999999865,,response,,,,13,E,,,,,,Space,keypress(Space),,,,lyrical,,,,-------- -------- --- --- ---- --- --- ------ -- --------<br>---- --------- --- ------- ------------ ---------- ---------<br>--- ---------- ------- ---------- ------- to -------- ----<br>---- --- ------ ----- ------ -- ---- --- ----- -- - -------<br>-------- -- --- --- -- ----- ----------- ----- -----------<br>---- --- ---------- --- ---- --- -- ----------,245852,245851.5,245380.83,245382.79999999702,245397.727,245864.174,,22,to
screen,html.Screen,2_3_1_0_1_23,2022-02-02T17:57:44.412Z,,,,,,,,,,,,,,,,,51,,,,,,,,,,,,,,412.42599999776576,,response,,,,13,E,,,,,,Space,keypress(Space),,,,lyrical,,,,-------- -------- --- --- ---- --- --- ------ -- --------<br>---- --------- --- ------- ------------ ---------- ---------<br>--- ---------- ------- ---------- ------- -- survive. ----<br>---- --- ------ ----- ------ -- ---- --- ----- -- - -------<br>-------- -- --- --- -- ----- ----------- ----- -----------<br>---- --- ---------- --- ---- --- -- ----------,246277.3999999985,246276.59999999776,245847.469,245852,245864.174,246280.842,,23,survive.
screen,html.Screen,2_3_1_0_1_24,2022-02-02T17:57:45.327Z,,,,,,,,,,,,,,,,,51,,,,,,,,,,,,,,909.8579999992508,,response,,,,13,E,,,,,,Space,keypress(Space),,,,lyrical,,,,-------- -------- --- --- ---- --- --- ------ -- --------<br>---- --------- --- ------- ------------ ---------- ---------<br>--- ---------- ------- ---------- ------- -- -------- This<br>---- --- ------ ----- ------ -- ---- --- ----- -- - -------<br>-------- -- --- --- -- ----- ----------- ----- -----------<br>---- --- ---------- --- ---- --- -- ----------,247191.59999999776,247190.69999999925,246264.182,246277.59999999776,246280.842,247197.537,,24,This
screen,html.Screen,2_3_1_0_1_25,2022-02-02T17:57:46.103Z,,,,,,,,,,,,,,,,,51,,,,,,,,,,,,,,769.5629999977536,,response,,,,13,E,,,,,,Space,keypress(Space),,,,lyrical,,,,-------- -------- --- --- ---- --- --- ------ -- --------<br>---- --------- --- ------- ------------ ---------- ---------<br>--- ---------- ------- ---------- ------- -- -------- ----<br>week --- ------ ----- ------ -- ---- --- ----- -- - -------<br>-------- -- --- --- -- ----- ----------- ----- -----------<br>---- --- ---------- --- ---- --- -- ----------,247967.5,247967.09999999776,247180.824,247191.69999999925,247197.537,247981.25,,25,week
screen,html.Screen,2_3_1_0_1_26,2022-02-02T17:57:46.642Z,,,,,,,,,,,,,,,,,51,,,,,,,,,,,,,,525.0499999970198,,response,,,,13,E,,,,,,Space,keypress(Space),,,,lyrical,,,,-------- -------- --- --- ---- --- --- ------ -- --------<br>---- --------- --- ------- ------------ ---------- ---------<br>--- ---------- ------- ---------- ------- -- -------- ----<br>---- the ------ ----- ------ -- ---- --- ----- -- - -------<br>-------- -- --- --- -- ----- ----------- ----- -----------<br>---- --- ---------- --- ---- --- -- ----------,248507,248506.29999999702,247964.192,247967.59999999776,247981.25,248514.268,,26,the
screen,html.Screen,2_3_1_0_1_27,2022-02-02T17:57:47.499Z,,,,,,,,,,,,,,,,,51,,,,,,,,,,,,,,848.931999999244,,response,,,,13,E,,,,,,Space,keypress(Space),,,,lyrical,,,,-------- -------- --- --- ---- --- --- ------ -- --------<br>---- --------- --- ------- ------------ ---------- ---------<br>--- ---------- ------- ---------- ------- -- -------- ----<br>---- --- Senate ----- ------ -- ---- --- ----- -- - -------<br>-------- -- --- --- -- ----- ----------- ----- -----------<br>---- --- ---------- --- ---- --- -- ----------,249363.59999999776,249363.19999999925,248497.565,248507,248514.268,249389.689,,27,Senate
screen,html.Screen,2_3_1_0_1_28,2022-02-02T17:57:48.262Z,,,,,,,,,,,,,,,,,51,,,,,,,,,,,,,,736.9109999977518,,response,,,,13,E,,,,,,Space,keypress(Space),,,,lyrical,,,,-------- -------- --- --- ---- --- --- ------ -- --------<br>---- --------- --- ------- ------------ ---------- ---------<br>--- ---------- ------- ---------- ------- -- -------- ----<br>---- --- ------ seems ------ -- ---- --- ----- -- - -------<br>-------- -- --- --- -- ----- ----------- ----- -----------<br>---- --- ---------- --- ---- --- -- ----------,250127,250126.59999999776,249347.61,249363.59999999776,249389.689,250131,,28,seems
screen,html.Screen,2_3_1_0_1_29,2022-02-02T17:57:48.773Z,,,,,,,,,,,,,,,,,51,,,,,,,,,,,,,,506.5999999977648,,response,,,,13,E,,,,,,Space,keypress(Space),,,,lyrical,,,,-------- -------- --- --- ---- --- --- ------ -- --------<br>---- --------- --- ------- ------------ ---------- ---------<br>--- ---------- ------- ---------- ------- -- -------- ----<br>---- --- ------ ----- poised -- ---- --- ----- -- - -------<br>-------- -- --- --- -- ----- ----------- ----- -----------<br>---- --- ---------- --- ---- --- -- ----------,250638,250637.59999999776,250114.296,250127.19999999925,250131,250647.763,,29,poised
screen,html.Screen,2_3_1_0_1_30,2022-02-02T17:57:49.250Z,,,,,,,,,,,,,,,,,51,,,,,,,,,,,,,,466.6369999985036,,response,,,,13,E,,,,,,Space,keypress(Space),,,,lyrical,,,,-------- -------- --- --- ---- --- --- ------ -- --------<br>---- --------- --- ------- ------------ ---------- ---------<br>--- ---------- ------- ---------- ------- -- -------- ----<br>---- --- ------ ----- ------ to ---- --- ----- -- - -------<br>-------- -- --- --- -- ----- ----------- ----- -----------<br>---- --- ---------- --- ---- --- -- ----------,251115.19999999925,251114.3999999985,250630.973,250638.19999999925,250647.763,251131.037,,30,to
screen,html.Screen,2_3_1_0_1_31,2022-02-02T17:57:49.717Z,,,,,,,,,,,,,,,,,51,,,,,,,,,,,,,,450.66299999924377,,response,,,,13,E,,,,,,Space,keypress(Space),,,,lyrical,,,,-------- -------- --- --- ---- --- --- ------ -- --------<br>---- --------- --- ------- ------------ ---------- ---------<br>--- ---------- ------- ---------- ------- -- -------- ----<br>---- --- ------ ----- ------ -- join --- ----- -- - -------<br>-------- -- --- --- -- ----- ----------- ----- -----------<br>---- --- ---------- --- ---- --- -- ----------,251582.3999999985,251581.69999999925,251114.319,251115.29999999702,251131.037,251597.694,,31,join
screen,html.Screen,2_3_1_0_1_32,2022-02-02T17:57:50.268Z,,,,,,,,,,,,,,,,,51,,,,,,,,,,,,,,534.9059999977762,,response,,,,13,E,,,,,,Space,keypress(Space),,,,lyrical,,,,-------- -------- --- --- ---- --- --- ------ -- --------<br>---- --------- --- ------- ------------ ---------- ---------<br>--- ---------- ------- ---------- ------- -- -------- ----<br>---- --- ------ ----- ------ -- ---- the ----- -- - -------<br>-------- -- --- --- -- ----- ----------- ----- -----------<br>---- --- ---------- --- ---- --- -- ----------,252133.29999999702,252132.59999999776,251581.069,251582.5,251597.694,252147.705,,32,the
screen,html.Screen,2_3_1_0_1_33,2022-02-02T17:57:50.705Z,,,,,,,,,,,,,,,,,51,,,,,,,,,,,,,,421.5949999970326,,response,,,,13,E,,,,,,Space,keypress(Space),,,,lyrical,,,,-------- -------- --- --- ---- --- --- ------ -- --------<br>---- --------- --- ------- ------------ ---------- ---------<br>--- ---------- ------- ---------- ------- -- -------- ----<br>---- --- ------ ----- ------ -- ---- --- House -- - -------<br>-------- -- --- --- -- ----- ----------- ----- -----------<br>---- --- ---------- --- ---- --- -- ----------,252569.8999999985,252569.29999999702,252131.028,252133.29999999702,252147.705,252581.058,,33,House
screen,html.Screen,2_3_1_0_1_34,2022-02-02T17:57:51.135Z,,,,,,,,,,,,,,,,,51,,,,,,,,,,,,,,418.2419999970298,,response,,,,13,E,,,,,,Space,keypress(Space),,,,lyrical,,,,-------- -------- --- --- ---- --- --- ------ -- --------<br>---- --------- --- ------- ------------ ---------- ---------<br>--- ---------- ------- ---------- ------- -- -------- ----<br>---- --- ------ ----- ------ -- ---- --- ----- in - -------<br>-------- -- --- --- -- ----- ----------- ----- -----------<br>---- --- ---------- --- ---- --- -- ----------,252999.79999999702,252999.29999999702,252564.374,252570,252581.058,253014.407,,34,in
screen,html.Screen,2_3_1_0_1_35,2022-02-02T17:57:51.536Z,,,,,,,,,,,,,,,,,51,,,,,,,,,,,,,,385.7929999992484,,response,,,,13,E,,,,,,Space,keypress(Space),,,,lyrical,,,,-------- -------- --- --- ---- --- --- ------ -- --------<br>---- --------- --- ------- ------------ ---------- ---------<br>--- ---------- ------- ---------- ------- -- -------- ----<br>---- --- ------ ----- ------ -- ---- --- ----- -- a -------<br>-------- -- --- --- -- ----- ----------- ----- -----------<br>---- --- ---------- --- ---- --- -- ----------,253400.69999999925,253400.19999999925,252997.739,252999.79999999702,253014.407,253414.426,,35,a
screen,html.Screen,2_3_1_0_1_36,2022-02-02T17:57:52.111Z,,,,,,,,,,,,,,,,,51,,,,,,,,,,,,,,561.373999997013,,response,,,,13,E,,,,,,Space,keypress(Space),,,,lyrical,,,,-------- -------- --- --- ---- --- --- ------ -- --------<br>---- --------- --- ------- ------------ ---------- ---------<br>--- ---------- ------- ---------- ------- -- -------- ----<br>---- --- ------ ----- ------ -- ---- --- ----- -- - massive<br>-------- -- --- --- -- ----- ----------- ----- -----------<br>---- --- ---------- --- ---- --- -- ----------,253976.19999999925,253975.79999999702,253397.748,253400.79999999702,253414.426,253981.103,,36,massive
screen,html.Screen,2_3_1_0_1_37,2022-02-02T17:57:52.603Z,,,,,,,,,,,,,,,,,51,,,,,,,,,,,,,,486.2969999985071,,response,,,,13,E,,,,,,Space,keypress(Space),,,,lyrical,,,,-------- -------- --- --- ---- --- --- ------ -- --------<br>---- --------- --- ------- ------------ ---------- ---------<br>--- ---------- ------- ---------- ------- -- -------- ----<br>---- --- ------ ----- ------ -- ---- --- ----- -- - -------<br>overhaul -- --- --- -- ----- ----------- ----- -----------<br>---- --- ---------- --- ---- --- -- ----------,254468.19999999925,254467.3999999985,253964.423,253976.29999999702,253981.103,254481.153,,37,overhaul
screen,html.Screen,2_3_1_0_1_38,2022-02-02T17:57:53.031Z,,,,,,,,,,,,,,,,,51,,,,,,,,,,,,,,414.5469999992638,,response,,,,13,E,,,,,,Space,keypress(Space),,,,lyrical,,,,-------- -------- --- --- ---- --- --- ------ -- --------<br>---- --------- --- ------- ------------ ---------- ---------<br>--- ---------- ------- ---------- ------- -- -------- ----<br>---- --- ------ ----- ------ -- ---- --- ----- -- - -------<br>-------- of --- --- -- ----- ----------- ----- -----------<br>---- --- ---------- --- ---- --- -- ----------,254896.19999999925,254895.69999999925,254464.472,254468.5,254481.153,254897.857,,38,of
screen,html.Screen,2_3_1_0_1_39,2022-02-02T17:57:53.440Z,,,,,,,,,,,,,,,,,51,,,,,,,,,,,,,,406.4429999970307,,response,,,,13,E,,,,,,Space,keypress(Space),,,,lyrical,,,,-------- -------- --- --- ---- --- --- ------ -- --------<br>---- --------- --- ------- ------------ ---------- ---------<br>--- ---------- ------- ---------- ------- -- -------- ----<br>---- --- ------ ----- ------ -- ---- --- ----- -- - -------<br>-------- -- the --- -- ----- ----------- ----- -----------<br>---- --- ---------- --- ---- --- -- ----------,255304.69999999925,255304.29999999702,254881.163,254896.29999999702,254897.857,255314.523,,39,the
