sender,sender_type,sender_id,timestamp,meta,,Blues,Classical,Country,Dance,Electronic,Folk,Gospel,Hip-Hop,Jazz,Latin,Musical/Film,New-age,Pop,Prolific_id,Provo_ID,R&B,Rap,Reggae,Religious,Rock,Soul,Swing,Traditional,age,artist_name,correct,correctResponse,distraction,duration,education,ended_on,familiarity,gender,headphone_check_performance,item,list,music_frequency,offensiveness,pleasantness,position_correct,preference,response,response_action,snippet_file,song_name,song_rating,sound,stimulus_1,stimulus_2,stimulus_3,text,time_commit,time_end,time_render,time_run,time_show,time_switch,url,word,word_ID
Prolific ID,html.Form,0,2022-02-15T12:58:35.589Z,"{""labjs_version"":""20.2.2"",""labjs_build"":{""flavor"":""production"",""commit"":""a25486e0c714a0ae2ce03ff94b7bb6896854dcfa""},""location"":""https://run.pavlovia.org/mvasilev/prolific2_music_e/"",""userAgent"":""Mozilla/5.0 (Windows NT 10.0; Win64; x64) AppleWebKit/537.36 (KHTML, like Gecko) Chrome/98.0.4758.102 Safari/537.36"",""platform"":""Win32"",""language"":""en-US"",""locale"":""en-US"",""timeZone"":""Europe/London"",""timezoneOffset"":0,""screen_width"":1536,""screen_height"":1024,""scroll_width"":1536,""scroll_height"":857,""window_innerWidth"":1536,""window_innerHeight"":905,""devicePixelRatio"":1}",,,,,,,,,,,,,,,609d952e0aeb66af769d89cb,,,,,,,,,,,,,,,4641.115000017882,,form submission,,,,,,,,,,,,,,,,,,,,,20364.30000001192,20363.20000001788,15687.051,15701.90000000596,15722.085,20388.387,{},,
Introduction,html.Screen,1_0,2022-02-15T12:58:41.099Z,,,,,,,,,,,,,,,,,,,,,,,,,,,,,,,5480.513000005962,,response,,,,,,,,,,,continue,click button,,,,,,,,,25874.59999999404,25868.90000000596,20357.405,20364.90000000596,20388.387,25898.879,,,
Volume calibration,html.Screen,1_1,2022-02-15T12:59:13.558Z,,,,,,,,,,,,,,,,,,,,,,,,,,,,,,,32428.121,,response,,,,,,,,,,,continue,click button,,,,,,,,,58333.59999999404,58327,25867.396,25874.80000001192,25898.879,58330,,,
Task instructions,html.Screen,1_2,2022-02-15T12:59:23.231Z,,,,,,,,,,,,,,,,,,,,,,,,,,,,,,,9673.90000000596,,response,,,,,,,,,,,continue,click button,,,,,,,,,68006.40000000596,68003.90000000596,58312.96,58333.90000000596,58330,68037.117,,,
Sounds,html.Screen,1_3_0_0,2022-02-15T12:59:27.494Z,,,,,,,,,,,,,,,,,,,,,,,,,,,,,,,4244.278999999995,,timeout,,,,,,,,,2,,,,,,,,O,S,I,,72270,72264.997,67993.478,68006.80000001192,68037.117,72281.396,,,
Judgement,html.Screen,1_3_0_1,2022-02-15T12:59:29.133Z,,,,,,,,,,,,,,,,,,,,,,,,,,,,false,2,,1624.304000017888,,response,,,,,,,,,2,,1,click #choice-1,,,,,O,S,I,,73909,73905.70000001788,72264.997,72270.20000001788,72281.396,73934.572,,,
Trial,flow.Sequence,1_3_0,2022-02-15T12:59:29.134Z,,,,,,,,,,,,,,,,,,,,,,,,,,,,,,,5868.583000017883,,completion,,,,,,,,,2,,,,,,,,O,S,I,,73909.40000000596,73905.70000001788,67993.478,68006.70000001788,68037.117,73934.572,,,
Sounds,html.Screen,1_3_1_0,2022-02-15T12:59:33.398Z,,,,,,,,,,,,,,,,,,,,,,,,,,,,,,,4254.380000000005,,timeout,,,,,,,,,1,,,,,,,,S,I,O,,78173.5,78172.21,73907.932,73909.90000000596,73934.572,78188.952,,,
Judgement,html.Screen,1_3_1_1,2022-02-15T12:59:34.924Z,,,,,,,,,,,,,,,,,,,,,,,,,,,,true,1,,1507.7480000178766,,response,,,,,,,,,1,,1,click #choice-1,,,,,S,I,O,,79699.09999999404,79696.70000001788,78172.21,78173.59999999404,78188.952,79699.703,,,
Trial,flow.Sequence,1_3_1,2022-02-15T12:59:34.924Z,,,,,,,,,,,,,,,,,,,,,,,,,,,,,,,5762.128000017881,,completion,,,,,,,,,1,,,,,,,,S,I,O,,79699.40000000596,79696.70000001788,73907.932,73909.5,73934.572,79699.703,,,
Sounds,html.Screen,1_3_2_0,2022-02-15T12:59:39.158Z,,,,,,,,,,,,,,,,,,,,,,,,,,,,,,,4248.879000000001,,timeout,,,,,,,,,3,,,,,,,,I,O,S,,83933.20000001788,83931.912,79690.533,79699.80000001192,79699.703,83948.582,,,
Judgement,html.Screen,1_3_2_1,2022-02-15T12:59:40.203Z,,,,,,,,,,,,,,,,,,,,,,,,,,,,true,3,,1027.6180000178865,,response,,,,,,,,,3,,3,click #choice-3,,,,,I,O,S,,84978.20000001788,84976.20000001788,83931.912,83933.40000000596,83948.582,84979.311,,,
Trial,flow.Sequence,1_3_2,2022-02-15T12:59:40.203Z,,,,,,,,,,,,,,,,,,,,,,,,,,,,,,,5276.497000017887,,completion,,,,,,,,,3,,,,,,,,I,O,S,,84978.59999999404,84976.20000001788,79690.533,79699.59999999404,79699.703,84979.311,,,
Sounds,html.Screen,1_3_3_0,2022-02-15T12:59:44.442Z,,,,,,,,,,,,,,,,,,,,,,,,,,,,,,,4253.531999999992,,timeout,,,,,,,,,1,,,,,,,,S,O,I,,89217.5,89215.776,84974.216,84978.90000000596,84979.311,89232.843,,,
Judgement,html.Screen,1_3_3_1,2022-02-15T12:59:45.543Z,,,,,,,,,,,,,,,,,,,,,,,,,,,,true,1,,1083.256999994046,,response,,,,,,,,,1,,1,click #choice-1,,,,,S,O,I,,90318.5,90316.09999999404,89215.776,89217.70000001788,89232.843,90319.124,,,
Trial,flow.Sequence,1_3_3,2022-02-15T12:59:45.543Z,,,,,,,,,,,,,,,,,,,,,,,,,,,,,,,5336.788999994038,,completion,,,,,,,,,1,,,,,,,,S,O,I,,90319.09999999404,90316.09999999404,84974.216,84978.80000001192,84979.311,90319.124,,,
Sounds,html.Screen,1_3_4_0,2022-02-15T12:59:49.772Z,,,,,,,,,,,,,,,,,,,,,,,,,,,,,,,4243.581000000006,,timeout,,,,,,,,,2,,,,,,,,I,S,O,,94547.20000001788,94545.72,90311.202,90319.40000000596,90319.124,94562.705,,,
Judgement,html.Screen,1_3_4_1,2022-02-15T12:59:50.774Z,,,,,,,,,,,,,,,,,,,,,,,,,,,,true,2,,985.6950000059587,,response,,,,,,,,,2,,2,click #choice-2,,,,,I,S,O,,95550,95548.40000000596,94545.72,94547.30000001192,94562.705,95565.344,,,
Trial,flow.Sequence,1_3_4,2022-02-15T12:59:50.775Z,,,,,,,,,,,,,,,,,,,,,,,,,,,,,,,5229.276000005964,,completion,,,,,,,,,2,,,,,,,,I,S,O,,95550.30000001192,95548.40000000596,90311.202,90319.30000001192,90319.124,95565.344,,,
Sounds,html.Screen,1_3_5_0,2022-02-15T12:59:55.022Z,,,,,,,,,,,,,,,,,,,,,,,,,,,,,,,4247.676000000007,,timeout,,,,,,,,,3,,,,,,,,O,I,S,,99797.30000001192,99796.018,95537.887,95550.59999999404,95565.344,99813.02,,,
Judgement,html.Screen,1_3_5_1,2022-02-15T12:59:56.122Z,,,,,,,,,,,,,,,,,,,,,,,,,,,,true,3,,1082.8800000059564,,response,,,,,,,,,3,,3,click #choice-3,,,,,O,I,S,,100898,100895.90000000596,99796.018,99797.5,99813.02,100898.939,,,
Trial,flow.Sequence,1_3_5,2022-02-15T12:59:56.123Z,,,,,,,,,,,,,,,,,,,,,,,,,,,,,,,5330.556000005963,,completion,,,,,,,,,3,,,,,,,,O,I,S,,100898.40000000596,100895.90000000596,95537.887,95550.5,95565.344,100898.939,,,
Task,flow.Loop,1_3,2022-02-15T12:59:56.131Z,,,,,,,,,,,,,,,,,,,,,,,,,,,,,,,32858.78300000596,,completion,,,0.8333333333333334,,,,,,,,,,,,,,,,,,100906.40000000596,100895.90000000596,67993.478,68006.59999999404,68037.117,100898.939,,,
Trap,html.Screen,1_4,2022-02-15T12:59:56.133Z,,,,,,,,,,,,,,,,,,,,,,,,,,,,,,,NaN,,skipped,,,,,,,,,,,,,,,,,,,,,100908.30000001192,100895.90000000596,,100908.09999999404,,100898.939,,,
Thanks,html.Screen,1_5,2022-02-15T13:00:01.133Z,,,,,,,,,,,,,,,,,,,,,,,,,,,,,,,5006.660999994041,,response,,,,,,,,,,,continue,click button,,,,,,,,,105908,105905.59999999404,100890.242,100908.5,100898.939,108568.678,,,
Headphone screening,flow.Sequence,1,2022-02-15T13:00:01.133Z,,,,,,,,,,,,,,,,,,,,,,,,,,,,,,,85517.21299999404,,completion,,,,,,,,,,,,,,,,,,,,,105908.40000000596,105905.59999999404,20357.405,20364.80000001192,20388.387,108568.678,,,
Instructions,html.Page,2_0,2022-02-15T13:00:35.048Z,,,,,,,,,,,,,,,,,,,,,,,,,,,,,,,31258.12200001192,,form submission,,,,,,,,,,,,,,,,,,,,,139827.40000000596,139826.80000001192,108551.969,108562.40000000596,108568.678,139856.336,,,
Holding screen,html.Screen,2_1_0_0,2022-02-15T13:00:45.066Z,,,,,,,,,,,,,,,,,,,,,,,,,,,,,,,9998.448999999993,,timeout,,,,,,,,,,,,,,,,,,,,,149845.90000000596,149838.137,139820.791,139827.59999999404,139856.336,149854.785,,,
screen,html.Screen,2_1_0_1_0,2022-02-15T13:00:46.397Z,,,,,,,,,,,,,,,,,53,,,,,,,,,,,,,,1317.314999994036,,response,,,,99,,,,,,,Space,keypress(Space),,,,,,,,When -- ----- -- ------ - ------- --- ----------<br>------------- ------ ------ ---- ---- ------- ----- -- ----<br>-------- ------- -- ---------- --- - --- ----- ----- ----<br>---- --- --- ----- --- ---- ---- ------- ----- ---- -------<br>--- --- -- ----- -- --- ---- -- --- ---- -- ------ ------<br>--- ----- -- ----,151176.59999999404,151172.09999999404,149838.137,149846.20000001788,149854.785,151180.959,,0,When
screen,html.Screen,2_1_0_1_1,2022-02-15T13:00:47.142Z,,,,,,,,,,,,,,,,,53,,,,,,,,,,,,,,739.7410000178788,,response,,,,99,,,,,,,Space,keypress(Space),,,,,,,,---- it ----- -- ------ - ------- --- ----------<br>------------- ------ ------ ---- ---- ------- ----- -- ----<br>-------- ------- -- ---------- --- - --- ----- ----- ----<br>---- --- --- ----- --- ---- ---- ------- ----- ---- -------<br>--- --- -- ----- -- --- ---- -- --- ---- -- ------ ------<br>--- ----- -- ----,151921.90000000596,151920.70000001788,151171.606,151176.90000000596,151180.959,151926.22,,1,it
screen,html.Screen,2_1_0_1_2,2022-02-15T13:00:47.660Z,,,,,,,,,,,,,,,,,53,,,,,,,,,,,,,,512.4800000178802,,response,,,,99,,,,,,,Space,keypress(Space),,,,,,,,---- -- comes -- ------ - ------- --- ----------<br>------------- ------ ------ ---- ---- ------- ----- -- ----<br>-------- ------- -- ---------- --- - --- ----- ----- ----<br>---- --- --- ----- --- ---- ---- ------- ----- ---- -------<br>--- --- -- ----- -- --- ---- -- --- ---- -- ------ ------<br>--- ----- -- ----,152439.90000000596,152438.70000001788,151914.58,151922.09999999404,151926.22,152444.232,,2,comes
screen,html.Screen,2_1_0_1_3,2022-02-15T13:00:49.960Z,,,,,,,,,,,,,,,,,53,,,,,,,,,,,,,,2294.268000000011,,response,,,,99,,,,,,,Space,keypress(Space),,,,,,,,---- -- ----- to ------ - ------- --- ----------<br>------------- ------ ------ ---- ---- ------- ----- -- ----<br>-------- ------- -- ---------- --- - --- ----- ----- ----<br>---- --- --- ----- --- ---- ---- ------- ----- ---- -------<br>--- --- -- ----- -- --- ---- -- --- ---- -- ------ ------<br>--- ----- -- ----,154740.09999999404,154738.5,152426.076,152440,152444.232,154744.399,,3,to
screen,html.Screen,2_1_0_1_4,2022-02-15T13:00:51.642Z,,,,,,,,,,,,,,,,,53,,,,,,,,,,,,,,1676.100999999995,,response,,,,99,,,,,,,Space,keypress(Space),,,,,,,,---- -- ----- -- having - ------- --- ----------<br>------------- ------ ------ ---- ---- ------- ----- -- ----<br>-------- ------- -- ---------- --- - --- ----- ----- ----<br>---- --- --- ----- --- ---- ---- ------- ----- ---- -------<br>--- --- -- ----- -- --- ---- -- --- ---- -- ------ ------<br>--- ----- -- ----,156421.59999999404,156420.5,154727.471,154740.20000001788,154744.399,156425.992,,4,having
screen,html.Screen,2_1_0_1_5,2022-02-15T13:00:52.460Z,,,,,,,,,,,,,,,,,53,,,,,,,,,,,,,,812.4080000059621,,response,,,,99,,,,,,,Space,keypress(Space),,,,,,,,---- -- ----- -- ------ a ------- --- ----------<br>------------- ------ ------ ---- ---- ------- ----- -- ----<br>-------- ------- -- ---------- --- - --- ----- ----- ----<br>---- --- --- ----- --- ---- ---- ------- ----- ---- -------<br>--- --- -- ----- -- --- ---- -- --- ---- -- ------ ------<br>--- ----- -- ----,157239.59999999404,157238.40000000596,156411.061,156421.80000001192,156425.992,157243.834,,5,a
screen,html.Screen,2_1_0_1_6,2022-02-15T13:00:54.198Z,,,,,,,,,,,,,,,,,53,,,,,,,,,,,,,,1732.765999994037,,response,,,,99,,,,,,,Space,keypress(Space),,,,,,,,---- -- ----- -- ------ - lasting --- ----------<br>------------- ------ ------ ---- ---- ------- ----- -- ----<br>-------- ------- -- ---------- --- - --- ----- ----- ----<br>---- --- --- ----- --- ---- ---- ------- ----- ---- -------<br>--- --- -- ----- -- --- ---- -- --- ---- -- ------ ------<br>--- ----- -- ----,158977.80000001192,158976.59999999404,157226.262,157239.80000001192,157243.834,158982.237,,6,lasting
screen,html.Screen,2_1_0_1_7,2022-02-15T13:00:54.689Z,,,,,,,,,,,,,,,,,53,,,,,,,,,,,,,,485.16300000596675,,response,,,,99,,,,,,,Space,keypress(Space),,,,,,,,---- -- ----- -- ------ - ------- and ----------<br>------------- ------ ------ ---- ---- ------- ----- -- ----<br>-------- ------- -- ---------- --- - --- ----- ----- ----<br>---- --- --- ----- --- ---- ---- ------- ----- ---- -------<br>--- --- -- ----- -- --- ---- -- --- ---- -- ------ ------<br>--- ----- -- ----,159468.59999999404,159467.40000000596,158977.321,158977.90000000596,158982.237,159473.118,,7,and
screen,html.Screen,2_1_0_1_8,2022-02-15T13:00:55.233Z,,,,,,,,,,,,,,,,,53,,,,,,,,,,,,,,538.2820000059728,,response,,,,99,,,,,,,Space,keypress(Space),,,,,,,,---- -- ----- -- ------ - ------- --- fulfilling<br>------------- ------ ------ ---- ---- ------- ----- -- ----<br>-------- ------- -- ---------- --- - --- ----- ----- ----<br>---- --- --- ----- --- ---- ---- ------- ----- ---- -------<br>--- --- -- ----- -- --- ---- -- --- ---- -- ------ ------<br>--- ----- -- ----,160012.5,160011.40000000596,159465.876,159468.90000000596,159473.118,160016.769,,8,fulfilling
screen,html.Screen,2_1_0_1_9,2022-02-15T13:00:56.613Z,,,,,,,,,,,,,,,,,53,,,,,,,,,,,,,,1374.8309999940393,,response,,,,99,,,,,,,Space,keypress(Space),,,,,,,,"---- -- ----- -- ------ - ------- --- ----------<br>relationship, ------ ------ ---- ---- ------- ----- -- ----<br>-------- ------- -- ---------- --- - --- ----- ----- ----<br>---- --- --- ----- --- ---- ---- ------- ----- ---- -------<br>--- --- -- ----- -- --- ---- -- --- ---- -- ------ ------<br>--- ----- -- ----",161392.90000000596,161391.59999999404,160006.761,160012.70000001788,160016.769,161397.183,,9,"relationship,"
screen,html.Screen,2_1_0_1_10,2022-02-15T13:00:57.491Z,,,,,,,,,,,,,,,,,53,,,,,,,,,,,,,,872.31700000001,,response,,,,99,,,,,,,Space,keypress(Space),,,,,,,,---- -- ----- -- ------ - ------- --- ----------<br>------------- common ------ ---- ---- ------- ----- -- ----<br>-------- ------- -- ---------- --- - --- ----- ----- ----<br>---- --- --- ----- --- ---- ---- ------- ----- ---- -------<br>--- --- -- ----- -- --- ---- -- --- ---- -- ------ ------<br>--- ----- -- ----,162270.80000001192,162269.5,161383.457,161393.20000001788,161397.183,162275.044,,10,common
screen,html.Screen,2_1_0_1_11,2022-02-15T13:00:58.800Z,,,,,,,,,,,,,,,,,53,,,,,,,,,,,,,,1303.156000017887,,response,,,,99,,,,,,,Space,keypress(Space),,,,,,,,---- -- ----- -- ------ - ------- --- ----------<br>------------- ------ wisdom ---- ---- ------- ----- -- ----<br>-------- ------- -- ---------- --- - --- ----- ----- ----<br>---- --- --- ----- --- ---- ---- ------- ----- ---- -------<br>--- --- -- ----- -- --- ---- -- --- ---- -- ------ ------<br>--- ----- -- ----,163579.30000001192,163578.20000001788,162264.024,162271,162275.044,163583.635,,11,wisdom
screen,html.Screen,2_1_0_1_12,2022-02-15T13:00:59.744Z,,,,,,,,,,,,,,,,,53,,,,,,,,,,,,,,938.7650000059512,,response,,,,99,,,,,,,Space,keypress(Space),,,,,,,,---- -- ----- -- ------ - ------- --- ----------<br>------------- ------ ------ says ---- ------- ----- -- ----<br>-------- ------- -- ---------- --- - --- ----- ----- ----<br>---- --- --- ----- --- ---- ---- ------- ----- ---- -------<br>--- --- -- ----- -- --- ---- -- --- ---- -- ------ ------<br>--- ----- -- ----,164523.70000001788,164522.40000000596,163575.257,163579.5,163583.635,164528.143,,12,says
screen,html.Screen,2_1_0_1_13,2022-02-15T13:01:00.069Z,,,,,,,,,,,,,,,,,53,,,,,,,,,,,,,,319.65700001191,,response,,,,99,,,,,,,Space,keypress(Space),,,,,,,,---- -- ----- -- ------ - ------- --- ----------<br>------------- ------ ------ ---- that ------- ----- -- ----<br>-------- ------- -- ---------- --- - --- ----- ----- ----<br>---- --- --- ----- --- ---- ---- ------- ----- ---- -------<br>--- --- -- ----- -- --- ---- -- --- ---- -- ------ ------<br>--- ----- -- ----,164848.90000000596,164847.80000001192,164517.227,164524,164528.143,164853.18,,13,that
screen,html.Screen,2_1_0_1_14,2022-02-15T13:01:00.519Z,,,,,,,,,,,,,,,,,53,,,,,,,,,,,,,,444.0200000178884,,response,,,,99,,,,,,,Space,keypress(Space),,,,,,,,---- -- ----- -- ------ - ------- --- ----------<br>------------- ------ ------ ---- ---- feeling ----- -- ----<br>-------- ------- -- ---------- --- - --- ----- ----- ----<br>---- --- --- ----- --- ---- ---- ------- ----- ---- -------<br>--- --- -- ----- -- --- ---- -- --- ---- -- ------ ------<br>--- ----- -- ----,165298.30000001192,165297.20000001788,164845.098,164849.09999999404,164853.18,165302.615,,14,feeling
screen,html.Screen,2_1_0_1_15,2022-02-15T13:01:00.876Z,,,,,,,,,,,,,,,,,53,,,,,,,,,,,,,,351.5850000178907,,response,,,,99,,,,,,,Space,keypress(Space),,,,,,,,---- -- ----- -- ------ - ------- --- ----------<br>------------- ------ ------ ---- ---- ------- close -- ----<br>-------- ------- -- ---------- --- - --- ----- ----- ----<br>---- --- --- ----- --- ---- ---- ------- ----- ---- -------<br>--- --- -- ----- -- --- ---- -- --- ---- -- ------ ------<br>--- ----- -- ----,165655.5,165654.20000001788,165286.728,165298.59999999404,165302.615,165661.35,,15,close
screen,html.Screen,2_1_0_1_16,2022-02-15T13:01:01.304Z,,,,,,,,,,,,,,,,,53,,,,,,,,,,,,,,421.05000000595464,,response,,,,99,,,,,,,Space,keypress(Space),,,,,,,,---- -- ----- -- ------ - ------- --- ----------<br>------------- ------ ------ ---- ---- ------- ----- to ----<br>-------- ------- -- ---------- --- - --- ----- ----- ----<br>---- --- --- ----- --- ---- ---- ------- ----- ---- -------<br>--- --- -- ----- -- --- ---- -- --- ---- -- ------ ------<br>--- ----- -- ----,166083.70000001788,166082.40000000596,165652.876,165655.59999999404,165661.35,166088.143,,16,to
screen,html.Screen,2_1_0_1_17,2022-02-15T13:01:01.687Z,,,,,,,,,,,,,,,,,53,,,,,,,,,,,,,,377.15700001191,,response,,,,99,,,,,,,Space,keypress(Space),,,,,,,,---- -- ----- -- ------ - ------- --- ----------<br>------------- ------ ------ ---- ---- ------- ----- -- your<br>-------- ------- -- ---------- --- - --- ----- ----- ----<br>---- --- --- ----- --- ---- ---- ------- ----- ---- -------<br>--- --- -- ----- -- --- ---- -- --- ---- -- ------ ------<br>--- ----- -- ----,166466.59999999404,166465.30000001192,166078.049,166083.90000000596,166088.143,166470.817,,17,your
screen,html.Screen,2_1_0_1_18,2022-02-15T13:01:02.290Z,,,,,,,,,,,,,,,,,53,,,,,,,,,,,,,,597.68299999999,,response,,,,99,,,,,,,Space,keypress(Space),,,,,,,,---- -- ----- -- ------ - ------- --- ----------<br>------------- ------ ------ ---- ---- ------- ----- -- ----<br>romantic ------- -- ---------- --- - --- ----- ----- ----<br>---- --- --- ----- --- ---- ---- ------- ----- ---- -------<br>--- --- -- ----- -- --- ---- -- --- ---- -- ------ ------<br>--- ----- -- ----,167069.70000001788,167068.5,166455.088,166466.70000001788,166470.817,167091.224,,18,romantic
screen,html.Screen,2_1_0_1_19,2022-02-15T13:01:02.686Z,,,,,,,,,,,,,,,,,53,,,,,,,,,,,,,,373.17600000597304,,response,,,,99,,,,,,,Space,keypress(Space),,,,,,,,---- -- ----- -- ------ - ------- --- ----------<br>------------- ------ ------ ---- ---- ------- ----- -- ----<br>-------- partner -- ---------- --- - --- ----- ----- ----<br>---- --- --- ----- --- ---- ---- ------- ----- ---- -------<br>--- --- -- ----- -- --- ---- -- --- ---- -- ------ ------<br>--- ----- -- ----,167465.70000001788,167464.40000000596,167074.074,167069.90000000596,167091.224,167470.125,,19,partner
screen,html.Screen,2_1_0_1_20,2022-02-15T13:01:03.077Z,,,,,,,,,,,,,,,,,53,,,,,,,,,,,,,,385.375,,response,,,,99,,,,,,,Space,keypress(Space),,,,,,,,---- -- ----- -- ------ - ------- --- ----------<br>------------- ------ ------ ---- ---- ------- ----- -- ----<br>-------- ------- is ---------- --- - --- ----- ----- ----<br>---- --- --- ----- --- ---- ---- ------- ----- ---- -------<br>--- --- -- ----- -- --- ---- -- --- ---- -- ------ ------<br>--- ----- -- ----,167856.70000001788,167855.5,167457.324,167465.90000000596,167470.125,167861.022,,20,is
screen,html.Screen,2_1_0_1_21,2022-02-15T13:01:04.642Z,,,,,,,,,,,,,,,,,53,,,,,,,,,,,,,,1559.5779999940423,,response,,,,99,,,,,,,Space,keypress(Space),,,,,,,,---- -- ----- -- ------ - ------- --- ----------<br>------------- ------ ------ ---- ---- ------- ----- -- ----<br>-------- ------- -- paramount. --- - --- ----- ----- ----<br>---- --- --- ----- --- ---- ---- ------- ----- ---- -------<br>--- --- -- ----- -- --- ---- -- --- ---- -- ------ ------<br>--- ----- -- ----,169422,169420.59999999404,167853.766,167856.80000001192,167861.022,169426.387,,21,paramount.
screen,html.Screen,2_1_0_1_22,2022-02-15T13:01:05.116Z,,,,,,,,,,,,,,,,,53,,,,,,,,,,,,,,468.1130000000121,,response,,,,99,,,,,,,Space,keypress(Space),,,,,,,,---- -- ----- -- ------ - ------- --- ----------<br>------------- ------ ------ ---- ---- ------- ----- -- ----<br>-------- ------- -- ---------- But - --- ----- ----- ----<br>---- --- --- ----- --- ---- ---- ------- ----- ---- -------<br>--- --- -- ----- -- --- ---- -- --- ---- -- ------ ------<br>--- ----- -- ----,169895.70000001788,169894.5,169411.156,169422.09999999404,169426.387,169900.285,,22,But
screen,html.Screen,2_1_0_1_23,2022-02-15T13:01:05.631Z,,,,,,,,,,,,,,,,,53,,,,,,,,,,,,,,509.2149999999965,,response,,,,99,,,,,,,Space,keypress(Space),,,,,,,,---- -- ----- -- ------ - ------- --- ----------<br>------------- ------ ------ ---- ---- ------- ----- -- ----<br>-------- ------- -- ---------- --- a --- ----- ----- ----<br>---- --- --- ----- --- ---- ---- ------- ----- ---- -------<br>--- --- -- ----- -- --- ---- -- --- ---- -- ------ ------<br>--- ----- -- ----,170410.70000001788,170409.5,169893.275,169895.90000000596,169900.285,170415.454,,23,a
screen,html.Screen,2_1_0_1_24,2022-02-15T13:01:06.242Z,,,,,,,,,,,,,,,,,53,,,,,,,,,,,,,,605.0460000000021,,response,,,,99,,,,,,,Space,keypress(Space),,,,,,,,---- -- ----- -- ------ - ------- --- ----------<br>------------- ------ ------ ---- ---- ------- ----- -- ----<br>-------- ------- -- ---------- --- - new ----- ----- ----<br>---- --- --- ----- --- ---- ---- ------- ----- ---- -------<br>--- --- -- ----- -- --- ---- -- --- ---- -- ------ ------<br>--- ----- -- ----,171021.70000001788,171020.5,170400.446,170410.90000000596,170415.454,171026.201,,24,new
screen,html.Screen,2_1_0_1_25,2022-02-15T13:01:06.589Z,,,,,,,,,,,,,,,,,53,,,,,,,,,,,,,,341.19900000595953,,response,,,,99,,,,,,,Space,keypress(Space),,,,,,,,---- -- ----- -- ------ - ------- --- ----------<br>------------- ------ ------ ---- ---- ------- ----- -- ----<br>-------- ------- -- ---------- --- - --- study ----- ----<br>---- --- --- ----- --- ---- ---- ------- ----- ---- -------<br>--- --- -- ----- -- --- ---- -- --- ---- -- ------ ------<br>--- ----- -- ----,171368.59999999404,171367.40000000596,171015.572,171021.90000000596,171026.201,171373.05,,25,study
screen,html.Screen,2_1_0_1_26,2022-02-15T13:01:07.087Z,,,,,,,,,,,,,,,,,53,,,,,,,,,,,,,,492.65000001789303,,response,,,,99,,,,,,,Space,keypress(Space),,,,,,,,---- -- ----- -- ------ - ------- --- ----------<br>------------- ------ ------ ---- ---- ------- ----- -- ----<br>-------- ------- -- ---------- --- - --- ----- finds ----<br>---- --- --- ----- --- ---- ---- ------- ----- ---- -------<br>--- --- -- ----- -- --- ---- -- --- ---- -- ------ ------<br>--- ----- -- ----,171866.90000000596,171865.70000001788,171359.837,171368.80000001192,171373.05,171871.877,,26,finds
screen,html.Screen,2_1_0_1_27,2022-02-15T13:01:07.443Z,,,,,,,,,,,,,,,,,53,,,,,,,,,,,,,,349.5230000059528,,response,,,,99,,,,,,,Space,keypress(Space),,,,,,,,---- -- ----- -- ------ - ------- --- ----------<br>------------- ------ ------ ---- ---- ------- ----- -- ----<br>-------- ------- -- ---------- --- - --- ----- ----- that<br>---- --- --- ----- --- ---- ---- ------- ----- ---- -------<br>--- --- -- ----- -- --- ---- -- --- ---- -- ------ ------<br>--- ----- -- ----,172222.80000001192,172221.40000000596,171856.667,171867.40000000596,171871.877,172227.241,,27,that
screen,html.Screen,2_1_0_1_28,2022-02-15T13:01:07.944Z,,,,,,,,,,,,,,,,,53,,,,,,,,,,,,,,495.7589999999909,,response,,,,99,,,,,,,Space,keypress(Space),,,,,,,,---- -- ----- -- ------ - ------- --- ----------<br>------------- ------ ------ ---- ---- ------- ----- -- ----<br>-------- ------- -- ---------- --- - --- ----- ----- ----<br>it's --- --- ----- --- ---- ---- ------- ----- ---- -------<br>--- --- -- ----- -- --- ---- -- --- ---- -- ------ ------<br>--- ----- -- ----,172724.09999999404,172723,172221.914,172223,172227.241,172728.17,,28,it's
screen,html.Screen,2_1_0_1_29,2022-02-15T13:01:08.308Z,,,,,,,,,,,,,,,,,53,,,,,,,,,,,,,,358.0300000178686,,response,,,,99,,,,,,,Space,keypress(Space),,,,,,,,---- -- ----- -- ------ - ------- --- ----------<br>------------- ------ ------ ---- ---- ------- ----- -- ----<br>-------- ------- -- ---------- --- - --- ----- ----- ----<br>---- not --- ----- --- ---- ---- ------- ----- ---- -------<br>--- --- -- ----- -- --- ---- -- --- ---- -- ------ ------<br>--- ----- -- ----,173087.40000000596,173086.20000001788,172710.837,172724.20000001788,172728.17,173091.63,,29,not
screen,html.Screen,2_1_0_1_30,2022-02-15T13:01:08.726Z,,,,,,,,,,,,,,,,,53,,,,,,,,,,,,,,412.7700000059558,,response,,,,99,,,,,,,Space,keypress(Space),,,,,,,,---- -- ----- -- ------ - ------- --- ----------<br>------------- ------ ------ ---- ---- ------- ----- -- ----<br>-------- ------- -- ---------- --- - --- ----- ----- ----<br>---- --- how ----- --- ---- ---- ------- ----- ---- -------<br>--- --- -- ----- -- --- ---- -- --- ---- -- ------ ------<br>--- ----- -- ----,173505.70000001788,173504.40000000596,173078.452,173087.5,173091.63,173510.161,,30,how
screen,html.Screen,2_1_0_1_31,2022-02-15T13:01:09.101Z,,,,,,,,,,,,,,,,,53,,,,,,,,,,,,,,368.93899999404675,,response,,,,99,,,,,,,Space,keypress(Space),,,,,,,,---- -- ----- -- ------ - ------- --- ----------<br>------------- ------ ------ ---- ---- ------- ----- -- ----<br>-------- ------- -- ---------- --- - --- ----- ----- ----<br>---- --- --- close --- ---- ---- ------- ----- ---- -------<br>--- --- -- ----- -- --- ---- -- --- ---- -- ------ ------<br>--- ----- -- ----,173880.30000001192,173879.09999999404,173491.76,173506,173510.161,173884.633,,31,close
screen,html.Screen,2_1_0_1_32,2022-02-15T13:01:09.464Z,,,,,,,,,,,,,,,,,53,,,,,,,,,,,,,,357.76700000595883,,response,,,,99,,,,,,,Space,keypress(Space),,,,,,,,---- -- ----- -- ------ - ------- --- ----------<br>------------- ------ ------ ---- ---- ------- ----- -- ----<br>-------- ------- -- ---------- --- - --- ----- ----- ----<br>---- --- --- ----- you ---- ---- ------- ----- ---- -------<br>--- --- -- ----- -- --- ---- -- --- ---- -- ------ ------<br>--- ----- -- ----,174243.80000001192,174242.40000000596,173877.083,173880.5,173884.633,174248.317,,32,you
screen,html.Screen,2_1_0_1_33,2022-02-15T13:01:09.954Z,,,,,,,,,,,,,,,,,53,,,,,,,,,,,,,,484.18299999999,,response,,,,99,,,,,,,Space,keypress(Space),,,,,,,,---- -- ----- -- ------ - ------- --- ----------<br>------------- ------ ------ ---- ---- ------- ----- -- ----<br>-------- ------- -- ---------- --- - --- ----- ----- ----<br>---- --- --- ----- --- feel ---- ------- ----- ---- -------<br>--- --- -- ----- -- --- ---- -- --- ---- -- ------ ------<br>--- ----- -- ----,174733.59999999404,174732.5,174234.881,174244,174248.317,174738.018,,33,feel
screen,html.Screen,2_1_0_1_34,2022-02-15T13:01:10.511Z,,,,,,,,,,,,,,,,,53,,,,,,,,,,,,,,551.28200001191,,response,,,,99,,,,,,,Space,keypress(Space),,,,,,,,---- -- ----- -- ------ - ------- --- ----------<br>------------- ------ ------ ---- ---- ------- ----- -- ----<br>-------- ------- -- ---------- --- - --- ----- ----- ----<br>---- --- --- ----- --- ---- that ------- ----- ---- -------<br>--- --- -- ----- -- --- ---- -- --- ---- -- ------ ------<br>--- ----- -- ----,175290.5,175289.30000001192,174731.942,174733.80000001192,174738.018,175294.907,,34,that
screen,html.Screen,2_1_0_1_35,2022-02-15T13:01:10.961Z,,,,,,,,,,,,,,,,,53,,,,,,,,,,,,,,444.49300000595395,,response,,,,99,,,,,,,Space,keypress(Space),,,,,,,,---- -- ----- -- ------ - ------- --- ----------<br>------------- ------ ------ ---- ---- ------- ----- -- ----<br>-------- ------- -- ---------- --- - --- ----- ----- ----<br>---- --- --- ----- --- ---- ---- matters ----- ---- -------<br>--- --- -- ----- -- --- ---- -- --- ---- -- ------ ------<br>--- ----- -- ----,175740.70000001788,175739.40000000596,175288.273,175290.70000001788,175294.907,175745.703,,35,matters
screen,html.Screen,2_1_0_1_36,2022-02-15T13:01:11.613Z,,,,,,,,,,,,,,,,,53,,,,,,,,,,,,,,645.4970000178728,,response,,,,99,,,,,,,Space,keypress(Space),,,,,,,,"---- -- ----- -- ------ - ------- --- ----------<br>------------- ------ ------ ---- ---- ------- ----- -- ----<br>-------- ------- -- ---------- --- - --- ----- ----- ----<br>---- --- --- ----- --- ---- ---- ------- most, ---- -------<br>--- --- -- ----- -- --- ---- -- --- ---- -- ------ ------<br>--- ----- -- ----",176392.5,176391.20000001788,175728.581,175741,175745.703,176396.816,,36,"most,"
screen,html.Screen,2_1_0_1_37,2022-02-15T13:01:12.214Z,,,,,,,,,,,,,,,,,53,,,,,,,,,,,,,,595.5840000059688,,response,,,,99,,,,,,,Space,keypress(Space),,,,,,,,---- -- ----- -- ------ - ------- --- ----------<br>------------- ------ ------ ---- ---- ------- ----- -- ----<br>-------- ------- -- ---------- --- - --- ----- ----- ----<br>---- --- --- ----- --- ---- ---- ------- ----- it's -------<br>--- --- -- ----- -- --- ---- -- --- ---- -- ------ ------<br>--- ----- -- ----,176993.70000001788,176992.40000000596,176378.87,176392.70000001788,176396.816,176998.038,,37,it's
screen,html.Screen,2_1_0_1_38,2022-02-15T13:01:12.674Z,,,,,,,,,,,,,,,,,53,,,,,,,,,,,,,,454.26200001192046,,response,,,,99,,,,,,,Space,keypress(Space),,,,,,,,---- -- ----- -- ------ - ------- --- ----------<br>------------- ------ ------ ---- ---- ------- ----- -- ----<br>-------- ------- -- ---------- --- - --- ----- ----- ----<br>---- --- --- ----- --- ---- ---- ------- ----- ---- whether<br>--- --- -- ----- -- --- ---- -- --- ---- -- ------ ------<br>--- ----- -- ----,177453.5,177452.30000001192,176980.755,176993.90000000596,176998.038,177457.913,,38,whether
screen,html.Screen,2_1_0_1_39,2022-02-15T13:01:13.079Z,,,,,,,,,,,,,,,,,53,,,,,,,,,,,,,,399.08699999999953,,response,,,,99,,,,,,,Space,keypress(Space),,,,,,,,---- -- ----- -- ------ - ------- --- ----------<br>------------- ------ ------ ---- ---- ------- ----- -- ----<br>-------- ------- -- ---------- --- - --- ----- ----- ----<br>---- --- --- ----- --- ---- ---- ------- ----- ---- -------<br>you --- -- ----- -- --- ---- -- --- ---- -- ------ ------<br>--- ----- -- ----,177858.20000001788,177857,177448.34,177453.70000001788,177457.913,177862.661,,39,you
screen,html.Screen,2_1_0_1_40,2022-02-15T13:01:13.547Z,,,,,,,,,,,,,,,,,53,,,,,,,,,,,,,,462.8390000000072,,response,,,,99,,,,,,,Space,keypress(Space),,,,,,,,---- -- ----- -- ------ - ------- --- ----------<br>------------- ------ ------ ---- ---- ------- ----- -- ----<br>-------- ------- -- ---------- --- - --- ----- ----- ----<br>---- --- --- ----- --- ---- ---- ------- ----- ---- -------<br>--- are -- ----- -- --- ---- -- --- ---- -- ------ ------<br>--- ----- -- ----,178326.90000000596,178325.5,177858.273,177858.40000000596,177862.661,178331.244,,40,are
screen,html.Screen,2_1_0_1_41,2022-02-15T13:01:14.076Z,,,,,,,,,,,,,,,,,53,,,,,,,,,,,,,,523.0560000119149,,response,,,,99,,,,,,,Space,keypress(Space),,,,,,,,---- -- ----- -- ------ - ------- --- ----------<br>------------- ------ ------ ---- ---- ------- ----- -- ----<br>-------- ------- -- ---------- --- - --- ----- ----- ----<br>---- --- --- ----- --- ---- ---- ------- ----- ---- -------<br>--- --- as ----- -- --- ---- -- --- ---- -- ------ ------<br>--- ----- -- ----,178855.5,178854.30000001192,178312.891,178327.09999999404,178331.244,178859.871,,41,as
screen,html.Screen,2_1_0_1_42,2022-02-15T13:01:14.570Z,,,,,,,,,,,,,,,,,53,,,,,,,,,,,,,,488.5290000059467,,response,,,,99,,,,,,,Space,keypress(Space),,,,,,,,---- -- ----- -- ------ - ------- --- ----------<br>------------- ------ ------ ---- ---- ------- ----- -- ----<br>-------- ------- -- ---------- --- - --- ----- ----- ----<br>---- --- --- ----- --- ---- ---- ------- ----- ---- -------<br>--- --- -- close -- --- ---- -- --- ---- -- ------ ------<br>--- ----- -- ----,179349.80000001192,179348.40000000596,178848.201,178855.70000001788,178859.871,179354.326,,42,close
screen,html.Screen,2_1_0_1_43,2022-02-15T13:01:14.979Z,,,,,,,,,,,,,,,,,53,,,,,,,,,,,,,,403.07400000595953,,response,,,,99,,,,,,,Space,keypress(Space),,,,,,,,---- -- ----- -- ------ - ------- --- ----------<br>------------- ------ ------ ---- ---- ------- ----- -- ----<br>-------- ------- -- ---------- --- - --- ----- ----- ----<br>---- --- --- ----- --- ---- ---- ------- ----- ---- -------<br>--- --- -- ----- as --- ---- -- --- ---- -- ------ ------<br>--- ----- -- ----,179758.70000001788,179757.40000000596,179343.59,179350.09999999404,179354.326,179763.092,,43,as
screen,html.Screen,2_1_0_1_44,2022-02-15T13:01:15.405Z,,,,,,,,,,,,,,,,,53,,,,,,,,,,,,,,420.50799999403534,,response,,,,99,,,,,,,Space,keypress(Space),,,,,,,,---- -- ----- -- ------ - ------- --- ----------<br>------------- ------ ------ ---- ---- ------- ----- -- ----<br>-------- ------- -- ---------- --- - --- ----- ----- ----<br>---- --- --- ----- --- ---- ---- ------- ----- ---- -------<br>--- --- -- ----- -- you ---- -- --- ---- -- ------ ------<br>--- ----- -- ----,180185,180183.59999999404,179754.525,179758.80000001192,179763.092,180189.279,,44,you
screen,html.Screen,2_1_0_1_45,2022-02-15T13:01:15.873Z,,,,,,,,,,,,,,,,,53,,,,,,,,,,,,,,461.82099999403,,response,,,,99,,,,,,,Space,keypress(Space),,,,,,,,---- -- ----- -- ------ - ------- --- ----------<br>------------- ------ ------ ---- ---- ------- ----- -- ----<br>-------- ------- -- ---------- --- - --- ----- ----- ----<br>---- --- --- ----- --- ---- ---- ------- ----- ---- -------<br>--- --- -- ----- -- --- want -- --- ---- -- ------ ------<br>--- ----- -- ----,180652.40000000596,180651.09999999404,180180.042,180185.20000001788,180189.279,180656.693,,45,want
screen,html.Screen,2_1_0_1_46,2022-02-15T13:01:16.319Z,,,,,,,,,,,,,,,,,53,,,,,,,,,,,,,,440.70700000596116,,response,,,,99,,,,,,,Space,keypress(Space),,,,,,,,---- -- ----- -- ------ - ------- --- ----------<br>------------- ------ ------ ---- ---- ------- ----- -- ----<br>-------- ------- -- ---------- --- - --- ----- ----- ----<br>---- --- --- ----- --- ---- ---- ------- ----- ---- -------<br>--- --- -- ----- -- --- ---- to --- ---- -- ------ ------<br>--- ----- -- ----,181098.59999999404,181097.40000000596,180639.493,180652.59999999404,180656.693,181103.182,,46,to
screen,html.Screen,2_1_0_1_47,2022-02-15T13:01:17.380Z,,,,,,,,,,,,,,,,,53,,,,,,,,,,,,,,1055.6180000119202,,response,,,,99,,,,,,,Space,keypress(Space),,,,,,,,"---- -- ----- -- ------ - ------- --- ----------<br>------------- ------ ------ ---- ---- ------- ----- -- ----<br>-------- ------- -- ---------- --- - --- ----- ----- ----<br>---- --- --- ----- --- ---- ---- ------- ----- ---- -------<br>--- --- -- ----- -- --- ---- -- be, ---- -- ------ ------<br>--- ----- -- ----",182160.09999999404,182158.80000001192,181089.979,181098.80000001192,181103.182,182164.42,,47,"be,"
screen,html.Screen,2_1_0_1_48,2022-02-15T13:01:17.900Z,,,,,,,,,,,,,,,,,53,,,,,,,,,,,,,,513.8800000119081,,response,,,,99,,,,,,,Space,keypress(Space),,,,,,,,---- -- ----- -- ------ - ------- --- ----------<br>------------- ------ ------ ---- ---- ------- ----- -- ----<br>-------- ------- -- ---------- --- - --- ----- ----- ----<br>---- --- --- ----- --- ---- ---- ------- ----- ---- -------<br>--- --- -- ----- -- --- ---- -- --- even -- ------ ------<br>--- ----- -- ----,182679.59999999404,182678.30000001192,182153.285,182160.30000001192,182164.42,182683.948,,48,even
screen,html.Screen,2_1_0_1_49,2022-02-15T13:01:18.461Z,,,,,,,,,,,,,,,,,53,,,,,,,,,,,,,,555.4520000059565,,response,,,,99,,,,,,,Space,keypress(Space),,,,,,,,---- -- ----- -- ------ - ------- --- ----------<br>------------- ------ ------ ---- ---- ------- ----- -- ----<br>-------- ------- -- ---------- --- - --- ----- ----- ----<br>---- --- --- ----- --- ---- ---- ------- ----- ---- -------<br>--- --- -- ----- -- --- ---- -- --- ---- if ------ ------<br>--- ----- -- ----,183240.80000001192,183239.40000000596,182664.574,182679.70000001788,182683.948,183245.204,,49,if
screen,html.Screen,2_1_0_1_50,2022-02-15T13:01:18.941Z,,,,,,,,,,,,,,,,,53,,,,,,,,,,,,,,474.096000011923,,response,,,,99,,,,,,,Space,keypress(Space),,,,,,,,---- -- ----- -- ------ - ------- --- ----------<br>------------- ------ ------ ---- ---- ------- ----- -- ----<br>-------- ------- -- ---------- --- - --- ----- ----- ----<br>---- --- --- ----- --- ---- ---- ------- ----- ---- -------<br>--- --- -- ----- -- --- ---- -- --- ---- -- that's ------<br>--- ----- -- ----,183720.59999999404,183719.30000001192,183234.255,183240.90000000596,183245.204,183724.959,,50,that's
screen,html.Screen,2_1_0_1_51,2022-02-15T13:01:19.504Z,,,,,,,,,,,,,,,,,53,,,,,,,,,,,,,,557.3410000119184,,response,,,,99,,,,,,,Space,keypress(Space),,,,,,,,---- -- ----- -- ------ - ------- --- ----------<br>------------- ------ ------ ---- ---- ------- ----- -- ----<br>-------- ------- -- ---------- --- - --- ----- ----- ----<br>---- --- --- ----- --- ---- ---- ------- ----- ---- -------<br>--- --- -- ----- -- --- ---- -- --- ---- -- ------ really<br>--- ----- -- ----,184283.59999999404,184282.30000001192,183712.043,183720.80000001192,183724.959,184287.887,,51,really
screen,html.Screen,2_1_0_1_52,2022-02-15T13:01:19.954Z,,,,,,,,,,,,,,,,,53,,,,,,,,,,,,,,444.41300001193304,,response,,,,99,,,,,,,Space,keypress(Space),,,,,,,,---- -- ----- -- ------ - ------- --- ----------<br>------------- ------ ------ ---- ---- ------- ----- -- ----<br>-------- ------- -- ---------- --- - --- ----- ----- ----<br>---- --- --- ----- --- ---- ---- ------- ----- ---- -------<br>--- --- -- ----- -- --- ---- -- --- ---- -- ------ ------<br>not ----- -- ----,184733.5,184732.30000001192,184275.197,184283.80000001192,184287.887,184737.992,,52,not
screen,html.Screen,2_1_0_1_53,2022-02-15T13:01:20.428Z,,,,,,,,,,,,,,,,,53,,,,,,,,,,,,,,468.208000017883,,response,,,,99,,,,,,,Space,keypress(Space),,,,,,,,---- -- ----- -- ------ - ------- --- ----------<br>------------- ------ ------ ---- ---- ------- ----- -- ----<br>-------- ------- -- ---------- --- - --- ----- ----- ----<br>---- --- --- ----- --- ---- ---- ------- ----- ---- -------<br>--- --- -- ----- -- --- ---- -- --- ---- -- ------ ------<br>--- close -- ----,185207.40000000596,185206.20000001788,184721.211,184733.80000001192,184737.992,185211.804,,53,close
screen,html.Screen,2_1_0_1_54,2022-02-15T13:01:21.063Z,,,,,,,,,,,,,,,,,53,,,,,,,,,,,,,,629.4960000119172,,response,,,,99,,,,,,,Space,keypress(Space),,,,,,,,---- -- ----- -- ------ - ------- --- ----------<br>------------- ------ ------ ---- ---- ------- ----- -- ----<br>-------- ------- -- ---------- --- - --- ----- ----- ----<br>---- --- --- ----- --- ---- ---- ------- ----- ---- -------<br>--- --- -- ----- -- --- ---- -- --- ---- -- ------ ------<br>--- ----- at ----,185842.5,185841.30000001192,185204.898,185207.5,185211.804,185846.993,,54,at
screen,html.Screen,2_1_0_1_55,2022-02-15T13:01:21.457Z,,,,,,,,,,,,,,,,,53,,,,,,,,,,,,,,388.20700001789373,,response,,,,99,,,,,,,Space,keypress(Space),,,,,,,,---- -- ----- -- ------ - ------- --- ----------<br>------------- ------ ------ ---- ---- ------- ----- -- ----<br>-------- ------- -- ---------- --- - --- ----- ----- ----<br>---- --- --- ----- --- ---- ---- ------- ----- ---- -------<br>--- --- -- ----- -- --- ---- -- --- ---- -- ------ ------<br>--- ----- -- all.,186236.5,186235.20000001788,185828.676,185842.70000001788,185846.993,186241.492,,55,all.
Item 99,flow.Loop,2_1_0_1,2022-02-15T13:01:21.457Z,,,,,,,,,,,,,,,,,,,,,,,,,,,,,,,36380.41500001788,,completion,,,,,E,,,,,,,,,,,silence,,,,,186236.90000000596,186235.20000001788,149838.137,149846.09999999404,149854.785,186241.492,,,
Question 1,html.Screen,2_1_0_2,2022-02-15T13:01:26.459Z,,,,,,,,,,,,,,,,,,,,,,,,,,,,true,FALSE,,4995.008000000002,,response,,,,99,E,,,,,,FALSE,click #choice-2,,,,silence,,,,,191238.80000001192,191236.5,186230.637,186237.20000001788,186241.492,191239.513,,,
Question 2,html.Screen,2_1_0_3,2022-02-15T13:01:35.087Z,,,,,,,,,,,,,,,,,,,,,,,,,,,,true,TRUE,,8623.187000017875,,response,,,,99,E,,,,,,TRUE,click #choice-1,,,,silence,,,,,199865,199862.70000001788,191224.584,191239.20000001788,191239.513,199865.719,,,
Item 99,flow.Sequence,2_1_0,2022-02-15T13:01:35.087Z,,,,,,,,,,,,,,,,,,,,,,,,,,,,,,,60006.36400001787,,completion,,,,,,,,,,,,,,,,,,,,,199865.30000001192,199862.70000001788,139820.791,139827.59999999404,139856.336,199865.719,,,
Holding screen,html.Screen,2_1_1_0,2022-02-15T13:01:45.079Z,,,,,,,,,,,,,,,,,,,,,,,,,,,,,,,10007.464999999997,,timeout,,,,,,,,,,,,,,,,,,,,,209857.70000001788,209856.554,199859.261,199865.5,199865.719,209873.184,,,
screen,html.Screen,2_1_1_1_0,2022-02-15T13:01:46.558Z,,,,,,,,,,,,,,,,,54,,,,,,,,,,,,,,1461.516000017873,,response,,,,100,,,,,,,Space,keypress(Space),,,,,,,,At --- ---- --- ------ ----- ------- ---- -- --- ------- --<br>------- ---------- ------ -- ----- -- ----- -- ---- ------<br>--- ----- --- --- ------ -------- ----- --- ------ ----- --<br>----- ----- ---------- --- --- ------ ------ ---- -- ------<br>------- --- ------ ----- --- ---- ------- -- ---- --- --<br>------- ------,211335.90000000596,211334.70000001788,209856.554,209858,209873.184,211338.974,,0,At
screen,html.Screen,2_1_1_1_1,2022-02-15T13:01:47.257Z,,,,,,,,,,,,,,,,,54,,,,,,,,,,,,,,695.226000017894,,response,,,,100,,,,,,,Space,keypress(Space),,,,,,,,-- the ---- --- ------ ----- ------- ---- -- --- ------- --<br>------- ---------- ------ -- ----- -- ----- -- ---- ------<br>--- ----- --- --- ------ -------- ----- --- ------ ----- --<br>----- ----- ---------- --- --- ------ ------ ---- -- ------<br>------- --- ------ ----- --- ---- ------- -- ---- --- --<br>------- ------,212035.59999999404,212034.20000001788,211322.927,211336.30000001192,211338.974,212039.596,,1,the
screen,html.Screen,2_1_1_1_2,2022-02-15T13:01:47.951Z,,,,,,,,,,,,,,,,,54,,,,,,,,,,,,,,688.7040000119305,,response,,,,100,,,,,,,Space,keypress(Space),,,,,,,,-- --- time --- ------ ----- ------- ---- -- --- ------- --<br>------- ---------- ------ -- ----- -- ----- -- ---- ------<br>--- ----- --- --- ------ -------- ----- --- ------ ----- --<br>----- ----- ---------- --- --- ------ ------ ---- -- ------<br>------- --- ------ ----- --- ---- ------- -- ---- --- --<br>------- ------,212729.40000000596,212728.30000001192,212022.193,212035.70000001788,212039.596,212733.572,,2,time
screen,html.Screen,2_1_1_1_3,2022-02-15T13:01:48.566Z,,,,,,,,,,,,,,,,,54,,,,,,,,,,,,,,609.6280000178958,,response,,,,100,,,,,,,Space,keypress(Space),,,,,,,,-- --- ---- the ------ ----- ------- ---- -- --- ------- --<br>------- ---------- ------ -- ----- -- ----- -- ---- ------<br>--- ----- --- --- ------ -------- ----- --- ------ ----- --<br>----- ----- ---------- --- --- ------ ------ ---- -- ------<br>------- --- ------ ----- --- ---- ------- -- ---- --- --<br>------- ------,213344.70000001788,213343.20000001788,212723.132,212729.59999999404,212733.572,213348.889,,3,the
screen,html.Screen,2_1_1_1_4,2022-02-15T13:01:49.208Z,,,,,,,,,,,,,,,,,54,,,,,,,,,,,,,,635.5110000059649,,response,,,,100,,,,,,,Space,keypress(Space),,,,,,,,-- --- ---- --- French ----- ------- ---- -- --- ------- --<br>------- ---------- ------ -- ----- -- ----- -- ---- ------<br>--- ----- --- --- ------ -------- ----- --- ------ ----- --<br>----- ----- ---------- --- --- ------ ------ ---- -- ------<br>------- --- ------ ----- --- ---- ------- -- ---- --- --<br>------- ------,213986,213984.40000000596,213333.729,213344.90000000596,213348.889,213990.313,,4,French
screen,html.Screen,2_1_1_1_5,2022-02-15T13:01:49.649Z,,,,,,,,,,,,,,,,,54,,,,,,,,,,,,,,435.9870000119263,,response,,,,100,,,,,,,Space,keypress(Space),,,,,,,,-- --- ---- --- ------ crown ------- ---- -- --- ------- --<br>------- ---------- ------ -- ----- -- ----- -- ---- ------<br>--- ----- --- --- ------ -------- ----- --- ------ ----- --<br>----- ----- ---------- --- --- ------ ------ ---- -- ------<br>------- --- ------ ----- --- ---- ------- -- ---- --- --<br>------- ------,214427.5,214426.30000001192,213982.462,213986.09999999404,213990.313,214431.676,,5,crown
screen,html.Screen,2_1_1_1_6,2022-02-15T13:01:50.551Z,,,,,,,,,,,,,,,,,54,,,,,,,,,,,,,,896.8239999999932,,response,,,,100,,,,,,,Space,keypress(Space),,,,,,,,-- --- ---- --- ------ ----- secured ---- -- --- ------- --<br>------- ---------- ------ -- ----- -- ----- -- ---- ------<br>--- ----- --- --- ------ -------- ----- --- ------ ----- --<br>----- ----- ---------- --- --- ------ ------ ---- -- ------<br>------- --- ------ ----- --- ---- ------- -- ---- --- --<br>------- ------,215329.80000001192,215328.5,214423.834,214427.70000001788,214431.676,215333.866,,6,secured
screen,html.Screen,2_1_1_1_7,2022-02-15T13:01:51.162Z,,,,,,,,,,,,,,,,,54,,,,,,,,,,,,,,605.4340000119118,,response,,,,100,,,,,,,Space,keypress(Space),,,,,,,,-- --- ---- --- ------ ----- ------- much -- --- ------- --<br>------- ---------- ------ -- ----- -- ----- -- ---- ------<br>--- ----- --- --- ------ -------- ----- --- ------ ----- --<br>----- ----- ---------- --- --- ------ ------ ---- -- ------<br>------- --- ------ ----- --- ---- ------- -- ---- --- --<br>------- ------,215940.70000001788,215939.30000001192,215315.238,215329.90000000596,215333.866,215944.889,,7,much
screen,html.Screen,2_1_1_1_8,2022-02-15T13:01:51.582Z,,,,,,,,,,,,,,,,,54,,,,,,,,,,,,,,414.6110000000044,,response,,,,100,,,,,,,Space,keypress(Space),,,,,,,,-- --- ---- --- ------ ----- ------- ---- of --- ------- --<br>------- ---------- ------ -- ----- -- ----- -- ---- ------<br>--- ----- --- --- ------ -------- ----- --- ------ ----- --<br>----- ----- ---------- --- --- ------ ------ ---- -- ------<br>------- --- ------ ----- --- ---- ------- -- ---- --- --<br>------- ------,216360.70000001788,216359.5,215934.165,215940.80000001192,215944.889,216364.575,,8,of
screen,html.Screen,2_1_1_1_9,2022-02-15T13:01:51.971Z,,,,,,,,,,,,,,,,,54,,,,,,,,,,,,,,383.62500001786975,,response,,,,100,,,,,,,Space,keypress(Space),,,,,,,,-- --- ---- --- ------ ----- ------- ---- -- its ------- --<br>------- ---------- ------ -- ----- -- ----- -- ---- ------<br>--- ----- --- --- ------ -------- ----- --- ------ ----- --<br>----- ----- ---------- --- --- ------ ------ ---- -- ------<br>------- --- ------ ----- --- ---- ------- -- ---- --- --<br>------- ------,216749.70000001788,216748.20000001788,216345.015,216360.80000001192,216364.575,216753.957,,9,its
screen,html.Screen,2_1_1_1_10,2022-02-15T13:01:53.204Z,,,,,,,,,,,,,,,,,54,,,,,,,,,,,,,,1227.6429999940447,,response,,,,100,,,,,,,Space,keypress(Space),,,,,,,,-- --- ---- --- ------ ----- ------- ---- -- --- revenue --<br>------- ---------- ------ -- ----- -- ----- -- ---- ------<br>--- ----- --- --- ------ -------- ----- --- ------ ----- --<br>----- ----- ---------- --- --- ------ ------ ---- -- ------<br>------- --- ------ ----- --- ---- ------- -- ---- --- --<br>------- ------,217982.70000001788,217981.59999999404,216748.197,216750,216753.957,217986.733,,10,revenue
screen,html.Screen,2_1_1_1_11,2022-02-15T13:01:53.751Z,,,,,,,,,,,,,,,,,54,,,,,,,,,,,,,,540.5670000119135,,response,,,,100,,,,,,,Space,keypress(Space),,,,,,,,-- --- ---- --- ------ ----- ------- ---- -- --- ------- by<br>------- ---------- ------ -- ----- -- ----- -- ---- ------<br>--- ----- --- --- ------ -------- ----- --- ------ ----- --<br>----- ----- ---------- --- --- ------ ------ ---- -- ------<br>------- --- ------ ----- --- ---- ------- -- ---- --- --<br>------- ------,218528.90000000596,218527.30000001192,217970.768,217982.80000001192,217986.733,218533.075,,11,by
screen,html.Screen,2_1_1_1_12,2022-02-15T13:01:54.434Z,,,,,,,,,,,,,,,,,54,,,,,,,,,,,,,,678.0249999940279,,response,,,,100,,,,,,,Space,keypress(Space),,,,,,,,-- --- ---- --- ------ ----- ------- ---- -- --- ------- --<br>issuing ---------- ------ -- ----- -- ----- -- ---- ------<br>--- ----- --- --- ------ -------- ----- --- ------ ----- --<br>----- ----- ---------- --- --- ------ ------ ---- -- ------<br>------- --- ------ ----- --- ---- ------- -- ---- --- --<br>------- ------,219212.30000001192,219211.09999999404,218520.258,218529.09999999404,218533.075,219222.752,,12,issuing
screen,html.Screen,2_1_1_1_13,2022-02-15T13:01:55.305Z,,,,,,,,,,,,,,,,,54,,,,,,,,,,,,,,859.6480000059528,,response,,,,100,,,,,,,Space,keypress(Space),,,,,,,,-- --- ---- --- ------ ----- ------- ---- -- --- ------- --<br>------- government ------ -- ----- -- ----- -- ---- ------<br>--- ----- --- --- ------ -------- ----- --- ------ ----- --<br>----- ----- ---------- --- --- ------ ------ ---- -- ------<br>------- --- ------ ----- --- ---- ------- -- ---- --- --<br>------- ------,220083.5,220082.40000000596,219199.997,219212.40000000596,219222.752,220087.857,,13,government
screen,html.Screen,2_1_1_1_14,2022-02-15T13:01:56.520Z,,,,,,,,,,,,,,,,,54,,,,,,,,,,,,,,1209.643000000011,,response,,,,100,,,,,,,Space,keypress(Space),,,,,,,,-- --- ---- --- ------ ----- ------- ---- -- --- ------- --<br>------- ---------- bonds. -- ----- -- ----- -- ---- ------<br>--- ----- --- --- ------ -------- ----- --- ------ ----- --<br>----- ----- ---------- --- --- ------ ------ ---- -- ------<br>------- --- ------ ----- --- ---- ------- -- ---- --- --<br>------- ------,221298.80000001192,221297.5,220072.413,220083.80000001192,220087.857,221302.808,,14,bonds.
screen,html.Screen,2_1_1_1_15,2022-02-15T13:01:57.166Z,,,,,,,,,,,,,,,,,54,,,,,,,,,,,,,,639.69200000001,,response,,,,100,,,,,,,Space,keypress(Space),,,,,,,,-- --- ---- --- ------ ----- ------- ---- -- --- ------- --<br>------- ---------- ------ In ----- -- ----- -- ---- ------<br>--- ----- --- --- ------ -------- ----- --- ------ ----- --<br>----- ----- ---------- --- --- ------ ------ ---- -- ------<br>------- --- ------ ----- --- ---- ------- -- ---- --- --<br>------- ------,221943.80000001192,221942.5,221287.964,221299,221302.808,221947.931,,15,In
screen,html.Screen,2_1_1_1_16,2022-02-15T13:01:59.710Z,,,,,,,,,,,,,,,,,54,,,,,,,,,,,,,,2538.469000005949,,response,,,,100,,,,,,,Space,keypress(Space),,,,,,,,"-- --- ---- --- ------ ----- ------- ---- -- --- ------- --<br>------- ---------- ------ -- 1727, -- ----- -- ---- ------<br>--- ----- --- --- ------ -------- ----- --- ------ ----- --<br>----- ----- ---------- --- --- ------ ------ ---- -- ------<br>------- --- ------ ----- --- ---- ------- -- ---- --- --<br>------- ------",224487.90000000596,224486.40000000596,221936.389,221944,221947.931,224492.048,,16,"1727,"
screen,html.Screen,2_1_1_1_17,2022-02-15T13:02:00.163Z,,,,,,,,,,,,,,,,,54,,,,,,,,,,,,,,448.3520000059507,,response,,,,100,,,,,,,Space,keypress(Space),,,,,,,,-- --- ---- --- ------ ----- ------- ---- -- --- ------- --<br>------- ---------- ------ -- ----- in ----- -- ---- ------<br>--- ----- --- --- ------ -------- ----- --- ------ ----- --<br>----- ----- ---------- --- --- ------ ------ ---- -- ------<br>------- --- ------ ----- --- ---- ------- -- ---- --- --<br>------- ------,224941.70000001788,224940.40000000596,224480.986,224488.09999999404,224492.048,224945.885,,17,in
screen,html.Screen,2_1_1_1_18,2022-02-15T13:02:00.895Z,,,,,,,,,,,,,,,,,54,,,,,,,,,,,,,,726.5150000059512,,response,,,,100,,,,,,,Space,keypress(Space),,,,,,,,-- --- ---- --- ------ ----- ------- ---- -- --- ------- --<br>------- ---------- ------ -- ----- -- order -- ---- ------<br>--- ----- --- --- ------ -------- ----- --- ------ ----- --<br>----- ----- ---------- --- --- ------ ------ ---- -- ------<br>------- --- ------ ----- --- ---- ------- -- ---- --- --<br>------- ------,225673.70000001788,225672.40000000596,224942.322,224942,224945.885,225681.077,,18,order
screen,html.Screen,2_1_1_1_19,2022-02-15T13:02:01.334Z,,,,,,,,,,,,,,,,,54,,,,,,,,,,,,,,429.2230000119307,,response,,,,100,,,,,,,Space,keypress(Space),,,,,,,,-- --- ---- --- ------ ----- ------- ---- -- --- ------- --<br>------- ---------- ------ -- ----- -- ----- to ---- ------<br>--- ----- --- --- ------ -------- ----- --- ------ ----- --<br>----- ----- ---------- --- --- ------ ------ ---- -- ------<br>------- --- ------ ----- --- ---- ------- -- ---- --- --<br>------- ------,226111.80000001192,226110.30000001192,225662.865,225673.90000000596,225681.077,226115.973,,19,to
screen,html.Screen,2_1_1_1_20,2022-02-15T13:02:01.876Z,,,,,,,,,,,,,,,,,54,,,,,,,,,,,,,,537.3270000119228,,response,,,,100,,,,,,,Space,keypress(Space),,,,,,,,-- --- ---- --- ------ ----- ------- ---- -- --- ------- --<br>------- ---------- ------ -- ----- -- ----- -- save ------<br>--- ----- --- --- ------ -------- ----- --- ------ ----- --<br>----- ----- ---------- --- --- ------ ------ ---- -- ------<br>------- --- ------ ----- --- ---- ------- -- ---- --- --<br>------- ------,226654.40000000596,226653.30000001192,226098.044,226112,226115.973,226658.328,,20,save
screen,html.Screen,2_1_1_1_21,2022-02-15T13:02:02.631Z,,,,,,,,,,,,,,,,,54,,,,,,,,,,,,,,750.1719999999914,,response,,,,100,,,,,,,Space,keypress(Space),,,,,,,,"-- --- ---- --- ------ ----- ------- ---- -- --- ------- --<br>------- ---------- ------ -- ----- -- ----- -- ---- money,<br>--- ----- --- --- ------ -------- ----- --- ------ ----- --<br>----- ----- ---------- --- --- ------ ------ ---- -- ------<br>------- --- ------ ----- --- ---- ------- -- ---- --- --<br>------- ------",227409.30000001192,227408.5,226649.709,226654.59999999404,226658.328,227412.891,,21,"money,"
screen,html.Screen,2_1_1_1_22,2022-02-15T13:02:03.118Z,,,,,,,,,,,,,,,,,54,,,,,,,,,,,,,,482.80900001787813,,response,,,,100,,,,,,,Space,keypress(Space),,,,,,,,-- --- ---- --- ------ ----- ------- ---- -- --- ------- --<br>------- ---------- ------ -- ----- -- ----- -- ---- ------<br>the ----- --- --- ------ -------- ----- --- ------ ----- --<br>----- ----- ---------- --- --- ------ ------ ---- -- ------<br>------- --- ------ ----- --- ---- ------- -- ---- --- --<br>------- ------,227896.59999999404,227895.70000001788,227408.612,227409.30000001192,227412.891,227900.719,,22,the
screen,html.Screen,2_1_1_1_23,2022-02-15T13:02:03.825Z,,,,,,,,,,,,,,,,,54,,,,,,,,,,,,,,701.9810000178695,,response,,,,100,,,,,,,Space,keypress(Space),,,,,,,,-- --- ---- --- ------ ----- ------- ---- -- --- ------- --<br>------- ---------- ------ -- ----- -- ----- -- ---- ------<br>--- state --- --- ------ -------- ----- --- ------ ----- --<br>----- ----- ---------- --- --- ------ ------ ---- -- ------<br>------- --- ------ ----- --- ---- ------- -- ---- --- --<br>------- ------,228603.40000000596,228602.70000001788,227896.271,227896.80000001192,227900.719,228607.274,,23,state
screen,html.Screen,2_1_1_1_24,2022-02-15T13:02:04.323Z,,,,,,,,,,,,,,,,,54,,,,,,,,,,,,,,493.32599999403465,,response,,,,100,,,,,,,Space,keypress(Space),,,,,,,,-- --- ---- --- ------ ----- ------- ---- -- --- ------- --<br>------- ---------- ------ -- ----- -- ----- -- ---- ------<br>--- ----- cut --- ------ -------- ----- --- ------ ----- --<br>----- ----- ---------- --- --- ------ ------ ---- -- ------<br>------- --- ------ ----- --- ---- ------- -- ---- --- --<br>------- ------,229101.59999999404,229100.59999999404,228600.984,228603.70000001788,228607.274,229105.276,,24,cut
screen,html.Screen,2_1_1_1_25,2022-02-15T13:02:04.799Z,,,,,,,,,,,,,,,,,54,,,,,,,,,,,,,,471.32399999402696,,response,,,,100,,,,,,,Space,keypress(Space),,,,,,,,-- --- ---- --- ------ ----- ------- ---- -- --- ------- --<br>------- ---------- ------ -- ----- -- ----- -- ---- ------<br>--- ----- --- the ------ -------- ----- --- ------ ----- --<br>----- ----- ---------- --- --- ------ ------ ---- -- ------<br>------- --- ------ ----- --- ---- ------- -- ---- --- --<br>------- ------,229577.40000000596,229576.59999999404,229090.643,229101.59999999404,229105.276,229580.944,,25,the
screen,html.Screen,2_1_1_1_26,2022-02-15T13:02:05.690Z,,,,,,,,,,,,,,,,,54,,,,,,,,,,,,,,886.5560000000114,,response,,,,100,,,,,,,Space,keypress(Space),,,,,,,,-- --- ---- --- ------ ----- ------- ---- -- --- ------- --<br>------- ---------- ------ -- ----- -- ----- -- ---- ------<br>--- ----- --- --- bonds' -------- ----- --- ------ ----- --<br>----- ----- ---------- --- --- ------ ------ ---- -- ------<br>------- --- ------ ----- --- ---- ------- -- ---- --- --<br>------- ------,230468.70000001788,230467.5,229571.867,229577.5,229580.944,230472.816,,26,bonds'
screen,html.Screen,2_1_1_1_27,2022-02-15T13:02:06.194Z,,,,,,,,,,,,,,,,,54,,,,,,,,,,,,,,498.3840000178898,,response,,,,100,,,,,,,Space,keypress(Space),,,,,,,,-- --- ---- --- ------ ----- ------- ---- -- --- ------- --<br>------- ---------- ------ -- ----- -- ----- -- ---- ------<br>--- ----- --- --- ------ interest ----- --- ------ ----- --<br>----- ----- ---------- --- --- ------ ------ ---- -- ------<br>------- --- ------ ----- --- ---- ------- -- ---- --- --<br>------- ------,230972.40000000596,230971.20000001788,230464.537,230468.90000000596,230472.816,230976.52,,27,interest
screen,html.Screen,2_1_1_1_28,2022-02-15T13:02:07.362Z,,,,,,,,,,,,,,,,,54,,,,,,,,,,,,,,1162.9800000000105,,response,,,,100,,,,,,,Space,keypress(Space),,,,,,,,-- --- ---- --- ------ ----- ------- ---- -- --- ------- --<br>------- ---------- ------ -- ----- -- ----- -- ---- ------<br>--- ----- --- --- ------ -------- rate. --- ------ ----- --<br>----- ----- ---------- --- --- ------ ------ ---- -- ------<br>------- --- ------ ----- --- ---- ------- -- ---- --- --<br>------- ------,232140.70000001788,232139.5,230973.063,230972.59999999404,230976.52,232144.795,,28,rate.
screen,html.Screen,2_1_1_1_29,2022-02-15T13:02:07.810Z,,,,,,,,,,,,,,,,,54,,,,,,,,,,,,,,442.30499999402673,,response,,,,100,,,,,,,Space,keypress(Space),,,,,,,,-- --- ---- --- ------ ----- ------- ---- -- --- ------- --<br>------- ---------- ------ -- ----- -- ----- -- ---- ------<br>--- ----- --- --- ------ -------- ----- The ------ ----- --<br>----- ----- ---------- --- --- ------ ------ ---- -- ------<br>------- --- ------ ----- --- ---- ------- -- ---- --- --<br>------- ------,232588.40000000596,232587.09999999404,232126.699,232140.80000001192,232144.795,232592.425,,29,The
screen,html.Screen,2_1_1_1_30,2022-02-15T13:02:08.393Z,,,,,,,,,,,,,,,,,54,,,,,,,,,,,,,,577.775000017893,,response,,,,100,,,,,,,Space,keypress(Space),,,,,,,,-- --- ---- --- ------ ----- ------- ---- -- --- ------- --<br>------- ---------- ------ -- ----- -- ----- -- ---- ------<br>--- ----- --- --- ------ -------- ----- --- market ----- --<br>----- ----- ---------- --- --- ------ ------ ---- -- ------<br>------- --- ------ ----- --- ---- ------- -- ---- --- --<br>------- ------,233171.40000000596,233170.20000001788,232578.51,232588.59999999404,232592.425,233175.338,,30,market
screen,html.Screen,2_1_1_1_31,2022-02-15T13:02:08.952Z,,,,,,,,,,,,,,,,,54,,,,,,,,,,,,,,553.0620000059716,,response,,,,100,,,,,,,Space,keypress(Space),,,,,,,,-- --- ---- --- ------ ----- ------- ---- -- --- ------- --<br>------- ---------- ------ -- ----- -- ----- -- ---- ------<br>--- ----- --- --- ------ -------- ----- --- ------ value --<br>----- ----- ---------- --- --- ------ ------ ---- -- ------<br>------- --- ------ ----- --- ---- ------- -- ---- --- --<br>------- ------,233730,233728.40000000596,233159.338,233171.59999999404,233175.338,233734.102,,31,value
screen,html.Screen,2_1_1_1_32,2022-02-15T13:02:09.464Z,,,,,,,,,,,,,,,,,54,,,,,,,,,,,,,,507.29800000594696,,response,,,,100,,,,,,,Space,keypress(Space),,,,,,,,-- --- ---- --- ------ ----- ------- ---- -- --- ------- --<br>------- ---------- ------ -- ----- -- ----- -- ---- ------<br>--- ----- --- --- ------ -------- ----- --- ------ ----- of<br>----- ----- ---------- --- --- ------ ------ ---- -- ------<br>------- --- ------ ----- --- ---- ------- -- ---- --- --<br>------- ------,234242.5,234241.40000000596,233725.615,233730.20000001788,233734.102,234246.866,,32,of
screen,html.Screen,2_1_1_1_33,2022-02-15T13:02:10.137Z,,,,,,,,,,,,,,,,,54,,,,,,,,,,,,,,667.5340000059514,,response,,,,100,,,,,,,Space,keypress(Space),,,,,,,,-- --- ---- --- ------ ----- ------- ---- -- --- ------- --<br>------- ---------- ------ -- ----- -- ----- -- ---- ------<br>--- ----- --- --- ------ -------- ----- --- ------ ----- --<br>these ----- ---------- --- --- ------ ------ ---- -- ------<br>------- --- ------ ----- --- ---- ------- -- ---- --- --<br>------- ------,234915.70000001788,234914.40000000596,234234.43,234242.70000001788,234246.866,234919.78,,33,these
screen,html.Screen,2_1_1_1_34,2022-02-15T13:02:10.745Z,,,,,,,,,,,,,,,,,54,,,,,,,,,,,,,,602.3199999940407,,response,,,,100,,,,,,,Space,keypress(Space),,,,,,,,-- --- ---- --- ------ ----- ------- ---- -- --- ------- --<br>------- ---------- ------ -- ----- -- ----- -- ---- ------<br>--- ----- --- --- ------ -------- ----- --- ------ ----- --<br>----- bonds ---------- --- --- ------ ------ ---- -- ------<br>------- --- ------ ----- --- ---- ------- -- ---- --- --<br>------- ------,235523.20000001788,235522.09999999404,234913.874,234915.90000000596,234919.78,235527.445,,34,bonds
screen,html.Screen,2_1_1_1_35,2022-02-15T13:02:12.312Z,,,,,,,,,,,,,,,,,54,,,,,,,,,,,,,,1561.9550000059535,,response,,,,100,,,,,,,Space,keypress(Space),,,,,,,,"-- --- ---- --- ------ ----- ------- ---- -- --- ------- --<br>------- ---------- ------ -- ----- -- ----- -- ---- ------<br>--- ----- --- --- ------ -------- ----- --- ------ ----- --<br>----- ----- plummeted, --- --- ------ ------ ---- -- ------<br>------- --- ------ ----- --- ---- ------- -- ---- --- --<br>------- ------",237090.70000001788,237089.40000000596,235520.094,235523.5,235527.445,237095.009,,35,"plummeted,"
screen,html.Screen,2_1_1_1_36,2022-02-15T13:02:13.901Z,,,,,,,,,,,,,,,,,54,,,,,,,,,,,,,,1583.1910000178905,,response,,,,100,,,,,,,Space,keypress(Space),,,,,,,,-- --- ---- --- ------ ----- ------- ---- -- --- ------- --<br>------- ---------- ------ -- ----- -- ----- -- ---- ------<br>--- ----- --- --- ------ -------- ----- --- ------ ----- --<br>----- ----- ---------- and --- ------ ------ ---- -- ------<br>------- --- ------ ----- --- ---- ------- -- ---- --- --<br>------- ------,238679.59999999404,238678.20000001788,237077.499,237090.80000001192,237095.009,238683.793,,36,and
screen,html.Screen,2_1_1_1_37,2022-02-15T13:02:14.325Z,,,,,,,,,,,,,,,,,54,,,,,,,,,,,,,,418.60700000595534,,response,,,,100,,,,,,,Space,keypress(Space),,,,,,,,-- --- ---- --- ------ ----- ------- ---- -- --- ------- --<br>------- ---------- ------ -- ----- -- ----- -- ---- ------<br>--- ----- --- --- ------ -------- ----- --- ------ ----- --<br>----- ----- ---------- --- the ------ ------ ---- -- ------<br>------- --- ------ ----- --- ---- ------- -- ---- --- --<br>------- ------,239103.59999999404,239102.40000000596,238678.483,238679.70000001788,238683.793,239107.943,,37,the
screen,html.Screen,2_1_1_1_38,2022-02-15T13:02:14.811Z,,,,,,,,,,,,,,,,,54,,,,,,,,,,,,,,480.2570000178821,,response,,,,100,,,,,,,Space,keypress(Space),,,,,,,,-- --- ---- --- ------ ----- ------- ---- -- --- ------- --<br>------- ---------- ------ -- ----- -- ----- -- ---- ------<br>--- ----- --- --- ------ -------- ----- --- ------ ----- --<br>----- ----- ---------- --- --- market ------ ---- -- ------<br>------- --- ------ ----- --- ---- ------- -- ---- --- --<br>------- ------,239589.5,239588.20000001788,239100.718,239103.90000000596,239107.943,239593.932,,38,market
screen,html.Screen,2_1_1_1_39,2022-02-15T13:02:15.444Z,,,,,,,,,,,,,,,,,54,,,,,,,,,,,,,,627.3680000119202,,response,,,,100,,,,,,,Space,keypress(Space),,,,,,,,-- --- ---- --- ------ ----- ------- ---- -- --- ------- --<br>------- ---------- ------ -- ----- -- ----- -- ---- ------<br>--- ----- --- --- ------ -------- ----- --- ------ ----- --<br>----- ----- ---------- --- --- ------ became ---- -- ------<br>------- --- ------ ----- --- ---- ------- -- ---- --- --<br>------- ------,240222.5,240221.30000001192,239574.853,239589.80000001192,239593.932,240226.862,,39,became
screen,html.Screen,2_1_1_1_40,2022-02-15T13:02:16.118Z,,,,,,,,,,,,,,,,,54,,,,,,,,,,,,,,668.1380000000063,,response,,,,100,,,,,,,Space,keypress(Space),,,,,,,,-- --- ---- --- ------ ----- ------- ---- -- --- ------- --<br>------- ---------- ------ -- ----- -- ----- -- ---- ------<br>--- ----- --- --- ------ -------- ----- --- ------ ----- --<br>----- ----- ---------- --- --- ------ ------ wary -- ------<br>------- --- ------ ----- --- ---- ------- -- ---- --- --<br>------- ------,240896.40000000596,240895,240210.433,240222.70000001788,240226.862,240900.52,,40,wary
screen,html.Screen,2_1_1_1_41,2022-02-15T13:02:16.544Z,,,,,,,,,,,,,,,,,54,,,,,,,,,,,,,,420.57999999405,,response,,,,100,,,,,,,Space,keypress(Space),,,,,,,,-- --- ---- --- ------ ----- ------- ---- -- --- ------- --<br>------- ---------- ------ -- ----- -- ----- -- ---- ------<br>--- ----- --- --- ------ -------- ----- --- ------ ----- --<br>----- ----- ---------- --- --- ------ ------ ---- of ------<br>------- --- ------ ----- --- ---- ------- -- ---- --- --<br>------- ------,241322.40000000596,241321.09999999404,240893.682,240896.59999999404,240900.52,241326.517,,41,of
screen,html.Screen,2_1_1_1_42,2022-02-15T13:02:17.048Z,,,,,,,,,,,,,,,,,54,,,,,,,,,,,,,,498.68300001788884,,response,,,,100,,,,,,,Space,keypress(Space),,,,,,,,-- --- ---- --- ------ ----- ------- ---- -- --- ------- --<br>------- ---------- ------ -- ----- -- ----- -- ---- ------<br>--- ----- --- --- ------ -------- ----- --- ------ ----- --<br>----- ----- ---------- --- --- ------ ------ ---- -- French<br>------- --- ------ ----- --- ---- ------- -- ---- --- --<br>------- ------,241826.30000001192,241825.20000001788,241317.43,241322.5,241326.517,241830.516,,42,French
screen,html.Screen,2_1_1_1_43,2022-02-15T13:02:18.032Z,,,,,,,,,,,,,,,,,54,,,,,,,,,,,,,,978.9839999999967,,response,,,,100,,,,,,,Space,keypress(Space),,,,,,,,-- --- ---- --- ------ ----- ------- ---- -- --- ------- --<br>------- ---------- ------ -- ----- -- ----- -- ---- ------<br>--- ----- --- --- ------ -------- ----- --- ------ ----- --<br>----- ----- ---------- --- --- ------ ------ ---- -- ------<br>credit. --- ------ ----- --- ---- ------- -- ---- --- --<br>------- ------,242810.80000001192,242809.5,241826.804,241826.59999999404,241830.516,242815.041,,43,credit.
screen,html.Screen,2_1_1_1_44,2022-02-15T13:02:18.893Z,,,,,,,,,,,,,,,,,54,,,,,,,,,,,,,,855.359000005963,,response,,,,100,,,,,,,Space,keypress(Space),,,,,,,,-- --- ---- --- ------ ----- ------- ---- -- --- ------- --<br>------- ---------- ------ -- ----- -- ----- -- ---- ------<br>--- ----- --- --- ------ -------- ----- --- ------ ----- --<br>----- ----- ---------- --- --- ------ ------ ---- -- ------<br>------- The ------ ----- --- ---- ------- -- ---- --- --<br>------- ------,243671.59999999404,243670.40000000596,242797.34,242811,242815.041,243676.042,,44,The
screen,html.Screen,2_1_1_1_45,2022-02-15T13:02:19.444Z,,,,,,,,,,,,,,,,,54,,,,,,,,,,,,,,545.2580000119342,,response,,,,100,,,,,,,Space,keypress(Space),,,,,,,,-- --- ---- --- ------ ----- ------- ---- -- --- ------- --<br>------- ---------- ------ -- ----- -- ----- -- ---- ------<br>--- ----- --- --- ------ -------- ----- --- ------ ----- --<br>----- ----- ---------- --- --- ------ ------ ---- -- ------<br>------- --- French ----- --- ---- ------- -- ---- --- --<br>------- ------,244222.5,244221.30000001192,243665.239,243671.90000000596,243676.042,244226.829,,45,French
screen,html.Screen,2_1_1_1_46,2022-02-15T13:02:19.934Z,,,,,,,,,,,,,,,,,54,,,,,,,,,,,,,,484.57100000596256,,response,,,,100,,,,,,,Space,keypress(Space),,,,,,,,-- --- ---- --- ------ ----- ------- ---- -- --- ------- --<br>------- ---------- ------ -- ----- -- ----- -- ---- ------<br>--- ----- --- --- ------ -------- ----- --- ------ ----- --<br>----- ----- ---------- --- --- ------ ------ ---- -- ------<br>------- --- ------ state --- ---- ------- -- ---- --- --<br>------- ------,244712.59999999404,244711.40000000596,244209.491,244222.70000001788,244226.829,244716.7,,46,state
screen,html.Screen,2_1_1_1_47,2022-02-15T13:02:20.533Z,,,,,,,,,,,,,,,,,54,,,,,,,,,,,,,,593.6000000119093,,response,,,,100,,,,,,,Space,keypress(Space),,,,,,,,-- --- ---- --- ------ ----- ------- ---- -- --- ------- --<br>------- ---------- ------ -- ----- -- ----- -- ---- ------<br>--- ----- --- --- ------ -------- ----- --- ------ ----- --<br>----- ----- ---------- --- --- ------ ------ ---- -- ------<br>------- --- ------ ----- was ---- ------- -- ---- --- --<br>------- ------,245311.59999999404,245310.30000001192,244710.437,244712.70000001788,244716.7,245315.538,,47,was
screen,html.Screen,2_1_1_1_48,2022-02-15T13:02:20.961Z,,,,,,,,,,,,,,,,,54,,,,,,,,,,,,,,422.56199999403907,,response,,,,100,,,,,,,Space,keypress(Space),,,,,,,,-- --- ---- --- ------ ----- ------- ---- -- --- ------- --<br>------- ---------- ------ -- ----- -- ----- -- ---- ------<br>--- ----- --- --- ------ -------- ----- --- ------ ----- --<br>----- ----- ---------- --- --- ------ ------ ---- -- ------<br>------- --- ------ ----- --- left ------- -- ---- --- --<br>------- ------,245739.20000001788,245738.09999999404,245300.2,245311.80000001192,245315.538,245743.292,,48,left
screen,html.Screen,2_1_1_1_49,2022-02-15T13:02:21.610Z,,,,,,,,,,,,,,,,,54,,,,,,,,,,,,,,643.9080000178947,,response,,,,100,,,,,,,Space,keypress(Space),,,,,,,,-- --- ---- --- ------ ----- ------- ---- -- --- ------- --<br>------- ---------- ------ -- ----- -- ----- -- ---- ------<br>--- ----- --- --- ------ -------- ----- --- ------ ----- --<br>----- ----- ---------- --- --- ------ ------ ---- -- ------<br>------- --- ------ ----- --- ---- without -- ---- --- --<br>------- ------,246388.30000001192,246387.20000001788,245732.479,245739.40000000596,245743.292,246392.293,,49,without
screen,html.Screen,2_1_1_1_50,2022-02-15T13:02:21.987Z,,,,,,,,,,,,,,,,,54,,,,,,,,,,,,,,372.10700000595534,,response,,,,100,,,,,,,Space,keypress(Space),,,,,,,,-- --- ---- --- ------ ----- ------- ---- -- --- ------- --<br>------- ---------- ------ -- ----- -- ----- -- ---- ------<br>--- ----- --- --- ------ -------- ----- --- ------ ----- --<br>----- ----- ---------- --- --- ------ ------ ---- -- ------<br>------- --- ------ ----- --- ---- ------- an ---- --- --<br>------- ------,246765.59999999404,246764.40000000596,246376.513,246388.40000000596,246392.293,246769.896,,50,an
screen,html.Screen,2_1_1_1_51,2022-02-15T13:02:22.429Z,,,,,,,,,,,,,,,,,54,,,,,,,,,,,,,,436.6039999999921,,response,,,,100,,,,,,,Space,keypress(Space),,,,,,,,-- --- ---- --- ------ ----- ------- ---- -- --- ------- --<br>------- ---------- ------ -- ----- -- ----- -- ---- ------<br>--- ----- --- --- ------ -------- ----- --- ------ ----- --<br>----- ----- ---------- --- --- ------ ------ ---- -- ------<br>------- --- ------ ----- --- ---- ------- -- easy --- --<br>------- ------,247207.70000001788,247206.5,246759.282,246765.80000001192,246769.896,247211.845,,51,easy
screen,html.Screen,2_1_1_1_52,2022-02-15T13:02:22.819Z,,,,,,,,,,,,,,,,,54,,,,,,,,,,,,,,384.35500001788023,,response,,,,100,,,,,,,Space,keypress(Space),,,,,,,,-- --- ---- --- ------ ----- ------- ---- -- --- ------- --<br>------- ---------- ------ -- ----- -- ----- -- ---- ------<br>--- ----- --- --- ------ -------- ----- --- ------ ----- --<br>----- ----- ---------- --- --- ------ ------ ---- -- ------<br>------- --- ------ ----- --- ---- ------- -- ---- way --<br>------- ------,247597.5,247596.20000001788,247203.634,247207.80000001192,247211.845,247601.741,,52,way
screen,html.Screen,2_1_1_1_53,2022-02-15T13:02:23.202Z,,,,,,,,,,,,,,,,,54,,,,,,,,,,,,,,377.55900001191185,,response,,,,100,,,,,,,Space,keypress(Space),,,,,,,,-- --- ---- --- ------ ----- ------- ---- -- --- ------- --<br>------- ---------- ------ -- ----- -- ----- -- ---- ------<br>--- ----- --- --- ------ -------- ----- --- ------ ----- --<br>----- ----- ---------- --- --- ------ ------ ---- -- ------<br>------- --- ------ ----- --- ---- ------- -- ---- --- of<br>------- ------,247980.59999999404,247979.30000001192,247595.455,247597.70000001788,247601.741,247984.866,,53,of
screen,html.Screen,2_1_1_1_54,2022-02-15T13:02:23.813Z,,,,,,,,,,,,,,,,,54,,,,,,,,,,,,,,605.6339999999909,,response,,,,100,,,,,,,Space,keypress(Space),,,,,,,,-- --- ---- --- ------ ----- ------- ---- -- --- ------- --<br>------- ---------- ------ -- ----- -- ----- -- ---- ------<br>--- ----- --- --- ------ -------- ----- --- ------ ----- --<br>----- ----- ---------- --- --- ------ ------ ---- -- ------<br>------- --- ------ ----- --- ---- ------- -- ---- --- --<br>raising ------,248591.70000001788,248590.5,247968.71,247980.90000000596,247984.866,248596.068,,54,raising
screen,html.Screen,2_1_1_1_55,2022-02-15T13:02:24.357Z,,,,,,,,,,,,,,,,,54,,,,,,,,,,,,,,538.2320000119216,,response,,,,100,,,,,,,Space,keypress(Space),,,,,,,,-- --- ---- --- ------ ----- ------- ---- -- --- ------- --<br>------- ---------- ------ -- ----- -- ----- -- ---- ------<br>--- ----- --- --- ------ -------- ----- --- ------ ----- --<br>----- ----- ---------- --- --- ------ ------ ---- -- ------<br>------- --- ------ ----- --- ---- ------- -- ---- --- --<br>------- money.,249135.5,249134.30000001192,248585.145,248591.90000000596,248596.068,249139.934,,55,money.
Item 100,flow.Loop,2_1_1_1,2022-02-15T13:02:24.358Z,,,,,,,,,,,,,,,,,,,,,,,,,,,,,,,39261.11600001191,,completion,,,,,E,,,,,,,,,,,silence,,,,,249135.80000001192,249134.30000001192,209856.554,209857.90000000596,209873.184,249139.934,,,
Question 1,html.Screen,2_1_1_2,2022-02-15T13:02:30.457Z,,,,,,,,,,,,,,,,,,,,,,,,,,,,true,TRUE,,6091.466000005952,,response,,,,100,E,,,,,,TRUE,click #choice-1,,,,silence,,,,,255235,255231.40000000596,249129.702,249136,249139.934,255268.001,,,
Question 2,html.Screen,2_1_1_3,2022-02-15T13:02:35.375Z,,,,,,,,,,,,,,,,,,,,,,,,,,,,true,FALSE,,4882.999000000011,,response,,,,100,E,,,,,,FALSE,click #choice-2,,,,silence,,,,,260152.80000001192,260151,255251.345,255235.30000001192,255268.001,260153.98,,,
Item 100,flow.Sequence,2_1_1,2022-02-15T13:02:35.376Z,,,,,,,,,,,,,,,,,,,,,,,,,,,,,,,60285.28099999999,,completion,,,,,,,,,,,,,,,,,,,,,260153.09999999404,260151,199859.261,199865.5,199865.719,260153.98,,,
End of Practice,html.Page,2_1_2,2022-02-15T13:02:39.503Z,,,,,,,,,,,,,,,,,,,,,,,,,,,,,,,4125.619999994029,,form submission,,,,,,,,,,,,,,,,,,,,,264280.2000000179,264279.59999999404,260141.21,260153.30000001192,260153.98,264280,,,
Practice,flow.Sequence,2_1,2022-02-15T13:02:39.503Z,,,,,,,,,,,,,,,,,,,,,,,,,,,,,,,124423.26399999403,,completion,,,,,,,,,,,,,,,,,,,,,264280.7000000179,264279.59999999404,139820.791,139827.59999999404,139856.336,264280,,,
Trap_instruction,html.Page,2_2_0,2022-02-15T13:02:44.316Z,,,,,,,,,,,,,,,,,,,,,,,,,,,,,,,4812.5,,form submission,,,,,,,,,,,,,,,,,,,,,269092.90000000596,269092.5,264263.019,264280.8000000119,264280,269110.12,,,
trap_trial,html.Screen,2_2_1,2022-02-15T13:02:47.688Z,,,,,,,,,,,,,,,,,,,,,,,,,,,,true,1,,3352.479999994044,,response,,,,,,,,,,,1,click #choice-1,,,,,,,,,272465,272462.59999999404,269078.005,269093.09999999404,269110.12,272465.618,,,
end of trap trial,html.Page,2_2_2,2022-02-15T13:02:49.661Z,,,,,,,,,,,,,,,,,,,,,,,,,,,,,,,1972.0820000178646,,form submission,,,,,,,,,,,,,,,,,,,,,274438.3000000119,274437.7000000179,272461.159,272465.2000000179,272465.618,274437.362,,,
Trap 1,flow.Sequence,2_2,2022-02-15T13:02:49.661Z,,,,,,,,,,,,,,,,,,,,,,,,,,,,,,,10157.700000017881,,completion,,,,,,,,,,,,,,,,,,,,,274438.7000000179,274437.7000000179,264263.019,264280.7000000179,264280,274437.362,,,
Standby,html.Page,2_3_0,2022-02-15T13:02:57.641Z,,,,,,,,,,,,,,,,,,,,,,,,,,,,,,,7995.815999999992,,timeout,,,,,,,,,,,,,,,,,,,,,282418.40000000596,282416.806,274420.781,274439,274437.362,282433.178,,,
Holding screen,html.Screen,2_3_1_0_0,2022-02-15T13:03:04.641Z,,,,,,,,,,,,,,,,,,,,,,,,,,,,,,,7000.746999999974,,timeout,,,,,,,,,,,,,,,,,,,,,289418.40000000596,289417.011,282416.806,282418.59999999404,282433.178,289433.925,,,
screen,html.Screen,2_3_1_0_1_0,2022-02-15T13:03:07.093Z,,,,,,,,,,,,,,,,,15,,,,,,,,,,,,,,2434.0750000000116,,response,,,,7,E,,,,,,Space,keypress(Space),,,,lyrical,,,,Greg --------- ---------- - --- ------- -- --- ------------<br>----- -- -------- ------- ---- ------ - -------- ---- -----<br>--- ------- ---- -- --- -------- --- - ----- ------ ---- --<br>-------- --- -------- -------- --- -------- ---- -- ----- -<br>-------- ---- --- ---------- --------- -- ------- ------ -<br>--------- ----- -----,291869.90000000596,291868,289417.011,289418.7000000179,289433.925,291872.382,,0,Greg
screen,html.Screen,2_3_1_0_1_1,2022-02-15T13:03:08.378Z,,,,,,,,,,,,,,,,,15,,,,,,,,,,,,,,1281.9180000119377,,response,,,,7,E,,,,,,Space,keypress(Space),,,,lyrical,,,,"---- Anderson, ---------- - --- ------- -- --- ------------<br>----- -- -------- ------- ---- ------ - -------- ---- -----<br>--- ------- ---- -- --- -------- --- - ----- ------ ---- --<br>-------- --- -------- -------- --- -------- ---- -- ----- -<br>-------- ---- --- ---------- --------- -- ------- ------ -<br>--------- ----- -----",293155.5,293154.3000000119,291866.595,291870.09999999404,291872.382,293159.937,,1,"Anderson,"
screen,html.Screen,2_3_1_0_1_2,2022-02-15T13:03:09.403Z,,,,,,,,,,,,,,,,,15,,,,,,,,,,,,,,1019.3630000119447,,response,,,,7,E,,,,,,Space,keypress(Space),,,,lyrical,,,,---- --------- considered - --- ------- -- --- ------------<br>----- -- -------- ------- ---- ------ - -------- ---- -----<br>--- ------- ---- -- --- -------- --- - ----- ------ ---- --<br>-------- --- -------- -------- --- -------- ---- -- ----- -<br>-------- ---- --- ---------- --------- -- ------- ------ -<br>--------- ----- -----,294180.40000000596,294179.3000000119,293155.51,293155.7000000179,293159.937,294184.882,,2,considered
screen,html.Screen,2_3_1_0_1_3,2022-02-15T13:03:09.869Z,,,,,,,,,,,,,,,,,15,,,,,,,,,,,,,,460.31800001789816,,response,,,,7,E,,,,,,Space,keypress(Space),,,,lyrical,,,,---- --------- ---------- a --- ------- -- --- ------------<br>----- -- -------- ------- ---- ------ - -------- ---- -----<br>--- ------- ---- -- --- -------- --- - ----- ------ ---- --<br>-------- --- -------- -------- --- -------- ---- -- ----- -<br>-------- ---- --- ---------- --------- -- ------- ------ -<br>--------- ----- -----,294646.5,294645.2000000179,294176.797,294180.59999999404,294184.882,294651.069,,3,a
screen,html.Screen,2_3_1_0_1_4,2022-02-15T13:03:10.441Z,,,,,,,,,,,,,,,,,15,,,,,,,,,,,,,,564.1310000178637,,response,,,,7,E,,,,,,Space,keypress(Space),,,,lyrical,,,,---- --------- ---------- - key ------- -- --- ------------<br>----- -- -------- ------- ---- ------ - -------- ---- -----<br>--- ------- ---- -- --- -------- --- - ----- ------ ---- --<br>-------- --- -------- -------- --- -------- ---- -- ----- -<br>-------- ---- --- ---------- --------- -- ------- ------ -<br>--------- ----- -----,295217.90000000596,295215.2000000179,294634.808,294646.7000000179,294651.069,295222.293,,4,key
screen,html.Screen,2_3_1_0_1_5,2022-02-15T13:03:11.305Z,,,,,,,,,,,,,,,,,15,,,,,,,,,,,,,,858.9070000178763,,response,,,,7,E,,,,,,Space,keypress(Space),,,,lyrical,,,,---- --------- ---------- - --- witness -- --- ------------<br>----- -- -------- ------- ---- ------ - -------- ---- -----<br>--- ------- ---- -- --- -------- --- - ----- ------ ---- --<br>-------- --- -------- -------- --- -------- ---- -- ----- -<br>-------- ---- --- ---------- --------- -- ------- ------ -<br>--------- ----- -----,296082.3000000119,296081.2000000179,295217.612,295218.2000000179,295222.293,296086.741,,5,witness
screen,html.Screen,2_3_1_0_1_6,2022-02-15T13:03:11.678Z,,,,,,,,,,,,,,,,,15,,,,,,,,,,,,,,367.4590000179014,,response,,,,7,E,,,,,,Space,keypress(Space),,,,lyrical,,,,---- --------- ---------- - --- ------- by --- ------------<br>----- -- -------- ------- ---- ------ - -------- ---- -----<br>--- ------- ---- -- --- -------- --- - ----- ------ ---- --<br>-------- --- -------- -------- --- -------- ---- -- ----- -<br>-------- ---- --- ---------- --------- -- ------- ------ -<br>--------- ----- -----,296455.59999999404,296454.2000000179,296072.274,296082.5,296086.741,296459.852,,6,by
screen,html.Screen,2_3_1_0_1_7,2022-02-15T13:03:12.039Z,,,,,,,,,,,,,,,,,15,,,,,,,,,,,,,,355.3480000178679,,response,,,,7,E,,,,,,Space,keypress(Space),,,,lyrical,,,,---- --------- ---------- - --- ------- -- the ------------<br>----- -- -------- ------- ---- ------ - -------- ---- -----<br>--- ------- ---- -- --- -------- --- - ----- ------ ---- --<br>-------- --- -------- -------- --- -------- ---- -- ----- -<br>-------- ---- --- ---------- --------- -- ------- ------ -<br>--------- ----- -----,296816.5,296815.2000000179,296453.75,296455.7000000179,296459.852,296821.175,,7,the
screen,html.Screen,2_3_1_0_1_8,2022-02-15T13:03:13.363Z,,,,,,,,,,,,,,,,,15,,,,,,,,,,,,,,1318.025000017893,,response,,,,7,E,,,,,,Space,keypress(Space),,,,lyrical,,,,"---- --------- ---------- - --- ------- -- --- prosecution,<br>----- -- -------- ------- ---- ------ - -------- ---- -----<br>--- ------- ---- -- --- -------- --- - ----- ------ ---- --<br>-------- --- -------- -------- --- -------- ---- -- ----- -<br>-------- ---- --- ---------- --------- -- ------- ------ -<br>--------- ----- -----",298140.3000000119,298139.2000000179,296810.232,296816.8000000119,296821.175,298144.55,,8,"prosecution,"
screen,html.Screen,2_3_1_0_1_9,2022-02-15T13:03:14.131Z,,,,,,,,,,,,,,,,,15,,,,,,,,,,,,,,762.8500000059721,,response,,,,7,E,,,,,,Space,keypress(Space),,,,lyrical,,,,---- --------- ---------- - --- ------- -- --- ------------<br>vowed -- -------- ------- ---- ------ - -------- ---- -----<br>--- ------- ---- -- --- -------- --- - ----- ------ ---- --<br>-------- --- -------- -------- --- -------- ---- -- ----- -<br>-------- ---- --- ---------- --------- -- ------- ------ -<br>--------- ----- -----,298908.59999999404,298907.40000000596,298137.903,298140.5,298144.55,298912.931,,9,vowed
screen,html.Screen,2_3_1_0_1_10,2022-02-15T13:03:14.702Z,,,,,,,,,,,,,,,,,15,,,,,,,,,,,,,,565.2690000178991,,response,,,,7,E,,,,,,Space,keypress(Space),,,,lyrical,,,,---- --------- ---------- - --- ------- -- --- ------------<br>----- he -------- ------- ---- ------ - -------- ---- -----<br>--- ------- ---- -- --- -------- --- - ----- ------ ---- --<br>-------- --- -------- -------- --- -------- ---- -- ----- -<br>-------- ---- --- ---------- --------- -- ------- ------ -<br>--------- ----- -----,299479.3000000119,299478.2000000179,298894.729,298908.8000000119,298912.931,299483.634,,10,he
screen,html.Screen,2_3_1_0_1_11,2022-02-15T13:03:15.608Z,,,,,,,,,,,,,,,,,15,,,,,,,,,,,,,,900.36599999998,,response,,,,7,E,,,,,,Space,keypress(Space),,,,lyrical,,,,---- --------- ---------- - --- ------- -- --- ------------<br>----- -- wouldn't ------- ---- ------ - -------- ---- -----<br>--- ------- ---- -- --- -------- --- - ----- ------ ---- --<br>-------- --- -------- -------- --- -------- ---- -- ----- -<br>-------- ---- --- ---------- --------- -- ------- ------ -<br>--------- ----- -----,300385.3000000119,300384,299480.069,299479.5,299483.634,300389.842,,11,wouldn't
screen,html.Screen,2_3_1_0_1_12,2022-02-15T13:03:16.429Z,,,,,,,,,,,,,,,,,15,,,,,,,,,,,,,,815.4580000119167,,response,,,,7,E,,,,,,Space,keypress(Space),,,,lyrical,,,,---- --------- ---------- - --- ------- -- --- ------------<br>----- -- -------- testify ---- ------ - -------- ---- -----<br>--- ------- ---- -- --- -------- --- - ----- ------ ---- --<br>-------- --- -------- -------- --- -------- ---- -- ----- -<br>-------- ---- --- ---------- --------- -- ------- ------ -<br>--------- ----- -----,301206.7000000179,301205.3000000119,300383.538,300385.5,300389.842,301211.2,,12,testify
screen,html.Screen,2_3_1_0_1_13,2022-02-15T13:03:16.861Z,,,,,,,,,,,,,,,,,15,,,,,,,,,,,,,,426.1000000119093,,response,,,,7,E,,,,,,Space,keypress(Space),,,,lyrical,,,,---- --------- ---------- - --- ------- -- --- ------------<br>----- -- -------- ------- when ------ - -------- ---- -----<br>--- ------- ---- -- --- -------- --- - ----- ------ ---- --<br>-------- --- -------- -------- --- -------- ---- -- ----- -<br>-------- ---- --- ---------- --------- -- ------- ------ -<br>--------- ----- -----,301638.59999999404,301637.3000000119,301206.792,301206.90000000596,301211.2,301642.735,,13,when
screen,html.Screen,2_3_1_0_1_14,2022-02-15T13:03:17.260Z,,,,,,,,,,,,,,,,,15,,,,,,,,,,,,,,393.66500000597443,,response,,,,7,E,,,,,,Space,keypress(Space),,,,lyrical,,,,---- --------- ---------- - --- ------- -- --- ------------<br>----- -- -------- ------- ---- served - -------- ---- -----<br>--- ------- ---- -- --- -------- --- - ----- ------ ---- --<br>-------- --- -------- -------- --- -------- ---- -- ----- -<br>-------- ---- --- ---------- --------- -- ------- ------ -<br>--------- ----- -----,302037.59999999404,302036.40000000596,301628.185,301638.8000000119,301642.735,302042.106,,14,served
screen,html.Screen,2_3_1_0_1_15,2022-02-15T13:03:17.656Z,,,,,,,,,,,,,,,,,15,,,,,,,,,,,,,,389.99399999401066,,response,,,,7,E,,,,,,Space,keypress(Space),,,,lyrical,,,,---- --------- ---------- - --- ------- -- --- ------------<br>----- -- -------- ------- ---- ------ a -------- ---- -----<br>--- ------- ---- -- --- -------- --- - ----- ------ ---- --<br>-------- --- -------- -------- --- -------- ---- -- ----- -<br>-------- ---- --- ---------- --------- -- ------- ------ -<br>--------- ----- -----,302433.3000000119,302432.09999999404,302026.561,302037.8000000119,302042.106,302437.685,,15,a
screen,html.Screen,2_3_1_0_1_16,2022-02-15T13:03:19.243Z,,,,,,,,,,,,,,,,,15,,,,,,,,,,,,,,1581.3150000000023,,response,,,,7,E,,,,,,Space,keypress(Space),,,,lyrical,,,,---- --------- ---------- - --- ------- -- --- ------------<br>----- -- -------- ------- ---- ------ - subpoena ---- -----<br>--- ------- ---- -- --- -------- --- - ----- ------ ---- --<br>-------- --- -------- -------- --- -------- ---- -- ----- -<br>-------- ---- --- ---------- --------- -- ------- ------ -<br>--------- ----- -----,304020.40000000596,304019,302425.792,302433.5,302437.685,304024.662,,16,subpoena
screen,html.Screen,2_3_1_0_1_17,2022-02-15T13:03:20.135Z,,,,,,,,,,,,,,,,,15,,,,,,,,,,,,,,886.5380000178702,,response,,,,7,E,,,,,,Space,keypress(Space),,,,lyrical,,,,---- --------- ---------- - --- ------- -- --- ------------<br>----- -- -------- ------- ---- ------ - -------- last -----<br>--- ------- ---- -- --- -------- --- - ----- ------ ---- --<br>-------- --- -------- -------- --- -------- ---- -- ----- -<br>-------- ---- --- ---------- --------- -- ------- ------ -<br>--------- ----- -----,304912.40000000596,304911.2000000179,304021.02,304020.59999999404,304024.662,304916.694,,17,last
screen,html.Screen,2_3_1_0_1_18,2022-02-15T13:03:21.063Z,,,,,,,,,,,,,,,,,15,,,,,,,,,,,,,,922.1060000119032,,response,,,,7,E,,,,,,Space,keypress(Space),,,,lyrical,,,,---- --------- ---------- - --- ------- -- --- ------------<br>----- -- -------- ------- ---- ------ - -------- ---- week.<br>--- ------- ---- -- --- -------- --- - ----- ------ ---- --<br>-------- --- -------- -------- --- -------- ---- -- ----- -<br>-------- ---- --- ---------- --------- -- ------- ------ -<br>--------- ----- -----,305840,305838.8000000119,304908.193,304912.59999999404,304916.694,305844.229,,18,week.
screen,html.Screen,2_3_1_0_1_19,2022-02-15T13:03:21.989Z,,,,,,,,,,,,,,,,,15,,,,,,,,,,,,,,921.0710000119288,,response,,,,7,E,,,,,,Space,keypress(Space),,,,lyrical,,,,---- --------- ---------- - --- ------- -- --- ------------<br>----- -- -------- ------- ---- ------ - -------- ---- -----<br>His ------- ---- -- --- -------- --- - ----- ------ ---- --<br>-------- --- -------- -------- --- -------- ---- -- ----- -<br>-------- ---- --- ---------- --------- -- ------- ------ -<br>--------- ----- -----,306766.3000000119,306765.3000000119,305833.521,305840.2000000179,305844.229,306770.536,,19,His
screen,html.Screen,2_3_1_0_1_20,2022-02-15T13:03:22.540Z,,,,,,,,,,,,,,,,,15,,,,,,,,,,,,,,545.6640000178595,,response,,,,7,E,,,,,,Space,keypress(Space),,,,lyrical,,,,---- --------- ---------- - --- ------- -- --- ------------<br>----- -- -------- ------- ---- ------ - -------- ---- -----<br>--- lawyers ---- -- --- -------- --- - ----- ------ ---- --<br>-------- --- -------- -------- --- -------- ---- -- ----- -<br>-------- ---- --- ---------- --------- -- ------- ------ -<br>--------- ----- -----,307317.7000000179,307316.2000000179,306760.759,306766.5,306770.536,307321.822,,20,lawyers
screen,html.Screen,2_3_1_0_1_21,2022-02-15T13:03:22.957Z,,,,,,,,,,,,,,,,,15,,,,,,,,,,,,,,411.27799999405397,,response,,,,7,E,,,,,,Space,keypress(Space),,,,lyrical,,,,---- --------- ---------- - --- ------- -- --- ------------<br>----- -- -------- ------- ---- ------ - -------- ---- -----<br>--- ------- said -- --- -------- --- - ----- ------ ---- --<br>-------- --- -------- -------- --- -------- ---- -- ----- -<br>-------- ---- --- ---------- --------- -- ------- ------ -<br>--------- ----- -----,307734.3000000119,307733.09999999404,307304.148,307317.8000000119,307321.822,307738.609,,21,said
screen,html.Screen,2_3_1_0_1_22,2022-02-15T13:03:23.334Z,,,,,,,,,,,,,,,,,15,,,,,,,,,,,,,,371.4909999940428,,response,,,,7,E,,,,,,Space,keypress(Space),,,,lyrical,,,,---- --------- ---------- - --- ------- -- --- ------------<br>----- -- -------- ------- ---- ------ - -------- ---- -----<br>--- ------- ---- he --- -------- --- - ----- ------ ---- --<br>-------- --- -------- -------- --- -------- ---- -- ----- -<br>-------- ---- --- ---------- --------- -- ------- ------ -<br>--------- ----- -----,308111.40000000596,308110.09999999404,307722.319,307734.5,307738.609,308115.539,,22,he
screen,html.Screen,2_3_1_0_1_23,2022-02-15T13:03:23.689Z,,,,,,,,,,,,,,,,,15,,,,,,,,,,,,,,349.7610000119312,,response,,,,7,E,,,,,,Space,keypress(Space),,,,lyrical,,,,---- --------- ---------- - --- ------- -- --- ------------<br>----- -- -------- ------- ---- ------ - -------- ---- -----<br>--- ------- ---- -- was -------- --- - ----- ------ ---- --<br>-------- --- -------- -------- --- -------- ---- -- ----- -<br>-------- ---- --- ---------- --------- -- ------- ------ -<br>--------- ----- -----,308466.7000000179,308465.3000000119,308105.269,308111.5,308115.539,308470.98,,23,was
screen,html.Screen,2_3_1_0_1_24,2022-02-15T13:03:24.254Z,,,,,,,,,,,,,,,,,15,,,,,,,,,,,,,,559.3200000119396,,response,,,,7,E,,,,,,Space,keypress(Space),,,,lyrical,,,,---- --------- ---------- - --- ------- -- --- ------------<br>----- -- -------- ------- ---- ------ - -------- ---- -----<br>--- ------- ---- -- --- prepared --- - ----- ------ ---- --<br>-------- --- -------- -------- --- -------- ---- -- ----- -<br>-------- ---- --- ---------- --------- -- ------- ------ -<br>--------- ----- -----,309031.40000000596,309030.3000000119,308465.986,308466.90000000596,308470.98,309035.92,,24,prepared
screen,html.Screen,2_3_1_0_1_25,2022-02-15T13:03:24.674Z,,,,,,,,,,,,,,,,,15,,,,,,,,,,,,,,414.17999999405583,,response,,,,7,E,,,,,,Space,keypress(Space),,,,lyrical,,,,---- --------- ---------- - --- ------- -- --- ------------<br>----- -- -------- ------- ---- ------ - -------- ---- -----<br>--- ------- ---- -- --- -------- for - ----- ------ ---- --<br>-------- --- -------- -------- --- -------- ---- -- ----- -<br>-------- ---- --- ---------- --------- -- ------- ------ -<br>--------- ----- -----,309451.3000000119,309450.09999999404,309021.231,309031.59999999404,309035.92,309472.627,,25,for
screen,html.Screen,2_3_1_0_1_26,2022-02-15T13:03:25.047Z,,,,,,,,,,,,,,,,,15,,,,,,,,,,,,,,350.47299999406096,,response,,,,7,E,,,,,,Space,keypress(Space),,,,lyrical,,,,---- --------- ---------- - --- ------- -- --- ------------<br>----- -- -------- ------- ---- ------ - -------- ---- -----<br>--- ------- ---- -- --- -------- --- a ----- ------ ---- --<br>-------- --- -------- -------- --- -------- ---- -- ----- -<br>-------- ---- --- ---------- --------- -- ------- ------ -<br>--------- ----- -----,309824.2000000179,309823.09999999404,309455.769,309451.40000000596,309472.627,309828.528,,26,a
screen,html.Screen,2_3_1_0_1_27,2022-02-15T13:03:25.509Z,,,,,,,,,,,,,,,,,15,,,,,,,,,,,,,,456.5719999940484,,response,,,,7,E,,,,,,Space,keypress(Space),,,,lyrical,,,,---- --------- ---------- - --- ------- -- --- ------------<br>----- -- -------- ------- ---- ------ - -------- ---- -----<br>--- ------- ---- -- --- -------- --- - third ------ ---- --<br>-------- --- -------- -------- --- -------- ---- -- ----- -<br>-------- ---- --- ---------- --------- -- ------- ------ -<br>--------- ----- -----,310286.2000000179,310285.09999999404,309822.06,309824.40000000596,309828.528,310291.058,,27,third
screen,html.Screen,2_3_1_0_1_28,2022-02-15T13:03:26.932Z,,,,,,,,,,,,,,,,,15,,,,,,,,,,,,,,1417.3420000059414,,response,,,,7,E,,,,,,Space,keypress(Space),,,,lyrical,,,,---- --------- ---------- - --- ------- -- --- ------------<br>----- -- -------- ------- ---- ------ - -------- ---- -----<br>--- ------- ---- -- --- -------- --- - ----- prison ---- --<br>-------- --- -------- -------- --- -------- ---- -- ----- -<br>-------- ---- --- ---------- --------- -- ------- ------ -<br>--------- ----- -----,311709.59999999404,311708.40000000596,310278.713,310286.59999999404,310291.058,311713.735,,28,prison
screen,html.Screen,2_3_1_0_1_29,2022-02-15T13:03:27.700Z,,,,,,,,,,,,,,,,,15,,,,,,,,,,,,,,762.8649999940535,,response,,,,7,E,,,,,,Space,keypress(Space),,,,lyrical,,,,---- --------- ---------- - --- ------- -- --- ------------<br>----- -- -------- ------- ---- ------ - -------- ---- -----<br>--- ------- ---- -- --- -------- --- - ----- ------ stay --<br>-------- --- -------- -------- --- -------- ---- -- ----- -<br>-------- ---- --- ---------- --------- -- ------- ------ -<br>--------- ----- -----,312477.8000000119,312476.59999999404,311707.508,311709.8000000119,311713.735,312482.092,,29,stay
screen,html.Screen,2_3_1_0_1_30,2022-02-15T13:03:28.182Z,,,,,,,,,,,,,,,,,15,,,,,,,,,,,,,,475.9079999999958,,response,,,,7,E,,,,,,Space,keypress(Space),,,,lyrical,,,,---- --------- ---------- - --- ------- -- --- ------------<br>----- -- -------- ------- ---- ------ - -------- ---- -----<br>--- ------- ---- -- --- -------- --- - ----- ------ ---- to<br>-------- --- -------- -------- --- -------- ---- -- ----- -<br>-------- ---- --- ---------- --------- -- ------- ------ -<br>--------- ----- -----,312959.2000000179,312958,312463.657,312478,312482.092,312963.422,,30,to
screen,html.Screen,2_3_1_0_1_31,2022-02-15T13:03:28.773Z,,,,,,,,,,,,,,,,,15,,,,,,,,,,,,,,585.3780000119004,,response,,,,7,E,,,,,,Space,keypress(Space),,,,lyrical,,,,---- --------- ---------- - --- ------- -- --- ------------<br>----- -- -------- ------- ---- ------ - -------- ---- -----<br>--- ------- ---- -- --- -------- --- - ----- ------ ---- --<br>maintain --- -------- -------- --- -------- ---- -- ----- -<br>-------- ---- --- ---------- --------- -- ------- ------ -<br>--------- ----- -----,313550.09999999404,313548.8000000119,312948.805,312959.3000000119,312963.422,313554.371,,31,maintain
screen,html.Screen,2_3_1_0_1_32,2022-02-15T13:03:29.272Z,,,,,,,,,,,,,,,,,15,,,,,,,,,,,,,,493.7289999940549,,response,,,,7,E,,,,,,Space,keypress(Space),,,,lyrical,,,,---- --------- ---------- - --- ------- -- --- ------------<br>----- -- -------- ------- ---- ------ - -------- ---- -----<br>--- ------- ---- -- --- -------- --- - ----- ------ ---- --<br>-------- his -------- -------- --- -------- ---- -- ----- -<br>-------- ---- --- ---------- --------- -- ------- ------ -<br>--------- ----- -----,314049.2000000179,314048.09999999404,313546.667,313550.3000000119,313554.371,314053.474,,32,his
screen,html.Screen,2_3_1_0_1_33,2022-02-15T13:03:30.359Z,,,,,,,,,,,,,,,,,15,,,,,,,,,,,,,,1081.926000005973,,response,,,,7,E,,,,,,Space,keypress(Space),,,,lyrical,,,,---- --------- ---------- - --- ------- -- --- ------------<br>----- -- -------- ------- ---- ------ - -------- ---- -----<br>--- ------- ---- -- --- -------- --- - ----- ------ ---- --<br>-------- --- silence. -------- --- -------- ---- -- ----- -<br>-------- ---- --- ---------- --------- -- ------- ------ -<br>--------- ----- -----,315136.8000000119,315135.40000000596,314037.517,314049.40000000596,314053.474,315141.102,,33,silence.
screen,html.Screen,2_3_1_0_1_34,2022-02-15T13:03:31.317Z,,,,,,,,,,,,,,,,,15,,,,,,,,,,,,,,951.997999994026,,response,,,,7,E,,,,,,Space,keypress(Space),,,,lyrical,,,,---- --------- ---------- - --- ------- -- --- ------------<br>----- -- -------- ------- ---- ------ - -------- ---- -----<br>--- ------- ---- -- --- -------- --- - ----- ------ ---- --<br>-------- --- -------- Anderson --- -------- ---- -- ----- -<br>-------- ---- --- ---------- --------- -- ------- ------ -<br>--------- ----- -----,316094.09999999404,316093.09999999404,315136.716,315137,315141.102,316098.41,,34,Anderson
screen,html.Screen,2_3_1_0_1_35,2022-02-15T13:03:31.810Z,,,,,,,,,,,,,,,,,15,,,,,,,,,,,,,,487.68999999406515,,response,,,,7,E,,,,,,Space,keypress(Space),,,,lyrical,,,,---- --------- ---------- - --- ------- -- --- ------------<br>----- -- -------- ------- ---- ------ - -------- ---- -----<br>--- ------- ---- -- --- -------- --- - ----- ------ ---- --<br>-------- --- -------- -------- was -------- ---- -- ----- -<br>-------- ---- --- ---------- --------- -- ------- ------ -<br>--------- ----- -----,316587.5,316586.09999999404,316091.376,316094.3000000119,316098.41,316591.758,,35,was
screen,html.Screen,2_3_1_0_1_36,2022-02-15T13:03:32.428Z,,,,,,,,,,,,,,,,,15,,,,,,,,,,,,,,612.841999994067,,response,,,,7,E,,,,,,Space,keypress(Space),,,,lyrical,,,,---- --------- ---------- - --- ------- -- --- ------------<br>----- -- -------- ------- ---- ------ - -------- ---- -----<br>--- ------- ---- -- --- -------- --- - ----- ------ ---- --<br>-------- --- -------- -------- --- released ---- -- ----- -<br>-------- ---- --- ---------- --------- -- ------- ------ -<br>--------- ----- -----,317205.7000000179,317204.59999999404,316581.995,316587.7000000179,316591.758,317209.812,,36,released
screen,html.Screen,2_3_1_0_1_37,2022-02-15T13:03:32.890Z,,,,,,,,,,,,,,,,,15,,,,,,,,,,,,,,456.4880000119447,,response,,,,7,E,,,,,,Space,keypress(Space),,,,lyrical,,,,---- --------- ---------- - --- ------- -- --- ------------<br>----- -- -------- ------- ---- ------ - -------- ---- -----<br>--- ------- ---- -- --- -------- --- - ----- ------ ---- --<br>-------- --- -------- -------- --- -------- July -- ----- -<br>-------- ---- --- ---------- --------- -- ------- ------ -<br>--------- ----- -----,317667.2000000179,317666.3000000119,317192.085,317205.8000000119,317209.812,317671.032,,37,July
screen,html.Screen,2_3_1_0_1_38,2022-02-15T13:03:33.692Z,,,,,,,,,,,,,,,,,15,,,,,,,,,,,,,,796.567999994033,,response,,,,7,E,,,,,,Space,keypress(Space),,,,lyrical,,,,---- --------- ---------- - --- ------- -- --- ------------<br>----- -- -------- ------- ---- ------ - -------- ---- -----<br>--- ------- ---- -- --- -------- --- - ----- ------ ---- --<br>-------- --- -------- -------- --- -------- ---- 20 ----- -<br>-------- ---- --- ---------- --------- -- ------- ------ -<br>--------- ----- -----,318468.5,318467.59999999404,317659.735,317667.3000000119,317671.032,318481.033,,38,20
screen,html.Screen,2_3_1_0_1_39,2022-02-15T13:03:34.825Z,,,,,,,,,,,,,,,,,15,,,,,,,,,,,,,,1119.5669999940437,,response,,,,7,E,,,,,,Space,keypress(Space),,,,lyrical,,,,---- --------- ---------- - --- ------- -- --- ------------<br>----- -- -------- ------- ---- ------ - -------- ---- -----<br>--- ------- ---- -- --- -------- --- - ----- ------ ---- --<br>-------- --- -------- -------- --- -------- ---- -- after -<br>-------- ---- --- ---------- --------- -- ------- ------ -<br>--------- ----- -----,319601.5,319600.59999999404,318454.259,318468.59999999404,318481.033,319614.527,,39,after
screen,html.Screen,2_3_1_0_1_40,2022-02-15T13:03:35.378Z,,,,,,,,,,,,,,,,,15,,,,,,,,,,,,,,539.5729999940377,,response,,,,7,E,,,,,,Space,keypress(Space),,,,lyrical,,,,---- --------- ---------- - --- ------- -- --- ------------<br>----- -- -------- ------- ---- ------ - -------- ---- -----<br>--- ------- ---- -- --- -------- --- - ----- ------ ---- --<br>-------- --- -------- -------- --- -------- ---- -- ----- a<br>-------- ---- --- ---------- --------- -- ------- ------ -<br>--------- ----- -----,320155.3000000119,320154.09999999404,319597.932,319601.59999999404,319614.527,320185.76,,40,a
