sender,sender_type,sender_id,timestamp,meta,,Blues,Classical,Country,Dance,Electronic,Folk,Gospel,Hip-Hop,Jazz,Latin,Musical/Film,New-age,Pop,Prolific_id,Provo_ID,R&B,Rap,Reggae,Religious,Rock,Soul,Swing,Traditional,age,artist_name,correct,correctResponse,distraction,duration,education,ended_on,familiarity,gender,headphone_check_performance,item,list,music_frequency,offensiveness,pleasantness,position_correct,preference,response,response_action,snippet_file,song_name,song_rating,sound,stimulus_1,stimulus_2,stimulus_3,text,time_commit,time_end,time_render,time_run,time_show,time_switch,url,word,word_ID
Prolific ID,html.Form,0,2022-02-03T15:35:59.451Z,"{""labjs_version"":""20.2.2"",""labjs_build"":{""flavor"":""production"",""commit"":""a25486e0c714a0ae2ce03ff94b7bb6896854dcfa""},""location"":""https://run.pavlovia.org/mvasilev/prolific2_music_b/"",""userAgent"":""Mozilla/5.0 (Windows NT 10.0; Win64; x64) AppleWebKit/537.36 (KHTML, like Gecko) Chrome/97.0.4692.99 Safari/537.36 Edg/97.0.1072.76"",""platform"":""Win32"",""language"":""en-US"",""locale"":""en-US"",""timeZone"":""Europe/London"",""timezoneOffset"":0,""screen_width"":1366,""screen_height"":768,""scroll_width"":1349,""scroll_height"":659,""window_innerWidth"":1366,""window_innerHeight"":657,""devicePixelRatio"":1}",,,,,,,,,,,,,,,60780a1d2f47465618b6f69b,,,,,,,,,,,,,,,10679.499000023843,,form submission,,,,,,,,,,,,,,,,,,,,,31690.20000001788,31687.100000023842,20941,20947.70000001788,21007.601,31747.243,{},,
Introduction,html.Screen,1_0,2022-02-03T15:36:04.354Z,,,,,,,,,,,,,,,,,,,,,,,,,,,,,,,4836.957000017883,,response,,,,,,,,,,,continue,click button,,,,,,,,,36593.70000001788,36584.20000001788,31663.987,31692.30000001192,31747.243,36625.717,,,
Volume calibration,html.Screen,1_1,2022-02-03T15:36:25.168Z,,,,,,,,,,,,,,,,,,,,,,,,,,,,,,,20770.983000017884,,response,,,,,,,,,,,continue,click button,,,,,,,,,57407.90000000596,57396.70000001788,36575.911,36595,36625.717,57422.044,,,
Task instructions,html.Screen,1_2,2022-02-03T15:36:38.081Z,,,,,,,,,,,,,,,,,,,,,,,,,,,,,,,12895.455999999998,,response,,,,,,,,,,,continue,click button,,,,,,,,,70320.60000002384,70317.5,57388.877,57408.5,57422.044,70326.087,,,
Sounds,html.Screen,1_3_0_0,2022-02-03T15:36:42.325Z,,,,,,,,,,,,,,,,,,,,,,,,,,,,,,,4245.847999999998,,timeout,,,,,,,,,3,,,,,,,,I,O,S,,74564,74555.404,70309.572,70321.70000001788,70326.087,74571.935,,,
Judgement,html.Screen,1_3_0_1,2022-02-03T15:36:43.809Z,,,,,,,,,,,,,,,,,,,,,,,,,,,,true,3,,1472.6650000238442,,response,,,,,,,,,3,,3,click #choice-3,,,,,I,O,S,,76048.30000001192,76044.60000002384,74555.404,74564.90000000596,74571.935,76053.814,,,
Trial,flow.Sequence,1_3_0,2022-02-03T15:36:43.811Z,,,,,,,,,,,,,,,,,,,,,,,,,,,,,,,5718.513000023842,,completion,,,,,,,,,3,,,,,,,,I,O,S,,76049.80000001192,76044.60000002384,70309.572,70321.5,70326.087,76053.814,,,
Sounds,html.Screen,1_3_1_0,2022-02-03T15:36:48.046Z,,,,,,,,,,,,,,,,,,,,,,,,,,,,,,,4245.832999999999,,timeout,,,,,,,,,2,,,,,,,,I,S,O,,80285.40000000596,80283.145,76037.228,76051.30000001192,76053.814,80299.647,,,
Judgement,html.Screen,1_3_1_1,2022-02-03T15:36:48.980Z,,,,,,,,,,,,,,,,,,,,,,,,,,,,true,2,,914.6530000119237,,response,,,,,,,,,2,,2,click #choice-2,,,,,I,S,O,,81218.90000000596,81214.30000001192,80283.145,80286.20000001788,80299.647,81232.097,,,
Trial,flow.Sequence,1_3_1,2022-02-03T15:36:48.981Z,,,,,,,,,,,,,,,,,,,,,,,,,,,,,,,5160.486000011922,,completion,,,,,,,,,2,,,,,,,,I,S,O,,81220.30000001192,81214.30000001192,76037.228,76050.40000000596,76053.814,81232.097,,,
Sounds,html.Screen,1_3_2_0,2022-02-03T15:36:53.225Z,,,,,,,,,,,,,,,,,,,,,,,,,,,,,,,4245.748000000007,,timeout,,,,,,,,,1,,,,,,,,S,O,I,,85464.10000002384,85461.411,81215.403,81221.30000001192,81232.097,85477.845,,,
Judgement,html.Screen,1_3_2_1,2022-02-03T15:36:54.038Z,,,,,,,,,,,,,,,,,,,,,,,,,,,,true,1,,796.2550000238407,,response,,,,,,,,,1,,1,click #choice-1,,,,,S,O,I,,86277.5,86274.10000002384,85461.411,85464.90000000596,85477.845,86302.805,,,
Trial,flow.Sequence,1_3_2,2022-02-03T15:36:54.040Z,,,,,,,,,,,,,,,,,,,,,,,,,,,,,,,5042.003000023848,,completion,,,,,,,,,1,,,,,,,,S,O,I,,86279,86274.10000002384,81215.403,81220.90000000596,81232.097,86302.805,,,
Sounds,html.Screen,1_3_3_0,2022-02-03T15:36:58.303Z,,,,,,,,,,,,,,,,,,,,,,,,,,,,,,,4254.343000000008,,timeout,,,,,,,,,1,,,,,,,,S,I,O,,90542.20000001788,90539.775,86260.621,86280.10000002384,86302.805,90557.148,,,
Judgement,html.Screen,1_3_3_1,2022-02-03T15:37:00.629Z,,,,,,,,,,,,,,,,,,,,,,,,,,,,true,1,,2307.851999999999,,response,,,,,,,,,1,,1,click #choice-1,,,,,S,I,O,,92868.5,92865,90539.775,90543,90557.148,92870.7,,,
Trial,flow.Sequence,1_3_3,2022-02-03T15:37:00.630Z,,,,,,,,,,,,,,,,,,,,,,,,,,,,,,,6562.195000000007,,completion,,,,,,,,,1,,,,,,,,S,I,O,,92869.60000002384,92865,86260.621,86279.70000001788,86302.805,92870.7,,,
Sounds,html.Screen,1_3_4_0,2022-02-03T15:37:04.864Z,,,,,,,,,,,,,,,,,,,,,,,,,,,,,,,4262.479000000007,,timeout,,,,,,,,,2,,,,,,,,O,S,I,,97103.40000000596,97099.999,92854.073,92870.5,92870.7,97133.179,,,
Judgement,html.Screen,1_3_4_1,2022-02-03T15:37:05.529Z,,,,,,,,,,,,,,,,,,,,,,,,,,,,true,2,,630.8209999999963,,response,,,,,,,,,2,,2,click #choice-2,,,,,O,S,I,,97767.70000001788,97764,97099.999,97104.40000000596,97133.179,97783.048,,,
Trial,flow.Sequence,1_3_4,2022-02-03T15:37:05.530Z,,,,,,,,,,,,,,,,,,,,,,,,,,,,,,,4893.300000000003,,completion,,,,,,,,,2,,,,,,,,O,S,I,,97768.70000001788,97764,92854.073,92870.10000002384,92870.7,97783.048,,,
Sounds,html.Screen,1_3_5_0,2022-02-03T15:37:09.775Z,,,,,,,,,,,,,,,,,,,,,,,,,,,,,,,4245.322,,timeout,,,,,,,,,3,,,,,,,,O,I,S,,102014,102011.881,97766.032,97769.5,97783.048,102028.37,,,
Judgement,html.Screen,1_3_5_1,2022-02-03T15:37:10.399Z,,,,,,,,,,,,,,,,,,,,,,,,,,,,true,3,,606.1300000000047,,response,,,,,,,,,3,,3,click #choice-3,,,,,O,I,S,,102638.30000001192,102634.5,102011.881,102014.70000001788,102028.37,102677.82,,,
Trial,flow.Sequence,1_3_5,2022-02-03T15:37:10.400Z,,,,,,,,,,,,,,,,,,,,,,,,,,,,,,,4851.452000000005,,completion,,,,,,,,,3,,,,,,,,O,I,S,,102639.30000001192,102634.5,97766.032,97769.30000001192,97783.048,102677.82,,,
Task,flow.Loop,1_3,2022-02-03T15:37:10.417Z,,,,,,,,,,,,,,,,,,,,,,,,,,,,,,,32308.413,,completion,,,1,,,,,,,,,,,,,,,,,,102656.20000001788,102634.5,70309.572,70321.20000001788,70326.087,102677.82,,,
Trap,html.Screen,1_4,2022-02-03T15:37:10.427Z,,,,,,,,,,,,,,,,,,,,,,,,,,,,,,,NaN,,skipped,,,,,,,,,,,,,,,,,,,,,102666.10000002384,102634.5,,102665,,102677.82,,,
Thanks,html.Screen,1_5,2022-02-03T15:37:15.749Z,,,,,,,,,,,,,,,,,,,,,,,,,,,,,,,5306.980000011914,,response,,,,,,,,,,,continue,click button,,,,,,,,,107988.10000002384,107984.80000001192,102627.801,102667,102677.82,115431.895,,,
Headphone screening,flow.Sequence,1,2022-02-03T15:37:15.750Z,,,,,,,,,,,,,,,,,,,,,,,,,,,,,,,76237.55700001192,,completion,,,,,,,,,,,,,,,,,,,,,107989.10000002384,107984.80000001192,31663.987,31692.100000023842,31747.243,115431.895,,,
Instructions,html.Page,2_0,2022-02-03T15:37:53.660Z,,,,,,,,,,,,,,,,,,,,,,,,,,,,,,,30467.604999999996,,form submission,,,,,,,,,,,,,,,,,,,,,145900.90000000596,145899.5,115415.251,115430.70000001788,115431.895,145918.844,,,
Holding screen,html.Screen,2_1_0_0,2022-02-03T15:38:03.672Z,,,,,,,,,,,,,,,,,,,,,,,,,,,,,,,10056.779999999999,,timeout,,,,,,,,,,,,,,,,,,,,,155912.5,155908.97,145885.606,145902.60000002384,145918.844,155975.624,,,
screen,html.Screen,2_1_0_1_0,2022-02-03T15:38:05.958Z,,,,,,,,,,,,,,,,,53,,,,,,,,,,,,,,2214.8759999999893,,response,,,,99,,,,,,,Space,keypress(Space),,,,,,,,When -- ----- -- ------ - ------- --- ----------<br>------------- ------ ------ ---- ---- ------- ----- -- ----<br>-------- ------- -- ---------- --- - --- ----- ----- ----<br>---- --- --- ----- --- ---- ---- ------- ----- ---- -------<br>--- --- -- ----- -- --- ---- -- --- ---- -- ------ ------<br>--- ----- -- ----,158198.40000000596,158190.5,155908.97,155913.5,155975.624,158206.819,,0,When
screen,html.Screen,2_1_0_1_1,2022-02-03T15:38:06.944Z,,,,,,,,,,,,,,,,,53,,,,,,,,,,,,,,974.9810000119323,,response,,,,99,,,,,,,Space,keypress(Space),,,,,,,,---- it ----- -- ------ - ------- --- ----------<br>------------- ------ ------ ---- ---- ------- ----- -- ----<br>-------- ------- -- ---------- --- - --- ----- ----- ----<br>---- --- --- ----- --- ---- ---- ------- ----- ---- -------<br>--- --- -- ----- -- --- ---- -- --- ---- -- ------ ------<br>--- ----- -- ----,159184.10000002384,159181.80000001192,158190.183,158199.20000001788,158206.819,159189.121,,1,it
screen,html.Screen,2_1_0_1_2,2022-02-03T15:38:07.797Z,,,,,,,,,,,,,,,,,53,,,,,,,,,,,,,,846.2790000059467,,response,,,,99,,,,,,,Space,keypress(Space),,,,,,,,---- -- comes -- ------ - ------- --- ----------<br>------------- ------ ------ ---- ---- ------- ----- -- ----<br>-------- ------- -- ---------- --- - --- ----- ----- ----<br>---- --- --- ----- --- ---- ---- ------- ----- ---- -------<br>--- --- -- ----- -- --- ---- -- --- ---- -- ------ ------<br>--- ----- -- ----,160037.40000000596,160035.40000000596,159172.417,159184.80000001192,159189.121,160055.229,,2,comes
screen,html.Screen,2_1_0_1_3,2022-02-03T15:38:08.374Z,,,,,,,,,,,,,,,,,53,,,,,,,,,,,,,,556.3710000238498,,response,,,,99,,,,,,,Space,keypress(Space),,,,,,,,---- -- ----- to ------ - ------- --- ----------<br>------------- ------ ------ ---- ---- ------- ----- -- ----<br>-------- ------- -- ---------- --- - --- ----- ----- ----<br>---- --- --- ----- --- ---- ---- ------- ----- ---- -------<br>--- --- -- ----- -- --- ---- -- --- ---- -- ------ ------<br>--- ----- -- ----,160613.5,160611.60000002384,160038.397,160038.10000002384,160055.229,160621.041,,3,to
screen,html.Screen,2_1_0_1_4,2022-02-03T15:38:08.946Z,,,,,,,,,,,,,,,,,53,,,,,,,,,,,,,,562.9590000000026,,response,,,,99,,,,,,,Space,keypress(Space),,,,,,,,---- -- ----- -- having - ------- --- ----------<br>------------- ------ ------ ---- ---- ------- ----- -- ----<br>-------- ------- -- ---------- --- - --- ----- ----- ----<br>---- --- --- ----- --- ---- ---- ------- ----- ---- -------<br>--- --- -- ----- -- --- ---- -- --- ---- -- ------ ------<br>--- ----- -- ----,161185.80000001192,161184,160604.53,160614.20000001788,160621.041,161204.103,,4,having
screen,html.Screen,2_1_0_1_5,2022-02-03T15:38:09.544Z,,,,,,,,,,,,,,,,,53,,,,,,,,,,,,,,578.0970000178786,,response,,,,99,,,,,,,Space,keypress(Space),,,,,,,,---- -- ----- -- ------ a ------- --- ----------<br>------------- ------ ------ ---- ---- ------- ----- -- ----<br>-------- ------- -- ---------- --- - --- ----- ----- ----<br>---- --- --- ----- --- ---- ---- ------- ----- ---- -------<br>--- --- -- ----- -- --- ---- -- --- ---- -- ------ ------<br>--- ----- -- ----,161784,161782.20000001788,161187.29,161186.5,161204.103,161820.171,,5,a
screen,html.Screen,2_1_0_1_6,2022-02-03T15:38:10.254Z,,,,,,,,,,,,,,,,,53,,,,,,,,,,,,,,671.5290000178793,,response,,,,99,,,,,,,Space,keypress(Space),,,,,,,,---- -- ----- -- ------ - lasting --- ----------<br>------------- ------ ------ ---- ---- ------- ----- -- ----<br>-------- ------- -- ---------- --- - --- ----- ----- ----<br>---- --- --- ----- --- ---- ---- ------- ----- ---- -------<br>--- --- -- ----- -- --- ---- -- --- ---- -- ------ ------<br>--- ----- -- ----,162493.60000002384,162491.70000001788,161803.353,161784.5,161820.171,162502.55,,6,lasting
screen,html.Screen,2_1_0_1_7,2022-02-03T15:38:10.757Z,,,,,,,,,,,,,,,,,53,,,,,,,,,,,,,,492.0500000238535,,response,,,,99,,,,,,,Space,keypress(Space),,,,,,,,---- -- ----- -- ------ - ------- and ----------<br>------------- ------ ------ ---- ---- ------- ----- -- ----<br>-------- ------- -- ---------- --- - --- ----- ----- ----<br>---- --- --- ----- --- ---- ---- ------- ----- ---- -------<br>--- --- -- ----- -- --- ---- -- --- ---- -- ------ ------<br>--- ----- -- ----,162996.60000002384,162994.60000002384,162485.855,162494.20000001788,162502.55,163002.082,,7,and
screen,html.Screen,2_1_0_1_8,2022-02-03T15:38:11.378Z,,,,,,,,,,,,,,,,,53,,,,,,,,,,,,,,614.518000023847,,response,,,,99,,,,,,,Space,keypress(Space),,,,,,,,---- -- ----- -- ------ - ------- --- fulfilling<br>------------- ------ ------ ---- ---- ------- ----- -- ----<br>-------- ------- -- ---------- --- - --- ----- ----- ----<br>---- --- --- ----- --- ---- ---- ------- ----- ---- -------<br>--- --- -- ----- -- --- ---- -- --- ---- -- ------ ------<br>--- ----- -- ----,163618.40000000596,163616.60000002384,162985.402,162997.20000001788,163002.082,163634.749,,8,fulfilling
screen,html.Screen,2_1_0_1_9,2022-02-03T15:38:11.979Z,,,,,,,,,,,,,,,,,53,,,,,,,,,,,,,,582.2509999999893,,response,,,,99,,,,,,,Space,keypress(Space),,,,,,,,"---- -- ----- -- ------ - ------- --- ----------<br>relationship, ------ ------ ---- ---- ------- ----- -- ----<br>-------- ------- -- ---------- --- - --- ----- ----- ----<br>---- --- --- ----- --- ---- ---- ------- ----- ---- -------<br>--- --- -- ----- -- --- ---- -- --- ---- -- ------ ------<br>--- ----- -- ----",164219.20000001788,164217,163618.239,163619.10000002384,163634.749,164234.206,,9,"relationship,"
screen,html.Screen,2_1_0_1_10,2022-02-03T15:38:12.790Z,,,,,,,,,,,,,,,,,53,,,,,,,,,,,,,,793.9940000178758,,response,,,,99,,,,,,,Space,keypress(Space),,,,,,,,---- -- ----- -- ------ - ------- --- ----------<br>------------- common ------ ---- ---- ------- ----- -- ----<br>-------- ------- -- ---------- --- - --- ----- ----- ----<br>---- --- --- ----- --- ---- ---- ------- ----- ---- -------<br>--- --- -- ----- -- --- ---- -- --- ---- -- ------ ------<br>--- ----- -- ----,165030.10000002384,165028.20000001788,164217.66,164219.80000001192,164234.206,165051.923,,10,common
screen,html.Screen,2_1_0_1_11,2022-02-03T15:38:13.385Z,,,,,,,,,,,,,,,,,53,,,,,,,,,,,,,,570.8770000119112,,response,,,,99,,,,,,,Space,keypress(Space),,,,,,,,---- -- ----- -- ------ - ------- --- ----------<br>------------- ------ wisdom ---- ---- ------- ----- -- ----<br>-------- ------- -- ---------- --- - --- ----- ----- ----<br>---- --- --- ----- --- ---- ---- ------- ----- ---- -------<br>--- --- -- ----- -- --- ---- -- --- ---- -- ------ ------<br>--- ----- -- ----,165624.60000002384,165622.80000001192,165016.861,165030.70000001788,165051.923,165632.88,,11,wisdom
screen,html.Screen,2_1_0_1_12,2022-02-03T15:38:14.161Z,,,,,,,,,,,,,,,,,53,,,,,,,,,,,,,,765.9200000119163,,response,,,,99,,,,,,,Space,keypress(Space),,,,,,,,---- -- ----- -- ------ - ------- --- ----------<br>------------- ------ ------ says ---- ------- ----- -- ----<br>-------- ------- -- ---------- --- - --- ----- ----- ----<br>---- --- --- ----- --- ---- ---- ------- ----- ---- -------<br>--- --- -- ----- -- --- ---- -- --- ---- -- ------ ------<br>--- ----- -- ----,166400.60000002384,166398.80000001192,165616.29,165625.30000001192,165632.88,166415.448,,12,says
screen,html.Screen,2_1_0_1_13,2022-02-03T15:38:18.249Z,,,,,,,,,,,,,,,,,53,,,,,,,,,,,,,,4071.2520000178774,,response,,,,99,,,,,,,Space,keypress(Space),,,,,,,,---- -- ----- -- ------ - ------- --- ----------<br>------------- ------ ------ ---- that ------- ----- -- ----<br>-------- ------- -- ---------- --- - --- ----- ----- ----<br>---- --- --- ----- --- ---- ---- ------- ----- ---- -------<br>--- --- -- ----- -- --- ---- -- --- ---- -- ------ ------<br>--- ----- -- ----,170489,170486.70000001788,166398.925,166401.40000000596,166415.448,170494.731,,13,that
screen,html.Screen,2_1_0_1_14,2022-02-03T15:38:20.117Z,,,,,,,,,,,,,,,,,53,,,,,,,,,,,,,,1860.7690000000002,,response,,,,99,,,,,,,Space,keypress(Space),,,,,,,,---- -- ----- -- ------ - ------- --- ----------<br>------------- ------ ------ ---- ---- feeling ----- -- ----<br>-------- ------- -- ---------- --- - --- ----- ----- ----<br>---- --- --- ----- --- ---- ---- ------- ----- ---- -------<br>--- --- -- ----- -- --- ---- -- --- ---- -- ------ ------<br>--- ----- -- ----,172357.30000001192,172355.5,170478.118,170489.70000001788,170494.731,172376.514,,14,feeling
screen,html.Screen,2_1_0_1_15,2022-02-03T15:38:20.655Z,,,,,,,,,,,,,,,,,53,,,,,,,,,,,,,,516.2860000119254,,response,,,,99,,,,,,,Space,keypress(Space),,,,,,,,---- -- ----- -- ------ - ------- --- ----------<br>------------- ------ ------ ---- ---- ------- close -- ----<br>-------- ------- -- ---------- --- - --- ----- ----- ----<br>---- --- --- ----- --- ---- ---- ------- ----- ---- -------<br>--- --- -- ----- -- --- ---- -- --- ---- -- ------ ------<br>--- ----- -- ----,172894.60000002384,172892.80000001192,172359.562,172357.90000000596,172376.514,172909.077,,15,close
screen,html.Screen,2_1_0_1_16,2022-02-03T15:38:21.798Z,,,,,,,,,,,,,,,,,53,,,,,,,,,,,,,,1127.3230000059702,,response,,,,99,,,,,,,Space,keypress(Space),,,,,,,,---- -- ----- -- ------ - ------- --- ----------<br>------------- ------ ------ ---- ---- ------- ----- to ----<br>-------- ------- -- ---------- --- - --- ----- ----- ----<br>---- --- --- ----- --- ---- ---- ------- ----- ---- -------<br>--- --- -- ----- -- --- ---- -- --- ---- -- ------ ------<br>--- ----- -- ----,174038.20000001788,174036.40000000596,172892.502,172895.20000001788,172909.077,174064.171,,16,to
screen,html.Screen,2_1_0_1_17,2022-02-03T15:38:22.310Z,,,,,,,,,,,,,,,,,53,,,,,,,,,,,,,,484.12900001191883,,response,,,,99,,,,,,,Space,keypress(Space),,,,,,,,---- -- ----- -- ------ - ------- --- ----------<br>------------- ------ ------ ---- ---- ------- ----- -- your<br>-------- ------- -- ---------- --- - --- ----- ----- ----<br>---- --- --- ----- --- ---- ---- ------- ----- ---- -------<br>--- --- -- ----- -- --- ---- -- --- ---- -- ------ ------<br>--- ----- -- ----,174550.30000001192,174548.30000001192,174024.713,174038.80000001192,174064.171,174557.43,,17,your
screen,html.Screen,2_1_0_1_18,2022-02-03T15:38:22.846Z,,,,,,,,,,,,,,,,,53,,,,,,,,,,,,,,526.4700000059674,,response,,,,99,,,,,,,Space,keypress(Space),,,,,,,,---- -- ----- -- ------ - ------- --- ----------<br>------------- ------ ------ ---- ---- ------- ----- -- ----<br>romantic ------- -- ---------- --- - --- ----- ----- ----<br>---- --- --- ----- --- ---- ---- ------- ----- ---- -------<br>--- --- -- ----- -- --- ---- -- --- ---- -- ------ ------<br>--- ----- -- ----,175086.30000001192,175083.90000000596,174540.889,174551,174557.43,175090.291,,18,romantic
screen,html.Screen,2_1_0_1_19,2022-02-03T15:38:23.287Z,,,,,,,,,,,,,,,,,53,,,,,,,,,,,,,,435.109000005963,,response,,,,99,,,,,,,Space,keypress(Space),,,,,,,,---- -- ----- -- ------ - ------- --- ----------<br>------------- ------ ------ ---- ---- ------- ----- -- ----<br>-------- partner -- ---------- --- - --- ----- ----- ----<br>---- --- --- ----- --- ---- ---- ------- ----- ---- -------<br>--- --- -- ----- -- --- ---- -- --- ---- -- ------ ------<br>--- ----- -- ----,175527.40000000596,175525.40000000596,175073.566,175086.80000001192,175090.291,175539.718,,19,partner
screen,html.Screen,2_1_0_1_20,2022-02-03T15:38:23.676Z,,,,,,,,,,,,,,,,,53,,,,,,,,,,,,,,374.4820000178879,,response,,,,99,,,,,,,Space,keypress(Space),,,,,,,,---- -- ----- -- ------ - ------- --- ----------<br>------------- ------ ------ ---- ---- ------- ----- -- ----<br>-------- ------- is ---------- --- - --- ----- ----- ----<br>---- --- --- ----- --- ---- ---- ------- ----- ---- -------<br>--- --- -- ----- -- --- ---- -- --- ---- -- ------ ------<br>--- ----- -- ----,175916.10000002384,175914.20000001788,175523.263,175528.10000002384,175539.718,175922.815,,20,is
screen,html.Screen,2_1_0_1_21,2022-02-03T15:38:24.342Z,,,,,,,,,,,,,,,,,53,,,,,,,,,,,,,,657.4850000119186,,response,,,,99,,,,,,,Space,keypress(Space),,,,,,,,---- -- ----- -- ------ - ------- --- ----------<br>------------- ------ ------ ---- ---- ------- ----- -- ----<br>-------- ------- -- paramount. --- - --- ----- ----- ----<br>---- --- --- ----- --- ---- ---- ------- ----- ---- -------<br>--- --- -- ----- -- --- ---- -- --- ---- -- ------ ------<br>--- ----- -- ----,176582.10000002384,176580.30000001192,175906.238,175916.60000002384,175922.815,176588.899,,21,paramount.
screen,html.Screen,2_1_0_1_22,2022-02-03T15:38:24.805Z,,,,,,,,,,,,,,,,,53,,,,,,,,,,,,,,454.20100002383697,,response,,,,99,,,,,,,Space,keypress(Space),,,,,,,,---- -- ----- -- ------ - ------- --- ----------<br>------------- ------ ------ ---- ---- ------- ----- -- ----<br>-------- ------- -- ---------- But - --- ----- ----- ----<br>---- --- --- ----- --- ---- ---- ------- ----- ---- -------<br>--- --- -- ----- -- --- ---- -- --- ---- -- ------ ------<br>--- ----- -- ----,177045.20000001788,177043.10000002384,176572.172,176582.70000001788,176588.899,177054.986,,22,But
screen,html.Screen,2_1_0_1_23,2022-02-03T15:38:25.208Z,,,,,,,,,,,,,,,,,53,,,,,,,,,,,,,,391.5139999999956,,response,,,,99,,,,,,,Space,keypress(Space),,,,,,,,---- -- ----- -- ------ - ------- --- ----------<br>------------- ------ ------ ---- ---- ------- ----- -- ----<br>-------- ------- -- ---------- --- a --- ----- ----- ----<br>---- --- --- ----- --- ---- ---- ------- ----- ---- -------<br>--- --- -- ----- -- --- ---- -- --- ---- -- ------ ------<br>--- ----- -- ----,177448.40000000596,177446.5,177038.442,177045.70000001788,177054.986,177454.542,,23,a
screen,html.Screen,2_1_0_1_24,2022-02-03T15:38:25.662Z,,,,,,,,,,,,,,,,,53,,,,,,,,,,,,,,445.95800000001327,,response,,,,99,,,,,,,Space,keypress(Space),,,,,,,,---- -- ----- -- ------ - ------- --- ----------<br>------------- ------ ------ ---- ---- ------- ----- -- ----<br>-------- ------- -- ---------- --- - new ----- ----- ----<br>---- --- --- ----- --- ---- ---- ------- ----- ---- -------<br>--- --- -- ----- -- --- ---- -- --- ---- -- ------ ------<br>--- ----- -- ----,177902.30000001192,177900.5,177437.946,177449,177454.542,177921.086,,24,new
screen,html.Screen,2_1_0_1_25,2022-02-03T15:38:26.075Z,,,,,,,,,,,,,,,,,53,,,,,,,,,,,,,,391.61400001787115,,response,,,,99,,,,,,,Space,keypress(Space),,,,,,,,---- -- ----- -- ------ - ------- --- ----------<br>------------- ------ ------ ---- ---- ------- ----- -- ----<br>-------- ------- -- ---------- --- - --- study ----- ----<br>---- --- --- ----- --- ---- ---- ------- ----- ---- -------<br>--- --- -- ----- -- --- ---- -- --- ---- -- ------ ------<br>--- ----- -- ----,178314.60000002384,178312.70000001788,177904.258,177902.90000000596,177921.086,178320.467,,25,study
screen,html.Screen,2_1_0_1_26,2022-02-03T15:38:26.473Z,,,,,,,,,,,,,,,,,53,,,,,,,,,,,,,,391.0329999999958,,response,,,,99,,,,,,,Space,keypress(Space),,,,,,,,---- -- ----- -- ------ - ------- --- ----------<br>------------- ------ ------ ---- ---- ------- ----- -- ----<br>-------- ------- -- ---------- --- - --- ----- finds ----<br>---- --- --- ----- --- ---- ---- ------- ----- ---- -------<br>--- --- -- ----- -- --- ---- -- --- ---- -- ------ ------<br>--- ----- -- ----,178713.40000000596,178711.5,178303.882,178315.10000002384,178320.467,178720.084,,26,finds
screen,html.Screen,2_1_0_1_27,2022-02-03T15:38:26.895Z,,,,,,,,,,,,,,,,,53,,,,,,,,,,,,,,413.3160000059579,,response,,,,99,,,,,,,Space,keypress(Space),,,,,,,,---- -- ----- -- ------ - ------- --- ----------<br>------------- ------ ------ ---- ---- ------- ----- -- ----<br>-------- ------- -- ---------- --- - --- ----- ----- that<br>---- --- --- ----- --- ---- ---- ------- ----- ---- -------<br>--- --- -- ----- -- --- ---- -- --- ---- -- ------ ------<br>--- ----- -- ----,179135.20000001788,179133.40000000596,178703.482,178714,178720.084,179153.095,,27,that
screen,html.Screen,2_1_0_1_28,2022-02-03T15:38:27.465Z,,,,,,,,,,,,,,,,,53,,,,,,,,,,,,,,549.7050000119198,,response,,,,99,,,,,,,Space,keypress(Space),,,,,,,,---- -- ----- -- ------ - ------- --- ----------<br>------------- ------ ------ ---- ---- ------- ----- -- ----<br>-------- ------- -- ---------- --- - --- ----- ----- ----<br>it's --- --- ----- --- ---- ---- ------- ----- ---- -------<br>--- --- -- ----- -- --- ---- -- --- ---- -- ------ ------<br>--- ----- -- ----,179704.70000001788,179702.80000001192,179136.393,179135.90000000596,179153.095,179719.074,,28,it's
screen,html.Screen,2_1_0_1_29,2022-02-03T15:38:28.020Z,,,,,,,,,,,,,,,,,53,,,,,,,,,,,,,,538.8260000059672,,response,,,,99,,,,,,,Space,keypress(Space),,,,,,,,---- -- ----- -- ------ - ------- --- ----------<br>------------- ------ ------ ---- ---- ------- ----- -- ----<br>-------- ------- -- ---------- --- - --- ----- ----- ----<br>---- not --- ----- --- ---- ---- ------- ----- ---- -------<br>--- --- -- ----- -- --- ---- -- --- ---- -- ------ ------<br>--- ----- -- ----,180259.80000001192,180257.90000000596,179702.506,179705.30000001192,179719.074,180268.523,,29,not
screen,html.Screen,2_1_0_1_30,2022-02-03T15:38:28.443Z,,,,,,,,,,,,,,,,,53,,,,,,,,,,,,,,412.07700002385536,,response,,,,99,,,,,,,Space,keypress(Space),,,,,,,,---- -- ----- -- ------ - ------- --- ----------<br>------------- ------ ------ ---- ---- ------- ----- -- ----<br>-------- ------- -- ---------- --- - --- ----- ----- ----<br>---- --- how ----- --- ---- ---- ------- ----- ---- -------<br>--- --- -- ----- -- --- ---- -- --- ---- -- ------ ------<br>--- ----- -- ----,180682.60000002384,180680.60000002384,180251.961,180260.5,180268.523,180701.674,,30,how
screen,html.Screen,2_1_0_1_31,2022-02-03T15:38:28.884Z,,,,,,,,,,,,,,,,,53,,,,,,,,,,,,,,420.0260000178823,,response,,,,99,,,,,,,Space,keypress(Space),,,,,,,,---- -- ----- -- ------ - ------- --- ----------<br>------------- ------ ------ ---- ---- ------- ----- -- ----<br>-------- ------- -- ---------- --- - --- ----- ----- ----<br>---- --- --- close --- ---- ---- ------- ----- ---- -------<br>--- --- -- ----- -- --- ---- -- --- ---- -- ------ ------<br>--- ----- -- ----,181123.5,181121.70000001788,180684.867,180683.30000001192,180701.674,181134.282,,31,close
screen,html.Screen,2_1_0_1_32,2022-02-03T15:38:29.357Z,,,,,,,,,,,,,,,,,53,,,,,,,,,,,,,,461.0180000119144,,response,,,,99,,,,,,,Space,keypress(Space),,,,,,,,---- -- ----- -- ------ - ------- --- ----------<br>------------- ------ ------ ---- ---- ------- ----- -- ----<br>-------- ------- -- ---------- --- - --- ----- ----- ----<br>---- --- --- ----- you ---- ---- ------- ----- ---- -------<br>--- --- -- ----- -- --- ---- -- --- ---- -- ------ ------<br>--- ----- -- ----,181597.10000002384,181595.30000001192,181117.671,181124.10000002384,181134.282,181621.488,,32,you
screen,html.Screen,2_1_0_1_33,2022-02-03T15:38:29.833Z,,,,,,,,,,,,,,,,,53,,,,,,,,,,,,,,449.3120000119088,,response,,,,99,,,,,,,Space,keypress(Space),,,,,,,,---- -- ----- -- ------ - ------- --- ----------<br>------------- ------ ------ ---- ---- ------- ----- -- ----<br>-------- ------- -- ---------- --- - --- ----- ----- ----<br>---- --- --- ----- --- feel ---- ------- ----- ---- -------<br>--- --- -- ----- -- --- ---- -- --- ---- -- ------ ------<br>--- ----- -- ----,182072.60000002384,182070.80000001192,181583.985,181597.70000001788,181621.488,182083.347,,33,feel
screen,html.Screen,2_1_0_1_34,2022-02-03T15:38:30.249Z,,,,,,,,,,,,,,,,,53,,,,,,,,,,,,,,404.0530000059516,,response,,,,99,,,,,,,Space,keypress(Space),,,,,,,,---- -- ----- -- ------ - ------- --- ----------<br>------------- ------ ------ ---- ---- ------- ----- -- ----<br>-------- ------- -- ---------- --- - --- ----- ----- ----<br>---- --- --- ----- --- ---- that ------- ----- ---- -------<br>--- --- -- ----- -- --- ---- -- --- ---- -- ------ ------<br>--- ----- -- ----,182489.20000001788,182487.40000000596,182066.857,182073.20000001788,182083.347,182499.622,,34,that
screen,html.Screen,2_1_0_1_35,2022-02-03T15:38:30.755Z,,,,,,,,,,,,,,,,,53,,,,,,,,,,,,,,490.57800001787837,,response,,,,99,,,,,,,Space,keypress(Space),,,,,,,,---- -- ----- -- ------ - ------- --- ----------<br>------------- ------ ------ ---- ---- ------- ----- -- ----<br>-------- ------- -- ---------- --- - --- ----- ----- ----<br>---- --- --- ----- --- ---- ---- matters ----- ---- -------<br>--- --- -- ----- -- --- ---- -- --- ---- -- ------ ------<br>--- ----- -- ----,182994.60000002384,182990.20000001788,182483.113,182489.70000001788,182499.622,182999.232,,35,matters
screen,html.Screen,2_1_0_1_36,2022-02-03T15:38:31.256Z,,,,,,,,,,,,,,,,,53,,,,,,,,,,,,,,494.46800001789234,,response,,,,99,,,,,,,Space,keypress(Space),,,,,,,,"---- -- ----- -- ------ - ------- --- ----------<br>------------- ------ ------ ---- ---- ------- ----- -- ----<br>-------- ------- -- ---------- --- - --- ----- ----- ----<br>---- --- --- ----- --- ---- ---- ------- most, ---- -------<br>--- --- -- ----- -- --- ---- -- --- ---- -- ------ ------<br>--- ----- -- ----",183495.70000001788,183493.70000001788,182982.623,182995.20000001788,182999.232,183515.455,,36,"most,"
screen,html.Screen,2_1_0_1_37,2022-02-03T15:38:31.778Z,,,,,,,,,,,,,,,,,53,,,,,,,,,,,,,,500.44500000597327,,response,,,,99,,,,,,,Space,keypress(Space),,,,,,,,---- -- ----- -- ------ - ------- --- ----------<br>------------- ------ ------ ---- ---- ------- ----- -- ----<br>-------- ------- -- ---------- --- - --- ----- ----- ----<br>---- --- --- ----- --- ---- ---- ------- ----- it's -------<br>--- --- -- ----- -- --- ---- -- --- ---- -- ------ ------<br>--- ----- -- ----,184017.80000001192,184015.90000000596,183482.14,183496.30000001192,183515.455,184031.544,,37,it's
screen,html.Screen,2_1_0_1_38,2022-02-03T15:38:32.340Z,,,,,,,,,,,,,,,,,53,,,,,,,,,,,,,,546.2560000119265,,response,,,,99,,,,,,,Space,keypress(Space),,,,,,,,---- -- ----- -- ------ - ------- --- ----------<br>------------- ------ ------ ---- ---- ------- ----- -- ----<br>-------- ------- -- ---------- --- - --- ----- ----- ----<br>---- --- --- ----- --- ---- ---- ------- ----- ---- whether<br>--- --- -- ----- -- --- ---- -- --- ---- -- ------ ------<br>--- ----- -- ----,184579.60000002384,184577.80000001192,184014.949,184018.40000000596,184031.544,184597.887,,38,whether
screen,html.Screen,2_1_0_1_39,2022-02-03T15:38:32.894Z,,,,,,,,,,,,,,,,,53,,,,,,,,,,,,,,534.5130000059726,,response,,,,99,,,,,,,Space,keypress(Space),,,,,,,,---- -- ----- -- ------ - ------- --- ----------<br>------------- ------ ------ ---- ---- ------- ----- -- ----<br>-------- ------- -- ---------- --- - --- ----- ----- ----<br>---- --- --- ----- --- ---- ---- ------- ----- ---- -------<br>you --- -- ----- -- --- ---- -- --- ---- -- ------ ------<br>--- ----- -- ----,185134.30000001192,185132.40000000596,184581.061,184580.20000001788,184597.887,185147.013,,39,you
screen,html.Screen,2_1_0_1_40,2022-02-03T15:38:33.358Z,,,,,,,,,,,,,,,,,53,,,,,,,,,,,,,,448.9869999999937,,response,,,,99,,,,,,,Space,keypress(Space),,,,,,,,---- -- ----- -- ------ - ------- --- ----------<br>------------- ------ ------ ---- ---- ------- ----- -- ----<br>-------- ------- -- ---------- --- - --- ----- ----- ----<br>---- --- --- ----- --- ---- ---- ------- ----- ---- -------<br>--- are -- ----- -- --- ---- -- --- ---- -- ------ ------<br>--- ----- -- ----,185597.70000001788,185596,185130.526,185134.90000000596,185147.013,185613.329,,40,are
screen,html.Screen,2_1_0_1_41,2022-02-03T15:38:33.827Z,,,,,,,,,,,,,,,,,53,,,,,,,,,,,,,,452.27100002384395,,response,,,,99,,,,,,,Space,keypress(Space),,,,,,,,---- -- ----- -- ------ - ------- --- ----------<br>------------- ------ ------ ---- ---- ------- ----- -- ----<br>-------- ------- -- ---------- --- - --- ----- ----- ----<br>---- --- --- ----- --- ---- ---- ------- ----- ---- -------<br>--- --- as ----- -- --- ---- -- --- ---- -- ------ ------<br>--- ----- -- ----,186067.40000000596,186065.60000002384,185596.737,185598.30000001192,185613.329,186079.485,,41,as
screen,html.Screen,2_1_0_1_42,2022-02-03T15:38:34.278Z,,,,,,,,,,,,,,,,,53,,,,,,,,,,,,,,436.3150000119349,,response,,,,99,,,,,,,Space,keypress(Space),,,,,,,,---- -- ----- -- ------ - ------- --- ----------<br>------------- ------ ------ ---- ---- ------- ----- -- ----<br>-------- ------- -- ---------- --- - --- ----- ----- ----<br>---- --- --- ----- --- ---- ---- ------- ----- ---- -------<br>--- --- -- close -- --- ---- -- --- ---- -- ------ ------<br>--- ----- -- ----,186517.60000002384,186515.80000001192,186062.943,186068,186079.485,186529.005,,42,close
screen,html.Screen,2_1_0_1_43,2022-02-03T15:38:34.761Z,,,,,,,,,,,,,,,,,53,,,,,,,,,,,,,,470.49499999999534,,response,,,,99,,,,,,,Space,keypress(Space),,,,,,,,---- -- ----- -- ------ - ------- --- ----------<br>------------- ------ ------ ---- ---- ------- ----- -- ----<br>-------- ------- -- ---------- --- - --- ----- ----- ----<br>---- --- --- ----- --- ---- ---- ------- ----- ---- -------<br>--- --- -- ----- as --- ---- -- --- ---- -- ------ ------<br>--- ----- -- ----,187001.40000000596,186999.5,186512.507,186518.20000001788,186529.005,187011.894,,43,as
screen,html.Screen,2_1_0_1_44,2022-02-03T15:38:35.147Z,,,,,,,,,,,,,,,,,53,,,,,,,,,,,,,,373.10599999999977,,response,,,,99,,,,,,,Space,keypress(Space),,,,,,,,---- -- ----- -- ------ - ------- --- ----------<br>------------- ------ ------ ---- ---- ------- ----- -- ----<br>-------- ------- -- ---------- --- - --- ----- ----- ----<br>---- --- --- ----- --- ---- ---- ------- ----- ---- -------<br>--- --- -- ----- -- you ---- -- --- ---- -- ------ ------<br>--- ----- -- ----,187387.30000001192,187385,186995.364,187002,187011.894,187394.834,,44,you
screen,html.Screen,2_1_0_1_45,2022-02-03T15:38:35.724Z,,,,,,,,,,,,,,,,,53,,,,,,,,,,,,,,567.3660000178788,,response,,,,99,,,,,,,Space,keypress(Space),,,,,,,,---- -- ----- -- ------ - ------- --- ----------<br>------------- ------ ------ ---- ---- ------- ----- -- ----<br>-------- ------- -- ---------- --- - --- ----- ----- ----<br>---- --- --- ----- --- ---- ---- ------- ----- ---- -------<br>--- --- -- ----- -- --- want -- --- ---- -- ------ ------<br>--- ----- -- ----,187964,187962.20000001788,187378.186,187388,187394.834,187977.718,,45,want
screen,html.Screen,2_1_0_1_46,2022-02-03T15:38:36.149Z,,,,,,,,,,,,,,,,,53,,,,,,,,,,,,,,409.7820000000065,,response,,,,99,,,,,,,Space,keypress(Space),,,,,,,,---- -- ----- -- ------ - ------- --- ----------<br>------------- ------ ------ ---- ---- ------- ----- -- ----<br>-------- ------- -- ---------- --- - --- ----- ----- ----<br>---- --- --- ----- --- ---- ---- ------- ----- ---- -------<br>--- --- -- ----- -- --- ---- to --- ---- -- ------ ------<br>--- ----- -- ----,188389.20000001788,188387.5,187960.949,187964.60000002384,187977.718,188393.949,,46,to
screen,html.Screen,2_1_0_1_47,2022-02-03T15:38:36.886Z,,,,,,,,,,,,,,,,,53,,,,,,,,,,,,,,729.8510000119277,,response,,,,99,,,,,,,Space,keypress(Space),,,,,,,,"---- -- ----- -- ------ - ------- --- ----------<br>------------- ------ ------ ---- ---- ------- ----- -- ----<br>-------- ------- -- ---------- --- - --- ----- ----- ----<br>---- --- --- ----- --- ---- ---- ------- ----- ---- -------<br>--- --- -- ----- -- --- ---- -- be, ---- -- ------ ------<br>--- ----- -- ----",189125.70000001788,189123.80000001192,188377.338,188389.80000001192,188393.949,189143.418,,47,"be,"
screen,html.Screen,2_1_0_1_48,2022-02-03T15:38:37.466Z,,,,,,,,,,,,,,,,,53,,,,,,,,,,,,,,560.7820000178763,,response,,,,99,,,,,,,Space,keypress(Space),,,,,,,,---- -- ----- -- ------ - ------- --- ----------<br>------------- ------ ------ ---- ---- ------- ----- -- ----<br>-------- ------- -- ---------- --- - --- ----- ----- ----<br>---- --- --- ----- --- ---- ---- ------- ----- ---- -------<br>--- --- -- ----- -- --- ---- -- --- even -- ------ ------<br>--- ----- -- ----,189706.20000001788,189704.20000001788,189126.456,189126.20000001788,189143.418,189730.281,,48,even
screen,html.Screen,2_1_0_1_49,2022-02-03T15:38:38.010Z,,,,,,,,,,,,,,,,,53,,,,,,,,,,,,,,517.6190000059723,,response,,,,99,,,,,,,Space,keypress(Space),,,,,,,,---- -- ----- -- ------ - ------- --- ----------<br>------------- ------ ------ ---- ---- ------- ----- -- ----<br>-------- ------- -- ---------- --- - --- ----- ----- ----<br>---- --- --- ----- --- ---- ---- ------- ----- ---- -------<br>--- --- -- ----- -- --- ---- -- --- ---- if ------ ------<br>--- ----- -- ----,190249.70000001788,190247.90000000596,189692.714,189706.70000001788,189730.281,190258.694,,49,if
screen,html.Screen,2_1_0_1_50,2022-02-03T15:38:38.502Z,,,,,,,,,,,,,,,,,53,,,,,,,,,,,,,,481.90600002385327,,response,,,,99,,,,,,,Space,keypress(Space),,,,,,,,---- -- ----- -- ------ - ------- --- ----------<br>------------- ------ ------ ---- ---- ------- ----- -- ----<br>-------- ------- -- ---------- --- - --- ----- ----- ----<br>---- --- --- ----- --- ---- ---- ------- ----- ---- -------<br>--- --- -- ----- -- --- ---- -- --- ---- -- that's ------<br>--- ----- -- ----,190742.40000000596,190740.60000002384,190242.209,190250.40000000596,190258.694,190758.399,,50,that's
screen,html.Screen,2_1_0_1_51,2022-02-03T15:38:38.993Z,,,,,,,,,,,,,,,,,53,,,,,,,,,,,,,,472.3010000178765,,response,,,,99,,,,,,,Space,keypress(Space),,,,,,,,---- -- ----- -- ------ - ------- --- ----------<br>------------- ------ ------ ---- ---- ------- ----- -- ----<br>-------- ------- -- ---------- --- - --- ----- ----- ----<br>---- --- --- ----- --- ---- ---- ------- ----- ---- -------<br>--- --- -- ----- -- --- ---- -- --- ---- -- ------ really<br>--- ----- -- ----,191232.5,191230.70000001788,190741.695,190743,190758.399,191241.07,,51,really
screen,html.Screen,2_1_0_1_52,2022-02-03T15:38:39.430Z,,,,,,,,,,,,,,,,,53,,,,,,,,,,,,,,426.929999999993,,response,,,,99,,,,,,,Space,keypress(Space),,,,,,,,---- -- ----- -- ------ - ------- --- ----------<br>------------- ------ ------ ---- ---- ------- ----- -- ----<br>-------- ------- -- ---------- --- - --- ----- ----- ----<br>---- --- --- ----- --- ---- ---- ------- ----- ---- -------<br>--- --- -- ----- -- --- ---- -- --- ---- -- ------ ------<br>not ----- -- ----,191670.20000001788,191668,191224.56,191233.10000002384,191241.07,191674.065,,52,not
screen,html.Screen,2_1_0_1_53,2022-02-03T15:38:39.846Z,,,,,,,,,,,,,,,,,53,,,,,,,,,,,,,,410.13500001787907,,response,,,,99,,,,,,,Space,keypress(Space),,,,,,,,---- -- ----- -- ------ - ------- --- ----------<br>------------- ------ ------ ---- ---- ------- ----- -- ----<br>-------- ------- -- ---------- --- - --- ----- ----- ----<br>---- --- --- ----- --- ---- ---- ------- ----- ---- -------<br>--- --- -- ----- -- --- ---- -- --- ---- -- ------ ------<br>--- close -- ----,192085.90000000596,192084.20000001788,191657.473,191670.70000001788,191674.065,192090.243,,53,close
screen,html.Screen,2_1_0_1_54,2022-02-03T15:38:40.264Z,,,,,,,,,,,,,,,,,53,,,,,,,,,,,,,,411.6570000059728,,response,,,,99,,,,,,,Space,keypress(Space),,,,,,,,---- -- ----- -- ------ - ------- --- ----------<br>------------- ------ ------ ---- ---- ------- ----- -- ----<br>-------- ------- -- ---------- --- - --- ----- ----- ----<br>---- --- --- ----- --- ---- ---- ------- ----- ---- -------<br>--- --- -- ----- -- --- ---- -- --- ---- -- ------ ------<br>--- ----- at ----,192503.90000000596,192501.90000000596,192073.736,192086.5,192090.243,192523.304,,54,at
screen,html.Screen,2_1_0_1_55,2022-02-03T15:38:40.689Z,,,,,,,,,,,,,,,,,53,,,,,,,,,,,,,,403.9960000119172,,response,,,,99,,,,,,,Space,keypress(Space),,,,,,,,---- -- ----- -- ------ - ------- --- ----------<br>------------- ------ ------ ---- ---- ------- ----- -- ----<br>-------- ------- -- ---------- --- - --- ----- ----- ----<br>---- --- --- ----- --- ---- ---- ------- ----- ---- -------<br>--- --- -- ----- -- --- ---- -- --- ---- -- ------ ------<br>--- ----- -- all.,192929.10000002384,192927.30000001192,192489.989,192504.40000000596,192523.304,192956.149,,55,all.
Item 99,flow.Loop,2_1_0_1,2022-02-03T15:38:40.690Z,,,,,,,,,,,,,,,,,,,,,,,,,,,,,,,36951.67600001191,,completion,,,,,B,,,,,,,,,,,silence,,,,,192930.40000000596,192927.30000001192,155908.97,155913.10000002384,155975.624,192956.149,,,
Question 1,html.Screen,2_1_0_2,2022-02-03T15:38:49.869Z,,,,,,,,,,,,,,,,,,,,,,,,,,,,true,FALSE,,9149.551000017877,,response,,,,99,B,,,,,,FALSE,click #choice-2,,,,silence,,,,,202108.70000001788,202105.70000001788,192922.763,192931,192956.149,202113.774,,,
Question 2,html.Screen,2_1_0_3,2022-02-03T15:38:56.310Z,,,,,,,,,,,,,,,,,,,,,,,,,,,,true,TRUE,,6432.725999999995,,response,,,,99,B,,,,,,TRUE,click #choice-1,,,,silence,,,,,208549.70000001788,208546.5,202097.258,202109.30000001192,202113.774,208557.486,,,
Item 99,flow.Sequence,2_1_0,2022-02-03T15:38:56.311Z,,,,,,,,,,,,,,,,,,,,,,,,,,,,,,,62627.65599999999,,completion,,,,,,,,,,,,,,,,,,,,,208550.80000001192,208546.5,145885.606,145901.90000000596,145918.844,208557.486,,,
Holding screen,html.Screen,2_1_1_0,2022-02-03T15:39:06.310Z,,,,,,,,,,,,,,,,,,,,,,,,,,,,,,,10006.856999999989,,timeout,,,,,,,,,,,,,,,,,,,,,218549.70000001788,218547.835,208540.955,208551.5,208557.486,218564.343,,,
screen,html.Screen,2_1_1_1_0,2022-02-03T15:39:07.428Z,,,,,,,,,,,,,,,,,54,,,,,,,,,,,,,,1100.557000005967,,response,,,,100,,,,,,,Space,keypress(Space),,,,,,,,At --- ---- --- ------ ----- ------- ---- -- --- ------- --<br>------- ---------- ------ -- ----- -- ----- -- ---- ------<br>--- ----- --- --- ------ -------- ----- --- ------ ----- --<br>----- ----- ---------- --- --- ------ ------ ---- -- ------<br>------- --- ------ ----- --- ---- ------- -- ---- --- --<br>------- ------,219667.30000001192,219664.90000000596,218547.835,218550.5,218564.343,219679.899,,0,At
screen,html.Screen,2_1_1_1_1,2022-02-03T15:39:07.819Z,,,,,,,,,,,,,,,,,54,,,,,,,,,,,,,,376.1009999999951,,response,,,,100,,,,,,,Space,keypress(Space),,,,,,,,-- the ---- --- ------ ----- ------- ---- -- --- ------- --<br>------- ---------- ------ -- ----- -- ----- -- ---- ------<br>--- ----- --- --- ------ -------- ----- --- ------ ----- --<br>----- ----- ---------- --- --- ------ ------ ---- -- ------<br>------- --- ------ ----- --- ---- ------- -- ---- --- --<br>------- ------,220057.80000001192,220056,219663.383,219667.90000000596,219679.899,220062.884,,1,the
screen,html.Screen,2_1_1_1_2,2022-02-03T15:39:08.238Z,,,,,,,,,,,,,,,,,54,,,,,,,,,,,,,,412.3160000178905,,response,,,,100,,,,,,,Space,keypress(Space),,,,,,,,-- --- time --- ------ ----- ------- ---- -- --- ------- --<br>------- ---------- ------ -- ----- -- ----- -- ---- ------<br>--- ----- --- --- ------ -------- ----- --- ------ ----- --<br>----- ----- ---------- --- --- ------ ------ ---- -- ------<br>------- --- ------ ----- --- ---- ------- -- ---- --- --<br>------- ------,220477.10000002384,220475.20000001788,220046.34,220058.40000000596,220062.884,220496.09,,2,time
screen,html.Screen,2_1_1_1_3,2022-02-03T15:39:08.562Z,,,,,,,,,,,,,,,,,54,,,,,,,,,,,,,,303.2100000119244,,response,,,,100,,,,,,,Space,keypress(Space),,,,,,,,-- --- ---- the ------ ----- ------- ---- -- --- ------- --<br>------- ---------- ------ -- ----- -- ----- -- ---- ------<br>--- ----- --- --- ------ -------- ----- --- ------ ----- --<br>----- ----- ---------- --- --- ------ ------ ---- -- ------<br>------- --- ------ ----- --- ---- ------- -- ---- --- --<br>------- ------,220801.10000002384,220799.30000001192,220479.259,220477.60000002384,220496.09,220812.133,,3,the
screen,html.Screen,2_1_1_1_4,2022-02-03T15:39:09.045Z,,,,,,,,,,,,,,,,,54,,,,,,,,,,,,,,470.06700001787976,,response,,,,100,,,,,,,Space,keypress(Space),,,,,,,,-- --- ---- --- French ----- ------- ---- -- --- ------- --<br>------- ---------- ------ -- ----- -- ----- -- ---- ------<br>--- ----- --- --- ------ -------- ----- --- ------ ----- --<br>----- ----- ---------- --- --- ------ ------ ---- -- ------<br>------- --- ------ ----- --- ---- ------- -- ---- --- --<br>------- ------,221284.20000001788,221282.20000001788,220795.628,220801.70000001788,220812.133,221295.036,,4,French
screen,html.Screen,2_1_1_1_5,2022-02-03T15:39:09.436Z,,,,,,,,,,,,,,,,,54,,,,,,,,,,,,,,377.8640000059677,,response,,,,100,,,,,,,Space,keypress(Space),,,,,,,,-- --- ---- --- ------ crown ------- ---- -- --- ------- --<br>------- ---------- ------ -- ----- -- ----- -- ---- ------<br>--- ----- --- --- ------ -------- ----- --- ------ ----- --<br>----- ----- ---------- --- --- ------ ------ ---- -- ------<br>------- --- ------ ----- --- ---- ------- -- ---- --- --<br>------- ------,221674.80000001192,221672.90000000596,221278.485,221284.80000001192,221295.036,221697.529,,5,crown
screen,html.Screen,2_1_1_1_6,2022-02-03T15:39:10.186Z,,,,,,,,,,,,,,,,,54,,,,,,,,,,,,,,726.1710000178718,,response,,,,100,,,,,,,Space,keypress(Space),,,,,,,,-- --- ---- --- ------ ----- secured ---- -- --- ------- --<br>------- ---------- ------ -- ----- -- ----- -- ---- ------<br>--- ----- --- --- ------ -------- ----- --- ------ ----- --<br>----- ----- ---------- --- --- ------ ------ ---- -- ------<br>------- --- ------ ----- --- ---- ------- -- ---- --- --<br>------- ------,222425.5,222423.70000001788,221661.441,221675.40000000596,221697.529,222444.176,,6,secured
screen,html.Screen,2_1_1_1_7,2022-02-03T15:39:10.613Z,,,,,,,,,,,,,,,,,54,,,,,,,,,,,,,,406.7240000059537,,response,,,,100,,,,,,,Space,keypress(Space),,,,,,,,-- --- ---- --- ------ ----- ------- much -- --- ------- --<br>------- ---------- ------ -- ----- -- ----- -- ---- ------<br>--- ----- --- --- ------ -------- ----- --- ------ ----- --<br>----- ----- ---------- --- --- ------ ------ ---- -- ------<br>------- --- ------ ----- --- ---- ------- -- ---- --- --<br>------- ------,222852.70000001788,222850.90000000596,222427.353,222426.10000002384,222444.176,222860.131,,7,much
screen,html.Screen,2_1_1_1_8,2022-02-03T15:39:11.027Z,,,,,,,,,,,,,,,,,54,,,,,,,,,,,,,,404.06900001788745,,response,,,,100,,,,,,,Space,keypress(Space),,,,,,,,-- --- ---- --- ------ ----- ------- ---- of --- ------- --<br>------- ---------- ------ -- ----- -- ----- -- ---- ------<br>--- ----- --- --- ------ -------- ----- --- ------ ----- --<br>----- ----- ---------- --- --- ------ ------ ---- -- ------<br>------- --- ------ ----- --- ---- ------- -- ---- --- --<br>------- ------,223266,223264.20000001788,222843.473,222853.20000001788,222860.131,223276.414,,8,of
screen,html.Screen,2_1_1_1_9,2022-02-03T15:39:11.383Z,,,,,,,,,,,,,,,,,54,,,,,,,,,,,,,,344.08600000001024,,response,,,,100,,,,,,,Space,keypress(Space),,,,,,,,-- --- ---- --- ------ ----- ------- ---- -- its ------- --<br>------- ---------- ------ -- ----- -- ----- -- ---- ------<br>--- ----- --- --- ------ -------- ----- --- ------ ----- --<br>----- ----- ---------- --- --- ------ ------ ---- -- ------<br>------- --- ------ ----- --- ---- ------- -- ---- --- --<br>------- ------,223622.30000001192,223620.5,223259.878,223266.5,223276.414,223642.999,,9,its
screen,html.Screen,2_1_1_1_10,2022-02-03T15:39:11.961Z,,,,,,,,,,,,,,,,,54,,,,,,,,,,,,,,555.9010000059498,,response,,,,100,,,,,,,Space,keypress(Space),,,,,,,,-- --- ---- --- ------ ----- ------- ---- -- --- revenue --<br>------- ---------- ------ -- ----- -- ----- -- ---- ------<br>--- ----- --- --- ------ -------- ----- --- ------ ----- --<br>----- ----- ---------- --- --- ------ ------ ---- -- ------<br>------- --- ------ ----- --- ---- ------- -- ---- --- --<br>------- ------,224200.70000001788,224198.90000000596,223626.188,223625.40000000596,223642.999,224208.891,,10,revenue
screen,html.Screen,2_1_1_1_11,2022-02-03T15:39:12.368Z,,,,,,,,,,,,,,,,,54,,,,,,,,,,,,,,396.60899999999674,,response,,,,100,,,,,,,Space,keypress(Space),,,,,,,,-- --- ---- --- ------ ----- ------- ---- -- --- ------- by<br>------- ---------- ------ -- ----- -- ----- -- ---- ------<br>--- ----- --- --- ------ -------- ----- --- ------ ----- --<br>----- ----- ---------- --- --- ------ ------ ---- -- ------<br>------- --- ------ ----- --- ---- ------- -- ---- --- --<br>------- ------,224607.30000001192,224605.5,224192.3,224201.30000001192,224208.891,224625.34,,11,by
screen,html.Screen,2_1_1_1_12,2022-02-03T15:39:12.838Z,,,,,,,,,,,,,,,,,54,,,,,,,,,,,,,,449.56000000596396,,response,,,,100,,,,,,,Space,keypress(Space),,,,,,,,-- --- ---- --- ------ ----- ------- ---- -- --- ------- --<br>issuing ---------- ------ -- ----- -- ----- -- ---- ------<br>--- ----- --- --- ------ -------- ----- --- ------ ----- --<br>----- ----- ---------- --- --- ------ ------ ---- -- ------<br>------- --- ------ ----- --- ---- ------- -- ---- --- --<br>------- ------,225076.90000000596,225074.90000000596,224608.559,224607.90000000596,224625.34,225091.351,,12,issuing
screen,html.Screen,2_1_1_1_13,2022-02-03T15:39:13.346Z,,,,,,,,,,,,,,,,,54,,,,,,,,,,,,,,492.1490000000049,,response,,,,100,,,,,,,Space,keypress(Space),,,,,,,,-- --- ---- --- ------ ----- ------- ---- -- --- ------- --<br>------- government ------ -- ----- -- ----- -- ---- ------<br>--- ----- --- --- ------ -------- ----- --- ------ ----- --<br>----- ----- ---------- --- --- ------ ------ ---- -- ------<br>------- --- ------ ----- --- ---- ------- -- ---- --- --<br>------- ------,225585.60000002384,225583.5,225074.768,225077.40000000596,225091.351,225590.806,,13,government
screen,html.Screen,2_1_1_1_14,2022-02-03T15:39:13.829Z,,,,,,,,,,,,,,,,,54,,,,,,,,,,,,,,475.29400002383045,,response,,,,100,,,,,,,Space,keypress(Space),,,,,,,,-- --- ---- --- ------ ----- ------- ---- -- --- ------- --<br>------- ---------- bonds. -- ----- -- ----- -- ---- ------<br>--- ----- --- --- ------ -------- ----- --- ------ ----- --<br>----- ----- ---------- --- --- ------ ------ ---- -- ------<br>------- --- ------ ----- --- ---- ------- -- ---- --- --<br>------- ------,226068.10000002384,226066.10000002384,225574.272,225586.20000001788,225590.806,226073.743,,14,bonds.
screen,html.Screen,2_1_1_1_15,2022-02-03T15:39:14.311Z,,,,,,,,,,,,,,,,,54,,,,,,,,,,,,,,475.05700001193327,,response,,,,100,,,,,,,Space,keypress(Space),,,,,,,,-- --- ---- --- ------ ----- ------- ---- -- --- ------- --<br>------- ---------- ------ In ----- -- ----- -- ---- ------<br>--- ----- --- --- ------ -------- ----- --- ------ ----- --<br>----- ----- ---------- --- --- ------ ------ ---- -- ------<br>------- --- ------ ----- --- ---- ------- -- ---- --- --<br>------- ------,226550.60000002384,226548.80000001192,226057.171,226068.70000001788,226073.743,226556.596,,15,In
screen,html.Screen,2_1_1_1_16,2022-02-03T15:39:14.682Z,,,,,,,,,,,,,,,,,54,,,,,,,,,,,,,,363.10400001789094,,response,,,,100,,,,,,,Space,keypress(Space),,,,,,,,"-- --- ---- --- ------ ----- ------- ---- -- --- ------- --<br>------- ---------- ------ -- 1727, -- ----- -- ---- ------<br>--- ----- --- --- ------ -------- ----- --- ------ ----- --<br>----- ----- ---------- --- --- ------ ------ ---- -- ------<br>------- --- ------ ----- --- ---- ------- -- ---- --- --<br>------- ------",226921.5,226919.70000001788,226539.993,226551.20000001788,226556.596,226939.778,,16,"1727,"
screen,html.Screen,2_1_1_1_17,2022-02-03T15:39:15.574Z,,,,,,,,,,,,,,,,,54,,,,,,,,,,,,,,871.5220000119298,,response,,,,100,,,,,,,Space,keypress(Space),,,,,,,,-- --- ---- --- ------ ----- ------- ---- -- --- ------- --<br>------- ---------- ------ -- ----- in ----- -- ---- ------<br>--- ----- --- --- ------ -------- ----- --- ------ ----- --<br>----- ----- ---------- --- --- ------ ------ ---- -- ------<br>------- --- ------ ----- --- ---- ------- -- ---- --- --<br>------- ------,227813.20000001788,227811.30000001192,226922.818,226922.10000002384,226939.778,227821.944,,17,in
screen,html.Screen,2_1_1_1_18,2022-02-03T15:39:16.186Z,,,,,,,,,,,,,,,,,54,,,,,,,,,,,,,,601.2560000178928,,response,,,,100,,,,,,,Space,keypress(Space),,,,,,,,-- --- ---- --- ------ ----- ------- ---- -- --- ------- --<br>------- ---------- ------ -- ----- -- order -- ---- ------<br>--- ----- --- --- ------ -------- ----- --- ------ ----- --<br>----- ----- ---------- --- --- ------ ------ ---- -- ------<br>------- --- ------ ----- --- ---- ------- -- ---- --- --<br>------- ------,228425.60000002384,228423.20000001788,227805.271,227813.80000001192,227821.944,228437.998,,18,order
screen,html.Screen,2_1_1_1_19,2022-02-03T15:39:16.621Z,,,,,,,,,,,,,,,,,54,,,,,,,,,,,,,,420.7020000178891,,response,,,,100,,,,,,,Space,keypress(Space),,,,,,,,-- --- ---- --- ------ ----- ------- ---- -- --- ------- --<br>------- ---------- ------ -- ----- -- ----- to ---- ------<br>--- ----- --- --- ------ -------- ----- --- ------ ----- --<br>----- ----- ---------- --- --- ------ ------ ---- -- ------<br>------- --- ------ ----- --- ---- ------- -- ---- --- --<br>------- ------,228860.5,228858.70000001788,228421.487,228426.5,228437.998,228870.958,,19,to
screen,html.Screen,2_1_1_1_20,2022-02-03T15:39:17.021Z,,,,,,,,,,,,,,,,,54,,,,,,,,,,,,,,387.6420000238286,,response,,,,100,,,,,,,Space,keypress(Space),,,,,,,,-- --- ---- --- ------ ----- ------- ---- -- --- ------- --<br>------- ---------- ------ -- ----- -- ----- -- save ------<br>--- ----- --- --- ------ -------- ----- --- ------ ----- --<br>----- ----- ---------- --- --- ------ ------ ---- -- ------<br>------- --- ------ ----- --- ---- ------- -- ---- --- --<br>------- ------,229260.60000002384,229258.60000002384,228854.404,228861,228870.958,229270.522,,20,save
screen,html.Screen,2_1_1_1_21,2022-02-03T15:39:17.905Z,,,,,,,,,,,,,,,,,54,,,,,,,,,,,,,,871.2780000119237,,response,,,,100,,,,,,,Space,keypress(Space),,,,,,,,"-- --- ---- --- ------ ----- ------- ---- -- --- ------- --<br>------- ---------- ------ -- ----- -- ----- -- ---- money,<br>--- ----- --- --- ------ -------- ----- --- ------ ----- --<br>----- ----- ---------- --- --- ------ ------ ---- -- ------<br>------- --- ------ ----- --- ---- ------- -- ---- --- --<br>------- ------",230143.80000001192,230141.80000001192,229254.009,229261.20000001788,229270.522,230153.077,,21,"money,"
screen,html.Screen,2_1_1_1_22,2022-02-03T15:39:18.307Z,,,,,,,,,,,,,,,,,54,,,,,,,,,,,,,,390.9230000000098,,response,,,,100,,,,,,,Space,keypress(Space),,,,,,,,-- --- ---- --- ------ ----- ------- ---- -- --- ------- --<br>------- ---------- ------ -- ----- -- ----- -- ---- ------<br>the ----- --- --- ------ -------- ----- --- ------ ----- --<br>----- ----- ---------- --- --- ------ ------ ---- -- ------<br>------- --- ------ ----- --- ---- ------- -- ---- --- --<br>------- ------,230545.70000001788,230544,230136.341,230144.40000000596,230153.077,230552.684,,22,the
screen,html.Screen,2_1_1_1_23,2022-02-03T15:39:18.711Z,,,,,,,,,,,,,,,,,54,,,,,,,,,,,,,,395.61600001191255,,response,,,,100,,,,,,,Space,keypress(Space),,,,,,,,-- --- ---- --- ------ ----- ------- ---- -- --- ------- --<br>------- ---------- ------ -- ----- -- ----- -- ---- ------<br>--- state --- --- ------ -------- ----- --- ------ ----- --<br>----- ----- ---------- --- --- ------ ------ ---- -- ------<br>------- --- ------ ----- --- ---- ------- -- ---- --- --<br>------- ------,230950.20000001788,230948.30000001192,230536.085,230546.40000000596,230552.684,230969.138,,23,state
screen,html.Screen,2_1_1_1_24,2022-02-03T15:39:19.144Z,,,,,,,,,,,,,,,,,54,,,,,,,,,,,,,,411.66200001191464,,response,,,,100,,,,,,,Space,keypress(Space),,,,,,,,-- --- ---- --- ------ ----- ------- ---- -- --- ------- --<br>------- ---------- ------ -- ----- -- ----- -- ---- ------<br>--- ----- cut --- ------ -------- ----- --- ------ ----- --<br>----- ----- ---------- --- --- ------ ------ ---- -- ------<br>------- --- ------ ----- --- ---- ------- -- ---- --- --<br>------- ------,231382.90000000596,231380.80000001192,230952.348,230950.80000001192,230969.138,231418.736,,24,cut
screen,html.Screen,2_1_1_1_25,2022-02-03T15:39:19.572Z,,,,,,,,,,,,,,,,,54,,,,,,,,,,,,,,390.66400000595604,,response,,,,100,,,,,,,Space,keypress(Space),,,,,,,,-- --- ---- --- ------ ----- ------- ---- -- --- ------- --<br>------- ---------- ------ -- ----- -- ----- -- ---- ------<br>--- ----- --- the ------ -------- ----- --- ------ ----- --<br>----- ----- ---------- --- --- ------ ------ ---- -- ------<br>------- --- ------ ----- --- ---- ------- -- ---- --- --<br>------- ------,231811.20000001788,231809.40000000596,231401.92,231383.5,231418.736,231818.047,,25,the
screen,html.Screen,2_1_1_1_26,2022-02-03T15:39:20.385Z,,,,,,,,,,,,,,,,,54,,,,,,,,,,,,,,804.5530000238505,,response,,,,100,,,,,,,Space,keypress(Space),,,,,,,,-- --- ---- --- ------ ----- ------- ---- -- --- ------- --<br>------- ---------- ------ -- ----- -- ----- -- ---- ------<br>--- ----- --- --- bonds' -------- ----- --- ------ ----- --<br>----- ----- ---------- --- --- ------ ------ ---- -- ------<br>------- --- ------ ----- --- ---- ------- -- ---- --- --<br>------- ------,232624.5,232622.60000002384,231801.521,231811.90000000596,231818.047,232633.92,,26,bonds'
screen,html.Screen,2_1_1_1_27,2022-02-03T15:39:21.328Z,,,,,,,,,,,,,,,,,54,,,,,,,,,,,,,,931.0799999999872,,response,,,,100,,,,,,,Space,keypress(Space),,,,,,,,-- --- ---- --- ------ ----- ------- ---- -- --- ------- --<br>------- ---------- ------ -- ----- -- ----- -- ---- ------<br>--- ----- --- --- ------ interest ----- --- ------ ----- --<br>----- ----- ---------- --- --- ------ ------ ---- -- ------<br>------- --- ------ ----- --- ---- ------- -- ---- --- --<br>------- ------,233566.80000001192,233565,232617.38,232625.20000001788,232633.92,233582.959,,27,interest
screen,html.Screen,2_1_1_1_28,2022-02-03T15:39:22.437Z,,,,,,,,,,,,,,,,,54,,,,,,,,,,,,,,1091.441000005958,,response,,,,100,,,,,,,Space,keypress(Space),,,,,,,,-- --- ---- --- ------ ----- ------- ---- -- --- ------- --<br>------- ---------- ------ -- ----- -- ----- -- ---- ------<br>--- ----- --- --- ------ -------- rate. --- ------ ----- --<br>----- ----- ---------- --- --- ------ ------ ---- -- ------<br>------- --- ------ ----- --- ---- ------- -- ---- --- --<br>------- ------,234676.10000002384,234674.40000000596,233566.437,233567.40000000596,233582.959,234681.981,,28,rate.
screen,html.Screen,2_1_1_1_29,2022-02-03T15:39:22.851Z,,,,,,,,,,,,,,,,,54,,,,,,,,,,,,,,406.4190000059607,,response,,,,100,,,,,,,Space,keypress(Space),,,,,,,,-- --- ---- --- ------ ----- ------- ---- -- --- ------- --<br>------- ---------- ------ -- ----- -- ----- -- ---- ------<br>--- ----- --- --- ------ -------- ----- The ------ ----- --<br>----- ----- ---------- --- --- ------ ------ ---- -- ------<br>------- --- ------ ----- --- ---- ------- -- ---- --- --<br>------- ------,235090.30000001192,235088.40000000596,234665.369,234676.70000001788,234681.981,235098.238,,29,The
screen,html.Screen,2_1_1_1_30,2022-02-03T15:39:23.611Z,,,,,,,,,,,,,,,,,54,,,,,,,,,,,,,,750.5620000119088,,response,,,,100,,,,,,,Space,keypress(Space),,,,,,,,-- --- ---- --- ------ ----- ------- ---- -- --- ------- --<br>------- ---------- ------ -- ----- -- ----- -- ---- ------<br>--- ----- --- --- ------ -------- ----- --- market ----- --<br>----- ----- ---------- --- --- ------ ------ ---- -- ------<br>------- --- ------ ----- --- ---- ------- -- ---- --- --<br>------- ------,235850.60000002384,235848.80000001192,235081.643,235091,235098.238,235864.076,,30,market
screen,html.Screen,2_1_1_1_31,2022-02-03T15:39:24.212Z,,,,,,,,,,,,,,,,,54,,,,,,,,,,,,,,584.8240000059595,,response,,,,100,,,,,,,Space,keypress(Space),,,,,,,,-- --- ---- --- ------ ----- ------- ---- -- --- ------- --<br>------- ---------- ------ -- ----- -- ----- -- ---- ------<br>--- ----- --- --- ------ -------- ----- --- ------ value --<br>----- ----- ---------- --- --- ------ ------ ---- -- ------<br>------- --- ------ ----- --- ---- ------- -- ---- --- --<br>------- ------,236451.30000001192,236448.90000000596,235847.552,235851.20000001788,235864.076,236480.338,,31,value
screen,html.Screen,2_1_1_1_32,2022-02-03T15:39:24.798Z,,,,,,,,,,,,,,,,,54,,,,,,,,,,,,,,555.3620000178926,,response,,,,100,,,,,,,Space,keypress(Space),,,,,,,,-- --- ---- --- ------ ----- ------- ---- -- --- ------- --<br>------- ---------- ------ -- ----- -- ----- -- ---- ------<br>--- ----- --- --- ------ -------- ----- --- ------ ----- of<br>----- ----- ---------- --- --- ------ ------ ---- -- ------<br>------- --- ------ ----- --- ---- ------- -- ---- --- --<br>------- ------,237037.40000000596,237035.70000001788,236446.97,236452,236480.338,237046.311,,32,of
screen,html.Screen,2_1_1_1_33,2022-02-03T15:39:25.195Z,,,,,,,,,,,,,,,,,54,,,,,,,,,,,,,,386.18900000001304,,response,,,,100,,,,,,,Space,keypress(Space),,,,,,,,-- --- ---- --- ------ ----- ------- ---- -- --- ------- --<br>------- ---------- ------ -- ----- -- ----- -- ---- ------<br>--- ----- --- --- ------ -------- ----- --- ------ ----- --<br>these ----- ---------- --- --- ------ ------ ---- -- ------<br>------- --- ------ ----- --- ---- ------- -- ---- --- --<br>------- ------,237434.30000001192,237432.5,237029.597,237038,237046.311,237445.845,,33,these
screen,html.Screen,2_1_1_1_34,2022-02-03T15:39:25.520Z,,,,,,,,,,,,,,,,,54,,,,,,,,,,,,,,311.35500001788023,,response,,,,100,,,,,,,Space,keypress(Space),,,,,,,,-- --- ---- --- ------ ----- ------- ---- -- --- ------- --<br>------- ---------- ------ -- ----- -- ----- -- ---- ------<br>--- ----- --- --- ------ -------- ----- --- ------ ----- --<br>----- bonds ---------- --- --- ------ ------ ---- -- ------<br>------- --- ------ ----- --- ---- ------- -- ---- --- --<br>------- ------,237759,237757.20000001788,237429.338,237434.90000000596,237445.845,237786.571,,34,bonds
screen,html.Screen,2_1_1_1_35,2022-02-03T15:39:26.100Z,,,,,,,,,,,,,,,,,54,,,,,,,,,,,,,,550.6290000178851,,response,,,,100,,,,,,,Space,keypress(Space),,,,,,,,"-- --- ---- --- ------ ----- ------- ---- -- --- ------- --<br>------- ---------- ------ -- ----- -- ----- -- ---- ------<br>--- ----- --- --- ------ -------- ----- --- ------ ----- --<br>----- ----- plummeted, --- --- ------ ------ ---- -- ------<br>------- --- ------ ----- --- ---- ------- -- ---- --- --<br>------- ------",238339.20000001788,238337.20000001788,237745.703,237759.60000002384,237786.571,238344.992,,35,"plummeted,"
screen,html.Screen,2_1_1_1_36,2022-02-03T15:39:26.517Z,,,,,,,,,,,,,,,,,54,,,,,,,,,,,,,,408.9080000059621,,response,,,,100,,,,,,,Space,keypress(Space),,,,,,,,-- --- ---- --- ------ ----- ------- ---- -- --- ------- --<br>------- ---------- ------ -- ----- -- ----- -- ---- ------<br>--- ----- --- --- ------ -------- ----- --- ------ ----- --<br>----- ----- ---------- and --- ------ ------ ---- -- ------<br>------- --- ------ ----- --- ---- ------- -- ---- --- --<br>------- ------,238755.80000001192,238753.90000000596,238328.424,238339.80000001192,238344.992,238761.315,,36,and
screen,html.Screen,2_1_1_1_37,2022-02-03T15:39:26.896Z,,,,,,,,,,,,,,,,,54,,,,,,,,,,,,,,371.78500002383953,,response,,,,100,,,,,,,Space,keypress(Space),,,,,,,,-- --- ---- --- ------ ----- ------- ---- -- --- ------- --<br>------- ---------- ------ -- ----- -- ----- -- ---- ------<br>--- ----- --- --- ------ -------- ----- --- ------ ----- --<br>----- ----- ---------- --- the ------ ------ ---- -- ------<br>------- --- ------ ----- --- ---- ------- -- ---- --- --<br>------- ------,239135,239133.10000002384,238744.719,238756.40000000596,238761.315,239144.225,,37,the
screen,html.Screen,2_1_1_1_38,2022-02-03T15:39:27.298Z,,,,,,,,,,,,,,,,,54,,,,,,,,,,,,,,391.17500000595464,,response,,,,100,,,,,,,Space,keypress(Space),,,,,,,,-- --- ---- --- ------ ----- ------- ---- -- --- ------- --<br>------- ---------- ------ -- ----- -- ----- -- ---- ------<br>--- ----- --- --- ------ -------- ----- --- ------ ----- --<br>----- ----- ---------- --- --- market ------ ---- -- ------<br>------- --- ------ ----- --- ---- ------- -- ---- --- --<br>------- ------,239537.10000002384,239535.40000000596,239127.683,239135.70000001788,239144.225,239543.794,,38,market
screen,html.Screen,2_1_1_1_39,2022-02-03T15:39:27.695Z,,,,,,,,,,,,,,,,,54,,,,,,,,,,,,,,388.10600000596605,,response,,,,100,,,,,,,Space,keypress(Space),,,,,,,,-- --- ---- --- ------ ----- ------- ---- -- --- ------- --<br>------- ---------- ------ -- ----- -- ----- -- ---- ------<br>--- ----- --- --- ------ -------- ----- --- ------ ----- --<br>----- ----- ---------- --- --- ------ became ---- -- ------<br>------- --- ------ ----- --- ---- ------- -- ---- --- --<br>------- ------,239933.70000001788,239931.90000000596,239527.28,239537.80000001192,239543.794,239943.414,,39,became
screen,html.Screen,2_1_1_1_40,2022-02-03T15:39:28.044Z,,,,,,,,,,,,,,,,,54,,,,,,,,,,,,,,337.4860000059707,,response,,,,100,,,,,,,Space,keypress(Space),,,,,,,,-- --- ---- --- ------ ----- ------- ---- -- --- ------- --<br>------- ---------- ------ -- ----- -- ----- -- ---- ------<br>--- ----- --- --- ------ -------- ----- --- ------ ----- --<br>----- ----- ---------- --- --- ------ ------ wary -- ------<br>------- --- ------ ----- --- ---- ------- -- ---- --- --<br>------- ------,240282.80000001192,240280.90000000596,239926.804,239934.30000001192,239943.414,240293.104,,40,wary
screen,html.Screen,2_1_1_1_41,2022-02-03T15:39:28.499Z,,,,,,,,,,,,,,,,,54,,,,,,,,,,,,,,442.8960000000079,,response,,,,100,,,,,,,Space,keypress(Space),,,,,,,,-- --- ---- --- ------ ----- ------- ---- -- --- ------- --<br>------- ---------- ------ -- ----- -- ----- -- ---- ------<br>--- ----- --- --- ------ -------- ----- --- ------ ----- --<br>----- ----- ---------- --- --- ------ ------ ---- of ------<br>------- --- ------ ----- --- ---- ------- -- ---- --- --<br>------- ------,240737.80000001192,240736,240276.552,240283.40000000596,240293.104,240742.72,,41,of
screen,html.Screen,2_1_1_1_42,2022-02-03T15:39:28.946Z,,,,,,,,,,,,,,,,,54,,,,,,,,,,,,,,440.58000001191976,,response,,,,100,,,,,,,Space,keypress(Space),,,,,,,,-- --- ---- --- ------ ----- ------- ---- -- --- ------- --<br>------- ---------- ------ -- ----- -- ----- -- ---- ------<br>--- ----- --- --- ------ -------- ----- --- ------ ----- --<br>----- ----- ---------- --- --- ------ ------ ---- -- French<br>------- --- ------ ----- --- ---- ------- -- ---- --- --<br>------- ------,241185,241183.30000001192,240726.12,240738.40000000596,240742.72,241192.282,,42,French
screen,html.Screen,2_1_1_1_43,2022-02-03T15:39:29.639Z,,,,,,,,,,,,,,,,,54,,,,,,,,,,,,,,684.118000005954,,response,,,,100,,,,,,,Space,keypress(Space),,,,,,,,-- --- ---- --- ------ ----- ------- ---- -- --- ------- --<br>------- ---------- ------ -- ----- -- ----- -- ---- ------<br>--- ----- --- --- ------ -------- ----- --- ------ ----- --<br>----- ----- ---------- --- --- ------ ------ ---- -- ------<br>credit. --- ------ ----- --- ---- ------- -- ---- --- --<br>------- ------,241878.20000001788,241876.40000000596,241175.677,241185.60000002384,241192.282,241891.585,,43,credit.
screen,html.Screen,2_1_1_1_44,2022-02-03T15:39:30.048Z,,,,,,,,,,,,,,,,,54,,,,,,,,,,,,,,394.2150000119291,,response,,,,100,,,,,,,Space,keypress(Space),,,,,,,,-- --- ---- --- ------ ----- ------- ---- -- --- ------- --<br>------- ---------- ------ -- ----- -- ----- -- ---- ------<br>--- ----- --- --- ------ -------- ----- --- ------ ----- --<br>----- ----- ---------- --- --- ------ ------ ---- -- ------<br>------- The ------ ----- --- ---- ------- -- ---- --- --<br>------- ------,242287.70000001788,242285.80000001192,241874.989,241878.80000001192,241891.585,242313.881,,44,The
screen,html.Screen,2_1_1_1_45,2022-02-03T15:39:30.463Z,,,,,,,,,,,,,,,,,54,,,,,,,,,,,,,,386.919000011927,,response,,,,100,,,,,,,Space,keypress(Space),,,,,,,,-- --- ---- --- ------ ----- ------- ---- -- --- ------- --<br>------- ---------- ------ -- ----- -- ----- -- ---- ------<br>--- ----- --- --- ------ -------- ----- --- ------ ----- --<br>----- ----- ---------- --- --- ------ ------ ---- -- ------<br>------- --- French ----- --- ---- ------- -- ---- --- --<br>------- ------,242702.5,242700.80000001192,242274.603,242288.40000000596,242313.881,242724.175,,45,French
screen,html.Screen,2_1_1_1_46,2022-02-03T15:39:30.896Z,,,,,,,,,,,,,,,,,54,,,,,,,,,,,,,,406.62500001193257,,response,,,,100,,,,,,,Space,keypress(Space),,,,,,,,-- --- ---- --- ------ ----- ------- ---- -- --- ------- --<br>------- ---------- ------ -- ----- -- ----- -- ---- ------<br>--- ----- --- --- ------ -------- ----- --- ------ ----- --<br>----- ----- ---------- --- --- ------ ------ ---- -- ------<br>------- --- ------ state --- ---- ------- -- ---- --- --<br>------- ------,243134.80000001192,243130.80000001192,242690.861,242705.40000000596,242724.175,243140.237,,46,state
screen,html.Screen,2_1_1_1_47,2022-02-03T15:39:31.290Z,,,,,,,,,,,,,,,,,54,,,,,,,,,,,,,,386.7630000000063,,response,,,,100,,,,,,,Space,keypress(Space),,,,,,,,-- --- ---- --- ------ ----- ------- ---- -- --- ------- --<br>------- ---------- ------ -- ----- -- ----- -- ---- ------<br>--- ----- --- --- ------ -------- ----- --- ------ ----- --<br>----- ----- ---------- --- --- ------ ------ ---- -- ------<br>------- --- ------ ----- was ---- ------- -- ---- --- --<br>------- ------,243528.90000000596,243527,243123.773,243135.5,243140.237,243539.884,,47,was
screen,html.Screen,2_1_1_1_48,2022-02-03T15:39:31.691Z,,,,,,,,,,,,,,,,,54,,,,,,,,,,,,,,388.6160000000091,,response,,,,100,,,,,,,Space,keypress(Space),,,,,,,,-- --- ---- --- ------ ----- ------- ---- -- --- ------- --<br>------- ---------- ------ -- ----- -- ----- -- ---- ------<br>--- ----- --- --- ------ -------- ----- --- ------ ----- --<br>----- ----- ---------- --- --- ------ ------ ---- -- ------<br>------- --- ------ ----- --- left ------- -- ---- --- --<br>------- ------,243930.30000001192,243928.5,243523.374,243529.5,243539.884,243939.488,,48,left
screen,html.Screen,2_1_1_1_49,2022-02-03T15:39:32.165Z,,,,,,,,,,,,,,,,,54,,,,,,,,,,,,,,462.91200000594836,,response,,,,100,,,,,,,Space,keypress(Space),,,,,,,,-- --- ---- --- ------ ----- ------- ---- -- --- ------- --<br>------- ---------- ------ -- ----- -- ----- -- ---- ------<br>--- ----- --- --- ------ -------- ----- --- ------ ----- --<br>----- ----- ---------- --- --- ------ ------ ---- -- ------<br>------- --- ------ ----- --- ---- without -- ---- --- --<br>------- ------,244404,244402.40000000596,243923.044,243931.10000002384,243939.488,244422.674,,49,without
screen,html.Screen,2_1_1_1_50,2022-02-03T15:39:32.502Z,,,,,,,,,,,,,,,,,54,,,,,,,,,,,,,,317.12600001192186,,response,,,,100,,,,,,,Space,keypress(Space),,,,,,,,-- --- ---- --- ------ ----- ------- ---- -- --- ------- --<br>------- ---------- ------ -- ----- -- ----- -- ---- ------<br>--- ----- --- --- ------ -------- ----- --- ------ ----- --<br>----- ----- ---------- --- --- ------ ------ ---- -- ------<br>------- --- ------ ----- --- ---- ------- an ---- --- --<br>------- ------,244741.60000002384,244739.80000001192,244405.767,244404.60000002384,244422.674,244755.449,,50,an
screen,html.Screen,2_1_1_1_51,2022-02-03T15:39:32.936Z,,,,,,,,,,,,,,,,,54,,,,,,,,,,,,,,417.8510000119277,,response,,,,100,,,,,,,Space,keypress(Space),,,,,,,,-- --- ---- --- ------ ----- ------- ---- -- --- ------- --<br>------- ---------- ------ -- ----- -- ----- -- ---- ------<br>--- ----- --- --- ------ -------- ----- --- ------ ----- --<br>----- ----- ---------- --- --- ------ ------ ---- -- ------<br>------- --- ------ ----- --- ---- ------- -- easy --- --<br>------- ------,245175.20000001788,245173.30000001192,244738.863,244742.30000001192,244755.449,245188.298,,51,easy
screen,html.Screen,2_1_1_1_52,2022-02-03T15:39:33.329Z,,,,,,,,,,,,,,,,,54,,,,,,,,,,,,,,377.8020000238321,,response,,,,100,,,,,,,Space,keypress(Space),,,,,,,,-- --- ---- --- ------ ----- ------- ---- -- --- ------- --<br>------- ---------- ------ -- ----- -- ----- -- ---- ------<br>--- ----- --- --- ------ -------- ----- --- ------ ----- --<br>----- ----- ---------- --- --- ------ ------ ---- -- ------<br>------- --- ------ ----- --- ---- ------- -- ---- way --<br>------- ------,245568,245566.10000002384,245171.703,245175.80000001192,245188.298,245591.928,,52,way
screen,html.Screen,2_1_1_1_53,2022-02-03T15:39:33.777Z,,,,,,,,,,,,,,,,,54,,,,,,,,,,,,,,422.07199999998556,,response,,,,100,,,,,,,Space,keypress(Space),,,,,,,,-- --- ---- --- ------ ----- ------- ---- -- --- ------- --<br>------- ---------- ------ -- ----- -- ----- -- ---- ------<br>--- ----- --- --- ------ -------- ----- --- ------ ----- --<br>----- ----- ---------- --- --- ------ ------ ---- -- ------<br>------- --- ------ ----- --- ---- ------- -- ---- --- of<br>------- ------,246015.90000000596,246014,245554.726,245568.60000002384,245591.928,246020.823,,53,of
screen,html.Screen,2_1_1_1_54,2022-02-03T15:39:34.326Z,,,,,,,,,,,,,,,,,54,,,,,,,,,,,,,,543.0770000059565,,response,,,,100,,,,,,,Space,keypress(Space),,,,,,,,-- --- ---- --- ------ ----- ------- ---- -- --- ------- --<br>------- ---------- ------ -- ----- -- ----- -- ---- ------<br>--- ----- --- --- ------ -------- ----- --- ------ ----- --<br>----- ----- ---------- --- --- ------ ------ ---- -- ------<br>------- --- ------ ----- --- ---- ------- -- ---- --- --<br>raising ------,246565.60000002384,246563.90000000596,246004.287,246016.5,246020.823,246570.271,,54,raising
screen,html.Screen,2_1_1_1_55,2022-02-03T15:39:34.720Z,,,,,,,,,,,,,,,,,54,,,,,,,,,,,,,,387.4290000178735,,response,,,,100,,,,,,,Space,keypress(Space),,,,,,,,-- --- ---- --- ------ ----- ------- ---- -- --- ------- --<br>------- ---------- ------ -- ----- -- ----- -- ---- ------<br>--- ----- --- --- ------ -------- ----- --- ------ ----- --<br>----- ----- ---------- --- --- ------ ------ ---- -- ------<br>------- --- ------ ----- --- ---- ------- -- ---- --- --<br>------- money.,246959.40000000596,246957.70000001788,246553.744,246566.20000001788,246570.271,246969.959,,55,money.
Item 100,flow.Loop,2_1_1_1,2022-02-03T15:39:34.721Z,,,,,,,,,,,,,,,,,,,,,,,,,,,,,,,28393.357000017888,,completion,,,,,B,,,,,,,,,,,silence,,,,,246960.30000001192,246957.70000001788,218547.835,218550.30000001192,218564.343,246969.959,,,
Question 1,html.Screen,2_1_1_2,2022-02-03T15:39:42.902Z,,,,,,,,,,,,,,,,,,,,,,,,,,,,true,TRUE,,8168.141000023839,,response,,,,100,B,,,,,,TRUE,click #choice-1,,,,silence,,,,,255140.90000000596,255138.10000002384,246953.353,246960.80000001192,246969.959,255161.937,,,
Question 2,html.Screen,2_1_1_3,2022-02-03T15:39:45.980Z,,,,,,,,,,,,,,,,,,,,,,,,,,,,true,FALSE,,3054.263000017876,,response,,,,100,B,,,,,,FALSE,click #choice-2,,,,silence,,,,,258219.20000001788,258216.20000001788,255128.555,255141.60000002384,255161.937,258225.549,,,
Item 100,flow.Sequence,2_1_1,2022-02-03T15:39:45.981Z,,,,,,,,,,,,,,,,,,,,,,,,,,,,,,,49658.71400001788,,completion,,,,,,,,,,,,,,,,,,,,,258220.40000000596,258216.20000001788,208540.955,208551.30000001192,208557.486,258225.549,,,
End of Practice,html.Page,2_1_2,2022-02-03T15:39:51.665Z,,,,,,,,,,,,,,,,,,,,,,,,,,,,,,,5677.751000011922,,form submission,,,,,,,,,,,,,,,,,,,,,263904.40000000596,263903.3000000119,258209.008,258221,258225.549,263921.916,,,
Practice,flow.Sequence,2_1,2022-02-03T15:39:51.666Z,,,,,,,,,,,,,,,,,,,,,,,,,,,,,,,117984.45600001191,,completion,,,,,,,,,,,,,,,,,,,,,263905.40000000596,263903.3000000119,145885.606,145901.60000002384,145918.844,263921.916,,,
Trap_instruction,html.Page,2_2_0,2022-02-03T15:39:56.302Z,,,,,,,,,,,,,,,,,,,,,,,,,,,,,,,4618.484000005934,,form submission,,,,,,,,,,,,,,,,,,,,,268541.40000000596,268540.40000000596,263886.639,263906.2000000179,263921.916,268615.349,,,
trap_trial,html.Screen,2_2_1,2022-02-03T15:40:01.634Z,,,,,,,,,,,,,,,,,,,,,,,,,,,,true,1,,5254.651000000013,,response,,,,,,,,,,,1,click #choice-1,,,,,,,,,273872.7000000179,273870,268532.249,268542,268615.349,273876.951,,,
end of trap trial,html.Page,2_2_2,2022-02-03T15:40:04.085Z,,,,,,,,,,,,,,,,,,,,,,,,,,,,,,,2445.84900001192,,form submission,,,,,,,,,,,,,,,,,,,,,276323.8000000119,276322.8000000119,273860.27,273873.40000000596,273876.951,276324.499,,,
Trap 1,flow.Sequence,2_2,2022-02-03T15:40:04.086Z,,,,,,,,,,,,,,,,,,,,,,,,,,,,,,,12400.884000011894,,completion,,,,,,,,,,,,,,,,,,,,,276325.5,276322.8000000119,263886.639,263906,263921.916,276324.499,,,
Standby,html.Page,2_3_0,2022-02-03T15:40:12.063Z,,,,,,,,,,,,,,,,,,,,,,,,,,,,,,,7992.173999999999,,timeout,,,,,,,,,,,,,,,,,,,,,284302.10000002384,284300.044,276307.971,276326.60000002384,276324.499,284316.673,,,
Holding screen,html.Screen,2_3_1_0_0,2022-02-03T15:40:19.056Z,,,,,,,,,,,,,,,,,,,,,,,,,,,,,,,6993.170999999973,,timeout,,,,,,,,,,,,,,,,,,,,,291295.40000000596,291293.31,284300.044,284303.3000000119,284316.673,291309.844,,,
screen,html.Screen,2_3_1_0_1_0,2022-02-03T15:40:19.995Z,,,,,,,,,,,,,,,,,48,,,,,,,,,,,,,,921.6560000000172,,response,,,,10,B,,,,,,Space,keypress(Space),,,,lyrical,,,,As -- --- ------ ------- --------- ----------- --------<br>--------- -------- --- ------- -- ------- ---- -- ------<br>-- --- -------- -------- ---------- ---- ---- ---- ------<br>-- --------- -- ---- -- --- -- --- ------- -- - -----<br>---------- -- -- -- ---- ----- -- ------ -- --- ------<br>-------,292234.10000002384,292231.5,291293.31,291296.3000000119,291309.844,292242.231,,0,As
screen,html.Screen,2_3_1_0_1_1,2022-02-03T15:40:20.611Z,,,,,,,,,,,,,,,,,48,,,,,,,,,,,,,,605.1690000059316,,response,,,,10,B,,,,,,Space,keypress(Space),,,,lyrical,,,,-- in --- ------ ------- --------- ----------- --------<br>--------- -------- --- ------- -- ------- ---- -- ------<br>-- --- -------- -------- ---------- ---- ---- ---- ------<br>-- --------- -- ---- -- --- -- --- ------- -- - -----<br>---------- -- -- -- ---- ----- -- ------ -- --- ------<br>-------,292849.7000000179,292847.40000000596,292225.708,292234.8000000119,292242.231,292858.305,,1,in
screen,html.Screen,2_3_1_0_1_2,2022-02-03T15:40:21.003Z,,,,,,,,,,,,,,,,,48,,,,,,,,,,,,,,381.695000000007,,response,,,,10,B,,,,,,Space,keypress(Space),,,,lyrical,,,,-- -- the ------ ------- --------- ----------- --------<br>--------- -------- --- ------- -- ------- ---- -- ------<br>-- --- -------- -------- ---------- ---- ---- ---- ------<br>-- --------- -- ---- -- --- -- --- ------- -- - -----<br>---------- -- -- -- ---- ----- -- ------ -- --- ------<br>-------,293241.8000000119,293240,292841.782,292850.3000000119,292858.305,293257.937,,2,the
screen,html.Screen,2_3_1_0_1_3,2022-02-03T15:40:21.474Z,,,,,,,,,,,,,,,,,48,,,,,,,,,,,,,,453.06300000002375,,response,,,,10,B,,,,,,Space,keypress(Space),,,,lyrical,,,,-- -- --- United ------- --------- ----------- --------<br>--------- -------- --- ------- -- ------- ---- -- ------<br>-- --- -------- -------- ---------- ---- ---- ---- ------<br>-- --------- -- ---- -- --- -- --- ------- -- - -----<br>---------- -- -- -- ---- ----- -- ------ -- --- ------<br>-------,293712.8000000119,293711,293241.389,293242.3000000119,293257.937,293724.096,,3,United
screen,html.Screen,2_3_1_0_1_4,2022-02-03T15:40:22.032Z,,,,,,,,,,,,,,,,,48,,,,,,,,,,,,,,545.0040000238223,,response,,,,10,B,,,,,,Space,keypress(Space),,,,lyrical,,,,"-- -- --- ------ States, --------- ----------- --------<br>--------- -------- --- ------- -- ------- ---- -- ------<br>-- --- -------- -------- ---------- ---- ---- ---- ------<br>-- --------- -- ---- -- --- -- --- ------- -- - -----<br>---------- -- -- -- ---- ----- -- ------ -- --- ------<br>-------",294270.90000000596,294269.10000002384,293707.594,293713.40000000596,293724.096,294298.031,,4,"States,"
screen,html.Screen,2_3_1_0_1_5,2022-02-03T15:40:22.483Z,,,,,,,,,,,,,,,,,48,,,,,,,,,,,,,,422.06900002382463,,response,,,,10,B,,,,,,Space,keypress(Space),,,,lyrical,,,,-- -- --- ------ ------- Colombian ----------- --------<br>--------- -------- --- ------- -- ------- ---- -- ------<br>-- --- -------- -------- ---------- ---- ---- ---- ------<br>-- --------- -- ---- -- --- -- --- ------- -- - -----<br>---------- -- -- -- ---- ----- -- ------ -- --- ------<br>-------,294721.90000000596,294720.10000002384,294256.991,294271.60000002384,294298.031,294740.087,,5,Colombian
screen,html.Screen,2_3_1_0_1_6,2022-02-03T15:40:23.104Z,,,,,,,,,,,,,,,,,48,,,,,,,,,,,,,,600.9130000000005,,response,,,,10,B,,,,,,Space,keypress(Space),,,,lyrical,,,,-- -- --- ------ ------- --------- legislation --------<br>--------- -------- --- ------- -- ------- ---- -- ------<br>-- --- -------- -------- ---------- ---- ---- ---- ------<br>-- --------- -- ---- -- --- -- --- ------- -- - -----<br>---------- -- -- -- ---- ----- -- ------ -- --- ------<br>-------,295342.8000000119,295341,294723.275,294722.5,294740.087,295355.891,,6,legislation
screen,html.Screen,2_3_1_0_1_7,2022-02-03T15:40:23.536Z,,,,,,,,,,,,,,,,,48,,,,,,,,,,,,,,417.10899999999674,,response,,,,10,B,,,,,,Space,keypress(Space),,,,lyrical,,,,-- -- --- ------ ------- --------- ----------- requires<br>--------- -------- --- ------- -- ------- ---- -- ------<br>-- --- -------- -------- ---------- ---- ---- ---- ------<br>-- --------- -- ---- -- --- -- --- ------- -- - -----<br>---------- -- -- -- ---- ----- -- ------ -- --- ------<br>-------,295774.90000000596,295773,295339.337,295343.40000000596,295355.891,295788.715,,7,requires
screen,html.Screen,2_3_1_0_1_8,2022-02-03T15:40:24.131Z,,,,,,,,,,,,,,,,,48,,,,,,,,,,,,,,578.8850000238162,,response,,,,10,B,,,,,,Space,keypress(Space),,,,lyrical,,,,-- -- --- ------ ------- --------- ----------- --------<br>travelers -------- --- ------- -- ------- ---- -- ------<br>-- --- -------- -------- ---------- ---- ---- ---- ------<br>-- --------- -- ---- -- --- -- --- ------- -- - -----<br>---------- -- -- -- ---- ----- -- ------ -- --- ------<br>-------,296369.7000000179,296367.60000002384,295772.153,295775.40000000596,295788.715,296388.325,,8,travelers
screen,html.Screen,2_3_1_0_1_9,2022-02-03T15:40:24.706Z,,,,,,,,,,,,,,,,,48,,,,,,,,,,,,,,554.7750000238302,,response,,,,10,B,,,,,,Space,keypress(Space),,,,lyrical,,,,-- -- --- ------ ------- --------- ----------- --------<br>--------- entering --- ------- -- ------- ---- -- ------<br>-- --- -------- -------- ---------- ---- ---- ---- ------<br>-- --------- -- ---- -- --- -- --- ------- -- - -----<br>---------- -- -- -- ---- ----- -- ------ -- --- ------<br>-------,296944.90000000596,296943.10000002384,296371.641,296370.3000000119,296388.325,296954.372,,9,entering
screen,html.Screen,2_3_1_0_1_10,2022-02-03T15:40:25.109Z,,,,,,,,,,,,,,,,,48,,,,,,,,,,,,,,391.928000011947,,response,,,,10,B,,,,,,Space,keypress(Space),,,,lyrical,,,,-- -- --- ------ ------- --------- ----------- --------<br>--------- -------- the ------- -- ------- ---- -- ------<br>-- --- -------- -------- ---------- ---- ---- ---- ------<br>-- --------- -- ---- -- --- -- --- ------- -- - -----<br>---------- -- -- -- ---- ----- -- ------ -- --- ------<br>-------,297348.7000000179,297346.3000000119,296937.662,296945.5,296954.372,297353.909,,10,the
screen,html.Screen,2_3_1_0_1_11,2022-02-03T15:40:26.002Z,,,,,,,,,,,,,,,,,48,,,,,,,,,,,,,,884.8910000119358,,response,,,,10,B,,,,,,Space,keypress(Space),,,,lyrical,,,,-- -- --- ------ ------- --------- ----------- --------<br>--------- -------- --- country -- ------- ---- -- ------<br>-- --- -------- -------- ---------- ---- ---- ---- ------<br>-- --------- -- ---- -- --- -- --- ------- -- - -----<br>---------- -- -- -- ---- ----- -- ------ -- --- ------<br>-------,298240.7000000179,298238.8000000119,297337.385,297349.2000000179,297353.909,298253.101,,11,country
screen,html.Screen,2_3_1_0_1_12,2022-02-03T15:40:26.422Z,,,,,,,,,,,,,,,,,48,,,,,,,,,,,,,,406.5990000178572,,response,,,,10,B,,,,,,Space,keypress(Space),,,,lyrical,,,,-- -- --- ------ ------- --------- ----------- --------<br>--------- -------- --- ------- to ------- ---- -- ------<br>-- --- -------- -------- ---------- ---- ---- ---- ------<br>-- --------- -- ---- -- --- -- --- ------- -- - -----<br>---------- -- -- -- ---- ----- -- ------ -- --- ------<br>-------,298661.5,298659.7000000179,298236.497,298241.3000000119,298253.101,298669.346,,12,to
screen,html.Screen,2_3_1_0_1_13,2022-02-03T15:40:27.093Z,,,,,,,,,,,,,,,,,48,,,,,,,,,,,,,,660.8540000178618,,response,,,,10,B,,,,,,Space,keypress(Space),,,,lyrical,,,,-- -- --- ------ ------- --------- ----------- --------<br>--------- -------- --- ------- -- declare ---- -- ------<br>-- --- -------- -------- ---------- ---- ---- ---- ------<br>-- --------- -- ---- -- --- -- --- ------- -- - -----<br>---------- -- -- -- ---- ----- -- ------ -- --- ------<br>-------,299332,299330.2000000179,298652.857,298662.10000002384,298669.346,299335.284,,13,declare
screen,html.Screen,2_3_1_0_1_14,2022-02-03T15:40:27.604Z,,,,,,,,,,,,,,,,,48,,,,,,,,,,,,,,505.7160000000149,,response,,,,10,B,,,,,,Space,keypress(Space),,,,lyrical,,,,-- -- --- ------ ------- --------- ----------- --------<br>--------- -------- --- ------- -- ------- cash -- ------<br>-- --- -------- -------- ---------- ---- ---- ---- ------<br>-- --------- -- ---- -- --- -- --- ------- -- - -----<br>---------- -- -- -- ---- ----- -- ------ -- --- ------<br>-------,299842.7000000179,299841,299318.766,299332.60000002384,299335.284,299851.499,,14,cash
screen,html.Screen,2_3_1_0_1_15,2022-02-03T15:40:28.129Z,,,,,,,,,,,,,,,,,48,,,,,,,,,,,,,,514.5009999999893,,response,,,,10,B,,,,,,Space,keypress(Space),,,,lyrical,,,,-- -- --- ------ ------- --------- ----------- --------<br>--------- -------- --- ------- -- ------- ---- in ------<br>-- --- -------- -------- ---------- ---- ---- ---- ------<br>-- --------- -- ---- -- --- -- --- ------- -- - -----<br>---------- -- -- -- ---- ----- -- ------ -- --- ------<br>-------,300367.90000000596,300366,299834.99,299843.3000000119,299851.499,300384.431,,15,in
screen,html.Screen,2_3_1_0_1_16,2022-02-03T15:40:28.741Z,,,,,,,,,,,,,,,,,48,,,,,,,,,,,,,,593.7690000178991,,response,,,,10,B,,,,,,Space,keypress(Space),,,,lyrical,,,,-- -- --- ------ ------- --------- ----------- --------<br>--------- -------- --- ------- -- ------- ---- -- excess<br>-- --- -------- -------- ---------- ---- ---- ---- ------<br>-- --------- -- ---- -- --- -- --- ------- -- - -----<br>---------- -- -- -- ---- ----- -- ------ -- --- ------<br>-------,300980.10000002384,300978.2000000179,300367.612,300368.5,300384.431,300983.663,,16,excess
screen,html.Screen,2_3_1_0_1_17,2022-02-03T15:40:29.156Z,,,,,,,,,,,,,,,,,48,,,,,,,,,,,,,,409.63700001192046,,response,,,,10,B,,,,,,Space,keypress(Space),,,,lyrical,,,,-- -- --- ------ ------- --------- ----------- --------<br>--------- -------- --- ------- -- ------- ---- -- ------<br>of --- -------- -------- ---------- ---- ---- ---- ------<br>-- --------- -- ---- -- --- -- --- ------- -- - -----<br>---------- -- -- -- ---- ----- -- ------ -- --- ------<br>-------,301395.10000002384,301393.3000000119,300967.016,300980.7000000179,300983.663,301399.936,,17,of
screen,html.Screen,2_3_1_0_1_18,2022-02-03T15:40:29.518Z,,,,,,,,,,,,,,,,,48,,,,,,,,,,,,,,355.36400001193397,,response,,,,10,B,,,,,,Space,keypress(Space),,,,lyrical,,,,-- -- --- ------ ------- --------- ----------- --------<br>--------- -------- --- ------- -- ------- ---- -- ------<br>-- ten -------- -------- ---------- ---- ---- ---- ------<br>-- --------- -- ---- -- --- -- --- ------- -- - -----<br>---------- -- -- -- ---- ----- -- ------ -- --- ------<br>-------,301757.10000002384,301755.3000000119,301383.418,301395.7000000179,301399.936,301766.237,,18,ten
screen,html.Screen,2_3_1_0_1_19,2022-02-03T15:40:29.978Z,,,,,,,,,,,,,,,,,48,,,,,,,,,,,,,,448.9630000178586,,response,,,,10,B,,,,,,Space,keypress(Space),,,,lyrical,,,,-- -- --- ------ ------- --------- ----------- --------<br>--------- -------- --- ------- -- ------- ---- -- ------<br>-- --- thousand -------- ---------- ---- ---- ---- ------<br>-- --------- -- ---- -- --- -- --- ------- -- - -----<br>---------- -- -- -- ---- ----- -- ------ -- --- ------<br>-------,302216.90000000596,302215.2000000179,301749.734,301757.7000000179,301766.237,302232.442,,19,thousand
screen,html.Screen,2_3_1_0_1_20,2022-02-03T15:40:30.351Z,,,,,,,,,,,,,,,,,48,,,,,,,,,,,,,,355.95800000597956,,response,,,,10,B,,,,,,Space,keypress(Space),,,,lyrical,,,,-- -- --- ------ ------- --------- ----------- --------<br>--------- -------- --- ------- -- ------- ---- -- ------<br>-- --- -------- dollars. ---------- ---- ---- ---- ------<br>-- --------- -- ---- -- --- -- --- ------- -- - -----<br>---------- -- -- -- ---- ----- -- ------ -- --- ------<br>-------,302590.60000002384,302588.40000000596,302215.833,302217.5,302232.442,302598.745,,20,dollars.
screen,html.Screen,2_3_1_0_1_21,2022-02-03T15:40:30.893Z,,,,,,,,,,,,,,,,,48,,,,,,,,,,,,,,531.3550000238465,,response,,,,10,B,,,,,,Space,keypress(Space),,,,lyrical,,,,-- -- --- ------ ------- --------- ----------- --------<br>--------- -------- --- ------- -- ------- ---- -- ------<br>-- --- -------- -------- Concealing ---- ---- ---- ------<br>-- --------- -- ---- -- --- -- --- ------- -- - -----<br>---------- -- -- -- ---- ----- -- ------ -- --- ------<br>-------,303131.90000000596,303130.10000002384,302582.243,302591.2000000179,302598.745,303148.399,,21,Concealing
screen,html.Screen,2_3_1_0_1_22,2022-02-03T15:40:31.308Z,,,,,,,,,,,,,,,,,48,,,,,,,,,,,,,,396.90100001194514,,response,,,,10,B,,,,,,Space,keypress(Space),,,,lyrical,,,,-- -- --- ------ ------- --------- ----------- --------<br>--------- -------- --- ------- -- ------- ---- -- ------<br>-- --- -------- -------- ---------- more ---- ---- ------<br>-- --------- -- ---- -- --- -- --- ------- -- - -----<br>---------- -- -- -- ---- ----- -- ------ -- --- ------<br>-------,303547,303545.3000000119,303131.712,303132.40000000596,303148.399,303564.785,,22,more
screen,html.Screen,2_3_1_0_1_23,2022-02-03T15:40:31.663Z,,,,,,,,,,,,,,,,,48,,,,,,,,,,,,,,335.6150000059861,,response,,,,10,B,,,,,,Space,keypress(Space),,,,lyrical,,,,-- -- --- ------ ------- --------- ----------- --------<br>--------- -------- --- ------- -- ------- ---- -- ------<br>-- --- -------- -------- ---------- ---- than ---- ------<br>-- --------- -- ---- -- --- -- --- ------- -- - -----<br>---------- -- -- -- ---- ----- -- ------ -- --- ------<br>-------,303902.3000000119,303900.40000000596,303547.962,303547.7000000179,303564.785,303914.123,,23,than
screen,html.Screen,2_3_1_0_1_24,2022-02-03T15:40:32.244Z,,,,,,,,,,,,,,,,,48,,,,,,,,,,,,,,567.6770000118995,,response,,,,10,B,,,,,,Space,keypress(Space),,,,lyrical,,,,-- -- --- ------ ------- --------- ----------- --------<br>--------- -------- --- ------- -- ------- ---- -- ------<br>-- --- -------- -------- ---------- ---- ---- that ------<br>-- --------- -- ---- -- --- -- --- ------- -- - -----<br>---------- -- -- -- ---- ----- -- ------ -- --- ------<br>-------,304483.5,304481.8000000119,303897.638,303902.90000000596,303914.123,304497.013,,24,that
screen,html.Screen,2_3_1_0_1_25,2022-02-03T15:40:32.836Z,,,,,,,,,,,,,,,,,48,,,,,,,,,,,,,,573.7870000119437,,response,,,,10,B,,,,,,Space,keypress(Space),,,,lyrical,,,,-- -- --- ------ ------- --------- ----------- --------<br>--------- -------- --- ------- -- ------- ---- -- ------<br>-- --- -------- -------- ---------- ---- ---- ---- amount<br>-- --------- -- ---- -- --- -- --- ------- -- - -----<br>---------- -- -- -- ---- ----- -- ------ -- --- ------<br>-------,305074.8000000119,305070.8000000119,304480.383,304484.10000002384,304497.013,305079.749,,25,amount
screen,html.Screen,2_3_1_0_1_26,2022-02-03T15:40:33.400Z,,,,,,,,,,,,,,,,,48,,,,,,,,,,,,,,557.4510000178707,,response,,,,10,B,,,,,,Space,keypress(Space),,,,lyrical,,,,-- -- --- ------ ------- --------- ----------- --------<br>--------- -------- --- ------- -- ------- ---- -- ------<br>-- --- -------- -------- ---------- ---- ---- ---- ------<br>to --------- -- ---- -- --- -- --- ------- -- - -----<br>---------- -- -- -- ---- ----- -- ------ -- --- ------<br>-------,305639.10000002384,305637.2000000179,305063.007,305075.40000000596,305079.749,305645.807,,26,to
screen,html.Screen,2_3_1_0_1_27,2022-02-03T15:40:34.563Z,,,,,,,,,,,,,,,,,48,,,,,,,,,,,,,,1154.4930000119493,,response,,,,10,B,,,,,,Space,keypress(Space),,,,lyrical,,,,-- -- --- ------ ------- --------- ----------- --------<br>--------- -------- --- ------- -- ------- ---- -- ------<br>-- --- -------- -------- ---------- ---- ---- ---- ------<br>-- transport -- ---- -- --- -- --- ------- -- - -----<br>---------- -- -- -- ---- ----- -- ------ -- --- ------<br>-------,306802.10000002384,306800.3000000119,305629.261,305639.8000000119,305645.807,306811.34,,27,transport
screen,html.Screen,2_3_1_0_1_28,2022-02-03T15:40:35.048Z,,,,,,,,,,,,,,,,,48,,,,,,,,,,,,,,474.4600000118953,,response,,,,10,B,,,,,,Space,keypress(Space),,,,lyrical,,,,-- -- --- ------ ------- --------- ----------- --------<br>--------- -------- --- ------- -- ------- ---- -- ------<br>-- --- -------- -------- ---------- ---- ---- ---- ------<br>-- --------- it ---- -- --- -- --- ------- -- - -----<br>---------- -- -- -- ---- ----- -- ------ -- --- ------<br>-------,307287.40000000596,307285.8000000119,306794.676,306802.7000000179,306811.34,307294.194,,28,it
screen,html.Screen,2_3_1_0_1_29,2022-02-03T15:40:35.496Z,,,,,,,,,,,,,,,,,48,,,,,,,,,,,,,,439.20600000594277,,response,,,,10,B,,,,,,Space,keypress(Space),,,,lyrical,,,,-- -- --- ------ ------- --------- ----------- --------<br>--------- -------- --- ------- -- ------- ---- -- ------<br>-- --- -------- -------- ---------- ---- ---- ---- ------<br>-- --------- -- into -- --- -- --- ------- -- - -----<br>---------- -- -- -- ---- ----- -- ------ -- --- ------<br>-------,307735.2000000179,307733.40000000596,307277.657,307288.2000000179,307294.194,307743.729,,29,into
screen,html.Screen,2_3_1_0_1_30,2022-02-03T15:40:36.057Z,,,,,,,,,,,,,,,,,48,,,,,,,,,,,,,,550.2710000000079,,response,,,,10,B,,,,,,Space,keypress(Space),,,,lyrical,,,,-- -- --- ------ ------- --------- ----------- --------<br>--------- -------- --- ------- -- ------- ---- -- ------<br>-- --- -------- -------- ---------- ---- ---- ---- ------<br>-- --------- -- ---- or --- -- --- ------- -- - -----<br>---------- -- -- -- ---- ----- -- ------ -- --- ------<br>-------,308295.8000000119,308294,307727.213,307735.7000000179,307743.729,308310.038,,30,or
screen,html.Screen,2_3_1_0_1_31,2022-02-03T15:40:36.503Z,,,,,,,,,,,,,,,,,48,,,,,,,,,,,,,,430.36200000596,,response,,,,10,B,,,,,,Space,keypress(Space),,,,lyrical,,,,-- -- --- ------ ------- --------- ----------- --------<br>--------- -------- --- ------- -- ------- ---- -- ------<br>-- --- -------- -------- ---------- ---- ---- ---- ------<br>-- --------- -- ---- -- out -- --- ------- -- - -----<br>---------- -- -- -- ---- ----- -- ------ -- --- ------<br>-------,308742.2000000179,308740.40000000596,308293.328,308296.3000000119,308310.038,308759.591,,31,out
screen,html.Screen,2_3_1_0_1_32,2022-02-03T15:40:36.876Z,,,,,,,,,,,,,,,,,48,,,,,,,,,,,,,,353.6090000178665,,response,,,,10,B,,,,,,Space,keypress(Space),,,,lyrical,,,,-- -- --- ------ ------- --------- ----------- --------<br>--------- -------- --- ------- -- ------- ---- -- ------<br>-- --- -------- -------- ---------- ---- ---- ---- ------<br>-- --------- -- ---- -- --- of --- ------- -- - -----<br>---------- -- -- -- ---- ----- -- ------ -- --- ------<br>-------,309115,309113.2000000179,308742.875,308742.90000000596,308759.591,309125.718,,32,of
screen,html.Screen,2_3_1_0_1_33,2022-02-03T15:40:37.277Z,,,,,,,,,,,,,,,,,48,,,,,,,,,,,,,,388.2820000000065,,response,,,,10,B,,,,,,Space,keypress(Space),,,,lyrical,,,,-- -- --- ------ ------- --------- ----------- --------<br>--------- -------- --- ------- -- ------- ---- -- ------<br>-- --- -------- -------- ---------- ---- ---- ---- ------<br>-- --------- -- ---- -- --- -- the ------- -- - -----<br>---------- -- -- -- ---- ----- -- ------ -- --- ------<br>-------,309515.8000000119,309514,309109.202,309115.60000002384,309125.718,309525.295,,33,the
screen,html.Screen,2_3_1_0_1_34,2022-02-03T15:40:37.652Z,,,,,,,,,,,,,,,,,48,,,,,,,,,,,,,,364.2050000000163,,response,,,,10,B,,,,,,Space,keypress(Space),,,,lyrical,,,,-- -- --- ------ ------- --------- ----------- --------<br>--------- -------- --- ------- -- ------- ---- -- ------<br>-- --- -------- -------- ---------- ---- ---- ---- ------<br>-- --------- -- ---- -- --- -- --- country -- - -----<br>---------- -- -- -- ---- ----- -- ------ -- --- ------<br>-------,309891.5,309889.5,309508.711,309516.40000000596,309525.295,309908.525,,34,country
screen,html.Screen,2_3_1_0_1_35,2022-02-03T15:40:38.034Z,,,,,,,,,,,,,,,,,48,,,,,,,,,,,,,,362.77500001189765,,response,,,,10,B,,,,,,Space,keypress(Space),,,,lyrical,,,,-- -- --- ------ ------- --------- ----------- --------<br>--------- -------- --- ------- -- ------- ---- -- ------<br>-- --- -------- -------- ---------- ---- ---- ---- ------<br>-- --------- -- ---- -- --- -- --- ------- is - -----<br>---------- -- -- -- ---- ----- -- ------ -- --- ------<br>-------,310273.10000002384,310271.3000000119,309891.674,309892.10000002384,309908.525,310291.552,,35,is
screen,html.Screen,2_3_1_0_1_36,2022-02-03T15:40:38.502Z,,,,,,,,,,,,,,,,,48,,,,,,,,,,,,,,447.5480000238167,,response,,,,10,B,,,,,,Space,keypress(Space),,,,lyrical,,,,-- -- --- ------ ------- --------- ----------- --------<br>--------- -------- --- ------- -- ------- ---- -- ------<br>-- --- -------- -------- ---------- ---- ---- ---- ------<br>-- --------- -- ---- -- --- -- --- ------- -- a -----<br>---------- -- -- -- ---- ----- -- ------ -- --- ------<br>-------,310740.8000000119,310739.10000002384,310274.725,310273.60000002384,310291.552,310757.508,,36,a
screen,html.Screen,2_3_1_0_1_37,2022-02-03T15:40:39.014Z,,,,,,,,,,,,,,,,,48,,,,,,,,,,,,,,493.4920000000275,,response,,,,10,B,,,,,,Space,keypress(Space),,,,lyrical,,,,-- -- --- ------ ------- --------- ----------- --------<br>--------- -------- --- ------- -- ------- ---- -- ------<br>-- --- -------- -------- ---------- ---- ---- ---- ------<br>-- --------- -- ---- -- --- -- --- ------- -- - crime<br>---------- -- -- -- ---- ----- -- ------ -- --- ------<br>-------,311253.3000000119,311251,310740.935,310741.5,310757.508,311257.038,,37,crime
screen,html.Screen,2_3_1_0_1_38,2022-02-03T15:40:39.617Z,,,,,,,,,,,,,,,,,48,,,,,,,,,,,,,,597.6620000178809,,response,,,,10,B,,,,,,Space,keypress(Space),,,,lyrical,,,,-- -- --- ------ ------- --------- ----------- --------<br>--------- -------- --- ------- -- ------- ---- -- ------<br>-- --- -------- -------- ---------- ---- ---- ---- ------<br>-- --------- -- ---- -- --- -- --- ------- -- - -----<br>punishable -- -- -- ---- ----- -- ------ -- --- ------<br>-------,311856.40000000596,311854.7000000179,311240.439,311253.8000000119,311257.038,311873.243,,38,punishable
screen,html.Screen,2_3_1_0_1_39,2022-02-03T15:40:39.994Z,,,,,,,,,,,,,,,,,48,,,,,,,,,,,,,,357.8570000238251,,response,,,,10,B,,,,,,Space,keypress(Space),,,,lyrical,,,,-- -- --- ------ ------- --------- ----------- --------<br>--------- -------- --- ------- -- ------- ---- -- ------<br>-- --- -------- -------- ---------- ---- ---- ---- ------<br>-- --------- -- ---- -- --- -- --- ------- -- - -----<br>---------- by -- -- ---- ----- -- ------ -- --- ------<br>-------,312232.90000000596,312231.10000002384,311856.488,311857.10000002384,311873.243,312239.383,,39,by
screen,html.Screen,2_3_1_0_1_40,2022-02-03T15:40:40.383Z,,,,,,,,,,,,,,,,,48,,,,,,,,,,,,,,381.31700001790887,,response,,,,10,B,,,,,,Space,keypress(Space),,,,lyrical,,,,-- -- --- ------ ------- --------- ----------- --------<br>--------- -------- --- ------- -- ------- ---- -- ------<br>-- --- -------- -------- ---------- ---- ---- ---- ------<br>-- --------- -- ---- -- --- -- --- ------- -- - -----<br>---------- -- up -- ---- ----- -- ------ -- --- ------<br>-------,312622.40000000596,312620.7000000179,312222.821,312233.5,312239.383,312639.04,,40,up
screen,html.Screen,2_3_1_0_1_41,2022-02-03T15:40:40.696Z,,,,,,,,,,,,,,,,,48,,,,,,,,,,,,,,294.0600000238628,,response,,,,10,B,,,,,,Space,keypress(Space),,,,lyrical,,,,-- -- --- ------ ------- --------- ----------- --------<br>--------- -------- --- ------- -- ------- ---- -- ------<br>-- --- -------- -------- ---------- ---- ---- ---- ------<br>-- --------- -- ---- -- --- -- --- ------- -- - -----<br>---------- -- -- to ---- ----- -- ------ -- --- ------<br>-------,312934.8000000119,312933.10000002384,312622.427,312623,312639.04,312938.639,,41,to
screen,html.Screen,2_3_1_0_1_42,2022-02-03T15:40:41.097Z,,,,,,,,,,,,,,,,,48,,,,,,,,,,,,,,395.8609999999753,,response,,,,10,B,,,,,,Space,keypress(Space),,,,lyrical,,,,-- -- --- ------ ------- --------- ----------- --------<br>--------- -------- --- ------- -- ------- ---- -- ------<br>-- --- -------- -------- ---------- ---- ---- ---- ------<br>-- --------- -- ---- -- --- -- --- ------- -- - -----<br>---------- -- -- -- five ----- -- ------ -- --- ------<br>-------,313336.3000000119,313334.5,312922.135,312935.40000000596,312938.639,313371.763,,42,five
screen,html.Screen,2_3_1_0_1_43,2022-02-03T15:40:41.477Z,,,,,,,,,,,,,,,,,48,,,,,,,,,,,,,,342.1370000059833,,response,,,,10,B,,,,,,Space,keypress(Space),,,,lyrical,,,,-- -- --- ------ ------- --------- ----------- --------<br>--------- -------- --- ------- -- ------- ---- -- ------<br>-- --- -------- -------- ---------- ---- ---- ---- ------<br>-- --------- -- ---- -- --- -- --- ------- -- - -----<br>---------- -- -- -- ---- years -- ------ -- --- ------<br>-------,313715.7000000179,313713.90000000596,313355.053,313336.90000000596,313371.763,313721.223,,43,years
