sender,sender_type,sender_id,timestamp,meta,,Blues,Classical,Country,Dance,Electronic,Folk,Gospel,Hip-Hop,Jazz,Latin,Musical/Film,New-age,Pop,Prolific_id,Provo_ID,R&B,Rap,Reggae,Religious,Rock,Soul,Swing,Traditional,age,artist_name,correct,correctResponse,distraction,duration,education,ended_on,familiarity,gender,headphone_check_performance,item,list,music_frequency,offensiveness,pleasantness,position_correct,preference,response,response_action,snippet_file,song_name,song_rating,sound,stimulus_1,stimulus_2,stimulus_3,text,time_commit,time_end,time_render,time_run,time_show,time_switch,url,word,word_ID
Prolific ID,html.Form,0,2022-02-02T14:40:08.111Z,"{""labjs_version"":""20.2.2"",""labjs_build"":{""flavor"":""production"",""commit"":""a25486e0c714a0ae2ce03ff94b7bb6896854dcfa""},""location"":""https://run.pavlovia.org/mvasilev/prolific2_music_c/"",""userAgent"":""Mozilla/5.0 (Macintosh; Intel Mac OS X 10_14_6) AppleWebKit/537.36 (KHTML, like Gecko) Chrome/97.0.4692.99 Safari/537.36"",""platform"":""MacIntel"",""language"":""en-GB"",""locale"":""en-GB"",""timeZone"":""Europe/London"",""timezoneOffset"":0,""screen_width"":1440,""screen_height"":900,""scroll_width"":1440,""scroll_height"":741,""window_innerWidth"":1440,""window_innerHeight"":789,""devicePixelRatio"":1}",,,,,,,,,,,,,,,61726563b9ca4c15e2c1a17b,,,,,,,,,,,,,,,7503.471999988076,,form submission,,,,,,,,,,,,,,,,,,,,,50481.30000001192,50480.19999998808,42926.727,42937.80000001192,42976.728,50494.924,{},,
Introduction,html.Screen,1_0,2022-02-02T14:40:14.334Z,,,,,,,,,,,,,,,,,,,,,,,,,,,,,,,6204.27599998808,,response,,,,,,,,,,,continue,click button,,,,,,,,,56703.40000003576,56699.19999998808,50461.59,50481.60000002384,50494.924,56712.466,,,
Volume calibration,html.Screen,1_1,2022-02-02T14:40:37.797Z,,,,,,,,,,,,,,,,,,,,,,,,,,,,,,,23449.23399998808,,response,,,,,,,,,,,continue,click button,,,,,,,,,80166.40000003576,80161.69999998808,56695.799,56703.60000002384,56712.466,80180.052,,,
Task instructions,html.Screen,1_2,2022-02-02T14:40:56.655Z,,,,,,,,,,,,,,,,,,,,,,,,,,,,,,,18841.348000035767,,response,,,,,,,,,,,continue,click button,,,,,,,,,99024,99021.40000003576,80163.385,80166.5,80180.052,99031.087,,,
Sounds,html.Screen,1_3_0_0,2022-02-02T14:41:00.901Z,,,,,,,,,,,,,,,,,,,,,,,,,,,,,,,4251.091,,timeout,,,,,,,,,1,,,,,,,,S,O,I,,103268.90000003576,103265.511,99014.42,99024.5,99031.087,103282.178,,,
Judgement,html.Screen,1_3_0_1,2022-02-02T14:41:03.470Z,,,,,,,,,,,,,,,,,,,,,,,,,,,,true,1,,2553.822,,response,,,,,,,,,1,,1,click #choice-1,,,,,S,O,I,,105838.10000002384,105836,103265.511,103269,103282.178,105848.896,,,
Trial,flow.Sequence,1_3_0,2022-02-02T14:41:03.470Z,,,,,,,,,,,,,,,,,,,,,,,,,,,,,,,6804.9130000000005,,completion,,,,,,,,,1,,,,,,,,S,O,I,,105838.60000002384,105836,99014.42,99024.5,99031.087,105848.896,,,
Sounds,html.Screen,1_3_1_0,2022-02-02T14:41:07.716Z,,,,,,,,,,,,,,,,,,,,,,,,,,,,,,,4250.085000000006,,timeout,,,,,,,,,3,,,,,,,,O,I,S,,110083.90000003576,110082.314,105832.229,105838.69999998808,105848.896,110098.981,,,
Judgement,html.Screen,1_3_1_1,2022-02-02T14:41:09.258Z,,,,,,,,,,,,,,,,,,,,,,,,,,,,true,3,,1524.0190000000002,,response,,,,,,,,,3,,3,click #choice-3,,,,,O,I,S,,111625.60000002384,111623,110082.314,110084.10000002384,110098.981,111632.768,,,
Trial,flow.Sequence,1_3_1,2022-02-02T14:41:09.258Z,,,,,,,,,,,,,,,,,,,,,,,,,,,,,,,5774.104000000007,,completion,,,,,,,,,3,,,,,,,,O,I,S,,111625.90000003576,111623,105832.229,105838.69999998808,105848.896,111632.768,,,
Sounds,html.Screen,1_3_2_0,2022-02-02T14:41:13.500Z,,,,,,,,,,,,,,,,,,,,,,,,,,,,,,,4250.085000000006,,timeout,,,,,,,,,1,,,,,,,,S,I,O,,115867.69999998808,115866.186,111616.101,111626.10000002384,111632.768,115882.853,,,
Judgement,html.Screen,1_3_2_1,2022-02-02T14:41:14.275Z,,,,,,,,,,,,,,,,,,,,,,,,,,,,true,1,,758.2470000238391,,response,,,,,,,,,1,,1,click #choice-1,,,,,S,I,O,,116643.19999998808,116641.10000002384,115866.186,115867.90000003576,115882.853,116649.535,,,
Trial,flow.Sequence,1_3_2,2022-02-02T14:41:14.275Z,,,,,,,,,,,,,,,,,,,,,,,,,,,,,,,5008.3320000238455,,completion,,,,,,,,,1,,,,,,,,S,I,O,,116643.40000003576,116641.10000002384,111616.101,111626.10000002384,111632.768,116649.535,,,
Sounds,html.Screen,1_3_3_0,2022-02-02T14:41:18.517Z,,,,,,,,,,,,,,,,,,,,,,,,,,,,,,,4250.084999999992,,timeout,,,,,,,,,2,,,,,,,,O,S,I,,120884.5,120882.953,116632.868,116643.60000002384,116649.535,120899.62,,,
Judgement,html.Screen,1_3_3_1,2022-02-02T14:41:19.206Z,,,,,,,,,,,,,,,,,,,,,,,,,,,,true,2,,672.1800000119256,,response,,,,,,,,,2,,2,click #choice-2,,,,,O,S,I,,121574,121571.80000001192,120882.953,120885.19999998808,120899.62,121583.536,,,
Trial,flow.Sequence,1_3_3,2022-02-02T14:41:19.206Z,,,,,,,,,,,,,,,,,,,,,,,,,,,,,,,4922.265000011917,,completion,,,,,,,,,2,,,,,,,,O,S,I,,121574.30000001192,121571.80000001192,116632.868,116643.40000003576,116649.535,121583.536,,,
Sounds,html.Screen,1_3_4_0,2022-02-02T14:41:23.451Z,,,,,,,,,,,,,,,,,,,,,,,,,,,,,,,4250.085000000006,,timeout,,,,,,,,,2,,,,,,,,I,S,O,,125819.19999998808,125816.954,121566.869,121574.40000003576,121583.536,125833.621,,,
Judgement,html.Screen,1_3_4_1,2022-02-02T14:41:24.886Z,,,,,,,,,,,,,,,,,,,,,,,,,,,,true,2,,1418.4790000238427,,response,,,,,,,,,2,,2,click #choice-2,,,,,I,S,O,,127254.10000002384,127252.10000002384,125816.954,125819.30000001192,125833.621,127266.983,,,
Trial,flow.Sequence,1_3_4,2022-02-02T14:41:24.887Z,,,,,,,,,,,,,,,,,,,,,,,,,,,,,,,5668.564000023849,,completion,,,,,,,,,2,,,,,,,,I,S,O,,127254.40000003576,127252.10000002384,121566.869,121574.30000001192,121583.536,127266.983,,,
Sounds,html.Screen,1_3_5_0,2022-02-02T14:41:29.135Z,,,,,,,,,,,,,,,,,,,,,,,,,,,,,,,4250.085000000006,,timeout,,,,,,,,,3,,,,,,,,I,O,S,,131502.40000003576,131500.401,127250.316,127254.5,127266.983,131517.068,,,
Judgement,html.Screen,1_3_5_1,2022-02-02T14:41:29.994Z,,,,,,,,,,,,,,,,,,,,,,,,,,,,true,3,,841.8320000357635,,response,,,,,,,,,3,,3,click #choice-3,,,,,I,O,S,,132361.10000002384,132358.90000003576,131500.401,131502.5,131517.068,132367.667,,,
Trial,flow.Sequence,1_3_5,2022-02-02T14:41:29.994Z,,,,,,,,,,,,,,,,,,,,,,,,,,,,,,,5091.91700003577,,completion,,,,,,,,,3,,,,,,,,I,O,S,,132361.40000003576,132358.90000003576,127250.316,127254.5,127266.983,132367.667,,,
Task,flow.Loop,1_3,2022-02-02T14:41:29.998Z,,,,,,,,,,,,,,,,,,,,,,,,,,,,,,,33327.81300003576,,completion,,,1,,,,,,,,,,,,,,,,,,132365.5,132358.90000003576,99014.42,99024.40000003576,99031.087,132367.667,,,
Trap,html.Screen,1_4,2022-02-02T14:41:29.999Z,,,,,,,,,,,,,,,,,,,,,,,,,,,,,,,NaN,,skipped,,,,,,,,,,,,,,,,,,,,,132366.69999998808,132358.90000003576,,132366.60000002384,,132367.667,,,
Thanks,html.Screen,1_5,2022-02-02T14:41:35.437Z,,,,,,,,,,,,,,,,,,,,,,,,,,,,,,,5434.833000000013,,response,,,,,,,,,,,continue,click button,,,,,,,,,137804.5,137802.5,132351,132367.10000002384,132367.667,142034.527,,,
Headphone screening,flow.Sequence,1,2022-02-02T14:41:35.437Z,,,,,,,,,,,,,,,,,,,,,,,,,,,,,,,87307.576,,completion,,,,,,,,,,,,,,,,,,,,,137804.80000001192,137802.5,50461.59,50481.5,50494.924,142034.527,,,
Instructions,html.Page,2_0,2022-02-02T14:42:00.016Z,,,,,,,,,,,,,,,,,,,,,,,,,,,,,,,20347.77300001192,,form submission,,,,,,,,,,,,,,,,,,,,,162382.69999998808,162382.30000001192,142017.86,142029.19999998808,142034.527,162385.354,,,
Holding screen,html.Screen,2_1_0_0,2022-02-02T14:42:10.005Z,,,,,,,,,,,,,,,,,,,,,,,,,,,,,,,10001.182,,timeout,,,,,,,,,,,,,,,,,,,,,172371.5,172369.869,162368.687,162382.90000003576,162385.354,172386.536,,,
screen,html.Screen,2_1_0_1_0,2022-02-02T14:42:11.999Z,,,,,,,,,,,,,,,,,53,,,,,,,,,,,,,,1970.9640000000072,,response,,,,99,,,,,,,Space,keypress(Space),,,,,,,,When -- ----- -- ------ - ------- --- ----------<br>------------- ------ ------ ---- ---- ------- ----- -- ----<br>-------- ------- -- ---------- --- - --- ----- ----- ----<br>---- --- --- ----- --- ---- ---- ------- ----- ---- -------<br>--- --- -- ----- -- --- ---- -- --- ---- -- ------ ------<br>--- ----- -- ----,174365.40000003576,174357.5,172369.869,172373.19999998808,172386.536,174369.909,,0,When
screen,html.Screen,2_1_0_1_1,2022-02-02T14:42:12.595Z,,,,,,,,,,,,,,,,,53,,,,,,,,,,,,,,587.5909999999858,,response,,,,99,,,,,,,Space,keypress(Space),,,,,,,,---- it ----- -- ------ - ------- --- ----------<br>------------- ------ ------ ---- ---- ------- ----- -- ----<br>-------- ------- -- ---------- --- - --- ----- ----- ----<br>---- --- --- ----- --- ---- ---- ------- ----- ---- -------<br>--- --- -- ----- -- --- ---- -- --- ---- -- ------ ------<br>--- ----- -- ----,174961.69999998808,174957.5,174353.242,174365.60000002384,174369.909,174970.535,,1,it
screen,html.Screen,2_1_0_1_2,2022-02-02T14:42:13.564Z,,,,,,,,,,,,,,,,,53,,,,,,,,,,,,,,954.8650000357593,,response,,,,99,,,,,,,Space,keypress(Space),,,,,,,,---- -- comes -- ------ - ------- --- ----------<br>------------- ------ ------ ---- ---- ------- ----- -- ----<br>-------- ------- -- ---------- --- - --- ----- ----- ----<br>---- --- --- ----- --- ---- ---- ------- ----- ---- -------<br>--- --- -- ----- -- --- ---- -- --- ---- -- ------ ------<br>--- ----- -- ----,175930,175925.40000003576,174953.868,174961.80000001192,174970.535,175937.221,,2,comes
screen,html.Screen,2_1_0_1_3,2022-02-02T14:42:14.029Z,,,,,,,,,,,,,,,,,53,,,,,,,,,,,,,,454.9789999880886,,response,,,,99,,,,,,,Space,keypress(Space),,,,,,,,---- -- ----- to ------ - ------- --- ----------<br>------------- ------ ------ ---- ---- ------- ----- -- ----<br>-------- ------- -- ---------- --- - --- ----- ----- ----<br>---- --- --- ----- --- ---- ---- ------- ----- ---- -------<br>--- --- -- ----- -- --- ---- -- --- ---- -- ------ ------<br>--- ----- -- ----,176395.5,176392.19999998808,175920.554,175930.19999998808,175937.221,176403.897,,3,to
screen,html.Screen,2_1_0_1_4,2022-02-02T14:42:14.397Z,,,,,,,,,,,,,,,,,53,,,,,,,,,,,,,,355.4030000119237,,response,,,,99,,,,,,,Space,keypress(Space),,,,,,,,---- -- ----- -- having - ------- --- ----------<br>------------- ------ ------ ---- ---- ------- ----- -- ----<br>-------- ------- -- ---------- --- - --- ----- ----- ----<br>---- --- --- ----- --- ---- ---- ------- ----- ---- -------<br>--- --- -- ----- -- --- ---- -- --- ---- -- ------ ------<br>--- ----- -- ----,176763,176759.30000001192,176387.23,176395.69999998808,176403.897,176770.571,,4,having
screen,html.Screen,2_1_0_1_5,2022-02-02T14:42:14.816Z,,,,,,,,,,,,,,,,,53,,,,,,,,,,,,,,407.72900001192465,,response,,,,99,,,,,,,Space,keypress(Space),,,,,,,,---- -- ----- -- ------ a ------- --- ----------<br>------------- ------ ------ ---- ---- ------- ----- -- ----<br>-------- ------- -- ---------- --- - --- ----- ----- ----<br>---- --- --- ----- --- ---- ---- ------- ----- ---- -------<br>--- --- -- ----- -- --- ---- -- --- ---- -- ------ ------<br>--- ----- -- ----,177181.80000001192,177178.30000001192,176753.904,176763.19999998808,176770.571,177187.246,,5,a
screen,html.Screen,2_1_0_1_6,2022-02-02T14:42:15.259Z,,,,,,,,,,,,,,,,,53,,,,,,,,,,,,,,433.95399998806533,,response,,,,99,,,,,,,Space,keypress(Space),,,,,,,,---- -- ----- -- ------ - lasting --- ----------<br>------------- ------ ------ ---- ---- ------- ----- -- ----<br>-------- ------- -- ---------- --- - --- ----- ----- ----<br>---- --- --- ----- --- ---- ---- ------- ----- ---- -------<br>--- --- -- ----- -- --- ---- -- --- ---- -- ------ ------<br>--- ----- -- ----,177625.10000002384,177621.19999998808,177170.579,177182,177187.246,177637.255,,6,lasting
screen,html.Screen,2_1_0_1_7,2022-02-02T14:42:15.741Z,,,,,,,,,,,,,,,,,53,,,,,,,,,,,,,,465.8450000238372,,response,,,,99,,,,,,,Space,keypress(Space),,,,,,,,---- -- ----- -- ------ - ------- and ----------<br>------------- ------ ------ ---- ---- ------- ----- -- ----<br>-------- ------- -- ---------- --- - --- ----- ----- ----<br>---- --- --- ----- --- ---- ---- ------- ----- ---- -------<br>--- --- -- ----- -- --- ---- -- --- ---- -- ------ ------<br>--- ----- -- ----,178106.60000002384,178103.10000002384,177620.588,177625.40000003576,177637.255,178120.598,,7,and
screen,html.Screen,2_1_0_1_8,2022-02-02T14:42:16.200Z,,,,,,,,,,,,,,,,,53,,,,,,,,,,,,,,441.60199998808093,,response,,,,99,,,,,,,Space,keypress(Space),,,,,,,,---- -- ----- -- ------ - ------- --- fulfilling<br>------------- ------ ------ ---- ---- ------- ----- -- ----<br>-------- ------- -- ---------- --- - --- ----- ----- ----<br>---- --- --- ----- --- ---- ---- ------- ----- ---- -------<br>--- --- -- ----- -- --- ---- -- --- ---- -- ------ ------<br>--- ----- -- ----,178566,178562.19999998808,178103.931,178106.90000003576,178120.598,178570.607,,8,fulfilling
screen,html.Screen,2_1_0_1_9,2022-02-02T14:42:16.546Z,,,,,,,,,,,,,,,,,53,,,,,,,,,,,,,,337.59299998809,,response,,,,99,,,,,,,Space,keypress(Space),,,,,,,,"---- -- ----- -- ------ - ------- --- ----------<br>relationship, ------ ------ ---- ---- ------- ----- -- ----<br>-------- ------- -- ---------- --- - --- ----- ----- ----<br>---- --- --- ----- --- ---- ---- ------- ----- ---- -------<br>--- --- -- ----- -- --- ---- -- --- ---- -- ------ ------<br>--- ----- -- ----",178912.19999998808,178908.19999998808,178553.94,178566.19999998808,178570.607,178920.614,,9,"relationship,"
screen,html.Screen,2_1_0_1_10,2022-02-02T14:42:16.809Z,,,,,,,,,,,,,,,,,53,,,,,,,,,,,,,,251.48600002384046,,response,,,,99,,,,,,,Space,keypress(Space),,,,,,,,---- -- ----- -- ------ - ------- --- ----------<br>------------- common ------ ---- ---- ------- ----- -- ----<br>-------- ------- -- ---------- --- - --- ----- ----- ----<br>---- --- --- ----- --- ---- ---- ------- ----- ---- -------<br>--- --- -- ----- -- --- ---- -- --- ---- -- ------ ------<br>--- ----- -- ----,179175.40000003576,179172.10000002384,178903.947,178912.40000003576,178920.614,179187.286,,10,common
screen,html.Screen,2_1_0_1_11,2022-02-02T14:42:17.040Z,,,,,,,,,,,,,,,,,53,,,,,,,,,,,,,,214.9139999880863,,response,,,,99,,,,,,,Space,keypress(Space),,,,,,,,---- -- ----- -- ------ - ------- --- ----------<br>------------- ------ wisdom ---- ---- ------- ----- -- ----<br>-------- ------- -- ---------- --- - --- ----- ----- ----<br>---- --- --- ----- --- ---- ---- ------- ----- ---- -------<br>--- --- -- ----- -- --- ---- -- --- ---- -- ------ ------<br>--- ----- -- ----,179406.30000001192,179402.19999998808,179170.619,179175.5,179187.286,179420.624,,11,wisdom
screen,html.Screen,2_1_0_1_12,2022-02-02T14:42:17.261Z,,,,,,,,,,,,,,,,,53,,,,,,,,,,,,,,203.47600002383115,,response,,,,99,,,,,,,Space,keypress(Space),,,,,,,,---- -- ----- -- ------ - ------- --- ----------<br>------------- ------ ------ says ---- ------- ----- -- ----<br>-------- ------- -- ---------- --- - --- ----- ----- ----<br>---- --- --- ----- --- ---- ---- ------- ----- ---- -------<br>--- --- -- ----- -- --- ---- -- --- ---- -- ------ ------<br>--- ----- -- ----,179627.5,179624.10000002384,179403.957,179406.5,179420.624,179637.295,,12,says
screen,html.Screen,2_1_0_1_13,2022-02-02T14:42:17.666Z,,,,,,,,,,,,,,,,,53,,,,,,,,,,,,,,391.90499998806627,,response,,,,99,,,,,,,Space,keypress(Space),,,,,,,,---- -- ----- -- ------ - ------- --- ----------<br>------------- ------ ------ ---- that ------- ----- -- ----<br>-------- ------- -- ---------- --- - --- ----- ----- ----<br>---- --- --- ----- --- ---- ---- ------- ----- ---- -------<br>--- --- -- ----- -- --- ---- -- --- ---- -- ------ ------<br>--- ----- -- ----,180032.5,180029.19999998808,179620.628,179627.60000002384,179637.295,180037.303,,13,that
screen,html.Screen,2_1_0_1_14,2022-02-02T14:42:18.264Z,,,,,,,,,,,,,,,,,53,,,,,,,,,,,,,,589.8969999880646,,response,,,,99,,,,,,,Space,keypress(Space),,,,,,,,---- -- ----- -- ------ - ------- --- ----------<br>------------- ------ ------ ---- ---- feeling ----- -- ----<br>-------- ------- -- ---------- --- - --- ----- ----- ----<br>---- --- --- ----- --- ---- ---- ------- ----- ---- -------<br>--- --- -- ----- -- --- ---- -- --- ---- -- ------ ------<br>--- ----- -- ----,180630.40000003576,180627.19999998808,180020.636,180032.69999998808,180037.303,180637.315,,14,feeling
screen,html.Screen,2_1_0_1_15,2022-02-02T14:42:18.680Z,,,,,,,,,,,,,,,,,53,,,,,,,,,,,,,,404.08500003576046,,response,,,,99,,,,,,,Space,keypress(Space),,,,,,,,---- -- ----- -- ------ - ------- --- ----------<br>------------- ------ ------ ---- ---- ------- close -- ----<br>-------- ------- -- ---------- --- - --- ----- ----- ----<br>---- --- --- ----- --- ---- ---- ------- ----- ---- -------<br>--- --- -- ----- -- --- ---- -- --- ---- -- ------ ------<br>--- ----- -- ----,181046.10000002384,181041.40000003576,180620.648,180630.60000002384,180637.315,181053.99,,15,close
screen,html.Screen,2_1_0_1_16,2022-02-02T14:42:19.041Z,,,,,,,,,,,,,,,,,53,,,,,,,,,,,,,,349.0100000000093,,response,,,,99,,,,,,,Space,keypress(Space),,,,,,,,---- -- ----- -- ------ - ------- --- ----------<br>------------- ------ ------ ---- ---- ------- ----- to ----<br>-------- ------- -- ---------- --- - --- ----- ----- ----<br>---- --- --- ----- --- ---- ---- ------- ----- ---- -------<br>--- --- -- ----- -- --- ---- -- --- ---- -- ------ ------<br>--- ----- -- ----,181406.69999998808,181403,181037.323,181046.30000001192,181053.99,181420.664,,16,to
screen,html.Screen,2_1_0_1_17,2022-02-02T14:42:19.420Z,,,,,,,,,,,,,,,,,53,,,,,,,,,,,,,,361.33600000001024,,response,,,,99,,,,,,,Space,keypress(Space),,,,,,,,---- -- ----- -- ------ - ------- --- ----------<br>------------- ------ ------ ---- ---- ------- ----- -- your<br>-------- ------- -- ---------- --- - --- ----- ----- ----<br>---- --- --- ----- --- ---- ---- ------- ----- ---- -------<br>--- --- -- ----- -- --- ---- -- --- ---- -- ------ ------<br>--- ----- -- ----,181785.69999998808,181782,181403.997,181406.90000003576,181420.664,181787.338,,17,your
screen,html.Screen,2_1_0_1_18,2022-02-02T14:42:19.796Z,,,,,,,,,,,,,,,,,53,,,,,,,,,,,,,,370.56200003577396,,response,,,,99,,,,,,,Space,keypress(Space),,,,,,,,---- -- ----- -- ------ - ------- --- ----------<br>------------- ------ ------ ---- ---- ------- ----- -- ----<br>romantic ------- -- ---------- --- - --- ----- ----- ----<br>---- --- --- ----- --- ---- ---- ------- ----- ---- -------<br>--- --- -- ----- -- --- ---- -- --- ---- -- ------ ------<br>--- ----- -- ----,182161.60000002384,182157.90000003576,181770.671,181785.90000003576,181787.338,182170.679,,18,romantic
screen,html.Screen,2_1_0_1_19,2022-02-02T14:42:20.117Z,,,,,,,,,,,,,,,,,53,,,,,,,,,,,,,,309.22100003575906,,response,,,,99,,,,,,,Space,keypress(Space),,,,,,,,---- -- ----- -- ------ - ------- --- ----------<br>------------- ------ ------ ---- ---- ------- ----- -- ----<br>-------- partner -- ---------- --- - --- ----- ----- ----<br>---- --- --- ----- --- ---- ---- ------- ----- ---- -------<br>--- --- -- ----- -- --- ---- -- --- ---- -- ------ ------<br>--- ----- -- ----,182483.10000002384,182479.90000003576,182154.012,182161.80000001192,182170.679,182487.352,,19,partner
screen,html.Screen,2_1_0_1_20,2022-02-02T14:42:20.421Z,,,,,,,,,,,,,,,,,53,,,,,,,,,,,,,,296.74800002382835,,response,,,,99,,,,,,,Space,keypress(Space),,,,,,,,---- -- ----- -- ------ - ------- --- ----------<br>------------- ------ ------ ---- ---- ------- ----- -- ----<br>-------- ------- is ---------- --- - --- ----- ----- ----<br>---- --- --- ----- --- ---- ---- ------- ----- ---- -------<br>--- --- -- ----- -- --- ---- -- --- ---- -- ------ ------<br>--- ----- -- ----,182787.40000003576,182784.10000002384,182470.685,182483.30000001192,182487.352,182804.025,,20,is
screen,html.Screen,2_1_0_1_21,2022-02-02T14:42:20.720Z,,,,,,,,,,,,,,,,,53,,,,,,,,,,,,,,278.77500001192675,,response,,,,99,,,,,,,Space,keypress(Space),,,,,,,,---- -- ----- -- ------ - ------- --- ----------<br>------------- ------ ------ ---- ---- ------- ----- -- ----<br>-------- ------- -- paramount. --- - --- ----- ----- ----<br>---- --- --- ----- --- ---- ---- ------- ----- ---- -------<br>--- --- -- ----- -- --- ---- -- --- ---- -- ------ ------<br>--- ----- -- ----,183086.19999998808,183082.80000001192,182787.358,182787.5,182804.025,183087.858,,21,paramount.
screen,html.Screen,2_1_0_1_22,2022-02-02T14:42:21.062Z,,,,,,,,,,,,,,,,,53,,,,,,,,,,,,,,328.9420000119135,,response,,,,99,,,,,,,Space,keypress(Space),,,,,,,,---- -- ----- -- ------ - ------- --- ----------<br>------------- ------ ------ ---- ---- ------- ----- -- ----<br>-------- ------- -- ---------- But - --- ----- ----- ----<br>---- --- --- ----- --- ---- ---- ------- ----- ---- -------<br>--- --- -- ----- -- --- ---- -- --- ---- -- ------ ------<br>--- ----- -- ----,183427.69999998808,183416.80000001192,183071.191,183086.40000003576,183087.858,183437.865,,22,But
screen,html.Screen,2_1_0_1_23,2022-02-02T14:42:21.460Z,,,,,,,,,,,,,,,,,53,,,,,,,,,,,,,,385.0350000357721,,response,,,,99,,,,,,,Space,keypress(Space),,,,,,,,---- -- ----- -- ------ - ------- --- ----------<br>------------- ------ ------ ---- ---- ------- ----- -- ----<br>-------- ------- -- ---------- --- a --- ----- ----- ----<br>---- --- --- ----- --- ---- ---- ------- ----- ---- -------<br>--- --- -- ----- -- --- ---- -- --- ---- -- ------ ------<br>--- ----- -- ----,183826,183822.90000003576,183421.198,183427.80000001192,183437.865,183837.873,,23,a
screen,html.Screen,2_1_0_1_24,2022-02-02T14:42:21.732Z,,,,,,,,,,,,,,,,,53,,,,,,,,,,,,,,256.9270000119286,,response,,,,99,,,,,,,Space,keypress(Space),,,,,,,,---- -- ----- -- ------ - ------- --- ----------<br>------------- ------ ------ ---- ---- ------- ----- -- ----<br>-------- ------- -- ---------- --- - new ----- ----- ----<br>---- --- --- ----- --- ---- ---- ------- ----- ---- -------<br>--- --- -- ----- -- --- ---- -- --- ---- -- ------ ------<br>--- ----- -- ----,184098.30000001192,184094.80000001192,183821.206,183826.19999998808,183837.873,184104.545,,24,new
screen,html.Screen,2_1_0_1_25,2022-02-02T14:42:21.995Z,,,,,,,,,,,,,,,,,53,,,,,,,,,,,,,,251.35500003574998,,response,,,,99,,,,,,,Space,keypress(Space),,,,,,,,---- -- ----- -- ------ - ------- --- ----------<br>------------- ------ ------ ---- ---- ------- ----- -- ----<br>-------- ------- -- ---------- --- - --- study ----- ----<br>---- --- --- ----- --- ---- ---- ------- ----- ---- -------<br>--- --- -- ----- -- --- ---- -- --- ---- -- ------ ------<br>--- ----- -- ----,184360.5,184355.90000003576,184087.878,184098.30000001192,184104.545,184371.217,,25,study
screen,html.Screen,2_1_0_1_26,2022-02-02T14:42:22.279Z,,,,,,,,,,,,,,,,,53,,,,,,,,,,,,,,270.4829999880749,,response,,,,99,,,,,,,Space,keypress(Space),,,,,,,,---- -- ----- -- ------ - ------- --- ----------<br>------------- ------ ------ ---- ---- ------- ----- -- ----<br>-------- ------- -- ---------- --- - --- ----- finds ----<br>---- --- --- ----- --- ---- ---- ------- ----- ---- -------<br>--- --- -- ----- -- --- ---- -- --- ---- -- ------ ------<br>--- ----- -- ----,184645.40000003576,184641.69999998808,184354.55,184360.69999998808,184371.217,184654.556,,26,finds
screen,html.Screen,2_1_0_1_27,2022-02-02T14:42:22.689Z,,,,,,,,,,,,,,,,,53,,,,,,,,,,,,,,397.14399998806766,,response,,,,99,,,,,,,Space,keypress(Space),,,,,,,,---- -- ----- -- ------ - ------- --- ----------<br>------------- ------ ------ ---- ---- ------- ----- -- ----<br>-------- ------- -- ---------- --- - --- ----- ----- that<br>---- --- --- ----- --- ---- ---- ------- ----- ---- -------<br>--- --- -- ----- -- --- ---- -- --- ---- -- ------ ------<br>--- ----- -- ----,185055.30000001192,185051.69999998808,184637.889,184645.60000002384,184654.556,185071.231,,27,that
screen,html.Screen,2_1_0_1_28,2022-02-02T14:42:23.061Z,,,,,,,,,,,,,,,,,53,,,,,,,,,,,,,,351.3690000238421,,response,,,,99,,,,,,,Space,keypress(Space),,,,,,,,---- -- ----- -- ------ - ------- --- ----------<br>------------- ------ ------ ---- ---- ------- ----- -- ----<br>-------- ------- -- ---------- --- - --- ----- ----- ----<br>it's --- --- ----- --- ---- ---- ------- ----- ---- -------<br>--- --- -- ----- -- --- ---- -- --- ---- -- ------ ------<br>--- ----- -- ----,185426.40000003576,185422.60000002384,185054.564,185055.40000003576,185071.231,185437.905,,28,it's
screen,html.Screen,2_1_0_1_29,2022-02-02T14:42:23.291Z,,,,,,,,,,,,,,,,,53,,,,,,,,,,,,,,215.69500002384302,,response,,,,99,,,,,,,Space,keypress(Space),,,,,,,,---- -- ----- -- ------ - ------- --- ----------<br>------------- ------ ------ ---- ---- ------- ----- -- ----<br>-------- ------- -- ---------- --- - --- ----- ----- ----<br>---- not --- ----- --- ---- ---- ------- ----- ---- -------<br>--- --- -- ----- -- --- ---- -- --- ---- -- ------ ------<br>--- ----- -- ----,185657.19999998808,185653.60000002384,185421.238,185426.60000002384,185437.905,185671.243,,29,not
screen,html.Screen,2_1_0_1_30,2022-02-02T14:42:23.529Z,,,,,,,,,,,,,,,,,53,,,,,,,,,,,,,,219.55700001193327,,response,,,,99,,,,,,,Space,keypress(Space),,,,,,,,---- -- ----- -- ------ - ------- --- ----------<br>------------- ------ ------ ---- ---- ------- ----- -- ----<br>-------- ------- -- ---------- --- - --- ----- ----- ----<br>---- --- how ----- --- ---- ---- ------- ----- ---- -------<br>--- --- -- ----- -- --- ---- -- --- ---- -- ------ ------<br>--- ----- -- ----,185894.80000001192,185890.80000001192,185654.576,185657.5,185671.243,185904.581,,30,how
screen,html.Screen,2_1_0_1_31,2022-02-02T14:42:23.777Z,,,,,,,,,,,,,,,,,53,,,,,,,,,,,,,,235.01900002383627,,response,,,,99,,,,,,,Space,keypress(Space),,,,,,,,---- -- ----- -- ------ - ------- --- ----------<br>------------- ------ ------ ---- ---- ------- ----- -- ----<br>-------- ------- -- ---------- --- - --- ----- ----- ----<br>---- --- --- close --- ---- ---- ------- ----- ---- -------<br>--- --- -- ----- -- --- ---- -- --- ---- -- ------ ------<br>--- ----- -- ----,186143.10000002384,186139.60000002384,185887.914,185895,185904.581,186154.586,,31,close
screen,html.Screen,2_1_0_1_32,2022-02-02T14:42:24.039Z,,,,,,,,,,,,,,,,,53,,,,,,,,,,,,,,247.11399998806883,,response,,,,99,,,,,,,Space,keypress(Space),,,,,,,,---- -- ----- -- ------ - ------- --- ----------<br>------------- ------ ------ ---- ---- ------- ----- -- ----<br>-------- ------- -- ---------- --- - --- ----- ----- ----<br>---- --- --- ----- you ---- ---- ------- ----- ---- -------<br>--- --- -- ----- -- --- ---- -- --- ---- -- ------ ------<br>--- ----- -- ----,186404.69999998808,186401.69999998808,186137.919,186143.19999998808,186154.586,186421.258,,32,you
screen,html.Screen,2_1_0_1_33,2022-02-02T14:42:24.361Z,,,,,,,,,,,,,,,,,53,,,,,,,,,,,,,,302.24199999999837,,response,,,,99,,,,,,,Space,keypress(Space),,,,,,,,---- -- ----- -- ------ - ------- --- ----------<br>------------- ------ ------ ---- ---- ------- ----- -- ----<br>-------- ------- -- ---------- --- - --- ----- ----- ----<br>---- --- --- ----- --- feel ---- ------- ----- ---- -------<br>--- --- -- ----- -- --- ---- -- --- ---- -- ------ ------<br>--- ----- -- ----,186727,186723.5,186404.591,186405,186421.258,186737.931,,33,feel
screen,html.Screen,2_1_0_1_34,2022-02-02T14:42:24.634Z,,,,,,,,,,,,,,,,,53,,,,,,,,,,,,,,258.66900002383045,,response,,,,99,,,,,,,Space,keypress(Space),,,,,,,,---- -- ----- -- ------ - ------- --- ----------<br>------------- ------ ------ ---- ---- ------- ----- -- ----<br>-------- ------- -- ---------- --- - --- ----- ----- ----<br>---- --- --- ----- --- ---- that ------- ----- ---- -------<br>--- --- -- ----- -- --- ---- -- --- ---- -- ------ ------<br>--- ----- -- ----,187000.19999998808,186996.60000002384,186721.264,186727.10000002384,186737.931,187004.603,,34,that
screen,html.Screen,2_1_0_1_35,2022-02-02T14:42:24.886Z,,,,,,,,,,,,,,,,,53,,,,,,,,,,,,,,243.8969999999972,,response,,,,99,,,,,,,Space,keypress(Space),,,,,,,,---- -- ----- -- ------ - ------- --- ----------<br>------------- ------ ------ ---- ---- ------- ----- -- ----<br>-------- ------- -- ---------- --- - --- ----- ----- ----<br>---- --- --- ----- --- ---- ---- matters ----- ---- -------<br>--- --- -- ----- -- --- ---- -- --- ---- -- ------ ------<br>--- ----- -- ----,187251.90000003576,187248.5,186987.936,187000.30000001192,187004.603,187254.608,,35,matters
screen,html.Screen,2_1_0_1_36,2022-02-02T14:42:25.167Z,,,,,,,,,,,,,,,,,53,,,,,,,,,,,,,,274.89199999999255,,response,,,,99,,,,,,,Space,keypress(Space),,,,,,,,"---- -- ----- -- ------ - ------- --- ----------<br>------------- ------ ------ ---- ---- ------- ----- -- ----<br>-------- ------- -- ---------- --- - --- ----- ----- ----<br>---- --- --- ----- --- ---- ---- ------- most, ---- -------<br>--- --- -- ----- -- --- ---- -- --- ---- -- ------ ------<br>--- ----- -- ----",187533.10000002384,187529.5,187237.941,187252.10000002384,187254.608,187537.947,,36,"most,"
screen,html.Screen,2_1_0_1_37,2022-02-02T14:42:25.565Z,,,,,,,,,,,,,,,,,53,,,,,,,,,,,,,,389.6530000238563,,response,,,,99,,,,,,,Space,keypress(Space),,,,,,,,---- -- ----- -- ------ - ------- --- ----------<br>------------- ------ ------ ---- ---- ------- ----- -- ----<br>-------- ------- -- ---------- --- - --- ----- ----- ----<br>---- --- --- ----- --- ---- ---- ------- ----- it's -------<br>--- --- -- ----- -- --- ---- -- --- ---- -- ------ ------<br>--- ----- -- ----,187930.90000003576,187927.60000002384,187521.28,187533.19999998808,187537.947,187937.955,,37,it's
screen,html.Screen,2_1_0_1_38,2022-02-02T14:42:25.932Z,,,,,,,,,,,,,,,,,53,,,,,,,,,,,,,,356.64500002385466,,response,,,,99,,,,,,,Space,keypress(Space),,,,,,,,---- -- ----- -- ------ - ------- --- ----------<br>------------- ------ ------ ---- ---- ------- ----- -- ----<br>-------- ------- -- ---------- --- - --- ----- ----- ----<br>---- --- --- ----- --- ---- ---- ------- ----- ---- whether<br>--- --- -- ----- -- --- ---- -- --- ---- -- ------ ------<br>--- ----- -- ----,188297.80000001192,188294.60000002384,187921.288,187931.19999998808,187937.955,188304.629,,38,whether
screen,html.Screen,2_1_0_1_39,2022-02-02T14:42:26.241Z,,,,,,,,,,,,,,,,,53,,,,,,,,,,,,,,297.87100000001374,,response,,,,99,,,,,,,Space,keypress(Space),,,,,,,,---- -- ----- -- ------ - ------- --- ----------<br>------------- ------ ------ ---- ---- ------- ----- -- ----<br>-------- ------- -- ---------- --- - --- ----- ----- ----<br>---- --- --- ----- --- ---- ---- ------- ----- ---- -------<br>you --- -- ----- -- --- ---- -- --- ---- -- ------ ------<br>--- ----- -- ----,188606.60000002384,188602.5,188287.962,188298.19999998808,188304.629,188621.302,,39,you
screen,html.Screen,2_1_0_1_40,2022-02-02T14:42:26.561Z,,,,,,,,,,,,,,,,,53,,,,,,,,,,,,,,302.19800000000396,,response,,,,99,,,,,,,Space,keypress(Space),,,,,,,,---- -- ----- -- ------ - ------- --- ----------<br>------------- ------ ------ ---- ---- ------- ----- -- ----<br>-------- ------- -- ---------- --- - --- ----- ----- ----<br>---- --- --- ----- --- ---- ---- ------- ----- ---- -------<br>--- are -- ----- -- --- ---- -- --- ---- -- ------ ------<br>--- ----- -- ----,188926.90000003576,188923.5,188604.635,188606.69999998808,188621.302,188937.975,,40,are
screen,html.Screen,2_1_0_1_41,2022-02-02T14:42:26.887Z,,,,,,,,,,,,,,,,,53,,,,,,,,,,,,,,311.62500002383604,,response,,,,99,,,,,,,Space,keypress(Space),,,,,,,,---- -- ----- -- ------ - ------- --- ----------<br>------------- ------ ------ ---- ---- ------- ----- -- ----<br>-------- ------- -- ---------- --- - --- ----- ----- ----<br>---- --- --- ----- --- ---- ---- ------- ----- ---- -------<br>--- --- as ----- -- --- ---- -- --- ---- -- ------ ------<br>--- ----- -- ----,189252.60000002384,189249.60000002384,188921.308,188927,188937.975,189254.648,,41,as
screen,html.Screen,2_1_0_1_42,2022-02-02T14:42:27.294Z,,,,,,,,,,,,,,,,,53,,,,,,,,,,,,,,400.7520000357763,,response,,,,99,,,,,,,Space,keypress(Space),,,,,,,,---- -- ----- -- ------ - ------- --- ----------<br>------------- ------ ------ ---- ---- ------- ----- -- ----<br>-------- ------- -- ---------- --- - --- ----- ----- ----<br>---- --- --- ----- --- ---- ---- ------- ----- ---- -------<br>--- --- -- close -- --- ---- -- --- ---- -- ------ ------<br>--- ----- -- ----,189659.60000002384,189655.40000003576,189237.981,189252.69999998808,189254.648,189671.323,,42,close
screen,html.Screen,2_1_0_1_43,2022-02-02T14:42:27.612Z,,,,,,,,,,,,,,,,,53,,,,,,,,,,,,,,303.07700003575883,,response,,,,99,,,,,,,Space,keypress(Space),,,,,,,,---- -- ----- -- ------ - ------- --- ----------<br>------------- ------ ------ ---- ---- ------- ----- -- ----<br>-------- ------- -- ---------- --- - --- ----- ----- ----<br>---- --- --- ----- --- ---- ---- ------- ----- ---- -------<br>--- --- -- ----- as --- ---- -- --- ---- -- ------ ------<br>--- ----- -- ----,189977.60000002384,189974.40000003576,189654.656,189660.30000001192,189671.323,189987.996,,43,as
screen,html.Screen,2_1_0_1_44,2022-02-02T14:42:27.951Z,,,,,,,,,,,,,,,,,53,,,,,,,,,,,,,,325.40400003574905,,response,,,,99,,,,,,,Space,keypress(Space),,,,,,,,---- -- ----- -- ------ - ------- --- ----------<br>------------- ------ ------ ---- ---- ------- ----- -- ----<br>-------- ------- -- ---------- --- - --- ----- ----- ----<br>---- --- --- ----- --- ---- ---- ------- ----- ---- -------<br>--- --- -- ----- -- you ---- -- --- ---- -- ------ ------<br>--- ----- -- ----,190317,190313.40000003576,189971.329,189977.69999998808,189987.996,190321.336,,44,you
screen,html.Screen,2_1_0_1_45,2022-02-02T14:42:28.244Z,,,,,,,,,,,,,,,,,53,,,,,,,,,,,,,,284.56400003575254,,response,,,,99,,,,,,,Space,keypress(Space),,,,,,,,---- -- ----- -- ------ - ------- --- ----------<br>------------- ------ ------ ---- ---- ------- ----- -- ----<br>-------- ------- -- ---------- --- - --- ----- ----- ----<br>---- --- --- ----- --- ---- ---- ------- ----- ---- -------<br>--- --- -- ----- -- --- want -- --- ---- -- ------ ------<br>--- ----- -- ----,190609.5,190605.90000003576,190304.669,190317.19999998808,190321.336,190621.342,,45,want
screen,html.Screen,2_1_0_1_46,2022-02-02T14:42:28.566Z,,,,,,,,,,,,,,,,,53,,,,,,,,,,,,,,307.0580000357586,,response,,,,99,,,,,,,Space,keypress(Space),,,,,,,,---- -- ----- -- ------ - ------- --- ----------<br>------------- ------ ------ ---- ---- ------- ----- -- ----<br>-------- ------- -- ---------- --- - --- ----- ----- ----<br>---- --- --- ----- --- ---- ---- ------- ----- ---- -------<br>--- --- -- ----- -- --- ---- to --- ---- -- ------ ------<br>--- ----- -- ----,190932.30000001192,190928.40000003576,190604.675,190609.60000002384,190621.342,190938.015,,46,to
screen,html.Screen,2_1_0_1_47,2022-02-02T14:42:28.886Z,,,,,,,,,,,,,,,,,53,,,,,,,,,,,,,,310.28500001190696,,response,,,,99,,,,,,,Space,keypress(Space),,,,,,,,"---- -- ----- -- ------ - ------- --- ----------<br>------------- ------ ------ ---- ---- ------- ----- -- ----<br>-------- ------- -- ---------- --- - --- ----- ----- ----<br>---- --- --- ----- --- ---- ---- ------- ----- ---- -------<br>--- --- -- ----- -- --- ---- -- be, ---- -- ------ ------<br>--- ----- -- ----",191252,191248.30000001192,190921.348,190932.30000001192,190938.015,191254.688,,47,"be,"
screen,html.Screen,2_1_0_1_48,2022-02-02T14:42:29.204Z,,,,,,,,,,,,,,,,,53,,,,,,,,,,,,,,311.6120000119263,,response,,,,99,,,,,,,Space,keypress(Space),,,,,,,,---- -- ----- -- ------ - ------- --- ----------<br>------------- ------ ------ ---- ---- ------- ----- -- ----<br>-------- ------- -- ---------- --- - --- ----- ----- ----<br>---- --- --- ----- --- ---- ---- ------- ----- ---- -------<br>--- --- -- ----- -- --- ---- -- --- even -- ------ ------<br>--- ----- -- ----,191569.30000001192,191566.30000001192,191238.021,191252.10000002384,191254.688,191571.361,,48,even
screen,html.Screen,2_1_0_1_49,2022-02-02T14:42:29.493Z,,,,,,,,,,,,,,,,,53,,,,,,,,,,,,,,283.03900003575836,,response,,,,99,,,,,,,Space,keypress(Space),,,,,,,,---- -- ----- -- ------ - ------- --- ----------<br>------------- ------ ------ ---- ---- ------- ----- -- ----<br>-------- ------- -- ---------- --- - --- ----- ----- ----<br>---- --- --- ----- --- ---- ---- ------- ----- ---- -------<br>--- --- -- ----- -- --- ---- -- --- ---- if ------ ------<br>--- ----- -- ----,191858.69999998808,191854.40000003576,191554.694,191569.5,191571.361,191871.367,,49,if
screen,html.Screen,2_1_0_1_50,2022-02-02T14:42:29.741Z,,,,,,,,,,,,,,,,,53,,,,,,,,,,,,,,231.8329999880807,,response,,,,99,,,,,,,Space,keypress(Space),,,,,,,,---- -- ----- -- ------ - ------- --- ----------<br>------------- ------ ------ ---- ---- ------- ----- -- ----<br>-------- ------- -- ---------- --- - --- ----- ----- ----<br>---- --- --- ----- --- ---- ---- ------- ----- ---- -------<br>--- --- -- ----- -- --- ---- -- --- ---- -- that's ------<br>--- ----- -- ----,192106.60000002384,192103.19999998808,191854.7,191858.80000001192,191871.367,192121.372,,50,that's
screen,html.Screen,2_1_0_1_51,2022-02-02T14:42:29.986Z,,,,,,,,,,,,,,,,,53,,,,,,,,,,,,,,227.02800003575976,,response,,,,99,,,,,,,Space,keypress(Space),,,,,,,,---- -- ----- -- ------ - ------- --- ----------<br>------------- ------ ------ ---- ---- ------- ----- -- ----<br>-------- ------- -- ---------- --- - --- ----- ----- ----<br>---- --- --- ----- --- ---- ---- ------- ----- ---- -------<br>--- --- -- ----- -- --- ---- -- --- ---- -- ------ really<br>--- ----- -- ----,192352.10000002384,192348.40000003576,192104.705,192106.80000001192,192121.372,192354.71,,51,really
screen,html.Screen,2_1_0_1_52,2022-02-02T14:42:30.364Z,,,,,,,,,,,,,,,,,53,,,,,,,,,,,,,,371.5900000119291,,response,,,,99,,,,,,,Space,keypress(Space),,,,,,,,---- -- ----- -- ------ - ------- --- ----------<br>------------- ------ ------ ---- ---- ------- ----- -- ----<br>-------- ------- -- ---------- --- - --- ----- ----- ----<br>---- --- --- ----- --- ---- ---- ------- ----- ---- -------<br>--- --- -- ----- -- --- ---- -- --- ---- -- ------ ------<br>not ----- -- ----,192729.69999998808,192726.30000001192,192338.043,192352.30000001192,192354.71,192738.051,,52,not
screen,html.Screen,2_1_0_1_53,2022-02-02T14:42:30.598Z,,,,,,,,,,,,,,,,,53,,,,,,,,,,,,,,221.24900001191418,,response,,,,99,,,,,,,Space,keypress(Space),,,,,,,,---- -- ----- -- ------ - ------- --- ----------<br>------------- ------ ------ ---- ---- ------- ----- -- ----<br>-------- ------- -- ---------- --- - --- ----- ----- ----<br>---- --- --- ----- --- ---- ---- ------- ----- ---- -------<br>--- --- -- ----- -- --- ---- -- --- ---- -- ------ ------<br>--- close -- ----,192963.80000001192,192959.30000001192,192721.384,192729.80000001192,192738.051,192971.389,,53,close
screen,html.Screen,2_1_0_1_54,2022-02-02T14:42:30.949Z,,,,,,,,,,,,,,,,,53,,,,,,,,,,,,,,339.91100001192535,,response,,,,99,,,,,,,Space,keypress(Space),,,,,,,,---- -- ----- -- ------ - ------- --- ----------<br>------------- ------ ------ ---- ---- ------- ----- -- ----<br>-------- ------- -- ---------- --- - --- ----- ----- ----<br>---- --- --- ----- --- ---- ---- ------- ----- ---- -------<br>--- --- -- ----- -- --- ---- -- --- ---- -- ------ ------<br>--- ----- at ----,193314.69999998808,193311.30000001192,192954.722,192964,192971.389,193321.852,,54,at
screen,html.Screen,2_1_0_1_55,2022-02-02T14:42:31.256Z,,,,,,,,,,,,,,,,,53,,,,,,,,,,,,,,296.4480000119074,,response,,,,99,,,,,,,Space,keypress(Space),,,,,,,,---- -- ----- -- ------ - ------- --- ----------<br>------------- ------ ------ ---- ---- ------- ----- -- ----<br>-------- ------- -- ---------- --- - --- ----- ----- ----<br>---- --- --- ----- --- ---- ---- ------- ----- ---- -------<br>--- --- -- ----- -- --- ---- -- --- ---- -- ------ ------<br>--- ----- -- all.,193621.69999998808,193618.30000001192,193305.185,193314.90000003576,193321.852,193638.525,,55,all.
Item 99,flow.Loop,2_1_0_1,2022-02-02T14:42:31.256Z,,,,,,,,,,,,,,,,,,,,,,,,,,,,,,,21231.764000011928,,completion,,,,,C,,,,,,,,,,,silence,,,,,193622,193618.30000001192,172369.869,172373.10000002384,172386.536,193638.525,,,
Question 1,html.Screen,2_1_0_2,2022-02-02T14:42:37.115Z,,,,,,,,,,,,,,,,,,,,,,,,,,,,true,FALSE,,5840.275000011927,,response,,,,99,C,,,,,,FALSE,click #choice-2,,,,silence,,,,,199480.90000003576,199478.80000001192,193621.858,193622.10000002384,193638.525,199488.642,,,
Question 2,html.Screen,2_1_0_3,2022-02-02T14:42:42.327Z,,,,,,,,,,,,,,,,,,,,,,,,,,,,true,TRUE,,5200.658000011928,,response,,,,99,C,,,,,,TRUE,click #choice-1,,,,silence,,,,,204692.19999998808,204689.30000001192,199471.975,199481,199488.642,204705.875,,,
Item 99,flow.Sequence,2_1_0,2022-02-02T14:42:42.327Z,,,,,,,,,,,,,,,,,,,,,,,,,,,,,,,42303.94600001193,,completion,,,,,,,,,,,,,,,,,,,,,204692.30000001192,204689.30000001192,162368.687,162382.90000003576,162385.354,204705.875,,,
Holding screen,html.Screen,2_1_1_0,2022-02-02T14:42:52.326Z,,,,,,,,,,,,,,,,,,,,,,,,,,,,,,,10000.200000000012,,timeout,,,,,,,,,,,,,,,,,,,,,214691.5,214689.408,204689.208,204692.5,204705.875,214706.075,,,
screen,html.Screen,2_1_1_1_0,2022-02-02T14:42:53.374Z,,,,,,,,,,,,,,,,,54,,,,,,,,,,,,,,1028.7250000119093,,response,,,,100,,,,,,,Space,keypress(Space),,,,,,,,At --- ---- --- ------ ----- ------- ---- -- --- ------- --<br>------- ---------- ------ -- ----- -- ----- -- ---- ------<br>--- ----- --- --- ------ -------- ----- --- ------ ----- --<br>----- ----- ---------- --- --- ------ ------ ---- -- ------<br>------- --- ------ ----- --- ---- ------- -- ---- --- --<br>------- ------,215738.80000001192,215734.80000001192,214689.408,214691.80000001192,214706.075,215739.999,,0,At
screen,html.Screen,2_1_1_1_1,2022-02-02T14:42:53.912Z,,,,,,,,,,,,,,,,,54,,,,,,,,,,,,,,533.7009999880684,,response,,,,100,,,,,,,Space,keypress(Space),,,,,,,,-- the ---- --- ------ ----- ------- ---- -- --- ------- --<br>------- ---------- ------ -- ----- -- ----- -- ---- ------<br>--- ----- --- --- ------ -------- ----- --- ------ ----- --<br>----- ----- ---------- --- --- ------ ------ ---- -- ------<br>------- --- ------ ----- --- ---- ------- -- ---- --- --<br>------- ------,216277.10000002384,216273.69999998808,215723.332,215738.90000003576,215739.999,216290.01,,1,the
screen,html.Screen,2_1_1_1_2,2022-02-02T14:42:54.155Z,,,,,,,,,,,,,,,,,54,,,,,,,,,,,,,,226.59000002383254,,response,,,,100,,,,,,,Space,keypress(Space),,,,,,,,-- --- time --- ------ ----- ------- ---- -- --- ------- --<br>------- ---------- ------ -- ----- -- ----- -- ---- ------<br>--- ----- --- --- ------ -------- ----- --- ------ ----- --<br>----- ----- ---------- --- --- ------ ------ ---- -- ------<br>------- --- ------ ----- --- ---- ------- -- ---- --- --<br>------- ------,216520.5,216516.60000002384,216273.343,216277.30000001192,216290.01,216523.348,,2,time
screen,html.Screen,2_1_1_1_3,2022-02-02T14:42:54.335Z,,,,,,,,,,,,,,,,,54,,,,,,,,,,,,,,173.15200000000186,,response,,,,100,,,,,,,Space,keypress(Space),,,,,,,,-- --- ---- the ------ ----- ------- ---- -- --- ------- --<br>------- ---------- ------ -- ----- -- ----- -- ---- ------<br>--- ----- --- --- ------ -------- ----- --- ------ ----- --<br>----- ----- ---------- --- --- ------ ------ ---- -- ------<br>------- --- ------ ----- --- ---- ------- -- ---- --- --<br>------- ------,216700.30000001192,216696.5,216506.681,216520.60000002384,216523.348,216706.685,,3,the
screen,html.Screen,2_1_1_1_4,2022-02-02T14:42:55.040Z,,,,,,,,,,,,,,,,,54,,,,,,,,,,,,,,694.8150000000023,,response,,,,100,,,,,,,Space,keypress(Space),,,,,,,,-- --- ---- --- French ----- ------- ---- -- --- ------- --<br>------- ---------- ------ -- ----- -- ----- -- ---- ------<br>--- ----- --- --- ------ -------- ----- --- ------ ----- --<br>----- ----- ---------- --- --- ------ ------ ---- -- ------<br>------- --- ------ ----- --- ---- ------- -- ---- --- --<br>------- ------,217404.90000003576,217401.5,216690.018,216700.40000003576,216706.685,217406.699,,4,French
screen,html.Screen,2_1_1_1_5,2022-02-02T14:42:55.415Z,,,,,,,,,,,,,,,,,54,,,,,,,,,,,,,,369.70100003576954,,response,,,,100,,,,,,,Space,keypress(Space),,,,,,,,-- --- ---- --- ------ crown ------- ---- -- --- ------- --<br>------- ---------- ------ -- ----- -- ----- -- ---- ------<br>--- ----- --- --- ------ -------- ----- --- ------ ----- --<br>----- ----- ---------- --- --- ------ ------ ---- -- ------<br>------- --- ------ ----- --- ---- ------- -- ---- --- --<br>------- ------,217779.90000003576,217776.40000003576,217390.032,217404.90000003576,217406.699,217790.04,,5,crown
screen,html.Screen,2_1_1_1_6,2022-02-02T14:42:55.969Z,,,,,,,,,,,,,,,,,54,,,,,,,,,,,,,,540.4599999999919,,response,,,,100,,,,,,,Space,keypress(Space),,,,,,,,-- --- ---- --- ------ ----- secured ---- -- --- ------- --<br>------- ---------- ------ -- ----- -- ----- -- ---- ------<br>--- ----- --- --- ------ -------- ----- --- ------ ----- --<br>----- ----- ---------- --- --- ------ ------ ---- -- ------<br>------- --- ------ ----- --- ---- ------- -- ---- --- --<br>------- ------,218334,218330.5,217773.373,217780,217790.04,218340.051,,6,secured
screen,html.Screen,2_1_1_1_7,2022-02-02T14:42:56.392Z,,,,,,,,,,,,,,,,,54,,,,,,,,,,,,,,413.44899999999325,,response,,,,100,,,,,,,Space,keypress(Space),,,,,,,,-- --- ---- --- ------ ----- ------- much -- --- ------- --<br>------- ---------- ------ -- ----- -- ----- -- ---- ------<br>--- ----- --- --- ------ -------- ----- --- ------ ----- --<br>----- ----- ---------- --- --- ------ ------ ---- -- ------<br>------- --- ------ ----- --- ---- ------- -- ---- --- --<br>------- ------,218756.69999998808,218753.5,218323.384,218334.69999998808,218340.051,218773.393,,7,much
screen,html.Screen,2_1_1_1_8,2022-02-02T14:42:56.769Z,,,,,,,,,,,,,,,,,54,,,,,,,,,,,,,,356.2070000238309,,response,,,,100,,,,,,,Space,keypress(Space),,,,,,,,-- --- ---- --- ------ ----- ------- ---- of --- ------- --<br>------- ---------- ------ -- ----- -- ----- -- ---- ------<br>--- ----- --- --- ------ -------- ----- --- ------ ----- --<br>----- ----- ---------- --- --- ------ ------ ---- -- ------<br>------- --- ------ ----- --- ---- ------- -- ---- --- --<br>------- ------,219133.5,219129.60000002384,218756.726,218756.80000001192,218773.393,219140.067,,8,of
screen,html.Screen,2_1_1_1_9,2022-02-02T14:42:57.050Z,,,,,,,,,,,,,,,,,54,,,,,,,,,,,,,,271.2330000119109,,response,,,,100,,,,,,,Space,keypress(Space),,,,,,,,-- --- ---- --- ------ ----- ------- ---- -- its ------- --<br>------- ---------- ------ -- ----- -- ----- -- ---- ------<br>--- ----- --- --- ------ -------- ----- --- ------ ----- --<br>----- ----- ---------- --- --- ------ ------ ---- -- ------<br>------- --- ------ ----- --- ---- ------- -- ---- --- --<br>------- ------,219414.80000001192,219411.30000001192,219123.4,219133.5,219140.067,219423.406,,9,its
screen,html.Screen,2_1_1_1_10,2022-02-02T14:42:57.302Z,,,,,,,,,,,,,,,,,54,,,,,,,,,,,,,,240.09400000001187,,response,,,,100,,,,,,,Space,keypress(Space),,,,,,,,-- --- ---- --- ------ ----- ------- ---- -- --- revenue --<br>------- ---------- ------ -- ----- -- ----- -- ---- ------<br>--- ----- --- --- ------ -------- ----- --- ------ ----- --<br>----- ----- ---------- --- --- ------ ------ ---- -- ------<br>------- --- ------ ----- --- ---- ------- -- ---- --- --<br>------- ------,219666.69999998808,219663.5,219406.739,219414.90000003576,219423.406,219673.411,,10,revenue
screen,html.Screen,2_1_1_1_11,2022-02-02T14:42:57.819Z,,,,,,,,,,,,,,,,,54,,,,,,,,,,,,,,505.88900001192815,,response,,,,100,,,,,,,Space,keypress(Space),,,,,,,,-- --- ---- --- ------ ----- ------- ---- -- --- ------- by<br>------- ---------- ------ -- ----- -- ----- -- ---- ------<br>--- ----- --- --- ------ -------- ----- --- ------ ----- --<br>----- ----- ---------- --- --- ------ ------ ---- -- ------<br>------- --- ------ ----- --- ---- ------- -- ---- --- --<br>------- ------,220183.60000002384,220179.30000001192,219656.744,219666.90000003576,219673.411,220190.088,,11,by
screen,html.Screen,2_1_1_1_12,2022-02-02T14:42:58.216Z,,,,,,,,,,,,,,,,,54,,,,,,,,,,,,,,386.2120000119321,,response,,,,100,,,,,,,Space,keypress(Space),,,,,,,,-- --- ---- --- ------ ----- ------- ---- -- --- ------- --<br>issuing ---------- ------ -- ----- -- ----- -- ---- ------<br>--- ----- --- --- ------ -------- ----- --- ------ ----- --<br>----- ----- ---------- --- --- ------ ------ ---- -- ------<br>------- --- ------ ----- --- ---- ------- -- ---- --- --<br>------- ------,220580.30000001192,220576.30000001192,220173.421,220183.69999998808,220190.088,220590.096,,12,issuing
screen,html.Screen,2_1_1_1_13,2022-02-02T14:42:58.471Z,,,,,,,,,,,,,,,,,54,,,,,,,,,,,,,,242.20400001193048,,response,,,,100,,,,,,,Space,keypress(Space),,,,,,,,-- --- ---- --- ------ ----- ------- ---- -- --- ------- --<br>------- government ------ -- ----- -- ----- -- ---- ------<br>--- ----- --- --- ------ -------- ----- --- ------ ----- --<br>----- ----- ---------- --- --- ------ ------ ---- -- ------<br>------- --- ------ ----- --- ---- ------- -- ---- --- --<br>------- ------,220835.69999998808,220832.30000001192,220573.429,220580.60000002384,220590.096,220840.101,,13,government
screen,html.Screen,2_1_1_1_14,2022-02-02T14:42:59.037Z,,,,,,,,,,,,,,,,,54,,,,,,,,,,,,,,558.2990000357677,,response,,,,100,,,,,,,Space,keypress(Space),,,,,,,,-- --- ---- --- ------ ----- ------- ---- -- --- ------- --<br>------- ---------- bonds. -- ----- -- ----- -- ---- ------<br>--- ----- --- --- ------ -------- ----- --- ------ ----- --<br>----- ----- ---------- --- --- ------ ------ ---- -- ------<br>------- --- ------ ----- --- ---- ------- -- ---- --- --<br>------- ------,221402.19999998808,221398.40000003576,220823.434,220835.80000001192,220840.101,221406.779,,14,bonds.
screen,html.Screen,2_1_1_1_15,2022-02-02T14:42:59.623Z,,,,,,,,,,,,,,,,,54,,,,,,,,,,,,,,577.6210000357532,,response,,,,100,,,,,,,Space,keypress(Space),,,,,,,,-- --- ---- --- ------ ----- ------- ---- -- --- ------- --<br>------- ---------- ------ In ----- -- ----- -- ---- ------<br>--- ----- --- --- ------ -------- ----- --- ------ ----- --<br>----- ----- ---------- --- --- ------ ------ ---- -- ------<br>------- --- ------ ----- --- ---- ------- -- ---- --- --<br>------- ------,221987.69999998808,221984.40000003576,221390.112,221402.40000003576,221406.779,221990.124,,15,In
screen,html.Screen,2_1_1_1_16,2022-02-02T14:43:00.048Z,,,,,,,,,,,,,,,,,54,,,,,,,,,,,,,,418.97600002383115,,response,,,,100,,,,,,,Space,keypress(Space),,,,,,,,"-- --- ---- --- ------ ----- ------- ---- -- --- ------- --<br>------- ---------- ------ -- 1727, -- ----- -- ---- ------<br>--- ----- --- --- ------ -------- ----- --- ------ ----- --<br>----- ----- ---------- --- --- ------ ------ ---- -- ------<br>------- --- ------ ----- --- ---- ------- -- ---- --- --<br>------- ------",222412.60000002384,222409.10000002384,221973.457,221987.80000001192,221990.124,222423.466,,16,"1727,"
screen,html.Screen,2_1_1_1_17,2022-02-02T14:43:00.447Z,,,,,,,,,,,,,,,,,54,,,,,,,,,,,,,,384.7339999880933,,response,,,,100,,,,,,,Space,keypress(Space),,,,,,,,-- --- ---- --- ------ ----- ------- ---- -- --- ------- --<br>------- ---------- ------ -- ----- in ----- -- ---- ------<br>--- ----- --- --- ------ -------- ----- --- ------ ----- --<br>----- ----- ---------- --- --- ------ ------ ---- -- ------<br>------- --- ------ ----- --- ---- ------- -- ---- --- --<br>------- ------,222811.30000001192,222808.19999998808,222406.799,222412.60000002384,222423.466,222823.474,,17,in
screen,html.Screen,2_1_1_1_18,2022-02-02T14:43:01.353Z,,,,,,,,,,,,,,,,,54,,,,,,,,,,,,,,890.6260000238544,,response,,,,100,,,,,,,Space,keypress(Space),,,,,,,,-- --- ---- --- ------ ----- ------- ---- -- --- ------- --<br>------- ---------- ------ -- ----- -- order -- ---- ------<br>--- ----- --- --- ------ -------- ----- --- ------ ----- --<br>----- ----- ---------- --- --- ------ ------ ---- -- ------<br>------- --- ------ ----- --- ---- ------- -- ---- --- --<br>------- ------,223717.30000001192,223714.10000002384,222806.807,222811.40000003576,222823.474,223723.492,,18,order
screen,html.Screen,2_1_1_1_19,2022-02-02T14:43:01.886Z,,,,,,,,,,,,,,,,,54,,,,,,,,,,,,,,523.5080000000016,,response,,,,100,,,,,,,Space,keypress(Space),,,,,,,,-- --- ---- --- ------ ----- ------- ---- -- --- ------- --<br>------- ---------- ------ -- ----- -- ----- to ---- ------<br>--- ----- --- --- ------ -------- ----- --- ------ ----- --<br>----- ----- ---------- --- --- ------ ------ ---- -- ------<br>------- --- ------ ----- --- ---- ------- -- ---- --- --<br>------- ------,224251,224247,223706.825,223717.40000003576,223723.492,224256.836,,19,to
screen,html.Screen,2_1_1_1_20,2022-02-02T14:43:02.286Z,,,,,,,,,,,,,,,,,54,,,,,,,,,,,,,,390.16399999998976,,response,,,,100,,,,,,,Space,keypress(Space),,,,,,,,-- --- ---- --- ------ ----- ------- ---- -- --- ------- --<br>------- ---------- ------ -- ----- -- ----- -- save ------<br>--- ----- --- --- ------ -------- ----- --- ------ ----- --<br>----- ----- ---------- --- --- ------ ------ ---- -- ------<br>------- --- ------ ----- --- ---- ------- -- ---- --- --<br>------- ------,224650.30000001192,224647,224240.169,224251.30000001192,224256.836,224657.269,,20,save
screen,html.Screen,2_1_1_1_21,2022-02-02T14:43:02.719Z,,,,,,,,,,,,,,,,,54,,,,,,,,,,,,,,422.93099998807884,,response,,,,100,,,,,,,Space,keypress(Space),,,,,,,,"-- --- ---- --- ------ ----- ------- ---- -- --- ------- --<br>------- ---------- ------ -- ----- -- ----- -- ---- money,<br>--- ----- --- --- ------ -------- ----- --- ------ ----- --<br>----- ----- ---------- --- --- ------ ------ ---- -- ------<br>------- --- ------ ----- --- ---- ------- -- ---- --- --<br>------- ------",225083.69999998808,225080.19999998808,224640.602,224650.5,224657.269,225090.611,,21,"money,"
screen,html.Screen,2_1_1_1_22,2022-02-02T14:43:03.158Z,,,,,,,,,,,,,,,,,54,,,,,,,,,,,,,,428.3889999999956,,response,,,,100,,,,,,,Space,keypress(Space),,,,,,,,-- --- ---- --- ------ ----- ------- ---- -- --- ------- --<br>------- ---------- ------ -- ----- -- ----- -- ---- ------<br>the ----- --- --- ------ -------- ----- --- ------ ----- --<br>----- ----- ---------- --- --- ------ ------ ---- -- ------<br>------- --- ------ ----- --- ---- ------- -- ---- --- --<br>------- ------,225522.69999998808,225519,225073.944,225083.80000001192,225090.611,225523.953,,22,the
screen,html.Screen,2_1_1_1_23,2022-02-02T14:43:03.439Z,,,,,,,,,,,,,,,,,54,,,,,,,,,,,,,,276.0469999999914,,response,,,,100,,,,,,,Space,keypress(Space),,,,,,,,-- --- ---- --- ------ ----- ------- ---- -- --- ------- --<br>------- ---------- ------ -- ----- -- ----- -- ---- ------<br>--- state --- --- ------ -------- ----- --- ------ ----- --<br>----- ----- ---------- --- --- ------ ------ ---- -- ------<br>------- --- ------ ----- --- ---- ------- -- ---- --- --<br>------- ------,225804.10000002384,225800,225507.286,225522.80000001192,225523.953,225807.292,,23,state
screen,html.Screen,2_1_1_1_24,2022-02-02T14:43:03.912Z,,,,,,,,,,,,,,,,,54,,,,,,,,,,,,,,465.60800003577606,,response,,,,100,,,,,,,Space,keypress(Space),,,,,,,,-- --- ---- --- ------ ----- ------- ---- -- --- ------- --<br>------- ---------- ------ -- ----- -- ----- -- ---- ------<br>--- ----- cut --- ------ -------- ----- --- ------ ----- --<br>----- ----- ---------- --- --- ------ ------ ---- -- ------<br>------- --- ------ ----- --- ---- ------- -- ---- --- --<br>------- ------,226276.19999998808,226272.90000003576,225790.625,225804.30000001192,225807.292,226290.635,,24,cut
screen,html.Screen,2_1_1_1_25,2022-02-02T14:43:04.325Z,,,,,,,,,,,,,,,,,54,,,,,,,,,,,,,,395.2650000357535,,response,,,,100,,,,,,,Space,keypress(Space),,,,,,,,-- --- ---- --- ------ ----- ------- ---- -- --- ------- --<br>------- ---------- ------ -- ----- -- ----- -- ---- ------<br>--- ----- --- the ------ -------- ----- --- ------ ----- --<br>----- ----- ---------- --- --- ------ ------ ---- -- ------<br>------- --- ------ ----- --- ---- ------- -- ---- --- --<br>------- ------,226689.19999998808,226685.90000003576,226273.968,226276.30000001192,226290.635,226690.643,,25,the
screen,html.Screen,2_1_1_1_26,2022-02-02T14:43:04.724Z,,,,,,,,,,,,,,,,,54,,,,,,,,,,,,,,395.35699999998906,,response,,,,100,,,,,,,Space,keypress(Space),,,,,,,,-- --- ---- --- ------ ----- ------- ---- -- --- ------- --<br>------- ---------- ------ -- ----- -- ----- -- ---- ------<br>--- ----- --- --- bonds' -------- ----- --- ------ ----- --<br>----- ----- ---------- --- --- ------ ------ ---- -- ------<br>------- --- ------ ----- --- ---- ------- -- ---- --- --<br>------- ------,227089.10000002384,227086,226673.976,226689.5,226690.643,227107.318,,26,bonds'
screen,html.Screen,2_1_1_1_27,2022-02-02T14:43:05.252Z,,,,,,,,,,,,,,,,,54,,,,,,,,,,,,,,504.5820000357635,,response,,,,100,,,,,,,Space,keypress(Space),,,,,,,,-- --- ---- --- ------ ----- ------- ---- -- --- ------- --<br>------- ---------- ------ -- ----- -- ----- -- ---- ------<br>--- ----- --- --- ------ interest ----- --- ------ ----- --<br>----- ----- ---------- --- --- ------ ------ ---- -- ------<br>------- --- ------ ----- --- ---- ------- -- ---- --- --<br>------- ------,227616.40000003576,227611.90000003576,227090.651,227089.19999998808,227107.318,227623.995,,27,interest
screen,html.Screen,2_1_1_1_28,2022-02-02T14:43:05.677Z,,,,,,,,,,,,,,,,,54,,,,,,,,,,,,,,414.1050000238465,,response,,,,100,,,,,,,Space,keypress(Space),,,,,,,,-- --- ---- --- ------ ----- ------- ---- -- --- ------- --<br>------- ---------- ------ -- ----- -- ----- -- ---- ------<br>--- ----- --- --- ------ -------- rate. --- ------ ----- --<br>----- ----- ---------- --- --- ------ ------ ---- -- ------<br>------- --- ------ ----- --- ---- ------- -- ---- --- --<br>------- ------,228041.40000003576,228038.10000002384,227607.328,227616.5,227623.995,228057.337,,28,rate.
screen,html.Screen,2_1_1_1_29,2022-02-02T14:43:06.114Z,,,,,,,,,,,,,,,,,54,,,,,,,,,,,,,,418.66300000000047,,response,,,,100,,,,,,,Space,keypress(Space),,,,,,,,-- --- ---- --- ------ ----- ------- ---- -- --- ------- --<br>------- ---------- ------ -- ----- -- ----- -- ---- ------<br>--- ----- --- --- ------ -------- ----- The ------ ----- --<br>----- ----- ---------- --- --- ------ ------ ---- -- ------<br>------- --- ------ ----- --- ---- ------- -- ---- --- --<br>------- ------,228478.90000003576,228476,228040.67,228041.60000002384,228057.337,228490.679,,29,The
screen,html.Screen,2_1_1_1_30,2022-02-02T14:43:06.550Z,,,,,,,,,,,,,,,,,54,,,,,,,,,,,,,,419.02099998807535,,response,,,,100,,,,,,,Space,keypress(Space),,,,,,,,-- --- ---- --- ------ ----- ------- ---- -- --- ------- --<br>------- ---------- ------ -- ----- -- ----- -- ---- ------<br>--- ----- --- --- ------ -------- ----- --- market ----- --<br>----- ----- ---------- --- --- ------ ------ ---- -- ------<br>------- --- ------ ----- --- ---- ------- -- ---- --- --<br>------- ------,228914.90000003576,228909.69999998808,228474.012,228479.19999998808,228490.679,228924.021,,30,market
screen,html.Screen,2_1_1_1_31,2022-02-02T14:43:06.809Z,,,,,,,,,,,,,,,,,54,,,,,,,,,,,,,,246.07900002383394,,response,,,,100,,,,,,,Space,keypress(Space),,,,,,,,-- --- ---- --- ------ ----- ------- ---- -- --- ------- --<br>------- ---------- ------ -- ----- -- ----- -- ---- ------<br>--- ----- --- --- ------ -------- ----- --- ------ value --<br>----- ----- ---------- --- --- ------ ------ ---- -- ------<br>------- --- ------ ----- --- ---- ------- -- ---- --- --<br>------- ------,229173.5,229170.10000002384,228907.354,228915,228924.021,229190.693,,31,value
screen,html.Screen,2_1_1_1_32,2022-02-02T14:43:07.146Z,,,,,,,,,,,,,,,,,54,,,,,,,,,,,,,,316.00699998807977,,response,,,,100,,,,,,,Space,keypress(Space),,,,,,,,-- --- ---- --- ------ ----- ------- ---- -- --- ------- --<br>------- ---------- ------ -- ----- -- ----- -- ---- ------<br>--- ----- --- --- ------ -------- ----- --- ------ ----- of<br>----- ----- ---------- --- --- ------ ------ ---- -- ------<br>------- --- ------ ----- --- ---- ------- -- ---- --- --<br>------- ------,229510.19999998808,229506.69999998808,229174.026,229173.60000002384,229190.693,229524.033,,32,of
screen,html.Screen,2_1_1_1_33,2022-02-02T14:43:07.462Z,,,,,,,,,,,,,,,,,54,,,,,,,,,,,,,,298.7670000119251,,response,,,,100,,,,,,,Space,keypress(Space),,,,,,,,-- --- ---- --- ------ ----- ------- ---- -- --- ------- --<br>------- ---------- ------ -- ----- -- ----- -- ---- ------<br>--- ----- --- --- ------ -------- ----- --- ------ ----- --<br>these ----- ---------- --- --- ------ ------ ---- -- ------<br>------- --- ------ ----- --- ---- ------- -- ---- --- --<br>------- ------,229827,229822.80000001192,229507.366,229510.40000003576,229524.033,229840.706,,33,these
screen,html.Screen,2_1_1_1_34,2022-02-02T14:43:07.724Z,,,,,,,,,,,,,,,,,54,,,,,,,,,,,,,,244.89400002383627,,response,,,,100,,,,,,,Space,keypress(Space),,,,,,,,-- --- ---- --- ------ ----- ------- ---- -- --- ------- --<br>------- ---------- ------ -- ----- -- ----- -- ---- ------<br>--- ----- --- --- ------ -------- ----- --- ------ ----- --<br>----- bonds ---------- --- --- ------ ------ ---- -- ------<br>------- --- ------ ----- --- ---- ------- -- ---- --- --<br>------- ------,230088.80000001192,230085.60000002384,229824.039,229827.10000002384,229840.706,230090.711,,34,bonds
screen,html.Screen,2_1_1_1_35,2022-02-02T14:43:08.198Z,,,,,,,,,,,,,,,,,54,,,,,,,,,,,,,,465.9889999880688,,response,,,,100,,,,,,,Space,keypress(Space),,,,,,,,"-- --- ---- --- ------ ----- ------- ---- -- --- ------- --<br>------- ---------- ------ -- ----- -- ----- -- ---- ------<br>--- ----- --- --- ------ -------- ----- --- ------ ----- --<br>----- ----- plummeted, --- --- ------ ------ ---- -- ------<br>------- --- ------ ----- --- ---- ------- -- ---- --- --<br>------- ------",230562.80000001192,230556.69999998808,230074.044,230088.90000003576,230090.711,230574.054,,35,"plummeted,"
screen,html.Screen,2_1_1_1_36,2022-02-02T14:43:08.500Z,,,,,,,,,,,,,,,,,54,,,,,,,,,,,,,,286.64599998807535,,response,,,,100,,,,,,,Space,keypress(Space),,,,,,,,-- --- ---- --- ------ ----- ------- ---- -- --- ------- --<br>------- ---------- ------ -- ----- -- ----- -- ---- ------<br>--- ----- --- --- ------ -------- ----- --- ------ ----- --<br>----- ----- ---------- and --- ------ ------ ---- -- ------<br>------- --- ------ ----- --- ---- ------- -- ---- --- --<br>------- ------,230864.5,230860.69999998808,230557.387,230562.90000003576,230574.054,230874.06,,36,and
screen,html.Screen,2_1_1_1_37,2022-02-02T14:43:08.789Z,,,,,,,,,,,,,,,,,54,,,,,,,,,,,,,,275.74000001192326,,response,,,,100,,,,,,,Space,keypress(Space),,,,,,,,-- --- ---- --- ------ ----- ------- ---- -- --- ------- --<br>------- ---------- ------ -- ----- -- ----- -- ---- ------<br>--- ----- --- --- ------ -------- ----- --- ------ ----- --<br>----- ----- ---------- --- the ------ ------ ---- -- ------<br>------- --- ------ ----- --- ---- ------- -- ---- --- --<br>------- ------,231153.69999998808,231149.80000001192,230857.393,230864.60000002384,230874.06,231157.399,,37,the
screen,html.Screen,2_1_1_1_38,2022-02-02T14:43:09.034Z,,,,,,,,,,,,,,,,,54,,,,,,,,,,,,,,238.1009999999951,,response,,,,100,,,,,,,Space,keypress(Space),,,,,,,,-- --- ---- --- ------ ----- ------- ---- -- --- ------- --<br>------- ---------- ------ -- ----- -- ----- -- ---- ------<br>--- ----- --- --- ------ -------- ----- --- ------ ----- --<br>----- ----- ---------- --- --- market ------ ---- -- ------<br>------- --- ------ ----- --- ---- ------- -- ---- --- --<br>------- ------,231398.90000003576,231395.5,231140.732,231153.90000003576,231157.399,231407.404,,38,market
screen,html.Screen,2_1_1_1_39,2022-02-02T14:43:09.428Z,,,,,,,,,,,,,,,,,54,,,,,,,,,,,,,,381.1960000238323,,response,,,,100,,,,,,,Space,keypress(Space),,,,,,,,-- --- ---- --- ------ ----- ------- ---- -- --- ------- --<br>------- ---------- ------ -- ----- -- ----- -- ---- ------<br>--- ----- --- --- ------ -------- ----- --- ------ ----- --<br>----- ----- ---------- --- --- ------ became ---- -- ------<br>------- --- ------ ----- --- ---- ------- -- ---- --- --<br>------- ------,231792.30000001192,231788.60000002384,231390.737,231399.10000002384,231407.404,231807.412,,39,became
screen,html.Screen,2_1_1_1_40,2022-02-02T14:43:09.767Z,,,,,,,,,,,,,,,,,54,,,,,,,,,,,,,,321.0879999999888,,response,,,,100,,,,,,,Space,keypress(Space),,,,,,,,-- --- ---- --- ------ ----- ------- ---- -- --- ------- --<br>------- ---------- ------ -- ----- -- ----- -- ---- ------<br>--- ----- --- --- ------ -------- ----- --- ------ ----- --<br>----- ----- ---------- --- --- ------ ------ wary -- ------<br>------- --- ------ ----- --- ---- ------- -- ---- --- --<br>------- ------,232131.80000001192,232128.5,231790.745,231792.30000001192,231807.412,232140.752,,40,wary
screen,html.Screen,2_1_1_1_41,2022-02-02T14:43:10.181Z,,,,,,,,,,,,,,,,,54,,,,,,,,,,,,,,401.8480000238342,,response,,,,100,,,,,,,Space,keypress(Space),,,,,,,,-- --- ---- --- ------ ----- ------- ---- -- --- ------- --<br>------- ---------- ------ -- ----- -- ----- -- ---- ------<br>--- ----- --- --- ------ -------- ----- --- ------ ----- --<br>----- ----- ---------- --- --- ------ ------ ---- of ------<br>------- --- ------ ----- --- ---- ------- -- ---- --- --<br>------- ------,232545.90000003576,232542.60000002384,232124.085,232131.90000003576,232140.752,232557.427,,41,of
screen,html.Screen,2_1_1_1_42,2022-02-02T14:43:10.574Z,,,,,,,,,,,,,,,,,54,,,,,,,,,,,,,,377.1730000238458,,response,,,,100,,,,,,,Space,keypress(Space),,,,,,,,-- --- ---- --- ------ ----- ------- ---- -- --- ------- --<br>------- ---------- ------ -- ----- -- ----- -- ---- ------<br>--- ----- --- --- ------ -------- ----- --- ------ ----- --<br>----- ----- ---------- --- --- ------ ------ ---- -- French<br>------- --- ------ ----- --- ---- ------- -- ---- --- --<br>------- ------,232938.19999998808,232934.60000002384,232540.76,232546.10000002384,232557.427,232940.768,,42,French
screen,html.Screen,2_1_1_1_43,2022-02-02T14:43:10.954Z,,,,,,,,,,,,,,,,,54,,,,,,,,,,,,,,374.73199999998906,,response,,,,100,,,,,,,Space,keypress(Space),,,,,,,,-- --- ---- --- ------ ----- ------- ---- -- --- ------- --<br>------- ---------- ------ -- ----- -- ----- -- ---- ------<br>--- ----- --- --- ------ -------- ----- --- ------ ----- --<br>----- ----- ---------- --- --- ------ ------ ---- -- ------<br>credit. --- ------ ----- --- ---- ------- -- ---- --- --<br>------- ------,233318.90000003576,233315.5,232924.101,232938.5,232940.768,233324.109,,43,credit.
screen,html.Screen,2_1_1_1_44,2022-02-02T14:43:11.457Z,,,,,,,,,,,,,,,,,54,,,,,,,,,,,,,,492.4910000238451,,response,,,,100,,,,,,,Space,keypress(Space),,,,,,,,-- --- ---- --- ------ ----- ------- ---- -- --- ------- --<br>------- ---------- ------ -- ----- -- ----- -- ---- ------<br>--- ----- --- --- ------ -------- ----- --- ------ ----- --<br>----- ----- ---------- --- --- ------ ------ ---- -- ------<br>------- The ------ ----- --- ---- ------- -- ---- --- --<br>------- ------,233821.10000002384,233816.60000002384,233307.442,233319,233324.109,233840.786,,44,The
screen,html.Screen,2_1_1_1_45,2022-02-02T14:43:11.728Z,,,,,,,,,,,,,,,,,54,,,,,,,,,,,,,,247.71400000000722,,response,,,,100,,,,,,,Space,keypress(Space),,,,,,,,-- --- ---- --- ------ ----- ------- ---- -- --- ------- --<br>------- ---------- ------ -- ----- -- ----- -- ---- ------<br>--- ----- --- --- ------ -------- ----- --- ------ ----- --<br>----- ----- ---------- --- --- ------ ------ ---- -- ------<br>------- --- French ----- --- ---- ------- -- ---- --- --<br>------- ------,234092.10000002384,234088.5,233824.119,233821.19999998808,233840.786,234107.458,,45,French
screen,html.Screen,2_1_1_1_46,2022-02-02T14:43:12.029Z,,,,,,,,,,,,,,,,,54,,,,,,,,,,,,,,282.1420000238286,,response,,,,100,,,,,,,Space,keypress(Space),,,,,,,,-- --- ---- --- ------ ----- ------- ---- -- --- ------- --<br>------- ---------- ------ -- ----- -- ----- -- ---- ------<br>--- ----- --- --- ------ -------- ----- --- ------ ----- --<br>----- ----- ---------- --- --- ------ ------ ---- -- ------<br>------- --- ------ state --- ---- ------- -- ---- --- --<br>------- ------,234393.19999998808,234389.60000002384,234090.791,234092.30000001192,234107.458,234407.999,,46,state
screen,html.Screen,2_1_1_1_47,2022-02-02T14:43:12.383Z,,,,,,,,,,,,,,,,,54,,,,,,,,,,,,,,336.4010000357521,,response,,,,100,,,,,,,Space,keypress(Space),,,,,,,,-- --- ---- --- ------ ----- ------- ---- -- --- ------- --<br>------- ---------- ------ -- ----- -- ----- -- ---- ------<br>--- ----- --- --- ------ -------- ----- --- ------ ----- --<br>----- ----- ---------- --- --- ------ ------ ---- -- ------<br>------- --- ------ ----- was ---- ------- -- ---- --- --<br>------- ------,234747.69999998808,234744.40000003576,234391.332,234393.30000001192,234407.999,234758.006,,47,was
screen,html.Screen,2_1_1_1_48,2022-02-02T14:43:12.710Z,,,,,,,,,,,,,,,,,54,,,,,,,,,,,,,,311.39400003576884,,response,,,,100,,,,,,,Space,keypress(Space),,,,,,,,-- --- ---- --- ------ ----- ------- ---- -- --- ------- --<br>------- ---------- ------ -- ----- -- ----- -- ---- ------<br>--- ----- --- --- ------ -------- ----- --- ------ ----- --<br>----- ----- ---------- --- --- ------ ------ ---- -- ------<br>------- --- ------ ----- --- left ------- -- ---- --- --<br>------- ------,235074,235069.40000003576,234741.339,234747.90000003576,234758.006,235091.346,,48,left
screen,html.Screen,2_1_1_1_49,2022-02-02T14:43:13.001Z,,,,,,,,,,,,,,,,,54,,,,,,,,,,,,,,270.15400000000955,,response,,,,100,,,,,,,Space,keypress(Space),,,,,,,,-- --- ---- --- ------ ----- ------- ---- -- --- ------- --<br>------- ---------- ------ -- ----- -- ----- -- ---- ------<br>--- ----- --- --- ------ -------- ----- --- ------ ----- --<br>----- ----- ---------- --- --- ------ ------ ---- -- ------<br>------- --- ------ ----- --- ---- without -- ---- --- --<br>------- ------,235365.10000002384,235361.5,235074.679,235074.10000002384,235091.346,235374.685,,49,without
screen,html.Screen,2_1_1_1_50,2022-02-02T14:43:13.478Z,,,,,,,,,,,,,,,,,54,,,,,,,,,,,,,,463.9150000238442,,response,,,,100,,,,,,,Space,keypress(Space),,,,,,,,-- --- ---- --- ------ ----- ------- ---- -- --- ------- --<br>------- ---------- ------ -- ----- -- ----- -- ---- ------<br>--- ----- --- --- ------ -------- ----- --- ------ ----- --<br>----- ----- ---------- --- --- ------ ------ ---- -- ------<br>------- --- ------ ----- --- ---- ------- an ---- --- --<br>------- ------,235842.40000003576,235838.60000002384,235358.018,235365.30000001192,235374.685,235858.028,,50,an
screen,html.Screen,2_1_1_1_51,2022-02-02T14:43:13.940Z,,,,,,,,,,,,,,,,,54,,,,,,,,,,,,,,442.2720000119298,,response,,,,100,,,,,,,Space,keypress(Space),,,,,,,,-- --- ---- --- ------ ----- ------- ---- -- --- ------- --<br>------- ---------- ------ -- ----- -- ----- -- ---- ------<br>--- ----- --- --- ------ -------- ----- --- ------ ----- --<br>----- ----- ---------- --- --- ------ ------ ---- -- ------<br>------- --- ------ ----- --- ---- ------- -- easy --- --<br>------- ------,236304.10000002384,236300.30000001192,235841.361,235842.60000002384,235858.028,236308.037,,51,easy
screen,html.Screen,2_1_1_1_52,2022-02-02T14:43:14.354Z,,,,,,,,,,,,,,,,,54,,,,,,,,,,,,,,407.26300001190975,,response,,,,100,,,,,,,Space,keypress(Space),,,,,,,,-- --- ---- --- ------ ----- ------- ---- -- --- ------- --<br>------- ---------- ------ -- ----- -- ----- -- ---- ------<br>--- ----- --- --- ------ -------- ----- --- ------ ----- --<br>----- ----- ---------- --- --- ------ ------ ---- -- ------<br>------- --- ------ ----- --- ---- ------- -- ---- way --<br>------- ------,236718.69999998808,236715.30000001192,236291.37,236304.30000001192,236308.037,236724.712,,52,way
screen,html.Screen,2_1_1_1_53,2022-02-02T14:43:14.706Z,,,,,,,,,,,,,,,,,54,,,,,,,,,,,,,,342.68800003576325,,response,,,,100,,,,,,,Space,keypress(Space),,,,,,,,-- --- ---- --- ------ ----- ------- ---- -- --- ------- --<br>------- ---------- ------ -- ----- -- ----- -- ---- ------<br>--- ----- --- --- ------ -------- ----- --- ------ ----- --<br>----- ----- ---------- --- --- ------ ------ ---- -- ------<br>------- --- ------ ----- --- ---- ------- -- ---- --- of<br>------- ------,237070.60000002384,237067.40000003576,236708.045,236718.90000003576,236724.712,237074.719,,53,of
screen,html.Screen,2_1_1_1_54,2022-02-02T14:43:15.151Z,,,,,,,,,,,,,,,,,54,,,,,,,,,,,,,,437.4809999880672,,response,,,,100,,,,,,,Space,keypress(Space),,,,,,,,-- --- ---- --- ------ ----- ------- ---- -- --- ------- --<br>------- ---------- ------ -- ----- -- ----- -- ---- ------<br>--- ----- --- --- ------ -------- ----- --- ------ ----- --<br>----- ----- ---------- --- --- ------ ------ ---- -- ------<br>------- --- ------ ----- --- ---- ------- -- ---- --- --<br>raising ------,237515.69999998808,237512.19999998808,237058.052,237070.80000001192,237074.719,237524.728,,54,raising
screen,html.Screen,2_1_1_1_55,2022-02-02T14:43:15.443Z,,,,,,,,,,,,,,,,,54,,,,,,,,,,,,,,279.37200002383906,,response,,,,100,,,,,,,Space,keypress(Space),,,,,,,,-- --- ---- --- ------ ----- ------- ---- -- --- ------- --<br>------- ---------- ------ -- ----- -- ----- -- ---- ------<br>--- ----- --- --- ------ -------- ----- --- ------ ----- --<br>----- ----- ---------- --- --- ------ ------ ---- -- ------<br>------- --- ------ ----- --- ---- ------- -- ---- --- --<br>------- money.,237807.10000002384,237804.10000002384,237508.061,237515.90000003576,237524.728,237824.734,,55,money.
Item 100,flow.Loop,2_1_1_1,2022-02-02T14:43:15.443Z,,,,,,,,,,,,,,,,,,,,,,,,,,,,,,,23098.02500002383,,completion,,,,,C,,,,,,,,,,,silence,,,,,237807.30000001192,237804.10000002384,214689.408,214691.69999998808,214706.075,237824.734,,,
Question 1,html.Screen,2_1_1_2,2022-02-02T14:43:18.278Z,,,,,,,,,,,,,,,,,,,,,,,,,,,,true,TRUE,,2814.866000023845,,response,,,,100,C,,,,,,TRUE,click #choice-1,,,,silence,,,,,240642.19999998808,240639.60000002384,237808.067,237807.40000003576,237824.734,240658.124,,,
Question 2,html.Screen,2_1_1_3,2022-02-02T14:43:24.328Z,,,,,,,,,,,,,,,,,,,,,,,,,,,,true,FALSE,,6030.875999999989,,response,,,,100,C,,,,,,FALSE,click #choice-2,,,,silence,,,,,246691.60000002384,246689,240641.457,240642.40000003576,240658.124,246708.693,,,
Item 100,flow.Sequence,2_1_1,2022-02-02T14:43:24.328Z,,,,,,,,,,,,,,,,,,,,,,,,,,,,,,,41983.125,,completion,,,,,,,,,,,,,,,,,,,,,246691.80000001192,246689,204689.208,204692.40000003576,204705.875,246708.693,,,
End of Practice,html.Page,2_1_2,2022-02-02T14:43:28.274Z,,,,,,,,,,,,,,,,,,,,,,,,,,,,,,,3929.0069999880798,,form submission,,,,,,,,,,,,,,,,,,,,,250638,250637.69999998808,246692.026,246691.90000003576,246708.693,250642.105,,,
Practice,flow.Sequence,2_1,2022-02-02T14:43:28.274Z,,,,,,,,,,,,,,,,,,,,,,,,,,,,,,,88252.34599998809,,completion,,,,,,,,,,,,,,,,,,,,,250638.40000003576,250637.69999998808,162368.687,162382.90000003576,162385.354,250642.105,,,
Trap_instruction,html.Page,2_2_0,2022-02-02T14:43:34.528Z,,,,,,,,,,,,,,,,,,,,,,,,,,,,,,,6249.795000035752,,form submission,,,,,,,,,,,,,,,,,,,,,256892.19999998808,256891.90000003576,250625.438,250638.5,250642.105,256908.897,,,
trap_trial,html.Screen,2_2_1,2022-02-02T14:43:38.816Z,,,,,,,,,,,,,,,,,,,,,,,,,,,,true,1,,4267.802999988082,,response,,,,,,,,,,,1,click #choice-1,,,,,,,,,261179.19999998808,261176.69999998808,256875.563,256892.40000003576,256908.897,261193.051,,,
end of trap trial,html.Page,2_2_2,2022-02-02T14:43:40.602Z,,,,,,,,,,,,,,,,,,,,,,,,,,,,,,,1772.1489999880723,,form submission,,,,,,,,,,,,,,,,,,,,,262965.5,262965.1999999881,261176.384,261179.30000001192,261193.051,262976.42,,,
Trap 1,flow.Sequence,2_2,2022-02-02T14:43:40.602Z,,,,,,,,,,,,,,,,,,,,,,,,,,,,,,,12323.094999988069,,completion,,,,,,,,,,,,,,,,,,,,,262965.60000002384,262965.1999999881,250625.438,250638.5,250642.105,262976.42,,,
Standby,html.Page,2_3_0,2022-02-02T14:43:48.598Z,,,,,,,,,,,,,,,,,,,,,,,,,,,,,,,8000.160000000033,,timeout,,,,,,,,,,,,,,,,,,,,,270961.40000003576,270959.913,262959.753,262965.60000002384,262976.42,270976.58,,,
Holding screen,html.Screen,2_3_1_0_0,2022-02-02T14:43:55.599Z,,,,,,,,,,,,,,,,,,,,,,,,,,,,,,,7000.801999999967,,timeout,,,,,,,,,,,,,,,,,,,,,277961.6999999881,277960.715,270959.913,270961.6999999881,270976.58,277977.382,,,
screen,html.Screen,2_3_1_0_1_0,2022-02-02T14:43:56.932Z,,,,,,,,,,,,,,,,,15,,,,,,,,,,,,,,1313.1180000000168,,response,,,,7,C,,,,,,Space,keypress(Space),,,,instrumental,,,,Greg --------- ---------- - --- ------- -- --- ------------<br>----- -- -------- ------- ---- ------ - -------- ---- -----<br>--- ------- ---- -- --- -------- --- - ----- ------ ---- --<br>-------- --- -------- -------- --- -------- ---- -- ----- -<br>-------- ---- --- ---------- --------- -- ------- ------ -<br>--------- ----- -----,279295.5,279290.5,277960.715,277961.8000000119,277977.382,279310.742,,0,Greg
screen,html.Screen,2_3_1_0_1_1,2022-02-02T14:43:57.869Z,,,,,,,,,,,,,,,,,15,,,,,,,,,,,,,,918.1580000357353,,response,,,,7,C,,,,,,Space,keypress(Space),,,,instrumental,,,,"---- Anderson, ---------- - --- ------- -- --- ------------<br>----- -- -------- ------- ---- ------ - -------- ---- -----<br>--- ------- ---- -- --- -------- --- - ----- ------ ---- --<br>-------- --- -------- -------- --- -------- ---- -- ----- -<br>-------- ---- --- ---------- --------- -- ------- ------ -<br>--------- ----- -----",280232,280228.90000003576,279294.075,279295.6999999881,279310.742,280244.094,,1,"Anderson,"
screen,html.Screen,2_3_1_0_1_2,2022-02-02T14:43:58.620Z,,,,,,,,,,,,,,,,,15,,,,,,,,,,,,,,736.6059999880963,,response,,,,7,C,,,,,,Space,keypress(Space),,,,instrumental,,,,---- --------- considered - --- ------- -- --- ------------<br>----- -- -------- ------- ---- ------ - -------- ---- -----<br>--- ------- ---- -- --- -------- --- - ----- ------ ---- --<br>-------- --- -------- -------- --- -------- ---- -- ----- -<br>-------- ---- --- ---------- --------- -- ------- ------ -<br>--------- ----- -----,280983,280980.6999999881,280227.427,280232.1999999881,280244.094,280994.109,,2,considered
screen,html.Screen,2_3_1_0_1_3,2022-02-02T14:43:59.048Z,,,,,,,,,,,,,,,,,15,,,,,,,,,,,,,,413.59099998808233,,response,,,,7,C,,,,,,Space,keypress(Space),,,,instrumental,,,,---- --------- ---------- a --- ------- -- --- ------------<br>----- -- -------- ------- ---- ------ - -------- ---- -----<br>--- ------- ---- -- --- -------- --- - ----- ------ ---- --<br>-------- --- -------- -------- --- -------- ---- -- ----- -<br>-------- ---- --- ---------- --------- -- ------- ------ -<br>--------- ----- -----,281410.8000000119,281407.6999999881,280977.442,280983.3000000119,280994.109,281427.451,,3,a
screen,html.Screen,2_3_1_0_1_4,2022-02-02T14:43:59.546Z,,,,,,,,,,,,,,,,,15,,,,,,,,,,,,,,478.24899998807814,,response,,,,7,C,,,,,,Space,keypress(Space),,,,instrumental,,,,---- --------- ---------- - key ------- -- --- ------------<br>----- -- -------- ------- ---- ------ - -------- ---- -----<br>--- ------- ---- -- --- -------- --- - ----- ------ ---- --<br>-------- --- -------- -------- --- -------- ---- -- ----- -<br>-------- ---- --- ---------- --------- -- ------- ------ -<br>--------- ----- -----,281909.10000002384,281905.6999999881,281410.784,281410.90000003576,281427.451,281927.877,,4,key
screen,html.Screen,2_3_1_0_1_5,2022-02-02T14:43:59.918Z,,,,,,,,,,,,,,,,,15,,,,,,,,,,,,,,349.7230000238633,,response,,,,7,C,,,,,,Space,keypress(Space),,,,instrumental,,,,---- --------- ---------- - --- witness -- --- ------------<br>----- -- -------- ------- ---- ------ - -------- ---- -----<br>--- ------- ---- -- --- -------- --- - ----- ------ ---- --<br>-------- --- -------- -------- --- -------- ---- -- ----- -<br>-------- ---- --- ---------- --------- -- ------- ------ -<br>--------- ----- -----,282280.60000002384,282277.60000002384,281911.21,281909.1999999881,281927.877,282294.551,,5,witness
screen,html.Screen,2_3_1_0_1_6,2022-02-02T14:44:01.043Z,,,,,,,,,,,,,,,,,15,,,,,,,,,,,,,,1108.1489999881014,,response,,,,7,C,,,,,,Space,keypress(Space),,,,instrumental,,,,---- --------- ---------- - --- ------- by --- ------------<br>----- -- -------- ------- ---- ------ - -------- ---- -----<br>--- ------- ---- -- --- -------- --- - ----- ------ ---- --<br>-------- --- -------- -------- --- -------- ---- -- ----- -<br>-------- ---- --- ---------- --------- -- ------- ------ -<br>--------- ----- -----,283405.5,283402.6999999881,282277.884,282280.6999999881,282294.551,283411.24,,6,by
screen,html.Screen,2_3_1_0_1_7,2022-02-02T14:44:01.476Z,,,,,,,,,,,,,,,,,15,,,,,,,,,,,,,,425.2600000000093,,response,,,,7,C,,,,,,Space,keypress(Space),,,,instrumental,,,,---- --------- ---------- - --- ------- -- the ------------<br>----- -- -------- ------- ---- ------ - -------- ---- -----<br>--- ------- ---- -- --- -------- --- - ----- ------ ---- --<br>-------- --- -------- -------- --- -------- ---- -- ----- -<br>-------- ---- --- ---------- --------- -- ------- ------ -<br>--------- ----- -----,283839.40000003576,283836.5,283394.573,283405.6999999881,283411.24,283844.582,,7,the
screen,html.Screen,2_3_1_0_1_8,2022-02-02T14:44:01.892Z,,,,,,,,,,,,,,,,,15,,,,,,,,,,,,,,407.9180000000051,,response,,,,7,C,,,,,,Space,keypress(Space),,,,instrumental,,,,"---- --------- ---------- - --- ------- -- --- prosecution,<br>----- -- -------- ------- ---- ------ - -------- ---- -----<br>--- ------- ---- -- --- -------- --- - ----- ------ ---- --<br>-------- --- -------- -------- --- -------- ---- -- ----- -<br>-------- ---- --- ---------- --------- -- ------- ------ -<br>--------- ----- -----",284255.40000003576,284252.5,283827.915,283839.5,283844.582,284261.257,,8,"prosecution,"
screen,html.Screen,2_3_1_0_1_9,2022-02-02T14:44:02.308Z,,,,,,,,,,,,,,,,,15,,,,,,,,,,,,,,405.24300000001676,,response,,,,7,C,,,,,,Space,keypress(Space),,,,instrumental,,,,---- --------- ---------- - --- ------- -- --- ------------<br>vowed -- -------- ------- ---- ------ - -------- ---- -----<br>--- ------- ---- -- --- -------- --- - ----- ------ ---- --<br>-------- --- -------- -------- --- -------- ---- -- ----- -<br>-------- ---- --- ---------- --------- -- ------- ------ -<br>--------- ----- -----,284670.5,284666.5,284244.59,284255.5,284261.257,284677.932,,9,vowed
screen,html.Screen,2_3_1_0_1_10,2022-02-02T14:44:02.721Z,,,,,,,,,,,,,,,,,15,,,,,,,,,,,,,,402.4680000357912,,response,,,,7,C,,,,,,Space,keypress(Space),,,,instrumental,,,,---- --------- ---------- - --- ------- -- --- ------------<br>----- he -------- ------- ---- ------ - -------- ---- -----<br>--- ------- ---- -- --- -------- --- - ----- ------ ---- --<br>-------- --- -------- -------- --- -------- ---- -- ----- -<br>-------- ---- --- ---------- --------- -- ------- ------ -<br>--------- ----- -----,285083.5,285080.40000003576,284661.265,284670.60000002384,284677.932,285094.607,,10,he
screen,html.Screen,2_3_1_0_1_11,2022-02-02T14:44:03.459Z,,,,,,,,,,,,,,,,,15,,,,,,,,,,,,,,723.9930000238237,,response,,,,7,C,,,,,,Space,keypress(Space),,,,instrumental,,,,---- --------- ---------- - --- ------- -- --- ------------<br>----- -- wouldn't ------- ---- ------ - -------- ---- -----<br>--- ------- ---- -- --- -------- --- - ----- ------ ---- --<br>-------- --- -------- -------- --- -------- ---- -- ----- -<br>-------- ---- --- ---------- --------- -- ------- ------ -<br>--------- ----- -----,285821.90000003576,285818.60000002384,285077.94,285083.60000002384,285094.607,285827.955,,11,wouldn't
screen,html.Screen,2_3_1_0_1_12,2022-02-02T14:44:03.918Z,,,,,,,,,,,,,,,,,15,,,,,,,,,,,,,,449.4450000357465,,response,,,,7,C,,,,,,Space,keypress(Space),,,,instrumental,,,,---- --------- ---------- - --- ------- -- --- ------------<br>----- -- -------- testify ---- ------ - -------- ---- -----<br>--- ------- ---- -- --- -------- --- - ----- ------ ---- --<br>-------- --- -------- -------- --- -------- ---- -- ----- -<br>-------- ---- --- ---------- --------- -- ------- ------ -<br>--------- ----- -----,286281.1999999881,286277.40000003576,285811.288,285822.10000002384,285827.955,286294.631,,12,testify
screen,html.Screen,2_3_1_0_1_13,2022-02-02T14:44:04.284Z,,,,,,,,,,,,,,,,,15,,,,,,,,,,,,,,348.76900003576884,,response,,,,7,C,,,,,,Space,keypress(Space),,,,instrumental,,,,---- --------- ---------- - --- ------- -- --- ------------<br>----- -- -------- ------- when ------ - -------- ---- -----<br>--- ------- ---- -- --- -------- --- - ----- ------ ---- --<br>-------- --- -------- -------- --- -------- ---- -- ----- -<br>-------- ---- --- ---------- --------- -- ------- ------ -<br>--------- ----- -----,286646.6999999881,286643.40000003576,286277.964,286281.3000000119,286294.631,286661.305,,13,when
screen,html.Screen,2_3_1_0_1_14,2022-02-02T14:44:04.680Z,,,,,,,,,,,,,,,,,15,,,,,,,,,,,,,,379.195000000007,,response,,,,7,C,,,,,,Space,keypress(Space),,,,instrumental,,,,---- --------- ---------- - --- ------- -- --- ------------<br>----- -- -------- ------- ---- served - -------- ---- -----<br>--- ------- ---- -- --- -------- --- - ----- ------ ---- --<br>-------- --- -------- -------- --- -------- ---- -- ----- -<br>-------- ---- --- ---------- --------- -- ------- ------ -<br>--------- ----- -----,287043.1999999881,287040.5,286644.638,286646.90000003576,286661.305,287044.646,,14,served
screen,html.Screen,2_3_1_0_1_15,2022-02-02T14:44:05.018Z,,,,,,,,,,,,,,,,,15,,,,,,,,,,,,,,332.654000011913,,response,,,,7,C,,,,,,Space,keypress(Space),,,,instrumental,,,,---- --------- ---------- - --- ------- -- --- ------------<br>----- -- -------- ------- ---- ------ a -------- ---- -----<br>--- ------- ---- -- --- -------- --- - ----- ------ ---- --<br>-------- --- -------- -------- --- -------- ---- -- ----- -<br>-------- ---- --- ---------- --------- -- ------- ------ -<br>--------- ----- -----,287380.5,287377.3000000119,287027.979,287043.3000000119,287044.646,287394.653,,15,a
screen,html.Screen,2_3_1_0_1_16,2022-02-02T14:44:05.463Z,,,,,,,,,,,,,,,,,15,,,,,,,,,,,,,,427.6470000119298,,response,,,,7,C,,,,,,Space,keypress(Space),,,,instrumental,,,,---- --------- ---------- - --- ------- -- --- ------------<br>----- -- -------- ------- ---- ------ - subpoena ---- -----<br>--- ------- ---- -- --- -------- --- - ----- ------ ---- --<br>-------- --- -------- -------- --- -------- ---- -- ----- -<br>-------- ---- --- ---------- --------- -- ------- ------ -<br>--------- ----- -----,287825.90000003576,287822.3000000119,287377.986,287380.60000002384,287394.653,287827.995,,16,subpoena
screen,html.Screen,2_3_1_0_1_17,2022-02-02T14:44:05.778Z,,,,,,,,,,,,,,,,,15,,,,,,,,,,,,,,310.40500003576744,,response,,,,7,C,,,,,,Space,keypress(Space),,,,instrumental,,,,---- --------- ---------- - --- ------- -- --- ------------<br>----- -- -------- ------- ---- ------ - -------- last -----<br>--- ------- ---- -- --- -------- --- - ----- ------ ---- --<br>-------- --- -------- -------- --- -------- ---- -- ----- -<br>-------- ---- --- ---------- --------- -- ------- ------ -<br>--------- ----- -----,288141.1999999881,288138.40000003576,287811.328,287826,287827.995,288144.668,,17,last
screen,html.Screen,2_3_1_0_1_18,2022-02-02T14:44:06.344Z,,,,,,,,,,,,,,,,,15,,,,,,,,,,,,,,558.531999988074,,response,,,,7,C,,,,,,Space,keypress(Space),,,,instrumental,,,,---- --------- ---------- - --- ------- -- --- ------------<br>----- -- -------- ------- ---- ------ - -------- ---- week.<br>--- ------- ---- -- --- -------- --- - ----- ------ ---- --<br>-------- --- -------- -------- --- -------- ---- -- ----- -<br>-------- ---- --- ---------- --------- -- ------- ------ -<br>--------- ----- -----,288706.90000003576,288703.1999999881,288128.001,288141.40000003576,288144.668,288711.346,,18,week.
screen,html.Screen,2_3_1_0_1_19,2022-02-02T14:44:06.726Z,,,,,,,,,,,,,,,,,15,,,,,,,,,,,,,,373.95400001190137,,response,,,,7,C,,,,,,Space,keypress(Space),,,,instrumental,,,,---- --------- ---------- - --- ------- -- --- ------------<br>----- -- -------- ------- ---- ------ - -------- ---- -----<br>His ------- ---- -- --- -------- --- - ----- ------ ---- --<br>-------- --- -------- -------- --- -------- ---- -- ----- -<br>-------- ---- --- ---------- --------- -- ------- ------ -<br>--------- ----- -----,289088.3000000119,289085.3000000119,288694.679,288707,288711.346,289094.687,,19,His
screen,html.Screen,2_3_1_0_1_20,2022-02-02T14:44:06.951Z,,,,,,,,,,,,,,,,,15,,,,,,,,,,,,,,215.4130000238656,,response,,,,7,C,,,,,,Space,keypress(Space),,,,instrumental,,,,---- --------- ---------- - --- ------- -- --- ------------<br>----- -- -------- ------- ---- ------ - -------- ---- -----<br>--- lawyers ---- -- --- -------- --- - ----- ------ ---- --<br>-------- --- -------- -------- --- -------- ---- -- ----- -<br>-------- ---- --- ---------- --------- -- ------- ------ -<br>--------- ----- -----,289313.40000003576,289310.10000002384,289078.02,289088.40000003576,289094.687,289328.025,,20,lawyers
screen,html.Screen,2_3_1_0_1_21,2022-02-02T14:44:07.446Z,,,,,,,,,,,,,,,,,15,,,,,,,,,,,,,,472.0750000238186,,response,,,,7,C,,,,,,Space,keypress(Space),,,,instrumental,,,,---- --------- ---------- - --- ------- -- --- ------------<br>----- -- -------- ------- ---- ------ - -------- ---- -----<br>--- ------- said -- --- -------- --- - ----- ------ ---- --<br>-------- --- -------- -------- --- -------- ---- -- ----- -<br>-------- ---- --- ---------- --------- -- ------- ------ -<br>--------- ----- -----,289809,289800.10000002384,289311.358,289313.5,289328.025,289828.035,,21,said
screen,html.Screen,2_3_1_0_1_22,2022-02-02T14:44:07.965Z,,,,,,,,,,,,,,,,,15,,,,,,,,,,,,,,497.06500002386747,,response,,,,7,C,,,,,,Space,keypress(Space),,,,instrumental,,,,---- --------- ---------- - --- ------- -- --- ------------<br>----- -- -------- ------- ---- ------ - -------- ---- -----<br>--- ------- ---- he --- -------- --- - ----- ------ ---- --<br>-------- --- -------- -------- --- -------- ---- -- ----- -<br>-------- ---- --- ---------- --------- -- ------- ------ -<br>--------- ----- -----,290327.8000000119,290325.10000002384,289811.368,289809.10000002384,289828.035,290344.712,,22,he
screen,html.Screen,2_3_1_0_1_23,2022-02-02T14:44:08.395Z,,,,,,,,,,,,,,,,,15,,,,,,,,,,,,,,409.28800000000047,,response,,,,7,C,,,,,,Space,keypress(Space),,,,instrumental,,,,---- --------- ---------- - --- ------- -- --- ------------<br>----- -- -------- ------- ---- ------ - -------- ---- -----<br>--- ------- ---- -- was -------- --- - ----- ------ ---- --<br>-------- --- -------- -------- --- -------- ---- -- ----- -<br>-------- ---- --- ---------- --------- -- ------- ------ -<br>--------- ----- -----,290758.10000002384,290754,290328.045,290328,290344.712,290761.387,,23,was
screen,html.Screen,2_3_1_0_1_24,2022-02-02T14:44:08.762Z,,,,,,,,,,,,,,,,,15,,,,,,,,,,,,,,359.6130000000121,,response,,,,7,C,,,,,,Space,keypress(Space),,,,instrumental,,,,---- --------- ---------- - --- ------- -- --- ------------<br>----- -- -------- ------- ---- ------ - -------- ---- -----<br>--- ------- ---- -- --- prepared --- - ----- ------ ---- --<br>-------- --- -------- -------- --- -------- ---- -- ----- -<br>-------- ---- --- ---------- --------- -- ------- ------ -<br>--------- ----- -----,291124.8000000119,291121,290744.72,290758.60000002384,290761.387,291128.061,,24,prepared
screen,html.Screen,2_3_1_0_1_25,2022-02-02T14:44:09.136Z,,,,,,,,,,,,,,,,,15,,,,,,,,,,,,,,367.0390000238549,,response,,,,7,C,,,,,,Space,keypress(Space),,,,instrumental,,,,---- --------- ---------- - --- ------- -- --- ------------<br>----- -- -------- ------- ---- ------ - -------- ---- -----<br>--- ------- ---- -- --- -------- for - ----- ------ ---- --<br>-------- --- -------- -------- --- -------- ---- -- ----- -<br>-------- ---- --- ---------- --------- -- ------- ------ -<br>--------- ----- -----,291498.3000000119,291495.10000002384,291111.394,291124.90000003576,291128.061,291511.402,,25,for
screen,html.Screen,2_3_1_0_1_26,2022-02-02T14:44:09.461Z,,,,,,,,,,,,,,,,,15,,,,,,,,,,,,,,309.59799999999814,,response,,,,7,C,,,,,,Space,keypress(Space),,,,instrumental,,,,---- --------- ---------- - --- ------- -- --- ------------<br>----- -- -------- ------- ---- ------ - -------- ---- -----<br>--- ------- ---- -- --- -------- --- a ----- ------ ---- --<br>-------- --- -------- -------- --- -------- ---- -- ----- -<br>-------- ---- --- ---------- --------- -- ------- ------ -<br>--------- ----- -----,291824,291821,291494.735,291498.3000000119,291511.402,291828.576,,26,a
screen,html.Screen,2_3_1_0_1_27,2022-02-02T14:44:09.865Z,,,,,,,,,,,,,,,,,15,,,,,,,,,,,,,,395.5240000238409,,response,,,,7,C,,,,,,Space,keypress(Space),,,,instrumental,,,,---- --------- ---------- - --- ------- -- --- ------------<br>----- -- -------- ------- ---- ------ - -------- ---- -----<br>--- ------- ---- -- --- -------- --- - third ------ ---- --<br>-------- --- -------- -------- --- -------- ---- -- ----- -<br>-------- ---- --- ---------- --------- -- ------- ------ -<br>--------- ----- -----,292227.3000000119,292224.10000002384,291811.909,291824.10000002384,291828.576,292228.584,,27,third
screen,html.Screen,2_3_1_0_1_28,2022-02-02T14:44:10.285Z,,,,,,,,,,,,,,,,,15,,,,,,,,,,,,,,416.2160000119475,,response,,,,7,C,,,,,,Space,keypress(Space),,,,instrumental,,,,---- --------- ---------- - --- ------- -- --- ------------<br>----- -- -------- ------- ---- ------ - -------- ---- -----<br>--- ------- ---- -- --- -------- --- - ----- prison ---- --<br>-------- --- -------- -------- --- -------- ---- -- ----- -<br>-------- ---- --- ---------- --------- -- ------- ------ -<br>--------- ----- -----,292647.90000003576,292644.8000000119,292211.917,292227.40000003576,292228.584,292661.926,,28,prison
screen,html.Screen,2_3_1_0_1_29,2022-02-02T14:44:10.893Z,,,,,,,,,,,,,,,,,15,,,,,,,,,,,,,,590.9740000357851,,response,,,,7,C,,,,,,Space,keypress(Space),,,,instrumental,,,,---- --------- ---------- - --- ------- -- --- ------------<br>----- -- -------- ------- ---- ------ - -------- ---- -----<br>--- ------- ---- -- --- -------- --- - ----- ------ stay --<br>-------- --- -------- -------- --- -------- ---- -- ----- -<br>-------- ---- --- ---------- --------- -- ------- ------ -<br>--------- ----- -----,293255.90000003576,293252.90000003576,292645.259,292648.10000002384,292661.926,293261.938,,29,stay
screen,html.Screen,2_3_1_0_1_30,2022-02-02T14:44:11.224Z,,,,,,,,,,,,,,,,,15,,,,,,,,,,,,,,321.8620000118972,,response,,,,7,C,,,,,,Space,keypress(Space),,,,instrumental,,,,---- --------- ---------- - --- ------- -- --- ------------<br>----- -- -------- ------- ---- ------ - -------- ---- -----<br>--- ------- ---- -- --- -------- --- - ----- ------ ---- to<br>-------- --- -------- -------- --- -------- ---- -- ----- -<br>-------- ---- --- ---------- --------- -- ------- ------ -<br>--------- ----- -----,293586.8000000119,293583.8000000119,293245.271,293256,293261.938,293595.278,,30,to
screen,html.Screen,2_3_1_0_1_31,2022-02-02T14:44:11.580Z,,,,,,,,,,,,,,,,,15,,,,,,,,,,,,,,343.5220000119298,,response,,,,7,C,,,,,,Space,keypress(Space),,,,instrumental,,,,---- --------- ---------- - --- ------- -- --- ------------<br>----- -- -------- ------- ---- ------ - -------- ---- -----<br>--- ------- ---- -- --- -------- --- - ----- ------ ---- --<br>maintain --- -------- -------- --- -------- ---- -- ----- -<br>-------- ---- --- ---------- --------- -- ------- ------ -<br>--------- ----- -----,293942.90000003576,293938.8000000119,293578.611,293586.90000003576,293595.278,293945.285,,31,maintain
screen,html.Screen,2_3_1_0_1_32,2022-02-02T14:44:11.930Z,,,,,,,,,,,,,,,,,15,,,,,,,,,,,,,,343.6150000357884,,response,,,,7,C,,,,,,Space,keypress(Space),,,,instrumental,,,,---- --------- ---------- - --- ------- -- --- ------------<br>----- -- -------- ------- ---- ------ - -------- ---- -----<br>--- ------- ---- -- --- -------- --- - ----- ------ ---- --<br>-------- his -------- -------- --- -------- ---- -- ----- -<br>-------- ---- --- ---------- --------- -- ------- ------ -<br>--------- ----- -----,294292.60000002384,294288.90000003576,293928.618,293943,293945.285,294295.292,,32,his
screen,html.Screen,2_3_1_0_1_33,2022-02-02T14:44:12.315Z,,,,,,,,,,,,,,,,,15,,,,,,,,,,,,,,379.60800003574695,,response,,,,7,C,,,,,,Space,keypress(Space),,,,instrumental,,,,---- --------- ---------- - --- ------- -- --- ------------<br>----- -- -------- ------- ---- ------ - -------- ---- -----<br>--- ------- ---- -- --- -------- --- - ----- ------ ---- --<br>-------- --- silence. -------- --- -------- ---- -- ----- -<br>-------- ---- --- ---------- --------- -- ------- ------ -<br>--------- ----- -----,294677.90000003576,294674.90000003576,294278.625,294292.6999999881,294295.292,294695.3,,33,silence.
screen,html.Screen,2_3_1_0_1_34,2022-02-02T14:44:12.703Z,,,,,,,,,,,,,,,,,15,,,,,,,,,,,,,,367.3999999880907,,response,,,,7,C,,,,,,Space,keypress(Space),,,,instrumental,,,,---- --------- ---------- - --- ------- -- --- ------------<br>----- -- -------- ------- ---- ------ - -------- ---- -----<br>--- ------- ---- -- --- -------- --- - ----- ------ ---- --<br>-------- --- -------- Anderson --- -------- ---- -- ----- -<br>-------- ---- --- ---------- --------- -- ------- ------ -<br>--------- ----- -----,295066,295062.6999999881,294678.633,294678.10000002384,294695.3,295078.641,,34,Anderson
screen,html.Screen,2_3_1_0_1_35,2022-02-02T14:44:13.095Z,,,,,,,,,,,,,,,,,15,,,,,,,,,,,,,,376.15900001191767,,response,,,,7,C,,,,,,Space,keypress(Space),,,,instrumental,,,,---- --------- ---------- - --- ------- -- --- ------------<br>----- -- -------- ------- ---- ------ - -------- ---- -----<br>--- ------- ---- -- --- -------- --- - ----- ------ ---- --<br>-------- --- -------- -------- was -------- ---- -- ----- -<br>-------- ---- --- ---------- --------- -- ------- ------ -<br>--------- ----- -----,295457.90000003576,295454.8000000119,295061.974,295066.10000002384,295078.641,295461.982,,35,was
screen,html.Screen,2_3_1_0_1_36,2022-02-02T14:44:13.444Z,,,,,,,,,,,,,,,,,15,,,,,,,,,,,,,,341.81800001190277,,response,,,,7,C,,,,,,Space,keypress(Space),,,,instrumental,,,,---- --------- ---------- - --- ------- -- --- ------------<br>----- -- -------- ------- ---- ------ - -------- ---- -----<br>--- ------- ---- -- --- -------- --- - ----- ------ ---- --<br>-------- --- -------- -------- --- released ---- -- ----- -<br>-------- ---- --- ---------- --------- -- ------- ------ -<br>--------- ----- -----,295807.10000002384,295803.8000000119,295445.315,295458.10000002384,295461.982,295811.989,,36,released
screen,html.Screen,2_3_1_0_1_37,2022-02-02T14:44:13.786Z,,,,,,,,,,,,,,,,,15,,,,,,,,,,,,,,333.7109999880777,,response,,,,7,C,,,,,,Space,keypress(Space),,,,instrumental,,,,---- --------- ---------- - --- ------- -- --- ------------<br>----- -- -------- ------- ---- ------ - -------- ---- -----<br>--- ------- ---- -- --- -------- --- - ----- ------ ---- --<br>-------- --- -------- -------- --- -------- July -- ----- -<br>-------- ---- --- ---------- --------- -- ------- ------ -<br>--------- ----- -----,296148.5,296145.6999999881,295795.322,295807.1999999881,295811.989,296161.996,,37,July
screen,html.Screen,2_3_1_0_1_38,2022-02-02T14:44:14.311Z,,,,,,,,,,,,,,,,,15,,,,,,,,,,,,,,507.8040000119363,,response,,,,7,C,,,,,,Space,keypress(Space),,,,instrumental,,,,---- --------- ---------- - --- ------- -- --- ------------<br>----- -- -------- ------- ---- ------ - -------- ---- -----<br>--- ------- ---- -- --- -------- --- - ----- ------ ---- --<br>-------- --- -------- -------- --- -------- ---- 20 ----- -<br>-------- ---- --- ---------- --------- -- ------- ------ -<br>--------- ----- -----,296673.3000000119,296669.8000000119,296145.329,296148.60000002384,296161.996,296678.673,,38,20
screen,html.Screen,2_3_1_0_1_39,2022-02-02T14:44:15.093Z,,,,,,,,,,,,,,,,,15,,,,,,,,,,,,,,773.9270000238321,,response,,,,7,C,,,,,,Space,keypress(Space),,,,instrumental,,,,---- --------- ---------- - --- ------- -- --- ------------<br>----- -- -------- ------- ---- ------ - -------- ---- -----<br>--- ------- ---- -- --- -------- --- - ----- ------ ---- --<br>-------- --- -------- -------- --- -------- ---- -- after -<br>-------- ---- --- ---------- --------- -- ------- ------ -<br>--------- ----- -----,297455.6999999881,297452.60000002384,296662.006,296673.5,296678.673,297462.022,,39,after
screen,html.Screen,2_3_1_0_1_40,2022-02-02T14:44:15.520Z,,,,,,,,,,,,,,,,,15,,,,,,,,,,,,,,417.67799998808187,,response,,,,7,C,,,,,,Space,keypress(Space),,,,instrumental,,,,---- --------- ---------- - --- ------- -- --- ------------<br>----- -- -------- ------- ---- ------ - -------- ---- -----<br>--- ------- ---- -- --- -------- --- - ----- ------ ---- --<br>-------- --- -------- -------- --- -------- ---- -- ----- a<br>-------- ---- --- ---------- --------- -- ------- ------ -<br>--------- ----- -----,297882.60000002384,297879.6999999881,297445.355,297455.6999999881,297462.022,297895.364,,40,a
