sender,sender_type,sender_id,timestamp,meta,,Blues,Classical,Country,Dance,Electronic,Folk,Gospel,Hip-Hop,Jazz,Latin,Musical/Film,New-age,Pop,Prolific_id,Provo_ID,R&B,Rap,Reggae,Religious,Rock,Soul,Swing,Traditional,age,artist_name,correct,correctResponse,distraction,duration,education,ended_on,familiarity,gender,headphone_check_performance,item,list,music_frequency,offensiveness,pleasantness,position_correct,preference,response,response_action,snippet_file,song_name,song_rating,sound,stimulus_1,stimulus_2,stimulus_3,text,time_commit,time_end,time_render,time_run,time_show,time_switch,url,word,word_ID
Prolific ID,html.Form,0,2022-02-02T16:10:17.630Z,"{""labjs_version"":""20.2.2"",""labjs_build"":{""flavor"":""production"",""commit"":""a25486e0c714a0ae2ce03ff94b7bb6896854dcfa""},""location"":""https://run.pavlovia.org/mvasilev/prolific2_music_d/"",""userAgent"":""Mozilla/5.0 (Windows NT 6.1; Win64; x64) AppleWebKit/537.36 (KHTML, like Gecko) Chrome/97.0.4692.99 Safari/537.36"",""platform"":""Win32"",""language"":""en-US"",""locale"":""en-US"",""timeZone"":""UTC"",""timezoneOffset"":0,""screen_width"":1366,""screen_height"":768,""scroll_width"":1366,""scroll_height"":609,""window_innerWidth"":1366,""window_innerHeight"":657,""devicePixelRatio"":1}",,,,,,,,,,,,,,,5bb5896d56161d0001ff93b4,,,,,,,,,,,,,,,3596.5370000000003,,form submission,,,,,,,,,,,,,,,,,,,,,14896.699999999255,14894.5,11264.467,11268.900000000373,11297.963,14916.156,{},,
Introduction,html.Screen,1_0,2022-02-02T16:10:20.624Z,,,,,,,,,,,,,,,,,,,,,,,,,,,,,,,2972.843999999999,,response,,,,,,,,,,,continue,click button,,,,,,,,,17890.699999999255,17889,14882.67,14898,14916.156,17897.956,,,
Volume calibration,html.Screen,1_1,2022-02-02T16:10:43.869Z,,,,,,,,,,,,,,,,,,,,,,,,,,,,,,,23225.544,,response,,,,,,,,,,,continue,click button,,,,,,,,,41136.09999999963,41123.5,17881.204,17891,17897.956,41128.666,,,
Task instructions,html.Screen,1_2,2022-02-02T16:10:50.486Z,,,,,,,,,,,,,,,,,,,,,,,,,,,,,,,6622.633999998885,,response,,,,,,,,,,,continue,click button,,,,,,,,,47753,47751.29999999888,41112.148,41136.5,41128.666,47757.262,,,
Sounds,html.Screen,1_3_0_0,2022-02-02T16:10:54.734Z,,,,,,,,,,,,,,,,,,,,,,,,,,,,,,,4254.858,,timeout,,,,,,,,,1,,,,,,,,S,O,I,,52001.09999999963,51995.387,47740.524,47753.40000000037,47757.262,52012.12,,,
Judgement,html.Screen,1_3_0_1,2022-02-02T16:10:56.191Z,,,,,,,,,,,,,,,,,,,,,,,,,,,,true,1,,1444.0799999992523,,response,,,,,,,,,1,,1,click #choice-1,,,,,S,O,I,,53458.09999999963,53456.199999999255,51995.387,52001.40000000037,52012.12,53458.496,,,
Trial,flow.Sequence,1_3_0,2022-02-02T16:10:56.192Z,,,,,,,,,,,,,,,,,,,,,,,,,,,,,,,5698.9379999992525,,completion,,,,,,,,,1,,,,,,,,S,O,I,,53458.699999999255,53456.199999999255,47740.524,47753.29999999888,47757.262,53458.496,,,
Sounds,html.Screen,1_3_1_0,2022-02-02T16:11:00.434Z,,,,,,,,,,,,,,,,,,,,,,,,,,,,,,,4257.733,,timeout,,,,,,,,,1,,,,,,,,S,I,O,,57700.699999999255,57699.517,53441.697,53459.199999999255,53458.496,57716.229,,,
Judgement,html.Screen,1_3_1_1,2022-02-02T16:11:00.999Z,,,,,,,,,,,,,,,,,,,,,,,,,,,,true,1,,547.4709999992556,,response,,,,,,,,,1,,1,click #choice-1,,,,,S,I,O,,58265.5,58263.699999999255,57699.517,57700.90000000037,57716.229,58279.945,,,
Trial,flow.Sequence,1_3_1,2022-02-02T16:11:00.999Z,,,,,,,,,,,,,,,,,,,,,,,,,,,,,,,4805.203999999256,,completion,,,,,,,,,1,,,,,,,,S,I,O,,58266.09999999963,58263.699999999255,53441.697,53459.09999999963,53458.496,58279.945,,,
Sounds,html.Screen,1_3_2_0,2022-02-02T16:11:05.251Z,,,,,,,,,,,,,,,,,,,,,,,,,,,,,,,4253.787000000004,,timeout,,,,,,,,,2,,,,,,,,O,S,I,,62518.199999999255,62516.985,58263.197,58266.5,58279.945,62533.732,,,
Judgement,html.Screen,1_3_2_1,2022-02-02T16:11:06.049Z,,,,,,,,,,,,,,,,,,,,,,,,,,,,true,2,,780.0679999988788,,response,,,,,,,,,2,,2,click #choice-2,,,,,O,S,I,,63316,63313.79999999888,62516.985,62518.5,62533.732,63321.569,,,
Trial,flow.Sequence,1_3_2,2022-02-02T16:11:06.050Z,,,,,,,,,,,,,,,,,,,,,,,,,,,,,,,5033.854999998883,,completion,,,,,,,,,2,,,,,,,,O,S,I,,63316.5,63313.79999999888,58263.197,58266.40000000037,58279.945,63321.569,,,
Sounds,html.Screen,1_3_3_0,2022-02-02T16:11:10.289Z,,,,,,,,,,,,,,,,,,,,,,,,,,,,,,,4249.474999999991,,timeout,,,,,,,,,3,,,,,,,,O,I,S,,67555.69999999925,67554.311,63304.82,63317,63321.569,67571.044,,,
Judgement,html.Screen,1_3_3_1,2022-02-02T16:11:10.941Z,,,,,,,,,,,,,,,,,,,,,,,,,,,,true,3,,635.0559999996331,,response,,,,,,,,,3,,3,click #choice-3,,,,,O,I,S,,68208,68206.09999999963,67554.311,67555.90000000037,67571.044,68212.273,,,
Trial,flow.Sequence,1_3_3,2022-02-02T16:11:10.942Z,,,,,,,,,,,,,,,,,,,,,,,,,,,,,,,4884.530999999624,,completion,,,,,,,,,3,,,,,,,,O,I,S,,68208.40000000037,68206.09999999963,63304.82,63316.79999999888,63321.569,68212.273,,,
Sounds,html.Screen,1_3_4_0,2022-02-02T16:11:15.183Z,,,,,,,,,,,,,,,,,,,,,,,,,,,,,,,4252.831000000006,,timeout,,,,,,,,,3,,,,,,,,I,O,S,,72449.40000000037,72448.36,68195.525,68208.69999999925,68212.273,72465.104,,,
Judgement,html.Screen,1_3_4_1,2022-02-02T16:11:15.701Z,,,,,,,,,,,,,,,,,,,,,,,,,,,,true,3,,500.7960000003659,,response,,,,,,,,,3,,3,click #choice-3,,,,,I,O,S,,72967.69999999925,72965.90000000037,72448.36,72449.59999999963,72465.104,72968.608,,,
Trial,flow.Sequence,1_3_4,2022-02-02T16:11:15.701Z,,,,,,,,,,,,,,,,,,,,,,,,,,,,,,,4753.6270000003715,,completion,,,,,,,,,3,,,,,,,,I,O,S,,72968.09999999963,72965.90000000037,68195.525,68208.59999999963,68212.273,72968.608,,,
Sounds,html.Screen,1_3_5_0,2022-02-02T16:11:19.934Z,,,,,,,,,,,,,,,,,,,,,,,,,,,,,,,4247.700000000012,,timeout,,,,,,,,,2,,,,,,,,I,S,O,,77200.69999999925,77199.643,72951.861,72968.5,72968.608,77216.308,,,
Judgement,html.Screen,1_3_5_1,2022-02-02T16:11:20.522Z,,,,,,,,,,,,,,,,,,,,,,,,,,,,true,2,,570.1919999999955,,response,,,,,,,,,2,,2,click #choice-2,,,,,I,S,O,,77788.90000000037,77786.5,77199.643,77200.90000000037,77216.308,77809.637,,,
Trial,flow.Sequence,1_3_5,2022-02-02T16:11:20.522Z,,,,,,,,,,,,,,,,,,,,,,,,,,,,,,,4817.892000000007,,completion,,,,,,,,,2,,,,,,,,I,S,O,,77789.29999999888,77786.5,72951.861,72968.29999999888,72968.608,77809.637,,,
Task,flow.Loop,1_3,2022-02-02T16:11:20.538Z,,,,,,,,,,,,,,,,,,,,,,,,,,,,,,,30029.237999999998,,completion,,,1,,,,,,,,,,,,,,,,,,77804.40000000037,77786.5,47740.524,47753.199999999255,47757.262,77809.637,,,
Trap,html.Screen,1_4,2022-02-02T16:11:20.540Z,,,,,,,,,,,,,,,,,,,,,,,,,,,,,,,NaN,,skipped,,,,,,,,,,,,,,,,,,,,,77806.59999999963,77786.5,,77806.29999999888,,77809.637,,,
Thanks,html.Screen,1_5,2022-02-02T16:11:24.054Z,,,,,,,,,,,,,,,,,,,,,,,,,,,,,,,3509.0629999992525,,response,,,,,,,,,,,continue,click button,,,,,,,,,81320.69999999925,81318.69999999925,77776.135,77806.79999999888,77809.637,83805.642,,,
Headphone screening,flow.Sequence,1,2022-02-02T16:11:24.054Z,,,,,,,,,,,,,,,,,,,,,,,,,,,,,,,66402.54399999925,,completion,,,,,,,,,,,,,,,,,,,,,81321,81318.69999999925,14882.67,14898,14916.156,83805.642,,,
Instructions,html.Page,2_0,2022-02-02T16:12:01.047Z,,,,,,,,,,,,,,,,,,,,,,,,,,,,,,,34509.758000000365,,form submission,,,,,,,,,,,,,,,,,,,,,118316.09999999963,118315.40000000037,83788.894,83798.40000000037,83805.642,118326.042,,,
Holding screen,html.Screen,2_1_0_0,2022-02-02T16:12:11.040Z,,,,,,,,,,,,,,,,,,,,,,,,,,,,,,,9999.050999999992,,timeout,,,,,,,,,,,,,,,,,,,,,128309.90000000037,128308.345,118309.291,118316.79999999888,118326.042,128325.093,,,
screen,html.Screen,2_1_0_1_0,2022-02-02T16:12:11.857Z,,,,,,,,,,,,,,,,,53,,,,,,,,,,,,,,795.4070000000065,,response,,,,99,,,,,,,Space,keypress(Space),,,,,,,,When -- ----- -- ------ - ------- --- ----------<br>------------- ------ ------ ---- ---- ------- ----- -- ----<br>-------- ------- -- ---------- --- - --- ----- ----- ----<br>---- --- --- ----- --- ---- ---- ------- ----- ---- -------<br>--- --- -- ----- -- --- ---- -- --- ---- -- ------ ------<br>--- ----- -- ----,129126.29999999888,129120.5,128308.345,128310.09999999963,128325.093,129129.067,,0,When
screen,html.Screen,2_1_0_1_1,2022-02-02T16:12:12.303Z,,,,,,,,,,,,,,,,,53,,,,,,,,,,,,,,442.93300000000454,,response,,,,99,,,,,,,Space,keypress(Space),,,,,,,,---- it ----- -- ------ - ------- --- ----------<br>------------- ------ ------ ---- ---- ------- ----- -- ----<br>-------- ------- -- ---------- --- - --- ----- ----- ----<br>---- --- --- ----- --- ---- ---- ------- ----- ---- -------<br>--- --- -- ----- -- --- ---- -- --- ---- -- ------ ------<br>--- ----- -- ----,129573,129572,129112.319,129126.59999999963,129129.067,129581.322,,1,it
screen,html.Screen,2_1_0_1_2,2022-02-02T16:12:12.805Z,,,,,,,,,,,,,,,,,53,,,,,,,,,,,,,,492.3779999992548,,response,,,,99,,,,,,,Space,keypress(Space),,,,,,,,---- -- comes -- ------ - ------- --- ----------<br>------------- ------ ------ ---- ---- ------- ----- -- ----<br>-------- ------- -- ---------- --- - --- ----- ----- ----<br>---- --- --- ----- --- ---- ---- ------- ----- ---- -------<br>--- --- -- ----- -- --- ---- -- --- ---- -- ------ ------<br>--- ----- -- ----,130074.40000000037,130073.69999999925,129564.574,129573.29999999888,129581.322,130083.659,,2,comes
screen,html.Screen,2_1_0_1_3,2022-02-02T16:12:13.276Z,,,,,,,,,,,,,,,,,53,,,,,,,,,,,,,,461.34100000000035,,response,,,,99,,,,,,,Space,keypress(Space),,,,,,,,---- -- ----- to ------ - ------- --- ----------<br>------------- ------ ------ ---- ---- ------- ----- -- ----<br>-------- ------- -- ---------- --- - --- ----- ----- ----<br>---- --- --- ----- --- ---- ---- ------- ----- ---- -------<br>--- --- -- ----- -- --- ---- -- --- ---- -- ------ ------<br>--- ----- -- ----,130545.69999999925,130545,130066.912,130074.69999999925,130083.659,130553.009,,3,to
screen,html.Screen,2_1_0_1_4,2022-02-02T16:12:13.732Z,,,,,,,,,,,,,,,,,53,,,,,,,,,,,,,,447.99099999999453,,response,,,,99,,,,,,,Space,keypress(Space),,,,,,,,---- -- ----- -- having - ------- --- ----------<br>------------- ------ ------ ---- ---- ------- ----- -- ----<br>-------- ------- -- ---------- --- - --- ----- ----- ----<br>---- --- --- ----- --- ---- ---- ------- ----- ---- -------<br>--- --- -- ----- -- --- ---- -- --- ---- -- ------ ------<br>--- ----- -- ----,131001.79999999888,131001,130536.256,130546,130553.009,131004.901,,4,having
screen,html.Screen,2_1_0_1_5,2022-02-02T16:12:14.193Z,,,,,,,,,,,,,,,,,53,,,,,,,,,,,,,,456.7989999992569,,response,,,,99,,,,,,,Space,keypress(Space),,,,,,,,---- -- ----- -- ------ a ------- --- ----------<br>------------- ------ ------ ---- ---- ------- ----- -- ----<br>-------- ------- -- ---------- --- - --- ----- ----- ----<br>---- --- --- ----- --- ---- ---- ------- ----- ---- -------<br>--- --- -- ----- -- --- ---- -- --- ---- -- ------ ------<br>--- ----- -- ----,131462.5,131461.69999999925,130988.155,131002,131004.901,131474.029,,5,a
screen,html.Screen,2_1_0_1_6,2022-02-02T16:12:14.649Z,,,,,,,,,,,,,,,,,53,,,,,,,,,,,,,,443.97099999999045,,response,,,,99,,,,,,,Space,keypress(Space),,,,,,,,---- -- ----- -- ------ - lasting --- ----------<br>------------- ------ ------ ---- ---- ------- ----- -- ----<br>-------- ------- -- ---------- --- - --- ----- ----- ----<br>---- --- --- ----- --- ---- ---- ------- ----- ---- -------<br>--- --- -- ----- -- --- ---- -- --- ---- -- ------ ------<br>--- ----- -- ----,131918.90000000037,131918,131457.28,131462.69999999925,131474.029,131926.216,,6,lasting
screen,html.Screen,2_1_0_1_7,2022-02-02T16:12:15.099Z,,,,,,,,,,,,,,,,,53,,,,,,,,,,,,,,441.5839999988966,,response,,,,99,,,,,,,Space,keypress(Space),,,,,,,,---- -- ----- -- ------ - ------- and ----------<br>------------- ------ ------ ---- ---- ------- ----- -- ----<br>-------- ------- -- ---------- --- - --- ----- ----- ----<br>---- --- --- ----- --- ---- ---- ------- ----- ---- -------<br>--- --- -- ----- -- --- ---- -- --- ---- -- ------ ------<br>--- ----- -- ----,132368.59999999963,132367.79999999888,131909.468,131919.09999999963,131926.216,132378.256,,7,and
screen,html.Screen,2_1_0_1_8,2022-02-02T16:12:15.557Z,,,,,,,,,,,,,,,,,53,,,,,,,,,,,,,,446.74400000000605,,response,,,,99,,,,,,,Space,keypress(Space),,,,,,,,---- -- ----- -- ------ - ------- --- fulfilling<br>------------- ------ ------ ---- ---- ------- ----- -- ----<br>-------- ------- -- ---------- --- - --- ----- ----- ----<br>---- --- --- ----- --- ---- ---- ------- ----- ---- -------<br>--- --- -- ----- -- --- ---- -- --- ---- -- ------ ------<br>--- ----- -- ----,132826,132825,132361.51,132368.79999999888,132378.256,132830.812,,8,fulfilling
screen,html.Screen,2_1_0_1_9,2022-02-02T16:12:16.004Z,,,,,,,,,,,,,,,,,53,,,,,,,,,,,,,,441.68799999999464,,response,,,,99,,,,,,,Space,keypress(Space),,,,,,,,"---- -- ----- -- ------ - ------- --- ----------<br>relationship, ------ ------ ---- ---- ------- ----- -- ----<br>-------- ------- -- ---------- --- - --- ----- ----- ----<br>---- --- --- ----- --- ---- ---- ------- ----- ---- -------<br>--- --- -- ----- -- --- ---- -- --- ---- -- ------ ------<br>--- ----- -- ----",133273.29999999888,133272.5,132814.061,132826.29999999888,132830.812,133282.902,,9,"relationship,"
screen,html.Screen,2_1_0_1_10,2022-02-02T16:12:16.422Z,,,,,,,,,,,,,,,,,53,,,,,,,,,,,,,,407.7979999992531,,response,,,,99,,,,,,,Space,keypress(Space),,,,,,,,---- -- ----- -- ------ - ------- --- ----------<br>------------- common ------ ---- ---- ------- ----- -- ----<br>-------- ------- -- ---------- --- - --- ----- ----- ----<br>---- --- --- ----- --- ---- ---- ------- ----- ---- -------<br>--- --- -- ----- -- --- ---- -- --- ---- -- ------ ------<br>--- ----- -- ----,133691.59999999963,133690.69999999925,133266.154,133273.5,133282.902,133701.631,,10,common
screen,html.Screen,2_1_0_1_11,2022-02-02T16:12:16.881Z,,,,,,,,,,,,,,,,,53,,,,,,,,,,,,,,448.4689999996335,,response,,,,99,,,,,,,Space,keypress(Space),,,,,,,,---- -- ----- -- ------ - ------- --- ----------<br>------------- ------ wisdom ---- ---- ------- ----- -- ----<br>-------- ------- -- ---------- --- - --- ----- ----- ----<br>---- --- --- ----- --- ---- ---- ------- ----- ---- -------<br>--- --- -- ----- -- --- ---- -- --- ---- -- ------ ------<br>--- ----- -- ----,134151,134150.09999999963,133684.883,133691.69999999925,133701.631,134153.815,,11,wisdom
screen,html.Screen,2_1_0_1_12,2022-02-02T16:12:17.309Z,,,,,,,,,,,,,,,,,53,,,,,,,,,,,,,,423.6849999999977,,response,,,,99,,,,,,,Space,keypress(Space),,,,,,,,---- -- ----- -- ------ - ------- --- ----------<br>------------- ------ ------ says ---- ------- ----- -- ----<br>-------- ------- -- ---------- --- - --- ----- ----- ----<br>---- --- --- ----- --- ---- ---- ------- ----- ---- -------<br>--- --- -- ----- -- --- ---- -- --- ---- -- ------ ------<br>--- ----- -- ----,134578.29999999888,134577.5,134137.067,134151.19999999925,134153.815,134589.384,,12,says
screen,html.Screen,2_1_0_1_13,2022-02-02T16:12:17.737Z,,,,,,,,,,,,,,,,,53,,,,,,,,,,,,,,416.1160000000091,,response,,,,99,,,,,,,Space,keypress(Space),,,,,,,,---- -- ----- -- ------ - ------- --- ----------<br>------------- ------ ------ ---- that ------- ----- -- ----<br>-------- ------- -- ---------- --- - --- ----- ----- ----<br>---- --- --- ----- --- ---- ---- ------- ----- ---- -------<br>--- --- -- ----- -- --- ---- -- --- ---- -- ------ ------<br>--- ----- -- ----,135006.29999999888,135005.5,134572.635,134578.59999999963,134589.384,135008.068,,13,that
screen,html.Screen,2_1_0_1_14,2022-02-02T16:12:18.162Z,,,,,,,,,,,,,,,,,53,,,,,,,,,,,,,,422.2319999988831,,response,,,,99,,,,,,,Space,keypress(Space),,,,,,,,---- -- ----- -- ------ - ------- --- ----------<br>------------- ------ ------ ---- ---- feeling ----- -- ----<br>-------- ------- -- ---------- --- - --- ----- ----- ----<br>---- --- --- ----- --- ---- ---- ------- ----- ---- -------<br>--- --- -- ----- -- --- ---- -- --- ---- -- ------ ------<br>--- ----- -- ----,135431.40000000037,135430.29999999888,134991.32,135006.59999999963,135008.068,135443.546,,14,feeling
screen,html.Screen,2_1_0_1_15,2022-02-02T16:12:18.573Z,,,,,,,,,,,,,,,,,53,,,,,,,,,,,,,,398.15399999925285,,response,,,,99,,,,,,,Space,keypress(Space),,,,,,,,---- -- ----- -- ------ - ------- --- ----------<br>------------- ------ ------ ---- ---- ------- close -- ----<br>-------- ------- -- ---------- --- - --- ----- ----- ----<br>---- --- --- ----- --- ---- ---- ------- ----- ---- -------<br>--- --- -- ----- -- --- ---- -- --- ---- -- ------ ------<br>--- ----- -- ----,135842.5,135841.69999999925,135426.798,135431.59999999963,135443.546,135845.529,,15,close
screen,html.Screen,2_1_0_1_16,2022-02-02T16:12:18.966Z,,,,,,,,,,,,,,,,,53,,,,,,,,,,,,,,389.371000000363,,response,,,,99,,,,,,,Space,keypress(Space),,,,,,,,---- -- ----- -- ------ - ------- --- ----------<br>------------- ------ ------ ---- ---- ------- ----- to ----<br>-------- ------- -- ---------- --- - --- ----- ----- ----<br>---- --- --- ----- --- ---- ---- ------- ----- ---- -------<br>--- --- -- ----- -- --- ---- -- --- ---- -- ------ ------<br>--- ----- -- ----,136235.69999999925,136234.90000000037,135828.781,135842.59999999963,135845.529,136247.511,,16,to
screen,html.Screen,2_1_0_1_17,2022-02-02T16:12:19.367Z,,,,,,,,,,,,,,,,,53,,,,,,,,,,,,,,388.18899999925634,,response,,,,99,,,,,,,Space,keypress(Space),,,,,,,,---- -- ----- -- ------ - ------- --- ----------<br>------------- ------ ------ ---- ---- ------- ----- -- your<br>-------- ------- -- ---------- --- - --- ----- ----- ----<br>---- --- --- ----- --- ---- ---- ------- ----- ---- -------<br>--- --- -- ----- -- --- ---- -- --- ---- -- ------ ------<br>--- ----- -- ----,136636.59999999963,136635.69999999925,136230.763,136235.90000000037,136247.511,136649.491,,17,your
screen,html.Screen,2_1_0_1_18,2022-02-02T16:12:19.762Z,,,,,,,,,,,,,,,,,53,,,,,,,,,,,,,,381.70899999924586,,response,,,,99,,,,,,,Space,keypress(Space),,,,,,,,---- -- ----- -- ------ - ------- --- ----------<br>------------- ------ ------ ---- ---- ------- ----- -- ----<br>romantic ------- -- ---------- --- - --- ----- ----- ----<br>---- --- --- ----- --- ---- ---- ------- ----- ---- -------<br>--- --- -- ----- -- --- ---- -- --- ---- -- ------ ------<br>--- ----- -- ----,137031.90000000037,137031.19999999925,136632.743,136636.79999999888,136649.491,137034.723,,18,romantic
screen,html.Screen,2_1_0_1_19,2022-02-02T16:12:20.206Z,,,,,,,,,,,,,,,,,53,,,,,,,,,,,,,,439.5769999988843,,response,,,,99,,,,,,,Space,keypress(Space),,,,,,,,---- -- ----- -- ------ - ------- --- ----------<br>------------- ------ ------ ---- ---- ------- ----- -- ----<br>-------- partner -- ---------- --- - --- ----- ----- ----<br>---- --- --- ----- --- ---- ---- ------- ----- ---- -------<br>--- --- -- ----- -- --- ---- -- --- ---- -- ------ ------<br>--- ----- -- ----,137475.09999999963,137474.29999999888,137017.975,137032.19999999925,137034.723,137486.948,,19,partner
screen,html.Screen,2_1_0_1_20,2022-02-02T16:12:20.633Z,,,,,,,,,,,,,,,,,53,,,,,,,,,,,,,,415.05199999999604,,response,,,,99,,,,,,,Space,keypress(Space),,,,,,,,---- -- ----- -- ------ - ------- --- ----------<br>------------- ------ ------ ---- ---- ------- ----- -- ----<br>-------- ------- is ---------- --- - --- ----- ----- ----<br>---- --- --- ----- --- ---- ---- ------- ----- ---- -------<br>--- --- -- ----- -- --- ---- -- --- ---- -- ------ ------<br>--- ----- -- ----,137902.79999999888,137902,137470.2,137475.29999999888,137486.948,137905.679,,20,is
screen,html.Screen,2_1_0_1_21,2022-02-02T16:12:21.080Z,,,,,,,,,,,,,,,,,53,,,,,,,,,,,,,,443.42099999962375,,response,,,,99,,,,,,,Space,keypress(Space),,,,,,,,---- -- ----- -- ------ - ------- --- ----------<br>------------- ------ ------ ---- ---- ------- ----- -- ----<br>-------- ------- -- paramount. --- - --- ----- ----- ----<br>---- --- --- ----- --- ---- ---- ------- ----- ---- -------<br>--- --- -- ----- -- --- ---- -- --- ---- -- ------ ------<br>--- ----- -- ----,138349.90000000037,138349.09999999963,137888.931,137903,137905.679,138357.906,,21,paramount.
screen,html.Screen,2_1_0_1_22,2022-02-02T16:12:21.523Z,,,,,,,,,,,,,,,,,53,,,,,,,,,,,,,,433.69399999963935,,response,,,,99,,,,,,,Space,keypress(Space),,,,,,,,---- -- ----- -- ------ - ------- --- ----------<br>------------- ------ ------ ---- ---- ------- ----- -- ----<br>-------- ------- -- ---------- But - --- ----- ----- ----<br>---- --- --- ----- --- ---- ---- ------- ----- ---- -------<br>--- --- -- ----- -- --- ---- -- --- ---- -- ------ ------<br>--- ----- -- ----,138792.29999999888,138791.59999999963,138341.158,138350.09999999963,138357.906,138793.385,,22,But
screen,html.Screen,2_1_0_1_23,2022-02-02T16:12:21.955Z,,,,,,,,,,,,,,,,,53,,,,,,,,,,,,,,430.5150000003632,,response,,,,99,,,,,,,Space,keypress(Space),,,,,,,,---- -- ----- -- ------ - ------- --- ----------<br>------------- ------ ------ ---- ---- ------- ----- -- ----<br>-------- ------- -- ---------- --- a --- ----- ----- ----<br>---- --- --- ----- --- ---- ---- ------- ----- ---- -------<br>--- --- -- ----- -- --- ---- -- --- ---- -- ------ ------<br>--- ----- -- ----,139224.79999999888,139223.90000000037,138776.637,138792.59999999963,138793.385,139228.865,,23,a
screen,html.Screen,2_1_0_1_24,2022-02-02T16:12:22.366Z,,,,,,,,,,,,,,,,,53,,,,,,,,,,,,,,406.33499999926426,,response,,,,99,,,,,,,Space,keypress(Space),,,,,,,,---- -- ----- -- ------ - ------- --- ----------<br>------------- ------ ------ ---- ---- ------- ----- -- ----<br>-------- ------- -- ---------- --- - new ----- ----- ----<br>---- --- --- ----- --- ---- ---- ------- ----- ---- -------<br>--- --- -- ----- -- --- ---- -- --- ---- -- ------ ------<br>--- ----- -- ----,139636,139635.19999999925,139212.117,139225.19999999925,139228.865,139647.596,,24,new
screen,html.Screen,2_1_0_1_25,2022-02-02T16:12:22.806Z,,,,,,,,,,,,,,,,,53,,,,,,,,,,,,,,427.3040000003821,,response,,,,99,,,,,,,Space,keypress(Space),,,,,,,,---- -- ----- -- ------ - ------- --- ----------<br>------------- ------ ------ ---- ---- ------- ----- -- ----<br>-------- ------- -- ---------- --- - --- study ----- ----<br>---- --- --- ----- --- ---- ---- ------- ----- ---- -------<br>--- --- -- ----- -- --- ---- -- --- ---- -- ------ ------<br>--- ----- -- ----,140075.79999999888,140074.90000000037,139630.848,139636.19999999925,139647.596,140083.077,,25,study
screen,html.Screen,2_1_0_1_26,2022-02-02T16:12:23.265Z,,,,,,,,,,,,,,,,,53,,,,,,,,,,,,,,450.52299999963725,,response,,,,99,,,,,,,Space,keypress(Space),,,,,,,,---- -- ----- -- ------ - ------- --- ----------<br>------------- ------ ------ ---- ---- ------- ----- -- ----<br>-------- ------- -- ---------- --- - --- ----- finds ----<br>---- --- --- ----- --- ---- ---- ------- ----- ---- -------<br>--- --- -- ----- -- --- ---- -- --- ---- -- ------ ------<br>--- ----- -- ----,140534.40000000037,140533.59999999963,140066.329,140076.09999999963,140083.077,140535.301,,26,finds
screen,html.Screen,2_1_0_1_27,2022-02-02T16:12:23.644Z,,,,,,,,,,,,,,,,,53,,,,,,,,,,,,,,377.3989999992482,,response,,,,99,,,,,,,Space,keypress(Space),,,,,,,,---- -- ----- -- ------ - ------- --- ----------<br>------------- ------ ------ ---- ---- ------- ----- -- ----<br>-------- ------- -- ---------- --- - --- ----- ----- that<br>---- --- --- ----- --- ---- ---- ------- ----- ---- -------<br>--- --- -- ----- -- --- ---- -- --- ---- -- ------ ------<br>--- ----- -- ----,140913.40000000037,140912.69999999925,140518.553,140534.5,140535.301,140920.54,,27,that
screen,html.Screen,2_1_0_1_28,2022-02-02T16:12:24.015Z,,,,,,,,,,,,,,,,,53,,,,,,,,,,,,,,363.45999999999185,,response,,,,99,,,,,,,Space,keypress(Space),,,,,,,,---- -- ----- -- ------ - ------- --- ----------<br>------------- ------ ------ ---- ---- ------- ----- -- ----<br>-------- ------- -- ---------- --- - --- ----- ----- ----<br>it's --- --- ----- --- ---- ---- ------- ----- ---- -------<br>--- --- -- ----- -- --- ---- -- --- ---- -- ------ ------<br>--- ----- -- ----,141284.79999999888,141284,140903.792,140913.59999999963,140920.54,141289.02,,28,it's
screen,html.Screen,2_1_0_1_29,2022-02-02T16:12:24.411Z,,,,,,,,,,,,,,,,,53,,,,,,,,,,,,,,390.57999999963795,,response,,,,99,,,,,,,Space,keypress(Space),,,,,,,,---- -- ----- -- ------ - ------- --- ----------<br>------------- ------ ------ ---- ---- ------- ----- -- ----<br>-------- ------- -- ---------- --- - --- ----- ----- ----<br>---- not --- ----- --- ---- ---- ------- ----- ---- -------<br>--- --- -- ----- -- --- ---- -- --- ---- -- ------ ------<br>--- ----- -- ----,141680.5,141679.59999999963,141272.272,141285,141289.02,141691,,29,not
screen,html.Screen,2_1_0_1_30,2022-02-02T16:12:24.801Z,,,,,,,,,,,,,,,,,53,,,,,,,,,,,,,,378.2999999988824,,response,,,,99,,,,,,,Space,keypress(Space),,,,,,,,---- -- ----- -- ------ - ------- --- ----------<br>------------- ------ ------ ---- ---- ------- ----- -- ----<br>-------- ------- -- ---------- --- - --- ----- ----- ----<br>---- --- how ----- --- ---- ---- ------- ----- ---- -------<br>--- --- -- ----- -- --- ---- -- --- ---- -- ------ ------<br>--- ----- -- ----,142070.09999999963,142069.29999999888,141674.252,141680.69999999925,141691,142076.232,,30,how
screen,html.Screen,2_1_0_1_31,2022-02-02T16:12:25.172Z,,,,,,,,,,,,,,,,,53,,,,,,,,,,,,,,364.4679999992659,,response,,,,99,,,,,,,Space,keypress(Space),,,,,,,,---- -- ----- -- ------ - ------- --- ----------<br>------------- ------ ------ ---- ---- ------- ----- -- ----<br>-------- ------- -- ---------- --- - --- ----- ----- ----<br>---- --- --- close --- ---- ---- ------- ----- ---- -------<br>--- --- -- ----- -- --- ---- -- --- ---- -- ------ ------<br>--- ----- -- ----,142441.5,142440.69999999925,142059.484,142070.29999999888,142076.232,142444.72,,31,close
screen,html.Screen,2_1_0_1_32,2022-02-02T16:12:25.572Z,,,,,,,,,,,,,,,,,53,,,,,,,,,,,,,,395.77999999999884,,response,,,,99,,,,,,,Space,keypress(Space),,,,,,,,---- -- ----- -- ------ - ------- --- ----------<br>------------- ------ ------ ---- ---- ------- ----- -- ----<br>-------- ------- -- ---------- --- - --- ----- ----- ----<br>---- --- --- ----- you ---- ---- ------- ----- ---- -------<br>--- --- -- ----- -- --- ---- -- --- ---- -- ------ ------<br>--- ----- -- ----,142841.29999999888,142840.5,142427.972,142441.69999999925,142444.72,142846.694,,32,you
screen,html.Screen,2_1_0_1_33,2022-02-02T16:12:25.974Z,,,,,,,,,,,,,,,,,53,,,,,,,,,,,,,,396.00599999926635,,response,,,,99,,,,,,,Space,keypress(Space),,,,,,,,---- -- ----- -- ------ - ------- --- ----------<br>------------- ------ ------ ---- ---- ------- ----- -- ----<br>-------- ------- -- ---------- --- - --- ----- ----- ----<br>---- --- --- ----- --- feel ---- ------- ----- ---- -------<br>--- --- -- ----- -- --- ---- -- --- ---- -- ------ ------<br>--- ----- -- ----,143243.40000000037,143242.69999999925,142829.946,142841.5,142846.694,143248.678,,33,feel
screen,html.Screen,2_1_0_1_34,2022-02-02T16:12:26.364Z,,,,,,,,,,,,,,,,,53,,,,,,,,,,,,,,384.121999998868,,response,,,,99,,,,,,,Space,keypress(Space),,,,,,,,---- -- ----- -- ------ - ------- --- ----------<br>------------- ------ ------ ---- ---- ------- ----- -- ----<br>-------- ------- -- ---------- --- - --- ----- ----- ----<br>---- --- --- ----- --- ---- that ------- ----- ---- -------<br>--- --- -- ----- -- --- ---- -- --- ---- -- ------ ------<br>--- ----- -- ----,143633.5,143632.79999999888,143231.93,143243.59999999963,143248.678,143650.562,,34,that
screen,html.Screen,2_1_0_1_35,2022-02-02T16:12:26.765Z,,,,,,,,,,,,,,,,,53,,,,,,,,,,,,,,382.8380000003672,,response,,,,99,,,,,,,Space,keypress(Space),,,,,,,,---- -- ----- -- ------ - ------- --- ----------<br>------------- ------ ------ ---- ---- ------- ----- -- ----<br>-------- ------- -- ---------- --- - --- ----- ----- ----<br>---- --- --- ----- --- ---- ---- matters ----- ---- -------<br>--- --- -- ----- -- --- ---- -- --- ---- -- ------ ------<br>--- ----- -- ----,144034.19999999925,144033.40000000037,143633.815,143633.69999999925,143650.562,144035.972,,35,matters
screen,html.Screen,2_1_0_1_36,2022-02-02T16:12:27.137Z,,,,,,,,,,,,,,,,,53,,,,,,,,,,,,,,370.2279999992461,,response,,,,99,,,,,,,Space,keypress(Space),,,,,,,,"---- -- ----- -- ------ - ------- --- ----------<br>------------- ------ ------ ---- ---- ------- ----- -- ----<br>-------- ------- -- ---------- --- - --- ----- ----- ----<br>---- --- --- ----- --- ---- ---- ------- most, ---- -------<br>--- --- -- ----- -- --- ---- -- --- ---- -- ------ ------<br>--- ----- -- ----",144407,144406.19999999925,144019.222,144034.5,144035.972,144421.12,,36,"most,"
screen,html.Screen,2_1_0_1_37,2022-02-02T16:12:27.508Z,,,,,,,,,,,,,,,,,53,,,,,,,,,,,,,,355.5799999992596,,response,,,,99,,,,,,,Space,keypress(Space),,,,,,,,---- -- ----- -- ------ - ------- --- ----------<br>------------- ------ ------ ---- ---- ------- ----- -- ----<br>-------- ------- -- ---------- --- - --- ----- ----- ----<br>---- --- --- ----- --- ---- ---- ------- ----- it's -------<br>--- --- -- ----- -- --- ---- -- --- ---- -- ------ ------<br>--- ----- -- ----,144777.59999999963,144776.69999999925,144404.372,144407.09999999963,144421.12,144789.579,,37,it's
screen,html.Screen,2_1_0_1_38,2022-02-02T16:12:27.887Z,,,,,,,,,,,,,,,,,53,,,,,,,,,,,,,,366.2209999988845,,response,,,,99,,,,,,,Space,keypress(Space),,,,,,,,---- -- ----- -- ------ - ------- --- ----------<br>------------- ------ ------ ---- ---- ------- ----- -- ----<br>-------- ------- -- ---------- --- - --- ----- ----- ----<br>---- --- --- ----- --- ---- ---- ------- ----- ---- whether<br>--- --- -- ----- -- --- ---- -- --- ---- -- ------ ------<br>--- ----- -- ----,145156.5,145155.79999999888,144772.831,144777.90000000037,144789.579,145158.123,,38,whether
screen,html.Screen,2_1_0_1_39,2022-02-02T16:12:28.241Z,,,,,,,,,,,,,,,,,53,,,,,,,,,,,,,,351.7770000003802,,response,,,,99,,,,,,,Space,keypress(Space),,,,,,,,---- -- ----- -- ------ - ------- --- ----------<br>------------- ------ ------ ---- ---- ------- ----- -- ----<br>-------- ------- -- ---------- --- - --- ----- ----- ----<br>---- --- --- ----- --- ---- ---- ------- ----- ---- -------<br>you --- -- ----- -- --- ---- -- --- ---- -- ------ ------<br>--- ----- -- ----,145510.69999999925,145509.90000000037,145141.374,145156.69999999925,145158.123,145526.404,,39,you
screen,html.Screen,2_1_0_1_40,2022-02-02T16:12:28.575Z,,,,,,,,,,,,,,,,,53,,,,,,,,,,,,,,316.89599999887287,,response,,,,99,,,,,,,Space,keypress(Space),,,,,,,,---- -- ----- -- ------ - ------- --- ----------<br>------------- ------ ------ ---- ---- ------- ----- -- ----<br>-------- ------- -- ---------- --- - --- ----- ----- ----<br>---- --- --- ----- --- ---- ---- ------- ----- ---- -------<br>--- are -- ----- -- --- ---- -- --- ---- -- ------ ------<br>--- ----- -- ----,145844.09999999963,145843.29999999888,145509.658,145510.90000000037,145526.404,145861.667,,40,are
screen,html.Screen,2_1_0_1_41,2022-02-02T16:12:28.953Z,,,,,,,,,,,,,,,,,53,,,,,,,,,,,,,,359.7330000003858,,response,,,,99,,,,,,,Space,keypress(Space),,,,,,,,---- -- ----- -- ------ - ------- --- ----------<br>------------- ------ ------ ---- ---- ------- ----- -- ----<br>-------- ------- -- ---------- --- - --- ----- ----- ----<br>---- --- --- ----- --- ---- ---- ------- ----- ---- -------<br>--- --- as ----- -- --- ---- -- --- ---- -- ------ ------<br>--- ----- -- ----,146222.5,146221.40000000037,145844.916,145844.29999999888,145861.667,146230.032,,41,as
screen,html.Screen,2_1_0_1_42,2022-02-02T16:12:29.300Z,,,,,,,,,,,,,,,,,53,,,,,,,,,,,,,,338.868000000366,,response,,,,99,,,,,,,Space,keypress(Space),,,,,,,,---- -- ----- -- ------ - ------- --- ----------<br>------------- ------ ------ ---- ---- ------- ----- -- ----<br>-------- ------- -- ---------- --- - --- ----- ----- ----<br>---- --- --- ----- --- ---- ---- ------- ----- ---- -------<br>--- --- -- close -- --- ---- -- --- ---- -- ------ ------<br>--- ----- -- ----,146569.69999999925,146568.90000000037,146213.284,146222.69999999925,146230.032,146581.803,,42,close
screen,html.Screen,2_1_0_1_43,2022-02-02T16:12:29.674Z,,,,,,,,,,,,,,,,,53,,,,,,,,,,,,,,360.69699999998556,,response,,,,99,,,,,,,Space,keypress(Space),,,,,,,,---- -- ----- -- ------ - ------- --- ----------<br>------------- ------ ------ ---- ---- ------- ----- -- ----<br>-------- ------- -- ---------- --- - --- ----- ----- ----<br>---- --- --- ----- --- ---- ---- ------- ----- ---- -------<br>--- --- -- ----- as --- ---- -- --- ---- -- ------ ------<br>--- ----- -- ----,146943.5,146942.5,146565.054,146569.79999999888,146581.803,146950.242,,43,as
screen,html.Screen,2_1_0_1_44,2022-02-02T16:12:30.011Z,,,,,,,,,,,,,,,,,53,,,,,,,,,,,,,,329.9579999992566,,response,,,,99,,,,,,,Space,keypress(Space),,,,,,,,---- -- ----- -- ------ - ------- --- ----------<br>------------- ------ ------ ---- ---- ------- ----- -- ----<br>-------- ------- -- ---------- --- - --- ----- ----- ----<br>---- --- --- ----- --- ---- ---- ------- ----- ---- -------<br>--- --- -- ----- -- you ---- -- --- ---- -- ------ ------<br>--- ----- -- ----,147281,147280.19999999925,146933.494,146943.69999999925,146950.242,147285.169,,44,you
screen,html.Screen,2_1_0_1_45,2022-02-02T16:12:30.356Z,,,,,,,,,,,,,,,,,53,,,,,,,,,,,,,,339.43099999963306,,response,,,,99,,,,,,,Space,keypress(Space),,,,,,,,---- -- ----- -- ------ - ------- --- ----------<br>------------- ------ ------ ---- ---- ------- ----- -- ----<br>-------- ------- -- ---------- --- - --- ----- ----- ----<br>---- --- --- ----- --- ---- ---- ------- ----- ---- -------<br>--- --- -- ----- -- --- want -- --- ---- -- ------ ------<br>--- ----- -- ----,147625.40000000037,147624.59999999963,147268.422,147281.19999999925,147285.169,147637.031,,45,want
screen,html.Screen,2_1_0_1_46,2022-02-02T16:12:30.676Z,,,,,,,,,,,,,,,,,53,,,,,,,,,,,,,,308.06899999963935,,response,,,,99,,,,,,,Space,keypress(Space),,,,,,,,---- -- ----- -- ------ - ------- --- ----------<br>------------- ------ ------ ---- ---- ------- ----- -- ----<br>-------- ------- -- ---------- --- - --- ----- ----- ----<br>---- --- --- ----- --- ---- ---- ------- ----- ---- -------<br>--- --- -- ----- -- --- ---- to --- ---- -- ------ ------<br>--- ----- -- ----,147945.90000000037,147945.09999999963,147620.281,147625.59999999963,147637.031,147955.205,,46,to
screen,html.Screen,2_1_0_1_47,2022-02-02T16:12:31.011Z,,,,,,,,,,,,,,,,,53,,,,,,,,,,,,,,324.3949999996403,,response,,,,99,,,,,,,Space,keypress(Space),,,,,,,,"---- -- ----- -- ------ - ------- --- ----------<br>------------- ------ ------ ---- ---- ------- ----- -- ----<br>-------- ------- -- ---------- --- - --- ----- ----- ----<br>---- --- --- ----- --- ---- ---- ------- ----- ---- -------<br>--- --- -- ----- -- --- ---- -- be, ---- -- ------ ------<br>--- ----- -- ----",148280.40000000037,148279.59999999963,147938.457,147946.09999999963,147955.205,148290.188,,47,"be,"
screen,html.Screen,2_1_0_1_48,2022-02-02T16:12:31.338Z,,,,,,,,,,,,,,,,,53,,,,,,,,,,,,,,316.7120000003779,,response,,,,99,,,,,,,Space,keypress(Space),,,,,,,,---- -- ----- -- ------ - ------- --- ----------<br>------------- ------ ------ ---- ---- ------- ----- -- ----<br>-------- ------- -- ---------- --- - --- ----- ----- ----<br>---- --- --- ----- --- ---- ---- ------- ----- ---- -------<br>--- --- -- ----- -- --- ---- -- --- even -- ------ ------<br>--- ----- -- ----,148607.59999999963,148606.90000000037,148273.44,148280.59999999963,148290.188,148625.282,,48,even
screen,html.Screen,2_1_0_1_49,2022-02-02T16:12:31.680Z,,,,,,,,,,,,,,,,,53,,,,,,,,,,,,,,323.9179999992484,,response,,,,99,,,,,,,Space,keypress(Space),,,,,,,,---- -- ----- -- ------ - ------- --- ----------<br>------------- ------ ------ ---- ---- ------- ----- -- ----<br>-------- ------- -- ---------- --- - --- ----- ----- ----<br>---- --- --- ----- --- ---- ---- ------- ----- ---- -------<br>--- --- -- ----- -- --- ---- -- --- ---- if ------ ------<br>--- ----- -- ----,148949.90000000037,148949.19999999925,148608.531,148607.79999999888,148625.282,148960.077,,49,if
screen,html.Screen,2_1_0_1_50,2022-02-02T16:12:32.009Z,,,,,,,,,,,,,,,,,53,,,,,,,,,,,,,,317.2229999988922,,response,,,,99,,,,,,,Space,keypress(Space),,,,,,,,---- -- ----- -- ------ - ------- --- ----------<br>------------- ------ ------ ---- ---- ------- ----- -- ----<br>-------- ------- -- ---------- --- - --- ----- ----- ----<br>---- --- --- ----- --- ---- ---- ------- ----- ---- -------<br>--- --- -- ----- -- --- ---- -- --- ---- -- that's ------<br>--- ----- -- ----,149278.09999999963,149277.29999999888,148943.331,148950.09999999963,148960.077,149295.143,,50,that's
screen,html.Screen,2_1_0_1_51,2022-02-02T16:12:32.341Z,,,,,,,,,,,,,,,,,53,,,,,,,,,,,,,,314.15699999887147,,response,,,,99,,,,,,,Space,keypress(Space),,,,,,,,---- -- ----- -- ------ - ------- --- ----------<br>------------- ------ ------ ---- ---- ------- ----- -- ----<br>-------- ------- -- ---------- --- - --- ----- ----- ----<br>---- --- --- ----- --- ---- ---- ------- ----- ---- -------<br>--- --- -- ----- -- --- ---- -- --- ---- -- ------ really<br>--- ----- -- ----,149610.09999999963,149609.29999999888,149278.395,149278.5,149295.143,149629.942,,51,really
screen,html.Screen,2_1_0_1_52,2022-02-02T16:12:32.681Z,,,,,,,,,,,,,,,,,53,,,,,,,,,,,,,,319.3579999988724,,response,,,,99,,,,,,,Space,keypress(Space),,,,,,,,---- -- ----- -- ------ - ------- --- ----------<br>------------- ------ ------ ---- ---- ------- ----- -- ----<br>-------- ------- -- ---------- --- - --- ----- ----- ----<br>---- --- --- ----- --- ---- ---- ------- ----- ---- -------<br>--- --- -- ----- -- --- ---- -- --- ---- -- ------ ------<br>not ----- -- ----,149950.09999999963,149949.29999999888,149613.197,149610.19999999925,149629.942,149965.228,,52,not
screen,html.Screen,2_1_0_1_53,2022-02-02T16:12:32.995Z,,,,,,,,,,,,,,,,,53,,,,,,,,,,,,,,298.47199999925215,,response,,,,99,,,,,,,Space,keypress(Space),,,,,,,,---- -- ----- -- ------ - ------- --- ----------<br>------------- ------ ------ ---- ---- ------- ----- -- ----<br>-------- ------- -- ---------- --- - --- ----- ----- ----<br>---- --- --- ----- --- ---- ---- ------- ----- ---- -------<br>--- --- -- ----- -- --- ---- -- --- ---- -- ------ ------<br>--- close -- ----,150264.40000000037,150263.69999999925,149948.476,149950.40000000037,149965.228,150266.595,,53,close
screen,html.Screen,2_1_0_1_54,2022-02-02T16:12:33.348Z,,,,,,,,,,,,,,,,,53,,,,,,,,,,,,,,349.70499999888125,,response,,,,99,,,,,,,Space,keypress(Space),,,,,,,,---- -- ----- -- ------ - ------- --- ----------<br>------------- ------ ------ ---- ---- ------- ----- -- ----<br>-------- ------- -- ---------- --- - --- ----- ----- ----<br>---- --- --- ----- --- ---- ---- ------- ----- ---- -------<br>--- --- -- ----- -- --- ---- -- --- ---- -- ------ ------<br>--- ----- at ----,150617.09999999963,150616.29999999888,150249.847,150264.69999999925,150266.595,150618.356,,54,at
screen,html.Screen,2_1_0_1_55,2022-02-02T16:12:33.686Z,,,,,,,,,,,,,,,,,53,,,,,,,,,,,,,,336.7439999996277,,response,,,,99,,,,,,,Space,keypress(Space),,,,,,,,---- -- ----- -- ------ - ------- --- ----------<br>------------- ------ ------ ---- ---- ------- ----- -- ----<br>-------- ------- -- ---------- --- - --- ----- ----- ----<br>---- --- --- ----- --- ---- ---- ------- ----- ---- -------<br>--- --- -- ----- -- --- ---- -- --- ---- -- ------ ------<br>--- ----- -- all.,150955.90000000037,150955.09999999963,150601.607,150617.29999999888,150618.356,150970.058,,55,all.
Item 99,flow.Loop,2_1_0_1,2022-02-02T16:12:33.687Z,,,,,,,,,,,,,,,,,,,,,,,,,,,,,,,22630.006999999634,,completion,,,,,D,,,,,,,,,,,silence,,,,,150956.29999999888,150955.09999999963,128308.345,128310.09999999963,128325.093,150970.058,,,
Question 1,html.Screen,2_1_0_2,2022-02-02T16:12:40.422Z,,,,,,,,,,,,,,,,,,,,,,,,,,,,false,FALSE,,6720.241999998892,,response,,,,99,D,,,,,,TRUE,click #choice-1,,,,silence,,,,,157691.69999999925,157690.29999999888,150953.31,150956.5,150970.058,157703.129,,,
Question 2,html.Screen,2_1_0_3,2022-02-02T16:12:43.484Z,,,,,,,,,,,,,,,,,,,,,,,,,,,,true,TRUE,,3047.7710000003863,,response,,,,99,D,,,,,,TRUE,click #choice-1,,,,silence,,,,,160753,160750.90000000037,157686.381,157691.90000000037,157703.129,160785.049,,,
Item 99,flow.Sequence,2_1_0,2022-02-02T16:12:43.484Z,,,,,,,,,,,,,,,,,,,,,,,,,,,,,,,42424.85800000037,,completion,,,,,,,,,,,,,,,,,,,,,160753.40000000037,160750.90000000037,118309.291,118316.59999999963,118326.042,160785.049,,,
Holding screen,html.Screen,2_1_1_0,2022-02-02T16:12:53.503Z,,,,,,,,,,,,,,,,,,,,,,,,,,,,,,,9999.445999999996,,timeout,,,,,,,,,,,,,,,,,,,,,170769.69999999925,170767.745,160768.301,160754.09999999963,160785.049,170784.495,,,
screen,html.Screen,2_1_1_1_0,2022-02-02T16:12:54.320Z,,,,,,,,,,,,,,,,,54,,,,,,,,,,,,,,800.7049999992596,,response,,,,100,,,,,,,Space,keypress(Space),,,,,,,,At --- ---- --- ------ ----- ------- ---- -- --- ------- --<br>------- ---------- ------ -- ----- -- ----- -- ---- ------<br>--- ----- --- --- ------ -------- ----- --- ------ ----- --<br>----- ----- ---------- --- --- ------ ------ ---- -- ------<br>------- --- ------ ----- --- ---- ------- -- ---- --- --<br>------- ------,171586.19999999925,171585.19999999925,170767.745,170770.09999999963,170784.495,171588.09,,0,At
screen,html.Screen,2_1_1_1_1,2022-02-02T16:12:54.684Z,,,,,,,,,,,,,,,,,54,,,,,,,,,,,,,,361.310000000376,,response,,,,100,,,,,,,Space,keypress(Space),,,,,,,,-- the ---- --- ------ ----- ------- ---- -- --- ------- --<br>------- ---------- ------ -- ----- -- ----- -- ---- ------<br>--- ----- --- --- ------ -------- ----- --- ------ ----- --<br>----- ----- ---------- --- --- ------ ------ ---- -- ------<br>------- --- ------ ----- --- ---- ------- -- ---- --- --<br>------- ------,171950.19999999925,171949.40000000037,171571.343,171586.5,171588.09,171956.893,,1,the
screen,html.Screen,2_1_1_1_2,2022-02-02T16:12:55.063Z,,,,,,,,,,,,,,,,,54,,,,,,,,,,,,,,369.5070000003616,,response,,,,100,,,,,,,Space,keypress(Space),,,,,,,,-- --- time --- ------ ----- ------- ---- -- --- ------- --<br>------- ---------- ------ -- ----- -- ----- -- ---- ------<br>--- ----- --- --- ------ -------- ----- --- ------ ----- --<br>----- ----- ---------- --- --- ------ ------ ---- -- ------<br>------- --- ------ ----- --- ---- ------- -- ---- --- --<br>------- ------,172329,172326.40000000037,171940.143,171950.40000000037,171956.893,172341.927,,2,time
screen,html.Screen,2_1_1_1_3,2022-02-02T16:12:55.419Z,,,,,,,,,,,,,,,,,54,,,,,,,,,,,,,,342.7729999992589,,response,,,,100,,,,,,,Space,keypress(Space),,,,,,,,-- --- ---- the ------ ----- ------- ---- -- --- ------- --<br>------- ---------- ------ -- ----- -- ----- -- ---- ------<br>--- ----- --- --- ------ -------- ----- --- ------ ----- --<br>----- ----- ---------- --- --- ------ ------ ---- -- ------<br>------- --- ------ ----- --- ---- ------- -- ---- --- --<br>------- ------,172685.40000000037,172684.69999999925,172325.18,172329.19999999925,172341.927,172693.888,,3,the
screen,html.Screen,2_1_1_1_4,2022-02-02T16:12:55.805Z,,,,,,,,,,,,,,,,,54,,,,,,,,,,,,,,376.7119999996212,,response,,,,100,,,,,,,Space,keypress(Space),,,,,,,,-- --- ---- --- French ----- ------- ---- -- --- ------- --<br>------- ---------- ------ -- ----- -- ----- -- ---- ------<br>--- ----- --- --- ------ -------- ----- --- ------ ----- --<br>----- ----- ---------- --- --- ------ ------ ---- -- ------<br>------- --- ------ ----- --- ---- ------- -- ---- --- --<br>------- ------,173071.40000000037,173070.59999999963,172677.137,172685.59999999963,172693.888,173078.789,,4,French
screen,html.Screen,2_1_1_1_5,2022-02-02T16:12:56.196Z,,,,,,,,,,,,,,,,,54,,,,,,,,,,,,,,382.51099999889266,,response,,,,100,,,,,,,Space,keypress(Space),,,,,,,,-- --- ---- --- ------ crown ------- ---- -- --- ------- --<br>------- ---------- ------ -- ----- -- ----- -- ---- ------<br>--- ----- --- --- ------ -------- ----- --- ------ ----- --<br>----- ----- ---------- --- --- ------ ------ ---- -- ------<br>------- --- ------ ----- --- ---- ------- -- ---- --- --<br>------- ------,173462.09999999963,173461.29999999888,173062.044,173071.59999999963,173078.789,173464.395,,5,crown
screen,html.Screen,2_1_1_1_6,2022-02-02T16:12:56.567Z,,,,,,,,,,,,,,,,,54,,,,,,,,,,,,,,368.6050000000105,,response,,,,100,,,,,,,Space,keypress(Space),,,,,,,,-- --- ---- --- ------ ----- secured ---- -- --- ------- --<br>------- ---------- ------ -- ----- -- ----- -- ---- ------<br>--- ----- --- --- ------ -------- ----- --- ------ ----- --<br>----- ----- ---------- --- --- ------ ------ ---- -- ------<br>------- --- ------ ----- --- ---- ------- -- ---- --- --<br>------- ------,173833.69999999925,173833,173447.643,173462.19999999925,173464.395,173849.379,,6,secured
screen,html.Screen,2_1_1_1_7,2022-02-02T16:12:56.939Z,,,,,,,,,,,,,,,,,54,,,,,,,,,,,,,,354.92099999889615,,response,,,,100,,,,,,,Space,keypress(Space),,,,,,,,-- --- ---- --- ------ ----- ------- much -- --- ------- --<br>------- ---------- ------ -- ----- -- ----- -- ---- ------<br>--- ----- --- --- ------ -------- ----- --- ------ ----- --<br>----- ----- ---------- --- --- ------ ------ ---- -- ------<br>------- --- ------ ----- --- ---- ------- -- ---- --- --<br>------- ------,174205.09999999963,174204.29999999888,173832.632,173833.90000000037,173849.379,174217.967,,7,much
screen,html.Screen,2_1_1_1_8,2022-02-02T16:12:57.333Z,,,,,,,,,,,,,,,,,54,,,,,,,,,,,,,,380.5329999999958,,response,,,,100,,,,,,,Space,keypress(Space),,,,,,,,-- --- ---- --- ------ ----- ------- ---- of --- ------- --<br>------- ---------- ------ -- ----- -- ----- -- ---- ------<br>--- ----- --- --- ------ -------- ----- --- ------ ----- --<br>----- ----- ---------- --- --- ------ ------ ---- -- ------<br>------- --- ------ ----- --- ---- ------- -- ---- --- --<br>------- ------,174599.29999999888,174598.5,174201.218,174205.29999999888,174217.967,174603.214,,8,of
screen,html.Screen,2_1_1_1_9,2022-02-02T16:12:57.673Z,,,,,,,,,,,,,,,,,54,,,,,,,,,,,,,,335.2859999999928,,response,,,,100,,,,,,,Space,keypress(Space),,,,,,,,-- --- ---- --- ------ ----- ------- ---- -- its ------- --<br>------- ---------- ------ -- ----- -- ----- -- ---- ------<br>--- ----- --- --- ------ -------- ----- --- ------ ----- --<br>----- ----- ---------- --- --- ------ ------ ---- -- ------<br>------- --- ------ ----- --- ---- ------- -- ---- --- --<br>------- ------,174939.5,174938.5,174586.465,174599.5,174603.214,174954.91,,9,its
screen,html.Screen,2_1_1_1_10,2022-02-02T16:12:58.025Z,,,,,,,,,,,,,,,,,54,,,,,,,,,,,,,,335.3899999988789,,response,,,,100,,,,,,,Space,keypress(Space),,,,,,,,-- --- ---- --- ------ ----- ------- ---- -- --- revenue --<br>------- ---------- ------ -- ----- -- ----- -- ---- ------<br>--- ----- --- --- ------ -------- ----- --- ------ ----- --<br>----- ----- ---------- --- --- ------ ------ ---- -- ------<br>------- --- ------ ----- --- ---- ------- -- ---- --- --<br>------- ------,175291.09999999963,175290.29999999888,174938.162,174939.79999999888,174954.91,175306.639,,10,revenue
screen,html.Screen,2_1_1_1_11,2022-02-02T16:12:58.395Z,,,,,,,,,,,,,,,,,54,,,,,,,,,,,,,,353.9609999996319,,response,,,,100,,,,,,,Space,keypress(Space),,,,,,,,-- --- ---- --- ------ ----- ------- ---- -- --- ------- by<br>------- ---------- ------ -- ----- -- ----- -- ---- ------<br>--- ----- --- --- ------ -------- ----- --- ------ ----- --<br>----- ----- ---------- --- --- ------ ------ ---- -- ------<br>------- --- ------ ----- --- ---- ------- -- ---- --- --<br>------- ------,175661.29999999888,175660.59999999963,175289.891,175291.29999999888,175306.639,175675.156,,11,by
screen,html.Screen,2_1_1_1_12,2022-02-02T16:12:58.774Z,,,,,,,,,,,,,,,,,54,,,,,,,,,,,,,,364.6439999988943,,response,,,,100,,,,,,,Space,keypress(Space),,,,,,,,-- --- ---- --- ------ ----- ------- ---- -- --- ------- --<br>issuing ---------- ------ -- ----- -- ----- -- ---- ------<br>--- ----- --- --- ------ -------- ----- --- ------ ----- --<br>----- ----- ---------- --- --- ------ ------ ---- -- ------<br>------- --- ------ ----- --- ---- ------- -- ---- --- --<br>------- ------,176040.59999999963,176039.79999999888,175658.407,175661.5,175675.156,176043.595,,12,issuing
screen,html.Screen,2_1_1_1_13,2022-02-02T16:12:59.119Z,,,,,,,,,,,,,,,,,54,,,,,,,,,,,,,,341.40499999999884,,response,,,,100,,,,,,,Space,keypress(Space),,,,,,,,-- --- ---- --- ------ ----- ------- ---- -- --- ------- --<br>------- government ------ -- ----- -- ----- -- ---- ------<br>--- ----- --- --- ------ -------- ----- --- ------ ----- --<br>----- ----- ---------- --- --- ------ ------ ---- -- ------<br>------- --- ------ ----- --- ---- ------- -- ---- --- --<br>------- ------,176385.79999999888,176385,176026.847,176040.69999999925,176043.595,176395.197,,13,government
screen,html.Screen,2_1_1_1_14,2022-02-02T16:12:59.499Z,,,,,,,,,,,,,,,,,54,,,,,,,,,,,,,,369.80300000001444,,response,,,,100,,,,,,,Space,keypress(Space),,,,,,,,-- --- ---- --- ------ ----- ------- ---- -- --- ------- --<br>------- ---------- bonds. -- ----- -- ----- -- ---- ------<br>--- ----- --- --- ------ -------- ----- --- ------ ----- --<br>----- ----- ---------- --- --- ------ ------ ---- -- ------<br>------- --- ------ ----- --- ---- ------- -- ---- --- --<br>------- ------,176765.90000000037,176765,176378.451,176386,176395.197,176780.681,,14,bonds.
screen,html.Screen,2_1_1_1_15,2022-02-02T16:12:59.852Z,,,,,,,,,,,,,,,,,54,,,,,,,,,,,,,,337.2190000003611,,response,,,,100,,,,,,,Space,keypress(Space),,,,,,,,-- --- ---- --- ------ ----- ------- ---- -- --- ------- --<br>------- ---------- ------ In ----- -- ----- -- ---- ------<br>--- ----- --- --- ------ -------- ----- --- ------ ----- --<br>----- ----- ---------- --- --- ------ ------ ---- -- ------<br>------- --- ------ ----- --- ---- ------- -- ---- --- --<br>------- ------,177118.69999999925,177117.90000000037,176763.93,176766.09999999963,176780.681,177132.335,,15,In
screen,html.Screen,2_1_1_1_16,2022-02-02T16:13:00.164Z,,,,,,,,,,,,,,,,,54,,,,,,,,,,,,,,297.46499999889056,,response,,,,100,,,,,,,Space,keypress(Space),,,,,,,,"-- --- ---- --- ------ ----- ------- ---- -- --- ------- --<br>------- ---------- ------ -- 1727, -- ----- -- ---- ------<br>--- ----- --- --- ------ -------- ----- --- ------ ----- --<br>----- ----- ---------- --- --- ------ ------ ---- -- ------<br>------- --- ------ ----- --- ---- ------- -- ---- --- --<br>------- ------",177430.59999999963,177429.79999999888,177115.586,177118.90000000037,177132.335,177433.792,,16,"1727,"
screen,html.Screen,2_1_1_1_17,2022-02-02T16:13:00.621Z,,,,,,,,,,,,,,,,,54,,,,,,,,,,,,,,453.20800000001327,,response,,,,100,,,,,,,Space,keypress(Space),,,,,,,,-- --- ---- --- ------ ----- ------- ---- -- --- ------- --<br>------- ---------- ------ -- ----- in ----- -- ---- ------<br>--- ----- --- --- ------ -------- ----- --- ------ ----- --<br>----- ----- ---------- --- --- ------ ------ ---- -- ------<br>------- --- ------ ----- --- ---- ------- -- ---- --- --<br>------- ------,177887.79999999888,177887,177417.044,177430.69999999925,177433.792,177902.758,,17,in
screen,html.Screen,2_1_1_1_18,2022-02-02T16:13:01.020Z,,,,,,,,,,,,,,,,,54,,,,,,,,,,,,,,382.6420000003709,,response,,,,100,,,,,,,Space,keypress(Space),,,,,,,,-- --- ---- --- ------ ----- ------- ---- -- --- ------- --<br>------- ---------- ------ -- ----- -- order -- ---- ------<br>--- ----- --- --- ------ -------- ----- --- ------ ----- --<br>----- ----- ---------- --- --- ------ ------ ---- -- ------<br>------- --- ------ ----- --- ---- ------- -- ---- --- --<br>------- ------,178286.29999999888,178285.40000000037,177886.01,177888,177902.758,178287.993,,18,order
screen,html.Screen,2_1_1_1_19,2022-02-02T16:13:01.384Z,,,,,,,,,,,,,,,,,54,,,,,,,,,,,,,,361.90700000038487,,response,,,,100,,,,,,,Space,keypress(Space),,,,,,,,-- --- ---- --- ------ ----- ------- ---- -- --- ------- --<br>------- ---------- ------ -- ----- -- ----- to ---- ------<br>--- ----- --- --- ------ -------- ----- --- ------ ----- --<br>----- ----- ---------- --- --- ------ ------ ---- -- ------<br>------- --- ------ ----- --- ---- ------- -- ---- --- --<br>------- ------,178650.59999999963,178649.90000000037,178271.245,178286.5,178287.993,178656.481,,19,to
screen,html.Screen,2_1_1_1_20,2022-02-02T16:13:01.750Z,,,,,,,,,,,,,,,,,54,,,,,,,,,,,,,,359.2189999992552,,response,,,,100,,,,,,,Space,keypress(Space),,,,,,,,-- --- ---- --- ------ ----- ------- ---- -- --- ------- --<br>------- ---------- ------ -- ----- -- ----- -- save ------<br>--- ----- --- --- ------ -------- ----- --- ------ ----- --<br>----- ----- ---------- --- --- ------ ------ ---- -- ------<br>------- --- ------ ----- --- ---- ------- -- ---- --- --<br>------- ------,179016.5,179015.69999999925,178639.733,178650.79999999888,178656.481,179024.959,,20,save
screen,html.Screen,2_1_1_1_21,2022-02-02T16:13:02.122Z,,,,,,,,,,,,,,,,,54,,,,,,,,,,,,,,363.04099999999744,,response,,,,100,,,,,,,Space,keypress(Space),,,,,,,,"-- --- ---- --- ------ ----- ------- ---- -- --- ------- --<br>------- ---------- ------ -- ----- -- ----- -- ---- money,<br>--- ----- --- --- ------ -------- ----- --- ------ ----- --<br>----- ----- ---------- --- --- ------ ------ ---- -- ------<br>------- --- ------ ----- --- ---- ------- -- ---- --- --<br>------- ------",179388.79999999888,179388,179008.211,179016.69999999925,179024.959,179393.443,,21,"money,"
screen,html.Screen,2_1_1_1_22,2022-02-02T16:13:02.520Z,,,,,,,,,,,,,,,,,54,,,,,,,,,,,,,,392.4570000003732,,response,,,,100,,,,,,,Space,keypress(Space),,,,,,,,-- --- ---- --- ------ ----- ------- ---- -- --- ------- --<br>------- ---------- ------ -- ----- -- ----- -- ---- ------<br>the ----- --- --- ------ -------- ----- --- ------ ----- --<br>----- ----- ---------- --- --- ------ ------ ---- -- ------<br>------- --- ------ ----- --- ---- ------- -- ---- --- --<br>------- ------,179786.59999999963,179785.90000000037,179376.695,179389,179393.443,179795.421,,22,the
screen,html.Screen,2_1_1_1_23,2022-02-02T16:13:02.895Z,,,,,,,,,,,,,,,,,54,,,,,,,,,,,,,,364.8789999988803,,response,,,,100,,,,,,,Space,keypress(Space),,,,,,,,-- --- ---- --- ------ ----- ------- ---- -- --- ------- --<br>------- ---------- ------ -- ----- -- ----- -- ---- ------<br>--- state --- --- ------ -------- ----- --- ------ ----- --<br>----- ----- ---------- --- --- ------ ------ ---- -- ------<br>------- --- ------ ----- --- ---- ------- -- ---- --- --<br>------- ------,180161.19999999925,180160.29999999888,179778.673,179786.79999999888,179795.421,180163.905,,23,state
screen,html.Screen,2_1_1_1_24,2022-02-02T16:13:03.253Z,,,,,,,,,,,,,,,,,54,,,,,,,,,,,,,,354.4950000003737,,response,,,,100,,,,,,,Space,keypress(Space),,,,,,,,-- --- ---- --- ------ ----- ------- ---- -- --- ------- --<br>------- ---------- ------ -- ----- -- ----- -- ---- ------<br>--- ----- cut --- ------ -------- ----- --- ------ ----- --<br>----- ----- ---------- --- --- ------ ------ ---- -- ------<br>------- --- ------ ----- --- ---- ------- -- ---- --- --<br>------- ------,180519.09999999963,180518.40000000037,180147.157,180161.40000000037,180163.905,180532.389,,24,cut
screen,html.Screen,2_1_1_1_25,2022-02-02T16:13:03.625Z,,,,,,,,,,,,,,,,,54,,,,,,,,,,,,,,358.6110000000044,,response,,,,100,,,,,,,Space,keypress(Space),,,,,,,,-- --- ---- --- ------ ----- ------- ---- -- --- ------- --<br>------- ---------- ------ -- ----- -- ----- -- ---- ------<br>--- ----- --- the ------ -------- ----- --- ------ ----- --<br>----- ----- ---------- --- --- ------ ------ ---- -- ------<br>------- --- ------ ----- --- ---- ------- -- ---- --- --<br>------- ------,180891.69999999925,180891,180515.641,180519.29999999888,180532.389,180900.702,,25,the
screen,html.Screen,2_1_1_1_26,2022-02-02T16:13:03.987Z,,,,,,,,,,,,,,,,,54,,,,,,,,,,,,,,351.9979999992647,,response,,,,100,,,,,,,Space,keypress(Space),,,,,,,,-- --- ---- --- ------ ----- ------- ---- -- --- ------- --<br>------- ---------- ------ -- ----- -- ----- -- ---- ------<br>--- ----- --- --- bonds' -------- ----- --- ------ ----- --<br>----- ----- ---------- --- --- ------ ------ ---- -- ------<br>------- --- ------ ----- --- ---- ------- -- ---- --- --<br>------- ------,181253.5,181252.69999999925,180883.956,180892,180900.702,181269.32,,26,bonds'
screen,html.Screen,2_1_1_1_27,2022-02-02T16:13:04.332Z,,,,,,,,,,,,,,,,,54,,,,,,,,,,,,,,328.08000000036554,,response,,,,100,,,,,,,Space,keypress(Space),,,,,,,,-- --- ---- --- ------ ----- ------- ---- -- --- ------- --<br>------- ---------- ------ -- ----- -- ----- -- ---- ------<br>--- ----- --- --- ------ interest ----- --- ------ ----- --<br>----- ----- ---------- --- --- ------ ------ ---- -- ------<br>------- --- ------ ----- --- ---- ------- -- ---- --- --<br>------- ------,181598.29999999888,181597.40000000037,181252.571,181253.69999999925,181269.32,181604.431,,27,interest
screen,html.Screen,2_1_1_1_28,2022-02-02T16:13:04.713Z,,,,,,,,,,,,,,,,,54,,,,,,,,,,,,,,373.868999998871,,response,,,,100,,,,,,,Space,keypress(Space),,,,,,,,-- --- ---- --- ------ ----- ------- ---- -- --- ------- --<br>------- ---------- ------ -- ----- -- ----- -- ---- ------<br>--- ----- --- --- ------ -------- rate. --- ------ ----- --<br>----- ----- ---------- --- --- ------ ------ ---- -- ------<br>------- --- ------ ----- --- ---- ------- -- ---- --- --<br>------- ------,181979,181978.29999999888,181587.68,181598.5,181604.431,181989.564,,28,rate.
screen,html.Screen,2_1_1_1_29,2022-02-02T16:13:05.090Z,,,,,,,,,,,,,,,,,54,,,,,,,,,,,,,,366.43599999998696,,response,,,,100,,,,,,,Space,keypress(Space),,,,,,,,-- --- ---- --- ------ ----- ------- ---- -- --- ------- --<br>------- ---------- ------ -- ----- -- ----- -- ---- ------<br>--- ----- --- --- ------ -------- ----- The ------ ----- --<br>----- ----- ---------- --- --- ------ ------ ---- -- ------<br>------- --- ------ ----- --- ---- ------- -- ---- --- --<br>------- ------,182356.69999999925,182356,181972.816,181979.29999999888,181989.564,182358.082,,29,The
screen,html.Screen,2_1_1_1_30,2022-02-02T16:13:05.448Z,,,,,,,,,,,,,,,,,54,,,,,,,,,,,,,,355.61799999926006,,response,,,,100,,,,,,,Space,keypress(Space),,,,,,,,-- --- ---- --- ------ ----- ------- ---- -- --- ------- --<br>------- ---------- ------ -- ----- -- ----- -- ---- ------<br>--- ----- --- --- ------ -------- ----- --- market ----- --<br>----- ----- ---------- --- --- ------ ------ ---- -- ------<br>------- --- ------ ----- --- ---- ------- -- ---- --- --<br>------- ------,182714.40000000037,182713.69999999925,182341.333,182356.90000000037,182358.082,182726.535,,30,market
screen,html.Screen,2_1_1_1_31,2022-02-02T16:13:05.812Z,,,,,,,,,,,,,,,,,54,,,,,,,,,,,,,,350.86500000036904,,response,,,,100,,,,,,,Space,keypress(Space),,,,,,,,-- --- ---- --- ------ ----- ------- ---- -- --- ------- --<br>------- ---------- ------ -- ----- -- ----- -- ---- ------<br>--- ----- --- --- ------ -------- ----- --- ------ value --<br>----- ----- ---------- --- --- ------ ------ ---- -- ------<br>------- --- ------ ----- --- ---- ------- -- ---- --- --<br>------- ------,183078,183077.40000000037,182709.787,182714.59999999963,182726.535,183095.019,,31,value
screen,html.Screen,2_1_1_1_32,2022-02-02T16:13:06.165Z,,,,,,,,,,,,,,,,,54,,,,,,,,,,,,,,335.2809999988822,,response,,,,100,,,,,,,Space,keypress(Space),,,,,,,,-- --- ---- --- ------ ----- ------- ---- -- --- ------- --<br>------- ---------- ------ -- ----- -- ----- -- ---- ------<br>--- ----- --- --- ------ -------- ----- --- ------ ----- of<br>----- ----- ---------- --- --- ------ ------ ---- -- ------<br>------- --- ------ ----- --- ---- ------- -- ---- --- --<br>------- ------,183431.19999999925,183430.29999999888,183078.271,183078.29999999888,183095.019,183446.714,,32,of
screen,html.Screen,2_1_1_1_33,2022-02-02T16:13:06.540Z,,,,,,,,,,,,,,,,,54,,,,,,,,,,,,,,359.1860000003653,,response,,,,100,,,,,,,Space,keypress(Space),,,,,,,,-- --- ---- --- ------ ----- ------- ---- -- --- ------- --<br>------- ---------- ------ -- ----- -- ----- -- ---- ------<br>--- ----- --- --- ------ -------- ----- --- ------ ----- --<br>these ----- ---------- --- --- ------ ------ ---- -- ------<br>------- --- ------ ----- --- ---- ------- -- ---- --- --<br>------- ------,183806.69999999925,183805.90000000037,183429.966,183431.5,183446.714,183815.301,,33,these
screen,html.Screen,2_1_1_1_34,2022-02-02T16:13:06.875Z,,,,,,,,,,,,,,,,,54,,,,,,,,,,,,,,325.2989999996207,,response,,,,100,,,,,,,Space,keypress(Space),,,,,,,,-- --- ---- --- ------ ----- ------- ---- -- --- ------- --<br>------- ---------- ------ -- ----- -- ----- -- ---- ------<br>--- ----- --- --- ------ -------- ----- --- ------ ----- --<br>----- bonds ---------- --- --- ------ ------ ---- -- ------<br>------- --- ------ ----- --- ---- ------- -- ---- --- --<br>------- ------,184141.40000000037,184140.59999999963,183798.551,183806.90000000037,183815.301,184150.217,,34,bonds
screen,html.Screen,2_1_1_1_35,2022-02-02T16:13:07.232Z,,,,,,,,,,,,,,,,,54,,,,,,,,,,,,,,347.7829999999958,,response,,,,100,,,,,,,Space,keypress(Space),,,,,,,,"-- --- ---- --- ------ ----- ------- ---- -- --- ------- --<br>------- ---------- ------ -- ----- -- ----- -- ---- ------<br>--- ----- --- --- ------ -------- ----- --- ------ ----- --<br>----- ----- plummeted, --- --- ------ ------ ---- -- ------<br>------- --- ------ ----- --- ---- ------- -- ---- --- --<br>------- ------",184498.69999999925,184498,184133.469,184141.59999999963,184150.217,184501.953,,35,"plummeted,"
screen,html.Screen,2_1_1_1_36,2022-02-02T16:13:07.628Z,,,,,,,,,,,,,,,,,54,,,,,,,,,,,,,,391.3469999988738,,response,,,,100,,,,,,,Space,keypress(Space),,,,,,,,-- --- ---- --- ------ ----- ------- ---- -- --- ------- --<br>------- ---------- ------ -- ----- -- ----- -- ---- ------<br>--- ----- --- --- ------ -------- ----- --- ------ ----- --<br>----- ----- ---------- and --- ------ ------ ---- -- ------<br>------- --- ------ ----- --- ---- ------- -- ---- --- --<br>------- ------,184894.19999999925,184893.29999999888,184485.205,184499,184501.953,184903.927,,36,and
screen,html.Screen,2_1_1_1_37,2022-02-02T16:13:07.975Z,,,,,,,,,,,,,,,,,54,,,,,,,,,,,,,,336.7729999992589,,response,,,,100,,,,,,,Space,keypress(Space),,,,,,,,-- --- ---- --- ------ ----- ------- ---- -- --- ------- --<br>------- ---------- ------ -- ----- -- ----- -- ---- ------<br>--- ----- --- --- ------ -------- ----- --- ------ ----- --<br>----- ----- ---------- --- the ------ ------ ---- -- ------<br>------- --- ------ ----- --- ---- ------- -- ---- --- --<br>------- ------,185241.5,185240.69999999925,184887.179,184894.29999999888,184903.927,185255.666,,37,the
screen,html.Screen,2_1_1_1_38,2022-02-02T16:13:08.356Z,,,,,,,,,,,,,,,,,54,,,,,,,,,,,,,,365.5339999992575,,response,,,,100,,,,,,,Space,keypress(Space),,,,,,,,-- --- ---- --- ------ ----- ------- ---- -- --- ------- --<br>------- ---------- ------ -- ----- -- ----- -- ---- ------<br>--- ----- --- --- ------ -------- ----- --- ------ ----- --<br>----- ----- ---------- --- --- market ------ ---- -- ------<br>------- --- ------ ----- --- ---- ------- -- ---- --- --<br>------- ------,185621.90000000037,185621.19999999925,185238.918,185241.69999999925,185255.666,185624.145,,38,market
screen,html.Screen,2_1_1_1_39,2022-02-02T16:13:08.744Z,,,,,,,,,,,,,,,,,54,,,,,,,,,,,,,,385.5549999992654,,response,,,,100,,,,,,,Space,keypress(Space),,,,,,,,-- --- ---- --- ------ ----- ------- ---- -- --- ------- --<br>------- ---------- ------ -- ----- -- ----- -- ---- ------<br>--- ----- --- --- ------ -------- ----- --- ------ ----- --<br>----- ----- ---------- --- --- ------ became ---- -- ------<br>------- --- ------ ----- --- ---- ------- -- ---- --- --<br>------- ------,186010.40000000037,186009.69999999925,185607.397,185622.09999999963,185624.145,186026.086,,39,became
screen,html.Screen,2_1_1_1_40,2022-02-02T16:13:09.129Z,,,,,,,,,,,,,,,,,54,,,,,,,,,,,,,,368.1139999992447,,response,,,,100,,,,,,,Space,keypress(Space),,,,,,,,-- --- ---- --- ------ ----- ------- ---- -- --- ------- --<br>------- ---------- ------ -- ----- -- ----- -- ---- ------<br>--- ----- --- --- ------ -------- ----- --- ------ ----- --<br>----- ----- ---------- --- --- ------ ------ wary -- ------<br>------- --- ------ ----- --- ---- ------- -- ---- --- --<br>------- ------,186395.09999999963,186394.19999999925,186009.338,186010.69999999925,186026.086,186411.395,,40,wary
screen,html.Screen,2_1_1_1_41,2022-02-02T16:13:09.487Z,,,,,,,,,,,,,,,,,54,,,,,,,,,,,,,,341.6050000000105,,response,,,,100,,,,,,,Space,keypress(Space),,,,,,,,-- --- ---- --- ------ ----- ------- ---- -- --- ------- --<br>------- ---------- ------ -- ----- -- ----- -- ---- ------<br>--- ----- --- --- ------ -------- ----- --- ------ ----- --<br>----- ----- ---------- --- --- ------ ------ ---- of ------<br>------- --- ------ ----- --- ---- ------- -- ---- --- --<br>------- ------,186753.69999999925,186753,186394.646,186395.29999999888,186411.395,186763.089,,41,of
screen,html.Screen,2_1_1_1_42,2022-02-02T16:13:09.843Z,,,,,,,,,,,,,,,,,54,,,,,,,,,,,,,,345.8110000003653,,response,,,,100,,,,,,,Space,keypress(Space),,,,,,,,-- --- ---- --- ------ ----- ------- ---- -- --- ------- --<br>------- ---------- ------ -- ----- -- ----- -- ---- ------<br>--- ----- --- --- ------ -------- ----- --- ------ ----- --<br>----- ----- ---------- --- --- ------ ------ ---- -- French<br>------- --- ------ ----- --- ---- ------- -- ---- --- --<br>------- ------,187109.69999999925,187108.90000000037,186746.341,186753.90000000037,186763.089,187114.823,,42,French
screen,html.Screen,2_1_1_1_43,2022-02-02T16:13:10.208Z,,,,,,,,,,,,,,,,,54,,,,,,,,,,,,,,359.07700000036857,,response,,,,100,,,,,,,Space,keypress(Space),,,,,,,,-- --- ---- --- ------ ----- ------- ---- -- --- ------- --<br>------- ---------- ------ -- ----- -- ----- -- ---- ------<br>--- ----- --- --- ------ -------- ----- --- ------ ----- --<br>----- ----- ---------- --- --- ------ ------ ---- -- ------<br>credit. --- ------ ----- --- ---- ------- -- ---- --- --<br>------- ------,187474.69999999925,187473.90000000037,187098.075,187109.90000000037,187114.823,187483.305,,43,credit.
screen,html.Screen,2_1_1_1_44,2022-02-02T16:13:10.603Z,,,,,,,,,,,,,,,,,54,,,,,,,,,,,,,,385.79499999963446,,response,,,,100,,,,,,,Space,keypress(Space),,,,,,,,-- --- ---- --- ------ ----- ------- ---- -- --- ------- --<br>------- ---------- ------ -- ----- -- ----- -- ---- ------<br>--- ----- --- --- ------ -------- ----- --- ------ ----- --<br>----- ----- ---------- --- --- ------ ------ ---- -- ------<br>------- The ------ ----- --- ---- ------- -- ---- --- --<br>------- ------,187869.79999999888,187869.09999999963,187466.557,187474.90000000037,187483.305,187885.286,,44,The
screen,html.Screen,2_1_1_1_45,2022-02-02T16:13:10.987Z,,,,,,,,,,,,,,,,,54,,,,,,,,,,,,,,367.8139999996347,,response,,,,100,,,,,,,Space,keypress(Space),,,,,,,,-- --- ---- --- ------ ----- ------- ---- -- --- ------- --<br>------- ---------- ------ -- ----- -- ----- -- ---- ------<br>--- ----- --- --- ------ -------- ----- --- ------ ----- --<br>----- ----- ---------- --- --- ------ ------ ---- -- ------<br>------- --- French ----- --- ---- ------- -- ---- --- --<br>------- ------,188253.90000000037,188253.09999999963,187868.538,187870,187885.286,188270.516,,45,French
screen,html.Screen,2_1_1_1_46,2022-02-02T16:13:11.357Z,,,,,,,,,,,,,,,,,54,,,,,,,,,,,,,,351.98399999999674,,response,,,,100,,,,,,,Space,keypress(Space),,,,,,,,-- --- ---- --- ------ ----- ------- ---- -- --- ------- --<br>------- ---------- ------ -- ----- -- ----- -- ---- ------<br>--- ----- --- --- ------ -------- ----- --- ------ ----- --<br>----- ----- ---------- --- --- ------ ------ ---- -- ------<br>------- --- ------ state --- ---- ------- -- ---- --- --<br>------- ------,188623.29999999888,188622.5,188253.768,188254.09999999963,188270.516,188639.002,,46,state
screen,html.Screen,2_1_1_1_47,2022-02-02T16:13:11.738Z,,,,,,,,,,,,,,,,,54,,,,,,,,,,,,,,364.89800000036485,,response,,,,100,,,,,,,Space,keypress(Space),,,,,,,,-- --- ---- --- ------ ----- ------- ---- -- --- ------- --<br>------- ---------- ------ -- ----- -- ----- -- ---- ------<br>--- ----- --- --- ------ -------- ----- --- ------ ----- --<br>----- ----- ---------- --- --- ------ ------ ---- -- ------<br>------- --- ------ ----- was ---- ------- -- ---- --- --<br>------- ------,189004.59999999963,189003.90000000037,188622.254,188623.5,188639.002,189007.482,,47,was
screen,html.Screen,2_1_1_1_48,2022-02-02T16:13:12.138Z,,,,,,,,,,,,,,,,,54,,,,,,,,,,,,,,396.1179999996384,,response,,,,100,,,,,,,Space,keypress(Space),,,,,,,,-- --- ---- --- ------ ----- ------- ---- -- --- ------- --<br>------- ---------- ------ -- ----- -- ----- -- ---- ------<br>--- ----- --- --- ------ -------- ----- --- ------ ----- --<br>----- ----- ---------- --- --- ------ ------ ---- -- ------<br>------- --- ------ ----- --- left ------- -- ---- --- --<br>------- ------,189404.69999999925,189403.59999999963,188990.734,189004.79999999888,189007.482,189409.46,,48,left
screen,html.Screen,2_1_1_1_49,2022-02-02T16:13:12.521Z,,,,,,,,,,,,,,,,,54,,,,,,,,,,,,,,376.83999999889056,,response,,,,100,,,,,,,Space,keypress(Space),,,,,,,,-- --- ---- --- ------ ----- ------- ---- -- --- ------- --<br>------- ---------- ------ -- ----- -- ----- -- ---- ------<br>--- ----- --- --- ------ -------- ----- --- ------ ----- --<br>----- ----- ---------- --- --- ------ ------ ---- -- ------<br>------- --- ------ ----- --- ---- without -- ---- --- --<br>------- ------,189786.90000000037,189786.29999999888,189392.712,189404.90000000037,189409.46,189794.692,,49,without
screen,html.Screen,2_1_1_1_50,2022-02-02T16:13:12.889Z,,,,,,,,,,,,,,,,,54,,,,,,,,,,,,,,359.90799999961746,,response,,,,100,,,,,,,Space,keypress(Space),,,,,,,,-- --- ---- --- ------ ----- ------- ---- -- --- ------- --<br>------- ---------- ------ -- ----- -- ----- -- ---- ------<br>--- ----- --- --- ------ -------- ----- --- ------ ----- --<br>----- ----- ---------- --- --- ------ ------ ---- -- ------<br>------- --- ------ ----- --- ---- ------- an ---- --- --<br>------- ------,190155.40000000037,190154.59999999963,189777.944,189787.19999999925,189794.692,190163.176,,50,an
screen,html.Screen,2_1_1_1_51,2022-02-02T16:13:13.242Z,,,,,,,,,,,,,,,,,54,,,,,,,,,,,,,,344.7240000003658,,response,,,,100,,,,,,,Space,keypress(Space),,,,,,,,-- --- ---- --- ------ ----- ------- ---- -- --- ------- --<br>------- ---------- ------ -- ----- -- ----- -- ---- ------<br>--- ----- --- --- ------ -------- ----- --- ------ ----- --<br>----- ----- ---------- --- --- ------ ------ ---- -- ------<br>------- --- ------ ----- --- ---- ------- -- easy --- --<br>------- ------,190508.69999999925,190507.90000000037,190146.428,190155.59999999963,190163.176,190514.915,,51,easy
screen,html.Screen,2_1_1_1_52,2022-02-02T16:13:13.602Z,,,,,,,,,,,,,,,,,54,,,,,,,,,,,,,,352.88499999887426,,response,,,,100,,,,,,,Space,keypress(Space),,,,,,,,-- --- ---- --- ------ ----- ------- ---- -- --- ------- --<br>------- ---------- ------ -- ----- -- ----- -- ---- ------<br>--- ----- --- --- ------ -------- ----- --- ------ ----- --<br>----- ----- ---------- --- --- ------ ------ ---- -- ------<br>------- --- ------ ----- --- ---- ------- -- ---- way --<br>------- ------,190868.69999999925,190867.79999999888,190498.167,190508.90000000037,190514.915,190883.392,,52,way
screen,html.Screen,2_1_1_1_53,2022-02-02T16:13:13.950Z,,,,,,,,,,,,,,,,,54,,,,,,,,,,,,,,331.90799999888986,,response,,,,100,,,,,,,Space,keypress(Space),,,,,,,,-- --- ---- --- ------ ----- ------- ---- -- --- ------- --<br>------- ---------- ------ -- ----- -- ----- -- ---- ------<br>--- ----- --- --- ------ -------- ----- --- ------ ----- --<br>----- ----- ---------- --- --- ------ ------ ---- -- ------<br>------- --- ------ ----- --- ---- ------- -- ---- --- of<br>------- ------,191216.09999999963,191215.29999999888,190866.644,190868.90000000037,190883.392,191218.34,,53,of
screen,html.Screen,2_1_1_1_54,2022-02-02T16:13:14.319Z,,,,,,,,,,,,,,,,,54,,,,,,,,,,,,,,366.060000000376,,response,,,,100,,,,,,,Space,keypress(Space),,,,,,,,-- --- ---- --- ------ ----- ------- ---- -- --- ------- --<br>------- ---------- ------ -- ----- -- ----- -- ---- ------<br>--- ----- --- --- ------ -------- ----- --- ------ ----- --<br>----- ----- ---------- --- --- ------ ------ ---- -- ------<br>------- --- ------ ----- --- ---- ------- -- ---- --- --<br>raising ------,191585.40000000037,191584.40000000037,191201.592,191216.19999999925,191218.34,191586.894,,54,raising
screen,html.Screen,2_1_1_1_55,2022-02-02T16:13:14.662Z,,,,,,,,,,,,,,,,,54,,,,,,,,,,,,,,340.4059999988822,,response,,,,100,,,,,,,Space,keypress(Space),,,,,,,,-- --- ---- --- ------ ----- ------- ---- -- --- ------- --<br>------- ---------- ------ -- ----- -- ----- -- ---- ------<br>--- ----- --- --- ------ -------- ----- --- ------ ----- --<br>----- ----- ---------- --- --- ------ ------ ---- -- ------<br>------- --- ------ ----- --- ---- ------- -- ---- --- --<br>------- money.,191928.09999999963,191927.29999999888,191570.145,191585.59999999963,191586.894,191938.627,,55,money.
Item 100,flow.Loop,2_1_1_1,2022-02-02T16:13:14.662Z,,,,,,,,,,,,,,,,,,,,,,,,,,,,,,,21142.804999998887,,completion,,,,,D,,,,,,,,,,,silence,,,,,191928.5,191927.29999999888,170767.745,170769.90000000037,170784.495,191938.627,,,
Question 1,html.Screen,2_1_1_2,2022-02-02T16:13:18.815Z,,,,,,,,,,,,,,,,,,,,,,,,,,,,true,TRUE,,4141.273000000365,,response,,,,100,D,,,,,,TRUE,click #choice-1,,,,silence,,,,,196081.59999999963,196079.90000000037,191921.878,191928.69999999925,191938.627,196092.408,,,
Question 2,html.Screen,2_1_1_3,2022-02-02T16:13:21.050Z,,,,,,,,,,,,,,,,,,,,,,,,,,,,true,FALSE,,2222.291999999259,,response,,,,100,D,,,,,,FALSE,click #choice-2,,,,silence,,,,,198316.5,198314.69999999925,196075.659,196081.90000000037,196092.408,198320.663,,,
Item 100,flow.Sequence,2_1_1,2022-02-02T16:13:21.050Z,,,,,,,,,,,,,,,,,,,,,,,,,,,,,,,37529.650999999256,,completion,,,,,,,,,,,,,,,,,,,,,198316.90000000037,198314.69999999925,160768.301,160753.59999999963,160785.049,198320.663,,,
End of Practice,html.Page,2_1_2,2022-02-02T16:13:25.083Z,,,,,,,,,,,,,,,,,,,,,,,,,,,,,,,4028.5369999992545,,form submission,,,,,,,,,,,,,,,,,,,,,202349.90000000037,202349.19999999925,198303.876,198317.09999999963,198320.663,202356.54,,,
Practice,flow.Sequence,2_1,2022-02-02T16:13:25.084Z,,,,,,,,,,,,,,,,,,,,,,,,,,,,,,,84023.15799999925,,completion,,,,,,,,,,,,,,,,,,,,,202350.29999999888,202349.19999999925,118309.291,118316.40000000037,118326.042,202356.54,,,
Trap_instruction,html.Page,2_2_0,2022-02-02T16:13:28.436Z,,,,,,,,,,,,,,,,,,,,,,,,,,,,,,,3345.3600000003644,,form submission,,,,,,,,,,,,,,,,,,,,,205702.59999999963,205701.90000000037,202339.792,202350.59999999963,202356.54,205722.954,,,
trap_trial,html.Screen,2_2_1,2022-02-02T16:13:31.434Z,,,,,,,,,,,,,,,,,,,,,,,,,,,,true,1,,2976.6459999996296,,response,,,,,,,,,,,1,click #choice-1,,,,,,,,,208700.90000000037,208699.59999999963,205689.458,205702.69999999925,205722.954,208712.486,,,
end of trap trial,html.Page,2_2_2,2022-02-02T16:13:33.670Z,,,,,,,,,,,,,,,,,,,,,,,,,,,,,,,2223.414000000368,,form submission,,,,,,,,,,,,,,,,,,,,,210936.40000000037,210935.90000000037,208695.689,208701.29999999888,208712.486,210948.976,,,
Trap 1,flow.Sequence,2_2,2022-02-02T16:13:33.671Z,,,,,,,,,,,,,,,,,,,,,,,,,,,,,,,8579.360000000364,,completion,,,,,,,,,,,,,,,,,,,,,210937,210935.90000000037,202339.792,202350.40000000037,202356.54,210948.976,,,
Standby,html.Page,2_3_0,2022-02-02T16:13:41.672Z,,,,,,,,,,,,,,,,,,,,,,,,,,,,,,,8005.451000000001,,timeout,,,,,,,,,,,,,,,,,,,,,218938.40000000037,218937.679,210932.227,210937.19999999925,210948.976,218954.427,,,
Holding screen,html.Screen,2_3_1_0_0,2022-02-02T16:13:48.675Z,,,,,,,,,,,,,,,,,,,,,,,,,,,,,,,7001.725999999995,,timeout,,,,,,,,,,,,,,,,,,,,,225940.79999999888,225939.405,218937.679,218938.79999999888,218954.427,225956.153,,,
screen,html.Screen,2_3_1_0_1_0,2022-02-02T16:13:49.462Z,,,,,,,,,,,,,,,,,2,,,,,,,,,,,,,,770.9469999996363,,response,,,,1,D,,,,,,Space,keypress(Space),,,,silence,,,,Two ---- ------ --- ------- ---------- ------- ----------<br>--- --------- --- ----------- ------- ----- ------- ---<br>--------- ---- -- --- ---- -- --------- -- ---- -------<br>-- --------- ------ --- ----- ------ ---- --- --------- --<br>------ - ---- -- --- ----------- ------- ---- ----- -----<br>--- -------- - ------ ---- -- ----- ---- --- --- -----------<br>-- -------,226728.19999999925,226727.09999999963,225939.405,225941.09999999963,225956.153,226743.384,,0,Two
screen,html.Screen,2_3_1_0_1_1,2022-02-02T16:13:49.869Z,,,,,,,,,,,,,,,,,2,,,,,,,,,,,,,,390.4159999988915,,response,,,,1,D,,,,,,Space,keypress(Space),,,,silence,,,,--- days ------ --- ------- ---------- ------- ----------<br>--- --------- --- ----------- ------- ----- ------- ---<br>--------- ---- -- --- ---- -- --------- -- ---- -------<br>-- --------- ------ --- ----- ------ ---- --- --------- --<br>------ - ---- -- --- ----------- ------- ---- ----- -----<br>--- -------- - ------ ---- -- ----- ---- --- --- -----------<br>-- -------,227134.59999999963,227133.79999999888,226726.636,226728.5,226743.384,227145.374,,1,days
screen,html.Screen,2_3_1_0_1_2,2022-02-02T16:13:50.240Z,,,,,,,,,,,,,,,,,2,,,,,,,,,,,,,,360.0260000003618,,response,,,,1,D,,,,,,Space,keypress(Space),,,,silence,,,,"--- ---- later, --- ------- ---------- ------- ----------<br>--- --------- --- ----------- ------- ----- ------- ---<br>--------- ---- -- --- ---- -- --------- -- ---- -------<br>-- --------- ------ --- ----- ------ ---- --- --------- --<br>------ - ---- -- --- ----------- ------- ---- ----- -----<br>--- -------- - ------ ---- -- ----- ---- --- --- -----------<br>-- -------",227506.19999999925,227505.40000000037,227128.626,227134.79999999888,227145.374,227513.884,,2,"later,"
screen,html.Screen,2_3_1_0_1_3,2022-02-02T16:13:50.604Z,,,,,,,,,,,,,,,,,2,,,,,,,,,,,,,,355.9159999988915,,response,,,,1,D,,,,,,Space,keypress(Space),,,,silence,,,,--- ---- ------ the ------- ---------- ------- ----------<br>--- --------- --- ----------- ------- ----- ------- ---<br>--------- ---- -- --- ---- -- --------- -- ---- -------<br>-- --------- ------ --- ----- ------ ---- --- --------- --<br>------ - ---- -- --- ----------- ------- ---- ----- -----<br>--- -------- - ------ ---- -- ----- ---- --- --- -----------<br>-- -------,227870.5,227869.79999999888,227497.136,227506.40000000037,227513.884,227882.369,,3,the
screen,html.Screen,2_3_1_0_1_4,2022-02-02T16:13:50.983Z,,,,,,,,,,,,,,,,,2,,,,,,,,,,,,,,365.2309999996214,,response,,,,1,D,,,,,,Space,keypress(Space),,,,silence,,,,--- ---- ------ --- British ---------- ------- ----------<br>--- --------- --- ----------- ------- ----- ------- ---<br>--------- ---- -- --- ---- -- --------- -- ---- -------<br>-- --------- ------ --- ----- ------ ---- --- --------- --<br>------ - ---- -- --- ----------- ------- ---- ----- -----<br>--- -------- - ------ ---- -- ----- ---- --- --- -----------<br>-- -------,228248.5,228247.59999999963,227865.621,227870.69999999925,227882.369,228250.783,,4,British
screen,html.Screen,2_3_1_0_1_5,2022-02-02T16:13:51.338Z,,,,,,,,,,,,,,,,,2,,,,,,,,,,,,,,352.0169999988866,,response,,,,1,D,,,,,,Space,keypress(Space),,,,silence,,,,--- ---- ------ --- ------- astronomer ------- ----------<br>--- --------- --- ----------- ------- ----- ------- ---<br>--------- ---- -- --- ---- -- --------- -- ---- -------<br>-- --------- ------ --- ----- ------ ---- --- --------- --<br>------ - ---- -- --- ----------- ------- ---- ----- -----<br>--- -------- - ------ ---- -- ----- ---- --- --- -----------<br>-- -------,228603.5,228602.79999999888,228234.036,228248.79999999888,228250.783,228619.403,,5,astronomer
screen,html.Screen,2_3_1_0_1_6,2022-02-02T16:13:51.738Z,,,,,,,,,,,,,,,,,2,,,,,,,,,,,,,,383.89699999889126,,response,,,,1,D,,,,,,Space,keypress(Space),,,,silence,,,,--- ---- ------ --- ------- ---------- Richard ----------<br>--- --------- --- ----------- ------- ----- ------- ---<br>--------- ---- -- --- ---- -- --------- -- ---- -------<br>-- --------- ------ --- ----- ------ ---- --- --------- --<br>------ - ---- -- --- ----------- ------- ---- ----- -----<br>--- -------- - ------ ---- -- ----- ---- --- --- -----------<br>-- -------,229004,229003.29999999888,228602.653,228603.79999999888,228619.403,229021.35,,6,Richard
screen,html.Screen,2_3_1_0_1_7,2022-02-02T16:13:52.148Z,,,,,,,,,,,,,,,,,2,,,,,,,,,,,,,,391.24999999962165,,response,,,,1,D,,,,,,Space,keypress(Space),,,,silence,,,,--- ---- ------ --- ------- ---------- ------- Carrington<br>--- --------- --- ----------- ------- ----- ------- ---<br>--------- ---- -- --- ---- -- --------- -- ---- -------<br>-- --------- ------ --- ----- ------ ---- --- --------- --<br>------ - ---- -- --- ----------- ------- ---- ----- -----<br>--- -------- - ------ ---- -- ----- ---- --- --- -----------<br>-- -------,229413.59999999963,229412.59999999963,229004.601,229004.29999999888,229021.35,229423.281,,7,Carrington
screen,html.Screen,2_3_1_0_1_8,2022-02-02T16:13:52.617Z,,,,,,,,,,,,,,,,,2,,,,,,,,,,,,,,458.81899999963935,,response,,,,1,D,,,,,,Space,keypress(Space),,,,silence,,,,--- ---- ------ --- ------- ---------- ------- ----------<br>was --------- --- ----------- ------- ----- ------- ---<br>--------- ---- -- --- ---- -- --------- -- ---- -------<br>-- --------- ------ --- ----- ------ ---- --- --------- --<br>------ - ---- -- --- ----------- ------- ---- ----- -----<br>--- -------- - ------ ---- -- ----- ---- --- --- -----------<br>-- -------,229882.90000000037,229882.09999999963,229406.533,229413.90000000037,229423.281,229892.264,,8,was
screen,html.Screen,2_3_1_0_1_9,2022-02-02T16:13:53.060Z,,,,,,,,,,,,,,,,,2,,,,,,,,,,,,,,432.7360000000044,,response,,,,1,D,,,,,,Space,keypress(Space),,,,silence,,,,--- ---- ------ --- ------- ---------- ------- ----------<br>--- observing --- ----------- ------- ----- ------- ---<br>--------- ---- -- --- ---- -- --------- -- ---- -------<br>-- --------- ------ --- ----- ------ ---- --- --------- --<br>------ - ---- -- --- ----------- ------- ---- ----- -----<br>--- -------- - ------ ---- -- ----- ---- --- --- -----------<br>-- -------,230325.79999999888,230325,229875.516,229883,229892.264,230327.745,,9,observing
screen,html.Screen,2_3_1_0_1_10,2022-02-02T16:13:53.448Z,,,,,,,,,,,,,,,,,2,,,,,,,,,,,,,,385.75500000000466,,response,,,,1,D,,,,,,Space,keypress(Space),,,,silence,,,,--- ---- ------ --- ------- ---------- ------- ----------<br>--- --------- the ----------- ------- ----- ------- ---<br>--------- ---- -- --- ---- -- --------- -- ---- -------<br>-- --------- ------ --- ----- ------ ---- --- --------- --<br>------ - ---- -- --- ----------- ------- ---- ----- -----<br>--- -------- - ------ ---- -- ----- ---- --- --- -----------<br>-- -------,230714.29999999888,230713.5,230310.997,230325.90000000037,230327.745,230729.732,,10,the
screen,html.Screen,2_3_1_0_1_11,2022-02-02T16:13:53.860Z,,,,,,,,,,,,,,,,,2,,,,,,,,,,,,,,395.9679999992659,,response,,,,1,D,,,,,,Space,keypress(Space),,,,silence,,,,--- ---- ------ --- ------- ---------- ------- ----------<br>--- --------- --- interesting ------- ----- ------- ---<br>--------- ---- -- --- ---- -- --------- -- ---- -------<br>-- --------- ------ --- ----- ------ ---- --- --------- --<br>------ - ---- -- --- ----------- ------- ---- ----- -----<br>--- -------- - ------ ---- -- ----- ---- --- --- -----------<br>-- -------,231126.5,231125.69999999925,230712.984,230714.5,230729.732,231131.71,,11,interesting
screen,html.Screen,2_3_1_0_1_12,2022-02-02T16:13:54.262Z,,,,,,,,,,,,,,,,,2,,,,,,,,,,,,,,394.79000000000815,,response,,,,1,D,,,,,,Space,keypress(Space),,,,silence,,,,--- ---- ------ --- ------- ---------- ------- ----------<br>--- --------- --- ----------- sunspot ----- ------- ---<br>--------- ---- -- --- ---- -- --------- -- ---- -------<br>-- --------- ------ --- ----- ------ ---- --- --------- --<br>------ - ---- -- --- ----------- ------- ---- ----- -----<br>--- -------- - ------ ---- -- ----- ---- --- --- -----------<br>-- -------,231527.59999999963,231526.5,231114.962,231126.69999999925,231131.71,231533.692,,12,sunspot
screen,html.Screen,2_3_1_0_1_13,2022-02-02T16:13:54.657Z,,,,,,,,,,,,,,,,,2,,,,,,,,,,,,,,388.7080000003625,,response,,,,1,D,,,,,,Space,keypress(Space),,,,silence,,,,--- ---- ------ --- ------- ---------- ------- ----------<br>--- --------- --- ----------- ------- group ------- ---<br>--------- ---- -- --- ---- -- --------- -- ---- -------<br>-- --------- ------ --- ----- ------ ---- --- --------- --<br>------ - ---- -- --- ----------- ------- ---- ----- -----<br>--- -------- - ------ ---- -- ----- ---- --- --- -----------<br>-- -------,231923.09999999963,231922.40000000037,231516.944,231527.69999999925,231533.692,231935.671,,13,group
screen,html.Screen,2_3_1_0_1_14,2022-02-02T16:13:55.032Z,,,,,,,,,,,,,,,,,2,,,,,,,,,,,,,,361.02899999925285,,response,,,,1,D,,,,,,Space,keypress(Space),,,,silence,,,,--- ---- ------ --- ------- ---------- ------- ----------<br>--- --------- --- ----------- ------- ----- through ---<br>--------- ---- -- --- ---- -- --------- -- ---- -------<br>-- --------- ------ --- ----- ------ ---- --- --------- --<br>------ - ---- -- --- ----------- ------- ---- ----- -----<br>--- -------- - ------ ---- -- ----- ---- --- --- -----------<br>-- -------,232297.69999999925,232296.69999999925,231918.923,231923.40000000037,231935.671,232304.156,,14,through
screen,html.Screen,2_3_1_0_1_15,2022-02-02T16:13:55.392Z,,,,,,,,,,,,,,,,,2,,,,,,,,,,,,,,353.2440000003844,,response,,,,1,D,,,,,,Space,keypress(Space),,,,silence,,,,--- ---- ------ --- ------- ---------- ------- ----------<br>--- --------- --- ----------- ------- ----- ------- his<br>--------- ---- -- --- ---- -- --------- -- ---- -------<br>-- --------- ------ --- ----- ------ ---- --- --------- --<br>------ - ---- -- --- ----------- ------- ---- ----- -----<br>--- -------- - ------ ---- -- ----- ---- --- --- -----------<br>-- -------,232658.19999999925,232657.40000000037,232287.408,232297.90000000037,232304.156,232672.642,,15,his
screen,html.Screen,2_3_1_0_1_16,2022-02-02T16:13:55.738Z,,,,,,,,,,,,,,,,,2,,,,,,,,,,,,,,330.0579999992624,,response,,,,1,D,,,,,,Space,keypress(Space),,,,silence,,,,--- ---- ------ --- ------- ---------- ------- ----------<br>--- --------- --- ----------- ------- ----- ------- ---<br>telescope ---- -- --- ---- -- --------- -- ---- -------<br>-- --------- ------ --- ----- ------ ---- --- --------- --<br>------ - ---- -- --- ----------- ------- ---- ----- -----<br>--- -------- - ------ ---- -- ----- ---- --- --- -----------<br>-- -------,233003.59999999963,233002.69999999925,232655.894,232658.40000000037,232672.642,233007.558,,16,telescope
screen,html.Screen,2_3_1_0_1_17,2022-02-02T16:13:56.065Z,,,,,,,,,,,,,,,,,2,,,,,,,,,,,,,,322.64199999926495,,response,,,,1,D,,,,,,Space,keypress(Space),,,,silence,,,,--- ---- ------ --- ------- ---------- ------- ----------<br>--- --------- --- ----------- ------- ----- ------- ---<br>--------- when -- --- ---- -- --------- -- ---- -------<br>-- --------- ------ --- ----- ------ ---- --- --------- --<br>------ - ---- -- --- ----------- ------- ---- ----- -----<br>--- -------- - ------ ---- -- ----- ---- --- --- -----------<br>-- -------,233331,233330.19999999925,232990.811,233003.79999999888,233007.558,233342.675,,17,when
screen,html.Screen,2_3_1_0_1_18,2022-02-02T16:13:56.409Z,,,,,,,,,,,,,,,,,2,,,,,,,,,,,,,,331.0249999992666,,response,,,,1,D,,,,,,Space,keypress(Space),,,,silence,,,,--- ---- ------ --- ------- ---------- ------- ----------<br>--- --------- --- ----------- ------- ----- ------- ---<br>--------- ---- he --- ---- -- --------- -- ---- -------<br>-- --------- ------ --- ----- ------ ---- --- --------- --<br>------ - ---- -- --- ----------- ------- ---- ----- -----<br>--- -------- - ------ ---- -- ----- ---- --- --- -----------<br>-- -------,233674.5,233673.69999999925,233325.925,233331.19999999925,233342.675,233677.593,,18,he
screen,html.Screen,2_3_1_0_1_19,2022-02-02T16:13:56.734Z,,,,,,,,,,,,,,,,,2,,,,,,,,,,,,,,321.9070000000065,,response,,,,1,D,,,,,,Space,keypress(Space),,,,silence,,,,--- ---- ------ --- ------- ---------- ------- ----------<br>--- --------- --- ----------- ------- ----- ------- ---<br>--------- ---- -- saw ---- -- --------- -- ---- -------<br>-- --------- ------ --- ----- ------ ---- --- --------- --<br>------ - ---- -- --- ----------- ------- ---- ----- -----<br>--- -------- - ------ ---- -- ----- ---- --- --- -----------<br>-- -------,234000.29999999888,233999.5,233660.845,233674.69999999925,233677.593,234012.577,,19,saw
screen,html.Screen,2_3_1_0_1_20,2022-02-02T16:13:57.073Z,,,,,,,,,,,,,,,,,2,,,,,,,,,,,,,,325.3230000003823,,response,,,,1,D,,,,,,Space,keypress(Space),,,,silence,,,,--- ---- ------ --- ------- ---------- ------- ----------<br>--- --------- --- ----------- ------- ----- ------- ---<br>--------- ---- -- --- what -- --------- -- ---- -------<br>-- --------- ------ --- ----- ------ ---- --- --------- --<br>------ - ---- -- --- ----------- ------- ---- ----- -----<br>--- -------- - ------ ---- -- ----- ---- --- --- -----------<br>-- -------,234338.79999999888,234337.90000000037,233995.829,234000.40000000037,234012.577,234347.56,,20,what
screen,html.Screen,2_3_1_0_1_21,2022-02-02T16:13:57.425Z,,,,,,,,,,,,,,,,,2,,,,,,,,,,,,,,342.4400000000023,,response,,,,1,D,,,,,,Space,keypress(Space),,,,silence,,,,--- ---- ------ --- ------- ---------- ------- ----------<br>--- --------- --- ----------- ------- ----- ------- ---<br>--------- ---- -- --- ---- he --------- -- ---- -------<br>-- --------- ------ --- ----- ------ ---- --- --------- --<br>------ - ---- -- --- ----------- ------- ---- ----- -----<br>--- -------- - ------ ---- -- ----- ---- --- --- -----------<br>-- -------,234690.79999999888,234690,234330.812,234338.90000000037,234347.56,234699.324,,21,he
screen,html.Screen,2_3_1_0_1_22,2022-02-02T16:13:57.757Z,,,,,,,,,,,,,,,,,2,,,,,,,,,,,,,,322.97599999888916,,response,,,,1,D,,,,,,Space,keypress(Space),,,,silence,,,,--- ---- ------ --- ------- ---------- ------- ----------<br>--- --------- --- ----------- ------- ----- ------- ---<br>--------- ---- -- --- ---- -- described -- ---- -------<br>-- --------- ------ --- ----- ------ ---- --- --------- --<br>------ - ---- -- --- ----------- ------- ---- ----- -----<br>--- -------- - ------ ---- -- ----- ---- --- --- -----------<br>-- -------,235023,235022.29999999888,234682.575,234690.90000000037,234699.324,235034.278,,22,described
screen,html.Screen,2_3_1_0_1_23,2022-02-02T16:13:58.093Z,,,,,,,,,,,,,,,,,2,,,,,,,,,,,,,,323.72200000000885,,response,,,,1,D,,,,,,Space,keypress(Space),,,,silence,,,,--- ---- ------ --- ------- ---------- ------- ----------<br>--- --------- --- ----------- ------- ----- ------- ---<br>--------- ---- -- --- ---- -- --------- as ---- -------<br>-- --------- ------ --- ----- ------ ---- --- --------- --<br>------ - ---- -- --- ----------- ------- ---- ----- -----<br>--- -------- - ------ ---- -- ----- ---- --- --- -----------<br>-- -------,235358.69999999925,235358,235017.53,235023.19999999925,235034.278,235369.262,,23,as
screen,html.Screen,2_3_1_0_1_24,2022-02-02T16:13:58.435Z,,,,,,,,,,,,,,,,,2,,,,,,,,,,,,,,330.63800000038464,,response,,,,1,D,,,,,,Space,keypress(Space),,,,silence,,,,"--- ---- ------ --- ------- ---------- ------- ----------<br>--- --------- --- ----------- ------- ----- ------- ---<br>--------- ---- -- --- ---- -- --------- -- ""two -------<br>-- --------- ------ --- ----- ------ ---- --- --------- --<br>------ - ---- -- --- ----------- ------- ---- ----- -----<br>--- -------- - ------ ---- -- ----- ---- --- --- -----------<br>-- -------",235700.69999999925,235699.90000000037,235352.514,235358.90000000037,235369.262,235704.247,,24,"""two"
screen,html.Screen,2_3_1_0_1_25,2022-02-02T16:13:58.781Z,,,,,,,,,,,,,,,,,2,,,,,,,,,,,,,,342.35299999962444,,response,,,,1,D,,,,,,Space,keypress(Space),,,,silence,,,,--- ---- ------ --- ------- ---------- ------- ----------<br>--- --------- --- ----------- ------- ----- ------- ---<br>--------- ---- -- --- ---- -- --------- -- ---- patches<br>-- --------- ------ --- ----- ------ ---- --- --------- --<br>------ - ---- -- --- ----------- ------- ---- ----- -----<br>--- -------- - ------ ---- -- ----- ---- --- --- -----------<br>-- -------,236047.40000000037,236046.59999999963,235687.499,235701,235704.247,236055.978,,25,patches
screen,html.Screen,2_3_1_0_1_26,2022-02-02T16:13:59.145Z,,,,,,,,,,,,,,,,,2,,,,,,,,,,,,,,354.0219999999972,,response,,,,1,D,,,,,,Space,keypress(Space),,,,silence,,,,--- ---- ------ --- ------- ---------- ------- ----------<br>--- --------- --- ----------- ------- ----- ------- ---<br>--------- ---- -- --- ---- -- --------- -- ---- -------<br>of --------- ------ --- ----- ------ ---- --- --------- --<br>------ - ---- -- --- ----------- ------- ---- ----- -----<br>--- -------- - ------ ---- -- ----- ---- --- --- -----------<br>-- -------,236410.69999999925,236410,236039.23,236047.59999999963,236055.978,236424.321,,26,of
screen,html.Screen,2_3_1_0_1_27,2022-02-02T16:13:59.486Z,,,,,,,,,,,,,,,,,2,,,,,,,,,,,,,,326.57900000037625,,response,,,,1,D,,,,,,Space,keypress(Space),,,,silence,,,,--- ---- ------ --- ------- ---------- ------- ----------<br>--- --------- --- ----------- ------- ----- ------- ---<br>--------- ---- -- --- ---- -- --------- -- ---- -------<br>-- intensely ------ --- ----- ------ ---- --- --------- --<br>------ - ---- -- --- ----------- ------- ---- ----- -----<br>--- -------- - ------ ---- -- ----- ---- --- --- -----------<br>-- -------,236751.69999999925,236750.90000000037,236407.575,236411,236424.321,236759.545,,27,intensely
screen,html.Screen,2_3_1_0_1_28,2022-02-02T16:13:59.869Z,,,,,,,,,,,,,,,,,2,,,,,,,,,,,,,,374.7549999988696,,response,,,,1,D,,,,,,Space,keypress(Space),,,,silence,,,,--- ---- ------ --- ------- ---------- ------- ----------<br>--- --------- --- ----------- ------- ----- ------- ---<br>--------- ---- -- --- ---- -- --------- -- ---- -------<br>-- --------- bright --- ----- ------ ---- --- --------- --<br>------ - ---- -- --- ----------- ------- ---- ----- -----<br>--- -------- - ------ ---- -- ----- ---- --- --- -----------<br>-- -------,237135,237134.29999999888,236742.794,236751.90000000037,236759.545,237144.674,,28,bright
screen,html.Screen,2_3_1_0_1_29,2022-02-02T16:14:00.267Z,,,,,,,,,,,,,,,,,2,,,,,,,,,,,,,,387.5259999992559,,response,,,,1,D,,,,,,Space,keypress(Space),,,,silence,,,,--- ---- ------ --- ------- ---------- ------- ----------<br>--- --------- --- ----------- ------- ----- ------- ---<br>--------- ---- -- --- ---- -- --------- -- ---- -------<br>-- --------- ------ and ----- ------ ---- --- --------- --<br>------ - ---- -- --- ----------- ------- ---- ----- -----<br>--- -------- - ------ ---- -- ----- ---- --- --- -----------<br>-- -------,237532.90000000037,237532.19999999925,237127.926,237135.19999999925,237144.674,237546.653,,29,and
screen,html.Screen,2_3_1_0_1_30,2022-02-02T16:14:00.620Z,,,,,,,,,,,,,,,,,2,,,,,,,,,,,,,,337.14699999889126,,response,,,,1,D,,,,,,Space,keypress(Space),,,,silence,,,,--- ---- ------ --- ------- ---------- ------- ----------<br>--- --------- --- ----------- ------- ----- ------- ---<br>--------- ---- -- --- ---- -- --------- -- ---- -------<br>-- --------- ------ --- white ------ ---- --- --------- --<br>------ - ---- -- --- ----------- ------- ---- ----- -----<br>--- -------- - ------ ---- -- ----- ---- --- --- -----------<br>-- -------,237886.09999999963,237883.79999999888,237529.905,237533.19999999925,237546.653,237898.389,,30,white
screen,html.Screen,2_3_1_0_1_31,2022-02-02T16:14:00.970Z,,,,,,,,,,,,,,,,,2,,,,,,,,,,,,,,337.2109999996319,,response,,,,1,D,,,,,,Space,keypress(Space),,,,silence,,,,"--- ---- ------ --- ------- ---------- ------- ----------<br>--- --------- --- ----------- ------- ----- ------- ---<br>--------- ---- -- --- ---- -- --------- -- ---- -------<br>-- --------- ------ --- ----- light"" ---- --- --------- --<br>------ - ---- -- --- ----------- ------- ---- ----- -----<br>--- -------- - ------ ---- -- ----- ---- --- --- -----------<br>-- -------",238236.40000000037,238235.59999999963,237881.641,237886.29999999888,237898.389,238250.123,,31,"light"""
screen,html.Screen,2_3_1_0_1_32,2022-02-02T16:14:01.317Z,,,,,,,,,,,,,,,,,2,,,,,,,,,,,,,,331.7770000003802,,response,,,,1,D,,,,,,Space,keypress(Space),,,,silence,,,,--- ---- ------ --- ------- ---------- ------- ----------<br>--- --------- --- ----------- ------- ----- ------- ---<br>--------- ---- -- --- ---- -- --------- -- ---- -------<br>-- --------- ------ --- ----- ------ over --- --------- --<br>------ - ---- -- --- ----------- ------- ---- ----- -----<br>--- -------- - ------ ---- -- ----- ---- --- --- -----------<br>-- -------,238582.59999999963,238581.90000000037,238233.375,238236.59999999963,238250.123,238585.108,,32,over
screen,html.Screen,2_3_1_0_1_33,2022-02-02T16:14:01.666Z,,,,,,,,,,,,,,,,,2,,,,,,,,,,,,,,346.2920000003651,,response,,,,1,D,,,,,,Space,keypress(Space),,,,silence,,,,--- ---- ------ --- ------- ---------- ------- ----------<br>--- --------- --- ----------- ------- ----- ------- ---<br>--------- ---- -- --- ---- -- --------- -- ---- -------<br>-- --------- ------ --- ----- ------ ---- the --------- --<br>------ - ---- -- --- ----------- ------- ---- ----- -----<br>--- -------- - ------ ---- -- ----- ---- --- --- -----------<br>-- -------,238932.29999999888,238931.40000000037,238568.36,238582.79999999888,238585.108,238936.872,,33,the
screen,html.Screen,2_3_1_0_1_34,2022-02-02T16:14:02.021Z,,,,,,,,,,,,,,,,,2,,,,,,,,,,,,,,349.4279999988794,,response,,,,1,D,,,,,,Space,keypress(Space),,,,silence,,,,--- ---- ------ --- ------- ---------- ------- ----------<br>--- --------- --- ----------- ------- ----- ------- ---<br>--------- ---- -- --- ---- -- --------- -- ---- -------<br>-- --------- ------ --- ----- ------ ---- --- sunspots. --<br>------ - ---- -- --- ----------- ------- ---- ----- -----<br>--- -------- - ------ ---- -- ----- ---- --- --- -----------<br>-- -------,239287,239286.29999999888,238920.123,238932.5,238936.872,239288.565,,34,sunspots.
screen,html.Screen,2_3_1_0_1_35,2022-02-02T16:14:02.353Z,,,,,,,,,,,,,,,,,2,,,,,,,,,,,,,,330.03499999962514,,response,,,,1,D,,,,,,Space,keypress(Space),,,,silence,,,,--- ---- ------ --- ------- ---------- ------- ----------<br>--- --------- --- ----------- ------- ----- ------- ---<br>--------- ---- -- --- ---- -- --------- -- ---- -------<br>-- --------- ------ --- ----- ------ ---- --- --------- He<br>------ - ---- -- --- ----------- ------- ---- ----- -----<br>--- -------- - ------ ---- -- ----- ---- --- --- -----------<br>-- -------,239619.40000000037,239618.59999999963,239271.817,239287.19999999925,239288.565,239623.558,,35,He
screen,html.Screen,2_3_1_0_1_36,2022-02-02T16:14:02.692Z,,,,,,,,,,,,,,,,,2,,,,,,,,,,,,,,333.7419999988924,,response,,,,1,D,,,,,,Space,keypress(Space),,,,silence,,,,--- ---- ------ --- ------- ---------- ------- ----------<br>--- --------- --- ----------- ------- ----- ------- ---<br>--------- ---- -- --- ---- -- --------- -- ---- -------<br>-- --------- ------ --- ----- ------ ---- --- --------- --<br>jotted - ---- -- --- ----------- ------- ---- ----- -----<br>--- -------- - ------ ---- -- ----- ---- --- --- -----------<br>-- -------,239958,239957.29999999888,239606.81,239619.59999999963,239623.558,239975.104,,36,jotted
screen,html.Screen,2_3_1_0_1_37,2022-02-02T16:14:03.027Z,,,,,,,,,,,,,,,,,2,,,,,,,,,,,,,,316.8960000000079,,response,,,,1,D,,,,,,Space,keypress(Space),,,,silence,,,,--- ---- ------ --- ------- ---------- ------- ----------<br>--- --------- --- ----------- ------- ----- ------- ---<br>--------- ---- -- --- ---- -- --------- -- ---- -------<br>-- --------- ------ --- ----- ------ ---- --- --------- --<br>------ a ---- -- --- ----------- ------- ---- ----- -----<br>--- -------- - ------ ---- -- ----- ---- --- --- -----------<br>-- -------,240292.79999999888,240292,239958.359,239958.29999999888,239975.104,240293.672,,37,a
screen,html.Screen,2_3_1_0_1_38,2022-02-02T16:14:03.380Z,,,,,,,,,,,,,,,,,2,,,,,,,,,,,,,,351.127999998891,,response,,,,1,D,,,,,,Space,keypress(Space),,,,silence,,,,--- ---- ------ --- ------- ---------- ------- ----------<br>--- --------- --- ----------- ------- ----- ------- ---<br>--------- ---- -- --- ---- -- --------- -- ---- -------<br>-- --------- ------ --- ----- ------ ---- --- --------- --<br>------ - note -- --- ----------- ------- ---- ----- -----<br>--- -------- - ------ ---- -- ----- ---- --- --- -----------<br>-- -------,240645.69999999925,240644.79999999888,240276.92,240293,240293.672,240661.938,,38,note
