sender,sender_type,sender_id,timestamp,meta,,Blues,Classical,Country,Dance,Electronic,Folk,Gospel,Hip-Hop,Jazz,Latin,Musical/Film,New-age,Pop,Prolific_id,Provo_ID,R&B,Rap,Reggae,Religious,Rock,Soul,Swing,Traditional,age,artist_name,correct,correctResponse,distraction,duration,education,ended_on,familiarity,gender,headphone_check_performance,item,list,music_frequency,offensiveness,pleasantness,position_correct,preference,response,response_action,snippet_file,song_name,song_rating,sound,stimulus_1,stimulus_2,stimulus_3,text,time_commit,time_end,time_render,time_run,time_show,time_switch,url,word,word_ID
Prolific ID,html.Form,0,2022-02-02T14:42:36.283Z,"{""labjs_version"":""20.2.2"",""labjs_build"":{""flavor"":""production"",""commit"":""a25486e0c714a0ae2ce03ff94b7bb6896854dcfa""},""location"":""https://run.pavlovia.org/mvasilev/prolific2_music_c/"",""userAgent"":""Mozilla/5.0 (Windows NT 10.0; Win64; x64; rv:96.0) Gecko/20100101 Firefox/96.0"",""platform"":""Win32"",""language"":""en-GB"",""locale"":""en-GB"",""timeZone"":""Europe/London"",""timezoneOffset"":0,""screen_width"":2560,""screen_height"":1440,""scroll_width"":2560,""scroll_height"":1258,""window_innerWidth"":2560,""window_innerHeight"":1306,""devicePixelRatio"":1}",,,,,,,,,,,,,,,5fc4c0f61de4be951356ef9b,,,,,,,,,,,,,,,20117.52,,form submission,,,,,,,,,,,,,,,,,,,,,51538,51537,31403.36,31403,31419.48,51537.52,{},,
Introduction,html.Screen,1_0,2022-02-02T14:42:41.562Z,,,,,,,,,,,,,,,,,,,,,,,,,,,,,,,5273.480000000003,,response,,,,,,,,,,,continue,click button,,,,,,,,,56816,56811,51533.18,51539,51537.52,56820.94,,,
Volume calibration,html.Screen,1_1,2022-02-02T14:42:52.560Z,,,,,,,,,,,,,,,,,,,,,,,,,,,,,,,10990.059999999998,,response,,,,,,,,,,,continue,click button,,,,,,,,,67816,67811,56815.98,56816,56820.94,67821.12,,,
Task instructions,html.Screen,1_2,2022-02-02T14:43:01.843Z,,,,,,,,,,,,,,,,,,,,,,,,,,,,,,,9271.880000000005,,response,,,,,,,,,,,continue,click button,,,,,,,,,77098,77093,67815.18,67816,67821.12,77104.62,,,
Sounds,html.Screen,1_3_0_0,2022-02-02T14:43:06.093Z,,,,,,,,,,,,,,,,,,,,,,,,,,,,,,,4250.059999999998,,timeout,,,,,,,,,1,,,,,,,,S,I,O,,81349,81346.36,77096.92,77099,77104.62,81354.68,,,
Judgement,html.Screen,1_3_0_1,2022-02-02T14:43:06.783Z,,,,,,,,,,,,,,,,,,,,,,,,,,,,true,1,,675.320000000007,,response,,,,,,,,,1,,1,click #choice-1,,,,,S,I,O,,82037,82030,81346.36,81349,81354.68,82038.04,,,
Trial,flow.Sequence,1_3_0,2022-02-02T14:43:06.784Z,,,,,,,,,,,,,,,,,,,,,,,,,,,,,,,4925.380000000005,,completion,,,,,,,,,1,,,,,,,,S,I,O,,82038,82030,77096.92,77099,77104.62,82038.04,,,
Sounds,html.Screen,1_3_1_0,2022-02-02T14:43:11.027Z,,,,,,,,,,,,,,,,,,,,,,,,,,,,,,,4250.060000000012,,timeout,,,,,,,,,1,,,,,,,,S,O,I,,86282,86279.78,82037.12,82039,82038.04,86288.1,,,
Judgement,html.Screen,1_3_1_1,2022-02-02T14:43:11.438Z,,,,,,,,,,,,,,,,,,,,,,,,,,,,true,1,,397.8999999999942,,response,,,,,,,,,1,,1,click #choice-1,,,,,S,O,I,,86694,86686,86279.78,86282,86288.1,86696.44,,,
Trial,flow.Sequence,1_3_1,2022-02-02T14:43:11.439Z,,,,,,,,,,,,,,,,,,,,,,,,,,,,,,,4647.960000000006,,completion,,,,,,,,,1,,,,,,,,S,O,I,,86694,86686,82037.12,82039,82038.04,86696.44,,,
Sounds,html.Screen,1_3_2_0,2022-02-02T14:43:15.686Z,,,,,,,,,,,,,,,,,,,,,,,,,,,,,,,4251.300000000003,,timeout,,,,,,,,,3,,,,,,,,O,I,S,,90940,90939.4,86692.8,86694,86696.44,90947.74,,,
Judgement,html.Screen,1_3_2_1,2022-02-02T14:43:16.017Z,,,,,,,,,,,,,,,,,,,,,,,,,,,,true,3,,316.25999999999476,,response,,,,,,,,,3,,3,click #choice-3,,,,,O,I,S,,91273,91264,90939.4,90941,90947.74,91272.74,,,
Trial,flow.Sequence,1_3_2,2022-02-02T14:43:16.018Z,,,,,,,,,,,,,,,,,,,,,,,,,,,,,,,4567.559999999998,,completion,,,,,,,,,3,,,,,,,,O,I,S,,91273,91264,86692.8,86694,86696.44,91272.74,,,
Sounds,html.Screen,1_3_3_0,2022-02-02T14:43:20.260Z,,,,,,,,,,,,,,,,,,,,,,,,,,,,,,,4250.239999999991,,timeout,,,,,,,,,2,,,,,,,,O,S,I,,95515,95514.64,91271.88,91273,91272.74,95522.98,,,
Judgement,html.Screen,1_3_3_1,2022-02-02T14:43:20.532Z,,,,,,,,,,,,,,,,,,,,,,,,,,,,true,2,,257.0200000000041,,response,,,,,,,,,2,,2,click #choice-2,,,,,O,S,I,,95786,95780,95514.64,95515,95522.98,95789.64,,,
Trial,flow.Sequence,1_3_3,2022-02-02T14:43:20.532Z,,,,,,,,,,,,,,,,,,,,,,,,,,,,,,,4507.259999999995,,completion,,,,,,,,,2,,,,,,,,O,S,I,,95786,95780,91271.88,91273,91272.74,95789.64,,,
Sounds,html.Screen,1_3_4_0,2022-02-02T14:43:24.777Z,,,,,,,,,,,,,,,,,,,,,,,,,,,,,,,4250.080000000002,,timeout,,,,,,,,,3,,,,,,,,I,O,S,,100032,100031.38,95785.96,95786,95789.64,100039.72,,,
Judgement,html.Screen,1_3_4_1,2022-02-02T14:43:25.138Z,,,,,,,,,,,,,,,,,,,,,,,,,,,,true,3,,349.27999999999884,,response,,,,,,,,,3,,3,click #choice-3,,,,,I,O,S,,100393,100389,100031.38,100033,100039.72,100398.06,,,
Trial,flow.Sequence,1_3_4,2022-02-02T14:43:25.138Z,,,,,,,,,,,,,,,,,,,,,,,,,,,,,,,4599.360000000001,,completion,,,,,,,,,3,,,,,,,,I,O,S,,100393,100389,95785.96,95786,95789.64,100398.06,,,
Sounds,html.Screen,1_3_5_0,2022-02-02T14:43:29.386Z,,,,,,,,,,,,,,,,,,,,,,,,,,,,,,,4250.059999999998,,timeout,,,,,,,,,2,,,,,,,,I,S,O,,104641,104639.78,100392.1,100393,100398.06,104648.12,,,
Judgement,html.Screen,1_3_5_1,2022-02-02T14:43:29.579Z,,,,,,,,,,,,,,,,,,,,,,,,,,,,true,2,,178.88000000000466,,response,,,,,,,,,2,,2,click #choice-2,,,,,I,S,O,,104834,104827,104639.78,104641,104648.12,104839.8,,,
Trial,flow.Sequence,1_3_5,2022-02-02T14:43:29.579Z,,,,,,,,,,,,,,,,,,,,,,,,,,,,,,,4428.940000000002,,completion,,,,,,,,,2,,,,,,,,I,S,O,,104834,104827,100392.1,100393,100398.06,104839.8,,,
Task,flow.Loop,1_3,2022-02-02T14:43:29.580Z,,,,,,,,,,,,,,,,,,,,,,,,,,,,,,,27722.380000000005,,completion,,,1,,,,,,,,,,,,,,,,,,104835,104827,77096.92,77099,77104.62,104839.8,,,
Trap,html.Screen,1_4,2022-02-02T14:43:29.583Z,,,,,,,,,,,,,,,,,,,,,,,,,,,,,,,NaN,,skipped,,,,,,,,,,,,,,,,,,,,,104838,104827,,104837,,104839.8,,,
Thanks,html.Screen,1_5,2022-02-02T14:43:32.438Z,,,,,,,,,,,,,,,,,,,,,,,,,,,,,,,2846.199999999997,,response,,,,,,,,,,,continue,click button,,,,,,,,,107692,107686,104833.48,104838,104839.8,110889.9,,,
Headphone screening,flow.Sequence,1,2022-02-02T14:43:32.438Z,,,,,,,,,,,,,,,,,,,,,,,,,,,,,,,56148.48,,completion,,,,,,,,,,,,,,,,,,,,,107692,107686,51533.18,51539,51537.52,110889.9,,,
Instructions,html.Page,2_0,2022-02-02T14:44:22.871Z,,,,,,,,,,,,,,,,,,,,,,,,,,,,,,,47235.100000000006,,form submission,,,,,,,,,,,,,,,,,,,,,158126,158125,110881.56,110875,110889.9,158125.78,,,
Holding screen,html.Screen,2_1_0_0,2022-02-02T14:44:32.863Z,,,,,,,,,,,,,,,,,,,,,,,,,,,,,,,10000.160000000003,,timeout,,,,,,,,,,,,,,,,,,,,,168119,168117.62,158122.7,158127,158125.78,168125.94,,,
screen,html.Screen,2_1_0_1_0,2022-02-02T14:44:34.034Z,,,,,,,,,,,,,,,,,53,,,,,,,,,,,,,,1154.0599999999977,,response,,,,99,,,,,,,Space,keypress(Space),,,,,,,,When -- ----- -- ------ - ------- --- ----------<br>------------- ------ ------ ---- ---- ------- ----- -- ----<br>-------- ------- -- ---------- --- - --- ----- ----- ----<br>---- --- --- ----- --- ---- ---- ------- ----- ---- -------<br>--- --- -- ----- -- --- ---- -- --- ---- -- ------ ------<br>--- ----- -- ----,169288,169280,168117.62,168120,168125.94,169292.64,,0,When
screen,html.Screen,2_1_0_1_1,2022-02-02T14:44:34.458Z,,,,,,,,,,,,,,,,,53,,,,,,,,,,,,,,409.35999999998603,,response,,,,99,,,,,,,Space,keypress(Space),,,,,,,,---- it ----- -- ------ - ------- --- ----------<br>------------- ------ ------ ---- ---- ------- ----- -- ----<br>-------- ------- -- ---------- --- - --- ----- ----- ----<br>---- --- --- ----- --- ---- ---- ------- ----- ---- -------<br>--- --- -- ----- -- --- ---- -- --- ---- -- ------ ------<br>--- ----- -- ----,169713,169702,169288.78,169288,169292.64,169717.64,,1,it
screen,html.Screen,2_1_0_1_2,2022-02-02T14:44:34.835Z,,,,,,,,,,,,,,,,,53,,,,,,,,,,,,,,359.35999999998603,,response,,,,99,,,,,,,Space,keypress(Space),,,,,,,,---- -- comes -- ------ - ------- --- ----------<br>------------- ------ ------ ---- ---- ------- ----- -- ----<br>-------- ------- -- ---------- --- - --- ----- ----- ----<br>---- --- --- ----- --- ---- ---- ------- ----- ---- -------<br>--- --- -- ----- -- --- ---- -- --- ---- -- ------ ------<br>--- ----- -- ----,170090,170077,169713.5,169714,169717.64,170092.64,,2,comes
screen,html.Screen,2_1_0_1_3,2022-02-02T14:44:35.205Z,,,,,,,,,,,,,,,,,53,,,,,,,,,,,,,,359.35999999998603,,response,,,,99,,,,,,,Space,keypress(Space),,,,,,,,---- -- ----- to ------ - ------- --- ----------<br>------------- ------ ------ ---- ---- ------- ----- -- ----<br>-------- ------- -- ---------- --- - --- ----- ----- ----<br>---- --- --- ----- --- ---- ---- ------- ----- ---- -------<br>--- --- -- ----- -- --- ---- -- --- ---- -- ------ ------<br>--- ----- -- ----,170460,170452,170090.48,170090,170092.64,170467.66,,3,to
screen,html.Screen,2_1_0_1_4,2022-02-02T14:44:35.586Z,,,,,,,,,,,,,,,,,53,,,,,,,,,,,,,,359.3399999999965,,response,,,,99,,,,,,,Space,keypress(Space),,,,,,,,---- -- ----- -- having - ------- --- ----------<br>------------- ------ ------ ---- ---- ------- ----- -- ----<br>-------- ------- -- ---------- --- - --- ----- ----- ----<br>---- --- --- ----- --- ---- ---- ------- ----- ---- -------<br>--- --- -- ----- -- --- ---- -- --- ---- -- ------ ------<br>--- ----- -- ----,170841,170827,170461.16,170462,170467.66,170842.66,,4,having
screen,html.Screen,2_1_0_1_5,2022-02-02T14:44:35.950Z,,,,,,,,,,,,,,,,,53,,,,,,,,,,,,,,359.3399999999965,,response,,,,99,,,,,,,Space,keypress(Space),,,,,,,,---- -- ----- -- ------ a ------- --- ----------<br>------------- ------ ------ ---- ---- ------- ----- -- ----<br>-------- ------- -- ---------- --- - --- ----- ----- ----<br>---- --- --- ----- --- ---- ---- ------- ----- ---- -------<br>--- --- -- ----- -- --- ---- -- --- ---- -- ------ ------<br>--- ----- -- ----,171205,171202,170841.52,170841,170842.66,171209.34,,5,a
screen,html.Screen,2_1_0_1_6,2022-02-02T14:44:36.304Z,,,,,,,,,,,,,,,,,53,,,,,,,,,,,,,,336.6600000000035,,response,,,,99,,,,,,,Space,keypress(Space),,,,,,,,---- -- ----- -- ------ - lasting --- ----------<br>------------- ------ ------ ---- ---- ------- ----- -- ----<br>-------- ------- -- ---------- --- - --- ----- ----- ----<br>---- --- --- ----- --- ---- ---- ------- ----- ---- -------<br>--- --- -- ----- -- --- ---- -- --- ---- -- ------ ------<br>--- ----- -- ----,171559,171546,171205.28,171205,171209.34,171559.34,,6,lasting
screen,html.Screen,2_1_0_1_7,2022-02-02T14:44:36.653Z,,,,,,,,,,,,,,,,,53,,,,,,,,,,,,,,345.6600000000035,,response,,,,99,,,,,,,Space,keypress(Space),,,,,,,,---- -- ----- -- ------ - ------- and ----------<br>------------- ------ ------ ---- ---- ------- ----- -- ----<br>-------- ------- -- ---------- --- - --- ----- ----- ----<br>---- --- --- ----- --- ---- ---- ------- ----- ---- -------<br>--- --- -- ----- -- --- ---- -- --- ---- -- ------ ------<br>--- ----- -- ----,171907,171905,171559.24,171559,171559.34,171909.34,,7,and
screen,html.Screen,2_1_0_1_8,2022-02-02T14:44:37.037Z,,,,,,,,,,,,,,,,,53,,,,,,,,,,,,,,370.6600000000035,,response,,,,99,,,,,,,Space,keypress(Space),,,,,,,,---- -- ----- -- ------ - ------- --- fulfilling<br>------------- ------ ------ ---- ---- ------- ----- -- ----<br>-------- ------- -- ---------- --- - --- ----- ----- ----<br>---- --- --- ----- --- ---- ---- ------- ----- ---- -------<br>--- --- -- ----- -- --- ---- -- --- ---- -- ------ ------<br>--- ----- -- ----,172291,172280,171908.2,171908,171909.34,172292.68,,8,fulfilling
screen,html.Screen,2_1_0_1_9,2022-02-02T14:44:37.554Z,,,,,,,,,,,,,,,,,53,,,,,,,,,,,,,,503.320000000007,,response,,,,99,,,,,,,Space,keypress(Space),,,,,,,,"---- -- ----- -- ------ - ------- --- ----------<br>relationship, ------ ------ ---- ---- ------- ----- -- ----<br>-------- ------- -- ---------- --- - --- ----- ----- ----<br>---- --- --- ----- --- ---- ---- ------- ----- ---- -------<br>--- --- -- ----- -- --- ---- -- --- ---- -- ------ ------<br>--- ----- -- ----",172809,172796,172291.5,172291,172292.68,172809.36,,9,"relationship,"
screen,html.Screen,2_1_0_1_10,2022-02-02T14:44:37.917Z,,,,,,,,,,,,,,,,,53,,,,,,,,,,,,,,361.64000000001397,,response,,,,99,,,,,,,Space,keypress(Space),,,,,,,,---- -- ----- -- ------ - ------- --- ----------<br>------------- common ------ ---- ---- ------- ----- -- ----<br>-------- ------- -- ---------- --- - --- ----- ----- ----<br>---- --- --- ----- --- ---- ---- ------- ----- ---- -------<br>--- --- -- ----- -- --- ---- -- --- ---- -- ------ ------<br>--- ----- -- ----,173172,173171,172809.14,172809,172809.36,173176.04,,10,common
screen,html.Screen,2_1_0_1_11,2022-02-02T14:44:38.632Z,,,,,,,,,,,,,,,,,53,,,,,,,,,,,,,,697.9599999999919,,response,,,,99,,,,,,,Space,keypress(Space),,,,,,,,---- -- ----- -- ------ - ------- --- ----------<br>------------- ------ wisdom ---- ---- ------- ----- -- ----<br>-------- ------- -- ---------- --- - --- ----- ----- ----<br>---- --- --- ----- --- ---- ---- ------- ----- ---- -------<br>--- --- -- ----- -- --- ---- -- --- ---- -- ------ ------<br>--- ----- -- ----,173887,173874,173172.12,173172,173176.04,173892.7,,11,wisdom
screen,html.Screen,2_1_0_1_12,2022-02-02T14:44:39.285Z,,,,,,,,,,,,,,,,,53,,,,,,,,,,,,,,637.2999999999884,,response,,,,99,,,,,,,Space,keypress(Space),,,,,,,,---- -- ----- -- ------ - ------- --- ----------<br>------------- ------ ------ says ---- ------- ----- -- ----<br>-------- ------- -- ---------- --- - --- ----- ----- ----<br>---- --- --- ----- --- ---- ---- ------- ----- ---- -------<br>--- --- -- ----- -- --- ---- -- --- ---- -- ------ ------<br>--- ----- -- ----,174540,174530,173887.22,173888,173892.7,174542.72,,12,says
screen,html.Screen,2_1_0_1_13,2022-02-02T14:44:39.654Z,,,,,,,,,,,,,,,,,53,,,,,,,,,,,,,,362.27999999999884,,response,,,,99,,,,,,,Space,keypress(Space),,,,,,,,---- -- ----- -- ------ - ------- --- ----------<br>------------- ------ ------ ---- that ------- ----- -- ----<br>-------- ------- -- ---------- --- - --- ----- ----- ----<br>---- --- --- ----- --- ---- ---- ------- ----- ---- -------<br>--- --- -- ----- -- --- ---- -- --- ---- -- ------ ------<br>--- ----- -- ----,174910,174905,174540.26,174540,174542.72,174917.72,,13,that
screen,html.Screen,2_1_0_1_14,2022-02-02T14:44:40.059Z,,,,,,,,,,,,,,,,,53,,,,,,,,,,,,,,393.27999999999884,,response,,,,99,,,,,,,Space,keypress(Space),,,,,,,,---- -- ----- -- ------ - ------- --- ----------<br>------------- ------ ------ ---- ---- feeling ----- -- ----<br>-------- ------- -- ---------- --- - --- ----- ----- ----<br>---- --- --- ----- --- ---- ---- ------- ----- ---- -------<br>--- --- -- ----- -- --- ---- -- --- ---- -- ------ ------<br>--- ----- -- ----,175314,175311,174909.42,174910,174917.72,175317.74,,14,feeling
screen,html.Screen,2_1_0_1_15,2022-02-02T14:44:40.406Z,,,,,,,,,,,,,,,,,53,,,,,,,,,,,,,,337.2600000000093,,response,,,,99,,,,,,,Space,keypress(Space),,,,,,,,---- -- ----- -- ------ - ------- --- ----------<br>------------- ------ ------ ---- ---- ------- close -- ----<br>-------- ------- -- ---------- --- - --- ----- ----- ----<br>---- --- --- ----- --- ---- ---- ------- ----- ---- -------<br>--- --- -- ----- -- --- ---- -- --- ---- -- ------ ------<br>--- ----- -- ----,175660,175655,175314.3,175314,175317.74,175667.74,,15,close
screen,html.Screen,2_1_0_1_16,2022-02-02T14:44:40.802Z,,,,,,,,,,,,,,,,,53,,,,,,,,,,,,,,378.2600000000093,,response,,,,99,,,,,,,Space,keypress(Space),,,,,,,,---- -- ----- -- ------ - ------- --- ----------<br>------------- ------ ------ ---- ---- ------- ----- to ----<br>-------- ------- -- ---------- --- - --- ----- ----- ----<br>---- --- --- ----- --- ---- ---- ------- ----- ---- -------<br>--- --- -- ----- -- --- ---- -- --- ---- -- ------ ------<br>--- ----- -- ----,176057,176046,175660.14,175660,175667.74,176059.42,,16,to
screen,html.Screen,2_1_0_1_17,2022-02-02T14:44:41.157Z,,,,,,,,,,,,,,,,,53,,,,,,,,,,,,,,345.5799999999872,,response,,,,99,,,,,,,Space,keypress(Space),,,,,,,,---- -- ----- -- ------ - ------- --- ----------<br>------------- ------ ------ ---- ---- ------- ----- -- your<br>-------- ------- -- ---------- --- - --- ----- ----- ----<br>---- --- --- ----- --- ---- ---- ------- ----- ---- -------<br>--- --- -- ----- -- --- ---- -- --- ---- -- ------ ------<br>--- ----- -- ----,176411,176405,176057.04,176057,176059.42,176417.76,,17,your
screen,html.Screen,2_1_0_1_18,2022-02-02T14:44:41.501Z,,,,,,,,,,,,,,,,,53,,,,,,,,,,,,,,330.2399999999907,,response,,,,99,,,,,,,Space,keypress(Space),,,,,,,,---- -- ----- -- ------ - ------- --- ----------<br>------------- ------ ------ ---- ---- ------- ----- -- ----<br>romantic ------- -- ---------- --- - --- ----- ----- ----<br>---- --- --- ----- --- ---- ---- ------- ----- ---- -------<br>--- --- -- ----- -- --- ---- -- --- ---- -- ------ ------<br>--- ----- -- ----,176756,176748,176411.96,176412,176417.76,176759.42,,18,romantic
screen,html.Screen,2_1_0_1_19,2022-02-02T14:44:41.900Z,,,,,,,,,,,,,,,,,53,,,,,,,,,,,,,,379.5799999999872,,response,,,,99,,,,,,,Space,keypress(Space),,,,,,,,---- -- ----- -- ------ - ------- --- ----------<br>------------- ------ ------ ---- ---- ------- ----- -- ----<br>-------- partner -- ---------- --- - --- ----- ----- ----<br>---- --- --- ----- --- ---- ---- ------- ----- ---- -------<br>--- --- -- ----- -- --- ---- -- --- ---- -- ------ ------<br>--- ----- -- ----,177155,177139,176755.42,176756,176759.42,177159.42,,19,partner
screen,html.Screen,2_1_0_1_20,2022-02-02T14:44:42.246Z,,,,,,,,,,,,,,,,,53,,,,,,,,,,,,,,339.5799999999872,,response,,,,99,,,,,,,Space,keypress(Space),,,,,,,,---- -- ----- -- ------ - ------- --- ----------<br>------------- ------ ------ ---- ---- ------- ----- -- ----<br>-------- ------- is ---------- --- - --- ----- ----- ----<br>---- --- --- ----- --- ---- ---- ------- ----- ---- -------<br>--- --- -- ----- -- --- ---- -- --- ---- -- ------ ------<br>--- ----- -- ----,177501,177499,177155.18,177156,177159.42,177501.1,,20,is
screen,html.Screen,2_1_0_1_21,2022-02-02T14:44:42.575Z,,,,,,,,,,,,,,,,,53,,,,,,,,,,,,,,325.8999999999942,,response,,,,99,,,,,,,Space,keypress(Space),,,,,,,,---- -- ----- -- ------ - ------- --- ----------<br>------------- ------ ------ ---- ---- ------- ----- -- ----<br>-------- ------- -- paramount. --- - --- ----- ----- ----<br>---- --- --- ----- --- ---- ---- ------- ----- ---- -------<br>--- --- -- ----- -- --- ---- -- --- ---- -- ------ ------<br>--- ----- -- ----,177830,177827,177501.02,177501,177501.1,177834.44,,21,paramount.
screen,html.Screen,2_1_0_1_22,2022-02-02T14:44:42.941Z,,,,,,,,,,,,,,,,,53,,,,,,,,,,,,,,351.5599999999977,,response,,,,99,,,,,,,Space,keypress(Space),,,,,,,,---- -- ----- -- ------ - ------- --- ----------<br>------------- ------ ------ ---- ---- ------- ----- -- ----<br>-------- ------- -- ---------- But - --- ----- ----- ----<br>---- --- --- ----- --- ---- ---- ------- ----- ---- -------<br>--- --- -- ----- -- --- ---- -- --- ---- -- ------ ------<br>--- ----- -- ----,178196,178186,177829.82,177830,177834.44,178201.12,,22,But
screen,html.Screen,2_1_0_1_23,2022-02-02T14:44:43.341Z,,,,,,,,,,,,,,,,,53,,,,,,,,,,,,,,390.88000000000466,,response,,,,99,,,,,,,Space,keypress(Space),,,,,,,,---- -- ----- -- ------ - ------- --- ----------<br>------------- ------ ------ ---- ---- ------- ----- -- ----<br>-------- ------- -- ---------- --- a --- ----- ----- ----<br>---- --- --- ----- --- ---- ---- ------- ----- ---- -------<br>--- --- -- ----- -- --- ---- -- --- ---- -- ------ ------<br>--- ----- -- ----,178596,178592,178196.08,178196,178201.12,178601.12,,23,a
screen,html.Screen,2_1_0_1_24,2022-02-02T14:44:43.678Z,,,,,,,,,,,,,,,,,53,,,,,,,,,,,,,,319.88000000000466,,response,,,,99,,,,,,,Space,keypress(Space),,,,,,,,---- -- ----- -- ------ - ------- --- ----------<br>------------- ------ ------ ---- ---- ------- ----- -- ----<br>-------- ------- -- ---------- --- - new ----- ----- ----<br>---- --- --- ----- --- ---- ---- ------- ----- ---- -------<br>--- --- -- ----- -- --- ---- -- --- ---- -- ------ ------<br>--- ----- -- ----,178932,178921,178596.04,178596,178601.12,178934.46,,24,new
screen,html.Screen,2_1_0_1_25,2022-02-02T14:44:43.982Z,,,,,,,,,,,,,,,,,53,,,,,,,,,,,,,,298.54000000000815,,response,,,,99,,,,,,,Space,keypress(Space),,,,,,,,---- -- ----- -- ------ - ------- --- ----------<br>------------- ------ ------ ---- ---- ------- ----- -- ----<br>-------- ------- -- ---------- --- - --- study ----- ----<br>---- --- --- ----- --- ---- ---- ------- ----- ---- -------<br>--- --- -- ----- -- --- ---- -- --- ---- -- ------ ------<br>--- ----- -- ----,179237,179233,178933.04,178933,178934.46,179242.8,,25,study
screen,html.Screen,2_1_0_1_26,2022-02-02T14:44:44.340Z,,,,,,,,,,,,,,,,,53,,,,,,,,,,,,,,350.20000000001164,,response,,,,99,,,,,,,Space,keypress(Space),,,,,,,,---- -- ----- -- ------ - ------- --- ----------<br>------------- ------ ------ ---- ---- ------- ----- -- ----<br>-------- ------- -- ---------- --- - --- ----- finds ----<br>---- --- --- ----- --- ---- ---- ------- ----- ---- -------<br>--- --- -- ----- -- --- ---- -- --- ---- -- ------ ------<br>--- ----- -- ----,179594,179593,179236.96,179237,179242.8,179601.14,,26,finds
screen,html.Screen,2_1_0_1_27,2022-02-02T14:44:44.630Z,,,,,,,,,,,,,,,,,53,,,,,,,,,,,,,,272.85999999998603,,response,,,,99,,,,,,,Space,keypress(Space),,,,,,,,---- -- ----- -- ------ - ------- --- ----------<br>------------- ------ ------ ---- ---- ------- ----- -- ----<br>-------- ------- -- ---------- --- - --- ----- ----- that<br>---- --- --- ----- --- ---- ---- ------- ----- ---- -------<br>--- --- -- ----- -- --- ---- -- --- ---- -- ------ ------<br>--- ----- -- ----,179885,179874,179594.9,179594,179601.14,179892.8,,27,that
screen,html.Screen,2_1_0_1_28,2022-02-02T14:44:44.935Z,,,,,,,,,,,,,,,,,53,,,,,,,,,,,,,,293.20000000001164,,response,,,,99,,,,,,,Space,keypress(Space),,,,,,,,---- -- ----- -- ------ - ------- --- ----------<br>------------- ------ ------ ---- ---- ------- ----- -- ----<br>-------- ------- -- ---------- --- - --- ----- ----- ----<br>it's --- --- ----- --- ---- ---- ------- ----- ---- -------<br>--- --- -- ----- -- --- ---- -- --- ---- -- ------ ------<br>--- ----- -- ----,180189,180186,179885.06,179885,179892.8,180192.82,,28,it's
screen,html.Screen,2_1_0_1_29,2022-02-02T14:44:45.240Z,,,,,,,,,,,,,,,,,53,,,,,,,,,,,,,,290.179999999993,,response,,,,99,,,,,,,Space,keypress(Space),,,,,,,,---- -- ----- -- ------ - ------- --- ----------<br>------------- ------ ------ ---- ---- ------- ----- -- ----<br>-------- ------- -- ---------- --- - --- ----- ----- ----<br>---- not --- ----- --- ---- ---- ------- ----- ---- -------<br>--- --- -- ----- -- --- ---- -- --- ---- -- ------ ------<br>--- ----- -- ----,180495,180483,180189.3,180189,180192.82,180501.16,,29,not
screen,html.Screen,2_1_0_1_30,2022-02-02T14:44:45.582Z,,,,,,,,,,,,,,,,,53,,,,,,,,,,,,,,325.8399999999965,,response,,,,99,,,,,,,Space,keypress(Space),,,,,,,,---- -- ----- -- ------ - ------- --- ----------<br>------------- ------ ------ ---- ---- ------- ----- -- ----<br>-------- ------- -- ---------- --- - --- ----- ----- ----<br>---- --- how ----- --- ---- ---- ------- ----- ---- -------<br>--- --- -- ----- -- --- ---- -- --- ---- -- ------ ------<br>--- ----- -- ----,180836,180827,180495.08,180495,180501.16,180842.82,,30,how
screen,html.Screen,2_1_0_1_31,2022-02-02T14:44:46.012Z,,,,,,,,,,,,,,,,,53,,,,,,,,,,,,,,421.179999999993,,response,,,,99,,,,,,,Space,keypress(Space),,,,,,,,---- -- ----- -- ------ - ------- --- ----------<br>------------- ------ ------ ---- ---- ------- ----- -- ----<br>-------- ------- -- ---------- --- - --- ----- ----- ----<br>---- --- --- close --- ---- ---- ------- ----- ---- -------<br>--- --- -- ----- -- --- ---- -- --- ---- -- ------ ------<br>--- ----- -- ----,181267,181264,180836.56,180836,180842.82,181267.84,,31,close
screen,html.Screen,2_1_0_1_32,2022-02-02T14:44:46.406Z,,,,,,,,,,,,,,,,,53,,,,,,,,,,,,,,387.1600000000035,,response,,,,99,,,,,,,Space,keypress(Space),,,,,,,,---- -- ----- -- ------ - ------- --- ----------<br>------------- ------ ------ ---- ---- ------- ----- -- ----<br>-------- ------- -- ---------- --- - --- ----- ----- ----<br>---- --- --- ----- you ---- ---- ------- ----- ---- -------<br>--- --- -- ----- -- --- ---- -- --- ---- -- ------ ------<br>--- ----- -- ----,181661,181655,181266.9,181267,181267.84,181667.84,,32,you
screen,html.Screen,2_1_0_1_33,2022-02-02T14:44:46.876Z,,,,,,,,,,,,,,,,,53,,,,,,,,,,,,,,456.1600000000035,,response,,,,99,,,,,,,Space,keypress(Space),,,,,,,,---- -- ----- -- ------ - ------- --- ----------<br>------------- ------ ------ ---- ---- ------- ----- -- ----<br>-------- ------- -- ---------- --- - --- ----- ----- ----<br>---- --- --- ----- --- feel ---- ------- ----- ---- -------<br>--- --- -- ----- -- --- ---- -- --- ---- -- ------ ------<br>--- ----- -- ----,182131,182124,181661.14,181662,181667.84,182134.52,,33,feel
screen,html.Screen,2_1_0_1_34,2022-02-02T14:44:47.115Z,,,,,,,,,,,,,,,,,53,,,,,,,,,,,,,,223.48000000001048,,response,,,,99,,,,,,,Space,keypress(Space),,,,,,,,---- -- ----- -- ------ - ------- --- ----------<br>------------- ------ ------ ---- ---- ------- ----- -- ----<br>-------- ------- -- ---------- --- - --- ----- ----- ----<br>---- --- --- ----- --- ---- that ------- ----- ---- -------<br>--- --- -- ----- -- --- ---- -- --- ---- -- ------ ------<br>--- ----- -- ----,182370,182358,182131.2,182131,182134.52,182376.18,,34,that
screen,html.Screen,2_1_0_1_35,2022-02-02T14:44:47.399Z,,,,,,,,,,,,,,,,,53,,,,,,,,,,,,,,262.820000000007,,response,,,,99,,,,,,,Space,keypress(Space),,,,,,,,---- -- ----- -- ------ - ------- --- ----------<br>------------- ------ ------ ---- ---- ------- ----- -- ----<br>-------- ------- -- ---------- --- - --- ----- ----- ----<br>---- --- --- ----- --- ---- ---- matters ----- ---- -------<br>--- --- -- ----- -- --- ---- -- --- ---- -- ------ ------<br>--- ----- -- ----,182654,182639,182370.08,182371,182376.18,182659.52,,35,matters
screen,html.Screen,2_1_0_1_36,2022-02-02T14:44:47.766Z,,,,,,,,,,,,,,,,,53,,,,,,,,,,,,,,354.4800000000105,,response,,,,99,,,,,,,Space,keypress(Space),,,,,,,,"---- -- ----- -- ------ - ------- --- ----------<br>------------- ------ ------ ---- ---- ------- ----- -- ----<br>-------- ------- -- ---------- --- - --- ----- ----- ----<br>---- --- --- ----- --- ---- ---- ------- most, ---- -------<br>--- --- -- ----- -- --- ---- -- --- ---- -- ------ ------<br>--- ----- -- ----",183020,183014,182653.88,182654,182659.52,183026.2,,36,"most,"
screen,html.Screen,2_1_0_1_37,2022-02-02T14:44:48.142Z,,,,,,,,,,,,,,,,,53,,,,,,,,,,,,,,362.79999999998836,,response,,,,99,,,,,,,Space,keypress(Space),,,,,,,,---- -- ----- -- ------ - ------- --- ----------<br>------------- ------ ------ ---- ---- ------- ----- -- ----<br>-------- ------- -- ---------- --- - --- ----- ----- ----<br>---- --- --- ----- --- ---- ---- ------- ----- it's -------<br>--- --- -- ----- -- --- ---- -- --- ---- -- ------ ------<br>--- ----- -- ----,183397,183389,183020.1,183020,183026.2,183401.2,,37,it's
screen,html.Screen,2_1_0_1_38,2022-02-02T14:44:48.575Z,,,,,,,,,,,,,,,,,53,,,,,,,,,,,,,,424.79999999998836,,response,,,,99,,,,,,,Space,keypress(Space),,,,,,,,---- -- ----- -- ------ - ------- --- ----------<br>------------- ------ ------ ---- ---- ------- ----- -- ----<br>-------- ------- -- ---------- --- - --- ----- ----- ----<br>---- --- --- ----- --- ---- ---- ------- ----- ---- whether<br>--- --- -- ----- -- --- ---- -- --- ---- -- ------ ------<br>--- ----- -- ----,183829,183826,183397.32,183397,183401.2,183834.54,,38,whether
screen,html.Screen,2_1_0_1_39,2022-02-02T14:44:48.820Z,,,,,,,,,,,,,,,,,53,,,,,,,,,,,,,,226.45999999999185,,response,,,,99,,,,,,,Space,keypress(Space),,,,,,,,---- -- ----- -- ------ - ------- --- ----------<br>------------- ------ ------ ---- ---- ------- ----- -- ----<br>-------- ------- -- ---------- --- - --- ----- ----- ----<br>---- --- --- ----- --- ---- ---- ------- ----- ---- -------<br>you --- -- ----- -- --- ---- -- --- ---- -- ------ ------<br>--- ----- -- ----,184075,184061,183829.98,183830,183834.54,184076.22,,39,you
screen,html.Screen,2_1_0_1_40,2022-02-02T14:44:49.175Z,,,,,,,,,,,,,,,,,53,,,,,,,,,,,,,,344.77999999999884,,response,,,,99,,,,,,,Space,keypress(Space),,,,,,,,---- -- ----- -- ------ - ------- --- ----------<br>------------- ------ ------ ---- ---- ------- ----- -- ----<br>-------- ------- -- ---------- --- - --- ----- ----- ----<br>---- --- --- ----- --- ---- ---- ------- ----- ---- -------<br>--- are -- ----- -- --- ---- -- --- ---- -- ------ ------<br>--- ----- -- ----,184430,184421,184074.98,184075,184076.22,184434.56,,40,are
screen,html.Screen,2_1_0_1_41,2022-02-02T14:44:49.428Z,,,,,,,,,,,,,,,,,53,,,,,,,,,,,,,,236.44000000000233,,response,,,,99,,,,,,,Space,keypress(Space),,,,,,,,---- -- ----- -- ------ - ------- --- ----------<br>------------- ------ ------ ---- ---- ------- ----- -- ----<br>-------- ------- -- ---------- --- - --- ----- ----- ----<br>---- --- --- ----- --- ---- ---- ------- ----- ---- -------<br>--- --- as ----- -- --- ---- -- --- ---- -- ------ ------<br>--- ----- -- ----,184683,184671,184429.96,184430,184434.56,184684.56,,41,as
screen,html.Screen,2_1_0_1_42,2022-02-02T14:44:49.752Z,,,,,,,,,,,,,,,,,53,,,,,,,,,,,,,,314.4400000000023,,response,,,,99,,,,,,,Space,keypress(Space),,,,,,,,---- -- ----- -- ------ - ------- --- ----------<br>------------- ------ ------ ---- ---- ------- ----- -- ----<br>-------- ------- -- ---------- --- - --- ----- ----- ----<br>---- --- --- ----- --- ---- ---- ------- ----- ---- -------<br>--- --- -- close -- --- ---- -- --- ---- -- ------ ------<br>--- ----- -- ----,185007,184999,184683.08,184683,184684.56,185009.56,,42,close
screen,html.Screen,2_1_0_1_43,2022-02-02T14:44:50.108Z,,,,,,,,,,,,,,,,,53,,,,,,,,,,,,,,348.4400000000023,,response,,,,99,,,,,,,Space,keypress(Space),,,,,,,,---- -- ----- -- ------ - ------- --- ----------<br>------------- ------ ------ ---- ---- ------- ----- -- ----<br>-------- ------- -- ---------- --- - --- ----- ----- ----<br>---- --- --- ----- --- ---- ---- ------- ----- ---- -------<br>--- --- -- ----- as --- ---- -- --- ---- -- ------ ------<br>--- ----- -- ----,185364,185358,185007.32,185007,185009.56,185367.9,,43,as
screen,html.Screen,2_1_0_1_44,2022-02-02T14:44:50.494Z,,,,,,,,,,,,,,,,,53,,,,,,,,,,,,,,365.1000000000058,,response,,,,99,,,,,,,Space,keypress(Space),,,,,,,,---- -- ----- -- ------ - ------- --- ----------<br>------------- ------ ------ ---- ---- ------- ----- -- ----<br>-------- ------- -- ---------- --- - --- ----- ----- ----<br>---- --- --- ----- --- ---- ---- ------- ----- ---- -------<br>--- --- -- ----- -- you ---- -- --- ---- -- ------ ------<br>--- ----- -- ----,185750,185733,185364.02,185364,185367.9,185751.24,,44,you
screen,html.Screen,2_1_0_1_45,2022-02-02T14:44:50.791Z,,,,,,,,,,,,,,,,,53,,,,,,,,,,,,,,278.7600000000093,,response,,,,99,,,,,,,Space,keypress(Space),,,,,,,,---- -- ----- -- ------ - ------- --- ----------<br>------------- ------ ------ ---- ---- ------- ----- -- ----<br>-------- ------- -- ---------- --- - --- ----- ----- ----<br>---- --- --- ----- --- ---- ---- ------- ----- ---- -------<br>--- --- -- ----- -- --- want -- --- ---- -- ------ ------<br>--- ----- -- ----,186045,186030,185749.86,185750,185751.24,186051.24,,45,want
screen,html.Screen,2_1_0_1_46,2022-02-02T14:44:51.232Z,,,,,,,,,,,,,,,,,53,,,,,,,,,,,,,,431.7600000000093,,response,,,,99,,,,,,,Space,keypress(Space),,,,,,,,---- -- ----- -- ------ - ------- --- ----------<br>------------- ------ ------ ---- ---- ------- ----- -- ----<br>-------- ------- -- ---------- --- - --- ----- ----- ----<br>---- --- --- ----- --- ---- ---- ------- ----- ---- -------<br>--- --- -- ----- -- --- ---- to --- ---- -- ------ ------<br>--- ----- -- ----,186487,186483,186045.84,186046,186051.24,186492.92,,46,to
screen,html.Screen,2_1_0_1_47,2022-02-02T14:44:51.545Z,,,,,,,,,,,,,,,,,53,,,,,,,,,,,,,,303.0799999999872,,response,,,,99,,,,,,,Space,keypress(Space),,,,,,,,"---- -- ----- -- ------ - ------- --- ----------<br>------------- ------ ------ ---- ---- ------- ----- -- ----<br>-------- ------- -- ---------- --- - --- ----- ----- ----<br>---- --- --- ----- --- ---- ---- ------- ----- ---- -------<br>--- --- -- ----- -- --- ---- -- be, ---- -- ------ ------<br>--- ----- -- ----",186800,186796,186487.2,186488,186492.92,186801.26,,47,"be,"
screen,html.Screen,2_1_0_1_48,2022-02-02T14:44:51.919Z,,,,,,,,,,,,,,,,,53,,,,,,,,,,,,,,369.7399999999907,,response,,,,99,,,,,,,Space,keypress(Space),,,,,,,,---- -- ----- -- ------ - ------- --- ----------<br>------------- ------ ------ ---- ---- ------- ----- -- ----<br>-------- ------- -- ---------- --- - --- ----- ----- ----<br>---- --- --- ----- --- ---- ---- ------- ----- ---- -------<br>--- --- -- ----- -- --- ---- -- --- even -- ------ ------<br>--- ----- -- ----,187174,187171,186799.98,186800,186801.26,187176.26,,48,even
screen,html.Screen,2_1_0_1_49,2022-02-02T14:44:52.451Z,,,,,,,,,,,,,,,,,53,,,,,,,,,,,,,,525.7399999999907,,response,,,,99,,,,,,,Space,keypress(Space),,,,,,,,---- -- ----- -- ------ - ------- --- ----------<br>------------- ------ ------ ---- ---- ------- ----- -- ----<br>-------- ------- -- ---------- --- - --- ----- ----- ----<br>---- --- --- ----- --- ---- ---- ------- ----- ---- -------<br>--- --- -- ----- -- --- ---- -- --- ---- if ------ ------<br>--- ----- -- ----,187706,187702,187173.88,187174,187176.26,187709.6,,49,if
screen,html.Screen,2_1_0_1_50,2022-02-02T14:44:52.849Z,,,,,,,,,,,,,,,,,53,,,,,,,,,,,,,,383.3999999999942,,response,,,,99,,,,,,,Space,keypress(Space),,,,,,,,---- -- ----- -- ------ - ------- --- ----------<br>------------- ------ ------ ---- ---- ------- ----- -- ----<br>-------- ------- -- ---------- --- - --- ----- ----- ----<br>---- --- --- ----- --- ---- ---- ------- ----- ---- -------<br>--- --- -- ----- -- --- ---- -- --- ---- -- that's ------<br>--- ----- -- ----,188103,188093,187706.06,187706,187709.6,188109.62,,50,that's
screen,html.Screen,2_1_0_1_51,2022-02-02T14:44:53.180Z,,,,,,,,,,,,,,,,,53,,,,,,,,,,,,,,311.38000000000466,,response,,,,99,,,,,,,Space,keypress(Space),,,,,,,,---- -- ----- -- ------ - ------- --- ----------<br>------------- ------ ------ ---- ---- ------- ----- -- ----<br>-------- ------- -- ---------- --- - --- ----- ----- ----<br>---- --- --- ----- --- ---- ---- ------- ----- ---- -------<br>--- --- -- ----- -- --- ---- -- --- ---- -- ------ really<br>--- ----- -- ----,188435,188421,188103.4,188104,188109.62,188442.96,,51,really
screen,html.Screen,2_1_0_1_52,2022-02-02T14:44:53.470Z,,,,,,,,,,,,,,,,,53,,,,,,,,,,,,,,275.04000000000815,,response,,,,99,,,,,,,Space,keypress(Space),,,,,,,,---- -- ----- -- ------ - ------- --- ----------<br>------------- ------ ------ ---- ---- ------- ----- -- ----<br>-------- ------- -- ---------- --- - --- ----- ----- ----<br>---- --- --- ----- --- ---- ---- ------- ----- ---- -------<br>--- --- -- ----- -- --- ---- -- --- ---- -- ------ ------<br>not ----- -- ----,188725,188718,188434.88,188435,188442.96,188726.28,,52,not
screen,html.Screen,2_1_0_1_53,2022-02-02T14:44:53.698Z,,,,,,,,,,,,,,,,,53,,,,,,,,,,,,,,209.72000000000116,,response,,,,99,,,,,,,Space,keypress(Space),,,,,,,,---- -- ----- -- ------ - ------- --- ----------<br>------------- ------ ------ ---- ---- ------- ----- -- ----<br>-------- ------- -- ---------- --- - --- ----- ----- ----<br>---- --- --- ----- --- ---- ---- ------- ----- ---- -------<br>--- --- -- ----- -- --- ---- -- --- ---- -- ------ ------<br>--- close -- ----,188954,188936,188724.92,188725,188726.28,188959.62,,53,close
screen,html.Screen,2_1_0_1_54,2022-02-02T14:44:54.090Z,,,,,,,,,,,,,,,,,53,,,,,,,,,,,,,,367.38000000000466,,response,,,,99,,,,,,,Space,keypress(Space),,,,,,,,---- -- ----- -- ------ - ------- --- ----------<br>------------- ------ ------ ---- ---- ------- ----- -- ----<br>-------- ------- -- ---------- --- - --- ----- ----- ----<br>---- --- --- ----- --- ---- ---- ------- ----- ---- -------<br>--- --- -- ----- -- --- ---- -- --- ---- -- ------ ------<br>--- ----- at ----,189344,189327,188953.96,188954,188959.62,189351.3,,54,at
screen,html.Screen,2_1_0_1_55,2022-02-02T14:44:54.576Z,,,,,,,,,,,,,,,,,53,,,,,,,,,,,,,,475.70000000001164,,response,,,,99,,,,,,,Space,keypress(Space),,,,,,,,---- -- ----- -- ------ - ------- --- ----------<br>------------- ------ ------ ---- ---- ------- ----- -- ----<br>-------- ------- -- ---------- --- - --- ----- ----- ----<br>---- --- --- ----- --- ---- ---- ------- ----- ---- -------<br>--- --- -- ----- -- --- ---- -- --- ---- -- ------ ------<br>--- ----- -- all.,189831,189827,189344.44,189344,189351.3,189834.64,,55,all.
Item 99,flow.Loop,2_1_0_1,2022-02-02T14:44:54.577Z,,,,,,,,,,,,,,,,,,,,,,,,,,,,,,,21701.059999999998,,completion,,,,,C,,,,,,,,,,,silence,,,,,189831,189827,168117.62,168119,168125.94,189834.64,,,
Question 1,html.Screen,2_1_0_2,2022-02-02T14:45:00.783Z,,,,,,,,,,,,,,,,,,,,,,,,,,,,false,FALSE,,6195.359999999986,,response,,,,99,C,,,,,,TRUE,click #choice-1,,,,silence,,,,,196037,196030,189831.58,189831,189834.64,196044.26,,,
Question 2,html.Screen,2_1_0_3,2022-02-02T14:45:05.412Z,,,,,,,,,,,,,,,,,,,,,,,,,,,,true,TRUE,,4610.739999999991,,response,,,,99,C,,,,,,TRUE,click #choice-1,,,,silence,,,,,200667,200655,196036.78,196037,196044.26,200669.34,,,
Item 99,flow.Sequence,2_1_0,2022-02-02T14:45:05.412Z,,,,,,,,,,,,,,,,,,,,,,,,,,,,,,,42529.22,,completion,,,,,,,,,,,,,,,,,,,,,200667,200655,158122.7,158127,158125.78,200669.34,,,
Holding screen,html.Screen,2_1_1_0,2022-02-02T14:45:15.407Z,,,,,,,,,,,,,,,,,,,,,,,,,,,,,,,10000.179999999993,,timeout,,,,,,,,,,,,,,,,,,,,,210662,210661.18,200666.42,200668,200669.34,210669.52,,,
screen,html.Screen,2_1_1_1_0,2022-02-02T14:45:16.180Z,,,,,,,,,,,,,,,,,54,,,,,,,,,,,,,,750.4800000000105,,response,,,,100,,,,,,,Space,keypress(Space),,,,,,,,At --- ---- --- ------ ----- ------- ---- -- --- ------- --<br>------- ---------- ------ -- ----- -- ----- -- ---- ------<br>--- ----- --- --- ------ -------- ----- --- ------ ----- --<br>----- ----- ---------- --- --- ------ ------ ---- -- ------<br>------- --- ------ ----- --- ---- ------- -- ---- --- --<br>------- ------,211435,211420,210661.18,210662,210669.52,211436.18,,0,At
screen,html.Screen,2_1_1_1_1,2022-02-02T14:45:17.342Z,,,,,,,,,,,,,,,,,54,,,,,,,,,,,,,,1156.820000000007,,response,,,,100,,,,,,,Space,keypress(Space),,,,,,,,-- the ---- --- ------ ----- ------- ---- -- --- ------- --<br>------- ---------- ------ -- ----- -- ----- -- ---- ------<br>--- ----- --- --- ------ -------- ----- --- ------ ----- --<br>----- ----- ---------- --- --- ------ ------ ---- -- ------<br>------- --- ------ ----- --- ---- ------- -- ---- --- --<br>------- ------,212596,212593,211434.96,211435,211436.18,212602.88,,1,the
screen,html.Screen,2_1_1_1_2,2022-02-02T14:45:17.683Z,,,,,,,,,,,,,,,,,54,,,,,,,,,,,,,,333.11999999999534,,response,,,,100,,,,,,,Space,keypress(Space),,,,,,,,-- --- time --- ------ ----- ------- ---- -- --- ------- --<br>------- ---------- ------ -- ----- -- ----- -- ---- ------<br>--- ----- --- --- ------ -------- ----- --- ------ ----- --<br>----- ----- ---------- --- --- ------ ------ ---- -- ------<br>------- --- ------ ----- --- ---- ------- -- ---- --- --<br>------- ------,212938,212936,212596.76,212596,212602.88,212944.54,,2,time
screen,html.Screen,2_1_1_1_3,2022-02-02T14:45:18.105Z,,,,,,,,,,,,,,,,,54,,,,,,,,,,,,,,413.45999999999185,,response,,,,100,,,,,,,Space,keypress(Space),,,,,,,,-- --- ---- the ------ ----- ------- ---- -- --- ------- --<br>------- ---------- ------ -- ----- -- ----- -- ---- ------<br>--- ----- --- --- ------ -------- ----- --- ------ ----- --<br>----- ----- ---------- --- --- ------ ------ ---- -- ------<br>------- --- ------ ----- --- ---- ------- -- ---- --- --<br>------- ------,213360,213358,212938.5,212938,212944.54,213361.22,,3,the
screen,html.Screen,2_1_1_1_4,2022-02-02T14:45:18.181Z,,,,,,,,,,,,,,,,,54,,,,,,,,,,,,,,59.779999999998836,,response,,,,100,,,,,,,Space,keypress(Space),,,,,,,,-- --- ---- --- French ----- ------- ---- -- --- ------- --<br>------- ---------- ------ -- ----- -- ----- -- ---- ------<br>--- ----- --- --- ------ -------- ----- --- ------ ----- --<br>----- ----- ---------- --- --- ------ ------ ---- -- ------<br>------- --- ------ ----- --- ---- ------- -- ---- --- --<br>------- ------,213435,213421,213360.06,213360,213361.22,213436.22,,4,French
screen,html.Screen,2_1_1_1_5,2022-02-02T14:45:19.411Z,,,,,,,,,,,,,,,,,54,,,,,,,,,,,,,,1218.7799999999988,,response,,,,100,,,,,,,Space,keypress(Space),,,,,,,,-- --- ---- --- ------ crown ------- ---- -- --- ------- --<br>------- ---------- ------ -- ----- -- ----- -- ---- ------<br>--- ----- --- --- ------ -------- ----- --- ------ ----- --<br>----- ----- ---------- --- --- ------ ------ ---- -- ------<br>------- --- ------ ----- --- ---- ------- -- ---- --- --<br>------- ------,214666,214655,213435.76,213436,213436.22,214669.58,,5,crown
screen,html.Screen,2_1_1_1_6,2022-02-02T14:45:19.844Z,,,,,,,,,,,,,,,,,54,,,,,,,,,,,,,,423.4200000000128,,response,,,,100,,,,,,,Space,keypress(Space),,,,,,,,-- --- ---- --- ------ ----- secured ---- -- --- ------- --<br>------- ---------- ------ -- ----- -- ----- -- ---- ------<br>--- ----- --- --- ------ -------- ----- --- ------ ----- --<br>----- ----- ---------- --- --- ------ ------ ---- -- ------<br>------- --- ------ ----- --- ---- ------- -- ---- --- --<br>------- ------,215099,215093,214665.8,214666,214669.58,215102.92,,6,secured
screen,html.Screen,2_1_1_1_7,2022-02-02T14:45:20.329Z,,,,,,,,,,,,,,,,,54,,,,,,,,,,,,,,474.0799999999872,,response,,,,100,,,,,,,Space,keypress(Space),,,,,,,,-- --- ---- --- ------ ----- ------- much -- --- ------- --<br>------- ---------- ------ -- ----- -- ----- -- ---- ------<br>--- ----- --- --- ------ -------- ----- --- ------ ----- --<br>----- ----- ---------- --- --- ------ ------ ---- -- ------<br>------- --- ------ ----- --- ---- ------- -- ---- --- --<br>------- ------,215583,215577,215098.8,215099,215102.92,215586.26,,7,much
screen,html.Screen,2_1_1_1_8,2022-02-02T14:45:20.674Z,,,,,,,,,,,,,,,,,54,,,,,,,,,,,,,,334.7399999999907,,response,,,,100,,,,,,,Space,keypress(Space),,,,,,,,-- --- ---- --- ------ ----- ------- ---- of --- ------- --<br>------- ---------- ------ -- ----- -- ----- -- ---- ------<br>--- ----- --- --- ------ -------- ----- --- ------ ----- --<br>----- ----- ---------- --- --- ------ ------ ---- -- ------<br>------- --- ------ ----- --- ---- ------- -- ---- --- --<br>------- ------,215929,215921,215583.3,215583,215586.26,215936.26,,8,of
screen,html.Screen,2_1_1_1_9,2022-02-02T14:45:21.124Z,,,,,,,,,,,,,,,,,54,,,,,,,,,,,,,,437.7399999999907,,response,,,,100,,,,,,,Space,keypress(Space),,,,,,,,-- --- ---- --- ------ ----- ------- ---- -- its ------- --<br>------- ---------- ------ -- ----- -- ----- -- ---- ------<br>--- ----- --- --- ------ -------- ----- --- ------ ----- --<br>----- ----- ---------- --- --- ------ ------ ---- -- ------<br>------- --- ------ ----- --- ---- ------- -- ---- --- --<br>------- ------,216379,216374,215929.4,215929,215936.26,216386.28,,9,its
screen,html.Screen,2_1_1_1_10,2022-02-02T14:45:21.968Z,,,,,,,,,,,,,,,,,54,,,,,,,,,,,,,,831.7200000000012,,response,,,,100,,,,,,,Space,keypress(Space),,,,,,,,-- --- ---- --- ------ ----- ------- ---- -- --- revenue --<br>------- ---------- ------ -- ----- -- ----- -- ---- ------<br>--- ----- --- --- ------ -------- ----- --- ------ ----- --<br>----- ----- ---------- --- --- ------ ------ ---- -- ------<br>------- --- ------ ----- --- ---- ------- -- ---- --- --<br>------- ------,217222,217218,216379.16,216379,216386.28,217227.96,,10,revenue
screen,html.Screen,2_1_1_1_11,2022-02-02T14:45:23.968Z,,,,,,,,,,,,,,,,,54,,,,,,,,,,,,,,1990.0400000000081,,response,,,,100,,,,,,,Space,keypress(Space),,,,,,,,-- --- ---- --- ------ ----- ------- ---- -- --- ------- by<br>------- ---------- ------ -- ----- -- ----- -- ---- ------<br>--- ----- --- --- ------ -------- ----- --- ------ ----- --<br>----- ----- ---------- --- --- ------ ------ ---- -- ------<br>------- --- ------ ----- --- ---- ------- -- ---- --- --<br>------- ------,219223,219218,217223,217223,217227.96,219227.98,,11,by
screen,html.Screen,2_1_1_1_12,2022-02-02T14:45:24.416Z,,,,,,,,,,,,,,,,,54,,,,,,,,,,,,,,427.0199999999895,,response,,,,100,,,,,,,Space,keypress(Space),,,,,,,,-- --- ---- --- ------ ----- ------- ---- -- --- ------- --<br>issuing ---------- ------ -- ----- -- ----- -- ---- ------<br>--- ----- --- --- ------ -------- ----- --- ------ ----- --<br>----- ----- ---------- --- --- ------ ------ ---- -- ------<br>------- --- ------ ----- --- ---- ------- -- ---- --- --<br>------- ------,219671,219655,219223.7,219223,219227.98,219678,,12,issuing
screen,html.Screen,2_1_1_1_13,2022-02-02T14:45:24.512Z,,,,,,,,,,,,,,,,,54,,,,,,,,,,,,,,86,,response,,,,100,,,,,,,Space,keypress(Space),,,,,,,,-- --- ---- --- ------ ----- ------- ---- -- --- ------- --<br>------- government ------ -- ----- -- ----- -- ---- ------<br>--- ----- --- --- ------ -------- ----- --- ------ ----- --<br>----- ----- ---------- --- --- ------ ------ ---- -- ------<br>------- --- ------ ----- --- ---- ------- -- ---- --- --<br>------- ------,219767,219764,219671.16,219671,219678,219769.66,,13,government
screen,html.Screen,2_1_1_1_14,2022-02-02T14:45:25.525Z,,,,,,,,,,,,,,,,,54,,,,,,,,,,,,,,994.3399999999965,,response,,,,100,,,,,,,Space,keypress(Space),,,,,,,,-- --- ---- --- ------ ----- ------- ---- -- --- ------- --<br>------- ---------- bonds. -- ----- -- ----- -- ---- ------<br>--- ----- --- --- ------ -------- ----- --- ------ ----- --<br>----- ----- ---------- --- --- ------ ------ ---- -- ------<br>------- --- ------ ----- --- ---- ------- -- ---- --- --<br>------- ------,220780,220764,219767.06,219767,219769.66,220786.34,,14,bonds.
screen,html.Screen,2_1_1_1_15,2022-02-02T14:45:25.956Z,,,,,,,,,,,,,,,,,54,,,,,,,,,,,,,,415.6600000000035,,response,,,,100,,,,,,,Space,keypress(Space),,,,,,,,-- --- ---- --- ------ ----- ------- ---- -- --- ------- --<br>------- ---------- ------ In ----- -- ----- -- ---- ------<br>--- ----- --- --- ------ -------- ----- --- ------ ----- --<br>----- ----- ---------- --- --- ------ ------ ---- -- ------<br>------- --- ------ ----- --- ---- ------- -- ---- --- --<br>------- ------,221211,221202,220780.3,220781,220786.34,221211.36,,15,In
screen,html.Screen,2_1_1_1_16,2022-02-02T14:45:26.353Z,,,,,,,,,,,,,,,,,54,,,,,,,,,,,,,,381.64000000001397,,response,,,,100,,,,,,,Space,keypress(Space),,,,,,,,"-- --- ---- --- ------ ----- ------- ---- -- --- ------- --<br>------- ---------- ------ -- 1727, -- ----- -- ---- ------<br>--- ----- --- --- ------ -------- ----- --- ------ ----- --<br>----- ----- ---------- --- --- ------ ------ ---- -- ------<br>------- --- ------ ----- --- ---- ------- -- ---- --- --<br>------- ------",221607,221593,221211.06,221211,221211.36,221611.36,,16,"1727,"
screen,html.Screen,2_1_1_1_17,2022-02-02T14:45:27.113Z,,,,,,,,,,,,,,,,,54,,,,,,,,,,,,,,746.640000000014,,response,,,,100,,,,,,,Space,keypress(Space),,,,,,,,-- --- ---- --- ------ ----- ------- ---- -- --- ------- --<br>------- ---------- ------ -- ----- in ----- -- ---- ------<br>--- ----- --- --- ------ -------- ----- --- ------ ----- --<br>----- ----- ---------- --- --- ------ ------ ---- -- ------<br>------- --- ------ ----- --- ---- ------- -- ---- --- --<br>------- ------,222368,222358,221607.7,221607,221611.36,222369.7,,17,in
screen,html.Screen,2_1_1_1_18,2022-02-02T14:45:27.789Z,,,,,,,,,,,,,,,,,54,,,,,,,,,,,,,,660.2999999999884,,response,,,,100,,,,,,,Space,keypress(Space),,,,,,,,-- --- ---- --- ------ ----- ------- ---- -- --- ------- --<br>------- ---------- ------ -- ----- -- order -- ---- ------<br>--- ----- --- --- ------ -------- ----- --- ------ ----- --<br>----- ----- ---------- --- --- ------ ------ ---- -- ------<br>------- --- ------ ----- --- ---- ------- -- ---- --- --<br>------- ------,223044,223030,222367.76,222368,222369.7,223044.72,,18,order
screen,html.Screen,2_1_1_1_19,2022-02-02T14:45:28.108Z,,,,,,,,,,,,,,,,,54,,,,,,,,,,,,,,313.27999999999884,,response,,,,100,,,,,,,Space,keypress(Space),,,,,,,,-- --- ---- --- ------ ----- ------- ---- -- --- ------- --<br>------- ---------- ------ -- ----- -- ----- to ---- ------<br>--- ----- --- --- ------ -------- ----- --- ------ ----- --<br>----- ----- ---------- --- --- ------ ------ ---- -- ------<br>------- --- ------ ----- --- ---- ------- -- ---- --- --<br>------- ------,223364,223358,223043.82,223044,223044.72,223369.72,,19,to
screen,html.Screen,2_1_1_1_20,2022-02-02T14:45:28.516Z,,,,,,,,,,,,,,,,,54,,,,,,,,,,,,,,394.27999999999884,,response,,,,100,,,,,,,Space,keypress(Space),,,,,,,,-- --- ---- --- ------ ----- ------- ---- -- --- ------- --<br>------- ---------- ------ -- ----- -- ----- -- save ------<br>--- ----- --- --- ------ -------- ----- --- ------ ----- --<br>----- ----- ---------- --- --- ------ ------ ---- -- ------<br>------- --- ------ ----- --- ---- ------- -- ---- --- --<br>------- ------,223772,223764,223363.7,223364,223369.72,223778.06,,20,save
screen,html.Screen,2_1_1_1_21,2022-02-02T14:45:28.962Z,,,,,,,,,,,,,,,,,54,,,,,,,,,,,,,,423.9400000000023,,response,,,,100,,,,,,,Space,keypress(Space),,,,,,,,"-- --- ---- --- ------ ----- ------- ---- -- --- ------- --<br>------- ---------- ------ -- ----- -- ----- -- ---- money,<br>--- ----- --- --- ------ -------- ----- --- ------ ----- --<br>----- ----- ---------- --- --- ------ ------ ---- -- ------<br>------- --- ------ ----- --- ---- ------- -- ---- --- --<br>------- ------",224216,224202,223771.9,223772,223778.06,224219.74,,21,"money,"
screen,html.Screen,2_1_1_1_22,2022-02-02T14:45:29.398Z,,,,,,,,,,,,,,,,,54,,,,,,,,,,,,,,419.2600000000093,,response,,,,100,,,,,,,Space,keypress(Space),,,,,,,,-- --- ---- --- ------ ----- ------- ---- -- --- ------- --<br>------- ---------- ------ -- ----- -- ----- -- ---- ------<br>the ----- --- --- ------ -------- ----- --- ------ ----- --<br>----- ----- ---------- --- --- ------ ------ ---- -- ------<br>------- --- ------ ----- --- ---- ------- -- ---- --- --<br>------- ------,224653,224639,224217.06,224217,224219.74,224653.08,,22,the
screen,html.Screen,2_1_1_1_23,2022-02-02T14:45:29.792Z,,,,,,,,,,,,,,,,,54,,,,,,,,,,,,,,392.9200000000128,,response,,,,100,,,,,,,Space,keypress(Space),,,,,,,,-- --- ---- --- ------ ----- ------- ---- -- --- ------- --<br>------- ---------- ------ -- ----- -- ----- -- ---- ------<br>--- state --- --- ------ -------- ----- --- ------ ----- --<br>----- ----- ---------- --- --- ------ ------ ---- -- ------<br>------- --- ------ ----- --- ---- ------- -- ---- --- --<br>------- ------,225047,225046,224653.06,224653,224653.08,225053.08,,23,state
screen,html.Screen,2_1_1_1_24,2022-02-02T14:45:30.161Z,,,,,,,,,,,,,,,,,54,,,,,,,,,,,,,,351.9200000000128,,response,,,,100,,,,,,,Space,keypress(Space),,,,,,,,-- --- ---- --- ------ ----- ------- ---- -- --- ------- --<br>------- ---------- ------ -- ----- -- ----- -- ---- ------<br>--- ----- cut --- ------ -------- ----- --- ------ ----- --<br>----- ----- ---------- --- --- ------ ------ ---- -- ------<br>------- --- ------ ----- --- ---- ------- -- ---- --- --<br>------- ------,225416,225405,225047.7,225048,225053.08,225419.76,,24,cut
screen,html.Screen,2_1_1_1_25,2022-02-02T14:45:30.498Z,,,,,,,,,,,,,,,,,54,,,,,,,,,,,,,,329.2399999999907,,response,,,,100,,,,,,,Space,keypress(Space),,,,,,,,-- --- ---- --- ------ ----- ------- ---- -- --- ------- --<br>------- ---------- ------ -- ----- -- ----- -- ---- ------<br>--- ----- --- the ------ -------- ----- --- ------ ----- --<br>----- ----- ---------- --- --- ------ ------ ---- -- ------<br>------- --- ------ ----- --- ---- ------- -- ---- --- --<br>------- ------,225754,225749,225416.14,225417,225419.76,225761.42,,25,the
screen,html.Screen,2_1_1_1_26,2022-02-02T14:45:30.819Z,,,,,,,,,,,,,,,,,54,,,,,,,,,,,,,,299.5799999999872,,response,,,,100,,,,,,,Space,keypress(Space),,,,,,,,-- --- ---- --- ------ ----- ------- ---- -- --- ------- --<br>------- ---------- ------ -- ----- -- ----- -- ---- ------<br>--- ----- --- --- bonds' -------- ----- --- ------ ----- --<br>----- ----- ---------- --- --- ------ ------ ---- -- ------<br>------- --- ------ ----- --- ---- ------- -- ---- --- --<br>------- ------,226075,226061,225753.76,225754,225761.42,226078.1,,26,bonds'
screen,html.Screen,2_1_1_1_27,2022-02-02T14:45:31.186Z,,,,,,,,,,,,,,,,,54,,,,,,,,,,,,,,357.8999999999942,,response,,,,100,,,,,,,Space,keypress(Space),,,,,,,,-- --- ---- --- ------ ----- ------- ---- -- --- ------- --<br>------- ---------- ------ -- ----- -- ----- -- ---- ------<br>--- ----- --- --- ------ interest ----- --- ------ ----- --<br>----- ----- ---------- --- --- ------ ------ ---- -- ------<br>------- --- ------ ----- --- ---- ------- -- ---- --- --<br>------- ------,226441,226436,226074.72,226075,226078.1,226444.78,,27,interest
screen,html.Screen,2_1_1_1_28,2022-02-02T14:45:31.529Z,,,,,,,,,,,,,,,,,54,,,,,,,,,,,,,,335.22000000000116,,response,,,,100,,,,,,,Space,keypress(Space),,,,,,,,-- --- ---- --- ------ ----- ------- ---- -- --- ------- --<br>------- ---------- ------ -- ----- -- ----- -- ---- ------<br>--- ----- --- --- ------ -------- rate. --- ------ ----- --<br>----- ----- ---------- --- --- ------ ------ ---- -- ------<br>------- --- ------ ----- --- ---- ------- -- ---- --- --<br>------- ------,226784,226780,226440.92,226441,226444.78,226786.44,,28,rate.
screen,html.Screen,2_1_1_1_29,2022-02-02T14:45:31.971Z,,,,,,,,,,,,,,,,,54,,,,,,,,,,,,,,431.5599999999977,,response,,,,100,,,,,,,Space,keypress(Space),,,,,,,,-- --- ---- --- ------ ----- ------- ---- -- --- ------- --<br>------- ---------- ------ -- ----- -- ----- -- ---- ------<br>--- ----- --- --- ------ -------- ----- The ------ ----- --<br>----- ----- ---------- --- --- ------ ------ ---- -- ------<br>------- --- ------ ----- --- ---- ------- -- ---- --- --<br>------- ------,227226,227218,226783.74,226784,226786.44,227228.12,,29,The
screen,html.Screen,2_1_1_1_30,2022-02-02T14:45:32.036Z,,,,,,,,,,,,,,,,,54,,,,,,,,,,,,,,51.88000000000466,,response,,,,100,,,,,,,Space,keypress(Space),,,,,,,,-- --- ---- --- ------ ----- ------- ---- -- --- ------- --<br>------- ---------- ------ -- ----- -- ----- -- ---- ------<br>--- ----- --- --- ------ -------- ----- --- market ----- --<br>----- ----- ---------- --- --- ------ ------ ---- -- ------<br>------- --- ------ ----- --- ---- ------- -- ---- --- --<br>------- ------,227291,227280,227225.82,227226,227228.12,227294.78,,30,market
screen,html.Screen,2_1_1_1_31,2022-02-02T14:45:34.633Z,,,,,,,,,,,,,,,,,54,,,,,,,,,,,,,,2579.220000000001,,response,,,,100,,,,,,,Space,keypress(Space),,,,,,,,-- --- ---- --- ------ ----- ------- ---- -- --- ------- --<br>------- ---------- ------ -- ----- -- ----- -- ---- ------<br>--- ----- --- --- ------ -------- ----- --- ------ value --<br>----- ----- ---------- --- --- ------ ------ ---- -- ------<br>------- --- ------ ----- --- ---- ------- -- ---- --- --<br>------- ------,229888,229874,227290.96,227291,227294.78,229894.84,,31,value
screen,html.Screen,2_1_1_1_32,2022-02-02T14:45:35.055Z,,,,,,,,,,,,,,,,,54,,,,,,,,,,,,,,401.1600000000035,,response,,,,100,,,,,,,Space,keypress(Space),,,,,,,,-- --- ---- --- ------ ----- ------- ---- -- --- ------- --<br>------- ---------- ------ -- ----- -- ----- -- ---- ------<br>--- ----- --- --- ------ -------- ----- --- ------ ----- of<br>----- ----- ---------- --- --- ------ ------ ---- -- ------<br>------- --- ------ ----- --- ---- ------- -- ---- --- --<br>------- ------,230310,230296,229887.74,229888,229894.84,230311.5,,32,of
screen,html.Screen,2_1_1_1_33,2022-02-02T14:45:35.587Z,,,,,,,,,,,,,,,,,54,,,,,,,,,,,,,,515.5,,response,,,,100,,,,,,,Space,keypress(Space),,,,,,,,-- --- ---- --- ------ ----- ------- ---- -- --- ------- --<br>------- ---------- ------ -- ----- -- ----- -- ---- ------<br>--- ----- --- --- ------ -------- ----- --- ------ ----- --<br>these ----- ---------- --- --- ------ ------ ---- -- ------<br>------- --- ------ ----- --- ---- ------- -- ---- --- --<br>------- ------,230842,230827,230309.84,230310,230311.5,230844.84,,33,these
screen,html.Screen,2_1_1_1_34,2022-02-02T14:45:36.004Z,,,,,,,,,,,,,,,,,54,,,,,,,,,,,,,,404.1600000000035,,response,,,,100,,,,,,,Space,keypress(Space),,,,,,,,-- --- ---- --- ------ ----- ------- ---- -- --- ------- --<br>------- ---------- ------ -- ----- -- ----- -- ---- ------<br>--- ----- --- --- ------ -------- ----- --- ------ ----- --<br>----- bonds ---------- --- --- ------ ------ ---- -- ------<br>------- --- ------ ----- --- ---- ------- -- ---- --- --<br>------- ------,231259,231249,230841.78,230842,230844.84,231261.52,,34,bonds
screen,html.Screen,2_1_1_1_35,2022-02-02T14:45:36.429Z,,,,,,,,,,,,,,,,,54,,,,,,,,,,,,,,409.4800000000105,,response,,,,100,,,,,,,Space,keypress(Space),,,,,,,,"-- --- ---- --- ------ ----- ------- ---- -- --- ------- --<br>------- ---------- ------ -- ----- -- ----- -- ---- ------<br>--- ----- --- --- ------ -------- ----- --- ------ ----- --<br>----- ----- plummeted, --- --- ------ ------ ---- -- ------<br>------- --- ------ ----- --- ---- ------- -- ---- --- --<br>------- ------",231683,231671,231258.96,231259,231261.52,231686.52,,35,"plummeted,"
screen,html.Screen,2_1_1_1_36,2022-02-02T14:45:36.828Z,,,,,,,,,,,,,,,,,54,,,,,,,,,,,,,,390.4800000000105,,response,,,,100,,,,,,,Space,keypress(Space),,,,,,,,-- --- ---- --- ------ ----- ------- ---- -- --- ------- --<br>------- ---------- ------ -- ----- -- ----- -- ---- ------<br>--- ----- --- --- ------ -------- ----- --- ------ ----- --<br>----- ----- ---------- and --- ------ ------ ---- -- ------<br>------- --- ------ ----- --- ---- ------- -- ---- --- --<br>------- ------,232083,232077,231683.7,231683,231686.52,232086.54,,36,and
screen,html.Screen,2_1_1_1_37,2022-02-02T14:45:37.188Z,,,,,,,,,,,,,,,,,54,,,,,,,,,,,,,,349.45999999999185,,response,,,,100,,,,,,,Space,keypress(Space),,,,,,,,-- --- ---- --- ------ ----- ------- ---- -- --- ------- --<br>------- ---------- ------ -- ----- -- ----- -- ---- ------<br>--- ----- --- --- ------ -------- ----- --- ------ ----- --<br>----- ----- ---------- --- the ------ ------ ---- -- ------<br>------- --- ------ ----- --- ---- ------- -- ---- --- --<br>------- ------,232442,232436,232083.36,232083,232086.54,232444.88,,37,the
screen,html.Screen,2_1_1_1_38,2022-02-02T14:45:37.525Z,,,,,,,,,,,,,,,,,54,,,,,,,,,,,,,,319.11999999999534,,response,,,,100,,,,,,,Space,keypress(Space),,,,,,,,-- --- ---- --- ------ ----- ------- ---- -- --- ------- --<br>------- ---------- ------ -- ----- -- ----- -- ---- ------<br>--- ----- --- --- ------ -------- ----- --- ------ ----- --<br>----- ----- ---------- --- --- market ------ ---- -- ------<br>------- --- ------ ----- --- ---- ------- -- ---- --- --<br>------- ------,232781,232764,232442.74,232442,232444.88,232786.54,,38,market
screen,html.Screen,2_1_1_1_39,2022-02-02T14:45:37.884Z,,,,,,,,,,,,,,,,,54,,,,,,,,,,,,,,337.45999999999185,,response,,,,100,,,,,,,Space,keypress(Space),,,,,,,,-- --- ---- --- ------ ----- ------- ---- -- --- ------- --<br>------- ---------- ------ -- ----- -- ----- -- ---- ------<br>--- ----- --- --- ------ -------- ----- --- ------ ----- --<br>----- ----- ---------- --- --- ------ became ---- -- ------<br>------- --- ------ ----- --- ---- ------- -- ---- --- --<br>------- ------,233139,233124,232780.82,232781,232786.54,233144.88,,39,became
screen,html.Screen,2_1_1_1_40,2022-02-02T14:45:38.255Z,,,,,,,,,,,,,,,,,54,,,,,,,,,,,,,,354.11999999999534,,response,,,,100,,,,,,,Space,keypress(Space),,,,,,,,-- --- ---- --- ------ ----- ------- ---- -- --- ------- --<br>------- ---------- ------ -- ----- -- ----- -- ---- ------<br>--- ----- --- --- ------ -------- ----- --- ------ ----- --<br>----- ----- ---------- --- --- ------ ------ wary -- ------<br>------- --- ------ ----- --- ---- ------- -- ---- --- --<br>------- ------,233510,233499,233139.28,233139,233144.88,233511.56,,40,wary
screen,html.Screen,2_1_1_1_41,2022-02-02T14:45:38.652Z,,,,,,,,,,,,,,,,,54,,,,,,,,,,,,,,393.4400000000023,,response,,,,100,,,,,,,Space,keypress(Space),,,,,,,,-- --- ---- --- ------ ----- ------- ---- -- --- ------- --<br>------- ---------- ------ -- ----- -- ----- -- ---- ------<br>--- ----- --- --- ------ -------- ----- --- ------ ----- --<br>----- ----- ---------- --- --- ------ ------ ---- of ------<br>------- --- ------ ----- --- ---- ------- -- ---- --- --<br>------- ------,233906,233905,233509.6,233510,233511.56,233911.56,,41,of
screen,html.Screen,2_1_1_1_42,2022-02-02T14:45:39.038Z,,,,,,,,,,,,,,,,,54,,,,,,,,,,,,,,368.4400000000023,,response,,,,100,,,,,,,Space,keypress(Space),,,,,,,,-- --- ---- --- ------ ----- ------- ---- -- --- ------- --<br>------- ---------- ------ -- ----- -- ----- -- ---- ------<br>--- ----- --- --- ------ -------- ----- --- ------ ----- --<br>----- ----- ---------- --- --- ------ ------ ---- -- French<br>------- --- ------ ----- --- ---- ------- -- ---- --- --<br>------- ------,234292,234280,233906.72,233907,233911.56,234294.9,,42,French
screen,html.Screen,2_1_1_1_43,2022-02-02T14:45:39.360Z,,,,,,,,,,,,,,,,,54,,,,,,,,,,,,,,313.1000000000058,,response,,,,100,,,,,,,Space,keypress(Space),,,,,,,,-- --- ---- --- ------ ----- ------- ---- -- --- ------- --<br>------- ---------- ------ -- ----- -- ----- -- ---- ------<br>--- ----- --- --- ------ -------- ----- --- ------ ----- --<br>----- ----- ---------- --- --- ------ ------ ---- -- ------<br>credit. --- ------ ----- --- ---- ------- -- ---- --- --<br>------- ------,234616,234608,234292.76,234292,234294.9,234619.9,,43,credit.
screen,html.Screen,2_1_1_1_44,2022-02-02T14:45:39.758Z,,,,,,,,,,,,,,,,,54,,,,,,,,,,,,,,379.1000000000058,,response,,,,100,,,,,,,Space,keypress(Space),,,,,,,,-- --- ---- --- ------ ----- ------- ---- -- --- ------- --<br>------- ---------- ------ -- ----- -- ----- -- ---- ------<br>--- ----- --- --- ------ -------- ----- --- ------ ----- --<br>----- ----- ---------- --- --- ------ ------ ---- -- ------<br>------- The ------ ----- --- ---- ------- -- ---- --- --<br>------- ------,235013,234999,234615.7,234616,234619.9,235019.92,,44,The
screen,html.Screen,2_1_1_1_45,2022-02-02T14:45:40.076Z,,,,,,,,,,,,,,,,,54,,,,,,,,,,,,,,307.0799999999872,,response,,,,100,,,,,,,Space,keypress(Space),,,,,,,,-- --- ---- --- ------ ----- ------- ---- -- --- ------- --<br>------- ---------- ------ -- ----- -- ----- -- ---- ------<br>--- ----- --- --- ------ -------- ----- --- ------ ----- --<br>----- ----- ---------- --- --- ------ ------ ---- -- ------<br>------- --- French ----- --- ---- ------- -- ---- --- --<br>------- ------,235331,235327,235012.92,235013,235019.92,235336.58,,45,French
screen,html.Screen,2_1_1_1_46,2022-02-02T14:45:40.406Z,,,,,,,,,,,,,,,,,54,,,,,,,,,,,,,,318.4200000000128,,response,,,,100,,,,,,,Space,keypress(Space),,,,,,,,-- --- ---- --- ------ ----- ------- ---- -- --- ------- --<br>------- ---------- ------ -- ----- -- ----- -- ---- ------<br>--- ----- --- --- ------ -------- ----- --- ------ ----- --<br>----- ----- ---------- --- --- ------ ------ ---- -- ------<br>------- --- ------ state --- ---- ------- -- ---- --- --<br>------- ------,235660,235655,235331,235331,235336.58,235661.6,,46,state
screen,html.Screen,2_1_1_1_47,2022-02-02T14:45:40.749Z,,,,,,,,,,,,,,,,,54,,,,,,,,,,,,,,337.3999999999942,,response,,,,100,,,,,,,Space,keypress(Space),,,,,,,,-- --- ---- --- ------ ----- ------- ---- -- --- ------- --<br>------- ---------- ------ -- ----- -- ----- -- ---- ------<br>--- ----- --- --- ------ -------- ----- --- ------ ----- --<br>----- ----- ---------- --- --- ------ ------ ---- -- ------<br>------- --- ------ ----- was ---- ------- -- ---- --- --<br>------- ------,236004,235999,235660.82,235660,235661.6,236011.6,,47,was
screen,html.Screen,2_1_1_1_48,2022-02-02T14:45:41.070Z,,,,,,,,,,,,,,,,,54,,,,,,,,,,,,,,299.3999999999942,,response,,,,100,,,,,,,Space,keypress(Space),,,,,,,,-- --- ---- --- ------ ----- ------- ---- -- --- ------- --<br>------- ---------- ------ -- ----- -- ----- -- ---- ------<br>--- ----- --- --- ------ -------- ----- --- ------ ----- --<br>----- ----- ---------- --- --- ------ ------ ---- -- ------<br>------- --- ------ ----- --- left ------- -- ---- --- --<br>------- ------,236325,236311,236003.8,236004,236011.6,236328.28,,48,left
screen,html.Screen,2_1_1_1_49,2022-02-02T14:45:41.388Z,,,,,,,,,,,,,,,,,54,,,,,,,,,,,,,,310.72000000000116,,response,,,,100,,,,,,,Space,keypress(Space),,,,,,,,-- --- ---- --- ------ ----- ------- ---- -- --- ------- --<br>------- ---------- ------ -- ----- -- ----- -- ---- ------<br>--- ----- --- --- ------ -------- ----- --- ------ ----- --<br>----- ----- ---------- --- --- ------ ------ ---- -- ------<br>------- --- ------ ----- --- ---- without -- ---- --- --<br>------- ------,236642,236639,236324.72,236325,236328.28,236644.94,,49,without
screen,html.Screen,2_1_1_1_50,2022-02-02T14:45:41.689Z,,,,,,,,,,,,,,,,,54,,,,,,,,,,,,,,290.0599999999977,,response,,,,100,,,,,,,Space,keypress(Space),,,,,,,,-- --- ---- --- ------ ----- ------- ---- -- --- ------- --<br>------- ---------- ------ -- ----- -- ----- -- ---- ------<br>--- ----- --- --- ------ -------- ----- --- ------ ----- --<br>----- ----- ---------- --- --- ------ ------ ---- -- ------<br>------- --- ------ ----- --- ---- ------- an ---- --- --<br>------- ------,236944,236935,236642.8,236642,236644.94,236944.94,,50,an
screen,html.Screen,2_1_1_1_51,2022-02-02T14:45:42.027Z,,,,,,,,,,,,,,,,,54,,,,,,,,,,,,,,335.0599999999977,,response,,,,100,,,,,,,Space,keypress(Space),,,,,,,,-- --- ---- --- ------ ----- ------- ---- -- --- ------- --<br>------- ---------- ------ -- ----- -- ----- -- ---- ------<br>--- ----- --- --- ------ -------- ----- --- ------ ----- --<br>----- ----- ---------- --- --- ------ ------ ---- -- ------<br>------- --- ------ ----- --- ---- ------- -- easy --- --<br>------- ------,237281,237280,236943.8,236944,236944.94,237286.62,,51,easy
screen,html.Screen,2_1_1_1_52,2022-02-02T14:45:42.328Z,,,,,,,,,,,,,,,,,54,,,,,,,,,,,,,,290.38000000000466,,response,,,,100,,,,,,,Space,keypress(Space),,,,,,,,-- --- ---- --- ------ ----- ------- ---- -- --- ------- --<br>------- ---------- ------ -- ----- -- ----- -- ---- ------<br>--- ----- --- --- ------ -------- ----- --- ------ ----- --<br>----- ----- ---------- --- --- ------ ------ ---- -- ------<br>------- --- ------ ----- --- ---- ------- -- ---- way --<br>------- ------,237582,237577,237281.84,237281,237286.62,237586.62,,52,way
screen,html.Screen,2_1_1_1_53,2022-02-02T14:45:42.669Z,,,,,,,,,,,,,,,,,54,,,,,,,,,,,,,,334.38000000000466,,response,,,,100,,,,,,,Space,keypress(Space),,,,,,,,-- --- ---- --- ------ ----- ------- ---- -- --- ------- --<br>------- ---------- ------ -- ----- -- ----- -- ---- ------<br>--- ----- --- --- ------ -------- ----- --- ------ ----- --<br>----- ----- ---------- --- --- ------ ------ ---- -- ------<br>------- --- ------ ----- --- ---- ------- -- ---- --- of<br>------- ------,237924,237921,237582.82,237582,237586.62,237928.3,,53,of
screen,html.Screen,2_1_1_1_54,2022-02-02T14:45:43.030Z,,,,,,,,,,,,,,,,,54,,,,,,,,,,,,,,351.70000000001164,,response,,,,100,,,,,,,Space,keypress(Space),,,,,,,,-- --- ---- --- ------ ----- ------- ---- -- --- ------- --<br>------- ---------- ------ -- ----- -- ----- -- ---- ------<br>--- ----- --- --- ------ -------- ----- --- ------ ----- --<br>----- ----- ---------- --- --- ------ ------ ---- -- ------<br>------- --- ------ ----- --- ---- ------- -- ---- --- --<br>raising ------,238286,238280,237924.98,237925,237928.3,238286.64,,54,raising
screen,html.Screen,2_1_1_1_55,2022-02-02T14:45:43.355Z,,,,,,,,,,,,,,,,,54,,,,,,,,,,,,,,306.35999999998603,,response,,,,100,,,,,,,Space,keypress(Space),,,,,,,,-- --- ---- --- ------ ----- ------- ---- -- --- ------- --<br>------- ---------- ------ -- ----- -- ----- -- ---- ------<br>--- ----- --- --- ------ -------- ----- --- ------ ----- --<br>----- ----- ---------- --- --- ------ ------ ---- -- ------<br>------- --- ------ ----- --- ---- ------- -- ---- --- --<br>------- money.,238610,238593,238285.9,238286,238286.64,238611.64,,55,money.
Item 100,flow.Loop,2_1_1_1,2022-02-02T14:45:43.356Z,,,,,,,,,,,,,,,,,,,,,,,,,,,,,,,27923.48000000001,,completion,,,,,C,,,,,,,,,,,silence,,,,,238611,238593,210661.18,210662,210669.52,238611.64,,,
Question 1,html.Screen,2_1_1_2,2022-02-02T14:45:46.860Z,,,,,,,,,,,,,,,,,,,,,,,,,,,,true,TRUE,,3496.359999999986,,response,,,,100,C,,,,,,TRUE,click #choice-1,,,,silence,,,,,242115,242108,238610.98,238611,238611.64,242120.04,,,
Question 2,html.Screen,2_1_1_3,2022-02-02T14:45:49.448Z,,,,,,,,,,,,,,,,,,,,,,,,,,,,true,FALSE,,2565.959999999992,,response,,,,100,C,,,,,,FALSE,click #choice-2,,,,silence,,,,,244703,244686,242114.14,242115,242120.04,244703.42,,,
Item 100,flow.Sequence,2_1_1,2022-02-02T14:45:49.449Z,,,,,,,,,,,,,,,,,,,,,,,,,,,,,,,44016.66,,completion,,,,,,,,,,,,,,,,,,,,,244703,244686,200666.42,200668,200669.34,244703.42,,,
End of Practice,html.Page,2_1_2,2022-02-02T14:45:58.873Z,,,,,,,,,,,,,,,,,,,,,,,,,,,,,,,9423.579999999987,,form submission,,,,,,,,,,,,,,,,,,,,,254128,254127,244702.42,244703,244703.42,254128.56,,,
Practice,flow.Sequence,2_1,2022-02-02T14:45:58.874Z,,,,,,,,,,,,,,,,,,,,,,,,,,,,,,,96001.22,,completion,,,,,,,,,,,,,,,,,,,,,254128,254127,158122.7,158127,158125.78,254128.56,,,
Trap_instruction,html.Page,2_2_0,2022-02-02T14:46:04.368Z,,,,,,,,,,,,,,,,,,,,,,,,,,,,,,,5494.440000000002,,form submission,,,,,,,,,,,,,,,,,,,,,259624,259623,254125.5,254128,254128.56,259630.6,,,
trap_trial,html.Screen,2_2_1,2022-02-02T14:46:06.981Z,,,,,,,,,,,,,,,,,,,,,,,,,,,,true,1,,2602.399999999994,,response,,,,,,,,,,,1,click #choice-1,,,,,,,,,262237,262233,259621,259624,259630.6,262238.98,,,
end of trap trial,html.Page,2_2_2,2022-02-02T14:46:08.575Z,,,,,,,,,,,,,,,,,,,,,,,,,,,,,,,1590.0200000000186,,form submission,,,,,,,,,,,,,,,,,,,,,263829,263829,262235.98,262237,262238.98,263830.68,,,
Trap 1,flow.Sequence,2_2,2022-02-02T14:46:08.575Z,,,,,,,,,,,,,,,,,,,,,,,,,,,,,,,9700.440000000002,,completion,,,,,,,,,,,,,,,,,,,,,263829,263829,254125.5,254128,254128.56,263830.68,,,
Standby,html.Page,2_3_0,2022-02-02T14:46:16.569Z,,,,,,,,,,,,,,,,,,,,,,,,,,,,,,,8000.119999999995,,timeout,,,,,,,,,,,,,,,,,,,,,271823,271822.48,263827,263830,263830.68,271830.8,,,
Holding screen,html.Screen,2_3_1_0_0,2022-02-02T14:46:23.569Z,,,,,,,,,,,,,,,,,,,,,,,,,,,,,,,7000.119999999995,,timeout,,,,,,,,,,,,,,,,,,,,,278823,278822.6,271822.48,271824,271830.8,278830.92,,,
screen,html.Screen,2_3_1_0_1_0,2022-02-02T14:46:24.502Z,,,,,,,,,,,,,,,,,51,,,,,,,,,,,,,,918.0800000000163,,response,,,,13,C,,,,,,Space,keypress(Space),,,,instrumental,,,,American -------- --- --- ---- --- --- ------ -- --------<br>---- --------- --- ------- ------------ ---------- ---------<br>--- ---------- ------- ---------- ------- -- -------- ----<br>---- --- ------ ----- ------ -- ---- --- ----- -- - -------<br>-------- -- --- --- -- ----- ----------- ----- -----------<br>---- --- ---------- --- ---- --- -- ----------,279756,279749,278822.6,278824,278830.92,279764.28,,0,American
screen,html.Screen,2_3_1_0_1_1,2022-02-02T14:46:24.918Z,,,,,,,,,,,,,,,,,51,,,,,,,,,,,,,,406.71999999997206,,response,,,,13,C,,,,,,Space,keypress(Space),,,,instrumental,,,,-------- industry --- --- ---- --- --- ------ -- --------<br>---- --------- --- ------- ------------ ---------- ---------<br>--- ---------- ------- ---------- ------- -- -------- ----<br>---- --- ------ ----- ------ -- ---- --- ----- -- - -------<br>-------- -- --- --- -- ----- ----------- ----- -----------<br>---- --- ---------- --- ---- --- -- ----------,280172,280171,279756.66,279756,279764.28,280180.94,,1,industry
screen,html.Screen,2_3_1_0_1_2,2022-02-02T14:46:25.384Z,,,,,,,,,,,,,,,,,51,,,,,,,,,,,,,,443.0599999999977,,response,,,,13,C,,,,,,Space,keypress(Space),,,,instrumental,,,,-------- -------- may --- ---- --- --- ------ -- --------<br>---- --------- --- ------- ------------ ---------- ---------<br>--- ---------- ------- ---------- ------- -- -------- ----<br>---- --- ------ ----- ------ -- ---- --- ----- -- - -------<br>-------- -- --- --- -- ----- ----------- ----- -----------<br>---- --- ---------- --- ---- --- -- ----------,280639,280624,280172.62,280172,280180.94,280647.62,,2,may
screen,html.Screen,2_3_1_0_1_3,2022-02-02T14:46:25.850Z,,,,,,,,,,,,,,,,,51,,,,,,,,,,,,,,445.38000000000466,,response,,,,13,C,,,,,,Space,keypress(Space),,,,instrumental,,,,-------- -------- --- not ---- --- --- ------ -- --------<br>---- --------- --- ------- ------------ ---------- ---------<br>--- ---------- ------- ---------- ------- -- -------- ----<br>---- --- ------ ----- ------ -- ---- --- ----- -- - -------<br>-------- -- --- --- -- ----- ----------- ----- -----------<br>---- --- ---------- --- ---- --- -- ----------,281104,281093,280639.46,280639,280647.62,281105.96,,3,not
screen,html.Screen,2_3_1_0_1_4,2022-02-02T14:46:26.361Z,,,,,,,,,,,,,,,,,51,,,,,,,,,,,,,,502.03999999997905,,response,,,,13,C,,,,,,Space,keypress(Space),,,,instrumental,,,,-------- -------- --- --- know --- --- ------ -- --------<br>---- --------- --- ------- ------------ ---------- ---------<br>--- ---------- ------- ---------- ------- -- -------- ----<br>---- --- ------ ----- ------ -- ---- --- ----- -- - -------<br>-------- -- --- --- -- ----- ----------- ----- -----------<br>---- --- ---------- --- ---- --- -- ----------,281616,281608,281104.5,281105,281105.96,281622.64,,4,know
screen,html.Screen,2_3_1_0_1_5,2022-02-02T14:46:26.949Z,,,,,,,,,,,,,,,,,51,,,,,,,,,,,,,,579.359999999986,,response,,,,13,C,,,,,,Space,keypress(Space),,,,instrumental,,,,"-------- -------- --- --- ---- it, --- ------ -- --------<br>---- --------- --- ------- ------------ ---------- ---------<br>--- ---------- ------- ---------- ------- -- -------- ----<br>---- --- ------ ----- ------ -- ---- --- ----- -- - -------<br>-------- -- --- --- -- ----- ----------- ----- -----------<br>---- --- ---------- --- ---- --- -- ----------",282205,282202,281616.64,281616,281622.64,282205.98,,5,"it,"
screen,html.Screen,2_3_1_0_1_6,2022-02-02T14:46:27.374Z,,,,,,,,,,,,,,,,,51,,,,,,,,,,,,,,418.0200000000186,,response,,,,13,C,,,,,,Space,keypress(Space),,,,instrumental,,,,-------- -------- --- --- ---- --- but ------ -- --------<br>---- --------- --- ------- ------------ ---------- ---------<br>--- ---------- ------- ---------- ------- -- -------- ----<br>---- --- ------ ----- ------ -- ---- --- ----- -- - -------<br>-------- -- --- --- -- ----- ----------- ----- -----------<br>---- --- ---------- --- ---- --- -- ----------,282629,282624,282204.44,282205,282205.98,282630.98,,6,but
screen,html.Screen,2_3_1_0_1_7,2022-02-02T14:46:28.132Z,,,,,,,,,,,,,,,,,51,,,,,,,,,,,,,,743.0200000000186,,response,,,,13,C,,,,,,Space,keypress(Space),,,,instrumental,,,,-------- -------- --- --- ---- --- --- debate -- --------<br>---- --------- --- ------- ------------ ---------- ---------<br>--- ---------- ------- ---------- ------- -- -------- ----<br>---- --- ------ ----- ------ -- ---- --- ----- -- - -------<br>-------- -- --- --- -- ----- ----------- ----- -----------<br>---- --- ---------- --- ---- --- -- ----------,283387,283374,282629.38,282629,282630.98,283389.34,,7,debate
screen,html.Screen,2_3_1_0_1_8,2022-02-02T14:46:28.529Z,,,,,,,,,,,,,,,,,51,,,,,,,,,,,,,,390.6599999999744,,response,,,,13,C,,,,,,Space,keypress(Space),,,,instrumental,,,,-------- -------- --- --- ---- --- --- ------ in --------<br>---- --------- --- ------- ------------ ---------- ---------<br>--- ---------- ------- ---------- ------- -- -------- ----<br>---- --- ------ ----- ------ -- ---- --- ----- -- - -------<br>-------- -- --- --- -- ----- ----------- ----- -----------<br>---- --- ---------- --- ---- --- -- ----------,283783,283780,283386.92,283387,283389.34,283789.34,,8,in
screen,html.Screen,2_3_1_0_1_9,2022-02-02T14:46:28.962Z,,,,,,,,,,,,,,,,,51,,,,,,,,,,,,,,412.6599999999744,,response,,,,13,C,,,,,,Space,keypress(Space),,,,instrumental,,,,-------- -------- --- --- ---- --- --- ------ -- Congress<br>---- --------- --- ------- ------------ ---------- ---------<br>--- ---------- ------- ---------- ------- -- -------- ----<br>---- --- ------ ----- ------ -- ---- --- ----- -- - -------<br>-------- -- --- --- -- ----- ----------- ----- -----------<br>---- --- ---------- --- ---- --- -- ----------,284218,284202,283783.58,283783,283789.34,284222.68,,9,Congress
screen,html.Screen,2_3_1_0_1_10,2022-02-02T14:46:29.361Z,,,,,,,,,,,,,,,,,51,,,,,,,,,,,,,,385.320000000007,,response,,,,13,C,,,,,,Space,keypress(Space),,,,instrumental,,,,-------- -------- --- --- ---- --- --- ------ -- --------<br>over --------- --- ------- ------------ ---------- ---------<br>--- ---------- ------- ---------- ------- -- -------- ----<br>---- --- ------ ----- ------ -- ---- --- ----- -- - -------<br>-------- -- --- --- -- ----- ----------- ----- -----------<br>---- --- ---------- --- ---- --- -- ----------,284617,284608,284218.02,284218,284222.68,284622.68,,10,over
screen,html.Screen,2_3_1_0_1_11,2022-02-02T14:46:29.789Z,,,,,,,,,,,,,,,,,51,,,,,,,,,,,,,,407.320000000007,,response,,,,13,C,,,,,,Space,keypress(Space),,,,instrumental,,,,-------- -------- --- --- ---- --- --- ------ -- --------<br>---- reforming --- ------- ------------ ---------- ---------<br>--- ---------- ------- ---------- ------- -- -------- ----<br>---- --- ------ ----- ------ -- ---- --- ----- -- - -------<br>-------- -- --- --- -- ----- ----------- ----- -----------<br>---- --- ---------- --- ---- --- -- ----------,285044,285030,284616.62,284617,284622.68,285047.7,,11,reforming
screen,html.Screen,2_3_1_0_1_12,2022-02-02T14:46:30.197Z,,,,,,,,,,,,,,,,,51,,,,,,,,,,,,,,388.29999999998836,,response,,,,13,C,,,,,,Space,keypress(Space),,,,instrumental,,,,-------- -------- --- --- ---- --- --- ------ -- --------<br>---- --------- the ------- ------------ ---------- ---------<br>--- ---------- ------- ---------- ------- -- -------- ----<br>---- --- ------ ----- ------ -- ---- --- ----- -- - -------<br>-------- -- --- --- -- ----- ----------- ----- -----------<br>---- --- ---------- --- ---- --- -- ----------,285452,285436,285044.4,285044,285047.7,285456.04,,12,the
screen,html.Screen,2_3_1_0_1_13,2022-02-02T14:46:30.580Z,,,,,,,,,,,,,,,,,51,,,,,,,,,,,,,,370.96000000002095,,response,,,,13,C,,,,,,Space,keypress(Space),,,,instrumental,,,,-------- -------- --- --- ---- --- --- ------ -- --------<br>---- --------- --- federal ------------ ---------- ---------<br>--- ---------- ------- ---------- ------- -- -------- ----<br>---- --- ------ ----- ------ -- ---- --- ----- -- - -------<br>-------- -- --- --- -- ----- ----------- ----- -----------<br>---- --- ---------- --- ---- --- -- ----------,285836,285827,285452.5,285453,285456.04,285839.38,,13,federal
screen,html.Screen,2_3_1_0_1_14,2022-02-02T14:46:31.054Z,,,,,,,,,,,,,,,,,51,,,,,,,,,,,,,,456.61999999999534,,response,,,,13,C,,,,,,Space,keypress(Space),,,,instrumental,,,,-------- -------- --- --- ---- --- --- ------ -- --------<br>---- --------- --- ------- government's ---------- ---------<br>--- ---------- ------- ---------- ------- -- -------- ----<br>---- --- ------ ----- ------ -- ---- --- ----- -- - -------<br>-------- -- --- --- -- ----- ----------- ----- -----------<br>---- --- ---------- --- ---- --- -- ----------,286308,286296,285835.68,285836,285839.38,286314.38,,14,government's
screen,html.Screen,2_3_1_0_1_15,2022-02-02T14:46:31.450Z,,,,,,,,,,,,,,,,,51,,,,,,,,,,,,,,387.61999999999534,,response,,,,13,C,,,,,,Space,keypress(Space),,,,instrumental,,,,-------- -------- --- --- ---- --- --- ------ -- --------<br>---- --------- --- ------- ------------ regulatory ---------<br>--- ---------- ------- ---------- ------- -- -------- ----<br>---- --- ------ ----- ------ -- ---- --- ----- -- - -------<br>-------- -- --- --- -- ----- ----------- ----- -----------<br>---- --- ---------- --- ---- --- -- ----------,286705,286702,286308.64,286309,286314.38,286706.06,,15,regulatory
screen,html.Screen,2_3_1_0_1_16,2022-02-02T14:46:31.873Z,,,,,,,,,,,,,,,,,51,,,,,,,,,,,,,,417.9400000000023,,response,,,,13,C,,,,,,Space,keypress(Space),,,,instrumental,,,,-------- -------- --- --- ---- --- --- ------ -- --------<br>---- --------- --- ------- ------------ ---------- apparatus<br>--- ---------- ------- ---------- ------- -- -------- ----<br>---- --- ------ ----- ------ -- ---- --- ----- -- - -------<br>-------- -- --- --- -- ----- ----------- ----- -----------<br>---- --- ---------- --- ---- --- -- ----------,287127,287124,286705.58,286706,286706.06,287131.06,,16,apparatus
screen,html.Screen,2_3_1_0_1_17,2022-02-02T14:46:32.320Z,,,,,,,,,,,,,,,,,51,,,,,,,,,,,,,,429.9400000000023,,response,,,,13,C,,,,,,Space,keypress(Space),,,,instrumental,,,,-------- -------- --- --- ---- --- --- ------ -- --------<br>---- --------- --- ------- ------------ ---------- ---------<br>may ---------- ------- ---------- ------- -- -------- ----<br>---- --- ------ ----- ------ -- ---- --- ----- -- - -------<br>-------- -- --- --- -- ----- ----------- ----- -----------<br>---- --- ---------- --- ---- --- -- ----------,287575,287561,287127.68,287127,287131.06,287581.08,,17,may
screen,html.Screen,2_3_1_0_1_18,2022-02-02T14:46:32.781Z,,,,,,,,,,,,,,,,,51,,,,,,,,,,,,,,448.9199999999837,,response,,,,13,C,,,,,,Space,keypress(Space),,,,instrumental,,,,-------- -------- --- --- ---- --- --- ------ -- --------<br>---- --------- --- ------- ------------ ---------- ---------<br>--- profoundly ------- ---------- ------- -- -------- ----<br>---- --- ------ ----- ------ -- ---- --- ----- -- - -------<br>-------- -- --- --- -- ----- ----------- ----- -----------<br>---- --- ---------- --- ---- --- -- ----------,288036,288030,287574.94,287575,287581.08,288039.42,,18,profoundly
screen,html.Screen,2_3_1_0_1_19,2022-02-02T14:46:33.198Z,,,,,,,,,,,,,,,,,51,,,,,,,,,,,,,,396.5800000000163,,response,,,,13,C,,,,,,Space,keypress(Space),,,,instrumental,,,,-------- -------- --- --- ---- --- --- ------ -- --------<br>---- --------- --- ------- ------------ ---------- ---------<br>--- ---------- improve ---------- ------- -- -------- ----<br>---- --- ------ ----- ------ -- ---- --- ----- -- - -------<br>-------- -- --- --- -- ----- ----------- ----- -----------<br>---- --- ---------- --- ---- --- -- ----------,288452,288436,288036.68,288036,288039.42,288456.08,,19,improve
screen,html.Screen,2_3_1_0_1_20,2022-02-02T14:46:33.637Z,,,,,,,,,,,,,,,,,51,,,,,,,,,,,,,,432.9199999999837,,response,,,,13,C,,,,,,Space,keypress(Space),,,,instrumental,,,,-------- -------- --- --- ---- --- --- ------ -- --------<br>---- --------- --- ------- ------------ ---------- ---------<br>--- ---------- ------- companies' ------- -- -------- ----<br>---- --- ------ ----- ------ -- ---- --- ----- -- - -------<br>-------- -- --- --- -- ----- ----------- ----- -----------<br>---- --- ---------- --- ---- --- -- ----------,288892,288889,288452.72,288452,288456.08,288897.76,,20,companies'
screen,html.Screen,2_3_1_0_1_21,2022-02-02T14:46:34.064Z,,,,,,,,,,,,,,,,,51,,,,,,,,,,,,,,413.2399999999907,,response,,,,13,C,,,,,,Space,keypress(Space),,,,instrumental,,,,-------- -------- --- --- ---- --- --- ------ -- --------<br>---- --------- --- ------- ------------ ---------- ---------<br>--- ---------- ------- ---------- ability -- -------- ----<br>---- --- ------ ----- ------ -- ---- --- ----- -- - -------<br>-------- -- --- --- -- ----- ----------- ----- -----------<br>---- --- ---------- --- ---- --- -- ----------,289320,289311,288891.7,288892,288897.76,289322.76,,21,ability
screen,html.Screen,2_3_1_0_1_22,2022-02-02T14:46:34.464Z,,,,,,,,,,,,,,,,,51,,,,,,,,,,,,,,395.2399999999907,,response,,,,13,C,,,,,,Space,keypress(Space),,,,instrumental,,,,-------- -------- --- --- ---- --- --- ------ -- --------<br>---- --------- --- ------- ------------ ---------- ---------<br>--- ---------- ------- ---------- ------- to -------- ----<br>---- --- ------ ----- ------ -- ---- --- ----- -- - -------<br>-------- -- --- --- -- ----- ----------- ----- -----------<br>---- --- ---------- --- ---- --- -- ----------,289720,289718,289319.66,289320,289322.76,289722.78,,22,to
screen,html.Screen,2_3_1_0_1_23,2022-02-02T14:46:34.918Z,,,,,,,,,,,,,,,,,51,,,,,,,,,,,,,,448.21999999997206,,response,,,,13,C,,,,,,Space,keypress(Space),,,,instrumental,,,,-------- -------- --- --- ---- --- --- ------ -- --------<br>---- --------- --- ------- ------------ ---------- ---------<br>--- ---------- ------- ---------- ------- -- survive. ----<br>---- --- ------ ----- ------ -- ---- --- ----- -- - -------<br>-------- -- --- --- -- ----- ----------- ----- -----------<br>---- --- ---------- --- ---- --- -- ----------,290173,290171,289719.82,289720,289722.78,290181.12,,23,survive.
screen,html.Screen,2_3_1_0_1_24,2022-02-02T14:46:35.370Z,,,,,,,,,,,,,,,,,51,,,,,,,,,,,,,,442.88000000000466,,response,,,,13,C,,,,,,Space,keypress(Space),,,,instrumental,,,,-------- -------- --- --- ---- --- --- ------ -- --------<br>---- --------- --- ------- ------------ ---------- ---------<br>--- ---------- ------- ---------- ------- -- -------- This<br>---- --- ------ ----- ------ -- ---- --- ----- -- - -------<br>-------- -- --- --- -- ----- ----------- ----- -----------<br>---- --- ---------- --- ---- --- -- ----------,290625,290624,290172.9,290173,290181.12,290631.12,,24,This
screen,html.Screen,2_3_1_0_1_25,2022-02-02T14:46:35.807Z,,,,,,,,,,,,,,,,,51,,,,,,,,,,,,,,414.88000000000466,,response,,,,13,C,,,,,,Space,keypress(Space),,,,instrumental,,,,-------- -------- --- --- ---- --- --- ------ -- --------<br>---- --------- --- ------- ------------ ---------- ---------<br>--- ---------- ------- ---------- ------- -- -------- ----<br>week --- ------ ----- ------ -- ---- --- ----- -- - -------<br>-------- -- --- --- -- ----- ----------- ----- -----------<br>---- --- ---------- --- ---- --- -- ----------,291062,291046,290625.42,290626,290631.12,291064.46,,25,week
screen,html.Screen,2_3_1_0_1_26,2022-02-02T14:46:36.220Z,,,,,,,,,,,,,,,,,51,,,,,,,,,,,,,,403.53999999997905,,response,,,,13,C,,,,,,Space,keypress(Space),,,,instrumental,,,,-------- -------- --- --- ---- --- --- ------ -- --------<br>---- --------- --- ------- ------------ ---------- ---------<br>--- ---------- ------- ---------- ------- -- -------- ----<br>---- the ------ ----- ------ -- ---- --- ----- -- - -------<br>-------- -- --- --- -- ----- ----------- ----- -----------<br>---- --- ---------- --- ---- --- -- ----------,291475,291468,291061.7,291062,291064.46,291481.14,,26,the
screen,html.Screen,2_3_1_0_1_27,2022-02-02T14:46:36.564Z,,,,,,,,,,,,,,,,,51,,,,,,,,,,,,,,329.85999999998603,,response,,,,13,C,,,,,,Space,keypress(Space),,,,instrumental,,,,-------- -------- --- --- ---- --- --- ------ -- --------<br>---- --------- --- ------- ------------ ---------- ---------<br>--- ---------- ------- ---------- ------- -- -------- ----<br>---- --- Senate ----- ------ -- ---- --- ----- -- - -------<br>-------- -- --- --- -- ----- ----------- ----- -----------<br>---- --- ---------- --- ---- --- -- ----------,291819,291811,291475.58,291475,291481.14,291822.8,,27,Senate
screen,html.Screen,2_3_1_0_1_28,2022-02-02T14:46:36.968Z,,,,,,,,,,,,,,,,,51,,,,,,,,,,,,,,395.20000000001164,,response,,,,13,C,,,,,,Space,keypress(Space),,,,instrumental,,,,-------- -------- --- --- ---- --- --- ------ -- --------<br>---- --------- --- ------- ------------ ---------- ---------<br>--- ---------- ------- ---------- ------- -- -------- ----<br>---- --- ------ seems ------ -- ---- --- ----- -- - -------<br>-------- -- --- --- -- ----- ----------- ----- -----------<br>---- --- ---------- --- ---- --- -- ----------,292224,292218,291818.96,291819,291822.8,292231.14,,28,seems
screen,html.Screen,2_3_1_0_1_29,2022-02-02T14:46:37.399Z,,,,,,,,,,,,,,,,,51,,,,,,,,,,,,,,407.85999999998603,,response,,,,13,C,,,,,,Space,keypress(Space),,,,instrumental,,,,-------- -------- --- --- ---- --- --- ------ -- --------<br>---- --------- --- ------- ------------ ---------- ---------<br>--- ---------- ------- ---------- ------- -- -------- ----<br>---- --- ------ ----- poised -- ---- --- ----- -- - -------<br>-------- -- --- --- -- ----- ----------- ----- -----------<br>---- --- ---------- --- ---- --- -- ----------,292655,292639,292223.56,292224,292231.14,292656.16,,29,poised
screen,html.Screen,2_3_1_0_1_30,2022-02-02T14:46:37.864Z,,,,,,,,,,,,,,,,,51,,,,,,,,,,,,,,451.8400000000256,,response,,,,13,C,,,,,,Space,keypress(Space),,,,instrumental,,,,-------- -------- --- --- ---- --- --- ------ -- --------<br>---- --------- --- ------- ------------ ---------- ---------<br>--- ---------- ------- ---------- ------- -- -------- ----<br>---- --- ------ ----- ------ to ---- --- ----- -- - -------<br>-------- -- --- --- -- ----- ----------- ----- -----------<br>---- --- ---------- --- ---- --- -- ----------,293119,293108,292654.66,292655,292656.16,293122.84,,30,to
screen,html.Screen,2_3_1_0_1_31,2022-02-02T14:46:38.210Z,,,,,,,,,,,,,,,,,51,,,,,,,,,,,,,,329.1599999999744,,response,,,,13,C,,,,,,Space,keypress(Space),,,,instrumental,,,,-------- -------- --- --- ---- --- --- ------ -- --------<br>---- --------- --- ------- ------------ ---------- ---------<br>--- ---------- ------- ---------- ------- -- -------- ----<br>---- --- ------ ----- ------ -- join --- ----- -- - -------<br>-------- -- --- --- -- ----- ----------- ----- -----------<br>---- --- ---------- --- ---- --- -- ----------,293465,293452,293118.78,293119,293122.84,293472.84,,31,join
screen,html.Screen,2_3_1_0_1_32,2022-02-02T14:46:38.581Z,,,,,,,,,,,,,,,,,51,,,,,,,,,,,,,,354.1599999999744,,response,,,,13,C,,,,,,Space,keypress(Space),,,,instrumental,,,,-------- -------- --- --- ---- --- --- ------ -- --------<br>---- --------- --- ------- ------------ ---------- ---------<br>--- ---------- ------- ---------- ------- -- -------- ----<br>---- --- ------ ----- ------ -- ---- the ----- -- - -------<br>-------- -- --- --- -- ----- ----------- ----- -----------<br>---- --- ---------- --- ---- --- -- ----------,293835,293827,293464.82,293465,293472.84,293839.5,,32,the
screen,html.Screen,2_3_1_0_1_33,2022-02-02T14:46:38.890Z,,,,,,,,,,,,,,,,,51,,,,,,,,,,,,,,299.5,,response,,,,13,C,,,,,,Space,keypress(Space),,,,instrumental,,,,-------- -------- --- --- ---- --- --- ------ -- --------<br>---- --------- --- ------- ------------ ---------- ---------<br>--- ---------- ------- ---------- ------- -- -------- ----<br>---- --- ------ ----- ------ -- ---- --- House -- - -------<br>-------- -- --- --- -- ----- ----------- ----- -----------<br>---- --- ---------- --- ---- --- -- ----------,294145,294139,293835.5,293835,293839.5,294147.84,,33,House
screen,html.Screen,2_3_1_0_1_34,2022-02-02T14:46:39.284Z,,,,,,,,,,,,,,,,,51,,,,,,,,,,,,,,382.1599999999744,,response,,,,13,C,,,,,,Space,keypress(Space),,,,instrumental,,,,-------- -------- --- --- ---- --- --- ------ -- --------<br>---- --------- --- ------- ------------ ---------- ---------<br>--- ---------- ------- ---------- ------- -- -------- ----<br>---- --- ------ ----- ------ -- ---- --- ----- in - -------<br>-------- -- --- --- -- ----- ----------- ----- -----------<br>---- --- ---------- --- ---- --- -- ----------,294540,294530,294145.44,294145,294147.84,294547.86,,34,in
screen,html.Screen,2_3_1_0_1_35,2022-02-02T14:46:39.645Z,,,,,,,,,,,,,,,,,51,,,,,,,,,,,,,,341.14000000001397,,response,,,,13,C,,,,,,Space,keypress(Space),,,,instrumental,,,,-------- -------- --- --- ---- --- --- ------ -- --------<br>---- --------- --- ------- ------------ ---------- ---------<br>--- ---------- ------- ---------- ------- -- -------- ----<br>---- --- ------ ----- ------ -- ---- --- ----- -- a -------<br>-------- -- --- --- -- ----- ----------- ----- -----------<br>---- --- ---------- --- ---- --- -- ----------,294900,294889,294539.94,294540,294547.86,294906.2,,35,a
screen,html.Screen,2_3_1_0_1_36,2022-02-02T14:46:40.100Z,,,,,,,,,,,,,,,,,51,,,,,,,,,,,,,,436.79999999998836,,response,,,,13,C,,,,,,Space,keypress(Space),,,,instrumental,,,,-------- -------- --- --- ---- --- --- ------ -- --------<br>---- --------- --- ------- ------------ ---------- ---------<br>--- ---------- ------- ---------- ------- -- -------- ----<br>---- --- ------ ----- ------ -- ---- --- ----- -- - massive<br>-------- -- --- --- -- ----- ----------- ----- -----------<br>---- --- ---------- --- ---- --- -- ----------,295355,295343,294900,294900,294906.2,295356.2,,36,massive
screen,html.Screen,2_3_1_0_1_37,2022-02-02T14:46:40.537Z,,,,,,,,,,,,,,,,,51,,,,,,,,,,,,,,423.79999999998836,,response,,,,13,C,,,,,,Space,keypress(Space),,,,instrumental,,,,-------- -------- --- --- ---- --- --- ------ -- --------<br>---- --------- --- ------- ------------ ---------- ---------<br>--- ---------- ------- ---------- ------- -- -------- ----<br>---- --- ------ ----- ------ -- ---- --- ----- -- - -------<br>overhaul -- --- --- -- ----- ----------- ----- -----------<br>---- --- ---------- --- ---- --- -- ----------,295792,295780,295355.4,295356,295356.2,295797.88,,37,overhaul
screen,html.Screen,2_3_1_0_1_38,2022-02-02T14:46:40.908Z,,,,,,,,,,,,,,,,,51,,,,,,,,,,,,,,357.11999999999534,,response,,,,13,C,,,,,,Space,keypress(Space),,,,instrumental,,,,-------- -------- --- --- ---- --- --- ------ -- --------<br>---- --------- --- ------- ------------ ---------- ---------<br>--- ---------- ------- ---------- ------- -- -------- ----<br>---- --- ------ ----- ------ -- ---- --- ----- -- - -------<br>-------- of --- --- -- ----- ----------- ----- -----------<br>---- --- ---------- --- ---- --- -- ----------,296163,296155,295792.02,295792,295797.88,296164.54,,38,of
screen,html.Screen,2_3_1_0_1_39,2022-02-02T14:46:41.251Z,,,,,,,,,,,,,,,,,51,,,,,,,,,,,,,,334.46000000002095,,response,,,,13,C,,,,,,Space,keypress(Space),,,,instrumental,,,,-------- -------- --- --- ---- --- --- ------ -- --------<br>---- --------- --- ------- ------------ ---------- ---------<br>--- ---------- ------- ---------- ------- -- -------- ----<br>---- --- ------ ----- ------ -- ---- --- ----- -- - -------<br>-------- -- the --- -- ----- ----------- ----- -----------<br>---- --- ---------- --- ---- --- -- ----------,296507,296499,296163.46,296163,296164.54,296514.56,,39,the
screen,html.Screen,2_3_1_0_1_40,2022-02-02T14:46:41.635Z,,,,,,,,,,,,,,,,,51,,,,,,,,,,,,,,359.4400000000023,,response,,,,13,C,,,,,,Space,keypress(Space),,,,instrumental,,,,-------- -------- --- --- ---- --- --- ------ -- --------<br>---- --------- --- ------- ------------ ---------- ---------<br>--- ---------- ------- ---------- ------- -- -------- ----<br>---- --- ------ ----- ------ -- ---- --- ----- -- - -------<br>-------- -- --- way -- ----- ----------- ----- -----------<br>---- --- ---------- --- ---- --- -- ----------,296889,296874,296506.54,296507,296514.56,296897.9,,40,way
screen,html.Screen,2_3_1_0_1_41,2022-02-02T14:46:42.017Z,,,,,,,,,,,,,,,,,51,,,,,,,,,,,,,,366.0999999999767,,response,,,,13,C,,,,,,Space,keypress(Space),,,,instrumental,,,,-------- -------- --- --- ---- --- --- ------ -- --------<br>---- --------- --- ------- ------------ ---------- ---------<br>--- ---------- ------- ---------- ------- -- -------- ----<br>---- --- ------ ----- ------ -- ---- --- ----- -- - -------<br>-------- -- --- --- in ----- ----------- ----- -----------<br>---- --- ---------- --- ---- --- -- ----------,297273,297264,296889.62,296890,296897.9,297272.9,,41,in
screen,html.Screen,2_3_1_0_1_42,2022-02-02T14:46:42.399Z,,,,,,,,,,,,,,,,,51,,,,,,,,,,,,,,366.0999999999767,,response,,,,13,C,,,,,,Space,keypress(Space),,,,instrumental,,,,-------- -------- --- --- ---- --- --- ------ -- --------<br>---- --------- --- ------- ------------ ---------- ---------<br>--- ---------- ------- ---------- ------- -- -------- ----<br>---- --- ------ ----- ------ -- ---- --- ----- -- - -------<br>-------- -- --- --- -- which ----------- ----- -----------<br>---- --- ---------- --- ---- --- -- ----------,297654,297639,297272.54,297273,297272.9,297656.24,,42,which
screen,html.Screen,2_3_1_0_1_43,2022-02-02T14:46:43.406Z,,,,,,,,,,,,,,,,,51,,,,,,,,,,,,,,998.7600000000093,,response,,,,13,C,,,,,,Space,keypress(Space),,,,instrumental,,,,-------- -------- --- --- ---- --- --- ------ -- --------<br>---- --------- --- ------- ------------ ---------- ---------<br>--- ---------- ------- ---------- ------- -- -------- ----<br>---- --- ------ ----- ------ -- ---- --- ----- -- - -------<br>-------- -- --- --- -- ----- bureaucrats ----- -----------<br>---- --- ---------- --- ---- --- -- ----------,298660,298655,297654.4,297654,297656.24,298664.58,,43,bureaucrats
screen,html.Screen,2_3_1_0_1_44,2022-02-02T14:46:43.878Z,,,,,,,,,,,,,,,,,51,,,,,,,,,,,,,,459.4199999999837,,response,,,,13,C,,,,,,Space,keypress(Space),,,,instrumental,,,,-------- -------- --- --- ---- --- --- ------ -- --------<br>---- --------- --- ------- ------------ ---------- ---------<br>--- ---------- ------- ---------- ------- -- -------- ----<br>---- --- ------ ----- ------ -- ---- --- ----- -- - -------<br>-------- -- --- --- -- ----- ----------- enact -----------<br>---- --- ---------- --- ---- --- -- ----------,299133,299124,298661.16,298661,298664.58,299139.6,,44,enact
screen,html.Screen,2_3_1_0_1_45,2022-02-02T14:46:44.373Z,,,,,,,,,,,,,,,,,51,,,,,,,,,,,,,,484.4000000000233,,response,,,,13,C,,,,,,Space,keypress(Space),,,,instrumental,,,,-------- -------- --- --- ---- --- --- ------ -- --------<br>---- --------- --- ------- ------------ ---------- ---------<br>--- ---------- ------- ---------- ------- -- -------- ----<br>---- --- ------ ----- ------ -- ---- --- ----- -- - -------<br>-------- -- --- --- -- ----- ----------- ----- regulations<br>---- --- ---------- --- ---- --- -- ----------,299628,299624,299133.26,299133,299139.6,299631.28,,45,regulations
screen,html.Screen,2_3_1_0_1_46,2022-02-02T14:46:44.829Z,,,,,,,,,,,,,,,,,51,,,,,,,,,,,,,,445.71999999997206,,response,,,,13,C,,,,,,Space,keypress(Space),,,,instrumental,,,,-------- -------- --- --- ---- --- --- ------ -- --------<br>---- --------- --- ------- ------------ ---------- ---------<br>--- ---------- ------- ---------- ------- -- -------- ----<br>---- --- ------ ----- ------ -- ---- --- ----- -- - -------<br>-------- -- --- --- -- ----- ----------- ----- -----------<br>that --- ---------- --- ---- --- -- ----------,300084,300077,299627.76,299628,299631.28,300089.62,,46,that
screen,html.Screen,2_3_1_0_1_47,2022-02-02T14:46:45.248Z,,,,,,,,,,,,,,,,,51,,,,,,,,,,,,,,409.38000000000466,,response,,,,13,C,,,,,,Space,keypress(Space),,,,instrumental,,,,-------- -------- --- --- ---- --- --- ------ -- --------<br>---- --------- --- ------- ------------ ---------- ---------<br>--- ---------- ------- ---------- ------- -- -------- ----<br>---- --- ------ ----- ------ -- ---- --- ----- -- - -------<br>-------- -- --- --- -- ----- ----------- ----- -----------<br>---- are ---------- --- ---- --- -- ----------,300503,300499,300084.3,300084,300089.62,300506.28,,47,are
screen,html.Screen,2_3_1_0_1_48,2022-02-02T14:46:45.668Z,,,,,,,,,,,,,,,,,51,,,,,,,,,,,,,,414.71999999997206,,response,,,,13,C,,,,,,Space,keypress(Space),,,,instrumental,,,,-------- -------- --- --- ---- --- --- ------ -- --------<br>---- --------- --- ------- ------------ ---------- ---------<br>--- ---------- ------- ---------- ------- -- -------- ----<br>---- --- ------ ----- ------ -- ---- --- ----- -- - -------<br>-------- -- --- --- -- ----- ----------- ----- -----------<br>---- --- strangling --- ---- --- -- ----------,300922,300921,300503.26,300504,300506.28,300922.96,,48,strangling
screen,html.Screen,2_3_1_0_1_49,2022-02-02T14:46:46.058Z,,,,,,,,,,,,,,,,,51,,,,,,,,,,,,,,388.03999999997905,,response,,,,13,C,,,,,,Space,keypress(Space),,,,instrumental,,,,-------- -------- --- --- ---- --- --- ------ -- --------<br>---- --------- --- ------- ------------ ---------- ---------<br>--- ---------- ------- ---------- ------- -- -------- ----<br>---- --- ------ ----- ------ -- ---- --- ----- -- - -------<br>-------- -- --- --- -- ----- ----------- ----- -----------<br>---- --- ---------- the ---- --- -- ----------,301314,301311,300922.76,300923,300922.96,301314.64,,49,the
