sender,sender_type,sender_id,timestamp,meta,,Blues,Classical,Country,Dance,Electronic,Folk,Gospel,Hip-Hop,Jazz,Latin,Musical/Film,New-age,Pop,Prolific_id,Provo_ID,R&B,Rap,Reggae,Religious,Rock,Soul,Swing,Traditional,age,artist_name,correct,correctResponse,distraction,duration,education,ended_on,familiarity,gender,headphone_check_performance,item,list,music_frequency,offensiveness,pleasantness,position_correct,preference,response,response_action,snippet_file,song_name,song_rating,sound,stimulus_1,stimulus_2,stimulus_3,text,time_commit,time_end,time_render,time_run,time_show,time_switch,url,word,word_ID
Prolific ID,html.Form,0,2022-02-17T16:42:43.045Z,"{""labjs_version"":""20.2.2"",""labjs_build"":{""flavor"":""production"",""commit"":""a25486e0c714a0ae2ce03ff94b7bb6896854dcfa""},""location"":""https://run.pavlovia.org/mvasilev/prolific2_music_f/"",""userAgent"":""Mozilla/5.0 (Macintosh; Intel Mac OS X 10_15_7) AppleWebKit/605.1.15 (KHTML, like Gecko) Version/15.0 Safari/605.1.15"",""platform"":""MacIntel"",""language"":""en-GB"",""locale"":""en-GB"",""timeZone"":""Europe/London"",""timezoneOffset"":0,""screen_width"":1440,""screen_height"":900,""scroll_width"":1440,""scroll_height"":663,""window_innerWidth"":1440,""window_innerHeight"":711,""devicePixelRatio"":2}",,,,,,,,,,,,,,,5db09b3a9611830016dd495b,,,,,,,,,,,,,,,4893,,form submission,,,,,,,,,,,,,,,,,,,,,14956,14955,10048,10025,10062,14978,{},,
Introduction,html.Screen,1_0,2022-02-17T16:44:33.322Z,,,,,,,,,,,,,,,,,,,,,,,,,,,,,,,110098,,response,,,,,,,,,,,continue,click button,,,,,,,,,125231.00000000001,125065,14967,14956,14978,125249,,,
Volume calibration,html.Screen,1_1,2022-02-17T16:45:02.121Z,,,,,,,,,,,,,,,,,,,,,,,,,,,,,,,28628,,response,,,,,,,,,,,continue,click button,,,,,,,,,154029,153862,125234,125231.00000000001,125249,154063,,,
Task instructions,html.Screen,1_2,2022-02-17T16:45:13.048Z,,,,,,,,,,,,,,,,,,,,,,,,,,,,,,,10744,,response,,,,,,,,,,,continue,click button,,,,,,,,,164957,164792,154048,154030,154063,164977,,,
Sounds,html.Screen,1_3_0_0,2022-02-17T16:45:17.304Z,,,,,,,,,,,,,,,,,,,,,,,,,,,,,,,4252,,timeout,,,,,,,,,1,,,,,,,,S,I,O,,169213,169212,164962,164957,164977,169229,,,
Judgement,html.Screen,1_3_0_1,2022-02-17T16:45:19.537Z,,,,,,,,,,,,,,,,,,,,,,,,,,,,false,1,,2069,,response,,,,,,,,,1,,2,click #choice-2,,,,,S,I,O,,171446,171281,169212,169213,169229,171470,,,
Trial,flow.Sequence,1_3_0,2022-02-17T16:45:19.538Z,,,,,,,,,,,,,,,,,,,,,,,,,,,,,,,6304,,completion,,,,,,,,,1,,,,,,,,S,I,O,,171446,171281,164962,164957,164977,171470,,,
Sounds,html.Screen,1_3_1_0,2022-02-17T16:45:23.789Z,,,,,,,,,,,,,,,,,,,,,,,,,,,,,,,4243,,timeout,,,,,,,,,2,,,,,,,,O,S,I,,175697,175696,171455,171446,171470,175713,,,
Judgement,html.Screen,1_3_1_1,2022-02-17T16:45:24.562Z,,,,,,,,,,,,,,,,,,,,,,,,,,,,true,2,,609,,response,,,,,,,,,2,,2,click #choice-2,,,,,O,S,I,,176470,176305,175696,175697,175713,176500,,,
Trial,flow.Sequence,1_3_1,2022-02-17T16:45:24.562Z,,,,,,,,,,,,,,,,,,,,,,,,,,,,,,,4835,,completion,,,,,,,,,2,,,,,,,,O,S,I,,176470,176305,171455,171446,171470,176500,,,
Sounds,html.Screen,1_3_2_0,2022-02-17T16:45:28.821Z,,,,,,,,,,,,,,,,,,,,,,,,,,,,,,,4245,,timeout,,,,,,,,,3,,,,,,,,I,O,S,,180729,180729,176485,176470,176500,180745,,,
Judgement,html.Screen,1_3_2_1,2022-02-17T16:45:29.815Z,,,,,,,,,,,,,,,,,,,,,,,,,,,,true,3,,829,,response,,,,,,,,,3,,3,click #choice-3,,,,,I,O,S,,181723,181558,180729,180729,180745,181747,,,
Trial,flow.Sequence,1_3_2,2022-02-17T16:45:29.815Z,,,,,,,,,,,,,,,,,,,,,,,,,,,,,,,5058,,completion,,,,,,,,,3,,,,,,,,I,O,S,,181724.00000000003,181558,176485,176470,176500,181747,,,
Sounds,html.Screen,1_3_3_0,2022-02-17T16:45:34.076Z,,,,,,,,,,,,,,,,,,,,,,,,,,,,,,,4255,,timeout,,,,,,,,,2,,,,,,,,I,S,O,,185984,185984,181734,181724.00000000003,181747,186002,,,
Judgement,html.Screen,1_3_3_1,2022-02-17T16:45:34.593Z,,,,,,,,,,,,,,,,,,,,,,,,,,,,true,2,,351,,response,,,,,,,,,2,,2,click #choice-2,,,,,I,S,O,,186501,186335,185984,185984,186002,186523,,,
Trial,flow.Sequence,1_3_3,2022-02-17T16:45:34.593Z,,,,,,,,,,,,,,,,,,,,,,,,,,,,,,,4588,,completion,,,,,,,,,2,,,,,,,,I,S,O,,186501,186335,181734,181724.00000000003,181747,186523,,,
Sounds,html.Screen,1_3_4_0,2022-02-17T16:45:38.857Z,,,,,,,,,,,,,,,,,,,,,,,,,,,,,,,4259,,timeout,,,,,,,,,3,,,,,,,,O,I,S,,190765.00000000003,190765,186507,186501,186523,190782,,,
Judgement,html.Screen,1_3_4_1,2022-02-17T16:45:39.444Z,,,,,,,,,,,,,,,,,,,,,,,,,,,,true,3,,421,,response,,,,,,,,,3,,3,click #choice-3,,,,,O,I,S,,191352,191186,190765,190766,190782,191369,,,
Trial,flow.Sequence,1_3_4,2022-02-17T16:45:39.444Z,,,,,,,,,,,,,,,,,,,,,,,,,,,,,,,4663,,completion,,,,,,,,,3,,,,,,,,O,I,S,,191352,191186,186507,186501,186523,191369,,,
Sounds,html.Screen,1_3_5_0,2022-02-17T16:45:43.692Z,,,,,,,,,,,,,,,,,,,,,,,,,,,,,,,4247,,timeout,,,,,,,,,1,,,,,,,,S,O,I,,195600,195600,191354,191352,191369,195616,,,
Judgement,html.Screen,1_3_5_1,2022-02-17T16:45:44.155Z,,,,,,,,,,,,,,,,,,,,,,,,,,,,true,1,,297,,response,,,,,,,,,1,,1,click #choice-1,,,,,S,O,I,,196062,195897,195600,195600,195616,196084,,,
Trial,flow.Sequence,1_3_5,2022-02-17T16:45:44.155Z,,,,,,,,,,,,,,,,,,,,,,,,,,,,,,,4528,,completion,,,,,,,,,1,,,,,,,,S,O,I,,196063.00000000003,195897,191354,191352,191369,196084,,,
Task,flow.Loop,1_3,2022-02-17T16:45:44.156Z,,,,,,,,,,,,,,,,,,,,,,,,,,,,,,,30920,,completion,,,0.8333333333333334,,,,,,,,,,,,,,,,,,196064,195897,164962,164957,164977,196084,,,
Trap,html.Screen,1_4,2022-02-17T16:45:44.157Z,,,,,,,,,,,,,,,,,,,,,,,,,,,,,,,NaN,,skipped,,,,,,,,,,,,,,,,,,,,,196065,195897,,196065,,196084,,,
Thanks,html.Screen,1_5,2022-02-17T16:45:47.335Z,,,,,,,,,,,,,,,,,,,,,,,,,,,,,,,3010,,response,,,,,,,,,,,continue,click button,,,,,,,,,199242,199076,196066,196065,196084,204335,,,
Headphone screening,flow.Sequence,1,2022-02-17T16:45:47.336Z,,,,,,,,,,,,,,,,,,,,,,,,,,,,,,,184098,,completion,,,,,,,,,,,,,,,,,,,,,199243,199076,14967,14956,14978,204335,,,
Instructions,html.Page,2_0,2022-02-17T16:46:03.216Z,,,,,,,,,,,,,,,,,,,,,,,,,,,,,,,10788,,form submission,,,,,,,,,,,,,,,,,,,,,215123,215123,204320,204298,204335,215145,,,
Holding screen,html.Screen,2_1_0_0,2022-02-17T16:46:13.227Z,,,,,,,,,,,,,,,,,,,,,,,,,,,,,,,10009,,timeout,,,,,,,,,,,,,,,,,,,,,225134,225134,215127,215123,215145,225154,,,
screen,html.Screen,2_1_0_1_0,2022-02-17T16:46:14.104Z,,,,,,,,,,,,,,,,,53,,,,,,,,,,,,,,709.0000000000291,,response,,,,99,,,,,,,Space,keypress(Space),,,,,,,,When -- ----- -- ------ - ------- --- ----------<br>------------- ------ ------ ---- ---- ------- ----- -- ----<br>-------- ------- -- ---------- --- - --- ----- ----- ----<br>---- --- --- ----- --- ---- ---- ------- ----- ---- -------<br>--- --- -- ----- -- --- ---- -- --- ---- -- ------ ------<br>--- ----- -- ----,226011,225843.00000000003,225134,225134,225154,226053,,0,When
screen,html.Screen,2_1_0_1_1,2022-02-17T16:46:14.771Z,,,,,,,,,,,,,,,,,53,,,,,,,,,,,,,,474,,response,,,,99,,,,,,,Space,keypress(Space),,,,,,,,---- it ----- -- ------ - ------- --- ----------<br>------------- ------ ------ ---- ---- ------- ----- -- ----<br>-------- ------- -- ---------- --- - --- ----- ----- ----<br>---- --- --- ----- --- ---- ---- ------- ----- ---- -------<br>--- --- -- ----- -- --- ---- -- --- ---- -- ------ ------<br>--- ----- -- ----,226678,226510,226036,226011,226053,226707,,1,it
screen,html.Screen,2_1_0_1_2,2022-02-17T16:46:15.419Z,,,,,,,,,,,,,,,,,53,,,,,,,,,,,,,,466.0000000000291,,response,,,,99,,,,,,,Space,keypress(Space),,,,,,,,---- -- comes -- ------ - ------- --- ----------<br>------------- ------ ------ ---- ---- ------- ----- -- ----<br>-------- ------- -- ---------- --- - --- ----- ----- ----<br>---- --- --- ----- --- ---- ---- ------- ----- ---- -------<br>--- --- -- ----- -- --- ---- -- --- ---- -- ------ ------<br>--- ----- -- ----,227326,227158.00000000003,226692,226678,226707,227360,,2,comes
screen,html.Screen,2_1_0_1_3,2022-02-17T16:46:16.003Z,,,,,,,,,,,,,,,,,53,,,,,,,,,,,,,,397.0000000000291,,response,,,,99,,,,,,,Space,keypress(Space),,,,,,,,---- -- ----- to ------ - ------- --- ----------<br>------------- ------ ------ ---- ---- ------- ----- -- ----<br>-------- ------- -- ---------- --- - --- ----- ----- ----<br>---- --- --- ----- --- ---- ---- ------- ----- ---- -------<br>--- --- -- ----- -- --- ---- -- --- ---- -- ------ ------<br>--- ----- -- ----,227910,227742.00000000003,227345,227326,227360,227947,,3,to
screen,html.Screen,2_1_0_1_4,2022-02-17T16:46:16.632Z,,,,,,,,,,,,,,,,,53,,,,,,,,,,,,,,440,,response,,,,99,,,,,,,Space,keypress(Space),,,,,,,,---- -- ----- -- having - ------- --- ----------<br>------------- ------ ------ ---- ---- ------- ----- -- ----<br>-------- ------- -- ---------- --- - --- ----- ----- ----<br>---- --- --- ----- --- ---- ---- ------- ----- ---- -------<br>--- --- -- ----- -- --- ---- -- --- ---- -- ------ ------<br>--- ----- -- ----,228539.00000000003,228371,227931,227910,227947,228567,,4,having
screen,html.Screen,2_1_0_1_5,2022-02-17T16:46:17.138Z,,,,,,,,,,,,,,,,,53,,,,,,,,,,,,,,327,,response,,,,99,,,,,,,Space,keypress(Space),,,,,,,,---- -- ----- -- ------ a ------- --- ----------<br>------------- ------ ------ ---- ---- ------- ----- -- ----<br>-------- ------- -- ---------- --- - --- ----- ----- ----<br>---- --- --- ----- --- ---- ---- ------- ----- ---- -------<br>--- --- -- ----- -- --- ---- -- --- ---- -- ------ ------<br>--- ----- -- ----,229045.00000000003,228877,228550,228539.00000000003,228567,229087,,5,a
screen,html.Screen,2_1_0_1_6,2022-02-17T16:46:17.802Z,,,,,,,,,,,,,,,,,53,,,,,,,,,,,,,,471,,response,,,,99,,,,,,,Space,keypress(Space),,,,,,,,---- -- ----- -- ------ - lasting --- ----------<br>------------- ------ ------ ---- ---- ------- ----- -- ----<br>-------- ------- -- ---------- --- - --- ----- ----- ----<br>---- --- --- ----- --- ---- ---- ------- ----- ---- -------<br>--- --- -- ----- -- --- ---- -- --- ---- -- ------ ------<br>--- ----- -- ----,229709,229541,229070,229045.00000000003,229087,229740,,6,lasting
screen,html.Screen,2_1_0_1_7,2022-02-17T16:46:18.393Z,,,,,,,,,,,,,,,,,53,,,,,,,,,,,,,,409,,response,,,,99,,,,,,,Space,keypress(Space),,,,,,,,---- -- ----- -- ------ - ------- and ----------<br>------------- ------ ------ ---- ---- ------- ----- -- ----<br>-------- ------- -- ---------- --- - --- ----- ----- ----<br>---- --- --- ----- --- ---- ---- ------- ----- ---- -------<br>--- --- -- ----- -- --- ---- -- --- ---- -- ------ ------<br>--- ----- -- ----,230300,230132,229723,229709,229740,230343,,7,and
screen,html.Screen,2_1_0_1_8,2022-02-17T16:46:19.007Z,,,,,,,,,,,,,,,,,53,,,,,,,,,,,,,,420,,response,,,,99,,,,,,,Space,keypress(Space),,,,,,,,---- -- ----- -- ------ - ------- --- fulfilling<br>------------- ------ ------ ---- ---- ------- ----- -- ----<br>-------- ------- -- ---------- --- - --- ----- ----- ----<br>---- --- --- ----- --- ---- ---- ------- ----- ---- -------<br>--- --- -- ----- -- --- ---- -- --- ---- -- ------ ------<br>--- ----- -- ----,230914.00000000003,230746,230326,230300,230343,230945,,8,fulfilling
screen,html.Screen,2_1_0_1_9,2022-02-17T16:46:19.672Z,,,,,,,,,,,,,,,,,53,,,,,,,,,,,,,,483,,response,,,,99,,,,,,,Space,keypress(Space),,,,,,,,"---- -- ----- -- ------ - ------- --- ----------<br>relationship, ------ ------ ---- ---- ------- ----- -- ----<br>-------- ------- -- ---------- --- - --- ----- ----- ----<br>---- --- --- ----- --- ---- ---- ------- ----- ---- -------<br>--- --- -- ----- -- --- ---- -- --- ---- -- ------ ------<br>--- ----- -- ----",231579,231411,230928,230914.00000000003,230945,231615,,9,"relationship,"
screen,html.Screen,2_1_0_1_10,2022-02-17T16:46:20.270Z,,,,,,,,,,,,,,,,,53,,,,,,,,,,,,,,411,,response,,,,99,,,,,,,Space,keypress(Space),,,,,,,,---- -- ----- -- ------ - ------- --- ----------<br>------------- common ------ ---- ---- ------- ----- -- ----<br>-------- ------- -- ---------- --- - --- ----- ----- ----<br>---- --- --- ----- --- ---- ---- ------- ----- ---- -------<br>--- --- -- ----- -- --- ---- -- --- ---- -- ------ ------<br>--- ----- -- ----,232177,232009,231598,231579,231615,232219,,10,common
screen,html.Screen,2_1_0_1_11,2022-02-17T16:46:20.843Z,,,,,,,,,,,,,,,,,53,,,,,,,,,,,,,,380,,response,,,,99,,,,,,,Space,keypress(Space),,,,,,,,---- -- ----- -- ------ - ------- --- ----------<br>------------- ------ wisdom ---- ---- ------- ----- -- ----<br>-------- ------- -- ---------- --- - --- ----- ----- ----<br>---- --- --- ----- --- ---- ---- ------- ----- ---- -------<br>--- --- -- ----- -- --- ---- -- --- ---- -- ------ ------<br>--- ----- -- ----,232750,232582,232202,232177,232219,232788,,11,wisdom
screen,html.Screen,2_1_0_1_12,2022-02-17T16:46:21.425Z,,,,,,,,,,,,,,,,,53,,,,,,,,,,,,,,393.0000000000291,,response,,,,99,,,,,,,Space,keypress(Space),,,,,,,,---- -- ----- -- ------ - ------- --- ----------<br>------------- ------ ------ says ---- ------- ----- -- ----<br>-------- ------- -- ---------- --- - --- ----- ----- ----<br>---- --- --- ----- --- ---- ---- ------- ----- ---- -------<br>--- --- -- ----- -- --- ---- -- --- ---- -- ------ ------<br>--- ----- -- ----,233332,233164.00000000003,232771,232750,232788,233374,,12,says
screen,html.Screen,2_1_0_1_13,2022-02-17T16:46:22.016Z,,,,,,,,,,,,,,,,,53,,,,,,,,,,,,,,399,,response,,,,99,,,,,,,Space,keypress(Space),,,,,,,,---- -- ----- -- ------ - ------- --- ----------<br>------------- ------ ------ ---- that ------- ----- -- ----<br>-------- ------- -- ---------- --- - --- ----- ----- ----<br>---- --- --- ----- --- ---- ---- ------- ----- ---- -------<br>--- --- -- ----- -- --- ---- -- --- ---- -- ------ ------<br>--- ----- -- ----,233924,233756,233357,233332,233374,233961,,13,that
screen,html.Screen,2_1_0_1_14,2022-02-17T16:46:22.576Z,,,,,,,,,,,,,,,,,53,,,,,,,,,,,,,,373,,response,,,,99,,,,,,,Space,keypress(Space),,,,,,,,---- -- ----- -- ------ - ------- --- ----------<br>------------- ------ ------ ---- ---- feeling ----- -- ----<br>-------- ------- -- ---------- --- - --- ----- ----- ----<br>---- --- --- ----- --- ---- ---- ------- ----- ---- -------<br>--- --- -- ----- -- --- ---- -- --- ---- -- ------ ------<br>--- ----- -- ----,234483,234316,233943,233924,233961,234514,,14,feeling
screen,html.Screen,2_1_0_1_15,2022-02-17T16:46:23.095Z,,,,,,,,,,,,,,,,,53,,,,,,,,,,,,,,337,,response,,,,99,,,,,,,Space,keypress(Space),,,,,,,,---- -- ----- -- ------ - ------- --- ----------<br>------------- ------ ------ ---- ---- ------- close -- ----<br>-------- ------- -- ---------- --- - --- ----- ----- ----<br>---- --- --- ----- --- ---- ---- ------- ----- ---- -------<br>--- --- -- ----- -- --- ---- -- --- ---- -- ------ ------<br>--- ----- -- ----,235002,234834,234497,234484,234514,235033,,15,close
screen,html.Screen,2_1_0_1_16,2022-02-17T16:46:23.565Z,,,,,,,,,,,,,,,,,53,,,,,,,,,,,,,,288,,response,,,,99,,,,,,,Space,keypress(Space),,,,,,,,---- -- ----- -- ------ - ------- --- ----------<br>------------- ------ ------ ---- ---- ------- ----- to ----<br>-------- ------- -- ---------- --- - --- ----- ----- ----<br>---- --- --- ----- --- ---- ---- ------- ----- ---- -------<br>--- --- -- ----- -- --- ---- -- --- ---- -- ------ ------<br>--- ----- -- ----,235472,235305,235017,235002,235033,235502,,16,to
screen,html.Screen,2_1_0_1_17,2022-02-17T16:46:24.118Z,,,,,,,,,,,,,,,,,53,,,,,,,,,,,,,,371,,response,,,,99,,,,,,,Space,keypress(Space),,,,,,,,---- -- ----- -- ------ - ------- --- ----------<br>------------- ------ ------ ---- ---- ------- ----- -- your<br>-------- ------- -- ---------- --- - --- ----- ----- ----<br>---- --- --- ----- --- ---- ---- ------- ----- ---- -------<br>--- --- -- ----- -- --- ---- -- --- ---- -- ------ ------<br>--- ----- -- ----,236025,235857,235486,235473,235502,236056,,17,your
screen,html.Screen,2_1_0_1_18,2022-02-17T16:46:24.758Z,,,,,,,,,,,,,,,,,53,,,,,,,,,,,,,,459.0000000000291,,response,,,,99,,,,,,,Space,keypress(Space),,,,,,,,---- -- ----- -- ------ - ------- --- ----------<br>------------- ------ ------ ---- ---- ------- ----- -- ----<br>romantic ------- -- ---------- --- - --- ----- ----- ----<br>---- --- --- ----- --- ---- ---- ------- ----- ---- -------<br>--- --- -- ----- -- --- ---- -- --- ---- -- ------ ------<br>--- ----- -- ----,236665,236498.00000000003,236039,236025,236056,236708,,18,romantic
screen,html.Screen,2_1_0_1_19,2022-02-17T16:46:25.324Z,,,,,,,,,,,,,,,,,53,,,,,,,,,,,,,,372,,response,,,,99,,,,,,,Space,keypress(Space),,,,,,,,---- -- ----- -- ------ - ------- --- ----------<br>------------- ------ ------ ---- ---- ------- ----- -- ----<br>-------- partner -- ---------- --- - --- ----- ----- ----<br>---- --- --- ----- --- ---- ---- ------- ----- ---- -------<br>--- --- -- ----- -- --- ---- -- --- ---- -- ------ ------<br>--- ----- -- ----,237231,237064,236692,236666,236708,237261,,19,partner
screen,html.Screen,2_1_0_1_20,2022-02-17T16:46:25.854Z,,,,,,,,,,,,,,,,,53,,,,,,,,,,,,,,348.0000000000291,,response,,,,99,,,,,,,Space,keypress(Space),,,,,,,,---- -- ----- -- ------ - ------- --- ----------<br>------------- ------ ------ ---- ---- ------- ----- -- ----<br>-------- ------- is ---------- --- - --- ----- ----- ----<br>---- --- --- ----- --- ---- ---- ------- ----- ---- -------<br>--- --- -- ----- -- --- ---- -- --- ---- -- ------ ------<br>--- ----- -- ----,237760,237593.00000000003,237245,237232,237261,237798,,20,is
screen,html.Screen,2_1_0_1_21,2022-02-17T16:46:26.555Z,,,,,,,,,,,,,,,,,53,,,,,,,,,,,,,,513.0000000000291,,response,,,,99,,,,,,,Space,keypress(Space),,,,,,,,---- -- ----- -- ------ - ------- --- ----------<br>------------- ------ ------ ---- ---- ------- ----- -- ----<br>-------- ------- -- paramount. --- - --- ----- ----- ----<br>---- --- --- ----- --- ---- ---- ------- ----- ---- -------<br>--- --- -- ----- -- --- ---- -- --- ---- -- ------ ------<br>--- ----- -- ----,238462.00000000003,238295.00000000003,237782,237761,237798,238500,,21,paramount.
screen,html.Screen,2_1_0_1_22,2022-02-17T16:46:27.193Z,,,,,,,,,,,,,,,,,53,,,,,,,,,,,,,,448.0000000000291,,response,,,,99,,,,,,,Space,keypress(Space),,,,,,,,---- -- ----- -- ------ - ------- --- ----------<br>------------- ------ ------ ---- ---- ------- ----- -- ----<br>-------- ------- -- ---------- But - --- ----- ----- ----<br>---- --- --- ----- --- ---- ---- ------- ----- ---- -------<br>--- --- -- ----- -- --- ---- -- --- ---- -- ------ ------<br>--- ----- -- ----,239099.00000000003,238932.00000000003,238484,238462.00000000003,238500,239137,,22,But
screen,html.Screen,2_1_0_1_23,2022-02-17T16:46:27.724Z,,,,,,,,,,,,,,,,,53,,,,,,,,,,,,,,343,,response,,,,99,,,,,,,Space,keypress(Space),,,,,,,,---- -- ----- -- ------ - ------- --- ----------<br>------------- ------ ------ ---- ---- ------- ----- -- ----<br>-------- ------- -- ---------- --- a --- ----- ----- ----<br>---- --- --- ----- --- ---- ---- ------- ----- ---- -------<br>--- --- -- ----- -- --- ---- -- --- ---- -- ------ ------<br>--- ----- -- ----,239631,239464,239121,239100,239137,239673,,23,a
screen,html.Screen,2_1_0_1_24,2022-02-17T16:46:28.215Z,,,,,,,,,,,,,,,,,53,,,,,,,,,,,,,,298,,response,,,,99,,,,,,,Space,keypress(Space),,,,,,,,---- -- ----- -- ------ - ------- --- ----------<br>------------- ------ ------ ---- ---- ------- ----- -- ----<br>-------- ------- -- ---------- --- - new ----- ----- ----<br>---- --- --- ----- --- ---- ---- ------- ----- ---- -------<br>--- --- -- ----- -- --- ---- -- --- ---- -- ------ ------<br>--- ----- -- ----,240122,239955,239657,239631,239673,240160,,24,new
screen,html.Screen,2_1_0_1_25,2022-02-17T16:46:28.684Z,,,,,,,,,,,,,,,,,53,,,,,,,,,,,,,,280,,response,,,,99,,,,,,,Space,keypress(Space),,,,,,,,---- -- ----- -- ------ - ------- --- ----------<br>------------- ------ ------ ---- ---- ------- ----- -- ----<br>-------- ------- -- ---------- --- - --- study ----- ----<br>---- --- --- ----- --- ---- ---- ------- ----- ---- -------<br>--- --- -- ----- -- --- ---- -- --- ---- -- ------ ------<br>--- ----- -- ----,240591,240423,240143,240122,240160,240629,,25,study
screen,html.Screen,2_1_0_1_26,2022-02-17T16:46:29.216Z,,,,,,,,,,,,,,,,,53,,,,,,,,,,,,,,342,,response,,,,99,,,,,,,Space,keypress(Space),,,,,,,,---- -- ----- -- ------ - ------- --- ----------<br>------------- ------ ------ ---- ---- ------- ----- -- ----<br>-------- ------- -- ---------- --- - --- ----- finds ----<br>---- --- --- ----- --- ---- ---- ------- ----- ---- -------<br>--- --- -- ----- -- --- ---- -- --- ---- -- ------ ------<br>--- ----- -- ----,241122,240955,240613,240591,240629,241165,,26,finds
screen,html.Screen,2_1_0_1_27,2022-02-17T16:46:29.805Z,,,,,,,,,,,,,,,,,53,,,,,,,,,,,,,,395,,response,,,,99,,,,,,,Space,keypress(Space),,,,,,,,---- -- ----- -- ------ - ------- --- ----------<br>------------- ------ ------ ---- ---- ------- ----- -- ----<br>-------- ------- -- ---------- --- - --- ----- ----- that<br>---- --- --- ----- --- ---- ---- ------- ----- ---- -------<br>--- --- -- ----- -- --- ---- -- --- ---- -- ------ ------<br>--- ----- -- ----,241711,241544,241149,241123.00000000003,241165,241751,,27,that
screen,html.Screen,2_1_0_1_28,2022-02-17T16:46:30.401Z,,,,,,,,,,,,,,,,,53,,,,,,,,,,,,,,406,,response,,,,99,,,,,,,Space,keypress(Space),,,,,,,,---- -- ----- -- ------ - ------- --- ----------<br>------------- ------ ------ ---- ---- ------- ----- -- ----<br>-------- ------- -- ---------- --- - --- ----- ----- ----<br>it's --- --- ----- --- ---- ---- ------- ----- ---- -------<br>--- --- -- ----- -- --- ---- -- --- ---- -- ------ ------<br>--- ----- -- ----,242308,242141,241735,241711,241751,242337,,28,it's
screen,html.Screen,2_1_0_1_29,2022-02-17T16:46:30.982Z,,,,,,,,,,,,,,,,,53,,,,,,,,,,,,,,401,,response,,,,99,,,,,,,Space,keypress(Space),,,,,,,,---- -- ----- -- ------ - ------- --- ----------<br>------------- ------ ------ ---- ---- ------- ----- -- ----<br>-------- ------- -- ---------- --- - --- ----- ----- ----<br>---- not --- ----- --- ---- ---- ------- ----- ---- -------<br>--- --- -- ----- -- --- ---- -- --- ---- -- ------ ------<br>--- ----- -- ----,242889,242721,242320,242308,242337,242923,,29,not
screen,html.Screen,2_1_0_1_30,2022-02-17T16:46:31.585Z,,,,,,,,,,,,,,,,,53,,,,,,,,,,,,,,417,,response,,,,99,,,,,,,Space,keypress(Space),,,,,,,,---- -- ----- -- ------ - ------- --- ----------<br>------------- ------ ------ ---- ---- ------- ----- -- ----<br>-------- ------- -- ---------- --- - --- ----- ----- ----<br>---- --- how ----- --- ---- ---- ------- ----- ---- -------<br>--- --- -- ----- -- --- ---- -- --- ---- -- ------ ------<br>--- ----- -- ----,243492.00000000003,243323,242906,242889,242923,243527,,30,how
screen,html.Screen,2_1_0_1_31,2022-02-17T16:46:32.106Z,,,,,,,,,,,,,,,,,53,,,,,,,,,,,,,,335,,response,,,,99,,,,,,,Space,keypress(Space),,,,,,,,---- -- ----- -- ------ - ------- --- ----------<br>------------- ------ ------ ---- ---- ------- ----- -- ----<br>-------- ------- -- ---------- --- - --- ----- ----- ----<br>---- --- --- close --- ---- ---- ------- ----- ---- -------<br>--- --- -- ----- -- --- ---- -- --- ---- -- ------ ------<br>--- ----- -- ----,244013,243845,243510,243492.00000000003,243527,244046,,31,close
screen,html.Screen,2_1_0_1_32,2022-02-17T16:46:32.726Z,,,,,,,,,,,,,,,,,53,,,,,,,,,,,,,,437,,response,,,,99,,,,,,,Space,keypress(Space),,,,,,,,---- -- ----- -- ------ - ------- --- ----------<br>------------- ------ ------ ---- ---- ------- ----- -- ----<br>-------- ------- -- ---------- --- - --- ----- ----- ----<br>---- --- --- ----- you ---- ---- ------- ----- ---- -------<br>--- --- -- ----- -- --- ---- -- --- ---- -- ------ ------<br>--- ----- -- ----,244633,244466,244029,244013,244046,244665,,32,you
screen,html.Screen,2_1_0_1_33,2022-02-17T16:46:33.309Z,,,,,,,,,,,,,,,,,53,,,,,,,,,,,,,,398,,response,,,,99,,,,,,,Space,keypress(Space),,,,,,,,---- -- ----- -- ------ - ------- --- ----------<br>------------- ------ ------ ---- ---- ------- ----- -- ----<br>-------- ------- -- ---------- --- - --- ----- ----- ----<br>---- --- --- ----- --- feel ---- ------- ----- ---- -------<br>--- --- -- ----- -- --- ---- -- --- ---- -- ------ ------<br>--- ----- -- ----,245216,245048,244650,244633,244665,245251,,33,feel
screen,html.Screen,2_1_0_1_34,2022-02-17T16:46:33.855Z,,,,,,,,,,,,,,,,,53,,,,,,,,,,,,,,359,,response,,,,99,,,,,,,Space,keypress(Space),,,,,,,,---- -- ----- -- ------ - ------- --- ----------<br>------------- ------ ------ ---- ---- ------- ----- -- ----<br>-------- ------- -- ---------- --- - --- ----- ----- ----<br>---- --- --- ----- --- ---- that ------- ----- ---- -------<br>--- --- -- ----- -- --- ---- -- --- ---- -- ------ ------<br>--- ----- -- ----,245762,245594,245235,245216,245251,245787,,34,that
screen,html.Screen,2_1_0_1_35,2022-02-17T16:46:34.374Z,,,,,,,,,,,,,,,,,53,,,,,,,,,,,,,,342,,response,,,,99,,,,,,,Space,keypress(Space),,,,,,,,---- -- ----- -- ------ - ------- --- ----------<br>------------- ------ ------ ---- ---- ------- ----- -- ----<br>-------- ------- -- ---------- --- - --- ----- ----- ----<br>---- --- --- ----- --- ---- ---- matters ----- ---- -------<br>--- --- -- ----- -- --- ---- -- --- ---- -- ------ ------<br>--- ----- -- ----,246281,246113,245771,245762,245787,246324,,35,matters
screen,html.Screen,2_1_0_1_36,2022-02-17T16:46:34.976Z,,,,,,,,,,,,,,,,,53,,,,,,,,,,,,,,407,,response,,,,99,,,,,,,Space,keypress(Space),,,,,,,,"---- -- ----- -- ------ - ------- --- ----------<br>------------- ------ ------ ---- ---- ------- ----- -- ----<br>-------- ------- -- ---------- --- - --- ----- ----- ----<br>---- --- --- ----- --- ---- ---- ------- most, ---- -------<br>--- --- -- ----- -- --- ---- -- --- ---- -- ------ ------<br>--- ----- -- ----",246883,246715,246308,246281,246324,246911,,36,"most,"
screen,html.Screen,2_1_0_1_37,2022-02-17T16:46:35.515Z,,,,,,,,,,,,,,,,,53,,,,,,,,,,,,,,360.0000000000291,,response,,,,99,,,,,,,Space,keypress(Space),,,,,,,,---- -- ----- -- ------ - ------- --- ----------<br>------------- ------ ------ ---- ---- ------- ----- -- ----<br>-------- ------- -- ---------- --- - --- ----- ----- ----<br>---- --- --- ----- --- ---- ---- ------- ----- it's -------<br>--- --- -- ----- -- --- ---- -- --- ---- -- ------ ------<br>--- ----- -- ----,247422,247254.00000000003,246894,246883,246911,247463,,37,it's
screen,html.Screen,2_1_0_1_38,2022-02-17T16:46:36.080Z,,,,,,,,,,,,,,,,,53,,,,,,,,,,,,,,372.0000000000291,,response,,,,99,,,,,,,Space,keypress(Space),,,,,,,,---- -- ----- -- ------ - ------- --- ----------<br>------------- ------ ------ ---- ---- ------- ----- -- ----<br>-------- ------- -- ---------- --- - --- ----- ----- ----<br>---- --- --- ----- --- ---- ---- ------- ----- ---- whether<br>--- --- -- ----- -- --- ---- -- --- ---- -- ------ ------<br>--- ----- -- ----,247987,247819.00000000003,247447,247422,247463,248017,,38,whether
screen,html.Screen,2_1_0_1_39,2022-02-17T16:46:36.685Z,,,,,,,,,,,,,,,,,53,,,,,,,,,,,,,,424,,response,,,,99,,,,,,,Space,keypress(Space),,,,,,,,---- -- ----- -- ------ - ------- --- ----------<br>------------- ------ ------ ---- ---- ------- ----- -- ----<br>-------- ------- -- ---------- --- - --- ----- ----- ----<br>---- --- --- ----- --- ---- ---- ------- ----- ---- -------<br>you --- -- ----- -- --- ---- -- --- ---- -- ------ ------<br>--- ----- -- ----,248592,248424,248000,247987,248017,248620,,39,you
screen,html.Screen,2_1_0_1_40,2022-02-17T16:46:37.290Z,,,,,,,,,,,,,,,,,53,,,,,,,,,,,,,,426,,response,,,,99,,,,,,,Space,keypress(Space),,,,,,,,---- -- ----- -- ------ - ------- --- ----------<br>------------- ------ ------ ---- ---- ------- ----- -- ----<br>-------- ------- -- ---------- --- - --- ----- ----- ----<br>---- --- --- ----- --- ---- ---- ------- ----- ---- -------<br>--- are -- ----- -- --- ---- -- --- ---- -- ------ ------<br>--- ----- -- ----,249197,249029,248603,248592,248620,249239,,40,are
screen,html.Screen,2_1_0_1_41,2022-02-17T16:46:37.857Z,,,,,,,,,,,,,,,,,53,,,,,,,,,,,,,,374,,response,,,,99,,,,,,,Space,keypress(Space),,,,,,,,---- -- ----- -- ------ - ------- --- ----------<br>------------- ------ ------ ---- ---- ------- ----- -- ----<br>-------- ------- -- ---------- --- - --- ----- ----- ----<br>---- --- --- ----- --- ---- ---- ------- ----- ---- -------<br>--- --- as ----- -- --- ---- -- --- ---- -- ------ ------<br>--- ----- -- ----,249764,249596,249222,249197,249239,249793,,41,as
screen,html.Screen,2_1_0_1_42,2022-02-17T16:46:38.436Z,,,,,,,,,,,,,,,,,53,,,,,,,,,,,,,,399,,response,,,,99,,,,,,,Space,keypress(Space),,,,,,,,---- -- ----- -- ------ - ------- --- ----------<br>------------- ------ ------ ---- ---- ------- ----- -- ----<br>-------- ------- -- ---------- --- - --- ----- ----- ----<br>---- --- --- ----- --- ---- ---- ------- ----- ---- -------<br>--- --- -- close -- --- ---- -- --- ---- -- ------ ------<br>--- ----- -- ----,250343.00000000003,250175,249776,249764,249793,250379,,42,close
screen,html.Screen,2_1_0_1_43,2022-02-17T16:46:38.982Z,,,,,,,,,,,,,,,,,53,,,,,,,,,,,,,,360,,response,,,,99,,,,,,,Space,keypress(Space),,,,,,,,---- -- ----- -- ------ - ------- --- ----------<br>------------- ------ ------ ---- ---- ------- ----- -- ----<br>-------- ------- -- ---------- --- - --- ----- ----- ----<br>---- --- --- ----- --- ---- ---- ------- ----- ---- -------<br>--- --- -- ----- as --- ---- -- --- ---- -- ------ ------<br>--- ----- -- ----,250889,250721,250361,250343.00000000003,250379,250931,,43,as
screen,html.Screen,2_1_0_1_44,2022-02-17T16:46:39.512Z,,,,,,,,,,,,,,,,,53,,,,,,,,,,,,,,335,,response,,,,99,,,,,,,Space,keypress(Space),,,,,,,,---- -- ----- -- ------ - ------- --- ----------<br>------------- ------ ------ ---- ---- ------- ----- -- ----<br>-------- ------- -- ---------- --- - --- ----- ----- ----<br>---- --- --- ----- --- ---- ---- ------- ----- ---- -------<br>--- --- -- ----- -- you ---- -- --- ---- -- ------ ------<br>--- ----- -- ----,251419,251251,250916,250889,250931,251451,,44,you
screen,html.Screen,2_1_0_1_45,2022-02-17T16:46:40.016Z,,,,,,,,,,,,,,,,,53,,,,,,,,,,,,,,320,,response,,,,99,,,,,,,Space,keypress(Space),,,,,,,,---- -- ----- -- ------ - ------- --- ----------<br>------------- ------ ------ ---- ---- ------- ----- -- ----<br>-------- ------- -- ---------- --- - --- ----- ----- ----<br>---- --- --- ----- --- ---- ---- ------- ----- ---- -------<br>--- --- -- ----- -- --- want -- --- ---- -- ------ ------<br>--- ----- -- ----,251923,251755,251435,251419,251451,251955,,45,want
screen,html.Screen,2_1_0_1_46,2022-02-17T16:46:40.591Z,,,,,,,,,,,,,,,,,53,,,,,,,,,,,,,,392,,response,,,,99,,,,,,,Space,keypress(Space),,,,,,,,---- -- ----- -- ------ - ------- --- ----------<br>------------- ------ ------ ---- ---- ------- ----- -- ----<br>-------- ------- -- ---------- --- - --- ----- ----- ----<br>---- --- --- ----- --- ---- ---- ------- ----- ---- -------<br>--- --- -- ----- -- --- ---- to --- ---- -- ------ ------<br>--- ----- -- ----,252498.00000000003,252330,251938,251923,251955,252541,,46,to
screen,html.Screen,2_1_0_1_47,2022-02-17T16:46:41.129Z,,,,,,,,,,,,,,,,,53,,,,,,,,,,,,,,344,,response,,,,99,,,,,,,Space,keypress(Space),,,,,,,,"---- -- ----- -- ------ - ------- --- ----------<br>------------- ------ ------ ---- ---- ------- ----- -- ----<br>-------- ------- -- ---------- --- - --- ----- ----- ----<br>---- --- --- ----- --- ---- ---- ------- ----- ---- -------<br>--- --- -- ----- -- --- ---- -- be, ---- -- ------ ------<br>--- ----- -- ----",253036,252868,252524,252498.00000000003,252541,253076,,47,"be,"
screen,html.Screen,2_1_0_1_48,2022-02-17T16:46:41.648Z,,,,,,,,,,,,,,,,,53,,,,,,,,,,,,,,325,,response,,,,99,,,,,,,Space,keypress(Space),,,,,,,,---- -- ----- -- ------ - ------- --- ----------<br>------------- ------ ------ ---- ---- ------- ----- -- ----<br>-------- ------- -- ---------- --- - --- ----- ----- ----<br>---- --- --- ----- --- ---- ---- ------- ----- ---- -------<br>--- --- -- ----- -- --- ---- -- --- even -- ------ ------<br>--- ----- -- ----,253555,253386,253061,253036,253076,253596,,48,even
screen,html.Screen,2_1_0_1_49,2022-02-17T16:46:42.196Z,,,,,,,,,,,,,,,,,53,,,,,,,,,,,,,,355,,response,,,,99,,,,,,,Space,keypress(Space),,,,,,,,---- -- ----- -- ------ - ------- --- ----------<br>------------- ------ ------ ---- ---- ------- ----- -- ----<br>-------- ------- -- ---------- --- - --- ----- ----- ----<br>---- --- --- ----- --- ---- ---- ------- ----- ---- -------<br>--- --- -- ----- -- --- ---- -- --- ---- if ------ ------<br>--- ----- -- ----,254103,253935,253580,253556,253596,254135,,49,if
screen,html.Screen,2_1_0_1_50,2022-02-17T16:46:42.698Z,,,,,,,,,,,,,,,,,53,,,,,,,,,,,,,,319,,response,,,,99,,,,,,,Space,keypress(Space),,,,,,,,---- -- ----- -- ------ - ------- --- ----------<br>------------- ------ ------ ---- ---- ------- ----- -- ----<br>-------- ------- -- ---------- --- - --- ----- ----- ----<br>---- --- --- ----- --- ---- ---- ------- ----- ---- -------<br>--- --- -- ----- -- --- ---- -- --- ---- -- that's ------<br>--- ----- -- ----,254605.00000000003,254437,254118,254103,254135,254638,,50,that's
screen,html.Screen,2_1_0_1_51,2022-02-17T16:46:43.215Z,,,,,,,,,,,,,,,,,53,,,,,,,,,,,,,,333,,response,,,,99,,,,,,,Space,keypress(Space),,,,,,,,---- -- ----- -- ------ - ------- --- ----------<br>------------- ------ ------ ---- ---- ------- ----- -- ----<br>-------- ------- -- ---------- --- - --- ----- ----- ----<br>---- --- --- ----- --- ---- ---- ------- ----- ---- -------<br>--- --- -- ----- -- --- ---- -- --- ---- -- ------ really<br>--- ----- -- ----,255122,254954,254621,254605.00000000003,254638,255157,,51,really
screen,html.Screen,2_1_0_1_52,2022-02-17T16:46:44.294Z,,,,,,,,,,,,,,,,,53,,,,,,,,,,,,,,893.0000000000291,,response,,,,99,,,,,,,Space,keypress(Space),,,,,,,,---- -- ----- -- ------ - ------- --- ----------<br>------------- ------ ------ ---- ---- ------- ----- -- ----<br>-------- ------- -- ---------- --- - --- ----- ----- ----<br>---- --- --- ----- --- ---- ---- ------- ----- ---- -------<br>--- --- -- ----- -- --- ---- -- --- ---- -- ------ ------<br>not ----- -- ----,256201.00000000003,256033.00000000003,255140,255122,255157,256243,,52,not
screen,html.Screen,2_1_0_1_53,2022-02-17T16:46:44.820Z,,,,,,,,,,,,,,,,,53,,,,,,,,,,,,,,332.0000000000291,,response,,,,99,,,,,,,Space,keypress(Space),,,,,,,,---- -- ----- -- ------ - ------- --- ----------<br>------------- ------ ------ ---- ---- ------- ----- -- ----<br>-------- ------- -- ---------- --- - --- ----- ----- ----<br>---- --- --- ----- --- ---- ---- ------- ----- ---- -------<br>--- --- -- ----- -- --- ---- -- --- ---- -- ------ ------<br>--- close -- ----,256727.00000000003,256559.00000000003,256227,256201.00000000003,256243,256762,,53,close
screen,html.Screen,2_1_0_1_54,2022-02-17T16:46:45.343Z,,,,,,,,,,,,,,,,,53,,,,,,,,,,,,,,337,,response,,,,99,,,,,,,Space,keypress(Space),,,,,,,,---- -- ----- -- ------ - ------- --- ----------<br>------------- ------ ------ ---- ---- ------- ----- -- ----<br>-------- ------- -- ---------- --- - --- ----- ----- ----<br>---- --- --- ----- --- ---- ---- ------- ----- ---- -------<br>--- --- -- ----- -- --- ---- -- --- ---- -- ------ ------<br>--- ----- at ----,257250,257082,256745,256727.00000000003,256762,257282,,54,at
screen,html.Screen,2_1_0_1_55,2022-02-17T16:46:46.221Z,,,,,,,,,,,,,,,,,53,,,,,,,,,,,,,,693.9999999999709,,response,,,,99,,,,,,,Space,keypress(Space),,,,,,,,---- -- ----- -- ------ - ------- --- ----------<br>------------- ------ ------ ---- ---- ------- ----- -- ----<br>-------- ------- -- ---------- --- - --- ----- ----- ----<br>---- --- --- ----- --- ---- ---- ------- ----- ---- -------<br>--- --- -- ----- -- --- ---- -- --- ---- -- ------ ------<br>--- ----- -- all.,258128,257959.99999999997,257266,257250,257282,258169,,55,all.
Item 99,flow.Loop,2_1_0_1,2022-02-17T16:46:46.222Z,,,,,,,,,,,,,,,,,,,,,,,,,,,,,,,32805.99999999997,,completion,,,,,F,,,,,,,,,,,silence,,,,,258128,257959.99999999997,225134,225134,225154,258169,,,
Question 1,html.Screen,2_1_0_2,2022-02-17T16:46:53.588Z,,,,,,,,,,,,,,,,,,,,,,,,,,,,true,FALSE,,7175,,response,,,,99,F,,,,,,FALSE,click #choice-2,,,,silence,,,,,265494,265327,258152,258128,258169,265512,,,
Question 2,html.Screen,2_1_0_3,2022-02-17T16:46:58.087Z,,,,,,,,,,,,,,,,,,,,,,,,,,,,true,TRUE,,4329,,response,,,,99,F,,,,,,TRUE,click #choice-1,,,,silence,,,,,269994,269826,265497,265494,265512,270026,,,
Item 99,flow.Sequence,2_1_0,2022-02-17T16:46:58.088Z,,,,,,,,,,,,,,,,,,,,,,,,,,,,,,,54681,,completion,,,,,,,,,,,,,,,,,,,,,269994,269826,215127,215123,215145,270026,,,
Holding screen,html.Screen,2_1_1_0,2022-02-17T16:47:08.096Z,,,,,,,,,,,,,,,,,,,,,,,,,,,,,,,9991,,timeout,,,,,,,,,,,,,,,,,,,,,280002,280002,270005,269995,270026,280017,,,
screen,html.Screen,2_1_1_1_0,2022-02-17T16:47:08.878Z,,,,,,,,,,,,,,,,,54,,,,,,,,,,,,,,613,,response,,,,100,,,,,,,Space,keypress(Space),,,,,,,,At --- ---- --- ------ ----- ------- ---- -- --- ------- --<br>------- ---------- ------ -- ----- -- ----- -- ---- ------<br>--- ----- --- --- ------ -------- ----- --- ------ ----- --<br>----- ----- ---------- --- --- ------ ------ ---- -- ------<br>------- --- ------ ----- --- ---- ------- -- ---- --- --<br>------- ------,280784,280615,280002,280002,280017,280823,,0,At
screen,html.Screen,2_1_1_1_1,2022-02-17T16:47:09.531Z,,,,,,,,,,,,,,,,,54,,,,,,,,,,,,,,461,,response,,,,100,,,,,,,Space,keypress(Space),,,,,,,,-- the ---- --- ------ ----- ------- ---- -- --- ------- --<br>------- ---------- ------ -- ----- -- ----- -- ---- ------<br>--- ----- --- --- ------ -------- ----- --- ------ ----- --<br>----- ----- ---------- --- --- ------ ------ ---- -- ------<br>------- --- ------ ----- --- ---- ------- -- ---- --- --<br>------- ------,281437,281268,280807,280784,280823,281464,,1,the
screen,html.Screen,2_1_1_1_2,2022-02-17T16:47:10.133Z,,,,,,,,,,,,,,,,,54,,,,,,,,,,,,,,423,,response,,,,100,,,,,,,Space,keypress(Space),,,,,,,,-- --- time --- ------ ----- ------- ---- -- --- ------- --<br>------- ---------- ------ -- ----- -- ----- -- ---- ------<br>--- ----- --- --- ------ -------- ----- --- ------ ----- --<br>----- ----- ---------- --- --- ------ ------ ---- -- ------<br>------- --- ------ ----- --- ---- ------- -- ---- --- --<br>------- ------,282039,281870,281447,281437,281464,282066,,2,time
screen,html.Screen,2_1_1_1_3,2022-02-17T16:47:10.754Z,,,,,,,,,,,,,,,,,54,,,,,,,,,,,,,,440,,response,,,,100,,,,,,,Space,keypress(Space),,,,,,,,-- --- ---- the ------ ----- ------- ---- -- --- ------- --<br>------- ---------- ------ -- ----- -- ----- -- ---- ------<br>--- ----- --- --- ------ -------- ----- --- ------ ----- --<br>----- ----- ---------- --- --- ------ ------ ---- -- ------<br>------- --- ------ ----- --- ---- ------- -- ---- --- --<br>------- ------,282660,282491,282051,282039,282066,282687,,3,the
screen,html.Screen,2_1_1_1_4,2022-02-17T16:47:11.423Z,,,,,,,,,,,,,,,,,54,,,,,,,,,,,,,,490,,response,,,,100,,,,,,,Space,keypress(Space),,,,,,,,-- --- ---- --- French ----- ------- ---- -- --- ------- --<br>------- ---------- ------ -- ----- -- ----- -- ---- ------<br>--- ----- --- --- ------ -------- ----- --- ------ ----- --<br>----- ----- ---------- --- --- ------ ------ ---- -- ------<br>------- --- ------ ----- --- ---- ------- -- ---- --- --<br>------- ------,283329,283160,282670,282660,282687,283357,,4,French
screen,html.Screen,2_1_1_1_5,2022-02-17T16:47:12.108Z,,,,,,,,,,,,,,,,,54,,,,,,,,,,,,,,506,,response,,,,100,,,,,,,Space,keypress(Space),,,,,,,,-- --- ---- --- ------ crown ------- ---- -- --- ------- --<br>------- ---------- ------ -- ----- -- ----- -- ---- ------<br>--- ----- --- --- ------ -------- ----- --- ------ ----- --<br>----- ----- ---------- --- --- ------ ------ ---- -- ------<br>------- --- ------ ----- --- ---- ------- -- ---- --- --<br>------- ------,284014,283846,283340,283329,283357,284043,,5,crown
screen,html.Screen,2_1_1_1_6,2022-02-17T16:47:12.714Z,,,,,,,,,,,,,,,,,54,,,,,,,,,,,,,,425,,response,,,,100,,,,,,,Space,keypress(Space),,,,,,,,-- --- ---- --- ------ ----- secured ---- -- --- ------- --<br>------- ---------- ------ -- ----- -- ----- -- ---- ------<br>--- ----- --- --- ------ -------- ----- --- ------ ----- --<br>----- ----- ---------- --- --- ------ ------ ---- -- ------<br>------- --- ------ ----- --- ---- ------- -- ---- --- --<br>------- ------,284620,284451,284026,284014,284043,284663,,6,secured
screen,html.Screen,2_1_1_1_7,2022-02-17T16:47:13.315Z,,,,,,,,,,,,,,,,,54,,,,,,,,,,,,,,407,,response,,,,100,,,,,,,Space,keypress(Space),,,,,,,,-- --- ---- --- ------ ----- ------- much -- --- ------- --<br>------- ---------- ------ -- ----- -- ----- -- ---- ------<br>--- ----- --- --- ------ -------- ----- --- ------ ----- --<br>----- ----- ---------- --- --- ------ ------ ---- -- ------<br>------- --- ------ ----- --- ---- ------- -- ---- --- --<br>------- ------,285221,285052,284645,284620,284663,285249,,7,much
screen,html.Screen,2_1_1_1_8,2022-02-17T16:47:13.870Z,,,,,,,,,,,,,,,,,54,,,,,,,,,,,,,,375,,response,,,,100,,,,,,,Space,keypress(Space),,,,,,,,-- --- ---- --- ------ ----- ------- ---- of --- ------- --<br>------- ---------- ------ -- ----- -- ----- -- ---- ------<br>--- ----- --- --- ------ -------- ----- --- ------ ----- --<br>----- ----- ---------- --- --- ------ ------ ---- -- ------<br>------- --- ------ ----- --- ---- ------- -- ---- --- --<br>------- ------,285776,285607,285232,285221,285249,285819,,8,of
screen,html.Screen,2_1_1_1_9,2022-02-17T16:47:14.460Z,,,,,,,,,,,,,,,,,54,,,,,,,,,,,,,,395,,response,,,,100,,,,,,,Space,keypress(Space),,,,,,,,-- --- ---- --- ------ ----- ------- ---- -- its ------- --<br>------- ---------- ------ -- ----- -- ----- -- ---- ------<br>--- ----- --- --- ------ -------- ----- --- ------ ----- --<br>----- ----- ---------- --- --- ------ ------ ---- -- ------<br>------- --- ------ ----- --- ---- ------- -- ---- --- --<br>------- ------,286366,286197,285802,285776,285819,286405,,9,its
screen,html.Screen,2_1_1_1_10,2022-02-17T16:47:15.143Z,,,,,,,,,,,,,,,,,54,,,,,,,,,,,,,,492,,response,,,,100,,,,,,,Space,keypress(Space),,,,,,,,-- --- ---- --- ------ ----- ------- ---- -- --- revenue --<br>------- ---------- ------ -- ----- -- ----- -- ---- ------<br>--- ----- --- --- ------ -------- ----- --- ------ ----- --<br>----- ----- ---------- --- --- ------ ------ ---- -- ------<br>------- --- ------ ----- --- ---- ------- -- ---- --- --<br>------- ------,287049,286880,286388,286366,286405,287091,,10,revenue
screen,html.Screen,2_1_1_1_11,2022-02-17T16:47:15.671Z,,,,,,,,,,,,,,,,,54,,,,,,,,,,,,,,333,,response,,,,100,,,,,,,Space,keypress(Space),,,,,,,,-- --- ---- --- ------ ----- ------- ---- -- --- ------- by<br>------- ---------- ------ -- ----- -- ----- -- ---- ------<br>--- ----- --- --- ------ -------- ----- --- ------ ----- --<br>----- ----- ---------- --- --- ------ ------ ---- -- ------<br>------- --- ------ ----- --- ---- ------- -- ---- --- --<br>------- ------,287577,287408,287075,287049,287091,287610,,11,by
screen,html.Screen,2_1_1_1_12,2022-02-17T16:47:16.247Z,,,,,,,,,,,,,,,,,54,,,,,,,,,,,,,,389,,response,,,,100,,,,,,,Space,keypress(Space),,,,,,,,-- --- ---- --- ------ ----- ------- ---- -- --- ------- --<br>issuing ---------- ------ -- ----- -- ----- -- ---- ------<br>--- ----- --- --- ------ -------- ----- --- ------ ----- --<br>----- ----- ---------- --- --- ------ ------ ---- -- ------<br>------- --- ------ ----- --- ---- ------- -- ---- --- --<br>------- ------,288153,287984,287595,287577,287610,288181,,12,issuing
screen,html.Screen,2_1_1_1_13,2022-02-17T16:47:16.912Z,,,,,,,,,,,,,,,,,54,,,,,,,,,,,,,,485,,response,,,,100,,,,,,,Space,keypress(Space),,,,,,,,-- --- ---- --- ------ ----- ------- ---- -- --- ------- --<br>------- government ------ -- ----- -- ----- -- ---- ------<br>--- ----- --- --- ------ -------- ----- --- ------ ----- --<br>----- ----- ---------- --- --- ------ ------ ---- -- ------<br>------- --- ------ ----- --- ---- ------- -- ---- --- --<br>------- ------,288818,288649,288164,288153,288181,288849,,13,government
screen,html.Screen,2_1_1_1_14,2022-02-17T16:47:17.954Z,,,,,,,,,,,,,,,,,54,,,,,,,,,,,,,,857.0000000000582,,response,,,,100,,,,,,,Space,keypress(Space),,,,,,,,-- --- ---- --- ------ ----- ------- ---- -- --- ------- --<br>------- ---------- bonds. -- ----- -- ----- -- ---- ------<br>--- ----- --- --- ------ -------- ----- --- ------ ----- --<br>----- ----- ---------- --- --- ------ ------ ---- -- ------<br>------- --- ------ ----- --- ---- ------- -- ---- --- --<br>------- ------,289860,289691.00000000006,288834,288818,288849,289903,,14,bonds.
screen,html.Screen,2_1_1_1_15,2022-02-17T16:47:18.457Z,,,,,,,,,,,,,,,,,54,,,,,,,,,,,,,,308,,response,,,,100,,,,,,,Space,keypress(Space),,,,,,,,-- --- ---- --- ------ ----- ------- ---- -- --- ------- --<br>------- ---------- ------ In ----- -- ----- -- ---- ------<br>--- ----- --- --- ------ -------- ----- --- ------ ----- --<br>----- ----- ---------- --- --- ------ ------ ---- -- ------<br>------- --- ------ ----- --- ---- ------- -- ---- --- --<br>------- ------,290363,290194,289886,289860,289903,290390,,15,In
screen,html.Screen,2_1_1_1_16,2022-02-17T16:47:19.930Z,,,,,,,,,,,,,,,,,54,,,,,,,,,,,,,,1294.0000000000582,,response,,,,100,,,,,,,Space,keypress(Space),,,,,,,,"-- --- ---- --- ------ ----- ------- ---- -- --- ------- --<br>------- ---------- ------ -- 1727, -- ----- -- ---- ------<br>--- ----- --- --- ------ -------- ----- --- ------ ----- --<br>----- ----- ---------- --- --- ------ ------ ---- -- ------<br>------- --- ------ ----- --- ---- ------- -- ---- --- --<br>------- ------",291836,291667.00000000006,290373,290363,290390,291876,,16,"1727,"
screen,html.Screen,2_1_1_1_17,2022-02-17T16:47:20.525Z,,,,,,,,,,,,,,,,,54,,,,,,,,,,,,,,402,,response,,,,100,,,,,,,Space,keypress(Space),,,,,,,,-- --- ---- --- ------ ----- ------- ---- -- --- ------- --<br>------- ---------- ------ -- ----- in ----- -- ---- ------<br>--- ----- --- --- ------ -------- ----- --- ------ ----- --<br>----- ----- ---------- --- --- ------ ------ ---- -- ------<br>------- --- ------ ----- --- ---- ------- -- ---- --- --<br>------- ------,292431,292262,291860,291836,291876,292463,,17,in
screen,html.Screen,2_1_1_1_18,2022-02-17T16:47:21.111Z,,,,,,,,,,,,,,,,,54,,,,,,,,,,,,,,403,,response,,,,100,,,,,,,Space,keypress(Space),,,,,,,,-- --- ---- --- ------ ----- ------- ---- -- --- ------- --<br>------- ---------- ------ -- ----- -- order -- ---- ------<br>--- ----- --- --- ------ -------- ----- --- ------ ----- --<br>----- ----- ---------- --- --- ------ ------ ---- -- ------<br>------- --- ------ ----- --- ---- ------- -- ---- --- --<br>------- ------,293017,292849,292446,292431,292463,293049,,18,order
screen,html.Screen,2_1_1_1_19,2022-02-17T16:47:21.647Z,,,,,,,,,,,,,,,,,54,,,,,,,,,,,,,,352,,response,,,,100,,,,,,,Space,keypress(Space),,,,,,,,-- --- ---- --- ------ ----- ------- ---- -- --- ------- --<br>------- ---------- ------ -- ----- -- ----- to ---- ------<br>--- ----- --- --- ------ -------- ----- --- ------ ----- --<br>----- ----- ---------- --- --- ------ ------ ---- -- ------<br>------- --- ------ ----- --- ---- ------- -- ---- --- --<br>------- ------,293553,293384,293032,293017,293049,293586,,19,to
screen,html.Screen,2_1_1_1_20,2022-02-17T16:47:22.233Z,,,,,,,,,,,,,,,,,54,,,,,,,,,,,,,,401,,response,,,,100,,,,,,,Space,keypress(Space),,,,,,,,-- --- ---- --- ------ ----- ------- ---- -- --- ------- --<br>------- ---------- ------ -- ----- -- ----- -- save ------<br>--- ----- --- --- ------ -------- ----- --- ------ ----- --<br>----- ----- ---------- --- --- ------ ------ ---- -- ------<br>------- --- ------ ----- --- ---- ------- -- ---- --- --<br>------- ------,294139,293970,293569,293553,293586,294172,,20,save
screen,html.Screen,2_1_1_1_21,2022-02-17T16:47:22.804Z,,,,,,,,,,,,,,,,,54,,,,,,,,,,,,,,386,,response,,,,100,,,,,,,Space,keypress(Space),,,,,,,,"-- --- ---- --- ------ ----- ------- ---- -- --- ------- --<br>------- ---------- ------ -- ----- -- ----- -- ---- money,<br>--- ----- --- --- ------ -------- ----- --- ------ ----- --<br>----- ----- ---------- --- --- ------ ------ ---- -- ------<br>------- --- ------ ----- --- ---- ------- -- ---- --- --<br>------- ------",294710,294541,294155,294139,294172,294742,,21,"money,"
screen,html.Screen,2_1_1_1_22,2022-02-17T16:47:23.340Z,,,,,,,,,,,,,,,,,54,,,,,,,,,,,,,,353,,response,,,,100,,,,,,,Space,keypress(Space),,,,,,,,-- --- ---- --- ------ ----- ------- ---- -- --- ------- --<br>------- ---------- ------ -- ----- -- ----- -- ---- ------<br>the ----- --- --- ------ -------- ----- --- ------ ----- --<br>----- ----- ---------- --- --- ------ ------ ---- -- ------<br>------- --- ------ ----- --- ---- ------- -- ---- --- --<br>------- ------,295246,295077,294724,294710,294742,295278,,22,the
screen,html.Screen,2_1_1_1_23,2022-02-17T16:47:23.857Z,,,,,,,,,,,,,,,,,54,,,,,,,,,,,,,,333,,response,,,,100,,,,,,,Space,keypress(Space),,,,,,,,-- --- ---- --- ------ ----- ------- ---- -- --- ------- --<br>------- ---------- ------ -- ----- -- ----- -- ---- ------<br>--- state --- --- ------ -------- ----- --- ------ ----- --<br>----- ----- ---------- --- --- ------ ------ ---- -- ------<br>------- --- ------ ----- --- ---- ------- -- ---- --- --<br>------- ------,295763.00000000006,295594,295261,295246,295278,295798,,23,state
screen,html.Screen,2_1_1_1_24,2022-02-17T16:47:24.461Z,,,,,,,,,,,,,,,,,54,,,,,,,,,,,,,,418,,response,,,,100,,,,,,,Space,keypress(Space),,,,,,,,-- --- ---- --- ------ ----- ------- ---- -- --- ------- --<br>------- ---------- ------ -- ----- -- ----- -- ---- ------<br>--- ----- cut --- ------ -------- ----- --- ------ ----- --<br>----- ----- ---------- --- --- ------ ------ ---- -- ------<br>------- --- ------ ----- --- ---- ------- -- ---- --- --<br>------- ------,296367,296199,295781,295763.00000000006,295798,296402,,24,cut
screen,html.Screen,2_1_1_1_25,2022-02-17T16:47:25.120Z,,,,,,,,,,,,,,,,,54,,,,,,,,,,,,,,473,,response,,,,100,,,,,,,Space,keypress(Space),,,,,,,,-- --- ---- --- ------ ----- ------- ---- -- --- ------- --<br>------- ---------- ------ -- ----- -- ----- -- ---- ------<br>--- ----- --- the ------ -------- ----- --- ------ ----- --<br>----- ----- ---------- --- --- ------ ------ ---- -- ------<br>------- --- ------ ----- --- ---- ------- -- ---- --- --<br>------- ------,297026,296858,296385,296367,296402,297055,,25,the
screen,html.Screen,2_1_1_1_26,2022-02-17T16:47:25.697Z,,,,,,,,,,,,,,,,,54,,,,,,,,,,,,,,395,,response,,,,100,,,,,,,Space,keypress(Space),,,,,,,,-- --- ---- --- ------ ----- ------- ---- -- --- ------- --<br>------- ---------- ------ -- ----- -- ----- -- ---- ------<br>--- ----- --- --- bonds' -------- ----- --- ------ ----- --<br>----- ----- ---------- --- --- ------ ------ ---- -- ------<br>------- --- ------ ----- --- ---- ------- -- ---- --- --<br>------- ------,297603,297434,297039,297026,297055,297641,,26,bonds'
screen,html.Screen,2_1_1_1_27,2022-02-17T16:47:26.361Z,,,,,,,,,,,,,,,,,54,,,,,,,,,,,,,,473,,response,,,,100,,,,,,,Space,keypress(Space),,,,,,,,-- --- ---- --- ------ ----- ------- ---- -- --- ------- --<br>------- ---------- ------ -- ----- -- ----- -- ---- ------<br>--- ----- --- --- ------ interest ----- --- ------ ----- --<br>----- ----- ---------- --- --- ------ ------ ---- -- ------<br>------- --- ------ ----- --- ---- ------- -- ---- --- --<br>------- ------,298266,298098,297625,297603,297641,298294,,27,interest
screen,html.Screen,2_1_1_1_28,2022-02-17T16:47:27.026Z,,,,,,,,,,,,,,,,,54,,,,,,,,,,,,,,485.0000000000582,,response,,,,100,,,,,,,Space,keypress(Space),,,,,,,,-- --- ---- --- ------ ----- ------- ---- -- --- ------- --<br>------- ---------- ------ -- ----- -- ----- -- ---- ------<br>--- ----- --- --- ------ -------- rate. --- ------ ----- --<br>----- ----- ---------- --- --- ------ ------ ---- -- ------<br>------- --- ------ ----- --- ---- ------- -- ---- --- --<br>------- ------,298932,298763.00000000006,298278,298267,298294,298965,,28,rate.
screen,html.Screen,2_1_1_1_29,2022-02-17T16:47:27.700Z,,,,,,,,,,,,,,,,,54,,,,,,,,,,,,,,489,,response,,,,100,,,,,,,Space,keypress(Space),,,,,,,,-- --- ---- --- ------ ----- ------- ---- -- --- ------- --<br>------- ---------- ------ -- ----- -- ----- -- ---- ------<br>--- ----- --- --- ------ -------- ----- The ------ ----- --<br>----- ----- ---------- --- --- ------ ------ ---- -- ------<br>------- --- ------ ----- --- ---- ------- -- ---- --- --<br>------- ------,299605,299437,298948,298932,298965,299633,,29,The
screen,html.Screen,2_1_1_1_30,2022-02-17T16:47:28.388Z,,,,,,,,,,,,,,,,,54,,,,,,,,,,,,,,507,,response,,,,100,,,,,,,Space,keypress(Space),,,,,,,,-- --- ---- --- ------ ----- ------- ---- -- --- ------- --<br>------- ---------- ------ -- ----- -- ----- -- ---- ------<br>--- ----- --- --- ------ -------- ----- --- market ----- --<br>----- ----- ---------- --- --- ------ ------ ---- -- ------<br>------- --- ------ ----- --- ---- ------- -- ---- --- --<br>------- ------,300294,300125,299618,299605,299633,300337,,30,market
screen,html.Screen,2_1_1_1_31,2022-02-17T16:47:29.024Z,,,,,,,,,,,,,,,,,54,,,,,,,,,,,,,,440,,response,,,,100,,,,,,,Space,keypress(Space),,,,,,,,-- --- ---- --- ------ ----- ------- ---- -- --- ------- --<br>------- ---------- ------ -- ----- -- ----- -- ---- ------<br>--- ----- --- --- ------ -------- ----- --- ------ value --<br>----- ----- ---------- --- --- ------ ------ ---- -- ------<br>------- --- ------ ----- --- ---- ------- -- ---- --- --<br>------- ------,300929.00000000006,300760,300320,300294,300337,300956,,31,value
screen,html.Screen,2_1_1_1_32,2022-02-17T16:47:29.553Z,,,,,,,,,,,,,,,,,54,,,,,,,,,,,,,,349,,response,,,,100,,,,,,,Space,keypress(Space),,,,,,,,-- --- ---- --- ------ ----- ------- ---- -- --- ------- --<br>------- ---------- ------ -- ----- -- ----- -- ---- ------<br>--- ----- --- --- ------ -------- ----- --- ------ ----- of<br>----- ----- ---------- --- --- ------ ------ ---- -- ------<br>------- --- ------ ----- --- ---- ------- -- ---- --- --<br>------- ------,301458,301289,300940,300929.00000000006,300956,301492,,32,of
screen,html.Screen,2_1_1_1_33,2022-02-17T16:47:30.210Z,,,,,,,,,,,,,,,,,54,,,,,,,,,,,,,,470,,response,,,,100,,,,,,,Space,keypress(Space),,,,,,,,-- --- ---- --- ------ ----- ------- ---- -- --- ------- --<br>------- ---------- ------ -- ----- -- ----- -- ---- ------<br>--- ----- --- --- ------ -------- ----- --- ------ ----- --<br>these ----- ---------- --- --- ------ ------ ---- -- ------<br>------- --- ------ ----- --- ---- ------- -- ---- --- --<br>------- ------,302115,301946,301476,301458,301492,302146,,33,these
screen,html.Screen,2_1_1_1_34,2022-02-17T16:47:30.877Z,,,,,,,,,,,,,,,,,54,,,,,,,,,,,,,,484,,response,,,,100,,,,,,,Space,keypress(Space),,,,,,,,-- --- ---- --- ------ ----- ------- ---- -- --- ------- --<br>------- ---------- ------ -- ----- -- ----- -- ---- ------<br>--- ----- --- --- ------ -------- ----- --- ------ ----- --<br>----- bonds ---------- --- --- ------ ------ ---- -- ------<br>------- --- ------ ----- --- ---- ------- -- ---- --- --<br>------- ------,302782,302613,302129,302116,302146,302815,,34,bonds
screen,html.Screen,2_1_1_1_35,2022-02-17T16:47:31.613Z,,,,,,,,,,,,,,,,,54,,,,,,,,,,,,,,550,,response,,,,100,,,,,,,Space,keypress(Space),,,,,,,,"-- --- ---- --- ------ ----- ------- ---- -- --- ------- --<br>------- ---------- ------ -- ----- -- ----- -- ---- ------<br>--- ----- --- --- ------ -------- ----- --- ------ ----- --<br>----- ----- plummeted, --- --- ------ ------ ---- -- ------<br>------- --- ------ ----- --- ---- ------- -- ---- --- --<br>------- ------",303518,303349,302799,302782,302815,303552,,35,"plummeted,"
screen,html.Screen,2_1_1_1_36,2022-02-17T16:47:32.240Z,,,,,,,,,,,,,,,,,54,,,,,,,,,,,,,,441.0000000000582,,response,,,,100,,,,,,,Space,keypress(Space),,,,,,,,-- --- ---- --- ------ ----- ------- ---- -- --- ------- --<br>------- ---------- ------ -- ----- -- ----- -- ---- ------<br>--- ----- --- --- ------ -------- ----- --- ------ ----- --<br>----- ----- ---------- and --- ------ ------ ---- -- ------<br>------- --- ------ ----- --- ---- ------- -- ---- --- --<br>------- ------,304146,303977.00000000006,303536,303518,303552,304189,,36,and
screen,html.Screen,2_1_1_1_37,2022-02-17T16:47:32.865Z,,,,,,,,,,,,,,,,,54,,,,,,,,,,,,,,429,,response,,,,100,,,,,,,Space,keypress(Space),,,,,,,,-- --- ---- --- ------ ----- ------- ---- -- --- ------- --<br>------- ---------- ------ -- ----- -- ----- -- ---- ------<br>--- ----- --- --- ------ -------- ----- --- ------ ----- --<br>----- ----- ---------- --- the ------ ------ ---- -- ------<br>------- --- ------ ----- --- ---- ------- -- ---- --- --<br>------- ------,304770,304601,304172,304146,304189,304808,,37,the
screen,html.Screen,2_1_1_1_38,2022-02-17T16:47:33.575Z,,,,,,,,,,,,,,,,,54,,,,,,,,,,,,,,519,,response,,,,100,,,,,,,Space,keypress(Space),,,,,,,,-- --- ---- --- ------ ----- ------- ---- -- --- ------- --<br>------- ---------- ------ -- ----- -- ----- -- ---- ------<br>--- ----- --- --- ------ -------- ----- --- ------ ----- --<br>----- ----- ---------- --- --- market ------ ---- -- ------<br>------- --- ------ ----- --- ---- ------- -- ---- --- --<br>------- ------,305480,305311,304792,304770,304808,305511,,38,market
screen,html.Screen,2_1_1_1_39,2022-02-17T16:47:34.170Z,,,,,,,,,,,,,,,,,54,,,,,,,,,,,,,,411,,response,,,,100,,,,,,,Space,keypress(Space),,,,,,,,-- --- ---- --- ------ ----- ------- ---- -- --- ------- --<br>------- ---------- ------ -- ----- -- ----- -- ---- ------<br>--- ----- --- --- ------ -------- ----- --- ------ ----- --<br>----- ----- ---------- --- --- ------ became ---- -- ------<br>------- --- ------ ----- --- ---- ------- -- ---- --- --<br>------- ------,306075,305906,305495,305480,305511,306114,,39,became
screen,html.Screen,2_1_1_1_40,2022-02-17T16:47:34.803Z,,,,,,,,,,,,,,,,,54,,,,,,,,,,,,,,442,,response,,,,100,,,,,,,Space,keypress(Space),,,,,,,,-- --- ---- --- ------ ----- ------- ---- -- --- ------- --<br>------- ---------- ------ -- ----- -- ----- -- ---- ------<br>--- ----- --- --- ------ -------- ----- --- ------ ----- --<br>----- ----- ---------- --- --- ------ ------ wary -- ------<br>------- --- ------ ----- --- ---- ------- -- ---- --- --<br>------- ------,306709,306540,306098,306075,306114,306751,,40,wary
screen,html.Screen,2_1_1_1_41,2022-02-17T16:47:35.308Z,,,,,,,,,,,,,,,,,54,,,,,,,,,,,,,,310,,response,,,,100,,,,,,,Space,keypress(Space),,,,,,,,-- --- ---- --- ------ ----- ------- ---- -- --- ------- --<br>------- ---------- ------ -- ----- -- ----- -- ---- ------<br>--- ----- --- --- ------ -------- ----- --- ------ ----- --<br>----- ----- ---------- --- --- ------ ------ ---- of ------<br>------- --- ------ ----- --- ---- ------- -- ---- --- --<br>------- ------,307213,307044,306734,306709,306751,307254,,41,of
screen,html.Screen,2_1_1_1_42,2022-02-17T16:47:35.925Z,,,,,,,,,,,,,,,,,54,,,,,,,,,,,,,,424,,response,,,,100,,,,,,,Space,keypress(Space),,,,,,,,-- --- ---- --- ------ ----- ------- ---- -- --- ------- --<br>------- ---------- ------ -- ----- -- ----- -- ---- ------<br>--- ----- --- --- ------ -------- ----- --- ------ ----- --<br>----- ----- ---------- --- --- ------ ------ ---- -- French<br>------- --- ------ ----- --- ---- ------- -- ---- --- --<br>------- ------,307830,307661,307237,307213,307254,307873,,42,French
screen,html.Screen,2_1_1_1_43,2022-02-17T16:47:36.488Z,,,,,,,,,,,,,,,,,54,,,,,,,,,,,,,,367,,response,,,,100,,,,,,,Space,keypress(Space),,,,,,,,-- --- ---- --- ------ ----- ------- ---- -- --- ------- --<br>------- ---------- ------ -- ----- -- ----- -- ---- ------<br>--- ----- --- --- ------ -------- ----- --- ------ ----- --<br>----- ----- ---------- --- --- ------ ------ ---- -- ------<br>credit. --- ------ ----- --- ---- ------- -- ---- --- --<br>------- ------,308393,308224,307857,307830,307873,308426,,43,credit.
screen,html.Screen,2_1_1_1_44,2022-02-17T16:47:37.053Z,,,,,,,,,,,,,,,,,54,,,,,,,,,,,,,,379,,response,,,,100,,,,,,,Space,keypress(Space),,,,,,,,-- --- ---- --- ------ ----- ------- ---- -- --- ------- --<br>------- ---------- ------ -- ----- -- ----- -- ---- ------<br>--- ----- --- --- ------ -------- ----- --- ------ ----- --<br>----- ----- ---------- --- --- ------ ------ ---- -- ------<br>------- The ------ ----- --- ---- ------- -- ---- --- --<br>------- ------,308958,308789,308410,308393,308426,308996,,44,The
screen,html.Screen,2_1_1_1_45,2022-02-17T16:47:37.610Z,,,,,,,,,,,,,,,,,54,,,,,,,,,,,,,,368,,response,,,,100,,,,,,,Space,keypress(Space),,,,,,,,-- --- ---- --- ------ ----- ------- ---- -- --- ------- --<br>------- ---------- ------ -- ----- -- ----- -- ---- ------<br>--- ----- --- --- ------ -------- ----- --- ------ ----- --<br>----- ----- ---------- --- --- ------ ------ ---- -- ------<br>------- --- French ----- --- ---- ------- -- ---- --- --<br>------- ------,309516,309347,308979,308958,308996,309548,,45,French
screen,html.Screen,2_1_1_1_46,2022-02-17T16:47:38.155Z,,,,,,,,,,,,,,,,,54,,,,,,,,,,,,,,359,,response,,,,100,,,,,,,Space,keypress(Space),,,,,,,,-- --- ---- --- ------ ----- ------- ---- -- --- ------- --<br>------- ---------- ------ -- ----- -- ----- -- ---- ------<br>--- ----- --- --- ------ -------- ----- --- ------ ----- --<br>----- ----- ---------- --- --- ------ ------ ---- -- ------<br>------- --- ------ state --- ---- ------- -- ---- --- --<br>------- ------,310061,309891,309532,309516,309548,310102,,46,state
screen,html.Screen,2_1_1_1_47,2022-02-17T16:47:38.672Z,,,,,,,,,,,,,,,,,54,,,,,,,,,,,,,,324,,response,,,,100,,,,,,,Space,keypress(Space),,,,,,,,-- --- ---- --- ------ ----- ------- ---- -- --- ------- --<br>------- ---------- ------ -- ----- -- ----- -- ---- ------<br>--- ----- --- --- ------ -------- ----- --- ------ ----- --<br>----- ----- ---------- --- --- ------ ------ ---- -- ------<br>------- --- ------ ----- was ---- ------- -- ---- --- --<br>------- ------,310577,310408,310084,310061,310102,310604,,47,was
screen,html.Screen,2_1_1_1_48,2022-02-17T16:47:39.225Z,,,,,,,,,,,,,,,,,54,,,,,,,,,,,,,,373,,response,,,,100,,,,,,,Space,keypress(Space),,,,,,,,-- --- ---- --- ------ ----- ------- ---- -- --- ------- --<br>------- ---------- ------ -- ----- -- ----- -- ---- ------<br>--- ----- --- --- ------ -------- ----- --- ------ ----- --<br>----- ----- ---------- --- --- ------ ------ ---- -- ------<br>------- --- ------ ----- --- left ------- -- ---- --- --<br>------- ------,311130,310961,310588,310577,310604,311158,,48,left
screen,html.Screen,2_1_1_1_49,2022-02-17T16:47:39.764Z,,,,,,,,,,,,,,,,,54,,,,,,,,,,,,,,358,,response,,,,100,,,,,,,Space,keypress(Space),,,,,,,,-- --- ---- --- ------ ----- ------- ---- -- --- ------- --<br>------- ---------- ------ -- ----- -- ----- -- ---- ------<br>--- ----- --- --- ------ -------- ----- --- ------ ----- --<br>----- ----- ---------- --- --- ------ ------ ---- -- ------<br>------- --- ------ ----- --- ---- without -- ---- --- --<br>------- ------,311669,311500,311142,311130,311158,311712,,49,without
screen,html.Screen,2_1_1_1_50,2022-02-17T16:47:40.315Z,,,,,,,,,,,,,,,,,54,,,,,,,,,,,,,,357,,response,,,,100,,,,,,,Space,keypress(Space),,,,,,,,-- --- ---- --- ------ ----- ------- ---- -- --- ------- --<br>------- ---------- ------ -- ----- -- ----- -- ---- ------<br>--- ----- --- --- ------ -------- ----- --- ------ ----- --<br>----- ----- ---------- --- --- ------ ------ ---- -- ------<br>------- --- ------ ----- --- ---- ------- an ---- --- --<br>------- ------,312221,312052,311695,311669,311712,312248,,50,an
screen,html.Screen,2_1_1_1_51,2022-02-17T16:47:40.822Z,,,,,,,,,,,,,,,,,54,,,,,,,,,,,,,,327,,response,,,,100,,,,,,,Space,keypress(Space),,,,,,,,-- --- ---- --- ------ ----- ------- ---- -- --- ------- --<br>------- ---------- ------ -- ----- -- ----- -- ---- ------<br>--- ----- --- --- ------ -------- ----- --- ------ ----- --<br>----- ----- ---------- --- --- ------ ------ ---- -- ------<br>------- --- ------ ----- --- ---- ------- -- easy --- --<br>------- ------,312728,312559,312232,312221,312248,312768,,51,easy
screen,html.Screen,2_1_1_1_52,2022-02-17T16:47:41.426Z,,,,,,,,,,,,,,,,,54,,,,,,,,,,,,,,410.0000000000582,,response,,,,100,,,,,,,Space,keypress(Space),,,,,,,,-- --- ---- --- ------ ----- ------- ---- -- --- ------- --<br>------- ---------- ------ -- ----- -- ----- -- ---- ------<br>--- ----- --- --- ------ -------- ----- --- ------ ----- --<br>----- ----- ---------- --- --- ------ ------ ---- -- ------<br>------- --- ------ ----- --- ---- ------- -- ---- way --<br>------- ------,313331,313162.00000000006,312752,312728,312768,313373,,52,way
screen,html.Screen,2_1_1_1_53,2022-02-17T16:47:42.263Z,,,,,,,,,,,,,,,,,54,,,,,,,,,,,,,,644,,response,,,,100,,,,,,,Space,keypress(Space),,,,,,,,-- --- ---- --- ------ ----- ------- ---- -- --- ------- --<br>------- ---------- ------ -- ----- -- ----- -- ---- ------<br>--- ----- --- --- ------ -------- ----- --- ------ ----- --<br>----- ----- ---------- --- --- ------ ------ ---- -- ------<br>------- --- ------ ----- --- ---- ------- -- ---- --- of<br>------- ------,314168,313999,313355,313331,313373,314209,,53,of
screen,html.Screen,2_1_1_1_54,2022-02-17T16:47:42.802Z,,,,,,,,,,,,,,,,,54,,,,,,,,,,,,,,348,,response,,,,100,,,,,,,Space,keypress(Space),,,,,,,,-- --- ---- --- ------ ----- ------- ---- -- --- ------- --<br>------- ---------- ------ -- ----- -- ----- -- ---- ------<br>--- ----- --- --- ------ -------- ----- --- ------ ----- --<br>----- ----- ---------- --- --- ------ ------ ---- -- ------<br>------- --- ------ ----- --- ---- ------- -- ---- --- --<br>raising ------,314708,314539,314191,314168,314209,314745,,54,raising
screen,html.Screen,2_1_1_1_55,2022-02-17T16:47:43.508Z,,,,,,,,,,,,,,,,,54,,,,,,,,,,,,,,517,,response,,,,100,,,,,,,Space,keypress(Space),,,,,,,,-- --- ---- --- ------ ----- ------- ---- -- --- ------- --<br>------- ---------- ------ -- ----- -- ----- -- ---- ------<br>--- ----- --- --- ------ -------- ----- --- ------ ----- --<br>----- ----- ---------- --- --- ------ ------ ---- -- ------<br>------- --- ------ ----- --- ---- ------- -- ---- --- --<br>------- money.,315414,315245,314728,314708,314745,315448,,55,money.
Item 100,flow.Loop,2_1_1_1,2022-02-17T16:47:43.509Z,,,,,,,,,,,,,,,,,,,,,,,,,,,,,,,35228,,completion,,,,,F,,,,,,,,,,,silence,,,,,315414,315245,280002,280002,280017,315448,,,
Question 1,html.Screen,2_1_1_2,2022-02-17T16:47:46.381Z,,,,,,,,,,,,,,,,,,,,,,,,,,,,true,TRUE,,2687,,response,,,,100,F,,,,,,TRUE,click #choice-1,,,,silence,,,,,318287.00000000006,318118,315431,315414,315448,318315,,,
Question 2,html.Screen,2_1_1_3,2022-02-17T16:47:51.281Z,,,,,,,,,,,,,,,,,,,,,,,,,,,,true,FALSE,,4720,,response,,,,100,F,,,,,,FALSE,click #choice-2,,,,silence,,,,,323187,323018,318298,318287.00000000006,318315,323216,,,
Item 100,flow.Sequence,2_1_1,2022-02-17T16:47:51.282Z,,,,,,,,,,,,,,,,,,,,,,,,,,,,,,,52992,,completion,,,,,,,,,,,,,,,,,,,,,323187,323018,270005,269994,270026,323216,,,
End of Practice,html.Page,2_1_2,2022-02-17T16:47:55.379Z,,,,,,,,,,,,,,,,,,,,,,,,,,,,,,,4068,,form submission,,,,,,,,,,,,,,,,,,,,,327285,327284,323199,323187,323216,327308,,,
Practice,flow.Sequence,2_1,2022-02-17T16:47:55.379Z,,,,,,,,,,,,,,,,,,,,,,,,,,,,,,,112139,,completion,,,,,,,,,,,,,,,,,,,,,327285,327284,215127,215123,215145,327308,,,
Trap_instruction,html.Page,2_2_0,2022-02-17T16:47:59.150Z,,,,,,,,,,,,,,,,,,,,,,,,,,,,,,,3747,,form submission,,,,,,,,,,,,,,,,,,,,,331055,331055,327292,327285,327308,331080,,,
trap_trial,html.Screen,2_2_1,2022-02-17T16:48:01.893Z,,,,,,,,,,,,,,,,,,,,,,,,,,,,true,1,,2562,,response,,,,,,,,,,,1,click #choice-1,,,,,,,,,333798,333630,331068,331055,331080,333818,,,
end of trap trial,html.Page,2_2_2,2022-02-17T16:48:05.401Z,,,,,,,,,,,,,,,,,,,,,,,,,,,,,,,3487,,form submission,,,,,,,,,,,,,,,,,,,,,337306,337305,333809,333798,333818,337327,,,
Trap 1,flow.Sequence,2_2,2022-02-17T16:48:05.401Z,,,,,,,,,,,,,,,,,,,,,,,,,,,,,,,9997,,completion,,,,,,,,,,,,,,,,,,,,,337306,337305,327292,327285,327308,337327,,,
Standby,html.Page,2_3_0,2022-02-17T16:48:13.397Z,,,,,,,,,,,,,,,,,,,,,,,,,,,,,,,7990,,timeout,,,,,,,,,,,,,,,,,,,,,345302,345302,337312,337306,337327,345317,,,
Holding screen,html.Screen,2_3_1_0_0,2022-02-17T16:48:20.397Z,,,,,,,,,,,,,,,,,,,,,,,,,,,,,,,7001,,timeout,,,,,,,,,,,,,,,,,,,,,352301,352301,345302,345302,345317,352318,,,
screen,html.Screen,2_3_1_0_1_0,2022-02-17T16:48:21.337Z,,,,,,,,,,,,,,,,,2,,,,,,,,,,,,,,770,,response,,,,1,F,,,,,,Space,keypress(Space),,,,instrumental,,,,Two ---- ------ --- ------- ---------- ------- ----------<br>--- --------- --- ----------- ------- ----- ------- ---<br>--------- ---- -- --- ---- -- --------- -- ---- -------<br>-- --------- ------ --- ----- ------ ---- --- --------- --<br>------ - ---- -- --- ----------- ------- ---- ----- -----<br>--- -------- - ------ ---- -- ----- ---- --- --- -----------<br>-- -------,353241,353071,352301,352302,352318,353271,,0,Two
screen,html.Screen,2_3_1_0_1_1,2022-02-17T16:48:21.916Z,,,,,,,,,,,,,,,,,2,,,,,,,,,,,,,,396.0000000000582,,response,,,,1,F,,,,,,Space,keypress(Space),,,,instrumental,,,,--- days ------ --- ------- ---------- ------- ----------<br>--- --------- --- ----------- ------- ----- ------- ---<br>--------- ---- -- --- ---- -- --------- -- ---- -------<br>-- --------- ------ --- ----- ------ ---- --- --------- --<br>------ - ---- -- --- ----------- ------- ---- ----- -----<br>--- -------- - ------ ---- -- ----- ---- --- --- -----------<br>-- -------,353820,353650.00000000006,353254,353241,353271,353854,,1,days
screen,html.Screen,2_3_1_0_1_2,2022-02-17T16:48:22.516Z,,,,,,,,,,,,,,,,,2,,,,,,,,,,,,,,413.0000000000582,,response,,,,1,F,,,,,,Space,keypress(Space),,,,instrumental,,,,"--- ---- later, --- ------- ---------- ------- ----------<br>--- --------- --- ----------- ------- ----- ------- ---<br>--------- ---- -- --- ---- -- --------- -- ---- -------<br>-- --------- ------ --- ----- ------ ---- --- --------- --<br>------ - ---- -- --- ----------- ------- ---- ----- -----<br>--- -------- - ------ ---- -- ----- ---- --- --- -----------<br>-- -------",354421,354251.00000000006,353838,353820,353854,354457,,2,"later,"
screen,html.Screen,2_3_1_0_1_3,2022-02-17T16:48:23.147Z,,,,,,,,,,,,,,,,,2,,,,,,,,,,,,,,442,,response,,,,1,F,,,,,,Space,keypress(Space),,,,instrumental,,,,--- ---- ------ the ------- ---------- ------- ----------<br>--- --------- --- ----------- ------- ----- ------- ---<br>--------- ---- -- --- ---- -- --------- -- ---- -------<br>-- --------- ------ --- ----- ------ ---- --- --------- --<br>------ - ---- -- --- ----------- ------- ---- ----- -----<br>--- -------- - ------ ---- -- ----- ---- --- --- -----------<br>-- -------,355052,354882,354440,354421,354457,355093,,3,the
screen,html.Screen,2_3_1_0_1_4,2022-02-17T16:48:23.812Z,,,,,,,,,,,,,,,,,2,,,,,,,,,,,,,,470,,response,,,,1,F,,,,,,Space,keypress(Space),,,,instrumental,,,,--- ---- ------ --- British ---------- ------- ----------<br>--- --------- --- ----------- ------- ----- ------- ---<br>--------- ---- -- --- ---- -- --------- -- ---- -------<br>-- --------- ------ --- ----- ------ ---- --- --------- --<br>------ - ---- -- --- ----------- ------- ---- ----- -----<br>--- -------- - ------ ---- -- ----- ---- --- --- -----------<br>-- -------,355716,355546,355076,355052,355093,355746,,4,British
screen,html.Screen,2_3_1_0_1_5,2022-02-17T16:48:24.494Z,,,,,,,,,,,,,,,,,2,,,,,,,,,,,,,,500,,response,,,,1,F,,,,,,Space,keypress(Space),,,,instrumental,,,,--- ---- ------ --- ------- astronomer ------- ----------<br>--- --------- --- ----------- ------- ----- ------- ---<br>--------- ---- -- --- ---- -- --------- -- ---- -------<br>-- --------- ------ --- ----- ------ ---- --- --------- --<br>------ - ---- -- --- ----------- ------- ---- ----- -----<br>--- -------- - ------ ---- -- ----- ---- --- --- -----------<br>-- -------,356399,356229,355729,355716,355746,356433,,5,astronomer
screen,html.Screen,2_3_1_0_1_6,2022-02-17T16:48:25.098Z,,,,,,,,,,,,,,,,,2,,,,,,,,,,,,,,416,,response,,,,1,F,,,,,,Space,keypress(Space),,,,instrumental,,,,--- ---- ------ --- ------- ---------- Richard ----------<br>--- --------- --- ----------- ------- ----- ------- ---<br>--------- ---- -- --- ---- -- --------- -- ---- -------<br>-- --------- ------ --- ----- ------ ---- --- --------- --<br>------ - ---- -- --- ----------- ------- ---- ----- -----<br>--- -------- - ------ ---- -- ----- ---- --- --- -----------<br>-- -------,357003,356832,356416,356399,356433,357035,,6,Richard
screen,html.Screen,2_3_1_0_1_7,2022-02-17T16:48:25.752Z,,,,,,,,,,,,,,,,,2,,,,,,,,,,,,,,468,,response,,,,1,F,,,,,,Space,keypress(Space),,,,instrumental,,,,--- ---- ------ --- ------- ---------- ------- Carrington<br>--- --------- --- ----------- ------- ----- ------- ---<br>--------- ---- -- --- ---- -- --------- -- ---- -------<br>-- --------- ------ --- ----- ------ ---- --- --------- --<br>------ - ---- -- --- ----------- ------- ---- ----- -----<br>--- -------- - ------ ---- -- ----- ---- --- --- -----------<br>-- -------,357657,357487,357019,357003,357035,357688,,7,Carrington
screen,html.Screen,2_3_1_0_1_8,2022-02-17T16:48:26.415Z,,,,,,,,,,,,,,,,,2,,,,,,,,,,,,,,477,,response,,,,1,F,,,,,,Space,keypress(Space),,,,instrumental,,,,--- ---- ------ --- ------- ---------- ------- ----------<br>was --------- --- ----------- ------- ----- ------- ---<br>--------- ---- -- --- ---- -- --------- -- ---- -------<br>-- --------- ------ --- ----- ------ ---- --- --------- --<br>------ - ---- -- --- ----------- ------- ---- ----- -----<br>--- -------- - ------ ---- -- ----- ---- --- --- -----------<br>-- -------,358319,358149,357672,357657,357688,358359,,8,was
screen,html.Screen,2_3_1_0_1_9,2022-02-17T16:48:27.353Z,,,,,,,,,,,,,,,,,2,,,,,,,,,,,,,,747,,response,,,,1,F,,,,,,Space,keypress(Space),,,,instrumental,,,,--- ---- ------ --- ------- ---------- ------- ----------<br>--- observing --- ----------- ------- ----- ------- ---<br>--------- ---- -- --- ---- -- --------- -- ---- -------<br>-- --------- ------ --- ----- ------ ---- --- --------- --<br>------ - ---- -- --- ----------- ------- ---- ----- -----<br>--- -------- - ------ ---- -- ----- ---- --- --- -----------<br>-- -------,359258,359088,358341,358319,358359,359295,,9,observing
screen,html.Screen,2_3_1_0_1_10,2022-02-17T16:48:28.017Z,,,,,,,,,,,,,,,,,2,,,,,,,,,,,,,,474,,response,,,,1,F,,,,,,Space,keypress(Space),,,,instrumental,,,,--- ---- ------ --- ------- ---------- ------- ----------<br>--- --------- the ----------- ------- ----- ------- ---<br>--------- ---- -- --- ---- -- --------- -- ---- -------<br>-- --------- ------ --- ----- ------ ---- --- --------- --<br>------ - ---- -- --- ----------- ------- ---- ----- -----<br>--- -------- - ------ ---- -- ----- ---- --- --- -----------<br>-- -------,359922,359752,359278,359258,359295,359964,,10,the
screen,html.Screen,2_3_1_0_1_11,2022-02-17T16:48:28.647Z,,,,,,,,,,,,,,,,,2,,,,,,,,,,,,,,434,,response,,,,1,F,,,,,,Space,keypress(Space),,,,instrumental,,,,--- ---- ------ --- ------- ---------- ------- ----------<br>--- --------- --- interesting ------- ----- ------- ---<br>--------- ---- -- --- ---- -- --------- -- ---- -------<br>-- --------- ------ --- ----- ------ ---- --- --------- --<br>------ - ---- -- --- ----------- ------- ---- ----- -----<br>--- -------- - ------ ---- -- ----- ---- --- --- -----------<br>-- -------,360552,360382,359948,359922,359964,360584,,11,interesting
screen,html.Screen,2_3_1_0_1_12,2022-02-17T16:48:29.456Z,,,,,,,,,,,,,,,,,2,,,,,,,,,,,,,,623.0000000000582,,response,,,,1,F,,,,,,Space,keypress(Space),,,,instrumental,,,,--- ---- ------ --- ------- ---------- ------- ----------<br>--- --------- --- ----------- sunspot ----- ------- ---<br>--------- ---- -- --- ---- -- --------- -- ---- -------<br>-- --------- ------ --- ----- ------ ---- --- --------- --<br>------ - ---- -- --- ----------- ------- ---- ----- -----<br>--- -------- - ------ ---- -- ----- ---- --- --- -----------<br>-- -------,361361,361191.00000000006,360568,360552,360584,361403,,12,sunspot
screen,html.Screen,2_3_1_0_1_13,2022-02-17T16:48:30.087Z,,,,,,,,,,,,,,,,,2,,,,,,,,,,,,,,434,,response,,,,1,F,,,,,,Space,keypress(Space),,,,instrumental,,,,--- ---- ------ --- ------- ---------- ------- ----------<br>--- --------- --- ----------- ------- group ------- ---<br>--------- ---- -- --- ---- -- --------- -- ---- -------<br>-- --------- ------ --- ----- ------ ---- --- --------- --<br>------ - ---- -- --- ----------- ------- ---- ----- -----<br>--- -------- - ------ ---- -- ----- ---- --- --- -----------<br>-- -------,361992,361822,361388,361361,361403,362024,,13,group
screen,html.Screen,2_3_1_0_1_14,2022-02-17T16:48:30.666Z,,,,,,,,,,,,,,,,,2,,,,,,,,,,,,,,394,,response,,,,1,F,,,,,,Space,keypress(Space),,,,instrumental,,,,--- ---- ------ --- ------- ---------- ------- ----------<br>--- --------- --- ----------- ------- ----- through ---<br>--------- ---- -- --- ---- -- --------- -- ---- -------<br>-- --------- ------ --- ----- ------ ---- --- --------- --<br>------ - ---- -- --- ----------- ------- ---- ----- -----<br>--- -------- - ------ ---- -- ----- ---- --- --- -----------<br>-- -------,362571,362401,362007,361992,362024,362610,,14,through
screen,html.Screen,2_3_1_0_1_15,2022-02-17T16:48:31.219Z,,,,,,,,,,,,,,,,,2,,,,,,,,,,,,,,361,,response,,,,1,F,,,,,,Space,keypress(Space),,,,instrumental,,,,--- ---- ------ --- ------- ---------- ------- ----------<br>--- --------- --- ----------- ------- ----- ------- his<br>--------- ---- -- --- ---- -- --------- -- ---- -------<br>-- --------- ------ --- ----- ------ ---- --- --------- --<br>------ - ---- -- --- ----------- ------- ---- ----- -----<br>--- -------- - ------ ---- -- ----- ---- --- --- -----------<br>-- -------,363124,362954,362593,362571,362610,363162,,15,his
screen,html.Screen,2_3_1_0_1_16,2022-02-17T16:48:31.906Z,,,,,,,,,,,,,,,,,2,,,,,,,,,,,,,,495,,response,,,,1,F,,,,,,Space,keypress(Space),,,,instrumental,,,,--- ---- ------ --- ------- ---------- ------- ----------<br>--- --------- --- ----------- ------- ----- ------- ---<br>telescope ---- -- --- ---- -- --------- -- ---- -------<br>-- --------- ------ --- ----- ------ ---- --- --------- --<br>------ - ---- -- --- ----------- ------- ---- ----- -----<br>--- -------- - ------ ---- -- ----- ---- --- --- -----------<br>-- -------,363811.00000000006,363641,363146,363124,363162,363849,,16,telescope
screen,html.Screen,2_3_1_0_1_17,2022-02-17T16:48:32.598Z,,,,,,,,,,,,,,,,,2,,,,,,,,,,,,,,500,,response,,,,1,F,,,,,,Space,keypress(Space),,,,instrumental,,,,--- ---- ------ --- ------- ---------- ------- ----------<br>--- --------- --- ----------- ------- ----- ------- ---<br>--------- when -- --- ---- -- --------- -- ---- -------<br>-- --------- ------ --- ----- ------ ---- --- --------- --<br>------ - ---- -- --- ----------- ------- ---- ----- -----<br>--- -------- - ------ ---- -- ----- ---- --- --- -----------<br>-- -------,364503,364333,363833,363811.00000000006,363849,364535,,17,when
screen,html.Screen,2_3_1_0_1_18,2022-02-17T16:48:33.212Z,,,,,,,,,,,,,,,,,2,,,,,,,,,,,,,,427,,response,,,,1,F,,,,,,Space,keypress(Space),,,,instrumental,,,,--- ---- ------ --- ------- ---------- ------- ----------<br>--- --------- --- ----------- ------- ----- ------- ---<br>--------- ---- he --- ---- -- --------- -- ---- -------<br>-- --------- ------ --- ----- ------ ---- --- --------- --<br>------ - ---- -- --- ----------- ------- ---- ----- -----<br>--- -------- - ------ ---- -- ----- ---- --- --- -----------<br>-- -------,365116,364946,364519,364503,364535,365155,,18,he
screen,html.Screen,2_3_1_0_1_19,2022-02-17T16:48:33.805Z,,,,,,,,,,,,,,,,,2,,,,,,,,,,,,,,401,,response,,,,1,F,,,,,,Space,keypress(Space),,,,instrumental,,,,--- ---- ------ --- ------- ---------- ------- ----------<br>--- --------- --- ----------- ------- ----- ------- ---<br>--------- ---- -- saw ---- -- --------- -- ---- -------<br>-- --------- ------ --- ----- ------ ---- --- --------- --<br>------ - ---- -- --- ----------- ------- ---- ----- -----<br>--- -------- - ------ ---- -- ----- ---- --- --- -----------<br>-- -------,365710,365540,365139,365116,365155,365742,,19,saw
screen,html.Screen,2_3_1_0_1_20,2022-02-17T16:48:34.441Z,,,,,,,,,,,,,,,,,2,,,,,,,,,,,,,,449.0000000000582,,response,,,,1,F,,,,,,Space,keypress(Space),,,,instrumental,,,,--- ---- ------ --- ------- ---------- ------- ----------<br>--- --------- --- ----------- ------- ----- ------- ---<br>--------- ---- -- --- what -- --------- -- ---- -------<br>-- --------- ------ --- ----- ------ ---- --- --------- --<br>------ - ---- -- --- ----------- ------- ---- ----- -----<br>--- -------- - ------ ---- -- ----- ---- --- --- -----------<br>-- -------,366345,366174.00000000006,365725,365710,365742,366378,,20,what
screen,html.Screen,2_3_1_0_1_21,2022-02-17T16:48:35.034Z,,,,,,,,,,,,,,,,,2,,,,,,,,,,,,,,407,,response,,,,1,F,,,,,,Space,keypress(Space),,,,instrumental,,,,--- ---- ------ --- ------- ---------- ------- ----------<br>--- --------- --- ----------- ------- ----- ------- ---<br>--------- ---- -- --- ---- he --------- -- ---- -------<br>-- --------- ------ --- ----- ------ ---- --- --------- --<br>------ - ---- -- --- ----------- ------- ---- ----- -----<br>--- -------- - ------ ---- -- ----- ---- --- --- -----------<br>-- -------,366939,366768,366361,366345,366378,366981,,21,he
screen,html.Screen,2_3_1_0_1_22,2022-02-17T16:48:35.664Z,,,,,,,,,,,,,,,,,2,,,,,,,,,,,,,,434,,response,,,,1,F,,,,,,Space,keypress(Space),,,,instrumental,,,,--- ---- ------ --- ------- ---------- ------- ----------<br>--- --------- --- ----------- ------- ----- ------- ---<br>--------- ---- -- --- ---- -- described -- ---- -------<br>-- --------- ------ --- ----- ------ ---- --- --------- --<br>------ - ---- -- --- ----------- ------- ---- ----- -----<br>--- -------- - ------ ---- -- ----- ---- --- --- -----------<br>-- -------,367569,367398,366964,366939,366981,367600,,22,described
screen,html.Screen,2_3_1_0_1_23,2022-02-17T16:48:36.233Z,,,,,,,,,,,,,,,,,2,,,,,,,,,,,,,,383,,response,,,,1,F,,,,,,Space,keypress(Space),,,,instrumental,,,,--- ---- ------ --- ------- ---------- ------- ----------<br>--- --------- --- ----------- ------- ----- ------- ---<br>--------- ---- -- --- ---- -- --------- as ---- -------<br>-- --------- ------ --- ----- ------ ---- --- --------- --<br>------ - ---- -- --- ----------- ------- ---- ----- -----<br>--- -------- - ------ ---- -- ----- ---- --- --- -----------<br>-- -------,368138.00000000006,367967,367584,367569,367600,368170,,23,as
screen,html.Screen,2_3_1_0_1_24,2022-02-17T16:48:36.826Z,,,,,,,,,,,,,,,,,2,,,,,,,,,,,,,,406,,response,,,,1,F,,,,,,Space,keypress(Space),,,,instrumental,,,,"--- ---- ------ --- ------- ---------- ------- ----------<br>--- --------- --- ----------- ------- ----- ------- ---<br>--------- ---- -- --- ---- -- --------- -- ""two -------<br>-- --------- ------ --- ----- ------ ---- --- --------- --<br>------ - ---- -- --- ----------- ------- ---- ----- -----<br>--- -------- - ------ ---- -- ----- ---- --- --- -----------<br>-- -------",368731,368560,368154,368138.00000000006,368170,368773,,24,"""two"
screen,html.Screen,2_3_1_0_1_25,2022-02-17T16:48:37.598Z,,,,,,,,,,,,,,,,,2,,,,,,,,,,,,,,575,,response,,,,1,F,,,,,,Space,keypress(Space),,,,instrumental,,,,--- ---- ------ --- ------- ---------- ------- ----------<br>--- --------- --- ----------- ------- ----- ------- ---<br>--------- ---- -- --- ---- -- --------- -- ---- patches<br>-- --------- ------ --- ----- ------ ---- --- --------- --<br>------ - ---- -- --- ----------- ------- ---- ----- -----<br>--- -------- - ------ ---- -- ----- ---- --- --- -----------<br>-- -------,369503,369332,368757,368731,368773,369543,,25,patches
screen,html.Screen,2_3_1_0_1_26,2022-02-17T16:48:38.202Z,,,,,,,,,,,,,,,,,2,,,,,,,,,,,,,,409.0000000000582,,response,,,,1,F,,,,,,Space,keypress(Space),,,,instrumental,,,,--- ---- ------ --- ------- ---------- ------- ----------<br>--- --------- --- ----------- ------- ----- ------- ---<br>--------- ---- -- --- ---- -- --------- -- ---- -------<br>of --------- ------ --- ----- ------ ---- --- --------- --<br>------ - ---- -- --- ----------- ------- ---- ----- -----<br>--- -------- - ------ ---- -- ----- ---- --- --- -----------<br>-- -------,370107,369936.00000000006,369527,369503,369543,370146,,26,of
screen,html.Screen,2_3_1_0_1_27,2022-02-17T16:48:38.868Z,,,,,,,,,,,,,,,,,2,,,,,,,,,,,,,,472.0000000000582,,response,,,,1,F,,,,,,Space,keypress(Space),,,,instrumental,,,,--- ---- ------ --- ------- ---------- ------- ----------<br>--- --------- --- ----------- ------- ----- ------- ---<br>--------- ---- -- --- ---- -- --------- -- ---- -------<br>-- intensely ------ --- ----- ------ ---- --- --------- --<br>------ - ---- -- --- ----------- ------- ---- ----- -----<br>--- -------- - ------ ---- -- ----- ---- --- --- -----------<br>-- -------,370773,370602.00000000006,370130,370107,370146,370816,,27,intensely
screen,html.Screen,2_3_1_0_1_28,2022-02-17T16:48:39.735Z,,,,,,,,,,,,,,,,,2,,,,,,,,,,,,,,670,,response,,,,1,F,,,,,,Space,keypress(Space),,,,instrumental,,,,--- ---- ------ --- ------- ---------- ------- ----------<br>--- --------- --- ----------- ------- ----- ------- ---<br>--------- ---- -- --- ---- -- --------- -- ---- -------<br>-- --------- bright --- ----- ------ ---- --- --------- --<br>------ - ---- -- --- ----------- ------- ---- ----- -----<br>--- -------- - ------ ---- -- ----- ---- --- --- -----------<br>-- -------,371640,371469,370799,370773,370816,371669,,28,bright
screen,html.Screen,2_3_1_0_1_29,2022-02-17T16:48:40.301Z,,,,,,,,,,,,,,,,,2,,,,,,,,,,,,,,383,,response,,,,1,F,,,,,,Space,keypress(Space),,,,instrumental,,,,--- ---- ------ --- ------- ---------- ------- ----------<br>--- --------- --- ----------- ------- ----- ------- ---<br>--------- ---- -- --- ---- -- --------- -- ---- -------<br>-- --------- ------ and ----- ------ ---- --- --------- --<br>------ - ---- -- --- ----------- ------- ---- ----- -----<br>--- -------- - ------ ---- -- ----- ---- --- --- -----------<br>-- -------,372206,372035,371652,371640,371669,372238,,29,and
screen,html.Screen,2_3_1_0_1_30,2022-02-17T16:48:40.938Z,,,,,,,,,,,,,,,,,2,,,,,,,,,,,,,,450,,response,,,,1,F,,,,,,Space,keypress(Space),,,,instrumental,,,,--- ---- ------ --- ------- ---------- ------- ----------<br>--- --------- --- ----------- ------- ----- ------- ---<br>--------- ---- -- --- ---- -- --------- -- ---- -------<br>-- --------- ------ --- white ------ ---- --- --------- --<br>------ - ---- -- --- ----------- ------- ---- ----- -----<br>--- -------- - ------ ---- -- ----- ---- --- --- -----------<br>-- -------,372842,372672,372222,372206,372238,372875,,30,white
screen,html.Screen,2_3_1_0_1_31,2022-02-17T16:48:41.618Z,,,,,,,,,,,,,,,,,2,,,,,,,,,,,,,,493.0000000000582,,response,,,,1,F,,,,,,Space,keypress(Space),,,,instrumental,,,,"--- ---- ------ --- ------- ---------- ------- ----------<br>--- --------- --- ----------- ------- ----- ------- ---<br>--------- ---- -- --- ---- -- --------- -- ---- -------<br>-- --------- ------ --- ----- light"" ---- --- --------- --<br>------ - ---- -- --- ----------- ------- ---- ----- -----<br>--- -------- - ------ ---- -- ----- ---- --- --- -----------<br>-- -------",373523,373352.00000000006,372859,372843,372875,373562,,31,"light"""
screen,html.Screen,2_3_1_0_1_32,2022-02-17T16:48:42.209Z,,,,,,,,,,,,,,,,,2,,,,,,,,,,,,,,399,,response,,,,1,F,,,,,,Space,keypress(Space),,,,instrumental,,,,--- ---- ------ --- ------- ---------- ------- ----------<br>--- --------- --- ----------- ------- ----- ------- ---<br>--------- ---- -- --- ---- -- --------- -- ---- -------<br>-- --------- ------ --- ----- ------ over --- --------- --<br>------ - ---- -- --- ----------- ------- ---- ----- -----<br>--- -------- - ------ ---- -- ----- ---- --- --- -----------<br>-- -------,374113,373943,373544,373523,373562,374148,,32,over
screen,html.Screen,2_3_1_0_1_33,2022-02-17T16:48:42.855Z,,,,,,,,,,,,,,,,,2,,,,,,,,,,,,,,458,,response,,,,1,F,,,,,,Space,keypress(Space),,,,instrumental,,,,--- ---- ------ --- ------- ---------- ------- ----------<br>--- --------- --- ----------- ------- ----- ------- ---<br>--------- ---- -- --- ---- -- --------- -- ---- -------<br>-- --------- ------ --- ----- ------ ---- the --------- --<br>------ - ---- -- --- ----------- ------- ---- ----- -----<br>--- -------- - ------ ---- -- ----- ---- --- --- -----------<br>-- -------,374759,374589,374131,374113,374148,374801,,33,the
screen,html.Screen,2_3_1_0_1_34,2022-02-17T16:48:43.559Z,,,,,,,,,,,,,,,,,2,,,,,,,,,,,,,,509,,response,,,,1,F,,,,,,Space,keypress(Space),,,,instrumental,,,,--- ---- ------ --- ------- ---------- ------- ----------<br>--- --------- --- ----------- ------- ----- ------- ---<br>--------- ---- -- --- ---- -- --------- -- ---- -------<br>-- --------- ------ --- ----- ------ ---- --- sunspots. --<br>------ - ---- -- --- ----------- ------- ---- ----- -----<br>--- -------- - ------ ---- -- ----- ---- --- --- -----------<br>-- -------,375463,375293,374784,374760,374801,375504,,34,sunspots.
screen,html.Screen,2_3_1_0_1_35,2022-02-17T16:48:44.104Z,,,,,,,,,,,,,,,,,2,,,,,,,,,,,,,,350,,response,,,,1,F,,,,,,Space,keypress(Space),,,,instrumental,,,,--- ---- ------ --- ------- ---------- ------- ----------<br>--- --------- --- ----------- ------- ----- ------- ---<br>--------- ---- -- --- ---- -- --------- -- ---- -------<br>-- --------- ------ --- ----- ------ ---- --- --------- He<br>------ - ---- -- --- ----------- ------- ---- ----- -----<br>--- -------- - ------ ---- -- ----- ---- --- --- -----------<br>-- -------,376008,375838,375488,375463,375504,376041,,35,He
screen,html.Screen,2_3_1_0_1_36,2022-02-17T16:48:44.773Z,,,,,,,,,,,,,,,,,2,,,,,,,,,,,,,,484,,response,,,,1,F,,,,,,Space,keypress(Space),,,,instrumental,,,,--- ---- ------ --- ------- ---------- ------- ----------<br>--- --------- --- ----------- ------- ----- ------- ---<br>--------- ---- -- --- ---- -- --------- -- ---- -------<br>-- --------- ------ --- ----- ------ ---- --- --------- --<br>jotted - ---- -- --- ----------- ------- ---- ----- -----<br>--- -------- - ------ ---- -- ----- ---- --- --- -----------<br>-- -------,376677,376507,376023,376009,376041,376710,,36,jotted
screen,html.Screen,2_3_1_0_1_37,2022-02-17T16:48:45.337Z,,,,,,,,,,,,,,,,,2,,,,,,,,,,,,,,377,,response,,,,1,F,,,,,,Space,keypress(Space),,,,instrumental,,,,--- ---- ------ --- ------- ---------- ------- ----------<br>--- --------- --- ----------- ------- ----- ------- ---<br>--------- ---- -- --- ---- -- --------- -- ---- -------<br>-- --------- ------ --- ----- ------ ---- --- --------- --<br>------ a ---- -- --- ----------- ------- ---- ----- -----<br>--- -------- - ------ ---- -- ----- ---- --- --- -----------<br>-- -------,377241,377071,376694,376678,376710,377280,,37,a
screen,html.Screen,2_3_1_0_1_38,2022-02-17T16:48:45.929Z,,,,,,,,,,,,,,,,,2,,,,,,,,,,,,,,400,,response,,,,1,F,,,,,,Space,keypress(Space),,,,instrumental,,,,--- ---- ------ --- ------- ---------- ------- ----------<br>--- --------- --- ----------- ------- ----- ------- ---<br>--------- ---- -- --- ---- -- --------- -- ---- -------<br>-- --------- ------ --- ----- ------ ---- --- --------- --<br>------ - note -- --- ----------- ------- ---- ----- -----<br>--- -------- - ------ ---- -- ----- ---- --- --- -----------<br>-- -------,377833,377663,377263,377241,377280,377866,,38,note
screen,html.Screen,2_3_1_0_1_39,2022-02-17T16:48:46.616Z,,,,,,,,,,,,,,,,,2,,,,,,,,,,,,,,501,,response,,,,1,F,,,,,,Space,keypress(Space),,,,instrumental,,,,--- ---- ------ --- ------- ---------- ------- ----------<br>--- --------- --- ----------- ------- ----- ------- ---<br>--------- ---- -- --- ---- -- --------- -- ---- -------<br>-- --------- ------ --- ----- ------ ---- --- --------- --<br>------ - ---- in --- ----------- ------- ---- ----- -----<br>--- -------- - ------ ---- -- ----- ---- --- --- -----------<br>-- -------,378520,378350,377849,377833,377866,378553,,39,in
screen,html.Screen,2_3_1_0_1_40,2022-02-17T16:48:47.137Z,,,,,,,,,,,,,,,,,2,,,,,,,,,,,,,,335,,response,,,,1,F,,,,,,Space,keypress(Space),,,,instrumental,,,,--- ---- ------ --- ------- ---------- ------- ----------<br>--- --------- --- ----------- ------- ----- ------- ---<br>--------- ---- -- --- ---- -- --------- -- ---- -------<br>-- --------- ------ --- ----- ------ ---- --- --------- --<br>------ - ---- -- his ----------- ------- ---- ----- -----<br>--- -------- - ------ ---- -- ----- ---- --- --- -----------<br>-- -------,379042.00000000006,378871,378536,378520,378553,379072,,40,his
screen,html.Screen,2_3_1_0_1_41,2022-02-17T16:48:47.859Z,,,,,,,,,,,,,,,,,2,,,,,,,,,,,,,,537,,response,,,,1,F,,,,,,Space,keypress(Space),,,,instrumental,,,,--- ---- ------ --- ------- ---------- ------- ----------<br>--- --------- --- ----------- ------- ----- ------- ---<br>--------- ---- -- --- ---- -- --------- -- ---- -------<br>-- --------- ------ --- ----- ------ ---- --- --------- --<br>------ - ---- -- --- painstaking ------- ---- ----- -----<br>--- -------- - ------ ---- -- ----- ---- --- --- -----------<br>-- -------,379763.00000000006,379593,379056,379042.00000000006,379072,379792,,41,painstaking
screen,html.Screen,2_3_1_0_1_42,2022-02-17T16:48:48.504Z,,,,,,,,,,,,,,,,,2,,,,,,,,,,,,,,462,,response,,,,1,F,,,,,,Space,keypress(Space),,,,instrumental,,,,--- ---- ------ --- ------- ---------- ------- ----------<br>--- --------- --- ----------- ------- ----- ------- ---<br>--------- ---- -- --- ---- -- --------- -- ---- -------<br>-- --------- ------ --- ----- ------ ---- --- --------- --<br>------ - ---- -- --- ----------- record. ---- ----- -----<br>--- -------- - ------ ---- -- ----- ---- --- --- -----------<br>-- -------,380408,380238,379776,379763.00000000006,379792,380445,,42,record.
screen,html.Screen,2_3_1_0_1_43,2022-02-17T16:48:49.108Z,,,,,,,,,,,,,,,,,2,,,,,,,,,,,,,,414,,response,,,,1,F,,,,,,Space,keypress(Space),,,,instrumental,,,,--- ---- ------ --- ------- ---------- ------- ----------<br>--- --------- --- ----------- ------- ----- ------- ---<br>--------- ---- -- --- ---- -- --------- -- ---- -------<br>-- --------- ------ --- ----- ------ ---- --- --------- --<br>------ - ---- -- --- ----------- ------- That ----- -----<br>--- -------- - ------ ---- -- ----- ---- --- --- -----------<br>-- -------,381012,380842,380428,380408,380445,381047,,43,That
screen,html.Screen,2_3_1_0_1_44,2022-02-17T16:48:49.666Z,,,,,,,,,,,,,,,,,2,,,,,,,,,,,,,,369.0000000000582,,response,,,,1,F,,,,,,Space,keypress(Space),,,,instrumental,,,,--- ---- ------ --- ------- ---------- ------- ----------<br>--- --------- --- ----------- ------- ----- ------- ---<br>--------- ---- -- --- ---- -- --------- -- ---- -------<br>-- --------- ------ --- ----- ------ ---- --- --------- --<br>------ - ---- -- --- ----------- ------- ---- night -----<br>--- -------- - ------ ---- -- ----- ---- --- --- -----------<br>-- -------,381570,381400.00000000006,381031,381012,381047,381601,,44,night
screen,html.Screen,2_3_1_0_1_45,2022-02-17T16:48:50.205Z,,,,,,,,,,,,,,,,,2,,,,,,,,,,,,,,355,,response,,,,1,F,,,,,,Space,keypress(Space),,,,instrumental,,,,--- ---- ------ --- ------- ---------- ------- ----------<br>--- --------- --- ----------- ------- ----- ------- ---<br>--------- ---- -- --- ---- -- --------- -- ---- -------<br>-- --------- ------ --- ----- ------ ---- --- --------- --<br>------ - ---- -- --- ----------- ------- ---- ----- there<br>--- -------- - ------ ---- -- ----- ---- --- --- -----------<br>-- -------,382109,381939,381584,381570,381601,382137,,45,there
screen,html.Screen,2_3_1_0_1_46,2022-02-17T16:48:50.752Z,,,,,,,,,,,,,,,,,2,,,,,,,,,,,,,,364,,response,,,,1,F,,,,,,Space,keypress(Space),,,,instrumental,,,,--- ---- ------ --- ------- ---------- ------- ----------<br>--- --------- --- ----------- ------- ----- ------- ---<br>--------- ---- -- --- ---- -- --------- -- ---- -------<br>-- --------- ------ --- ----- ------ ---- --- --------- --<br>------ - ---- -- --- ----------- ------- ---- ----- -----<br>was -------- - ------ ---- -- ----- ---- --- --- -----------<br>-- -------,382656,382485,382121,382109,382137,382690,,46,was
screen,html.Screen,2_3_1_0_1_47,2022-02-17T16:48:51.565Z,,,,,,,,,,,,,,,,,2,,,,,,,,,,,,,,626.0000000000582,,response,,,,1,F,,,,,,Space,keypress(Space),,,,instrumental,,,,--- ---- ------ --- ------- ---------- ------- ----------<br>--- --------- --- ----------- ------- ----- ------- ---<br>--------- ---- -- --- ---- -- --------- -- ---- -------<br>-- --------- ------ --- ----- ------ ---- --- --------- --<br>------ - ---- -- --- ----------- ------- ---- ----- -----<br>--- scarcely - ------ ---- -- ----- ---- --- --- -----------<br>-- -------,383469,383299.00000000006,382673,382656,382690,383510,,47,scarcely
screen,html.Screen,2_3_1_0_1_48,2022-02-17T16:48:52.142Z,,,,,,,,,,,,,,,,,2,,,,,,,,,,,,,,383.0000000000582,,response,,,,1,F,,,,,,Space,keypress(Space),,,,instrumental,,,,--- ---- ------ --- ------- ---------- ------- ----------<br>--- --------- --- ----------- ------- ----- ------- ---<br>--------- ---- -- --- ---- -- --------- -- ---- -------<br>-- --------- ------ --- ----- ------ ---- --- --------- --<br>------ - ---- -- --- ----------- ------- ---- ----- -----<br>--- -------- a ------ ---- -- ----- ---- --- --- -----------<br>-- -------,384046,383876.00000000006,383493,383469,383510,384080,,48,a
screen,html.Screen,2_3_1_0_1_49,2022-02-17T16:48:52.740Z,,,,,,,,,,,,,,,,,2,,,,,,,,,,,,,,410,,response,,,,1,F,,,,,,Space,keypress(Space),,,,instrumental,,,,--- ---- ------ --- ------- ---------- ------- ----------<br>--- --------- --- ----------- ------- ----- ------- ---<br>--------- ---- -- --- ---- -- --------- -- ---- -------<br>-- --------- ------ --- ----- ------ ---- --- --------- --<br>------ - ---- -- --- ----------- ------- ---- ----- -----<br>--- -------- - square ---- -- ----- ---- --- --- -----------<br>-- -------,384644,384473,384063,384046,384080,384683,,49,square
screen,html.Screen,2_3_1_0_1_50,2022-02-17T16:48:53.248Z,,,,,,,,,,,,,,,,,2,,,,,,,,,,,,,,315,,response,,,,1,F,,,,,,Space,keypress(Space),,,,instrumental,,,,--- ---- ------ --- ------- ---------- ------- ----------<br>--- --------- --- ----------- ------- ----- ------- ---<br>--------- ---- -- --- ---- -- --------- -- ---- -------<br>-- --------- ------ --- ----- ------ ---- --- --------- --<br>------ - ---- -- --- ----------- ------- ---- ----- -----<br>--- -------- - ------ inch -- ----- ---- --- --- -----------<br>-- -------,385152,384981,384666,384644,384683,385186,,50,inch
screen,html.Screen,2_3_1_0_1_51,2022-02-17T16:48:53.758Z,,,,,,,,,,,,,,,,,2,,,,,,,,,,,,,,323,,response,,,,1,F,,,,,,Space,keypress(Space),,,,instrumental,,,,--- ---- ------ --- ------- ---------- ------- ----------<br>--- --------- --- ----------- ------- ----- ------- ---<br>--------- ---- -- --- ---- -- --------- -- ---- -------<br>-- --------- ------ --- ----- ------ ---- --- --------- --<br>------ - ---- -- --- ----------- ------- ---- ----- -----<br>--- -------- - ------ ---- of ----- ---- --- --- -----------<br>-- -------,385662.00000000006,385492,385169,385152,385186,385688,,51,of
screen,html.Screen,2_3_1_0_1_52,2022-02-17T16:48:54.310Z,,,,,,,,,,,,,,,,,2,,,,,,,,,,,,,,372,,response,,,,1,F,,,,,,Space,keypress(Space),,,,instrumental,,,,--- ---- ------ --- ------- ---------- ------- ----------<br>--- --------- --- ----------- ------- ----- ------- ---<br>--------- ---- -- --- ---- -- --------- -- ---- -------<br>-- --------- ------ --- ----- ------ ---- --- --------- --<br>------ - ---- -- --- ----------- ------- ---- ----- -----<br>--- -------- - ------ ---- -- earth ---- --- --- -----------<br>-- -------,386214,386044,385672,385662.00000000006,385688,386242,,52,earth
screen,html.Screen,2_3_1_0_1_53,2022-02-17T16:48:54.849Z,,,,,,,,,,,,,,,,,2,,,,,,,,,,,,,,358,,response,,,,1,F,,,,,,Space,keypress(Space),,,,instrumental,,,,--- ---- ------ --- ------- ---------- ------- ----------<br>--- --------- --- ----------- ------- ----- ------- ---<br>--------- ---- -- --- ---- -- --------- -- ---- -------<br>-- --------- ------ --- ----- ------ ---- --- --------- --<br>------ - ---- -- --- ----------- ------- ---- ----- -----<br>--- -------- - ------ ---- -- ----- that --- --- -----------<br>-- -------,386753,386583,386225,386214,386242,386796,,53,that
