sender,sender_type,sender_id,timestamp,meta,,Blues,Classical,Country,Dance,Electronic,Folk,Gospel,Hip-Hop,Jazz,Latin,Musical/Film,New-age,Pop,Prolific_id,Provo_ID,R&B,Rap,Reggae,Religious,Rock,Soul,Swing,Traditional,age,artist_name,correct,correctResponse,distraction,duration,education,ended_on,familiarity,gender,headphone_check_performance,item,list,music_frequency,offensiveness,pleasantness,position_correct,preference,response,response_action,snippet_file,song_name,song_rating,sound,stimulus_1,stimulus_2,stimulus_3,text,time_commit,time_end,time_render,time_run,time_show,time_switch,url,word,word_ID
Prolific ID,html.Form,0,2022-02-21T16:04:37.390Z,"{""labjs_version"":""20.2.2"",""labjs_build"":{""flavor"":""production"",""commit"":""a25486e0c714a0ae2ce03ff94b7bb6896854dcfa""},""location"":""https://run.pavlovia.org/mvasilev/prolific2_music_d/"",""userAgent"":""Mozilla/5.0 (Windows NT 10.0; Win64; x64) AppleWebKit/537.36 (KHTML, like Gecko) Chrome/98.0.4758.102 Safari/537.36"",""platform"":""Win32"",""language"":""en-GB"",""locale"":""en-GB"",""timeZone"":""Europe/London"",""timezoneOffset"":0,""screen_width"":1366,""screen_height"":768,""scroll_width"":1366,""scroll_height"":609,""window_innerWidth"":1366,""window_innerHeight"":657,""devicePixelRatio"":1}",,,,,,,,,,,,,,,5ba17c2d6d7a520001bfabae,,,,,,,,,,,,,,,10920.108,,form submission,,,,,,,,,,,,,,,,,,,,,40185.300000071526,40184,29180.166,29188.400000095367,29263.892,40227.732,{},,
Introduction,html.Screen,1_0,2022-02-21T16:04:42.830Z,,,,,,,,,,,,,,,,,,,,,,,,,,,,,,,5389.868000023838,,response,,,,,,,,,,,continue,click button,,,,,,,,,45624.90000009537,45617.60000002384,40177.736,40186.200000047684,40227.732,45676.299,,,
Volume calibration,html.Screen,1_1,2022-02-21T16:05:08.984Z,,,,,,,,,,,,,,,,,,,,,,,,,,,,,,,26093.301000023843,,response,,,,,,,,,,,continue,click button,,,,,,,,,71777.80000007153,71769.60000002384,45609.677,45625.200000047684,45676.299,71786.224,,,
Task instructions,html.Screen,1_2,2022-02-21T16:05:18.856Z,,,,,,,,,,,,,,,,,,,,,,,,,,,,,,,9860.176000095365,,response,,,,,,,,,,,continue,click button,,,,,,,,,81648.90000009537,81646.40000009537,71769.704,71778.10000002384,71786.224,81666.992,,,
Sounds,html.Screen,1_3_0_0,2022-02-21T16:05:23.112Z,,,,,,,,,,,,,,,,,,,,,,,,,,,,,,,4248.899000000005,,timeout,,,,,,,,,1,,,,,,,,S,O,I,,85904.90000009537,85899.304,81633.789,81649.70000004768,81666.992,85915.891,,,
Judgement,html.Screen,1_3_0_1,2022-02-21T16:05:24.600Z,,,,,,,,,,,,,,,,,,,,,,,,,,,,true,1,,1473.8090000476805,,response,,,,,,,,,1,,1,click #choice-1,,,,,S,O,I,,87393.70000004768,87389.70000004768,85899.304,85905.30000007153,85915.891,87398.833,,,
Trial,flow.Sequence,1_3_0,2022-02-21T16:05:24.601Z,,,,,,,,,,,,,,,,,,,,,,,,,,,,,,,5722.708000047685,,completion,,,,,,,,,1,,,,,,,,S,O,I,,87394.40000009537,87389.70000004768,81633.789,81649.60000002384,81666.992,87398.833,,,
Sounds,html.Screen,1_3_1_0,2022-02-21T16:05:28.839Z,,,,,,,,,,,,,,,,,,,,,,,,,,,,,,,4248.919999999998,,timeout,,,,,,,,,3,,,,,,,,I,O,S,,91632.80000007153,91631.151,87382.303,87394.70000004768,87398.833,91647.753,,,
Judgement,html.Screen,1_3_1_1,2022-02-21T16:05:29.785Z,,,,,,,,,,,,,,,,,,,,,,,,,,,,true,3,,927.3470000238449,,response,,,,,,,,,3,,3,click #choice-3,,,,,I,O,S,,92577.80000007153,92575.10000002384,91631.151,91633.10000002384,91647.753,92580.829,,,
Trial,flow.Sequence,1_3_1,2022-02-21T16:05:29.786Z,,,,,,,,,,,,,,,,,,,,,,,,,,,,,,,5176.267000023843,,completion,,,,,,,,,3,,,,,,,,I,O,S,,92579.5,92575.10000002384,87382.303,87394.70000004768,87398.833,92580.829,,,
Sounds,html.Screen,1_3_2_0,2022-02-21T16:05:34.022Z,,,,,,,,,,,,,,,,,,,,,,,,,,,,,,,4248.987000000008,,timeout,,,,,,,,,2,,,,,,,,O,S,I,,96815,96813.207,92564.164,92580.10000002384,92580.829,96829.816,,,
Judgement,html.Screen,1_3_2_1,2022-02-21T16:05:34.718Z,,,,,,,,,,,,,,,,,,,,,,,,,,,,true,2,,679.8840000476775,,response,,,,,,,,,2,,2,click #choice-2,,,,,O,S,I,,97511.5,97509.70000004768,96813.207,96815.30000007153,96829.816,97512.914,,,
Trial,flow.Sequence,1_3_2,2022-02-21T16:05:34.719Z,,,,,,,,,,,,,,,,,,,,,,,,,,,,,,,4928.871000047686,,completion,,,,,,,,,2,,,,,,,,O,S,I,,97512.60000002384,97509.70000004768,92564.164,92579.90000009537,92580.829,97512.914,,,
Sounds,html.Screen,1_3_3_0,2022-02-21T16:05:38.954Z,,,,,,,,,,,,,,,,,,,,,,,,,,,,,,,4248.910999999993,,timeout,,,,,,,,,3,,,,,,,,O,I,S,,101747.10000002384,101745.152,97496.358,97513.10000002384,97512.914,101761.825,,,
Judgement,html.Screen,1_3_3_1,2022-02-21T16:05:39.594Z,,,,,,,,,,,,,,,,,,,,,,,,,,,,true,3,,623.3750000476866,,response,,,,,,,,,3,,3,click #choice-3,,,,,O,I,S,,102387.70000004768,102385.20000004768,101745.152,101747.5,101761.825,102394.954,,,
Trial,flow.Sequence,1_3_3,2022-02-21T16:05:39.595Z,,,,,,,,,,,,,,,,,,,,,,,,,,,,,,,4872.286000047679,,completion,,,,,,,,,3,,,,,,,,O,I,S,,102388.70000004768,102385.20000004768,97496.358,97512.80000007153,97512.914,102394.954,,,
Sounds,html.Screen,1_3_4_0,2022-02-21T16:05:43.836Z,,,,,,,,,,,,,,,,,,,,,,,,,,,,,,,4248.985000000001,,timeout,,,,,,,,,2,,,,,,,,I,S,O,,106629.20000004768,106627.293,102378.436,102389.10000002384,102394.954,106643.939,,,
Judgement,html.Screen,1_3_4_1,2022-02-21T16:05:44.426Z,,,,,,,,,,,,,,,,,,,,,,,,,,,,true,2,,573.461000095369,,response,,,,,,,,,2,,2,click #choice-2,,,,,I,S,O,,107219.80000007153,107217.40000009537,106627.293,106629.40000009537,106643.939,107227.074,,,
Trial,flow.Sequence,1_3_4,2022-02-21T16:05:44.427Z,,,,,,,,,,,,,,,,,,,,,,,,,,,,,,,4822.4460000953695,,completion,,,,,,,,,2,,,,,,,,I,S,O,,107220.60000002384,107217.40000009537,102378.436,102389,102394.954,107227.074,,,
Sounds,html.Screen,1_3_5_0,2022-02-21T16:05:48.668Z,,,,,,,,,,,,,,,,,,,,,,,,,,,,,,,4248.959000000003,,timeout,,,,,,,,,1,,,,,,,,S,I,O,,111461.40000009537,111459.375,107210.406,107220.90000009537,107227.074,111476.033,,,
Judgement,html.Screen,1_3_5_1,2022-02-21T16:05:49.379Z,,,,,,,,,,,,,,,,,,,,,,,,,,,,true,1,,693.8670000953716,,response,,,,,,,,,1,,1,click #choice-1,,,,,S,I,O,,112172.70000004768,112169.90000009537,111459.375,111461.70000004768,111476.033,112192.434,,,
Trial,flow.Sequence,1_3_5,2022-02-21T16:05:49.380Z,,,,,,,,,,,,,,,,,,,,,,,,,,,,,,,4942.826000095374,,completion,,,,,,,,,1,,,,,,,,S,I,O,,112173.40000009537,112169.90000009537,107210.406,107220.80000007153,107227.074,112192.434,,,
Task,flow.Loop,1_3,2022-02-21T16:05:49.392Z,,,,,,,,,,,,,,,,,,,,,,,,,,,,,,,30502.90800009537,,completion,,,1,,,,,,,,,,,,,,,,,,112185.30000007153,112169.90000009537,81633.789,81649.40000009537,81666.992,112192.434,,,
Trap,html.Screen,1_4,2022-02-21T16:05:49.395Z,,,,,,,,,,,,,,,,,,,,,,,,,,,,,,,NaN,,skipped,,,,,,,,,,,,,,,,,,,,,112188.70000004768,112169.90000009537,,112188.10000002384,,112192.434,,,
Thanks,html.Screen,1_5,2022-02-21T16:05:52.416Z,,,,,,,,,,,,,,,,,,,,,,,,,,,,,,,3013.166000023848,,response,,,,,,,,,,,continue,click button,,,,,,,,,115209.40000009537,115205.60000002384,112159.087,112189,112192.434,118974.052,,,
Headphone screening,flow.Sequence,1,2022-02-21T16:05:52.418Z,,,,,,,,,,,,,,,,,,,,,,,,,,,,,,,74977.86800002384,,completion,,,,,,,,,,,,,,,,,,,,,115211.10000002384,115205.60000002384,40177.736,40186.10000002384,40227.732,118974.052,,,
Instructions,html.Page,2_0,2022-02-21T16:06:12.011Z,,,,,,,,,,,,,,,,,,,,,,,,,,,,,,,15827.948000000004,,form submission,,,,,,,,,,,,,,,,,,,,,134804.5,134802,118940.744,118961.20000004768,118974.052,134819.914,,,
Holding screen,html.Screen,2_1_0_0,2022-02-21T16:06:22.008Z,,,,,,,,,,,,,,,,,,,,,,,,,,,,,,,10014.119000000006,,timeout,,,,,,,,,,,,,,,,,,,,,144801.90000009537,144800.817,134786.614,134805.20000004768,134819.914,144834.033,,,
screen,html.Screen,2_1_0_1_0,2022-02-21T16:06:23.196Z,,,,,,,,,,,,,,,,,53,,,,,,,,,,,,,,1149.7670000715298,,response,,,,99,,,,,,,Space,keypress(Space),,,,,,,,When -- ----- -- ------ - ------- --- ----------<br>------------- ------ ------ ---- ---- ------- ----- -- ----<br>-------- ------- -- ---------- --- - --- ----- ----- ----<br>---- --- --- ----- --- ---- ---- ------- ----- ---- -------<br>--- --- -- ----- -- --- ---- -- --- ---- -- ------ ------<br>--- ----- -- ----,145989.30000007153,145983.80000007153,144800.817,144802.30000007153,144834.033,146000.371,,0,When
screen,html.Screen,2_1_0_1_1,2022-02-21T16:06:24.091Z,,,,,,,,,,,,,,,,,53,,,,,,,,,,,,,,882.9290000715118,,response,,,,99,,,,,,,Space,keypress(Space),,,,,,,,---- it ----- -- ------ - ------- --- ----------<br>------------- ------ ------ ---- ---- ------- ----- -- ----<br>-------- ------- -- ---------- --- - --- ----- ----- ----<br>---- --- --- ----- --- ---- ---- ------- ----- ---- -------<br>--- --- -- ----- -- --- ---- -- --- ---- -- ------ ------<br>--- ----- -- ----,146884.70000004768,146883.30000007153,145983.681,145989.60000002384,146000.371,146900.14,,1,it
screen,html.Screen,2_1_0_1_2,2022-02-21T16:06:24.851Z,,,,,,,,,,,,,,,,,53,,,,,,,,,,,,,,742.5600000476697,,response,,,,99,,,,,,,Space,keypress(Space),,,,,,,,---- -- comes -- ------ - ------- --- ----------<br>------------- ------ ------ ---- ---- ------- ----- -- ----<br>-------- ------- -- ---------- --- - --- ----- ----- ----<br>---- --- --- ----- --- ---- ---- ------- ----- ---- -------<br>--- --- -- ----- -- --- ---- -- --- ---- -- ------ ------<br>--- ----- -- ----,147644.30000007153,147642.70000004768,146883.459,146884.90000009537,146900.14,147649.949,,2,comes
screen,html.Screen,2_1_0_1_3,2022-02-21T16:06:25.618Z,,,,,,,,,,,,,,,,,53,,,,,,,,,,,,,,760.6510000238486,,response,,,,99,,,,,,,Space,keypress(Space),,,,,,,,---- -- ----- to ------ - ------- --- ----------<br>------------- ------ ------ ---- ---- ------- ----- -- ----<br>-------- ------- -- ---------- --- - --- ----- ----- ----<br>---- --- --- ----- --- ---- ---- ------- ----- ---- -------<br>--- --- -- ----- -- --- ---- -- --- ---- -- ------ ------<br>--- ----- -- ----,148411.90000009537,148410.60000002384,147633.279,147644.5,147649.949,148416.436,,3,to
screen,html.Screen,2_1_0_1_4,2022-02-21T16:06:26.282Z,,,,,,,,,,,,,,,,,53,,,,,,,,,,,,,,658.2640000476968,,response,,,,99,,,,,,,Space,keypress(Space),,,,,,,,---- -- ----- -- having - ------- --- ----------<br>------------- ------ ------ ---- ---- ------- ----- -- ----<br>-------- ------- -- ---------- --- - --- ----- ----- ----<br>---- --- --- ----- --- ---- ---- ------- ----- ---- -------<br>--- --- -- ----- -- --- ---- -- --- ---- -- ------ ------<br>--- ----- -- ----,149076.10000002384,149074.70000004768,148399.745,148412.20000004768,148416.436,149082.91,,4,having
screen,html.Screen,2_1_0_1_5,2022-02-21T16:06:26.898Z,,,,,,,,,,,,,,,,,53,,,,,,,,,,,,,,607.4900000953639,,response,,,,99,,,,,,,Space,keypress(Space),,,,,,,,---- -- ----- -- ------ a ------- --- ----------<br>------------- ------ ------ ---- ---- ------- ----- -- ----<br>-------- ------- -- ---------- --- - --- ----- ----- ----<br>---- --- --- ----- --- ---- ---- ------- ----- ---- -------<br>--- --- -- ----- -- --- ---- -- --- ---- -- ------ ------<br>--- ----- -- ----,149691.70000004768,149690.40000009537,149066.308,149076.30000007153,149082.91,149699.405,,5,a
screen,html.Screen,2_1_0_1_6,2022-02-21T16:06:27.681Z,,,,,,,,,,,,,,,,,53,,,,,,,,,,,,,,773.695000023843,,response,,,,99,,,,,,,Space,keypress(Space),,,,,,,,---- -- ----- -- ------ - lasting --- ----------<br>------------- ------ ------ ---- ---- ------- ----- -- ----<br>-------- ------- -- ---------- --- - --- ----- ----- ----<br>---- --- --- ----- --- ---- ---- ------- ----- ---- -------<br>--- --- -- ----- -- --- ---- -- --- ---- -- ------ ------<br>--- ----- -- ----,150474.5,150473.10000002384,149682.746,149691.90000009537,149699.405,150482.536,,6,lasting
screen,html.Screen,2_1_0_1_7,2022-02-21T16:06:28.329Z,,,,,,,,,,,,,,,,,53,,,,,,,,,,,,,,638.1640000476909,,response,,,,99,,,,,,,Space,keypress(Space),,,,,,,,---- -- ----- -- ------ - ------- and ----------<br>------------- ------ ------ ---- ---- ------- ----- -- ----<br>-------- ------- -- ---------- --- - --- ----- ----- ----<br>---- --- --- ----- --- ---- ---- ------- ----- ---- -------<br>--- --- -- ----- -- --- ---- -- --- ---- -- ------ ------<br>--- ----- -- ----,151122.20000004768,151120.70000004768,150465.874,150474.70000004768,150482.536,151132.375,,7,and
screen,html.Screen,2_1_0_1_8,2022-02-21T16:06:29.140Z,,,,,,,,,,,,,,,,,53,,,,,,,,,,,,,,799.625,,response,,,,99,,,,,,,Space,keypress(Space),,,,,,,,---- -- ----- -- ------ - ------- --- fulfilling<br>------------- ------ ------ ---- ---- ------- ----- -- ----<br>-------- ------- -- ---------- --- - --- ----- ----- ----<br>---- --- --- ----- --- ---- ---- ------- ----- ---- -------<br>--- --- -- ----- -- --- ---- -- --- ---- -- ------ ------<br>--- ----- -- ----,151933.40000009537,151932,151115.709,151122.5,151132.375,151948.885,,8,fulfilling
screen,html.Screen,2_1_0_1_9,2022-02-21T16:06:29.811Z,,,,,,,,,,,,,,,,,53,,,,,,,,,,,,,,653.9150000715163,,response,,,,99,,,,,,,Space,keypress(Space),,,,,,,,"---- -- ----- -- ------ - ------- --- ----------<br>relationship, ------ ------ ---- ---- ------- ----- -- ----<br>-------- ------- -- ---------- --- - --- ----- ----- ----<br>---- --- --- ----- --- ---- ---- ------- ----- ---- -------<br>--- --- -- ----- -- --- ---- -- --- ---- -- ------ ------<br>--- ----- -- ----",152604.90000009537,152602.80000007153,151932.165,151933.60000002384,151948.885,152615.333,,9,"relationship,"
screen,html.Screen,2_1_0_1_10,2022-02-21T16:06:30.283Z,,,,,,,,,,,,,,,,,53,,,,,,,,,,,,,,460.06700009535416,,response,,,,99,,,,,,,Space,keypress(Space),,,,,,,,---- -- ----- -- ------ - ------- --- ----------<br>------------- common ------ ---- ---- ------- ----- -- ----<br>-------- ------- -- ---------- --- - --- ----- ----- ----<br>---- --- --- ----- --- ---- ---- ------- ----- ---- -------<br>--- --- -- ----- -- --- ---- -- --- ---- -- ------ ------<br>--- ----- -- ----,153077.10000002384,153075.40000009537,152598.641,152605.20000004768,152615.333,153081.87,,10,common
screen,html.Screen,2_1_0_1_11,2022-02-21T16:06:30.837Z,,,,,,,,,,,,,,,,,53,,,,,,,,,,,,,,547.1300000000047,,response,,,,99,,,,,,,Space,keypress(Space),,,,,,,,---- -- ----- -- ------ - ------- --- ----------<br>------------- ------ wisdom ---- ---- ------- ----- -- ----<br>-------- ------- -- ---------- --- - --- ----- ----- ----<br>---- --- --- ----- --- ---- ---- ------- ----- ---- -------<br>--- --- -- ----- -- --- ---- -- --- ---- -- ------ ------<br>--- ----- -- ----,153630.5,153629,153065.218,153077.30000007153,153081.87,153665.112,,11,wisdom
screen,html.Screen,2_1_0_1_12,2022-02-21T16:06:31.358Z,,,,,,,,,,,,,,,,,53,,,,,,,,,,,,,,484.98800002384814,,response,,,,99,,,,,,,Space,keypress(Space),,,,,,,,---- -- ----- -- ------ - ------- --- ----------<br>------------- ------ ------ says ---- ------- ----- -- ----<br>-------- ------- -- ---------- --- - --- ----- ----- ----<br>---- --- --- ----- --- ---- ---- ------- ----- ---- -------<br>--- --- -- ----- -- --- ---- -- --- ---- -- ------ ------<br>--- ----- -- ----,154151.70000004768,154150.10000002384,153648.535,153630.70000004768,153665.112,154164.939,,12,says
screen,html.Screen,2_1_0_1_13,2022-02-21T16:06:31.985Z,,,,,,,,,,,,,,,,,53,,,,,,,,,,,,,,612.4610000953544,,response,,,,99,,,,,,,Space,keypress(Space),,,,,,,,---- -- ----- -- ------ - ------- --- ----------<br>------------- ------ ------ ---- that ------- ----- -- ----<br>-------- ------- -- ---------- --- - --- ----- ----- ----<br>---- --- --- ----- --- ---- ---- ------- ----- ---- -------<br>--- --- -- ----- -- --- ---- -- --- ---- -- ------ ------<br>--- ----- -- ----,154778.80000007153,154777.40000009537,154148.331,154151.80000007153,154164.939,154781.46,,13,that
screen,html.Screen,2_1_0_1_14,2022-02-21T16:06:32.404Z,,,,,,,,,,,,,,,,,53,,,,,,,,,,,,,,414.54000000000815,,response,,,,99,,,,,,,Space,keypress(Space),,,,,,,,---- -- ----- -- ------ - ------- --- ----------<br>------------- ------ ------ ---- ---- feeling ----- -- ----<br>-------- ------- -- ---------- --- - --- ----- ----- ----<br>---- --- --- ----- --- ---- ---- ------- ----- ---- -------<br>--- --- -- ----- -- --- ---- -- --- ---- -- ------ ------<br>--- ----- -- ----,155197.40000009537,155196,154764.76,154779.20000004768,154781.46,155214.72,,14,feeling
screen,html.Screen,2_1_0_1_15,2022-02-21T16:06:32.824Z,,,,,,,,,,,,,,,,,53,,,,,,,,,,,,,,401.27999999999884,,response,,,,99,,,,,,,Space,keypress(Space),,,,,,,,---- -- ----- -- ------ - ------- --- ----------<br>------------- ------ ------ ---- ---- ------- close -- ----<br>-------- ------- -- ---------- --- - --- ----- ----- ----<br>---- --- --- ----- --- ---- ---- ------- ----- ---- -------<br>--- --- -- ----- -- --- ---- -- --- ---- -- ------ ------<br>--- ----- -- ----,155617.60000002384,155616,155197.988,155197.60000002384,155214.72,155631.282,,15,close
screen,html.Screen,2_1_0_1_16,2022-02-21T16:06:33.271Z,,,,,,,,,,,,,,,,,53,,,,,,,,,,,,,,432.31800002383534,,response,,,,99,,,,,,,Space,keypress(Space),,,,,,,,---- -- ----- -- ------ - ------- --- ----------<br>------------- ------ ------ ---- ---- ------- ----- to ----<br>-------- ------- -- ---------- --- - --- ----- ----- ----<br>---- --- --- ----- --- ---- ---- ------- ----- ---- -------<br>--- --- -- ----- -- --- ---- -- --- ---- -- ------ ------<br>--- ----- -- ----,156065,156063.60000002384,155614.54,155617.90000009537,155631.282,156081.165,,16,to
screen,html.Screen,2_1_0_1_17,2022-02-21T16:06:33.676Z,,,,,,,,,,,,,,,,,53,,,,,,,,,,,,,,386.33499999999185,,response,,,,99,,,,,,,Space,keypress(Space),,,,,,,,---- -- ----- -- ------ - ------- --- ----------<br>------------- ------ ------ ---- ---- ------- ----- -- your<br>-------- ------- -- ---------- --- - --- ----- ----- ----<br>---- --- --- ----- --- ---- ---- ------- ----- ---- -------<br>--- --- -- ----- -- --- ---- -- --- ---- -- ------ ------<br>--- ----- -- ----,156469.20000004768,156467.5,156064.417,156065.20000004768,156081.165,156480.984,,17,your
screen,html.Screen,2_1_0_1_18,2022-02-21T16:06:34.106Z,,,,,,,,,,,,,,,,,53,,,,,,,,,,,,,,416.9160000953707,,response,,,,99,,,,,,,Space,keypress(Space),,,,,,,,---- -- ----- -- ------ - ------- --- ----------<br>------------- ------ ------ ---- ---- ------- ----- -- ----<br>romantic ------- -- ---------- --- - --- ----- ----- ----<br>---- --- --- ----- --- ---- ---- ------- ----- ---- -------<br>--- --- -- ----- -- --- ---- -- --- ---- -- ------ ------<br>--- ----- -- ----,156900.10000002384,156897.90000009537,156464.342,156469.40000009537,156480.984,156914.342,,18,romantic
screen,html.Screen,2_1_0_1_19,2022-02-21T16:06:34.535Z,,,,,,,,,,,,,,,,,53,,,,,,,,,,,,,,412.25800002383767,,response,,,,99,,,,,,,Space,keypress(Space),,,,,,,,---- -- ----- -- ------ - ------- --- ----------<br>------------- ------ ------ ---- ---- ------- ----- -- ----<br>-------- partner -- ---------- --- - --- ----- ----- ----<br>---- --- --- ----- --- ---- ---- ------- ----- ---- -------<br>--- --- -- ----- -- --- ---- -- --- ---- -- ------ ------<br>--- ----- -- ----,157328.40000009537,157326.60000002384,156897.546,156900.30000007153,156914.342,157330.8,,19,partner
screen,html.Screen,2_1_0_1_20,2022-02-21T16:06:34.928Z,,,,,,,,,,,,,,,,,53,,,,,,,,,,,,,,389.1000000953791,,response,,,,99,,,,,,,Space,keypress(Space),,,,,,,,---- -- ----- -- ------ - ------- --- ----------<br>------------- ------ ------ ---- ---- ------- ----- -- ----<br>-------- ------- is ---------- --- - --- ----- ----- ----<br>---- --- --- ----- --- ---- ---- ------- ----- ---- -------<br>--- --- -- ----- -- --- ---- -- --- ---- -- ------ ------<br>--- ----- -- ----,157721.70000004768,157719.90000009537,157314.101,157328.60000002384,157330.8,157730.682,,20,is
screen,html.Screen,2_1_0_1_21,2022-02-21T16:06:35.384Z,,,,,,,,,,,,,,,,,53,,,,,,,,,,,,,,445.21800009536673,,response,,,,99,,,,,,,Space,keypress(Space),,,,,,,,---- -- ----- -- ------ - ------- --- ----------<br>------------- ------ ------ ---- ---- ------- ----- -- ----<br>-------- ------- -- paramount. --- - --- ----- ----- ----<br>---- --- --- ----- --- ---- ---- ------- ----- ---- -------<br>--- --- -- ----- -- --- ---- -- --- ---- -- ------ ------<br>--- ----- -- ----,158177.40000009537,158175.90000009537,157713.996,157724.20000004768,157730.682,158180.601,,21,paramount.
screen,html.Screen,2_1_0_1_22,2022-02-21T16:06:35.896Z,,,,,,,,,,,,,,,,,53,,,,,,,,,,,,,,507.69900007153046,,response,,,,99,,,,,,,Space,keypress(Space),,,,,,,,---- -- ----- -- ------ - ------- --- ----------<br>------------- ------ ------ ---- ---- ------- ----- -- ----<br>-------- ------- -- ---------- But - --- ----- ----- ----<br>---- --- --- ----- --- ---- ---- ------- ----- ---- -------<br>--- --- -- ----- -- --- ---- -- --- ---- -- ------ ------<br>--- ----- -- ----,158689.80000007153,158688.30000007153,158163.88,158177.70000004768,158180.601,158697.092,,22,But
screen,html.Screen,2_1_0_1_23,2022-02-21T16:06:36.311Z,,,,,,,,,,,,,,,,,53,,,,,,,,,,,,,,406.50800002383767,,response,,,,99,,,,,,,Space,keypress(Space),,,,,,,,---- -- ----- -- ------ - ------- --- ----------<br>------------- ------ ------ ---- ---- ------- ----- -- ----<br>-------- ------- -- ---------- --- a --- ----- ----- ----<br>---- --- --- ----- --- ---- ---- ------- ----- ---- -------<br>--- --- -- ----- -- --- ---- -- --- ---- -- ------ ------<br>--- ----- -- ----,159105,159103.60000002384,158680.423,158690.10000002384,158697.092,159113.653,,23,a
screen,html.Screen,2_1_0_1_24,2022-02-21T16:06:36.787Z,,,,,,,,,,,,,,,,,53,,,,,,,,,,,,,,465.4470000238507,,response,,,,99,,,,,,,Space,keypress(Space),,,,,,,,---- -- ----- -- ------ - ------- --- ----------<br>------------- ------ ------ ---- ---- ------- ----- -- ----<br>-------- ------- -- ---------- --- - new ----- ----- ----<br>---- --- --- ----- --- ---- ---- ------- ----- ---- -------<br>--- --- -- ----- -- --- ---- -- --- ---- -- ------ ------<br>--- ----- -- ----,159580.90000009537,159579.10000002384,159096.98,159105.20000004768,159113.653,159596.92,,24,new
screen,html.Screen,2_1_0_1_25,2022-02-21T16:06:37.222Z,,,,,,,,,,,,,,,,,53,,,,,,,,,,,,,,417.2800000476709,,response,,,,99,,,,,,,Space,keypress(Space),,,,,,,,---- -- ----- -- ------ - ------- --- ----------<br>------------- ------ ------ ---- ---- ------- ----- -- ----<br>-------- ------- -- ---------- --- - --- study ----- ----<br>---- --- --- ----- --- ---- ---- ------- ----- ---- -------<br>--- --- -- ----- -- --- ---- -- --- ---- -- ------ ------<br>--- ----- -- ----,160015.70000004768,160014.20000004768,159580.178,159581.20000004768,159596.92,160030.119,,25,study
screen,html.Screen,2_1_0_1_26,2022-02-21T16:06:37.613Z,,,,,,,,,,,,,,,,,53,,,,,,,,,,,,,,375.1810000715195,,response,,,,99,,,,,,,Space,keypress(Space),,,,,,,,---- -- ----- -- ------ - ------- --- ----------<br>------------- ------ ------ ---- ---- ------- ----- -- ----<br>-------- ------- -- ---------- --- - --- ----- finds ----<br>---- --- --- ----- --- ---- ---- ------- ----- ---- -------<br>--- --- -- ----- -- --- ---- -- --- ---- -- ------ ------<br>--- ----- -- ----,160406.90000009537,160405.30000007153,160013.411,160016,160030.119,160413.305,,26,finds
screen,html.Screen,2_1_0_1_27,2022-02-21T16:06:38.046Z,,,,,,,,,,,,,,,,,53,,,,,,,,,,,,,,425.0950000953744,,response,,,,99,,,,,,,Space,keypress(Space),,,,,,,,---- -- ----- -- ------ - ------- --- ----------<br>------------- ------ ------ ---- ---- ------- ----- -- ----<br>-------- ------- -- ---------- --- - --- ----- ----- that<br>---- --- --- ----- --- ---- ---- ------- ----- ---- -------<br>--- --- -- ----- -- --- ---- -- --- ---- -- ------ ------<br>--- ----- -- ----,160839.90000009537,160838.40000009537,160396.641,160407.20000004768,160413.305,160846.529,,27,that
screen,html.Screen,2_1_0_1_28,2022-02-21T16:06:38.452Z,,,,,,,,,,,,,,,,,53,,,,,,,,,,,,,,396.47099999999045,,response,,,,99,,,,,,,Space,keypress(Space),,,,,,,,---- -- ----- -- ------ - ------- --- ----------<br>------------- ------ ------ ---- ---- ------- ----- -- ----<br>-------- ------- -- ---------- --- - --- ----- ----- ----<br>it's --- --- ----- --- ---- ---- ------- ----- ---- -------<br>--- --- -- ----- -- --- ---- -- --- ---- -- ------ ------<br>--- ----- -- ----,161245.20000004768,161243,160829.883,160840.10000002384,160846.529,161269.966,,28,it's
screen,html.Screen,2_1_0_1_29,2022-02-21T16:06:38.831Z,,,,,,,,,,,,,,,,,53,,,,,,,,,,,,,,353.2340000476979,,response,,,,99,,,,,,,Space,keypress(Space),,,,,,,,---- -- ----- -- ------ - ------- --- ----------<br>------------- ------ ------ ---- ---- ------- ----- -- ----<br>-------- ------- -- ---------- --- - --- ----- ----- ----<br>---- not --- ----- --- ---- ---- ------- ----- ---- -------<br>--- --- -- ----- -- --- ---- -- --- ---- -- ------ ------<br>--- ----- -- ----,161624.80000007153,161623.20000004768,161229.754,161245.5,161269.966,161629.692,,29,not
screen,html.Screen,2_1_0_1_30,2022-02-21T16:06:39.222Z,,,,,,,,,,,,,,,,,53,,,,,,,,,,,,,,384.60800007151556,,response,,,,99,,,,,,,Space,keypress(Space),,,,,,,,---- -- ----- -- ------ - ------- --- ----------<br>------------- ------ ------ ---- ---- ------- ----- -- ----<br>-------- ------- -- ---------- --- - --- ----- ----- ----<br>---- --- how ----- --- ---- ---- ------- ----- ---- -------<br>--- --- -- ----- -- --- ---- -- --- ---- -- ------ ------<br>--- ----- -- ----,162015.80000007153,162014.30000007153,161613.036,161625,161629.692,162029.589,,30,how
screen,html.Screen,2_1_0_1_31,2022-02-21T16:06:39.609Z,,,,,,,,,,,,,,,,,53,,,,,,,,,,,,,,371.9109999999928,,response,,,,99,,,,,,,Space,keypress(Space),,,,,,,,---- -- ----- -- ------ - ------- --- ----------<br>------------- ------ ------ ---- ---- ------- ----- -- ----<br>-------- ------- -- ---------- --- - --- ----- ----- ----<br>---- --- --- close --- ---- ---- ------- ----- ---- -------<br>--- --- -- ----- -- --- ---- -- --- ---- -- ------ ------<br>--- ----- -- ----,162403,162401.5,162012.896,162016,162029.589,162412.789,,31,close
screen,html.Screen,2_1_0_1_32,2022-02-21T16:06:40.027Z,,,,,,,,,,,,,,,,,53,,,,,,,,,,,,,,406.5110000715358,,response,,,,99,,,,,,,Space,keypress(Space),,,,,,,,---- -- ----- -- ------ - ------- --- ----------<br>------------- ------ ------ ---- ---- ------- ----- -- ----<br>-------- ------- -- ---------- --- - --- ----- ----- ----<br>---- --- --- ----- you ---- ---- ------- ----- ---- -------<br>--- --- -- ----- -- --- ---- -- --- ---- -- ------ ------<br>--- ----- -- ----,162820.90000009537,162819.30000007153,162396.136,162403.30000007153,162412.789,162829.364,,32,you
screen,html.Screen,2_1_0_1_33,2022-02-21T16:06:40.416Z,,,,,,,,,,,,,,,,,53,,,,,,,,,,,,,,378.4360000715242,,response,,,,99,,,,,,,Space,keypress(Space),,,,,,,,---- -- ----- -- ------ - ------- --- ----------<br>------------- ------ ------ ---- ---- ------- ----- -- ----<br>-------- ------- -- ---------- --- - --- ----- ----- ----<br>---- --- --- ----- --- feel ---- ------- ----- ---- -------<br>--- --- -- ----- -- --- ---- -- --- ---- -- ------ ------<br>--- ----- -- ----,163209.40000009537,163207.80000007153,162812.69,162821.10000002384,162829.364,163212.611,,33,feel
screen,html.Screen,2_1_0_1_34,2022-02-21T16:06:40.795Z,,,,,,,,,,,,,,,,,53,,,,,,,,,,,,,,374.18900007152115,,response,,,,99,,,,,,,Space,keypress(Space),,,,,,,,---- -- ----- -- ------ - ------- --- ----------<br>------------- ------ ------ ---- ---- ------- ----- -- ----<br>-------- ------- -- ---------- --- - --- ----- ----- ----<br>---- --- --- ----- --- ---- that ------- ----- ---- -------<br>--- --- -- ----- -- --- ---- -- --- ---- -- ------ ------<br>--- ----- -- ----,163588.30000007153,163586.80000007153,163195.908,163209.80000007153,163212.611,163595.833,,34,that
screen,html.Screen,2_1_0_1_35,2022-02-21T16:06:41.141Z,,,,,,,,,,,,,,,,,53,,,,,,,,,,,,,,337.06700009535416,,response,,,,99,,,,,,,Space,keypress(Space),,,,,,,,---- -- ----- -- ------ - ------- --- ----------<br>------------- ------ ------ ---- ---- ------- ----- -- ----<br>-------- ------- -- ---------- --- - --- ----- ----- ----<br>---- --- --- ----- --- ---- ---- matters ----- ---- -------<br>--- --- -- ----- -- --- ---- -- --- ---- -- ------ ------<br>--- ----- -- ----,163934.5,163932.90000009537,163579.169,163588.5,163595.833,163945.741,,35,matters
screen,html.Screen,2_1_0_1_36,2022-02-21T16:06:41.541Z,,,,,,,,,,,,,,,,,53,,,,,,,,,,,,,,387.45900004767464,,response,,,,99,,,,,,,Space,keypress(Space),,,,,,,,"---- -- ----- -- ------ - ------- --- ----------<br>------------- ------ ------ ---- ---- ------- ----- -- ----<br>-------- ------- -- ---------- --- - --- ----- ----- ----<br>---- --- --- ----- --- ---- ---- ------- most, ---- -------<br>--- --- -- ----- -- --- ---- -- --- ---- -- ------ ------<br>--- ----- -- ----",164334.80000007153,164333.20000004768,163929.075,163934.90000009537,163945.741,164345.64,,36,"most,"
screen,html.Screen,2_1_0_1_37,2022-02-21T16:06:41.933Z,,,,,,,,,,,,,,,,,53,,,,,,,,,,,,,,378.85999999998603,,response,,,,99,,,,,,,Space,keypress(Space),,,,,,,,---- -- ----- -- ------ - ------- --- ----------<br>------------- ------ ------ ---- ---- ------- ----- -- ----<br>-------- ------- -- ---------- --- - --- ----- ----- ----<br>---- --- --- ----- --- ---- ---- ------- ----- it's -------<br>--- --- -- ----- -- --- ---- -- --- ---- -- ------ ------<br>--- ----- -- ----,164726.20000004768,164724.5,164328.969,164335.10000002384,164345.64,164728.873,,37,it's
screen,html.Screen,2_1_0_1_38,2022-02-21T16:06:42.356Z,,,,,,,,,,,,,,,,,53,,,,,,,,,,,,,,419.22700002384954,,response,,,,99,,,,,,,Space,keypress(Space),,,,,,,,---- -- ----- -- ------ - ------- --- ----------<br>------------- ------ ------ ---- ---- ------- ----- -- ----<br>-------- ------- -- ---------- --- - --- ----- ----- ----<br>---- --- --- ----- --- ---- ---- ------- ----- ---- whether<br>--- --- -- ----- -- --- ---- -- --- ---- -- ------ ------<br>--- ----- -- ----,165149.5,165148.10000002384,164712.201,164726.40000009537,164728.873,165162.135,,38,whether
screen,html.Screen,2_1_0_1_39,2022-02-21T16:06:42.684Z,,,,,,,,,,,,,,,,,53,,,,,,,,,,,,,,313.7650000953581,,response,,,,99,,,,,,,Space,keypress(Space),,,,,,,,---- -- ----- -- ------ - ------- --- ----------<br>------------- ------ ------ ---- ---- ------- ----- -- ----<br>-------- ------- -- ---------- --- - --- ----- ----- ----<br>---- --- --- ----- --- ---- ---- ------- ----- ---- -------<br>you --- -- ----- -- --- ---- -- --- ---- -- ------ ------<br>--- ----- -- ----,165477.40000009537,165475.90000009537,165145.428,165149.70000004768,165162.135,165502.152,,39,you
screen,html.Screen,2_1_0_1_40,2022-02-21T16:06:43.073Z,,,,,,,,,,,,,,,,,53,,,,,,,,,,,,,,363.1480000715237,,response,,,,99,,,,,,,Space,keypress(Space),,,,,,,,---- -- ----- -- ------ - ------- --- ----------<br>------------- ------ ------ ---- ---- ------- ----- -- ----<br>-------- ------- -- ---------- --- - --- ----- ----- ----<br>---- --- --- ----- --- ---- ---- ------- ----- ---- -------<br>--- are -- ----- -- --- ---- -- --- ---- -- ------ ------<br>--- ----- -- ----,165866.70000004768,165865.30000007153,165462.016,165477.60000002384,165502.152,165878.71,,40,are
screen,html.Screen,2_1_0_1_41,2022-02-21T16:06:43.440Z,,,,,,,,,,,,,,,,,53,,,,,,,,,,,,,,353.29000000000815,,response,,,,99,,,,,,,Space,keypress(Space),,,,,,,,---- -- ----- -- ------ - ------- --- ----------<br>------------- ------ ------ ---- ---- ------- ----- -- ----<br>-------- ------- -- ---------- --- - --- ----- ----- ----<br>---- --- --- ----- --- ---- ---- ------- ----- ---- -------<br>--- --- as ----- -- --- ---- -- --- ---- -- ------ ------<br>--- ----- -- ----,166233.40000009537,166232,165861.894,165867,165878.71,166245.148,,41,as
screen,html.Screen,2_1_0_1_42,2022-02-21T16:06:43.811Z,,,,,,,,,,,,,,,,,53,,,,,,,,,,,,,,357.95200002385536,,response,,,,99,,,,,,,Space,keypress(Space),,,,,,,,---- -- ----- -- ------ - ------- --- ----------<br>------------- ------ ------ ---- ---- ------- ----- -- ----<br>-------- ------- -- ---------- --- - --- ----- ----- ----<br>---- --- --- ----- --- ---- ---- ------- ----- ---- -------<br>--- --- -- close -- --- ---- -- --- ---- -- ------ ------<br>--- ----- -- ----,166604.80000007153,166603.10000002384,166228.479,166233.60000002384,166245.148,166611.707,,42,close
screen,html.Screen,2_1_0_1_43,2022-02-21T16:06:44.197Z,,,,,,,,,,,,,,,,,53,,,,,,,,,,,,,,377.19300009537255,,response,,,,99,,,,,,,Space,keypress(Space),,,,,,,,---- -- ----- -- ------ - ------- --- ----------<br>------------- ------ ------ ---- ---- ------- ----- -- ----<br>-------- ------- -- ---------- --- - --- ----- ----- ----<br>---- --- --- ----- --- ---- ---- ------- ----- ---- -------<br>--- --- -- ----- as --- ---- -- --- ---- -- ------ ------<br>--- ----- -- ----,166990.5,166988.90000009537,166595.051,166605,166611.707,166994.946,,43,as
screen,html.Screen,2_1_0_1_44,2022-02-21T16:06:44.560Z,,,,,,,,,,,,,,,,,53,,,,,,,,,,,,,,357.45400009537116,,response,,,,99,,,,,,,Space,keypress(Space),,,,,,,,---- -- ----- -- ------ - ------- --- ----------<br>------------- ------ ------ ---- ---- ------- ----- -- ----<br>-------- ------- -- ---------- --- - --- ----- ----- ----<br>---- --- --- ----- --- ---- ---- ------- ----- ---- -------<br>--- --- -- ----- -- you ---- -- --- ---- -- ------ ------<br>--- ----- -- ----,167354.10000002384,167352.40000009537,166978.287,166990.90000009537,166994.946,167361.517,,44,you
screen,html.Screen,2_1_0_1_45,2022-02-21T16:06:44.954Z,,,,,,,,,,,,,,,,,53,,,,,,,,,,,,,,384.0830000238493,,response,,,,99,,,,,,,Space,keypress(Space),,,,,,,,---- -- ----- -- ------ - ------- --- ----------<br>------------- ------ ------ ---- ---- ------- ----- -- ----<br>-------- ------- -- ---------- --- - --- ----- ----- ----<br>---- --- --- ----- --- ---- ---- ------- ----- ---- -------<br>--- --- -- ----- -- --- want -- --- ---- -- ------ ------<br>--- ----- -- ----,167747.20000004768,167745.60000002384,167344.838,167354.40000009537,167361.517,167761.435,,45,want
screen,html.Screen,2_1_0_1_46,2022-02-21T16:06:45.351Z,,,,,,,,,,,,,,,,,53,,,,,,,,,,,,,,381.96500009536976,,response,,,,99,,,,,,,Space,keypress(Space),,,,,,,,---- -- ----- -- ------ - ------- --- ----------<br>------------- ------ ------ ---- ---- ------- ----- -- ----<br>-------- ------- -- ---------- --- - --- ----- ----- ----<br>---- --- --- ----- --- ---- ---- ------- ----- ---- -------<br>--- --- -- ----- -- --- ---- to --- ---- -- ------ ------<br>--- ----- -- ----,168145,168143.40000009537,167744.748,167749.40000009537,167761.435,168161.365,,46,to
screen,html.Screen,2_1_0_1_47,2022-02-21T16:06:45.749Z,,,,,,,,,,,,,,,,,53,,,,,,,,,,,,,,379.53500009537674,,response,,,,99,,,,,,,Space,keypress(Space),,,,,,,,"---- -- ----- -- ------ - ------- --- ----------<br>------------- ------ ------ ---- ---- ------- ----- -- ----<br>-------- ------- -- ---------- --- - --- ----- ----- ----<br>---- --- --- ----- --- ---- ---- ------- ----- ---- -------<br>--- --- -- ----- -- --- ---- -- be, ---- -- ------ ------<br>--- ----- -- ----",168542.40000009537,168540.90000009537,168144.644,168145.30000007153,168161.365,168544.557,,47,"be,"
screen,html.Screen,2_1_0_1_48,2022-02-21T16:06:46.154Z,,,,,,,,,,,,,,,,,53,,,,,,,,,,,,,,401.84300009536673,,response,,,,99,,,,,,,Space,keypress(Space),,,,,,,,---- -- ----- -- ------ - ------- --- ----------<br>------------- ------ ------ ---- ---- ------- ----- -- ----<br>-------- ------- -- ---------- --- - --- ----- ----- ----<br>---- --- --- ----- --- ---- ---- ------- ----- ---- -------<br>--- --- -- ----- -- --- ---- -- --- even -- ------ ------<br>--- ----- -- ----,168948,168946.40000009537,168527.903,168542.70000004768,168544.557,168961.155,,48,even
screen,html.Screen,2_1_0_1_49,2022-02-21T16:06:46.499Z,,,,,,,,,,,,,,,,,53,,,,,,,,,,,,,,330.14500007152674,,response,,,,99,,,,,,,Space,keypress(Space),,,,,,,,---- -- ----- -- ------ - ------- --- ----------<br>------------- ------ ------ ---- ---- ------- ----- -- ----<br>-------- ------- -- ---------- --- - --- ----- ----- ----<br>---- --- --- ----- --- ---- ---- ------- ----- ---- -------<br>--- --- -- ----- -- --- ---- -- --- ---- if ------ ------<br>--- ----- -- ----,169292.80000007153,169291.30000007153,168944.548,168948.20000004768,168961.155,169312.222,,49,if
screen,html.Screen,2_1_0_1_50,2022-02-21T16:06:46.895Z,,,,,,,,,,,,,,,,,53,,,,,,,,,,,,,,375.0780000715167,,response,,,,99,,,,,,,Space,keypress(Space),,,,,,,,---- -- ----- -- ------ - ------- --- ----------<br>------------- ------ ------ ---- ---- ------- ----- -- ----<br>-------- ------- -- ---------- --- - --- ----- ----- ----<br>---- --- --- ----- --- ---- ---- ------- ----- ---- -------<br>--- --- -- ----- -- --- ---- -- --- ---- -- that's ------<br>--- ----- -- ----,169689,169687.30000007153,169277.706,169293.10000002384,169312.222,169694.259,,50,that's
screen,html.Screen,2_1_0_1_51,2022-02-21T16:06:47.351Z,,,,,,,,,,,,,,,,,53,,,,,,,,,,,,,,448.1410000953765,,response,,,,99,,,,,,,Space,keypress(Space),,,,,,,,---- -- ----- -- ------ - ------- --- ----------<br>------------- ------ ------ ---- ---- ------- ----- -- ----<br>-------- ------- -- ---------- --- - --- ----- ----- ----<br>---- --- --- ----- --- ---- ---- ------- ----- ---- -------<br>--- --- -- ----- -- --- ---- -- --- ---- -- ------ really<br>--- ----- -- ----,170144.10000002384,170142.40000009537,169677.609,169689.30000007153,169694.259,170160.866,,51,really
screen,html.Screen,2_1_0_1_52,2022-02-21T16:06:47.869Z,,,,,,,,,,,,,,,,,53,,,,,,,,,,,,,,499.9340000715165,,response,,,,99,,,,,,,Space,keypress(Space),,,,,,,,---- -- ----- -- ------ - ------- --- ----------<br>------------- ------ ------ ---- ---- ------- ----- -- ----<br>-------- ------- -- ---------- --- - --- ----- ----- ----<br>---- --- --- ----- --- ---- ---- ------- ----- ---- -------<br>--- --- -- ----- -- --- ---- -- --- ---- -- ------ ------<br>not ----- -- ----,170662.5,170660.80000007153,170144.13,170144.30000007153,170160.866,170677.381,,52,not
screen,html.Screen,2_1_0_1_53,2022-02-21T16:06:48.291Z,,,,,,,,,,,,,,,,,53,,,,,,,,,,,,,,406.0190000953735,,response,,,,99,,,,,,,Space,keypress(Space),,,,,,,,---- -- ----- -- ------ - ------- --- ----------<br>------------- ------ ------ ---- ---- ------- ----- -- ----<br>-------- ------- -- ---------- --- - --- ----- ----- ----<br>---- --- --- ----- --- ---- ---- ------- ----- ---- -------<br>--- --- -- ----- -- --- ---- -- --- ---- -- ------ ------<br>--- close -- ----,171084.90000009537,171083.40000009537,170660.675,170662.80000007153,170677.381,171093.91,,53,close
screen,html.Screen,2_1_0_1_54,2022-02-21T16:06:48.706Z,,,,,,,,,,,,,,,,,53,,,,,,,,,,,,,,404.5899999999965,,response,,,,99,,,,,,,Space,keypress(Space),,,,,,,,---- -- ----- -- ------ - ------- --- ----------<br>------------- ------ ------ ---- ---- ------- ----- -- ----<br>-------- ------- -- ---------- --- - --- ----- ----- ----<br>---- --- --- ----- --- ---- ---- ------- ----- ---- -------<br>--- --- -- ----- -- --- ---- -- --- ---- -- ------ ------<br>--- ----- at ----,171500.10000002384,171498.5,171077.222,171085.20000004768,171093.91,171510.486,,54,at
screen,html.Screen,2_1_0_1_55,2022-02-21T16:06:50.388Z,,,,,,,,,,,,,,,,,53,,,,,,,,,,,,,,1669.6140000238374,,response,,,,99,,,,,,,Space,keypress(Space),,,,,,,,---- -- ----- -- ------ - ------- --- ----------<br>------------- ------ ------ ---- ---- ------- ----- -- ----<br>-------- ------- -- ---------- --- - --- ----- ----- ----<br>---- --- --- ----- --- ---- ---- ------- ----- ---- -------<br>--- --- -- ----- -- --- ---- -- --- ---- -- ------ ------<br>--- ----- -- all.,173181.60000002384,173180.10000002384,171493.777,171500.30000007153,171510.486,173193.369,,55,all.
Item 99,flow.Loop,2_1_0_1,2022-02-21T16:06:50.389Z,,,,,,,,,,,,,,,,,,,,,,,,,,,,,,,28346.067000023846,,completion,,,,,D,,,,,,,,,,,silence,,,,,173182.20000004768,173180.10000002384,144800.817,144802.20000004768,144834.033,173193.369,,,
Question 1,html.Screen,2_1_0_2,2022-02-21T16:06:58.261Z,,,,,,,,,,,,,,,,,,,,,,,,,,,,true,FALSE,,7865.831000047678,,response,,,,99,D,,,,,,FALSE,click #choice-2,,,,silence,,,,,181061.70000004768,181059.20000004768,173176.642,173182.40000009537,173193.369,181074.653,,,
Question 2,html.Screen,2_1_0_3,2022-02-21T16:07:02.635Z,,,,,,,,,,,,,,,,,,,,,,,,,,,,true,TRUE,,4359.147000071534,,response,,,,99,D,,,,,,TRUE,click #choice-1,,,,silence,,,,,185435.90000009537,185433.80000007153,181058.051,181062.20000004768,181074.653,185440.205,,,
Item 99,flow.Sequence,2_1_0,2022-02-21T16:07:02.636Z,,,,,,,,,,,,,,,,,,,,,,,,,,,,,,,50613.886000071536,,completion,,,,,,,,,,,,,,,,,,,,,185436.60000002384,185433.80000007153,134786.614,134805.10000002384,134819.914,185440.205,,,
Holding screen,html.Screen,2_1_1_0,2022-02-21T16:07:12.622Z,,,,,,,,,,,,,,,,,,,,,,,,,,,,,,,9997.584000000003,,timeout,,,,,,,,,,,,,,,,,,,,,195422.10000002384,195421.058,185423.531,185436.90000009537,185440.205,195437.789,,,
screen,html.Screen,2_1_1_1_0,2022-02-21T16:07:14.107Z,,,,,,,,,,,,,,,,,54,,,,,,,,,,,,,,1467.811000023852,,response,,,,100,,,,,,,Space,keypress(Space),,,,,,,,At --- ---- --- ------ ----- ------- ---- -- --- ------- --<br>------- ---------- ------ -- ----- -- ----- -- ---- ------<br>--- ----- --- --- ------ -------- ----- --- ------ ----- --<br>----- ----- ---------- --- --- ------ ------ ---- -- ------<br>------- --- ------ ----- --- ---- ------- -- ---- --- --<br>------- ------,196907.30000007153,196905.60000002384,195421.058,195422.40000009537,195437.789,196920.584,,0,At
screen,html.Screen,2_1_1_1_1,2022-02-21T16:07:14.740Z,,,,,,,,,,,,,,,,,54,,,,,,,,,,,,,,618.4159999999974,,response,,,,100,,,,,,,Space,keypress(Space),,,,,,,,-- the ---- --- ------ ----- ------- ---- -- --- ------- --<br>------- ---------- ------ -- ----- -- ----- -- ---- ------<br>--- ----- --- --- ------ -------- ----- --- ------ ----- --<br>----- ----- ---------- --- --- ------ ------ ---- -- ------<br>------- --- ------ ----- --- ---- ------- -- ---- --- --<br>------- ------,197540.20000004768,197539,196904.004,196907.70000004768,196920.584,197553.746,,1,the
screen,html.Screen,2_1_1_1_2,2022-02-21T16:07:15.129Z,,,,,,,,,,,,,,,,,54,,,,,,,,,,,,,,374.75399999998626,,response,,,,100,,,,,,,Space,keypress(Space),,,,,,,,-- --- time --- ------ ----- ------- ---- -- --- ------- --<br>------- ---------- ------ -- ----- -- ----- -- ---- ------<br>--- ----- --- --- ------ -------- ----- --- ------ ----- --<br>----- ----- ---------- --- --- ------ ------ ---- -- ------<br>------- --- ------ ----- --- ---- ------- -- ---- --- --<br>------- ------,197929.70000004768,197928.5,197537.167,197540.40000009537,197553.746,197953.67,,2,time
screen,html.Screen,2_1_1_1_3,2022-02-21T16:07:15.561Z,,,,,,,,,,,,,,,,,54,,,,,,,,,,,,,,406.43000002382905,,response,,,,100,,,,,,,Space,keypress(Space),,,,,,,,-- --- ---- the ------ ----- ------- ---- -- --- ------- --<br>------- ---------- ------ -- ----- -- ----- -- ---- ------<br>--- ----- --- --- ------ -------- ----- --- ------ ----- --<br>----- ----- ---------- --- --- ------ ------ ---- -- ------<br>------- --- ------ ----- --- ---- ------- -- ---- --- --<br>------- ------,198361.5,198360.10000002384,197936.945,197930,197953.67,198370.152,,3,the
screen,html.Screen,2_1_1_1_4,2022-02-21T16:07:16.007Z,,,,,,,,,,,,,,,,,54,,,,,,,,,,,,,,436.44800002384,,response,,,,100,,,,,,,Space,keypress(Space),,,,,,,,-- --- ---- --- French ----- ------- ---- -- --- ------- --<br>------- ---------- ------ -- ----- -- ----- -- ---- ------<br>--- ----- --- --- ------ -------- ----- --- ------ ----- --<br>----- ----- ---------- --- --- ------ ------ ---- -- ------<br>------- --- ------ ----- --- ---- ------- -- ---- --- --<br>------- ------,198807.80000007153,198806.60000002384,198353.621,198361.80000007153,198370.152,198820.042,,4,French
screen,html.Screen,2_1_1_1_5,2022-02-21T16:07:16.421Z,,,,,,,,,,,,,,,,,54,,,,,,,,,,,,,,399.75800007153885,,response,,,,100,,,,,,,Space,keypress(Space),,,,,,,,-- --- ---- --- ------ crown ------- ---- -- --- ------- --<br>------- ---------- ------ -- ----- -- ----- -- ---- ------<br>--- ----- --- --- ------ -------- ----- --- ------ ----- --<br>----- ----- ---------- --- --- ------ ------ ---- -- ------<br>------- --- ------ ----- --- ---- ------- -- ---- --- --<br>------- ------,199221.20000004768,199219.80000007153,198803.512,198808.10000002384,198820.042,199236.683,,5,crown
screen,html.Screen,2_1_1_1_6,2022-02-21T16:07:16.868Z,,,,,,,,,,,,,,,,,54,,,,,,,,,,,,,,430.21700009537744,,response,,,,100,,,,,,,Space,keypress(Space),,,,,,,,-- --- ---- --- ------ ----- secured ---- -- --- ------- --<br>------- ---------- ------ -- ----- -- ----- -- ---- ------<br>--- ----- --- --- ------ -------- ----- --- ------ ----- --<br>----- ----- ---------- --- --- ------ ------ ---- -- ------<br>------- --- ------ ----- --- ---- ------- -- ---- --- --<br>------- ------,199668.10000002384,199666.90000009537,199219.934,199221.5,199236.683,199690,,6,secured
screen,html.Screen,2_1_1_1_7,2022-02-21T16:07:17.342Z,,,,,,,,,,,,,,,,,54,,,,,,,,,,,,,,451.7000000476837,,response,,,,100,,,,,,,Space,keypress(Space),,,,,,,,-- --- ---- --- ------ ----- ------- much -- --- ------- --<br>------- ---------- ------ -- ----- -- ----- -- ---- ------<br>--- ----- --- --- ------ -------- ----- --- ------ ----- --<br>----- ----- ---------- --- --- ------ ------ ---- -- ------<br>------- --- ------ ----- --- ---- ------- -- ---- --- --<br>------- ------,200142.90000009537,200141.70000004768,199653.301,199668.30000007153,199690,200153.073,,7,much
screen,html.Screen,2_1_1_1_8,2022-02-21T16:07:17.797Z,,,,,,,,,,,,,,,,,54,,,,,,,,,,,,,,443.42699999999604,,response,,,,100,,,,,,,Space,keypress(Space),,,,,,,,-- --- ---- --- ------ ----- ------- ---- of --- ------- --<br>------- ---------- ------ -- ----- -- ----- -- ---- ------<br>--- ----- --- --- ------ -------- ----- --- ------ ----- --<br>----- ----- ---------- --- --- ------ ------ ---- -- ------<br>------- --- ------ ----- --- ---- ------- -- ---- --- --<br>------- ------,200597.70000004768,200596.5,200136.362,200143.10000002384,200153.073,200602.926,,8,of
screen,html.Screen,2_1_1_1_9,2022-02-21T16:07:18.169Z,,,,,,,,,,,,,,,,,54,,,,,,,,,,,,,,365.07399999999325,,response,,,,100,,,,,,,Space,keypress(Space),,,,,,,,-- --- ---- --- ------ ----- ------- ---- -- its ------- --<br>------- ---------- ------ -- ----- -- ----- -- ---- ------<br>--- ----- --- --- ------ -------- ----- --- ------ ----- --<br>----- ----- ---------- --- --- ------ ------ ---- -- ------<br>------- --- ------ ----- --- ---- ------- -- ---- --- --<br>------- ------,200969.30000007153,200968,200586.332,200598,200602.926,200986.22,,9,its
screen,html.Screen,2_1_1_1_10,2022-02-21T16:07:18.631Z,,,,,,,,,,,,,,,,,54,,,,,,,,,,,,,,443.3800000238407,,response,,,,100,,,,,,,Space,keypress(Space),,,,,,,,-- --- ---- --- ------ ----- ------- ---- -- --- revenue --<br>------- ---------- ------ -- ----- -- ----- -- ---- ------<br>--- ----- --- --- ------ -------- ----- --- ------ ----- --<br>----- ----- ---------- --- --- ------ ------ ---- -- ------<br>------- --- ------ ----- --- ---- ------- -- ---- --- --<br>------- ------,201431,201429.60000002384,200969.485,200969.5,200986.22,201436.047,,10,revenue
screen,html.Screen,2_1_1_1_11,2022-02-21T16:07:19.143Z,,,,,,,,,,,,,,,,,54,,,,,,,,,,,,,,505.9530000000086,,response,,,,100,,,,,,,Space,keypress(Space),,,,,,,,-- --- ---- --- ------ ----- ------- ---- -- --- ------- by<br>------- ---------- ------ -- ----- -- ----- -- ---- ------<br>--- ----- --- --- ------ -------- ----- --- ------ ----- --<br>----- ----- ---------- --- --- ------ ------ ---- -- ------<br>------- --- ------ ----- --- ---- ------- -- ---- --- --<br>------- ------,201943.5,201942,201419.371,201431.30000007153,201436.047,201952.593,,11,by
screen,html.Screen,2_1_1_1_12,2022-02-21T16:07:19.584Z,,,,,,,,,,,,,,,,,54,,,,,,,,,,,,,,429.80700009537395,,response,,,,100,,,,,,,Space,keypress(Space),,,,,,,,-- --- ---- --- ------ ----- ------- ---- -- --- ------- --<br>issuing ---------- ------ -- ----- -- ----- -- ---- ------<br>--- ----- --- --- ------ -------- ----- --- ------ ----- --<br>----- ----- ---------- --- --- ------ ------ ---- -- ------<br>------- --- ------ ----- --- ---- ------- -- ---- --- --<br>------- ------,202383.90000009537,202382.40000009537,201935.908,201943.70000004768,201952.593,202385.81,,12,issuing
screen,html.Screen,2_1_1_1_13,2022-02-21T16:07:19.894Z,,,,,,,,,,,,,,,,,54,,,,,,,,,,,,,,306.6900000000023,,response,,,,100,,,,,,,Space,keypress(Space),,,,,,,,-- --- ---- --- ------ ----- ------- ---- -- --- ------- --<br>------- government ------ -- ----- -- ----- -- ---- ------<br>--- ----- --- --- ------ -------- ----- --- ------ ----- --<br>----- ----- ---------- --- --- ------ ------ ---- -- ------<br>------- --- ------ ----- --- ---- ------- -- ---- --- --<br>------- ------,202694.10000002384,202692.5,202369.138,202384.20000004768,202385.81,202702.379,,13,government
screen,html.Screen,2_1_1_1_14,2022-02-21T16:07:20.809Z,,,,,,,,,,,,,,,,,54,,,,,,,,,,,,,,905.9210000715393,,response,,,,100,,,,,,,Space,keypress(Space),,,,,,,,-- --- ---- --- ------ ----- ------- ---- -- --- ------- --<br>------- ---------- bonds. -- ----- -- ----- -- ---- ------<br>--- ----- --- --- ------ -------- ----- --- ------ ----- --<br>----- ----- ---------- --- --- ------ ------ ---- -- ------<br>------- --- ------ ----- --- ---- ------- -- ---- --- --<br>------- ------,203609.70000004768,203608.30000007153,202685.703,202694.30000007153,202702.379,203618.818,,14,bonds.
screen,html.Screen,2_1_1_1_15,2022-02-21T16:07:21.478Z,,,,,,,,,,,,,,,,,54,,,,,,,,,,,,,,658.2820000238426,,response,,,,100,,,,,,,Space,keypress(Space),,,,,,,,-- --- ---- --- ------ ----- ------- ---- -- --- ------- --<br>------- ---------- ------ In ----- -- ----- -- ---- ------<br>--- ----- --- --- ------ -------- ----- --- ------ ----- --<br>----- ----- ---------- --- --- ------ ------ ---- -- ------<br>------- --- ------ ----- --- ---- ------- -- ---- --- --<br>------- ------,204278.70000004768,204277.10000002384,203602.115,203609.90000009537,203618.818,204285.418,,15,In
screen,html.Screen,2_1_1_1_16,2022-02-21T16:07:22.988Z,,,,,,,,,,,,,,,,,54,,,,,,,,,,,,,,1501.1820000238367,,response,,,,100,,,,,,,Space,keypress(Space),,,,,,,,"-- --- ---- --- ------ ----- ------- ---- -- --- ------- --<br>------- ---------- ------ -- 1727, -- ----- -- ---- ------<br>--- ----- --- --- ------ -------- ----- --- ------ ----- --<br>----- ----- ---------- --- --- ------ ------ ---- -- ------<br>------- --- ------ ----- --- ---- ------- -- ---- --- --<br>------- ------",205788.40000009537,205786.60000002384,204268.62,204278.90000009537,204285.418,205801.874,,16,"1727,"
screen,html.Screen,2_1_1_1_17,2022-02-21T16:07:23.460Z,,,,,,,,,,,,,,,,,54,,,,,,,,,,,,,,456.92600007151486,,response,,,,100,,,,,,,Space,keypress(Space),,,,,,,,-- --- ---- --- ------ ----- ------- ---- -- --- ------- --<br>------- ---------- ------ -- ----- in ----- -- ---- ------<br>--- ----- --- --- ------ -------- ----- --- ------ ----- --<br>----- ----- ---------- --- --- ------ ------ ---- -- ------<br>------- --- ------ ----- --- ---- ------- -- ---- --- --<br>------- ------,206260.5,206258.80000007153,205784.984,205788.80000007153,205801.874,206268.159,,17,in
screen,html.Screen,2_1_1_1_18,2022-02-21T16:07:23.838Z,,,,,,,,,,,,,,,,,54,,,,,,,,,,,,,,368.8409999999858,,response,,,,100,,,,,,,Space,keypress(Space),,,,,,,,-- --- ---- --- ------ ----- ------- ---- -- --- ------- --<br>------- ---------- ------ -- ----- -- order -- ---- ------<br>--- ----- --- --- ------ -------- ----- --- ------ ----- --<br>----- ----- ---------- --- --- ------ ------ ---- -- ------<br>------- --- ------ ----- --- ---- ------- -- ---- --- --<br>------- ------,206638.5,206637,206251.599,206260.70000004768,206268.159,206651.398,,18,order
screen,html.Screen,2_1_1_1_19,2022-02-21T16:07:24.277Z,,,,,,,,,,,,,,,,,54,,,,,,,,,,,,,,424.20200002385536,,response,,,,100,,,,,,,Space,keypress(Space),,,,,,,,-- --- ---- --- ------ ----- ------- ---- -- --- ------- --<br>------- ---------- ------ -- ----- -- ----- to ---- ------<br>--- ----- --- --- ------ -------- ----- --- ------ ----- --<br>----- ----- ---------- --- --- ------ ------ ---- -- ------<br>------- --- ------ ----- --- ---- ------- -- ---- --- --<br>------- ------,207076.90000009537,207075.60000002384,206634.696,206638.80000007153,206651.398,207084.582,,19,to
screen,html.Screen,2_1_1_1_20,2022-02-21T16:07:24.689Z,,,,,,,,,,,,,,,,,54,,,,,,,,,,,,,,402.9180000000051,,response,,,,100,,,,,,,Space,keypress(Space),,,,,,,,-- --- ---- --- ------ ----- ------- ---- -- --- ------- --<br>------- ---------- ------ -- ----- -- ----- -- save ------<br>--- ----- --- --- ------ -------- ----- --- ------ ----- --<br>----- ----- ---------- --- --- ------ ------ ---- -- ------<br>------- --- ------ ----- --- ---- ------- -- ---- --- --<br>------- ------,207489,207487.5,207067.901,207077.20000004768,207084.582,207501.163,,20,save
screen,html.Screen,2_1_1_1_21,2022-02-21T16:07:25.299Z,,,,,,,,,,,,,,,,,54,,,,,,,,,,,,,,597.0370000476833,,response,,,,100,,,,,,,Space,keypress(Space),,,,,,,,"-- --- ---- --- ------ ----- ------- ---- -- --- ------- --<br>------- ---------- ------ -- ----- -- ----- -- ---- money,<br>--- ----- --- --- ------ -------- ----- --- ------ ----- --<br>----- ----- ---------- --- --- ------ ------ ---- -- ------<br>------- --- ------ ----- --- ---- ------- -- ---- --- --<br>------- ------",208099.90000009537,208098.20000004768,207484.463,207489.30000007153,207501.163,208165.924,,21,"money,"
screen,html.Screen,2_1_1_1_22,2022-02-21T16:07:25.769Z,,,,,,,,,,,,,,,,,54,,,,,,,,,,,,,,401.77600004768465,,response,,,,100,,,,,,,Space,keypress(Space),,,,,,,,-- --- ---- --- ------ ----- ------- ---- -- --- ------- --<br>------- ---------- ------ -- ----- -- ----- -- ---- ------<br>the ----- --- --- ------ -------- ----- --- ------ ----- --<br>----- ----- ---------- --- --- ------ ------ ---- -- ------<br>------- --- ------ ----- --- ---- ------- -- ---- --- --<br>------- ------,208569.70000004768,208567.70000004768,208133.487,208100.10000002384,208165.924,208584.213,,22,the
screen,html.Screen,2_1_1_1_23,2022-02-21T16:07:26.117Z,,,,,,,,,,,,,,,,,54,,,,,,,,,,,,,,332.1870000953786,,response,,,,100,,,,,,,Space,keypress(Space),,,,,,,,-- --- ---- --- ------ ----- ------- ---- -- --- ------- --<br>------- ---------- ------ -- ----- -- ----- -- ---- ------<br>--- state --- --- ------ -------- ----- --- ------ ----- --<br>----- ----- ---------- --- --- ------ ------ ---- -- ------<br>------- --- ------ ----- --- ---- ------- -- ---- --- --<br>------- ------,208917.90000009537,208916.40000009537,208567.64,208570,208584.213,208934.152,,23,state
screen,html.Screen,2_1_1_1_24,2022-02-21T16:07:26.544Z,,,,,,,,,,,,,,,,,54,,,,,,,,,,,,,,408.34799999999814,,response,,,,100,,,,,,,Space,keypress(Space),,,,,,,,-- --- ---- --- ------ ----- ------- ---- -- --- ------- --<br>------- ---------- ------ -- ----- -- ----- -- ---- ------<br>--- ----- cut --- ------ -------- ----- --- ------ ----- --<br>----- ----- ---------- --- --- ------ ------ ---- -- ------<br>------- --- ------ ----- --- ---- ------- -- ---- --- --<br>------- ------,209344.10000002384,209342.5,208917.423,208918.10000002384,208934.152,209350.652,,24,cut
screen,html.Screen,2_1_1_1_25,2022-02-21T16:07:26.982Z,,,,,,,,,,,,,,,,,54,,,,,,,,,,,,,,430.34799999999814,,response,,,,100,,,,,,,Space,keypress(Space),,,,,,,,-- --- ---- --- ------ ----- ------- ---- -- --- ------- --<br>------- ---------- ------ -- ----- -- ----- -- ---- ------<br>--- ----- --- the ------ -------- ----- --- ------ ----- --<br>----- ----- ---------- --- --- ------ ------ ---- -- ------<br>------- --- ------ ----- --- ---- ------- -- ---- --- --<br>------- ------,209782.30000007153,209781,209334.009,209344.40000009537,209350.652,209803.684,,25,the
screen,html.Screen,2_1_1_1_26,2022-02-21T16:07:27.449Z,,,,,,,,,,,,,,,,,54,,,,,,,,,,,,,,444.51600004767533,,response,,,,100,,,,,,,Space,keypress(Space),,,,,,,,-- --- ---- --- ------ ----- ------- ---- -- --- ------- --<br>------- ---------- ------ -- ----- -- ----- -- ---- ------<br>--- ----- --- --- bonds' -------- ----- --- ------ ----- --<br>----- ----- ---------- --- --- ------ ------ ---- -- ------<br>------- --- ------ ----- --- ---- ------- -- ---- --- --<br>------- ------,210249.80000007153,210248.20000004768,209767.21,209782.70000004768,209803.684,210267.146,,26,bonds'
screen,html.Screen,2_1_1_1_27,2022-02-21T16:07:27.920Z,,,,,,,,,,,,,,,,,54,,,,,,,,,,,,,,451.8539999999921,,response,,,,100,,,,,,,Space,keypress(Space),,,,,,,,-- --- ---- --- ------ ----- ------- ---- -- --- ------- --<br>------- ---------- ------ -- ----- -- ----- -- ---- ------<br>--- ----- --- --- ------ interest ----- --- ------ ----- --<br>----- ----- ---------- --- --- ------ ------ ---- -- ------<br>------- --- ------ ----- --- ---- ------- -- ---- --- --<br>------- ------,210720.60000002384,210719,210250.463,210250.10000002384,210267.146,210733.662,,27,interest
screen,html.Screen,2_1_1_1_28,2022-02-21T16:07:28.343Z,,,,,,,,,,,,,,,,,54,,,,,,,,,,,,,,408.23800009535626,,response,,,,100,,,,,,,Space,keypress(Space),,,,,,,,-- --- ---- --- ------ ----- ------- ---- -- --- ------- --<br>------- ---------- ------ -- ----- -- ----- -- ---- ------<br>--- ----- --- --- ------ -------- rate. --- ------ ----- --<br>----- ----- ---------- --- --- ------ ------ ---- -- ------<br>------- --- ------ ----- --- ---- ------- -- ---- --- --<br>------- ------,211143.30000007153,211141.90000009537,210716.962,210720.90000009537,210733.662,211150.199,,28,rate.
screen,html.Screen,2_1_1_1_29,2022-02-21T16:07:28.878Z,,,,,,,,,,,,,,,,,54,,,,,,,,,,,,,,526.0010000476905,,response,,,,100,,,,,,,Space,keypress(Space),,,,,,,,-- --- ---- --- ------ ----- ------- ---- -- --- ------- --<br>------- ---------- ------ -- ----- -- ----- -- ---- ------<br>--- ----- --- --- ------ -------- ----- The ------ ----- --<br>----- ----- ---------- --- --- ------ ------ ---- -- ------<br>------- --- ------ ----- --- ---- ------- -- ---- --- --<br>------- ------,211678,211676.20000004768,211133.618,211143.60000002384,211150.199,211683.387,,29,The
screen,html.Screen,2_1_1_1_30,2022-02-21T16:07:29.244Z,,,,,,,,,,,,,,,,,54,,,,,,,,,,,,,,359.01300009537954,,response,,,,100,,,,,,,Space,keypress(Space),,,,,,,,-- --- ---- --- ------ ----- ------- ---- -- --- ------- --<br>------- ---------- ------ -- ----- -- ----- -- ---- ------<br>--- ----- --- --- ------ -------- ----- --- market ----- --<br>----- ----- ---------- --- --- ------ ------ ---- -- ------<br>------- --- ------ ----- --- ---- ------- -- ---- --- --<br>------- ------,212044,212042.40000009537,211666.714,211678.40000009537,211683.387,212049.957,,30,market
screen,html.Screen,2_1_1_1_31,2022-02-21T16:07:29.631Z,,,,,,,,,,,,,,,,,54,,,,,,,,,,,,,,379.5430000000051,,response,,,,100,,,,,,,Space,keypress(Space),,,,,,,,-- --- ---- --- ------ ----- ------- ---- -- --- ------- --<br>------- ---------- ------ -- ----- -- ----- -- ---- ------<br>--- ----- --- --- ------ -------- ----- --- ------ value --<br>----- ----- ---------- --- --- ------ ------ ---- -- ------<br>------- --- ------ ----- --- ---- ------- -- ---- --- --<br>------- ------,212431,212429.5,212033.307,212044.30000007153,212049.957,212433.212,,31,value
screen,html.Screen,2_1_1_1_32,2022-02-21T16:07:30.135Z,,,,,,,,,,,,,,,,,54,,,,,,,,,,,,,,500.9880000476842,,response,,,,100,,,,,,,Space,keypress(Space),,,,,,,,-- --- ---- --- ------ ----- ------- ---- -- --- ------- --<br>------- ---------- ------ -- ----- -- ----- -- ---- ------<br>--- ----- --- --- ------ -------- ----- --- ------ ----- of<br>----- ----- ---------- --- --- ------ ------ ---- -- ------<br>------- --- ------ ----- --- ---- ------- -- ---- --- --<br>------- ------,212935.5,212934.20000004768,212416.526,212431.30000007153,212433.212,212949.778,,32,of
screen,html.Screen,2_1_1_1_33,2022-02-21T16:07:30.548Z,,,,,,,,,,,,,,,,,54,,,,,,,,,,,,,,397.6220000953763,,response,,,,100,,,,,,,Space,keypress(Space),,,,,,,,-- --- ---- --- ------ ----- ------- ---- -- --- ------- --<br>------- ---------- ------ -- ----- -- ----- -- ---- ------<br>--- ----- --- --- ------ -------- ----- --- ------ ----- --<br>these ----- ---------- --- --- ------ ------ ---- -- ------<br>------- --- ------ ----- --- ---- ------- -- ---- --- --<br>------- ------,213348.80000007153,213347.40000009537,212933.053,212935.80000007153,212949.778,213366.345,,33,these
screen,html.Screen,2_1_1_1_34,2022-02-21T16:07:30.984Z,,,,,,,,,,,,,,,,,54,,,,,,,,,,,,,,416.55500009536627,,response,,,,100,,,,,,,Space,keypress(Space),,,,,,,,-- --- ---- --- ------ ----- ------- ---- -- --- ------- --<br>------- ---------- ------ -- ----- -- ----- -- ---- ------<br>--- ----- --- --- ------ -------- ----- --- ------ ----- --<br>----- bonds ---------- --- --- ------ ------ ---- -- ------<br>------- --- ------ ----- --- ---- ------- -- ---- --- --<br>------- ------,213784.60000002384,213782.90000009537,213349.612,213349,213366.345,213799.565,,34,bonds
screen,html.Screen,2_1_1_1_35,2022-02-21T16:07:31.655Z,,,,,,,,,,,,,,,,,54,,,,,,,,,,,,,,654.3350000953651,,response,,,,100,,,,,,,Space,keypress(Space),,,,,,,,"-- --- ---- --- ------ ----- ------- ---- -- --- ------- --<br>------- ---------- ------ -- ----- -- ----- -- ---- ------<br>--- ----- --- --- ------ -------- ----- --- ------ ----- --<br>----- ----- plummeted, --- --- ------ ------ ---- -- ------<br>------- --- ------ ----- --- ---- ------- -- ---- --- --<br>------- ------",214455.30000007153,214453.90000009537,213782.853,213784.80000007153,213799.565,214466.008,,35,"plummeted,"
screen,html.Screen,2_1_1_1_36,2022-02-21T16:07:32.139Z,,,,,,,,,,,,,,,,,54,,,,,,,,,,,,,,472.29200007152394,,response,,,,100,,,,,,,Space,keypress(Space),,,,,,,,-- --- ---- --- ------ ----- ------- ---- -- --- ------- --<br>------- ---------- ------ -- ----- -- ----- -- ---- ------<br>--- ----- --- --- ------ -------- ----- --- ------ ----- --<br>----- ----- ---------- and --- ------ ------ ---- -- ------<br>------- --- ------ ----- --- ---- ------- -- ---- --- --<br>------- ------,214939.90000009537,214938.30000007153,214449.336,214455.60000002384,214466.008,214949.211,,36,and
screen,html.Screen,2_1_1_1_37,2022-02-21T16:07:32.646Z,,,,,,,,,,,,,,,,,54,,,,,,,,,,,,,,495.28899999998976,,response,,,,100,,,,,,,Space,keypress(Space),,,,,,,,-- --- ---- --- ------ ----- ------- ---- -- --- ------- --<br>------- ---------- ------ -- ----- -- ----- -- ---- ------<br>--- ----- --- --- ------ -------- ----- --- ------ ----- --<br>----- ----- ---------- --- the ------ ------ ---- -- ------<br>------- --- ------ ----- --- ---- ------- -- ---- --- --<br>------- ------,215446.10000002384,215444.5,214932.542,214940.30000007153,214949.211,215449.099,,37,the
screen,html.Screen,2_1_1_1_38,2022-02-21T16:07:33.058Z,,,,,,,,,,,,,,,,,54,,,,,,,,,,,,,,407.30100009538,,response,,,,100,,,,,,,Space,keypress(Space),,,,,,,,-- --- ---- --- ------ ----- ------- ---- -- --- ------- --<br>------- ---------- ------ -- ----- -- ----- -- ---- ------<br>--- ----- --- --- ------ -------- ----- --- ------ ----- --<br>----- ----- ---------- --- --- market ------ ---- -- ------<br>------- --- ------ ----- --- ---- ------- -- ---- --- --<br>------- ------,215858,215856.40000009537,215432.409,215446.40000009537,215449.099,215865.639,,38,market
screen,html.Screen,2_1_1_1_39,2022-02-21T16:07:33.512Z,,,,,,,,,,,,,,,,,54,,,,,,,,,,,,,,445.56100004768814,,response,,,,100,,,,,,,Space,keypress(Space),,,,,,,,-- --- ---- --- ------ ----- ------- ---- -- --- ------- --<br>------- ---------- ------ -- ----- -- ----- -- ---- ------<br>--- ----- --- --- ------ -------- ----- --- ------ ----- --<br>----- ----- ---------- --- --- ------ became ---- -- ------<br>------- --- ------ ----- --- ---- ------- -- ---- --- --<br>------- ------,216312.70000004768,216311.20000004768,215848.992,215858.20000004768,215865.639,216315.549,,39,became
screen,html.Screen,2_1_1_1_40,2022-02-21T16:07:33.917Z,,,,,,,,,,,,,,,,,54,,,,,,,,,,,,,,400.15100004768465,,response,,,,100,,,,,,,Space,keypress(Space),,,,,,,,-- --- ---- --- ------ ----- ------- ---- -- --- ------- --<br>------- ---------- ------ -- ----- -- ----- -- ---- ------<br>--- ----- --- --- ------ -------- ----- --- ------ ----- --<br>----- ----- ---------- --- --- ------ ------ wary -- ------<br>------- --- ------ ----- --- ---- ------- -- ---- --- --<br>------- ------,216717.30000007153,216715.70000004768,216298.998,216313,216315.549,216732.131,,40,wary
screen,html.Screen,2_1_1_1_41,2022-02-21T16:07:34.363Z,,,,,,,,,,,,,,,,,54,,,,,,,,,,,,,,429.7690000953735,,response,,,,100,,,,,,,Space,keypress(Space),,,,,,,,-- --- ---- --- ------ ----- ------- ---- -- --- ------- --<br>------- ---------- ------ -- ----- -- ----- -- ---- ------<br>--- ----- --- --- ------ -------- ----- --- ------ ----- --<br>----- ----- ---------- --- --- ------ ------ ---- of ------<br>------- --- ------ ----- --- ---- ------- -- ---- --- --<br>------- ------,217163.40000009537,217161.90000009537,216715.415,216717.5,216732.131,217165.372,,41,of
screen,html.Screen,2_1_1_1_42,2022-02-21T16:07:34.823Z,,,,,,,,,,,,,,,,,54,,,,,,,,,,,,,,456.5280000953644,,response,,,,100,,,,,,,Space,keypress(Space),,,,,,,,-- --- ---- --- ------ ----- ------- ---- -- --- ------- --<br>------- ---------- ------ -- ----- -- ----- -- ---- ------<br>--- ----- --- --- ------ -------- ----- --- ------ ----- --<br>----- ----- ---------- --- --- ------ ------ ---- -- French<br>------- --- ------ ----- --- ---- ------- -- ---- --- --<br>------- ------,217623.40000009537,217621.90000009537,217148.652,217163.70000004768,217165.372,217631.846,,42,French
screen,html.Screen,2_1_1_1_43,2022-02-21T16:07:35.220Z,,,,,,,,,,,,,,,,,54,,,,,,,,,,,,,,386.554000095377,,response,,,,100,,,,,,,Space,keypress(Space),,,,,,,,-- --- ---- --- ------ ----- ------- ---- -- --- ------- --<br>------- ---------- ------ -- ----- -- ----- -- ---- ------<br>--- ----- --- --- ------ -------- ----- --- ------ ----- --<br>----- ----- ---------- --- --- ------ ------ ---- -- ------<br>credit. --- ------ ----- --- ---- ------- -- ---- --- --<br>------- ------,218020.10000002384,218018.40000009537,217615.185,217623.70000004768,217631.846,218031.745,,43,credit.
screen,html.Screen,2_1_1_1_44,2022-02-21T16:07:35.620Z,,,,,,,,,,,,,,,,,54,,,,,,,,,,,,,,387.3550000238465,,response,,,,100,,,,,,,Space,keypress(Space),,,,,,,,-- --- ---- --- ------ ----- ------- ---- -- --- ------- --<br>------- ---------- ------ -- ----- -- ----- -- ---- ------<br>--- ----- --- --- ------ -------- ----- --- ------ ----- --<br>----- ----- ---------- --- --- ------ ------ ---- -- ------<br>------- The ------ ----- --- ---- ------- -- ---- --- --<br>------- ------,218420.40000009537,218419.10000002384,218015.081,218020.5,218031.745,218431.643,,44,The
screen,html.Screen,2_1_1_1_45,2022-02-21T16:07:35.946Z,,,,,,,,,,,,,,,,,54,,,,,,,,,,,,,,312.4570000238309,,response,,,,100,,,,,,,Space,keypress(Space),,,,,,,,-- --- ---- --- ------ ----- ------- ---- -- --- ------- --<br>------- ---------- ------ -- ----- -- ----- -- ---- ------<br>--- ----- --- --- ------ -------- ----- --- ------ ----- --<br>----- ----- ---------- --- --- ------ ------ ---- -- ------<br>------- --- French ----- --- ---- ------- -- ---- --- --<br>------- ------,218746,218744.10000002384,218414.983,218420.60000002384,218431.643,218769.426,,45,French
screen,html.Screen,2_1_1_1_46,2022-02-21T16:07:36.382Z,,,,,,,,,,,,,,,,,54,,,,,,,,,,,,,,411.6740000238351,,response,,,,100,,,,,,,Space,keypress(Space),,,,,,,,-- --- ---- --- ------ ----- ------- ---- -- --- ------- --<br>------- ---------- ------ -- ----- -- ----- -- ---- ------<br>--- ----- --- --- ------ -------- ----- --- ------ ----- --<br>----- ----- ---------- --- --- ------ ------ ---- -- ------<br>------- --- ------ state --- ---- ------- -- ---- --- --<br>------- ------,219182.70000004768,219181.10000002384,218731.574,218746.5,218769.426,219198.166,,46,state
screen,html.Screen,2_1_1_1_47,2022-02-21T16:07:36.851Z,,,,,,,,,,,,,,,,,54,,,,,,,,,,,,,,451.4340000238444,,response,,,,100,,,,,,,Space,keypress(Space),,,,,,,,-- --- ---- --- ------ ----- ------- ---- -- --- ------- --<br>------- ---------- ------ -- ----- -- ----- -- ---- ------<br>--- ----- --- --- ------ -------- ----- --- ------ ----- --<br>----- ----- ---------- --- --- ------ ------ ---- -- ------<br>------- --- ------ ----- was ---- ------- -- ---- --- --<br>------- ------,219651.10000002384,219649.60000002384,219181.464,219182.90000009537,219198.166,219664.736,,47,was
screen,html.Screen,2_1_1_1_48,2022-02-21T16:07:37.246Z,,,,,,,,,,,,,,,,,54,,,,,,,,,,,,,,379.9640000476793,,response,,,,100,,,,,,,Space,keypress(Space),,,,,,,,-- --- ---- --- ------ ----- ------- ---- -- --- ------- --<br>------- ---------- ------ -- ----- -- ----- -- ---- ------<br>--- ----- --- --- ------ -------- ----- --- ------ ----- --<br>----- ----- ---------- --- --- ------ ------ ---- -- ------<br>------- --- ------ ----- --- left ------- -- ---- --- --<br>------- ------,220046.70000004768,220044.70000004768,219647.986,219651.40000009537,219664.736,220081.325,,48,left
screen,html.Screen,2_1_1_1_49,2022-02-21T16:07:37.570Z,,,,,,,,,,,,,,,,,54,,,,,,,,,,,,,,287.5750000953558,,response,,,,100,,,,,,,Space,keypress(Space),,,,,,,,-- --- ---- --- ------ ----- ------- ---- -- --- ------- --<br>------- ---------- ------ -- ----- -- ----- -- ---- ------<br>--- ----- --- --- ------ -------- ----- --- ------ ----- --<br>----- ----- ---------- --- --- ------ ------ ---- -- ------<br>------- --- ------ ----- --- ---- without -- ---- --- --<br>------- ------,220370.5,220368.90000009537,220071.322,220046.90000009537,220081.325,220381.177,,49,without
screen,html.Screen,2_1_1_1_50,2022-02-21T16:07:37.943Z,,,,,,,,,,,,,,,,,54,,,,,,,,,,,,,,360.32300000000396,,response,,,,100,,,,,,,Space,keypress(Space),,,,,,,,-- --- ---- --- ------ ----- ------- ---- -- --- ------- --<br>------- ---------- ------ -- ----- -- ----- -- ---- ------<br>--- ----- --- --- ------ -------- ----- --- ------ ----- --<br>----- ----- ---------- --- --- ------ ------ ---- -- ------<br>------- --- ------ ----- --- ---- ------- an ---- --- --<br>------- ------,220743.40000009537,220741.5,220364.476,220370.70000004768,220381.177,220747.709,,50,an
screen,html.Screen,2_1_1_1_51,2022-02-21T16:07:38.345Z,,,,,,,,,,,,,,,,,54,,,,,,,,,,,,,,396.69100009536487,,response,,,,100,,,,,,,Space,keypress(Space),,,,,,,,-- --- ---- --- ------ ----- ------- ---- -- --- ------- --<br>------- ---------- ------ -- ----- -- ----- -- ---- ------<br>--- ----- --- --- ------ -------- ----- --- ------ ----- --<br>----- ----- ---------- --- --- ------ ------ ---- -- ------<br>------- --- ------ ----- --- ---- ------- -- easy --- --<br>------- ------,221145.70000004768,221144.40000009537,220731.057,220743.70000004768,220747.709,221147.628,,51,easy
screen,html.Screen,2_1_1_1_52,2022-02-21T16:07:38.796Z,,,,,,,,,,,,,,,,,54,,,,,,,,,,,,,,447.57200004768674,,response,,,,100,,,,,,,Space,keypress(Space),,,,,,,,-- --- ---- --- ------ ----- ------- ---- -- --- ------- --<br>------- ---------- ------ -- ----- -- ----- -- ---- ------<br>--- ----- --- --- ------ -------- ----- --- ------ ----- --<br>----- ----- ---------- --- --- ------ ------ ---- -- ------<br>------- --- ------ ----- --- ---- ------- -- ---- way --<br>------- ------,221596.70000004768,221595.20000004768,221130.936,221145.90000009537,221147.628,221614.217,,52,way
screen,html.Screen,2_1_1_1_53,2022-02-21T16:07:39.283Z,,,,,,,,,,,,,,,,,54,,,,,,,,,,,,,,465.4830000476795,,response,,,,100,,,,,,,Space,keypress(Space),,,,,,,,-- --- ---- --- ------ ----- ------- ---- -- --- ------- --<br>------- ---------- ------ -- ----- -- ----- -- ---- ------<br>--- ----- --- --- ------ -------- ----- --- ------ ----- --<br>----- ----- ---------- --- --- ------ ------ ---- -- ------<br>------- --- ------ ----- --- ---- ------- -- ---- --- of<br>------- ------,222083.30000007153,222079.70000004768,221597.491,221597,221614.217,222097.396,,53,of
screen,html.Screen,2_1_1_1_54,2022-02-21T16:07:39.688Z,,,,,,,,,,,,,,,,,54,,,,,,,,,,,,,,389.3040000476758,,response,,,,100,,,,,,,Space,keypress(Space),,,,,,,,-- --- ---- --- ------ ----- ------- ---- -- --- ------- --<br>------- ---------- ------ -- ----- -- ----- -- ---- ------<br>--- ----- --- --- ------ -------- ----- --- ------ ----- --<br>----- ----- ---------- --- --- ------ ------ ---- -- ------<br>------- --- ------ ----- --- ---- ------- -- ---- --- --<br>raising ------,222488.60000002384,222486.70000004768,222080.709,222083.60000002384,222097.396,222497.273,,54,raising
screen,html.Screen,2_1_1_1_55,2022-02-21T16:07:40.477Z,,,,,,,,,,,,,,,,,54,,,,,,,,,,,,,,778.6270000953809,,response,,,,100,,,,,,,Space,keypress(Space),,,,,,,,-- --- ---- --- ------ ----- ------- ---- -- --- ------- --<br>------- ---------- ------ -- ----- -- ----- -- ---- ------<br>--- ----- --- --- ------ -------- ----- --- ------ ----- --<br>----- ----- ---------- --- --- ------ ------ ---- -- ------<br>------- --- ------ ----- --- ---- ------- -- ---- --- --<br>------- money.,223277.30000007153,223275.90000009537,222480.617,222489,222497.273,223280.412,,55,money.
Item 100,flow.Loop,2_1_1_1,2022-02-21T16:07:40.477Z,,,,,,,,,,,,,,,,,,,,,,,,,,,,,,,27838.111000095378,,completion,,,,,D,,,,,,,,,,,silence,,,,,223277.80000007153,223275.90000009537,195421.058,195422.30000007153,195437.789,223280.412,,,
Question 1,html.Screen,2_1_1_2,2022-02-21T16:07:43.743Z,,,,,,,,,,,,,,,,,,,,,,,,,,,,true,TRUE,,3261.2880000476725,,response,,,,100,D,,,,,,TRUE,click #choice-1,,,,silence,,,,,226543.90000009537,226541.70000004768,223263.72,223278,223280.412,226546.268,,,
Question 2,html.Screen,2_1_1_3,2022-02-21T16:07:46.196Z,,,,,,,,,,,,,,,,,,,,,,,,,,,,true,FALSE,,2447.332000023831,,response,,,,100,D,,,,,,FALSE,click #choice-2,,,,silence,,,,,228996.10000002384,228993.60000002384,226529.704,226544.30000007153,226546.268,229027.792,,,
Item 100,flow.Sequence,2_1_1,2022-02-21T16:07:46.197Z,,,,,,,,,,,,,,,,,,,,,,,,,,,,,,,43553.395000023855,,completion,,,,,,,,,,,,,,,,,,,,,228997.30000007153,228993.60000002384,185423.531,185436.90000009537,185440.205,229027.792,,,
End of Practice,html.Page,2_1_2,2022-02-21T16:07:49.795Z,,,,,,,,,,,,,,,,,,,,,,,,,,,,,,,3566.308000023855,,form submission,,,,,,,,,,,,,,,,,,,,,232595.60000002384,232594.10000002384,228979.017,228997.60000002384,229027.792,232594.665,,,
Practice,flow.Sequence,2_1,2022-02-21T16:07:49.796Z,,,,,,,,,,,,,,,,,,,,,,,,,,,,,,,97774.18600002385,,completion,,,,,,,,,,,,,,,,,,,,,232596.40000009537,232594.10000002384,134786.614,134805,134819.914,232594.665,,,
Trap_instruction,html.Page,2_2_0,2022-02-21T16:07:53.398Z,,,,,,,,,,,,,,,,,,,,,,,,,,,,,,,3602.5350000476756,,form submission,,,,,,,,,,,,,,,,,,,,,236198.10000002384,236197.20000004768,232578.024,232596.70000004768,232594.665,236243.721,,,
trap_trial,html.Screen,2_2_1,2022-02-21T16:07:56.260Z,,,,,,,,,,,,,,,,,,,,,,,,,,,,true,1,,2813.9790000476933,,response,,,,,,,,,,,1,click #choice-1,,,,,,,,,239060.30000007153,239057.70000004768,236193.866,236198.90000009537,236243.721,239077.217,,,
end of trap trial,html.Page,2_2_2,2022-02-21T16:07:57.925Z,,,,,,,,,,,,,,,,,,,,,,,,,,,,,,,1647.5830000715214,,form submission,,,,,,,,,,,,,,,,,,,,,240725.80000007153,240724.80000007153,239043.13,239061.10000002384,239077.217,240725.908,,,
Trap 1,flow.Sequence,2_2,2022-02-21T16:07:57.929Z,,,,,,,,,,,,,,,,,,,,,,,,,,,,,,,8130.135000071517,,completion,,,,,,,,,,,,,,,,,,,,,240729.10000002384,240724.80000007153,232578.024,232596.60000002384,232594.665,240725.908,,,
Standby,html.Page,2_3_0,2022-02-21T16:08:05.915Z,,,,,,,,,,,,,,,,,,,,,,,,,,,,,,,7997.989999999991,,timeout,,,,,,,,,,,,,,,,,,,,,248708.40000009537,248707.33,240709.302,240729.60000002384,240725.908,248723.898,,,
Holding screen,html.Screen,2_3_1_0_0,2022-02-21T16:08:12.913Z,,,,,,,,,,,,,,,,,,,,,,,,,,,,,,,6998.203000000009,,timeout,,,,,,,,,,,,,,,,,,,,,255706.5,255705.456,248707.33,248708.80000007153,248723.898,255722.101,,,
screen,html.Screen,2_3_1_0_1_0,2022-02-21T16:08:14.535Z,,,,,,,,,,,,,,,,,51,,,,,,,,,,,,,,1604.4990000238467,,response,,,,13,D,,,,,,Space,keypress(Space),,,,silence,,,,American -------- --- --- ---- --- --- ------ -- --------<br>---- --------- --- ------- ------------ ---------- ---------<br>--- ---------- ------- ---------- ------- -- -------- ----<br>---- --- ------ ----- ------ -- ---- --- ----- -- - -------<br>-------- -- --- --- -- ----- ----------- ----- -----------<br>---- --- ---------- --- ---- --- -- ----------,257328.30000007153,257326.60000002384,255705.456,255706.90000009537,255722.101,257338.314,,0,American
screen,html.Screen,2_3_1_0_1_1,2022-02-21T16:08:15.251Z,,,,,,,,,,,,,,,,,51,,,,,,,,,,,,,,704.5860000953544,,response,,,,13,D,,,,,,Space,keypress(Space),,,,silence,,,,-------- industry --- --- ---- --- --- ------ -- --------<br>---- --------- --- ------- ------------ ---------- ---------<br>--- ---------- ------- ---------- ------- -- -------- ----<br>---- --- ------ ----- ------ -- ---- --- ----- -- - -------<br>-------- -- --- --- -- ----- ----------- ----- -----------<br>---- --- ---------- --- ---- --- -- ----------,258044.40000009537,258042.90000009537,257321.661,257328.60000002384,257338.314,258054.805,,1,industry
screen,html.Screen,2_3_1_0_1_2,2022-02-21T16:08:15.972Z,,,,,,,,,,,,,,,,,51,,,,,,,,,,,,,,708.5950000953744,,response,,,,13,D,,,,,,Space,keypress(Space),,,,silence,,,,-------- -------- may --- ---- --- --- ------ -- --------<br>---- --------- --- ------- ------------ ---------- ---------<br>--- ---------- ------- ---------- ------- -- -------- ----<br>---- --- ------ ----- ------ -- ---- --- ----- -- - -------<br>-------- -- --- --- -- ----- ----------- ----- -----------<br>---- --- ---------- --- ---- --- -- ----------,258765.10000002384,258763.40000009537,258038.214,258044.70000004768,258054.805,258771.266,,2,may
screen,html.Screen,2_3_1_0_1_3,2022-02-21T16:08:16.583Z,,,,,,,,,,,,,,,,,51,,,,,,,,,,,,,,604.0340000715223,,response,,,,13,D,,,,,,Space,keypress(Space),,,,silence,,,,-------- -------- --- not ---- --- --- ------ -- --------<br>---- --------- --- ------- ------------ ---------- ---------<br>--- ---------- ------- ---------- ------- -- -------- ----<br>---- --- ------ ----- ------ -- ---- --- ----- -- - -------<br>-------- -- --- --- -- ----- ----------- ----- -----------<br>---- --- ---------- --- ---- --- -- ----------,259376.60000002384,259375.30000007153,258754.696,258765.40000009537,258771.266,259387.783,,3,not
screen,html.Screen,2_3_1_0_1_4,2022-02-21T16:08:18.105Z,,,,,,,,,,,,,,,,,51,,,,,,,,,,,,,,1508.817000023846,,response,,,,13,D,,,,,,Space,keypress(Space),,,,silence,,,,-------- -------- --- --- know --- --- ------ -- --------<br>---- --------- --- ------- ------------ ---------- ---------<br>--- ---------- ------- ---------- ------- -- -------- ----<br>---- --- ------ ----- ------ -- ---- --- ----- -- - -------<br>-------- -- --- --- -- ----- ----------- ----- -----------<br>---- --- ---------- --- ---- --- -- ----------,260897.90000009537,260896.60000002384,259371.254,259376.80000007153,259387.783,260904.018,,4,know
screen,html.Screen,2_3_1_0_1_5,2022-02-21T16:08:18.968Z,,,,,,,,,,,,,,,,,51,,,,,,,,,,,,,,855.6820000476728,,response,,,,13,D,,,,,,Space,keypress(Space),,,,silence,,,,"-------- -------- --- --- ---- it, --- ------ -- --------<br>---- --------- --- ------- ------------ ---------- ---------<br>--- ---------- ------- ---------- ------- -- -------- ----<br>---- --- ------ ----- ------ -- ---- --- ----- -- - -------<br>-------- -- --- --- -- ----- ----------- ----- -----------<br>---- --- ---------- --- ---- --- -- ----------",261760.90000009537,261759.70000004768,260887.462,260898.20000004768,260904.018,261770.606,,5,"it,"
screen,html.Screen,2_3_1_0_1_6,2022-02-21T16:08:20.777Z,,,,,,,,,,,,,,,,,51,,,,,,,,,,,,,,1798.7940000953677,,response,,,,13,D,,,,,,Space,keypress(Space),,,,silence,,,,-------- -------- --- --- ---- --- but ------ -- --------<br>---- --------- --- ------- ------------ ---------- ---------<br>--- ---------- ------- ---------- ------- -- -------- ----<br>---- --- ------ ----- ------ -- ---- --- ----- -- - -------<br>-------- -- --- --- -- ----- ----------- ----- -----------<br>---- --- ---------- --- ---- --- -- ----------,263570.7000000477,263569.40000009537,261753.935,261761.20000004768,261770.606,263586.725,,6,but
screen,html.Screen,2_3_1_0_1_7,2022-02-21T16:08:21.266Z,,,,,,,,,,,,,,,,,51,,,,,,,,,,,,,,471.6750000953907,,response,,,,13,D,,,,,,Space,keypress(Space),,,,silence,,,,-------- -------- --- --- ---- --- --- debate -- --------<br>---- --------- --- ------- ------------ ---------- ---------<br>--- ---------- ------- ---------- ------- -- -------- ----<br>---- --- ------ ----- ------ -- ---- --- ----- -- - -------<br>-------- -- --- --- -- ----- ----------- ----- -----------<br>---- --- ---------- --- ---- --- -- ----------,264059.7000000477,264058.40000009537,263570.129,263570.90000009537,263586.725,264070.06,,7,debate
screen,html.Screen,2_3_1_0_1_8,2022-02-21T16:08:21.967Z,,,,,,,,,,,,,,,,,51,,,,,,,,,,,,,,689.3400000953698,,response,,,,13,D,,,,,,Space,keypress(Space),,,,silence,,,,-------- -------- --- --- ---- --- --- ------ in --------<br>---- --------- --- ------- ------------ ---------- ---------<br>--- ---------- ------- ---------- ------- -- -------- ----<br>---- --- ------ ----- ------ -- ---- --- ----- -- - -------<br>-------- -- --- --- -- ----- ----------- ----- -----------<br>---- --- ---------- --- ---- --- -- ----------,264760.7000000477,264759.40000009537,264053.292,264060,264070.06,264769.713,,8,in
screen,html.Screen,2_3_1_0_1_9,2022-02-21T16:08:22.622Z,,,,,,,,,,,,,,,,,51,,,,,,,,,,,,,,644.2870000000112,,response,,,,13,D,,,,,,Space,keypress(Space),,,,silence,,,,-------- -------- --- --- ---- --- --- ------ -- Congress<br>---- --------- --- ------- ------------ ---------- ---------<br>--- ---------- ------- ---------- ------- -- -------- ----<br>---- --- ------ ----- ------ -- ---- --- ----- -- - -------<br>-------- -- --- --- -- ----- ----------- ----- -----------<br>---- --- ---------- --- ---- --- -- ----------,265415.40000009537,265414,264753.163,264761,264769.713,265419.531,,9,Congress
screen,html.Screen,2_3_1_0_1_10,2022-02-21T16:08:23.065Z,,,,,,,,,,,,,,,,,51,,,,,,,,,,,,,,437.1690000476665,,response,,,,13,D,,,,,,Space,keypress(Space),,,,silence,,,,-------- -------- --- --- ---- --- --- ------ -- --------<br>over --------- --- ------- ------------ ---------- ---------<br>--- ---------- ------- ---------- ------- -- -------- ----<br>---- --- ------ ----- ------ -- ---- --- ----- -- - -------<br>-------- -- --- --- -- ----- ----------- ----- -----------<br>---- --- ---------- --- ---- --- -- ----------,265858,265856.7000000477,265402.989,265415.8000000715,265419.531,265869.552,,10,over
screen,html.Screen,2_3_1_0_1_11,2022-02-21T16:08:23.569Z,,,,,,,,,,,,,,,,,51,,,,,,,,,,,,,,490.64800004765857,,response,,,,13,D,,,,,,Space,keypress(Space),,,,silence,,,,-------- -------- --- --- ---- --- --- ------ -- --------<br>---- reforming --- ------- ------------ ---------- ---------<br>--- ---------- ------- ---------- ------- -- -------- ----<br>---- --- ------ ----- ------ -- ---- --- ----- -- - -------<br>-------- -- --- --- -- ----- ----------- ----- -----------<br>---- --- ---------- --- ---- --- -- ----------,266362.10000002384,266360.2000000477,265852.877,265858.3000000715,265869.552,266369.272,,11,reforming
screen,html.Screen,2_3_1_0_1_12,2022-02-21T16:08:24.074Z,,,,,,,,,,,,,,,,,51,,,,,,,,,,,,,,496.2280000000028,,response,,,,13,D,,,,,,Space,keypress(Space),,,,silence,,,,-------- -------- --- --- ---- --- --- ------ -- --------<br>---- --------- the ------- ------------ ---------- ---------<br>--- ---------- ------- ---------- ------- -- -------- ----<br>---- --- ------ ----- ------ -- ---- --- ----- -- - -------<br>-------- -- --- --- -- ----- ----------- ----- -----------<br>---- --- ---------- --- ---- --- -- ----------,266867,266865.5,266352.647,266362.5,266369.272,266869.162,,12,the
screen,html.Screen,2_3_1_0_1_13,2022-02-21T16:08:24.727Z,,,,,,,,,,,,,,,,,51,,,,,,,,,,,,,,649.9380000238307,,response,,,,13,D,,,,,,Space,keypress(Space),,,,silence,,,,-------- -------- --- --- ---- --- --- ------ -- --------<br>---- --------- --- federal ------------ ---------- ---------<br>--- ---------- ------- ---------- ------- -- -------- ----<br>---- --- ------ ----- ------ -- ---- --- ----- -- - -------<br>-------- -- --- --- -- ----- ----------- ----- -----------<br>---- --- ---------- --- ---- --- -- ----------,267520.60000002384,267519.10000002384,266852.602,266867.3000000715,266869.162,267535.8,,13,federal
screen,html.Screen,2_3_1_0_1_14,2022-02-21T16:08:25.241Z,,,,,,,,,,,,,,,,,51,,,,,,,,,,,,,,497.0000000715372,,response,,,,13,D,,,,,,Space,keypress(Space),,,,silence,,,,-------- -------- --- --- ---- --- --- ------ -- --------<br>---- --------- --- ------- government's ---------- ---------<br>--- ---------- ------- ---------- ------- -- -------- ----<br>---- --- ------ ----- ------ -- ---- --- ----- -- - -------<br>-------- -- --- --- -- ----- ----------- ----- -----------<br>---- --- ---------- --- ---- --- -- ----------,268034.3000000715,268032.8000000715,267519.013,267520.8000000715,267535.8,268053.603,,14,government's
screen,html.Screen,2_3_1_0_1_15,2022-02-21T16:08:25.999Z,,,,,,,,,,,,,,,,,51,,,,,,,,,,,,,,737.0970000476809,,response,,,,13,D,,,,,,Space,keypress(Space),,,,silence,,,,-------- -------- --- --- ---- --- --- ------ -- --------<br>---- --------- --- ------- ------------ regulatory ---------<br>--- ---------- ------- ---------- ------- -- -------- ----<br>---- --- ------ ----- ------ -- ---- --- ----- -- - -------<br>-------- -- --- --- -- ----- ----------- ----- -----------<br>---- --- ---------- --- ---- --- -- ----------,268792.2000000477,268790.7000000477,268019.074,268034.5,268053.603,268802.143,,15,regulatory
screen,html.Screen,2_3_1_0_1_16,2022-02-21T16:08:26.909Z,,,,,,,,,,,,,,,,,51,,,,,,,,,,,,,,899.0570000477019,,response,,,,13,D,,,,,,Space,keypress(Space),,,,silence,,,,-------- -------- --- --- ---- --- --- ------ -- --------<br>---- --------- --- ------- ------------ ---------- apparatus<br>--- ---------- ------- ---------- ------- -- -------- ----<br>---- --- ------ ----- ------ -- ---- --- ----- -- - -------<br>-------- -- --- --- -- ----- ----------- ----- -----------<br>---- --- ---------- --- ---- --- -- ----------,269702.7000000477,269701.2000000477,268785.44,268792.40000009537,268802.143,269718.615,,16,apparatus
screen,html.Screen,2_3_1_0_1_17,2022-02-21T16:08:27.401Z,,,,,,,,,,,,,,,,,51,,,,,,,,,,,,,,474.78500009537674,,response,,,,13,D,,,,,,Space,keypress(Space),,,,silence,,,,-------- -------- --- --- ---- --- --- ------ -- --------<br>---- --------- --- ------- ------------ ---------- ---------<br>may ---------- ------- ---------- ------- -- -------- ----<br>---- --- ------ ----- ------ -- ---- --- ----- -- - -------<br>-------- -- --- --- -- ----- ----------- ----- -----------<br>---- --- ---------- --- ---- --- -- ----------,270194.90000009537,270193.40000009537,269701.871,269702.90000009537,269718.615,270201.692,,17,may
screen,html.Screen,2_3_1_0_1_18,2022-02-21T16:08:28.353Z,,,,,,,,,,,,,,,,,51,,,,,,,,,,,,,,943.3080000000191,,response,,,,13,D,,,,,,Space,keypress(Space),,,,silence,,,,-------- -------- --- --- ---- --- --- ------ -- --------<br>---- --------- --- ------- ------------ ---------- ---------<br>--- profoundly ------- ---------- ------- -- -------- ----<br>---- --- ------ ----- ------ -- ---- --- ----- -- - -------<br>-------- -- --- --- -- ----- ----------- ----- -----------<br>---- --- ---------- --- ---- --- -- ----------,271146.60000002384,271145,270185.083,270195.10000002384,270201.692,271151.392,,18,profoundly
screen,html.Screen,2_3_1_0_1_19,2022-02-21T16:08:28.928Z,,,,,,,,,,,,,,,,,51,,,,,,,,,,,,,,567.908000071533,,response,,,,13,D,,,,,,Space,keypress(Space),,,,silence,,,,-------- -------- --- --- ---- --- --- ------ -- --------<br>---- --------- --- ------- ------------ ---------- ---------<br>--- ---------- improve ---------- ------- -- -------- ----<br>---- --- ------ ----- ------ -- ---- --- ----- -- - -------<br>-------- -- --- --- -- ----- ----------- ----- -----------<br>---- --- ---------- --- ---- --- -- ----------,271721,271719.3000000715,271134.83,271146.8000000715,271151.392,271734.588,,19,improve
screen,html.Screen,2_3_1_0_1_20,2022-02-21T16:08:29.644Z,,,,,,,,,,,,,,,,,51,,,,,,,,,,,,,,701.8120000953786,,response,,,,13,D,,,,,,Space,keypress(Space),,,,silence,,,,-------- -------- --- --- ---- --- --- ------ -- --------<br>---- --------- --- ------- ------------ ---------- ---------<br>--- ---------- ------- companies' ------- -- -------- ----<br>---- --- ------ ----- ------ -- ---- --- ----- -- - -------<br>-------- -- --- --- -- ----- ----------- ----- -----------<br>---- --- ---------- --- ---- --- -- ----------,272437.90000009537,272436.40000009537,271717.902,271721.2000000477,271734.588,272451.193,,20,companies'
screen,html.Screen,2_3_1_0_1_21,2022-02-21T16:08:30.387Z,,,,,,,,,,,,,,,,,51,,,,,,,,,,,,,,727.6070000714972,,response,,,,13,D,,,,,,Space,keypress(Space),,,,silence,,,,-------- -------- --- --- ---- --- --- ------ -- --------<br>---- --------- --- ------- ------------ ---------- ---------<br>--- ---------- ------- ---------- ability -- -------- ----<br>---- --- ------ ----- ------ -- ---- --- ----- -- - -------<br>-------- -- --- --- -- ----- ----------- ----- -----------<br>---- --- ---------- --- ---- --- -- ----------,273180.3000000715,273178.8000000715,272434.418,272438.10000002384,272451.193,273184.215,,21,ability
screen,html.Screen,2_3_1_0_1_22,2022-02-21T16:08:31.082Z,,,,,,,,,,,,,,,,,51,,,,,,,,,,,,,,689.6850000953418,,response,,,,13,D,,,,,,Space,keypress(Space),,,,silence,,,,-------- -------- --- --- ---- --- --- ------ -- --------<br>---- --------- --- ------- ------------ ---------- ---------<br>--- ---------- ------- ---------- ------- to -------- ----<br>---- --- ------ ----- ------ -- ---- --- ----- -- - -------<br>-------- -- --- --- -- ----- ----------- ----- -----------<br>---- --- ---------- --- ---- --- -- ----------,273875.40000009537,273873.90000009537,273167.501,273180.60000002384,273184.215,273883.998,,22,to
screen,html.Screen,2_3_1_0_1_23,2022-02-21T16:08:32.675Z,,,,,,,,,,,,,,,,,51,,,,,,,,,,,,,,1582.902000095346,,response,,,,13,D,,,,,,Space,keypress(Space),,,,silence,,,,-------- -------- --- --- ---- --- --- ------ -- --------<br>---- --------- --- ------- ------------ ---------- ---------<br>--- ---------- ------- ---------- ------- -- survive. ----<br>---- --- ------ ----- ------ -- ---- --- ----- -- - -------<br>-------- -- --- --- -- ----- ----------- ----- -----------<br>---- --- ---------- --- ---- --- -- ----------,275468.7000000477,275466.90000009537,273867.466,273875.7000000477,273883.998,275483.645,,23,survive.
screen,html.Screen,2_3_1_0_1_24,2022-02-21T16:08:33.149Z,,,,,,,,,,,,,,,,,51,,,,,,,,,,,,,,457.15500007150695,,response,,,,13,D,,,,,,Space,keypress(Space),,,,silence,,,,-------- -------- --- --- ---- --- --- ------ -- --------<br>---- --------- --- ------- ------------ ---------- ---------<br>--- ---------- ------- ---------- ------- -- -------- This<br>---- --- ------ ----- ------ -- ---- --- ----- -- - -------<br>-------- -- --- --- -- ----- ----------- ----- -----------<br>---- --- ---------- --- ---- --- -- ----------,275942.3000000715,275940.8000000715,275467.02,275469,275483.645,275950.222,,24,This
screen,html.Screen,2_3_1_0_1_25,2022-02-21T16:08:34.100Z,,,,,,,,,,,,,,,,,51,,,,,,,,,,,,,,941.4780000476749,,response,,,,13,D,,,,,,Space,keypress(Space),,,,silence,,,,-------- -------- --- --- ---- --- --- ------ -- --------<br>---- --------- --- ------- ------------ ---------- ---------<br>--- ---------- ------- ---------- ------- -- -------- ----<br>week --- ------ ----- ------ -- ---- --- ----- -- - -------<br>-------- -- --- --- -- ----- ----------- ----- -----------<br>---- --- ---------- --- ---- --- -- ----------,276893.3000000715,276891.7000000477,275933.489,275942.60000002384,275950.222,276899.896,,25,week
screen,html.Screen,2_3_1_0_1_26,2022-02-21T16:08:34.566Z,,,,,,,,,,,,,,,,,51,,,,,,,,,,,,,,458.0040000953595,,response,,,,13,D,,,,,,Space,keypress(Space),,,,silence,,,,-------- -------- --- --- ---- --- --- ------ -- --------<br>---- --------- --- ------- ------------ ---------- ---------<br>--- ---------- ------- ---------- ------- -- -------- ----<br>---- the ------ ----- ------ -- ---- --- ----- -- - -------<br>-------- -- --- --- -- ----- ----------- ----- -----------<br>---- --- ---------- --- ---- --- -- ----------,277359.40000009537,277357.90000009537,276883.326,276893.5,276899.896,277366.465,,26,the
screen,html.Screen,2_3_1_0_1_27,2022-02-21T16:08:35.076Z,,,,,,,,,,,,,,,,,51,,,,,,,,,,,,,,501.83500007149996,,response,,,,13,D,,,,,,Space,keypress(Space),,,,silence,,,,-------- -------- --- --- ---- --- --- ------ -- --------<br>---- --------- --- ------- ------------ ---------- ---------<br>--- ---------- ------- ---------- ------- -- -------- ----<br>---- --- Senate ----- ------ -- ---- --- ----- -- - -------<br>-------- -- --- --- -- ----- ----------- ----- -----------<br>---- --- ---------- --- ---- --- -- ----------,277869.7000000477,277868.3000000715,277349.855,277359.7000000477,277366.465,277883.132,,27,Senate
screen,html.Screen,2_3_1_0_1_28,2022-02-21T16:08:35.474Z,,,,,,,,,,,,,,,,,51,,,,,,,,,,,,,,382.86800000001676,,response,,,,13,D,,,,,,Space,keypress(Space),,,,silence,,,,-------- -------- --- --- ---- --- --- ------ -- --------<br>---- --------- --- ------- ------------ ---------- ---------<br>--- ---------- ------- ---------- ------- -- -------- ----<br>---- --- ------ seems ------ -- ---- --- ----- -- - -------<br>-------- -- --- --- -- ----- ----------- ----- -----------<br>---- --- ---------- --- ---- --- -- ----------,278267.40000009537,278266,277866.436,277869.90000009537,277883.132,278283.025,,28,seems
screen,html.Screen,2_3_1_0_1_29,2022-02-21T16:08:35.903Z,,,,,,,,,,,,,,,,,51,,,,,,,,,,,,,,411.37500009534415,,response,,,,13,D,,,,,,Space,keypress(Space),,,,silence,,,,-------- -------- --- --- ---- --- --- ------ -- --------<br>---- --------- --- ------- ------------ ---------- ---------<br>--- ---------- ------- ---------- ------- -- -------- ----<br>---- --- ------ ----- poised -- ---- --- ----- -- - -------<br>-------- -- --- --- -- ----- ----------- ----- -----------<br>---- --- ---------- --- ---- --- -- ----------,278696,278694.40000009537,278266.221,278267.60000002384,278283.025,278699.466,,29,poised
screen,html.Screen,2_3_1_0_1_30,2022-02-21T16:08:36.291Z,,,,,,,,,,,,,,,,,51,,,,,,,,,,,,,,383.7340000476688,,response,,,,13,D,,,,,,Space,keypress(Space),,,,silence,,,,-------- -------- --- --- ---- --- --- ------ -- --------<br>---- --------- --- ------- ------------ ---------- ---------<br>--- ---------- ------- ---------- ------- -- -------- ----<br>---- --- ------ ----- ------ to ---- --- ----- -- - -------<br>-------- -- --- --- -- ----- ----------- ----- -----------<br>---- --- ---------- --- ---- --- -- ----------,279084.60000002384,279083.2000000477,278682.796,278696.3000000715,278699.466,279099.517,,30,to
screen,html.Screen,2_3_1_0_1_31,2022-02-21T16:08:36.709Z,,,,,,,,,,,,,,,,,51,,,,,,,,,,,,,,401.283000071533,,response,,,,13,D,,,,,,Space,keypress(Space),,,,silence,,,,-------- -------- --- --- ---- --- --- ------ -- --------<br>---- --------- --- ------- ------------ ---------- ---------<br>--- ---------- ------- ---------- ------- -- -------- ----<br>---- --- ------ ----- ------ -- join --- ----- -- - -------<br>-------- -- --- --- -- ----- ----------- ----- -----------<br>---- --- ---------- --- ---- --- -- ----------,279502.40000009537,279500.8000000715,279082.789,279084.90000009537,279099.517,279516.088,,31,join
screen,html.Screen,2_3_1_0_1_32,2022-02-21T16:08:37.054Z,,,,,,,,,,,,,,,,,51,,,,,,,,,,,,,,330.3120000953786,,response,,,,13,D,,,,,,Space,keypress(Space),,,,silence,,,,-------- -------- --- --- ---- --- --- ------ -- --------<br>---- --------- --- ------- ------------ ---------- ---------<br>--- ---------- ------- ---------- ------- -- -------- ----<br>---- --- ------ ----- ------ -- ---- the ----- -- - -------<br>-------- -- --- --- -- ----- ----------- ----- -----------<br>---- --- ---------- --- ---- --- -- ----------,279847.8000000715,279846.40000009537,279499.343,279502.60000002384,279516.088,279866.861,,32,the
screen,html.Screen,2_3_1_0_1_33,2022-02-21T16:08:37.486Z,,,,,,,,,,,,,,,,,51,,,,,,,,,,,,,,410.6390000000247,,response,,,,13,D,,,,,,Space,keypress(Space),,,,silence,,,,-------- -------- --- --- ---- --- --- ------ -- --------<br>---- --------- --- ------- ------------ ---------- ---------<br>--- ---------- ------- ---------- ------- -- -------- ----<br>---- --- ------ ----- ------ -- ---- --- House -- - -------<br>-------- -- --- --- -- ----- ----------- ----- -----------<br>---- --- ---------- --- ---- --- -- ----------,280279,280277.5,279832.533,279848.10000002384,279866.861,280282.35,,33,House
screen,html.Screen,2_3_1_0_1_34,2022-02-21T16:08:37.829Z,,,,,,,,,,,,,,,,,51,,,,,,,,,,,,,,338.1500000000233,,response,,,,13,D,,,,,,Space,keypress(Space),,,,silence,,,,-------- -------- --- --- ---- --- --- ------ -- --------<br>---- --------- --- ------- ------------ ---------- ---------<br>--- ---------- ------- ---------- ------- -- -------- ----<br>---- --- ------ ----- ------ -- ---- --- ----- in - -------<br>-------- -- --- --- -- ----- ----------- ----- -----------<br>---- --- ---------- --- ---- --- -- ----------,280622,280620.5,280265.817,280279.3000000715,280282.35,280632.457,,34,in
screen,html.Screen,2_3_1_0_1_35,2022-02-21T16:08:38.226Z,,,,,,,,,,,,,,,,,51,,,,,,,,,,,,,,385.3430000715307,,response,,,,13,D,,,,,,Space,keypress(Space),,,,silence,,,,-------- -------- --- --- ---- --- --- ------ -- --------<br>---- --------- --- ------- ------------ ---------- ---------<br>--- ---------- ------- ---------- ------- -- -------- ----<br>---- --- ------ ----- ------ -- ---- --- ----- -- a -------<br>-------- -- --- --- -- ----- ----------- ----- -----------<br>---- --- ---------- --- ---- --- -- ----------,281019.3000000715,281017.8000000715,280615.73,280622.2000000477,280632.457,281032.194,,35,a
screen,html.Screen,2_3_1_0_1_36,2022-02-21T16:08:38.694Z,,,,,,,,,,,,,,,,,51,,,,,,,,,,,,,,454.3059999999823,,response,,,,13,D,,,,,,Space,keypress(Space),,,,silence,,,,-------- -------- --- --- ---- --- --- ------ -- --------<br>---- --------- --- ------- ------------ ---------- ---------<br>--- ---------- ------- ---------- ------- -- -------- ----<br>---- --- ------ ----- ------ -- ---- --- ----- -- - massive<br>-------- -- --- --- -- ----- ----------- ----- -----------<br>---- --- ---------- --- ---- --- -- ----------,281487.90000009537,281486.5,281015.628,281019.60000002384,281032.194,281498.852,,36,massive
screen,html.Screen,2_3_1_0_1_37,2022-02-21T16:08:39.116Z,,,,,,,,,,,,,,,,,51,,,,,,,,,,,,,,409.1479999999865,,response,,,,13,D,,,,,,Space,keypress(Space),,,,silence,,,,-------- -------- --- --- ---- --- --- ------ -- --------<br>---- --------- --- ------- ------------ ---------- ---------<br>--- ---------- ------- ---------- ------- -- -------- ----<br>---- --- ------ ----- ------ -- ---- --- ----- -- - -------<br>overhaul -- --- --- -- ----- ----------- ----- -----------<br>---- --- ---------- --- ---- --- -- ----------,281909.60000002384,281908,281482.147,281488.2000000477,281498.852,281915.283,,37,overhaul
screen,html.Screen,2_3_1_0_1_38,2022-02-21T16:08:39.521Z,,,,,,,,,,,,,,,,,51,,,,,,,,,,,,,,397.01700007152976,,response,,,,13,D,,,,,,Space,keypress(Space),,,,silence,,,,-------- -------- --- --- ---- --- --- ------ -- --------<br>---- --------- --- ------- ------------ ---------- ---------<br>--- ---------- ------- ---------- ------- -- -------- ----<br>---- --- ------ ----- ------ -- ---- --- ----- -- - -------<br>-------- of --- --- -- ----- ----------- ----- -----------<br>---- --- ---------- --- ---- --- -- ----------,282314.10000002384,282312.3000000715,281898.718,281909.90000009537,281915.283,282335.162,,38,of
