sender,sender_type,sender_id,timestamp,meta,,Blues,Classical,Country,Dance,Electronic,Folk,Gospel,Hip-Hop,Jazz,Latin,Musical/Film,New-age,Pop,Prolific_id,Provo_ID,R&B,Rap,Reggae,Religious,Rock,Soul,Swing,Traditional,age,artist_name,correct,correctResponse,distraction,duration,education,ended_on,familiarity,gender,headphone_check_performance,item,list,music_frequency,offensiveness,pleasantness,position_correct,preference,response,response_action,snippet_file,song_name,song_rating,sound,stimulus_1,stimulus_2,stimulus_3,text,time_commit,time_end,time_render,time_run,time_show,time_switch,url,word,word_ID
Prolific ID,html.Form,0,2022-02-04T11:43:02.120Z,"{""labjs_version"":""20.2.2"",""labjs_build"":{""flavor"":""production"",""commit"":""a25486e0c714a0ae2ce03ff94b7bb6896854dcfa""},""location"":""https://run.pavlovia.org/mvasilev/prolific2_music_c/"",""userAgent"":""Mozilla/5.0 (Windows NT 10.0; Win64; x64) AppleWebKit/537.36 (KHTML, like Gecko) Chrome/97.0.4692.71 Safari/537.36"",""platform"":""Win32"",""language"":""en-GB"",""locale"":""en-GB"",""timeZone"":""Europe/London"",""timezoneOffset"":0,""screen_width"":1920,""screen_height"":1080,""scroll_width"":1920,""scroll_height"":921,""window_innerWidth"":1920,""window_innerHeight"":969,""devicePixelRatio"":1}",,,,,,,,,,,,,,,5d2b45b9f7ef930001c5fa2d,,,,,,,,,,,,,,,6139.299000000001,,form submission,,,,,,,,,,,,,,,,,,,,,17894.5,17894,11371.383,11381.199999809265,11754.701,18038.078,{},,
Introduction,html.Screen,1_0,2022-02-04T11:44:17.528Z,,,,,,,,,,,,,,,,,,,,,,,,,,,,,,,75262.12199980926,,response,,,,,,,,,,,continue,click button,,,,,,,,,93302.69999980927,93300.19999980927,17871.418,17894.799999952316,18038.078,93303.92,,,
Volume calibration,html.Screen,1_1,2022-02-04T11:45:03.217Z,,,,,,,,,,,,,,,,,,,,,,,,,,,,,,,45683.87999995232,,response,,,,,,,,,,,continue,click button,,,,,,,,,138991,138987.79999995232,93287.254,93302.89999985695,93303.92,139003.39,,,
Task instructions,html.Screen,1_2,2022-02-04T11:45:13.494Z,,,,,,,,,,,,,,,,,,,,,,,,,,,,,,,10264.209999904619,,response,,,,,,,,,,,continue,click button,,,,,,,,,149268.39999985695,149267.59999990463,138986.724,138991.19999980927,139003.39,149269.985,,,
Sounds,html.Screen,1_3_0_0,2022-02-04T11:45:17.734Z,,,,,,,,,,,,,,,,,,,,,,,,,,,,,,,4249.83600000001,,timeout,,,,,,,,,2,,,,,,,,O,S,I,,153508.5,153503.155,149253.319,149268.59999990463,149269.985,153519.821,,,
Judgement,html.Screen,1_3_0_1,2022-02-04T11:45:19.110Z,,,,,,,,,,,,,,,,,,,,,,,,,,,,true,2,,1363.7789999046363,,response,,,,,,,,,2,,2,click #choice-2,,,,,O,S,I,,154884.5,154883.59999990463,153503.155,153508.79999995232,153519.821,154886.567,,,
Trial,flow.Sequence,1_3_0,2022-02-04T11:45:19.111Z,,,,,,,,,,,,,,,,,,,,,,,,,,,,,,,5613.6149999046465,,completion,,,,,,,,,2,,,,,,,,O,S,I,,154884.89999985695,154883.59999990463,149253.319,149268.59999990463,149269.985,154886.567,,,
Sounds,html.Screen,1_3_1_0,2022-02-04T11:45:23.347Z,,,,,,,,,,,,,,,,,,,,,,,,,,,,,,,4249.868999999977,,timeout,,,,,,,,,3,,,,,,,,I,O,S,,159121.79999995232,159119.77,154869.901,154885.19999980927,154886.567,159136.436,,,
Judgement,html.Screen,1_3_1_1,2022-02-04T11:45:23.982Z,,,,,,,,,,,,,,,,,,,,,,,,,,,,true,3,,618.9639998569619,,response,,,,,,,,,3,,3,click #choice-3,,,,,I,O,S,,159756.09999990463,159755.39999985695,159119.77,159122,159136.436,159769.88,,,
Trial,flow.Sequence,1_3_1,2022-02-04T11:45:23.982Z,,,,,,,,,,,,,,,,,,,,,,,,,,,,,,,4868.832999856939,,completion,,,,,,,,,3,,,,,,,,I,O,S,,159756.29999995232,159755.39999985695,154869.901,154885.09999990463,154886.567,159769.88,,,
Sounds,html.Screen,1_3_2_0,2022-02-04T11:45:28.230Z,,,,,,,,,,,,,,,,,,,,,,,,,,,,,,,4249.79800000001,,timeout,,,,,,,,,1,,,,,,,,S,O,I,,164004.79999995232,164003.012,159753.214,159756.5,159769.88,164019.678,,,
Judgement,html.Screen,1_3_2_1,2022-02-04T11:45:28.926Z,,,,,,,,,,,,,,,,,,,,,,,,,,,,true,1,,679.7219998569344,,response,,,,,,,,,1,,1,click #choice-1,,,,,S,O,I,,164700.19999980927,164699.39999985695,164003.012,164005.09999990463,164019.678,164703.133,,,
Trial,flow.Sequence,1_3_2,2022-02-04T11:45:28.926Z,,,,,,,,,,,,,,,,,,,,,,,,,,,,,,,4929.519999856944,,completion,,,,,,,,,1,,,,,,,,S,O,I,,164700.29999995232,164699.39999985695,159753.214,159756.39999985695,159769.88,164703.133,,,
Sounds,html.Screen,1_3_3_0,2022-02-04T11:45:33.163Z,,,,,,,,,,,,,,,,,,,,,,,,,,,,,,,4249.817999999999,,timeout,,,,,,,,,1,,,,,,,,S,I,O,,168937.79999995232,168936.285,164686.467,164700.5,164703.133,168952.951,,,
Judgement,html.Screen,1_3_3_1,2022-02-04T11:45:33.862Z,,,,,,,,,,,,,,,,,,,,,,,,,,,,true,1,,682.3489999523154,,response,,,,,,,,,1,,1,click #choice-1,,,,,S,I,O,,169635.89999985695,169635.29999995232,168936.285,168938,168952.951,169636.418,,,
Trial,flow.Sequence,1_3_3,2022-02-04T11:45:33.862Z,,,,,,,,,,,,,,,,,,,,,,,,,,,,,,,4932.166999952315,,completion,,,,,,,,,1,,,,,,,,S,I,O,,169636.19999980927,169635.29999995232,164686.467,164700.5,164703.133,169636.418,,,
Sounds,html.Screen,1_3_4_0,2022-02-04T11:45:38.096Z,,,,,,,,,,,,,,,,,,,,,,,,,,,,,,,4249.817999999999,,timeout,,,,,,,,,3,,,,,,,,O,I,S,,173870.79999995232,173869.57,169619.752,169636.29999995232,169636.418,173886.236,,,
Judgement,html.Screen,1_3_4_1,2022-02-04T11:45:38.678Z,,,,,,,,,,,,,,,,,,,,,,,,,,,,true,3,,565.0639999523119,,response,,,,,,,,,3,,3,click #choice-3,,,,,O,I,S,,174452.09999990463,174451.29999995232,173869.57,173870.89999985695,173886.236,174453.032,,,
Trial,flow.Sequence,1_3_4,2022-02-04T11:45:38.678Z,,,,,,,,,,,,,,,,,,,,,,,,,,,,,,,4814.881999952311,,completion,,,,,,,,,3,,,,,,,,O,I,S,,174452.19999980927,174451.29999995232,169619.752,169636.19999980927,169636.418,174453.032,,,
Sounds,html.Screen,1_3_5_0,2022-02-04T11:45:42.914Z,,,,,,,,,,,,,,,,,,,,,,,,,,,,,,,4249.809999999998,,timeout,,,,,,,,,2,,,,,,,,I,S,O,,178688,178686.176,174436.366,174452.29999995232,174453.032,178702.842,,,
Judgement,html.Screen,1_3_5_1,2022-02-04T11:45:43.590Z,,,,,,,,,,,,,,,,,,,,,,,,,,,,true,2,,660.357999809261,,response,,,,,,,,,2,,2,click #choice-2,,,,,I,S,O,,179364,179363.19999980927,178686.176,178688.19999980927,178702.842,179369.67,,,
Trial,flow.Sequence,1_3_5,2022-02-04T11:45:43.590Z,,,,,,,,,,,,,,,,,,,,,,,,,,,,,,,4910.167999809259,,completion,,,,,,,,,2,,,,,,,,I,S,O,,179364.19999980927,179363.19999980927,174436.366,174452.29999995232,174453.032,179369.67,,,
Task,flow.Loop,1_3,2022-02-04T11:45:43.594Z,,,,,,,,,,,,,,,,,,,,,,,,,,,,,,,30093.21499980928,,completion,,,1,,,,,,,,,,,,,,,,,,179368.89999985695,179363.19999980927,149253.319,149268.59999990463,149269.985,179369.67,,,
Trap,html.Screen,1_4,2022-02-04T11:45:43.596Z,,,,,,,,,,,,,,,,,,,,,,,,,,,,,,,NaN,,skipped,,,,,,,,,,,,,,,,,,,,,179370,179363.19999980927,,179369.79999995232,,179369.67,,,
Thanks,html.Screen,1_5,2022-02-04T11:45:47.301Z,,,,,,,,,,,,,,,,,,,,,,,,,,,,,,,3705.4299999046198,,response,,,,,,,,,,,continue,click button,,,,,,,,,183075.89999985695,183075.09999990463,179353.004,179370,179369.67,185802.845,,,
Headphone screening,flow.Sequence,1,2022-02-04T11:45:47.302Z,,,,,,,,,,,,,,,,,,,,,,,,,,,,,,,165037.02199990462,,completion,,,,,,,,,,,,,,,,,,,,,183076.09999990463,183075.09999990463,17871.418,17894.799999952316,18038.078,185802.845,,,
Instructions,html.Page,2_0,2022-02-04T11:46:39.750Z,,,,,,,,,,,,,,,,,,,,,,,,,,,,,,,49720.75499990463,,form submission,,,,,,,,,,,,,,,,,,,,,235523.79999995232,235523.59999990463,185519.523,185587.69999980927,185802.845,235535.664,,,
Holding screen,html.Screen,2_1_0_0,2022-02-04T11:46:49.745Z,,,,,,,,,,,,,,,,,,,,,,,,,,,,,,,10083.217000000004,,timeout,,,,,,,,,,,,,,,,,,,,,245519.59999990463,245518.885,235518.998,235524,235535.664,245618.881,,,
screen,html.Screen,2_1_0_1_0,2022-02-04T11:46:50.699Z,,,,,,,,,,,,,,,,,53,,,,,,,,,,,,,,850.3189998092712,,response,,,,99,,,,,,,Space,keypress(Space),,,,,,,,When -- ----- -- ------ - ------- --- ----------<br>------------- ------ ------ ---- ---- ------- ----- -- ----<br>-------- ------- -- ---------- --- - --- ----- ----- ----<br>---- --- --- ----- --- ---- ---- ------- ----- ---- -------<br>--- --- -- ----- -- --- ---- -- --- ---- -- ------ ------<br>--- ----- -- ----,246473.09999990463,246469.19999980927,245518.885,245519.89999985695,245618.881,246485.543,,0,When
screen,html.Screen,2_1_0_1_1,2022-02-04T11:46:50.919Z,,,,,,,,,,,,,,,,,53,,,,,,,,,,,,,,207.15699980926001,,response,,,,99,,,,,,,Space,keypress(Space),,,,,,,,---- it ----- -- ------ - ------- --- ----------<br>------------- ------ ------ ---- ---- ------- ----- -- ----<br>-------- ------- -- ---------- --- - --- ----- ----- ----<br>---- --- --- ----- --- ---- ---- ------- ----- ---- -------<br>--- --- -- ----- -- --- ---- -- --- ---- -- ------ ------<br>--- ----- -- ----,246693.5,246692.69999980927,246468.877,246473.29999995232,246485.543,246702.25,,1,it
screen,html.Screen,2_1_0_1_2,2022-02-04T11:46:51.224Z,,,,,,,,,,,,,,,,,53,,,,,,,,,,,,,,294.75,,response,,,,99,,,,,,,Space,keypress(Space),,,,,,,,---- -- comes -- ------ - ------- --- ----------<br>------------- ------ ------ ---- ---- ------- ----- -- ----<br>-------- ------- -- ---------- --- - --- ----- ----- ----<br>---- --- --- ----- --- ---- ---- ------- ----- ---- -------<br>--- --- -- ----- -- --- ---- -- --- ---- -- ------ ------<br>--- ----- -- ----,246997.69999980927,246997,246685.584,246693.69999980927,246702.25,247002.212,,2,comes
screen,html.Screen,2_1_0_1_3,2022-02-04T11:46:51.607Z,,,,,,,,,,,,,,,,,53,,,,,,,,,,,,,,378.38799990463303,,response,,,,99,,,,,,,Space,keypress(Space),,,,,,,,---- -- ----- to ------ - ------- --- ----------<br>------------- ------ ------ ---- ---- ------- ----- -- ----<br>-------- ------- -- ---------- --- - --- ----- ----- ----<br>---- --- --- ----- --- ---- ---- ------- ----- ---- -------<br>--- --- -- ----- -- --- ---- -- --- ---- -- ------ ------<br>--- ----- -- ----,247381.09999990463,247380.59999990463,246985.546,246997.89999985695,247002.212,247385.602,,3,to
screen,html.Screen,2_1_0_1_4,2022-02-04T11:46:51.863Z,,,,,,,,,,,,,,,,,53,,,,,,,,,,,,,,251.09799980925163,,response,,,,99,,,,,,,Space,keypress(Space),,,,,,,,---- -- ----- -- having - ------- --- ----------<br>------------- ------ ------ ---- ---- ------- ----- -- ----<br>-------- ------- -- ---------- --- - --- ----- ----- ----<br>---- --- --- ----- --- ---- ---- ------- ----- ---- -------<br>--- --- -- ----- -- --- ---- -- --- ---- -- ------ ------<br>--- ----- -- ----,247637.59999990463,247636.69999980927,247368.936,247381.19999980927,247385.602,247652.192,,4,having
screen,html.Screen,2_1_0_1_5,2022-02-04T11:46:52.135Z,,,,,,,,,,,,,,,,,53,,,,,,,,,,,,,,256.5079998092551,,response,,,,99,,,,,,,Space,keypress(Space),,,,,,,,---- -- ----- -- ------ a ------- --- ----------<br>------------- ------ ------ ---- ---- ------- ----- -- ----<br>-------- ------- -- ---------- --- - --- ----- ----- ----<br>---- --- --- ----- --- ---- ---- ------- ----- ---- -------<br>--- --- -- ----- -- --- ---- -- --- ---- -- ------ ------<br>--- ----- -- ----,247909.39999985695,247908.69999980927,247635.526,247637.69999980927,247652.192,247918.927,,5,a
screen,html.Screen,2_1_0_1_6,2022-02-04T11:46:52.471Z,,,,,,,,,,,,,,,,,53,,,,,,,,,,,,,,325.87299995232024,,response,,,,99,,,,,,,Space,keypress(Space),,,,,,,,---- -- ----- -- ------ - lasting --- ----------<br>------------- ------ ------ ---- ---- ------- ----- -- ----<br>-------- ------- -- ---------- --- - --- ----- ----- ----<br>---- --- --- ----- --- ---- ---- ------- ----- ---- -------<br>--- --- -- ----- -- --- ---- -- --- ---- -- ------ ------<br>--- ----- -- ----,248245.5,248244.79999995232,247902.261,247909.59999990463,247918.927,248252.232,,6,lasting
screen,html.Screen,2_1_0_1_7,2022-02-04T11:46:52.903Z,,,,,,,,,,,,,,,,,53,,,,,,,,,,,,,,424.5679999523272,,response,,,,99,,,,,,,Space,keypress(Space),,,,,,,,---- -- ----- -- ------ - ------- and ----------<br>------------- ------ ------ ---- ---- ------- ----- -- ----<br>-------- ------- -- ---------- --- - --- ----- ----- ----<br>---- --- --- ----- --- ---- ---- ------- ----- ---- -------<br>--- --- -- ----- -- --- ---- -- --- ---- -- ------ ------<br>--- ----- -- ----,248677.59999990463,248676.79999995232,248235.566,248245.69999980927,248252.232,248685.541,,7,and
screen,html.Screen,2_1_0_1_8,2022-02-04T11:46:53.319Z,,,,,,,,,,,,,,,,,53,,,,,,,,,,,,,,407.1589998092677,,response,,,,99,,,,,,,Space,keypress(Space),,,,,,,,---- -- ----- -- ------ - ------- --- fulfilling<br>------------- ------ ------ ---- ---- ------- ----- -- ----<br>-------- ------- -- ---------- --- - --- ----- ----- ----<br>---- --- --- ----- --- ---- ---- ------- ----- ---- -------<br>--- --- -- ----- -- --- ---- -- --- ---- -- ------ ------<br>--- ----- -- ----,249093.5,249092.69999980927,248668.875,248677.69999980927,248685.541,249102.215,,8,fulfilling
screen,html.Screen,2_1_0_1_9,2022-02-04T11:46:53.655Z,,,,,,,,,,,,,,,,,53,,,,,,,,,,,,,,326.38499990463606,,response,,,,99,,,,,,,Space,keypress(Space),,,,,,,,"---- -- ----- -- ------ - ------- --- ----------<br>relationship, ------ ------ ---- ---- ------- ----- -- ----<br>-------- ------- -- ---------- --- - --- ----- ----- ----<br>---- --- --- ----- --- ---- ---- ------- ----- ---- -------<br>--- --- -- ----- -- --- ---- -- --- ---- -- ------ ------<br>--- ----- -- ----",249429.09999990463,249428.59999990463,249085.549,249093.69999980927,249102.215,249435.508,,9,"relationship,"
screen,html.Screen,2_1_0_1_10,2022-02-04T11:46:53.943Z,,,,,,,,,,,,,,,,,53,,,,,,,,,,,,,,281.1919998092635,,response,,,,99,,,,,,,Space,keypress(Space),,,,,,,,---- -- ----- -- ------ - ------- --- ----------<br>------------- common ------ ---- ---- ------- ----- -- ----<br>-------- ------- -- ---------- --- - --- ----- ----- ----<br>---- --- --- ----- --- ---- ---- ------- ----- ---- -------<br>--- --- -- ----- -- --- ---- -- --- ---- -- ------ ------<br>--- ----- -- ----,249717.5,249716.69999980927,249418.842,249429.29999995232,249435.508,249718.846,,10,common
screen,html.Screen,2_1_0_1_11,2022-02-04T11:46:54.215Z,,,,,,,,,,,,,,,,,53,,,,,,,,,,,,,,270.0539998569584,,response,,,,99,,,,,,,Space,keypress(Space),,,,,,,,---- -- ----- -- ------ - ------- --- ----------<br>------------- ------ wisdom ---- ---- ------- ----- -- ----<br>-------- ------- -- ---------- --- - --- ----- ----- ----<br>---- --- --- ----- --- ---- ---- ------- ----- ---- -------<br>--- --- -- ----- -- --- ---- -- --- ---- -- ------ ------<br>--- ----- -- ----,249989.5,249988.89999985695,249702.18,249717.59999990463,249718.846,250002.191,,11,wisdom
screen,html.Screen,2_1_0_1_12,2022-02-04T11:46:54.719Z,,,,,,,,,,,,,,,,,53,,,,,,,,,,,,,,490.5089998092735,,response,,,,99,,,,,,,Space,keypress(Space),,,,,,,,---- -- ----- -- ------ - ------- --- ----------<br>------------- ------ ------ says ---- ------- ----- -- ----<br>-------- ------- -- ---------- --- - --- ----- ----- ----<br>---- --- --- ----- --- ---- ---- ------- ----- ---- -------<br>--- --- -- ----- -- --- ---- -- --- ---- -- ------ ------<br>--- ----- -- ----,250493.39999985695,250492.69999980927,249985.525,249989.59999990463,250002.191,250502.196,,12,says
screen,html.Screen,2_1_0_1_13,2022-02-04T11:46:55.199Z,,,,,,,,,,,,,,,,,53,,,,,,,,,,,,,,470.50399980926886,,response,,,,99,,,,,,,Space,keypress(Space),,,,,,,,---- -- ----- -- ------ - ------- --- ----------<br>------------- ------ ------ ---- that ------- ----- -- ----<br>-------- ------- -- ---------- --- - --- ----- ----- ----<br>---- --- --- ----- --- ---- ---- ------- ----- ---- -------<br>--- --- -- ----- -- --- ---- -- --- ---- -- ------ ------<br>--- ----- -- ----,250973.39999985695,250972.69999980927,250485.53,250493.69999980927,250502.196,250985.51,,13,that
screen,html.Screen,2_1_0_1_14,2022-02-04T11:46:55.631Z,,,,,,,,,,,,,,,,,53,,,,,,,,,,,,,,419.28999995230697,,response,,,,99,,,,,,,Space,keypress(Space),,,,,,,,---- -- ----- -- ------ - ------- --- ----------<br>------------- ------ ------ ---- ---- feeling ----- -- ----<br>-------- ------- -- ---------- --- - --- ----- ----- ----<br>---- --- --- ----- --- ---- ---- ------- ----- ---- -------<br>--- --- -- ----- -- --- ---- -- --- ---- -- ------ ------<br>--- ----- -- ----,251405.59999990463,251404.79999995232,250968.844,250973.59999990463,250985.51,251418.862,,14,feeling
screen,html.Screen,2_1_0_1_15,2022-02-04T11:46:56.071Z,,,,,,,,,,,,,,,,,53,,,,,,,,,,,,,,425.93799995232257,,response,,,,99,,,,,,,Space,keypress(Space),,,,,,,,---- -- ----- -- ------ - ------- --- ----------<br>------------- ------ ------ ---- ---- ------- close -- ----<br>-------- ------- -- ---------- --- - --- ----- ----- ----<br>---- --- --- ----- --- ---- ---- ------- ----- ---- -------<br>--- --- -- ----- -- --- ---- -- --- ---- -- ------ ------<br>--- ----- -- ----,251845.39999985695,251844.79999995232,251402.196,251405.69999980927,251418.862,251852.175,,15,close
screen,html.Screen,2_1_0_1_16,2022-02-04T11:46:56.375Z,,,,,,,,,,,,,,,,,53,,,,,,,,,,,,,,296.5249998092768,,response,,,,99,,,,,,,Space,keypress(Space),,,,,,,,---- -- ----- -- ------ - ------- --- ----------<br>------------- ------ ------ ---- ---- ------- ----- to ----<br>-------- ------- -- ---------- --- - --- ----- ----- ----<br>---- --- --- ----- --- ---- ---- ------- ----- ---- -------<br>--- --- -- ----- -- --- ---- -- --- ---- -- ------ ------<br>--- ----- -- ----,252149.39999985695,252148.69999980927,251835.509,251845.69999980927,251852.175,252152.206,,16,to
screen,html.Screen,2_1_0_1_17,2022-02-04T11:46:56.823Z,,,,,,,,,,,,,,,,,53,,,,,,,,,,,,,,444.49399980925955,,response,,,,99,,,,,,,Space,keypress(Space),,,,,,,,---- -- ----- -- ------ - ------- --- ----------<br>------------- ------ ------ ---- ---- ------- ----- -- your<br>-------- ------- -- ---------- --- - --- ----- ----- ----<br>---- --- --- ----- --- ---- ---- ------- ----- ---- -------<br>--- --- -- ----- -- --- ---- -- --- ---- -- ------ ------<br>--- ----- -- ----,252597.39999985695,252596.69999980927,252135.54,252149.59999990463,252152.206,252602.165,,17,your
screen,html.Screen,2_1_0_1_18,2022-02-04T11:46:57.279Z,,,,,,,,,,,,,,,,,53,,,,,,,,,,,,,,450.534999809257,,response,,,,99,,,,,,,Space,keypress(Space),,,,,,,,---- -- ----- -- ------ - ------- --- ----------<br>------------- ------ ------ ---- ---- ------- ----- -- ----<br>romantic ------- -- ---------- --- - --- ----- ----- ----<br>---- --- --- ----- --- ---- ---- ------- ----- ---- -------<br>--- --- -- ----- -- --- ---- -- --- ---- -- ------ ------<br>--- ----- -- ----,253053.5,253052.69999980927,252585.499,252597.69999980927,252602.165,253068.885,,18,romantic
screen,html.Screen,2_1_0_1_19,2022-02-04T11:46:57.551Z,,,,,,,,,,,,,,,,,53,,,,,,,,,,,,,,255.81499980925582,,response,,,,99,,,,,,,Space,keypress(Space),,,,,,,,---- -- ----- -- ------ - ------- --- ----------<br>------------- ------ ------ ---- ---- ------- ----- -- ----<br>-------- partner -- ---------- --- - --- ----- ----- ----<br>---- --- --- ----- --- ---- ---- ------- ----- ---- -------<br>--- --- -- ----- -- --- ---- -- --- ---- -- ------ ------<br>--- ----- -- ----,253325.39999985695,253324.69999980927,253052.219,253053.69999980927,253068.885,253335.495,,19,partner
screen,html.Screen,2_1_0_1_20,2022-02-04T11:46:58.015Z,,,,,,,,,,,,,,,,,53,,,,,,,,,,,,,,453.2049998092698,,response,,,,99,,,,,,,Space,keypress(Space),,,,,,,,---- -- ----- -- ------ - ------- --- ----------<br>------------- ------ ------ ---- ---- ------- ----- -- ----<br>-------- ------- is ---------- --- - --- ----- ----- ----<br>---- --- --- ----- --- ---- ---- ------- ----- ---- -------<br>--- --- -- ----- -- --- ---- -- --- ---- -- ------ ------<br>--- ----- -- ----,253789.5,253788.69999980927,253318.829,253325.69999980927,253335.495,253802.148,,20,is
screen,html.Screen,2_1_0_1_21,2022-02-04T11:46:58.471Z,,,,,,,,,,,,,,,,,53,,,,,,,,,,,,,,442.4519999046461,,response,,,,99,,,,,,,Space,keypress(Space),,,,,,,,---- -- ----- -- ------ - ------- --- ----------<br>------------- ------ ------ ---- ---- ------- ----- -- ----<br>-------- ------- -- paramount. --- - --- ----- ----- ----<br>---- --- --- ----- --- ---- ---- ------- ----- ---- -------<br>--- --- -- ----- -- --- ---- -- --- ---- -- ------ ------<br>--- ----- -- ----,254245.39999985695,254244.59999990463,253785.482,253789.59999990463,253802.148,254252.108,,21,paramount.
screen,html.Screen,2_1_0_1_22,2022-02-04T11:46:59.263Z,,,,,,,,,,,,,,,,,53,,,,,,,,,,,,,,784.3919999999925,,response,,,,99,,,,,,,Space,keypress(Space),,,,,,,,---- -- ----- -- ------ - ------- --- ----------<br>------------- ------ ------ ---- ---- ------- ----- -- ----<br>-------- ------- -- ---------- But - --- ----- ----- ----<br>---- --- --- ----- --- ---- ---- ------- ----- ---- -------<br>--- --- -- ----- -- --- ---- -- --- ---- -- ------ ------<br>--- ----- -- ----,255037.29999995232,255036.5,254235.442,254245.59999990463,254252.108,255052.159,,22,But
screen,html.Screen,2_1_0_1_23,2022-02-04T11:46:59.551Z,,,,,,,,,,,,,,,,,53,,,,,,,,,,,,,,272.3409999999858,,response,,,,99,,,,,,,Space,keypress(Space),,,,,,,,---- -- ----- -- ------ - ------- --- ----------<br>------------- ------ ------ ---- ---- ------- ----- -- ----<br>-------- ------- -- ---------- --- a --- ----- ----- ----<br>---- --- --- ----- --- ---- ---- ------- ----- ---- -------<br>--- --- -- ----- -- --- ---- -- --- ---- -- ------ ------<br>--- ----- -- ----,255325,255324.5,255035.493,255037.39999985695,255052.159,255335.499,,23,a
screen,html.Screen,2_1_0_1_24,2022-02-04T11:46:59.807Z,,,,,,,,,,,,,,,,,53,,,,,,,,,,,,,,245.20099980925443,,response,,,,99,,,,,,,Space,keypress(Space),,,,,,,,---- -- ----- -- ------ - ------- --- ----------<br>------------- ------ ------ ---- ---- ------- ----- -- ----<br>-------- ------- -- ---------- --- - new ----- ----- ----<br>---- --- --- ----- --- ---- ---- ------- ----- ---- -------<br>--- --- -- ----- -- --- ---- -- --- ---- -- ------ ------<br>--- ----- -- ----,255581.39999985695,255580.69999980927,255318.833,255325.09999990463,255335.499,255585.466,,24,new
screen,html.Screen,2_1_0_1_25,2022-02-04T11:47:00.343Z,,,,,,,,,,,,,,,,,53,,,,,,,,,,,,,,531.2339998092793,,response,,,,99,,,,,,,Space,keypress(Space),,,,,,,,---- -- ----- -- ------ - ------- --- ----------<br>------------- ------ ------ ---- ---- ------- ----- -- ----<br>-------- ------- -- ---------- --- - --- study ----- ----<br>---- --- --- ----- --- ---- ---- ------- ----- ---- -------<br>--- --- -- ----- -- --- ---- -- --- ---- -- ------ ------<br>--- ----- -- ----,256117.39999985695,256116.69999980927,255568.8,255581.59999990463,255585.466,256118.819,,25,study
screen,html.Screen,2_1_0_1_26,2022-02-04T11:47:00.615Z,,,,,,,,,,,,,,,,,53,,,,,,,,,,,,,,269.88099980927655,,response,,,,99,,,,,,,Space,keypress(Space),,,,,,,,---- -- ----- -- ------ - ------- --- ----------<br>------------- ------ ------ ---- ---- ------- ----- -- ----<br>-------- ------- -- ---------- --- - --- ----- finds ----<br>---- --- --- ----- --- ---- ---- ------- ----- ---- -------<br>--- --- -- ----- -- --- ---- -- --- ---- -- ------ ------<br>--- ----- -- ----,256389.39999985695,256388.69999980927,256102.153,256117.59999990463,256118.819,256402.126,,26,finds
screen,html.Screen,2_1_0_1_27,2022-02-04T11:47:00.840Z,,,,,,,,,,,,,,,,,53,,,,,,,,,,,,,,210.97399990464328,,response,,,,99,,,,,,,Space,keypress(Space),,,,,,,,---- -- ----- -- ------ - ------- --- ----------<br>------------- ------ ------ ---- ---- ------- ----- -- ----<br>-------- ------- -- ---------- --- - --- ----- ----- that<br>---- --- --- ----- --- ---- ---- ------- ----- ---- -------<br>--- --- -- ----- -- --- ---- -- --- ---- -- ------ ------<br>--- ----- -- ----,256613.69999980927,256613.09999990463,256385.46,256389.69999980927,256402.126,256618.814,,27,that
screen,html.Screen,2_1_0_1_28,2022-02-04T11:47:01.207Z,,,,,,,,,,,,,,,,,53,,,,,,,,,,,,,,361.8859998092521,,response,,,,99,,,,,,,Space,keypress(Space),,,,,,,,---- -- ----- -- ------ - ------- --- ----------<br>------------- ------ ------ ---- ---- ------- ----- -- ----<br>-------- ------- -- ---------- --- - --- ----- ----- ----<br>it's --- --- ----- --- ---- ---- ------- ----- ---- -------<br>--- --- -- ----- -- --- ---- -- --- ---- -- ------ ------<br>--- ----- -- ----,256981.39999985695,256980.69999980927,256602.148,256613.89999985695,256618.814,256985.466,,28,it's
screen,html.Screen,2_1_0_1_29,2022-02-04T11:47:01.591Z,,,,,,,,,,,,,,,,,53,,,,,,,,,,,,,,379.13399990464677,,response,,,,99,,,,,,,Space,keypress(Space),,,,,,,,---- -- ----- -- ------ - ------- --- ----------<br>------------- ------ ------ ---- ---- ------- ----- -- ----<br>-------- ------- -- ---------- --- - --- ----- ----- ----<br>---- not --- ----- --- ---- ---- ------- ----- ---- -------<br>--- --- -- ----- -- --- ---- -- --- ---- -- ------ ------<br>--- ----- -- ----,257365.39999985695,257364.59999990463,256968.8,256981.59999990463,256985.466,257368.8,,29,not
screen,html.Screen,2_1_0_1_30,2022-02-04T11:47:01.935Z,,,,,,,,,,,,,,,,,53,,,,,,,,,,,,,,339.8999998092768,,response,,,,99,,,,,,,Space,keypress(Space),,,,,,,,---- -- ----- -- ------ - ------- --- ----------<br>------------- ------ ------ ---- ---- ------- ----- -- ----<br>-------- ------- -- ---------- --- - --- ----- ----- ----<br>---- --- how ----- --- ---- ---- ------- ----- ---- -------<br>--- --- -- ----- -- --- ---- -- --- ---- -- ------ ------<br>--- ----- -- ----,257709.39999985695,257708.69999980927,257352.134,257365.59999990463,257368.8,257718.803,,30,how
screen,html.Screen,2_1_0_1_31,2022-02-04T11:47:02.319Z,,,,,,,,,,,,,,,,,53,,,,,,,,,,,,,,373.79699990461813,,response,,,,99,,,,,,,Space,keypress(Space),,,,,,,,---- -- ----- -- ------ - ------- --- ----------<br>------------- ------ ------ ---- ---- ------- ----- -- ----<br>-------- ------- -- ---------- --- - --- ----- ----- ----<br>---- --- --- close --- ---- ---- ------- ----- ---- -------<br>--- --- -- ----- -- --- ---- -- --- ---- -- ------ ------<br>--- ----- -- ----,258093.29999995232,258092.59999990463,257702.137,257709.69999980927,257718.803,258102.12,,31,close
screen,html.Screen,2_1_0_1_32,2022-02-04T11:47:02.735Z,,,,,,,,,,,,,,,,,53,,,,,,,,,,,,,,406.4799999046372,,response,,,,99,,,,,,,Space,keypress(Space),,,,,,,,---- -- ----- -- ------ - ------- --- ----------<br>------------- ------ ------ ---- ---- ------- ----- -- ----<br>-------- ------- -- ---------- --- - --- ----- ----- ----<br>---- --- --- ----- you ---- ---- ------- ----- ---- -------<br>--- --- -- ----- -- --- ---- -- --- ---- -- ------ ------<br>--- ----- -- ----,258509.39999985695,258508.59999990463,258085.454,258093.5,258102.12,258518.758,,32,you
screen,html.Screen,2_1_0_1_33,2022-02-04T11:47:03.023Z,,,,,,,,,,,,,,,,,53,,,,,,,,,,,,,,277.84199990463094,,response,,,,99,,,,,,,Space,keypress(Space),,,,,,,,---- -- ----- -- ------ - ------- --- ----------<br>------------- ------ ------ ---- ---- ------- ----- -- ----<br>-------- ------- -- ---------- --- - --- ----- ----- ----<br>---- --- --- ----- --- feel ---- ------- ----- ---- -------<br>--- --- -- ----- -- --- ---- -- --- ---- -- ------ ------<br>--- ----- -- ----,258797.29999995232,258796.59999990463,258502.092,258509.59999990463,258518.758,258802.108,,33,feel
screen,html.Screen,2_1_0_1_34,2022-02-04T11:47:03.311Z,,,,,,,,,,,,,,,,,53,,,,,,,,,,,,,,282.5919998092577,,response,,,,99,,,,,,,Space,keypress(Space),,,,,,,,---- -- ----- -- ------ - ------- --- ----------<br>------------- ------ ------ ---- ---- ------- ----- -- ----<br>-------- ------- -- ---------- --- - --- ----- ----- ----<br>---- --- --- ----- --- ---- that ------- ----- ---- -------<br>--- --- -- ----- -- --- ---- -- --- ---- -- ------ ------<br>--- ----- -- ----,259085.5,259084.69999980927,258785.442,258797.39999985695,258802.108,259102.078,,34,that
screen,html.Screen,2_1_0_1_35,2022-02-04T11:47:03.599Z,,,,,,,,,,,,,,,,,53,,,,,,,,,,,,,,270.52199990462395,,response,,,,99,,,,,,,Space,keypress(Space),,,,,,,,---- -- ----- -- ------ - ------- --- ----------<br>------------- ------ ------ ---- ---- ------- ----- -- ----<br>-------- ------- -- ---------- --- - --- ----- ----- ----<br>---- --- --- ----- --- ---- ---- matters ----- ---- -------<br>--- --- -- ----- -- --- ---- -- --- ---- -- ------ ------<br>--- ----- -- ----,259373.39999985695,259372.59999990463,259085.412,259085.69999980927,259102.078,259385.463,,35,matters
screen,html.Screen,2_1_0_1_36,2022-02-04T11:47:04.175Z,,,,,,,,,,,,,,,,,53,,,,,,,,,,,,,,563.1369999046437,,response,,,,99,,,,,,,Space,keypress(Space),,,,,,,,"---- -- ----- -- ------ - ------- --- ----------<br>------------- ------ ------ ---- ---- ------- ----- -- ----<br>-------- ------- -- ---------- --- - --- ----- ----- ----<br>---- --- --- ----- --- ---- ---- ------- most, ---- -------<br>--- --- -- ----- -- --- ---- -- --- ---- -- ------ ------<br>--- ----- -- ----",259949.29999995232,259948.59999990463,259368.797,259373.69999980927,259385.463,259952.102,,36,"most,"
screen,html.Screen,2_1_0_1_37,2022-02-04T11:47:04.711Z,,,,,,,,,,,,,,,,,53,,,,,,,,,,,,,,532.4979999046191,,response,,,,99,,,,,,,Space,keypress(Space),,,,,,,,---- -- ----- -- ------ - ------- --- ----------<br>------------- ------ ------ ---- ---- ------- ----- -- ----<br>-------- ------- -- ---------- --- - --- ----- ----- ----<br>---- --- --- ----- --- ---- ---- ------- ----- it's -------<br>--- --- -- ----- -- --- ---- -- --- ---- -- ------ ------<br>--- ----- -- ----,260485.39999985695,260484.59999990463,259935.436,259949.5,259952.102,260502.064,,37,it's
screen,html.Screen,2_1_0_1_38,2022-02-04T11:47:05.023Z,,,,,,,,,,,,,,,,,53,,,,,,,,,,,,,,294.53599990461953,,response,,,,99,,,,,,,Space,keypress(Space),,,,,,,,---- -- ----- -- ------ - ------- --- ----------<br>------------- ------ ------ ---- ---- ------- ----- -- ----<br>-------- ------- -- ---------- --- - --- ----- ----- ----<br>---- --- --- ----- --- ---- ---- ------- ----- ---- whether<br>--- --- -- ----- -- --- ---- -- --- ---- -- ------ ------<br>--- ----- -- ----,260797.29999995232,260796.59999990463,260485.398,260485.59999990463,260502.064,260802.039,,38,whether
screen,html.Screen,2_1_0_1_39,2022-02-04T11:47:05.391Z,,,,,,,,,,,,,,,,,53,,,,,,,,,,,,,,362.6609998092754,,response,,,,99,,,,,,,Space,keypress(Space),,,,,,,,---- -- ----- -- ------ - ------- --- ----------<br>------------- ------ ------ ---- ---- ------- ----- -- ----<br>-------- ------- -- ---------- --- - --- ----- ----- ----<br>---- --- --- ----- --- ---- ---- ------- ----- ---- -------<br>you --- -- ----- -- --- ---- -- --- ---- -- ------ ------<br>--- ----- -- ----,261165.39999985695,261164.69999980927,260785.373,260797.5,260802.039,261168.764,,39,you
screen,html.Screen,2_1_0_1_40,2022-02-04T11:47:05.711Z,,,,,,,,,,,,,,,,,53,,,,,,,,,,,,,,315.93599980926956,,response,,,,99,,,,,,,Space,keypress(Space),,,,,,,,---- -- ----- -- ------ - ------- --- ----------<br>------------- ------ ------ ---- ---- ------- ----- -- ----<br>-------- ------- -- ---------- --- - --- ----- ----- ----<br>---- --- --- ----- --- ---- ---- ------- ----- ---- -------<br>--- are -- ----- -- --- ---- -- --- ---- -- ------ ------<br>--- ----- -- ----,261485.39999985695,261484.69999980927,261152.098,261165.5,261168.764,261502.09,,40,are
screen,html.Screen,2_1_0_1_41,2022-02-04T11:47:05.999Z,,,,,,,,,,,,,,,,,53,,,,,,,,,,,,,,270.30999985695234,,response,,,,99,,,,,,,Space,keypress(Space),,,,,,,,---- -- ----- -- ------ - ------- --- ----------<br>------------- ------ ------ ---- ---- ------- ----- -- ----<br>-------- ------- -- ---------- --- - --- ----- ----- ----<br>---- --- --- ----- --- ---- ---- ------- ----- ---- -------<br>--- --- as ----- -- --- ---- -- --- ---- -- ------ ------<br>--- ----- -- ----,261773,261772.39999985695,261485.424,261485.5,261502.09,261785.417,,41,as
screen,html.Screen,2_1_0_1_42,2022-02-04T11:47:06.319Z,,,,,,,,,,,,,,,,,53,,,,,,,,,,,,,,307.18299990464584,,response,,,,99,,,,,,,Space,keypress(Space),,,,,,,,---- -- ----- -- ------ - ------- --- ----------<br>------------- ------ ------ ---- ---- ------- ----- -- ----<br>-------- ------- -- ---------- --- - --- ----- ----- ----<br>---- --- --- ----- --- ---- ---- ------- ----- ---- -------<br>--- --- -- close -- --- ---- -- --- ---- -- ------ ------<br>--- ----- -- ----,262093.39999985695,262092.59999990463,261768.751,261773.19999980927,261785.417,262102.079,,42,close
screen,html.Screen,2_1_0_1_43,2022-02-04T11:47:06.639Z,,,,,,,,,,,,,,,,,53,,,,,,,,,,,,,,310.52099990463466,,response,,,,99,,,,,,,Space,keypress(Space),,,,,,,,---- -- ----- -- ------ - ------- --- ----------<br>------------- ------ ------ ---- ---- ------- ----- -- ----<br>-------- ------- -- ---------- --- - --- ----- ----- ----<br>---- --- --- ----- --- ---- ---- ------- ----- ---- -------<br>--- --- -- ----- as --- ---- -- --- ---- -- ------ ------<br>--- ----- -- ----,262413.2999999523,262412.59999990463,262085.413,262093.5,262102.079,262418.728,,43,as
screen,html.Screen,2_1_0_1_44,2022-02-04T11:47:06.943Z,,,,,,,,,,,,,,,,,53,,,,,,,,,,,,,,297.8719999046298,,response,,,,99,,,,,,,Space,keypress(Space),,,,,,,,---- -- ----- -- ------ - ------- --- ----------<br>------------- ------ ------ ---- ---- ------- ----- -- ----<br>-------- ------- -- ---------- --- - --- ----- ----- ----<br>---- --- --- ----- --- ---- ---- ------- ----- ---- -------<br>--- --- -- ----- -- you ---- -- --- ---- -- ------ ------<br>--- ----- -- ----,262717.39999985695,262716.59999990463,262402.062,262413.5,262418.728,262718.713,,44,you
screen,html.Screen,2_1_0_1_45,2022-02-04T11:47:07.247Z,,,,,,,,,,,,,,,,,53,,,,,,,,,,,,,,302.2870000000112,,response,,,,99,,,,,,,Space,keypress(Space),,,,,,,,---- -- ----- -- ------ - ------- --- ----------<br>------------- ------ ------ ---- ---- ------- ----- -- ----<br>-------- ------- -- ---------- --- - --- ----- ----- ----<br>---- --- --- ----- --- ---- ---- ------- ----- ---- -------<br>--- --- -- ----- -- --- want -- --- ---- -- ------ ------<br>--- ----- -- ----,263021.69999980927,263021,262702.047,262717.59999990463,262718.713,263035.384,,45,want
screen,html.Screen,2_1_0_1_46,2022-02-04T11:47:07.551Z,,,,,,,,,,,,,,,,,53,,,,,,,,,,,,,,289.21599990461254,,response,,,,99,,,,,,,Space,keypress(Space),,,,,,,,---- -- ----- -- ------ - ------- --- ----------<br>------------- ------ ------ ---- ---- ------- ----- -- ----<br>-------- ------- -- ---------- --- - --- ----- ----- ----<br>---- --- --- ----- --- ---- ---- ------- ----- ---- -------<br>--- --- -- ----- -- --- ---- to --- ---- -- ------ ------<br>--- ----- -- ----,263325.2999999523,263324.59999990463,263018.718,263021.89999985695,263035.384,263335.358,,46,to
screen,html.Screen,2_1_0_1_47,2022-02-04T11:47:07.895Z,,,,,,,,,,,,,,,,,53,,,,,,,,,,,,,,333.2419999046251,,response,,,,99,,,,,,,Space,keypress(Space),,,,,,,,"---- -- ----- -- ------ - ------- --- ----------<br>------------- ------ ------ ---- ---- ------- ----- -- ----<br>-------- ------- -- ---------- --- - --- ----- ----- ----<br>---- --- --- ----- --- ---- ---- ------- ----- ---- -------<br>--- --- -- ----- -- --- ---- -- be, ---- -- ------ ------<br>--- ----- -- ----",263669.39999985695,263668.59999990463,263318.692,263325.5,263335.358,263685.358,,47,"be,"
screen,html.Screen,2_1_0_1_48,2022-02-04T11:47:08.511Z,,,,,,,,,,,,,,,,,53,,,,,,,,,,,,,,599.2419999046251,,response,,,,99,,,,,,,Space,keypress(Space),,,,,,,,---- -- ----- -- ------ - ------- --- ----------<br>------------- ------ ------ ---- ---- ------- ----- -- ----<br>-------- ------- -- ---------- --- - --- ----- ----- ----<br>---- --- --- ----- --- ---- ---- ------- ----- ---- -------<br>--- --- -- ----- -- --- ---- -- --- even -- ------ ------<br>--- ----- -- ----,264285.2999999523,264284.59999990463,263668.692,263669.59999990463,263685.358,264302.049,,48,even
screen,html.Screen,2_1_0_1_49,2022-02-04T11:47:08.767Z,,,,,,,,,,,,,,,,,53,,,,,,,,,,,,,,238.5509999046335,,response,,,,99,,,,,,,Space,keypress(Space),,,,,,,,---- -- ----- -- ------ - ------- --- ----------<br>------------- ------ ------ ---- ---- ------- ----- -- ----<br>-------- ------- -- ---------- --- - --- ----- ----- ----<br>---- --- --- ----- --- ---- ---- ------- ----- ---- -------<br>--- --- -- ----- -- --- ---- -- --- ---- if ------ ------<br>--- ----- -- ----,264541.2999999523,264540.59999990463,264285.383,264285.5,264302.049,264552.059,,49,if
screen,html.Screen,2_1_0_1_50,2022-02-04T11:47:09.023Z,,,,,,,,,,,,,,,,,53,,,,,,,,,,,,,,244.5409999046242,,response,,,,99,,,,,,,Space,keypress(Space),,,,,,,,---- -- ----- -- ------ - ------- --- ----------<br>------------- ------ ------ ---- ---- ------- ----- -- ----<br>-------- ------- -- ---------- --- - --- ----- ----- ----<br>---- --- --- ----- --- ---- ---- ------- ----- ---- -------<br>--- --- -- ----- -- --- ---- -- --- ---- -- that's ------<br>--- ----- -- ----,264797.19999980927,264796.59999990463,264535.393,264541.5,264552.059,264802.048,,50,that's
screen,html.Screen,2_1_0_1_51,2022-02-04T11:47:09.511Z,,,,,,,,,,,,,,,,,53,,,,,,,,,,,,,,482.4519999999902,,response,,,,99,,,,,,,Space,keypress(Space),,,,,,,,---- -- ----- -- ------ - ------- --- ----------<br>------------- ------ ------ ---- ---- ------- ----- -- ----<br>-------- ------- -- ---------- --- - --- ----- ----- ----<br>---- --- --- ----- --- ---- ---- ------- ----- ---- -------<br>--- --- -- ----- -- --- ---- -- --- ---- -- ------ really<br>--- ----- -- ----,265285.19999980927,265284.5,264785.382,264797.5,264802.048,265302.041,,51,really
screen,html.Screen,2_1_0_1_52,2022-02-04T11:47:10.087Z,,,,,,,,,,,,,,,,,53,,,,,,,,,,,,,,558.1589998092386,,response,,,,99,,,,,,,Space,keypress(Space),,,,,,,,---- -- ----- -- ------ - ------- --- ----------<br>------------- ------ ------ ---- ---- ------- ----- -- ----<br>-------- ------- -- ---------- --- - --- ----- ----- ----<br>---- --- --- ----- --- ---- ---- ------- ----- ---- -------<br>--- --- -- ----- -- --- ---- -- --- ---- -- ------ ------<br>not ----- -- ----,265860.69999980927,265860.19999980927,265285.375,265285.2999999523,265302.041,265868.686,,52,not
screen,html.Screen,2_1_0_1_53,2022-02-04T11:47:10.479Z,,,,,,,,,,,,,,,,,53,,,,,,,,,,,,,,383.7139998569619,,response,,,,99,,,,,,,Space,keypress(Space),,,,,,,,---- -- ----- -- ------ - ------- --- ----------<br>------------- ------ ------ ---- ---- ------- ----- -- ----<br>-------- ------- -- ---------- --- - --- ----- ----- ----<br>---- --- --- ----- --- ---- ---- ------- ----- ---- -------<br>--- --- -- ----- -- --- ---- -- --- ---- -- ------ ------<br>--- close -- ----,266253,266252.39999985695,265852.02,265860.89999985695,265868.686,266268.667,,53,close
screen,html.Screen,2_1_0_1_54,2022-02-04T11:47:10.863Z,,,,,,,,,,,,,,,,,53,,,,,,,,,,,,,,367.93299990461674,,response,,,,99,,,,,,,Space,keypress(Space),,,,,,,,---- -- ----- -- ------ - ------- --- ----------<br>------------- ------ ------ ---- ---- ------- ----- -- ----<br>-------- ------- -- ---------- --- - --- ----- ----- ----<br>---- --- --- ----- --- ---- ---- ------- ----- ---- -------<br>--- --- -- ----- -- --- ---- -- --- ---- -- ------ ------<br>--- ----- at ----,266637.19999980927,266636.59999990463,266252.001,266253,266268.667,266651.988,,54,at
screen,html.Screen,2_1_0_1_55,2022-02-04T11:47:11.431Z,,,,,,,,,,,,,,,,,53,,,,,,,,,,,,,,552.211999809253,,response,,,,99,,,,,,,Space,keypress(Space),,,,,,,,---- -- ----- -- ------ - ------- --- ----------<br>------------- ------ ------ ---- ---- ------- ----- -- ----<br>-------- ------- -- ---------- --- - --- ----- ----- ----<br>---- --- --- ----- --- ---- ---- ------- ----- ---- -------<br>--- --- -- ----- -- --- ---- -- --- ---- -- ------ ------<br>--- ----- -- all.,267204.69999980927,267204.19999980927,266635.322,266637.19999980927,266651.988,267218.654,,55,all.
Item 99,flow.Loop,2_1_0_1,2022-02-04T11:47:11.431Z,,,,,,,,,,,,,,,,,,,,,,,,,,,,,,,21585.31899980927,,completion,,,,,C,,,,,,,,,,,silence,,,,,267204.89999985695,267204.19999980927,245518.885,245519.79999995232,245618.881,267218.654,,,
Question 1,html.Screen,2_1_0_2,2022-02-04T11:47:18.885Z,,,,,,,,,,,,,,,,,,,,,,,,,,,,true,FALSE,,7439.545999809285,,response,,,,99,C,,,,,,FALSE,click #choice-2,,,,silence,,,,,274658.89999985695,274658.19999980927,267201.988,267205.09999990463,267218.654,274668.581,,,
Question 2,html.Screen,2_1_0_3,2022-02-04T11:47:22.917Z,,,,,,,,,,,,,,,,,,,,,,,,,,,,true,TRUE,,4021.6189998092595,,response,,,,99,C,,,,,,TRUE,click #choice-1,,,,silence,,,,,278690.7999999523,278690.19999980927,274651.915,274659,274668.581,278718.545,,,
Item 99,flow.Sequence,2_1_0,2022-02-04T11:47:22.917Z,,,,,,,,,,,,,,,,,,,,,,,,,,,,,,,43154.535999809275,,completion,,,,,,,,,,,,,,,,,,,,,278691,278690.19999980927,235518.998,235524,235535.664,278718.545,,,
Holding screen,html.Screen,2_1_1_0,2022-02-04T11:47:32.930Z,,,,,,,,,,,,,,,,,,,,,,,,,,,,,,,9999.88500000001,,timeout,,,,,,,,,,,,,,,,,,,,,288703.7999999523,288701.764,278701.879,278691.09999990463,278718.545,288718.43,,,
screen,html.Screen,2_1_1_1_0,2022-02-04T11:47:33.696Z,,,,,,,,,,,,,,,,,54,,,,,,,,,,,,,,750.3699999523233,,response,,,,100,,,,,,,Space,keypress(Space),,,,,,,,At --- ---- --- ------ ----- ------- ---- -- --- ------- --<br>------- ---------- ------ -- ----- -- ----- -- ---- ------<br>--- ----- --- --- ------ -------- ----- --- ------ ----- --<br>----- ----- ---------- --- --- ------ ------ ---- -- ------<br>------- --- ------ ----- --- ---- ------- -- ---- --- --<br>------- ------,289469.7999999523,289468.7999999523,288701.764,288704.09999990463,288718.43,289485.068,,0,At
screen,html.Screen,2_1_1_1_1,2022-02-04T11:47:34.031Z,,,,,,,,,,,,,,,,,54,,,,,,,,,,,,,,319.53199990460416,,response,,,,100,,,,,,,Space,keypress(Space),,,,,,,,-- the ---- --- ------ ----- ------- ---- -- --- ------- --<br>------- ---------- ------ -- ----- -- ----- -- ---- ------<br>--- ----- --- --- ------ -------- ----- --- ------ ----- --<br>----- ----- ---------- --- --- ------ ------ ---- -- ------<br>------- --- ------ ----- --- ---- ------- -- ---- --- --<br>------- ------,289805.2999999523,289804.59999990463,289468.402,289470,289485.068,289818.42,,1,the
screen,html.Screen,2_1_1_1_2,2022-02-04T11:47:34.455Z,,,,,,,,,,,,,,,,,54,,,,,,,,,,,,,,409.8799999523326,,response,,,,100,,,,,,,Space,keypress(Space),,,,,,,,-- --- time --- ------ ----- ------- ---- -- --- ------- --<br>------- ---------- ------ -- ----- -- ----- -- ---- ------<br>--- ----- --- --- ------ -------- ----- --- ------ ----- --<br>----- ----- ---------- --- --- ------ ------ ---- -- ------<br>------- --- ------ ----- --- ---- ------- -- ---- --- --<br>------- ------,290229,290228.2999999523,289801.754,289805.5,289818.42,290235.1,,2,time
screen,html.Screen,2_1_1_1_3,2022-02-04T11:47:34.846Z,,,,,,,,,,,,,,,,,54,,,,,,,,,,,,,,385.0999998092884,,response,,,,100,,,,,,,Space,keypress(Space),,,,,,,,-- --- ---- the ------ ----- ------- ---- -- --- ------- --<br>------- ---------- ------ -- ----- -- ----- -- ---- ------<br>--- ----- --- --- ------ -------- ----- --- ------ ----- --<br>----- ----- ---------- --- --- ------ ------ ---- -- ------<br>------- --- ------ ----- --- ---- ------- -- ---- --- --<br>------- ------,290621,290620.19999980927,290218.434,290229.19999980927,290235.1,290635.123,,3,the
screen,html.Screen,2_1_1_1_4,2022-02-04T11:47:35.255Z,,,,,,,,,,,,,,,,,54,,,,,,,,,,,,,,393.17699995229486,,response,,,,100,,,,,,,Space,keypress(Space),,,,,,,,-- --- ---- --- French ----- ------- ---- -- --- ------- --<br>------- ---------- ------ -- ----- -- ----- -- ---- ------<br>--- ----- --- --- ------ -------- ----- --- ------ ----- --<br>----- ----- ---------- --- --- ------ ------ ---- -- ------<br>------- --- ------ ----- --- ---- ------- -- ---- --- --<br>------- ------,291029,291028.2999999523,290618.457,290621.09999990463,290635.123,291035.113,,4,French
screen,html.Screen,2_1_1_1_5,2022-02-04T11:47:35.767Z,,,,,,,,,,,,,,,,,54,,,,,,,,,,,,,,505.1869999523042,,response,,,,100,,,,,,,Space,keypress(Space),,,,,,,,-- --- ---- --- ------ crown ------- ---- -- --- ------- --<br>------- ---------- ------ -- ----- -- ----- -- ---- ------<br>--- ----- --- --- ------ -------- ----- --- ------ ----- --<br>----- ----- ---------- --- --- ------ ------ ---- -- ------<br>------- --- ------ ----- --- ---- ------- -- ---- --- --<br>------- ------,291541,291540.2999999523,291018.447,291029.19999980927,291035.113,291551.692,,5,crown
screen,html.Screen,2_1_1_1_6,2022-02-04T11:47:36.206Z,,,,,,,,,,,,,,,,,54,,,,,,,,,,,,,,428.6079999523354,,response,,,,100,,,,,,,Space,keypress(Space),,,,,,,,-- --- ---- --- ------ ----- secured ---- -- --- ------- --<br>------- ---------- ------ -- ----- -- ----- -- ---- ------<br>--- ----- --- --- ------ -------- ----- --- ------ ----- --<br>----- ----- ---------- --- --- ------ ------ ---- -- ------<br>------- --- ------ ----- --- ---- ------- -- ---- --- --<br>------- ------,291981,291980.2999999523,291535.026,291541.19999980927,291551.692,291985.104,,6,secured
screen,html.Screen,2_1_1_1_7,2022-02-04T11:47:36.728Z,,,,,,,,,,,,,,,,,54,,,,,,,,,,,,,,515.2959998569568,,response,,,,100,,,,,,,Space,keypress(Space),,,,,,,,-- --- ---- --- ------ ----- ------- much -- --- ------- --<br>------- ---------- ------ -- ----- -- ----- -- ---- ------<br>--- ----- --- --- ------ -------- ----- --- ------ ----- --<br>----- ----- ---------- --- --- ------ ------ ---- -- ------<br>------- --- ------ ----- --- ---- ------- -- ---- --- --<br>------- ------,292502.09999990463,292500.39999985695,291968.438,291981.19999980927,291985.104,292518.351,,7,much
screen,html.Screen,2_1_1_1_8,2022-02-04T11:47:37.206Z,,,,,,,,,,,,,,,,,54,,,,,,,,,,,,,,461.94899995229207,,response,,,,100,,,,,,,Space,keypress(Space),,,,,,,,-- --- ---- --- ------ ----- ------- ---- of --- ------- --<br>------- ---------- ------ -- ----- -- ----- -- ---- ------<br>--- ----- --- --- ------ -------- ----- --- ------ ----- --<br>----- ----- ---------- --- --- ------ ------ ---- -- ------<br>------- --- ------ ----- --- ---- ------- -- ---- --- --<br>------- ------,292981,292980.2999999523,292501.685,292502.19999980927,292518.351,292985.045,,8,of
screen,html.Screen,2_1_1_1_9,2022-02-04T11:47:37.630Z,,,,,,,,,,,,,,,,,54,,,,,,,,,,,,,,419.2549999523326,,response,,,,100,,,,,,,Space,keypress(Space),,,,,,,,-- --- ---- --- ------ ----- ------- ---- -- its ------- --<br>------- ---------- ------ -- ----- -- ----- -- ---- ------<br>--- ----- --- --- ------ -------- ----- --- ------ ----- --<br>----- ----- ---------- --- --- ------ ------ ---- -- ------<br>------- --- ------ ----- --- ---- ------- -- ---- --- --<br>------- ------,293405,293404.2999999523,292968.379,292981.19999980927,292985.045,293418.401,,9,its
screen,html.Screen,2_1_1_1_10,2022-02-04T11:47:38.175Z,,,,,,,,,,,,,,,,,54,,,,,,,,,,,,,,529.9989998569363,,response,,,,100,,,,,,,Space,keypress(Space),,,,,,,,-- --- ---- --- ------ ----- ------- ---- -- --- revenue --<br>------- ---------- ------ -- ----- -- ----- -- ---- ------<br>--- ----- --- --- ------ -------- ----- --- ------ ----- --<br>----- ----- ---------- --- --- ------ ------ ---- -- ------<br>------- --- ------ ----- --- ---- ------- -- ---- --- --<br>------- ------,293949,293948.39999985695,293401.735,293405.09999990463,293418.401,293951.742,,10,revenue
screen,html.Screen,2_1_1_1_11,2022-02-04T11:47:39.534Z,,,,,,,,,,,,,,,,,54,,,,,,,,,,,,,,1356.4579998092377,,response,,,,100,,,,,,,Space,keypress(Space),,,,,,,,-- --- ---- --- ------ ----- ------- ---- -- --- ------- by<br>------- ---------- ------ -- ----- -- ----- -- ---- ------<br>--- ----- --- --- ------ -------- ----- --- ------ ----- --<br>----- ----- ---------- --- --- ------ ------ ---- -- ------<br>------- --- ------ ----- --- ---- ------- -- ---- --- --<br>------- ------,295309,295308.19999980927,293935.076,293949.19999980927,293951.742,295318.328,,11,by
screen,html.Screen,2_1_1_1_12,2022-02-04T11:47:39.966Z,,,,,,,,,,,,,,,,,54,,,,,,,,,,,,,,421.8719998092856,,response,,,,100,,,,,,,Space,keypress(Space),,,,,,,,-- --- ---- --- ------ ----- ------- ---- -- --- ------- --<br>issuing ---------- ------ -- ----- -- ----- -- ---- ------<br>--- ----- --- --- ------ -------- ----- --- ------ ----- --<br>----- ----- ---------- --- --- ------ ------ ---- -- ------<br>------- --- ------ ----- --- ---- ------- -- ---- --- --<br>------- ------,295740.89999985695,295740.19999980927,295301.662,295309.09999990463,295318.328,295751.686,,12,issuing
screen,html.Screen,2_1_1_1_13,2022-02-04T11:47:40.630Z,,,,,,,,,,,,,,,,,54,,,,,,,,,,,,,,652.5139998092782,,response,,,,100,,,,,,,Space,keypress(Space),,,,,,,,-- --- ---- --- ------ ----- ------- ---- -- --- ------- --<br>------- government ------ -- ----- -- ----- -- ---- ------<br>--- ----- --- --- ------ -------- ----- --- ------ ----- --<br>----- ----- ---------- --- --- ------ ------ ---- -- ------<br>------- --- ------ ----- --- ---- ------- -- ---- --- --<br>------- ------,296404.89999985695,296404.19999980927,295735.02,295741.09999990463,295751.686,296418.333,,13,government
screen,html.Screen,2_1_1_1_14,2022-02-04T11:47:43.182Z,,,,,,,,,,,,,,,,,54,,,,,,,,,,,,,,2537.866999809281,,response,,,,100,,,,,,,Space,keypress(Space),,,,,,,,-- --- ---- --- ------ ----- ------- ---- -- --- ------- --<br>------- ---------- bonds. -- ----- -- ----- -- ---- ------<br>--- ----- --- --- ------ -------- ----- --- ------ ----- --<br>----- ----- ---------- --- --- ------ ------ ---- -- ------<br>------- --- ------ ----- --- ---- ------- -- ---- --- --<br>------- ------,298956.89999985695,298956.19999980927,296401.667,296405.09999990463,296418.333,298968.258,,14,bonds.
screen,html.Screen,2_1_1_1_15,2022-02-04T11:47:43.727Z,,,,,,,,,,,,,,,,,54,,,,,,,,,,,,,,532.2420000000275,,response,,,,100,,,,,,,Space,keypress(Space),,,,,,,,-- --- ---- --- ------ ----- ------- ---- -- --- ------- --<br>------- ---------- ------ In ----- -- ----- -- ---- ------<br>--- ----- --- --- ------ -------- ----- --- ------ ----- --<br>----- ----- ---------- --- --- ------ ------ ---- -- ------<br>------- --- ------ ----- --- ---- ------- -- ---- --- --<br>------- ------,299501.39999985695,299500.5,298951.592,298957.09999990463,298968.258,299518.332,,15,In
screen,html.Screen,2_1_1_1_16,2022-02-04T11:47:44.031Z,,,,,,,,,,,,,,,,,54,,,,,,,,,,,,,,285.9679999523214,,response,,,,100,,,,,,,Space,keypress(Space),,,,,,,,"-- --- ---- --- ------ ----- ------- ---- -- --- ------- --<br>------- ---------- ------ -- 1727, -- ----- -- ---- ------<br>--- ----- --- --- ------ -------- ----- --- ------ ----- --<br>----- ----- ---------- --- --- ------ ------ ---- -- ------<br>------- --- ------ ----- --- ---- ------- -- ---- --- --<br>------- ------",299805.09999990463,299804.2999999523,299501.666,299501.5,299518.332,299818.327,,16,"1727,"
screen,html.Screen,2_1_1_1_17,2022-02-04T11:47:44.574Z,,,,,,,,,,,,,,,,,54,,,,,,,,,,,,,,529.9729999523261,,response,,,,100,,,,,,,Space,keypress(Space),,,,,,,,-- --- ---- --- ------ ----- ------- ---- -- --- ------- --<br>------- ---------- ------ -- ----- in ----- -- ---- ------<br>--- ----- --- --- ------ -------- ----- --- ------ ----- --<br>----- ----- ---------- --- --- ------ ------ ---- -- ------<br>------- --- ------ ----- --- ---- ------- -- ---- --- --<br>------- ------,300349,300348.2999999523,299801.661,299805.19999980927,299818.327,300351.684,,17,in
screen,html.Screen,2_1_1_1_18,2022-02-04T11:47:45.038Z,,,,,,,,,,,,,,,,,54,,,,,,,,,,,,,,460.51599980925675,,response,,,,100,,,,,,,Space,keypress(Space),,,,,,,,-- --- ---- --- ------ ----- ------- ---- -- --- ------- --<br>------- ---------- ------ -- ----- -- order -- ---- ------<br>--- ----- --- --- ------ -------- ----- --- ------ ----- --<br>----- ----- ---------- --- --- ------ ------ ---- -- ------<br>------- --- ------ ----- --- ---- ------- -- ---- --- --<br>------- ------,300812.89999985695,300812.19999980927,300335.018,300349.19999980927,300351.684,300818.285,,18,order
screen,html.Screen,2_1_1_1_19,2022-02-04T11:47:45.622Z,,,,,,,,,,,,,,,,,54,,,,,,,,,,,,,,577.8149999046582,,response,,,,100,,,,,,,Space,keypress(Space),,,,,,,,-- --- ---- --- ------ ----- ------- ---- -- --- ------- --<br>------- ---------- ------ -- ----- -- ----- to ---- ------<br>--- ----- --- --- ------ -------- ----- --- ------ ----- --<br>----- ----- ---------- --- --- ------ ------ ---- -- ------<br>------- --- ------ ----- --- ---- ------- -- ---- --- --<br>------- ------,301396.89999985695,301396.09999990463,300801.619,300813.09999990463,300818.285,301401.622,,19,to
screen,html.Screen,2_1_1_1_20,2022-02-04T11:47:45.966Z,,,,,,,,,,,,,,,,,54,,,,,,,,,,,,,,338.5779998092912,,response,,,,100,,,,,,,Space,keypress(Space),,,,,,,,-- --- ---- --- ------ ----- ------- ---- -- --- ------- --<br>------- ---------- ------ -- ----- -- ----- -- save ------<br>--- ----- --- --- ------ -------- ----- --- ------ ----- --<br>----- ----- ---------- --- --- ------ ------ ---- -- ------<br>------- --- ------ ----- --- ---- ------- -- ---- --- --<br>------- ------,301741,301740.19999980927,301384.956,301397,301401.622,301751.675,,20,save
screen,html.Screen,2_1_1_1_21,2022-02-04T11:47:46.422Z,,,,,,,,,,,,,,,,,54,,,,,,,,,,,,,,444.5249998092768,,response,,,,100,,,,,,,Space,keypress(Space),,,,,,,,"-- --- ---- --- ------ ----- ------- ---- -- --- ------- --<br>------- ---------- ------ -- ----- -- ----- -- ---- money,<br>--- ----- --- --- ------ -------- ----- --- ------ ----- --<br>----- ----- ---------- --- --- ------ ------ ---- -- ------<br>------- --- ------ ----- --- ---- ------- -- ---- --- --<br>------- ------",302197,302196.19999980927,301735.009,301741.09999990463,301751.675,302201.65,,21,"money,"
screen,html.Screen,2_1_1_1_22,2022-02-04T11:47:46.902Z,,,,,,,,,,,,,,,,,54,,,,,,,,,,,,,,474.54999980924185,,response,,,,100,,,,,,,Space,keypress(Space),,,,,,,,-- --- ---- --- ------ ----- ------- ---- -- --- ------- --<br>------- ---------- ------ -- ----- -- ----- -- ---- ------<br>the ----- --- --- ------ -------- ----- --- ------ ----- --<br>----- ----- ---------- --- --- ------ ------ ---- -- ------<br>------- --- ------ ----- --- ---- ------- -- ---- --- --<br>------- ------,302676.7999999523,302676.19999980927,302184.984,302197.19999980927,302201.65,302684.997,,22,the
screen,html.Screen,2_1_1_1_23,2022-02-04T11:47:47.566Z,,,,,,,,,,,,,,,,,54,,,,,,,,,,,,,,655.2029998092912,,response,,,,100,,,,,,,Space,keypress(Space),,,,,,,,-- --- ---- --- ------ ----- ------- ---- -- --- ------- --<br>------- ---------- ------ -- ----- -- ----- -- ---- ------<br>--- state --- --- ------ -------- ----- --- ------ ----- --<br>----- ----- ---------- --- --- ------ ------ ---- -- ------<br>------- --- ------ ----- --- ---- ------- -- ---- --- --<br>------- ------,303340.89999985695,303340.19999980927,302668.331,302677,302684.997,303351.595,,23,state
screen,html.Screen,2_1_1_1_24,2022-02-04T11:47:47.902Z,,,,,,,,,,,,,,,,,54,,,,,,,,,,,,,,324.6049998092931,,response,,,,100,,,,,,,Space,keypress(Space),,,,,,,,-- --- ---- --- ------ ----- ------- ---- -- --- ------- --<br>------- ---------- ------ -- ----- -- ----- -- ---- ------<br>--- ----- cut --- ------ -------- ----- --- ------ ----- --<br>----- ----- ---------- --- --- ------ ------ ---- -- ------<br>------- --- ------ ----- --- ---- ------- -- ---- --- --<br>------- ------,303676.89999985695,303676.19999980927,303334.929,303341.09999990463,303351.595,303684.943,,24,cut
screen,html.Screen,2_1_1_1_25,2022-02-04T11:47:48.206Z,,,,,,,,,,,,,,,,,54,,,,,,,,,,,,,,295.15699990460416,,response,,,,100,,,,,,,Space,keypress(Space),,,,,,,,-- --- ---- --- ------ ----- ------- ---- -- --- ------- --<br>------- ---------- ------ -- ----- -- ----- -- ---- ------<br>--- ----- --- the ------ -------- ----- --- ------ ----- --<br>----- ----- ---------- --- --- ------ ------ ---- -- ------<br>------- --- ------ ----- --- ---- ------- -- ---- --- --<br>------- ------,303980.7999999523,303980.09999990463,303668.277,303677.09999990463,303684.943,303984.955,,25,the
screen,html.Screen,2_1_1_1_26,2022-02-04T11:47:48.702Z,,,,,,,,,,,,,,,,,54,,,,,,,,,,,,,,491.14499990461627,,response,,,,100,,,,,,,Space,keypress(Space),,,,,,,,-- --- ---- --- ------ ----- ------- ---- -- --- ------- --<br>------- ---------- ------ -- ----- -- ----- -- ---- ------<br>--- ----- --- --- bonds' -------- ----- --- ------ ----- --<br>----- ----- ---------- --- --- ------ ------ ---- -- ------<br>------- --- ------ ----- --- ---- ------- -- ---- --- --<br>------- ------,304476.89999985695,304476.09999990463,303968.289,303981,303984.955,304484.938,,26,bonds'
screen,html.Screen,2_1_1_1_27,2022-02-04T11:47:49.254Z,,,,,,,,,,,,,,,,,54,,,,,,,,,,,,,,543.1619999046088,,response,,,,100,,,,,,,Space,keypress(Space),,,,,,,,-- --- ---- --- ------ ----- ------- ---- -- --- ------- --<br>------- ---------- ------ -- ----- -- ----- -- ---- ------<br>--- ----- --- --- ------ interest ----- --- ------ ----- --<br>----- ----- ---------- --- --- ------ ------ ---- -- ------<br>------- --- ------ ----- --- ---- ------- -- ---- --- --<br>------- ------,305028.89999985695,305028.09999990463,304468.272,304477,304484.938,305034.937,,27,interest
screen,html.Screen,2_1_1_1_28,2022-02-04T11:47:49.870Z,,,,,,,,,,,,,,,,,54,,,,,,,,,,,,,,609.1629999046563,,response,,,,100,,,,,,,Space,keypress(Space),,,,,,,,-- --- ---- --- ------ ----- ------- ---- -- --- ------- --<br>------- ---------- ------ -- ----- -- ----- -- ---- ------<br>--- ----- --- --- ------ -------- rate. --- ------ ----- --<br>----- ----- ---------- --- --- ------ ------ ---- -- ------<br>------- --- ------ ----- --- ---- ------- -- ---- --- --<br>------- ------,305644.7999999523,305644.09999990463,305018.271,305029,305034.937,305651.622,,28,rate.
screen,html.Screen,2_1_1_1_29,2022-02-04T11:47:50.646Z,,,,,,,,,,,,,,,,,54,,,,,,,,,,,,,,768.4779999046586,,response,,,,100,,,,,,,Space,keypress(Space),,,,,,,,-- --- ---- --- ------ ----- ------- ---- -- --- ------- --<br>------- ---------- ------ -- ----- -- ----- -- ---- ------<br>--- ----- --- --- ------ -------- ----- The ------ ----- --<br>----- ----- ---------- --- --- ------ ------ ---- -- ------<br>------- --- ------ ----- --- ---- ------- -- ---- --- --<br>------- ------,306420.89999985695,306420.09999990463,305634.956,305645,305651.622,306434.927,,29,The
screen,html.Screen,2_1_1_1_30,2022-02-04T11:47:53.614Z,,,,,,,,,,,,,,,,,54,,,,,,,,,,,,,,2953.27299980924,,response,,,,100,,,,,,,Space,keypress(Space),,,,,,,,-- --- ---- --- ------ ----- ------- ---- -- --- ------- --<br>------- ---------- ------ -- ----- -- ----- -- ---- ------<br>--- ----- --- --- ------ -------- ----- --- market ----- --<br>----- ----- ---------- --- --- ------ ------ ---- -- ------<br>------- --- ------ ----- --- ---- ------- -- ---- --- --<br>------- ------,309388.89999985695,309388.19999980927,306418.261,306421.09999990463,306434.927,309401.448,,30,market
screen,html.Screen,2_1_1_1_31,2022-02-04T11:47:53.893Z,,,,,,,,,,,,,,,,,54,,,,,,,,,,,,,,265.05200000002515,,response,,,,100,,,,,,,Space,keypress(Space),,,,,,,,-- --- ---- --- ------ ----- ------- ---- -- --- ------- --<br>------- ---------- ------ -- ----- -- ----- -- ---- ------<br>--- ----- --- --- ------ -------- ----- --- ------ value --<br>----- ----- ---------- --- --- ------ ------ ---- -- ------<br>------- --- ------ ----- --- ---- ------- -- ---- --- --<br>------- ------,309667.39999985695,309666.5,309384.782,309389.09999990463,309401.448,309668.246,,31,value
screen,html.Screen,2_1_1_1_32,2022-02-04T11:47:54.302Z,,,,,,,,,,,,,,,,,54,,,,,,,,,,,,,,407.85399990464794,,response,,,,100,,,,,,,Space,keypress(Space),,,,,,,,-- --- ---- --- ------ ----- ------- ---- -- --- ------- --<br>------- ---------- ------ -- ----- -- ----- -- ---- ------<br>--- ----- --- --- ------ -------- ----- --- ------ ----- of<br>----- ----- ---------- --- --- ------ ------ ---- -- ------<br>------- --- ------ ----- --- ---- ------- -- ---- --- --<br>------- ------,310076.7999999523,310076.09999990463,309651.58,309667.5,309668.246,310084.871,,32,of
screen,html.Screen,2_1_1_1_33,2022-02-04T11:47:54.726Z,,,,,,,,,,,,,,,,,54,,,,,,,,,,,,,,415.3289998092805,,response,,,,100,,,,,,,Space,keypress(Space),,,,,,,,-- --- ---- --- ------ ----- ------- ---- -- --- ------- --<br>------- ---------- ------ -- ----- -- ----- -- ---- ------<br>--- ----- --- --- ------ -------- ----- --- ------ ----- --<br>these ----- ---------- --- --- ------ ------ ---- -- ------<br>------- --- ------ ----- --- ---- ------- -- ---- --- --<br>------- ------,310500.89999985695,310500.19999980927,310068.205,310077,310084.871,310518.191,,33,these
screen,html.Screen,2_1_1_1_34,2022-02-04T11:47:55.134Z,,,,,,,,,,,,,,,,,54,,,,,,,,,,,,,,389.90899990464095,,response,,,,100,,,,,,,Space,keypress(Space),,,,,,,,-- --- ---- --- ------ ----- ------- ---- -- --- ------- --<br>------- ---------- ------ -- ----- -- ----- -- ---- ------<br>--- ----- --- --- ------ -------- ----- --- ------ ----- --<br>----- bonds ---------- --- --- ------ ------ ---- -- ------<br>------- --- ------ ----- --- ---- ------- -- ---- --- --<br>------- ------,310908.69999980927,310908.09999990463,310501.525,310501.19999980927,310518.191,310918.21,,34,bonds
screen,html.Screen,2_1_1_1_35,2022-02-04T11:47:55.518Z,,,,,,,,,,,,,,,,,54,,,,,,,,,,,,,,373.8899999046116,,response,,,,100,,,,,,,Space,keypress(Space),,,,,,,,"-- --- ---- --- ------ ----- ------- ---- -- --- ------- --<br>------- ---------- ------ -- ----- -- ----- -- ---- ------<br>--- ----- --- --- ------ -------- ----- --- ------ ----- --<br>----- ----- plummeted, --- --- ------ ------ ---- -- ------<br>------- --- ------ ----- --- ---- ------- -- ---- --- --<br>------- ------",311292.7999999523,311292.09999990463,310901.544,310908.89999985695,310918.21,311301.565,,35,"plummeted,"
screen,html.Screen,2_1_1_1_36,2022-02-04T11:47:56.166Z,,,,,,,,,,,,,,,,,54,,,,,,,,,,,,,,638.5349999046302,,response,,,,100,,,,,,,Space,keypress(Space),,,,,,,,-- --- ---- --- ------ ----- ------- ---- -- --- ------- --<br>------- ---------- ------ -- ----- -- ----- -- ---- ------<br>--- ----- --- --- ------ -------- ----- --- ------ ----- --<br>----- ----- ---------- and --- ------ ------ ---- -- ------<br>------- --- ------ ----- --- ---- ------- -- ---- --- --<br>------- ------,311940.7999999523,311940.09999990463,311284.899,311292.89999985695,311301.565,311951.522,,36,and
screen,html.Screen,2_1_1_1_37,2022-02-04T11:47:56.470Z,,,,,,,,,,,,,,,,,54,,,,,,,,,,,,,,292.57799990463536,,response,,,,100,,,,,,,Space,keypress(Space),,,,,,,,-- --- ---- --- ------ ----- ------- ---- -- --- ------- --<br>------- ---------- ------ -- ----- -- ----- -- ---- ------<br>--- ----- --- --- ------ -------- ----- --- ------ ----- --<br>----- ----- ---------- --- the ------ ------ ---- -- ------<br>------- --- ------ ----- --- ---- ------- -- ---- --- --<br>------- ------,312244.7999999523,312244.09999990463,311934.856,311940.89999985695,311951.522,312251.543,,37,the
screen,html.Screen,2_1_1_1_38,2022-02-04T11:47:57.222Z,,,,,,,,,,,,,,,,,54,,,,,,,,,,,,,,744.4569999999949,,response,,,,100,,,,,,,Space,keypress(Space),,,,,,,,-- --- ---- --- ------ ----- ------- ---- -- --- ------- --<br>------- ---------- ------ -- ----- -- ----- -- ---- ------<br>--- ----- --- --- ------ -------- ----- --- ------ ----- --<br>----- ----- ---------- --- --- market ------ ---- -- ------<br>------- --- ------ ----- --- ---- ------- -- ---- --- --<br>------- ------,312996.7999999523,312996,312234.877,312245,312251.543,313001.519,,38,market
screen,html.Screen,2_1_1_1_39,2022-02-04T11:47:57.486Z,,,,,,,,,,,,,,,,,54,,,,,,,,,,,,,,258.48100000002887,,response,,,,100,,,,,,,Space,keypress(Space),,,,,,,,-- --- ---- --- ------ ----- ------- ---- -- --- ------- --<br>------- ---------- ------ -- ----- -- ----- -- ---- ------<br>--- ----- --- --- ------ -------- ----- --- ------ ----- --<br>----- ----- ---------- --- --- ------ became ---- -- ------<br>------- --- ------ ----- --- ---- ------- -- ---- --- --<br>------- ------,313260.5,313260,312984.853,312997,313001.519,313268.207,,39,became
screen,html.Screen,2_1_1_1_40,2022-02-04T11:47:58.510Z,,,,,,,,,,,,,,,,,54,,,,,,,,,,,,,,1015.7930000000051,,response,,,,100,,,,,,,Space,keypress(Space),,,,,,,,-- --- ---- --- ------ ----- ------- ---- -- --- ------- --<br>------- ---------- ------ -- ----- -- ----- -- ---- ------<br>--- ----- --- --- ------ -------- ----- --- ------ ----- --<br>----- ----- ---------- --- --- ------ ------ wary -- ------<br>------- --- ------ ----- --- ---- ------- -- ---- --- --<br>------- ------,314284.7999999523,314284,313251.541,313260.59999990463,313268.207,314301.438,,40,wary
screen,html.Screen,2_1_1_1_41,2022-02-04T11:47:58.798Z,,,,,,,,,,,,,,,,,54,,,,,,,,,,,,,,270.56199999997625,,response,,,,100,,,,,,,Space,keypress(Space),,,,,,,,-- --- ---- --- ------ ----- ------- ---- -- --- ------- --<br>------- ---------- ------ -- ----- -- ----- -- ---- ------<br>--- ----- --- --- ------ -------- ----- --- ------ ----- --<br>----- ----- ---------- --- --- ------ ------ ---- of ------<br>------- --- ------ ----- --- ---- ------- -- ---- --- --<br>------- ------,314572.69999980927,314572,314284.772,314285,314301.438,314584.831,,41,of
screen,html.Screen,2_1_1_1_42,2022-02-04T11:47:59.238Z,,,,,,,,,,,,,,,,,54,,,,,,,,,,,,,,427.268999904627,,response,,,,100,,,,,,,Space,keypress(Space),,,,,,,,-- --- ---- --- ------ ----- ------- ---- -- --- ------- --<br>------- ---------- ------ -- ----- -- ----- -- ---- ------<br>--- ----- --- --- ------ -------- ----- --- ------ ----- --<br>----- ----- ---------- --- --- ------ ------ ---- -- French<br>------- --- ------ ----- --- ---- ------- -- ---- --- --<br>------- ------,315012.69999980927,315012.09999990463,314568.165,314572.89999985695,314584.831,315018.158,,42,French
screen,html.Screen,2_1_1_1_43,2022-02-04T11:47:59.862Z,,,,,,,,,,,,,,,,,54,,,,,,,,,,,,,,617.741999856953,,response,,,,100,,,,,,,Space,keypress(Space),,,,,,,,-- --- ---- --- ------ ----- ------- ---- -- --- ------- --<br>------- ---------- ------ -- ----- -- ----- -- ---- ------<br>--- ----- --- --- ------ -------- ----- --- ------ ----- --<br>----- ----- ---------- --- --- ------ ------ ---- -- ------<br>credit. --- ------ ----- --- ---- ------- -- ---- --- --<br>------- ------,315636.69999980927,315635.89999985695,315001.492,315013,315018.158,315651.466,,43,credit.
screen,html.Screen,2_1_1_1_44,2022-02-04T11:48:00.518Z,,,,,,,,,,,,,,,,,54,,,,,,,,,,,,,,640.5339999999851,,response,,,,100,,,,,,,Space,keypress(Space),,,,,,,,-- --- ---- --- ------ ----- ------- ---- -- --- ------- --<br>------- ---------- ------ -- ----- -- ----- -- ---- ------<br>--- ----- --- --- ------ -------- ----- --- ------ ----- --<br>----- ----- ---------- --- --- ------ ------ ---- -- ------<br>------- The ------ ----- --- ---- ------- -- ---- --- --<br>------- ------,316292.69999980927,316292,315634.8,315636.89999985695,315651.466,316301.489,,44,The
screen,html.Screen,2_1_1_1_45,2022-02-04T11:48:01.182Z,,,,,,,,,,,,,,,,,54,,,,,,,,,,,,,,654.5109999999986,,response,,,,100,,,,,,,Space,keypress(Space),,,,,,,,-- --- ---- --- ------ ----- ------- ---- -- --- ------- --<br>------- ---------- ------ -- ----- -- ----- -- ---- ------<br>--- ----- --- --- ------ -------- ----- --- ------ ----- --<br>----- ----- ---------- --- --- ------ ------ ---- -- ------<br>------- --- French ----- --- ---- ------- -- ---- --- --<br>------- ------,316956.7999999523,316956,316284.823,316292.89999985695,316301.489,316968.117,,45,French
screen,html.Screen,2_1_1_1_46,2022-02-04T11:48:01.422Z,,,,,,,,,,,,,,,,,54,,,,,,,,,,,,,,227.88299999997253,,response,,,,100,,,,,,,Space,keypress(Space),,,,,,,,-- --- ---- --- ------ ----- ------- ---- -- --- ------- --<br>------- ---------- ------ -- ----- -- ----- -- ---- ------<br>--- ----- --- --- ------ -------- ----- --- ------ ----- --<br>----- ----- ---------- --- --- ------ ------ ---- -- ------<br>------- --- ------ state --- ---- ------- -- ---- --- --<br>------- ------,317196.69999980927,317196,316951.451,316957,316968.117,317201.462,,46,state
screen,html.Screen,2_1_1_1_47,2022-02-04T11:48:01.838Z,,,,,,,,,,,,,,,,,54,,,,,,,,,,,,,,410.53800000000047,,response,,,,100,,,,,,,Space,keypress(Space),,,,,,,,-- --- ---- --- ------ ----- ------- ---- -- --- ------- --<br>------- ---------- ------ -- ----- -- ----- -- ---- ------<br>--- ----- --- --- ------ -------- ----- --- ------ ----- --<br>----- ----- ---------- --- --- ------ ------ ---- -- ------<br>------- --- ------ ----- was ---- ------- -- ---- --- --<br>------- ------,317612.69999980927,317612,317184.796,317196.7999999523,317201.462,317618.114,,47,was
screen,html.Screen,2_1_1_1_48,2022-02-04T11:48:02.174Z,,,,,,,,,,,,,,,,,54,,,,,,,,,,,,,,329.8859999999986,,response,,,,100,,,,,,,Space,keypress(Space),,,,,,,,-- --- ---- --- ------ ----- ------- ---- -- --- ------- --<br>------- ---------- ------ -- ----- -- ----- -- ---- ------<br>--- ----- --- --- ------ -------- ----- --- ------ ----- --<br>----- ----- ---------- --- --- ------ ------ ---- -- ------<br>------- --- ------ ----- --- left ------- -- ---- --- --<br>------- ------,317948.69999980927,317948,317601.448,317612.7999999523,317618.114,317951.446,,48,left
screen,html.Screen,2_1_1_1_49,2022-02-04T11:48:02.638Z,,,,,,,,,,,,,,,,,54,,,,,,,,,,,,,,460.5540000000037,,response,,,,100,,,,,,,Space,keypress(Space),,,,,,,,-- --- ---- --- ------ ----- ------- ---- -- --- ------- --<br>------- ---------- ------ -- ----- -- ----- -- ---- ------<br>--- ----- --- --- ------ -------- ----- --- ------ ----- --<br>----- ----- ---------- --- --- ------ ------ ---- -- ------<br>------- --- ------ ----- --- ---- without -- ---- --- --<br>------- ------,318412.69999980927,318412,317934.78,317948.89999985695,317951.446,318418.104,,49,without
screen,html.Screen,2_1_1_1_50,2022-02-04T11:48:03.118Z,,,,,,,,,,,,,,,,,54,,,,,,,,,,,,,,473.79599985695677,,response,,,,100,,,,,,,Space,keypress(Space),,,,,,,,-- --- ---- --- ------ ----- ------- ---- -- --- ------- --<br>------- ---------- ------ -- ----- -- ----- -- ---- ------<br>--- ----- --- --- ------ -------- ----- --- ------ ----- --<br>----- ----- ---------- --- --- ------ ------ ---- -- ------<br>------- --- ------ ----- --- ---- ------- an ---- --- --<br>------- ------,318892.59999990463,318891.89999985695,318401.438,318412.89999985695,318418.104,318901.427,,50,an
screen,html.Screen,2_1_1_1_51,2022-02-04T11:48:03.606Z,,,,,,,,,,,,,,,,,54,,,,,,,,,,,,,,478.57299999997485,,response,,,,100,,,,,,,Space,keypress(Space),,,,,,,,-- --- ---- --- ------ ----- ------- ---- -- --- ------- --<br>------- ---------- ------ -- ----- -- ----- -- ---- ------<br>--- ----- --- --- ------ -------- ----- --- ------ ----- --<br>----- ----- ---------- --- --- ------ ------ ---- -- ------<br>------- --- ------ ----- --- ---- ------- -- easy --- --<br>------- ------,319380.7999999523,319380,318884.761,318892.7999999523,318901.427,319384.778,,51,easy
screen,html.Screen,2_1_1_1_52,2022-02-04T11:48:03.999Z,,,,,,,,,,,,,,,,,54,,,,,,,,,,,,,,387.52199995232513,,response,,,,100,,,,,,,Space,keypress(Space),,,,,,,,-- --- ---- --- ------ ----- ------- ---- -- --- ------- --<br>------- ---------- ------ -- ----- -- ----- -- ---- ------<br>--- ----- --- --- ------ -------- ----- --- ------ ----- --<br>----- ----- ---------- --- --- ------ ------ ---- -- ------<br>------- --- ------ ----- --- ---- ------- -- ---- way --<br>------- ------,319773.09999990463,319772.2999999523,319368.112,319380.89999985695,319384.778,319784.775,,52,way
screen,html.Screen,2_1_1_1_53,2022-02-04T11:48:04.406Z,,,,,,,,,,,,,,,,,54,,,,,,,,,,,,,,395.2249999999767,,response,,,,100,,,,,,,Space,keypress(Space),,,,,,,,-- --- ---- --- ------ ----- ------- ---- -- --- ------- --<br>------- ---------- ------ -- ----- -- ----- -- ---- ------<br>--- ----- --- --- ------ -------- ----- --- ------ ----- --<br>----- ----- ---------- --- --- ------ ------ ---- -- ------<br>------- --- ------ ----- --- ---- ------- -- ---- --- of<br>------- ------,320180.59999990463,320180,319768.109,319773.19999980927,319784.775,320184.766,,53,of
screen,html.Screen,2_1_1_1_54,2022-02-04T11:48:04.854Z,,,,,,,,,,,,,,,,,54,,,,,,,,,,,,,,443.1339998569456,,response,,,,100,,,,,,,Space,keypress(Space),,,,,,,,-- --- ---- --- ------ ----- ------- ---- -- --- ------- --<br>------- ---------- ------ -- ----- -- ----- -- ---- ------<br>--- ----- --- --- ------ -------- ----- --- ------ ----- --<br>----- ----- ---------- --- --- ------ ------ ---- -- ------<br>------- --- ------ ----- --- ---- ------- -- ---- --- --<br>raising ------,320628.69999980927,320627.89999985695,320168.1,320180.7999999523,320184.766,320634.765,,54,raising
screen,html.Screen,2_1_1_1_55,2022-02-04T11:48:05.358Z,,,,,,,,,,,,,,,,,54,,,,,,,,,,,,,,497.1349998569349,,response,,,,100,,,,,,,Space,keypress(Space),,,,,,,,-- --- ---- --- ------ ----- ------- ---- -- --- ------- --<br>------- ---------- ------ -- ----- -- ----- -- ---- ------<br>--- ----- --- --- ------ -------- ----- --- ------ ----- --<br>----- ----- ---------- --- --- ------ ------ ---- -- ------<br>------- --- ------ ----- --- ---- ------- -- ---- --- --<br>------- money.,321132.59999990463,321131.89999985695,320618.099,320628.7999999523,320634.765,321134.774,,55,money.
Item 100,flow.Loop,2_1_1_1,2022-02-04T11:48:05.358Z,,,,,,,,,,,,,,,,,,,,,,,,,,,,,,,32413.469999856956,,completion,,,,,C,,,,,,,,,,,silence,,,,,321133,321131.89999985695,288701.764,288704,288718.43,321134.774,,,
Question 1,html.Screen,2_1_1_2,2022-02-04T11:48:08.188Z,,,,,,,,,,,,,,,,,,,,,,,,,,,,true,TRUE,,2826.825999904657,,response,,,,100,C,,,,,,TRUE,click #choice-1,,,,silence,,,,,323962.2999999523,323961.59999990463,321118.108,321133.09999990463,321134.774,323968.048,,,
Question 2,html.Screen,2_1_1_3,2022-02-04T11:48:10.884Z,,,,,,,,,,,,,,,,,,,,,,,,,,,,true,FALSE,,2689.6519998092554,,response,,,,100,C,,,,,,FALSE,click #choice-2,,,,silence,,,,,326658.2999999523,326657.69999980927,323951.382,323962.39999985695,323968.048,326668.038,,,
Item 100,flow.Sequence,2_1_1,2022-02-04T11:48:10.884Z,,,,,,,,,,,,,,,,,,,,,,,,,,,,,,,47939.15499980928,,completion,,,,,,,,,,,,,,,,,,,,,326658.39999985695,326657.69999980927,278701.879,278691.09999990463,278718.545,326668.038,,,
End of Practice,html.Page,2_1_2,2022-02-04T11:48:18.468Z,,,,,,,,,,,,,,,,,,,,,,,,,,,,,,,7574.261999952316,,form submission,,,,,,,,,,,,,,,,,,,,,334242.5,334242.2999999523,326651.372,326658.59999990463,326668.038,334251.274,,,
Practice,flow.Sequence,2_1,2022-02-04T11:48:18.468Z,,,,,,,,,,,,,,,,,,,,,,,,,,,,,,,98706.63599995233,,completion,,,,,,,,,,,,,,,,,,,,,334242.69999980927,334242.2999999523,235518.998,235524,235535.664,334251.274,,,
Trap_instruction,html.Page,2_2_0,2022-02-04T11:48:22.556Z,,,,,,,,,,,,,,,,,,,,,,,,,,,,,,,4079.0259999523405,,form submission,,,,,,,,,,,,,,,,,,,,,338330.5,338330.2999999523,334234.608,334242.7999999523,334251.274,338367.78,,,
trap_trial,html.Screen,2_2_1,2022-02-04T11:48:25.732Z,,,,,,,,,,,,,,,,,,,,,,,,,,,,true,1,,3137.719999999972,,response,,,,,,,,,,,1,click #choice-1,,,,,,,,,341506.19999980927,341505.5,338317.782,338330.69999980927,338367.78,341517.798,,,
end of trap trial,html.Page,2_2_2,2022-02-04T11:48:27.828Z,,,,,,,,,,,,,,,,,,,,,,,,,,,,,,,2084.9019998092554,,form submission,,,,,,,,,,,,,,,,,,,,,343603,343602.69999980927,341501.132,341506.2999999523,341517.798,343617.79,,,
Trap 1,flow.Sequence,2_2,2022-02-04T11:48:27.829Z,,,,,,,,,,,,,,,,,,,,,,,,,,,,,,,9351.42599980929,,completion,,,,,,,,,,,,,,,,,,,,,343603.19999980927,343602.69999980927,334234.608,334242.7999999523,334251.274,343617.79,,,
Standby,html.Page,2_3_0,2022-02-04T11:48:35.828Z,,,,,,,,,,,,,,,,,,,,,,,,,,,,,,,7999.71100000001,,timeout,,,,,,,,,,,,,,,,,,,,,351602.39999985695,351600.835,343601.124,343603.2999999523,343617.79,351617.501,,,
Holding screen,html.Screen,2_3_1_0_0,2022-02-04T11:48:42.828Z,,,,,,,,,,,,,,,,,,,,,,,,,,,,,,,7000.180999999982,,timeout,,,,,,,,,,,,,,,,,,,,,358602.2999999523,358601.016,351600.835,351602.7999999523,351617.501,358617.682,,,
screen,html.Screen,2_3_1_0_1_0,2022-02-04T11:48:45.023Z,,,,,,,,,,,,,,,,,2,,,,,,,,,,,,,,2178.2179998569773,,response,,,,1,C,,,,,,Space,keypress(Space),,,,instrumental,,,,Two ---- ------ --- ------- ---------- ------- ----------<br>--- --------- --- ----------- ------- ----- ------- ---<br>--------- ---- -- --- ---- -- --------- -- ---- -------<br>-- --------- ------ --- ----- ------ ---- --- --------- --<br>------ - ---- -- --- ----------- ------- ---- ----- -----<br>--- -------- - ------ ---- -- ----- ---- --- --- -----------<br>-- -------,360796.89999985695,360795.89999985695,358601.016,358602.69999980927,358617.682,360800.893,,0,Two
screen,html.Screen,2_3_1_0_1_1,2022-02-04T11:48:45.486Z,,,,,,,,,,,,,,,,,2,,,,,,,,,,,,,,458.60700000001816,,response,,,,1,C,,,,,,Space,keypress(Space),,,,instrumental,,,,--- days ------ --- ------- ---------- ------- ----------<br>--- --------- --- ----------- ------- ----- ------- ---<br>--------- ---- -- --- ---- -- --------- -- ---- -------<br>-- --------- ------ --- ----- ------ ---- --- --------- --<br>------ - ---- -- --- ----------- ------- ---- ----- -----<br>--- -------- - ------ ---- -- ----- ---- --- --- -----------<br>-- -------,361260.19999980927,361259.5,360784.227,360797,360800.893,361267.609,,1,days
screen,html.Screen,2_3_1_0_1_2,2022-02-04T11:48:45.950Z,,,,,,,,,,,,,,,,,2,,,,,,,,,,,,,,455.89100000000326,,response,,,,1,C,,,,,,Space,keypress(Space),,,,instrumental,,,,"--- ---- later, --- ------- ---------- ------- ----------<br>--- --------- --- ----------- ------- ----- ------- ---<br>--------- ---- -- --- ---- -- --------- -- ---- -------<br>-- --------- ------ --- ----- ------ ---- --- --------- --<br>------ - ---- -- --- ----------- ------- ---- ----- -----<br>--- -------- - ------ ---- -- ----- ---- --- --- -----------<br>-- -------",361724.2999999523,361723.5,361250.943,361260.2999999523,361267.609,361734.294,,2,"later,"
screen,html.Screen,2_3_1_0_1_3,2022-02-04T11:48:46.566Z,,,,,,,,,,,,,,,,,2,,,,,,,,,,,,,,605.1059998569544,,response,,,,1,C,,,,,,Space,keypress(Space),,,,instrumental,,,,--- ---- ------ the ------- ---------- ------- ----------<br>--- --------- --- ----------- ------- ----- ------- ---<br>--------- ---- -- --- ---- -- --------- -- ---- -------<br>-- --------- ------ --- ----- ------ ---- --- --------- --<br>------ - ---- -- --- ----------- ------- ---- ----- -----<br>--- -------- - ------ ---- -- ----- ---- --- --- -----------<br>-- -------,362340.2999999523,362339.39999985695,361717.628,361724.5,361734.294,362350.945,,3,the
screen,html.Screen,2_3_1_0_1_4,2022-02-04T11:48:47.062Z,,,,,,,,,,,,,,,,,2,,,,,,,,,,,,,,484.554999999993,,response,,,,1,C,,,,,,Space,keypress(Space),,,,instrumental,,,,--- ---- ------ --- British ---------- ------- ----------<br>--- --------- --- ----------- ------- ----- ------- ---<br>--------- ---- -- --- ---- -- --------- -- ---- -------<br>-- --------- ------ --- ----- ------ ---- --- --------- --<br>------ - ---- -- --- ----------- ------- ---- ----- -----<br>--- -------- - ------ ---- -- ----- ---- --- --- -----------<br>-- -------,362836.2999999523,362835.5,362334.279,362340.39999985695,362350.945,362850.965,,4,British
screen,html.Screen,2_3_1_0_1_5,2022-02-04T11:48:48.254Z,,,,,,,,,,,,,,,,,2,,,,,,,,,,,,,,1176.5349999999744,,response,,,,1,C,,,,,,Space,keypress(Space),,,,instrumental,,,,--- ---- ------ --- ------- astronomer ------- ----------<br>--- --------- --- ----------- ------- ----- ------- ---<br>--------- ---- -- --- ---- -- --------- -- ---- -------<br>-- --------- ------ --- ----- ------ ---- --- --------- --<br>------ - ---- -- --- ----------- ------- ---- ----- -----<br>--- -------- - ------ ---- -- ----- ---- --- --- -----------<br>-- -------,364028.2999999523,364027.5,362834.299,362836.39999985695,362850.965,364034.27,,5,astronomer
screen,html.Screen,2_3_1_0_1_6,2022-02-04T11:48:48.790Z,,,,,,,,,,,,,,,,,2,,,,,,,,,,,,,,529.3299999046139,,response,,,,1,C,,,,,,Space,keypress(Space),,,,instrumental,,,,--- ---- ------ --- ------- ---------- Richard ----------<br>--- --------- --- ----------- ------- ----- ------- ---<br>--------- ---- -- --- ---- -- --------- -- ---- -------<br>-- --------- ------ --- ----- ------ ---- --- --------- --<br>------ - ---- -- --- ----------- ------- ---- ----- -----<br>--- -------- - ------ ---- -- ----- ---- --- --- -----------<br>-- -------,364564.2999999523,364563.59999990463,364017.604,364028.5,364034.27,364567.611,,6,Richard
screen,html.Screen,2_3_1_0_1_7,2022-02-04T11:48:49.326Z,,,,,,,,,,,,,,,,,2,,,,,,,,,,,,,,531.8890000000247,,response,,,,1,C,,,,,,Space,keypress(Space),,,,instrumental,,,,--- ---- ------ --- ------- ---------- ------- Carrington<br>--- --------- --- ----------- ------- ----- ------- ---<br>--------- ---- -- --- ---- -- --------- -- ---- -------<br>-- --------- ------ --- ----- ------ ---- --- --------- --<br>------ - ---- -- --- ----------- ------- ---- ----- -----<br>--- -------- - ------ ---- -- ----- ---- --- --- -----------<br>-- -------,365100.19999980927,365099.5,364550.945,364564.39999985695,364567.611,365100.922,,7,Carrington
screen,html.Screen,2_3_1_0_1_8,2022-02-04T11:48:50.302Z,,,,,,,,,,,,,,,,,2,,,,,,,,,,,,,,974.5779999999795,,response,,,,1,C,,,,,,Space,keypress(Space),,,,instrumental,,,,--- ---- ------ --- ------- ---------- ------- ----------<br>was --------- --- ----------- ------- ----- ------- ---<br>--------- ---- -- --- ---- -- --------- -- ---- -------<br>-- --------- ------ --- ----- ------ ---- --- --------- --<br>------ - ---- -- --- ----------- ------- ---- ----- -----<br>--- -------- - ------ ---- -- ----- ---- --- --- -----------<br>-- -------,366076.2999999523,366075.5,365084.256,365100.2999999523,365100.922,366084.204,,8,was
screen,html.Screen,2_3_1_0_1_9,2022-02-04T11:48:50.726Z,,,,,,,,,,,,,,,,,2,,,,,,,,,,,,,,415.0959999522893,,response,,,,1,C,,,,,,Space,keypress(Space),,,,instrumental,,,,--- ---- ------ --- ------- ---------- ------- ----------<br>--- observing --- ----------- ------- ----- ------- ---<br>--------- ---- -- --- ---- -- --------- -- ---- -------<br>-- --------- ------ --- ----- ------ ---- --- --------- --<br>------ - ---- -- --- ----------- ------- ---- ----- -----<br>--- -------- - ------ ---- -- ----- ---- --- --- -----------<br>-- -------,366500,366499.2999999523,366067.538,366076.39999985695,366084.204,366500.911,,9,observing
screen,html.Screen,2_3_1_0_1_10,2022-02-04T11:48:51.222Z,,,,,,,,,,,,,,,,,2,,,,,,,,,,,,,,494.5889999999781,,response,,,,1,C,,,,,,Space,keypress(Space),,,,instrumental,,,,--- ---- ------ --- ------- ---------- ------- ----------<br>--- --------- the ----------- ------- ----- ------- ---<br>--------- ---- -- --- ---- -- --------- -- ---- -------<br>-- --------- ------ --- ----- ------ ---- --- --------- --<br>------ - ---- -- --- ----------- ------- ---- ----- -----<br>--- -------- - ------ ---- -- ----- ---- --- --- -----------<br>-- -------,366996.09999990463,366995.5,366484.245,366500.19999980927,366500.911,367000.875,,10,the
screen,html.Screen,2_3_1_0_1_11,2022-02-04T11:48:51.670Z,,,,,,,,,,,,,,,,,2,,,,,,,,,,,,,,442.625,,response,,,,1,C,,,,,,Space,keypress(Space),,,,instrumental,,,,--- ---- ------ --- ------- ---------- ------- ----------<br>--- --------- --- interesting ------- ----- ------- ---<br>--------- ---- -- --- ---- -- --------- -- ---- -------<br>-- --------- ------ --- ----- ------ ---- --- --------- --<br>------ - ---- -- --- ----------- ------- ---- ----- -----<br>--- -------- - ------ ---- -- ----- ---- --- --- -----------<br>-- -------,367444.19999980927,367443.5,366984.209,366996.39999985695,367000.875,367450.888,,11,interesting
screen,html.Screen,2_3_1_0_1_12,2022-02-04T11:48:52.110Z,,,,,,,,,,,,,,,,,2,,,,,,,,,,,,,,432.51199985697167,,response,,,,1,C,,,,,,Space,keypress(Space),,,,instrumental,,,,--- ---- ------ --- ------- ---------- ------- ----------<br>--- --------- --- ----------- sunspot ----- ------- ---<br>--------- ---- -- --- ---- -- --------- -- ---- -------<br>-- --------- ------ --- ----- ------ ---- --- --------- --<br>------ - ---- -- --- ----------- ------- ---- ----- -----<br>--- -------- - ------ ---- -- ----- ---- --- --- -----------<br>-- -------,367884.09999990463,367883.39999985695,367434.222,367444.39999985695,367450.888,367900.899,,12,sunspot
screen,html.Screen,2_3_1_0_1_13,2022-02-04T11:48:52.542Z,,,,,,,,,,,,,,,,,2,,,,,,,,,,,,,,414.6010000000242,,response,,,,1,C,,,,,,Space,keypress(Space),,,,instrumental,,,,--- ---- ------ --- ------- ---------- ------- ----------<br>--- --------- --- ----------- ------- group ------- ---<br>--------- ---- -- --- ---- -- --------- -- ---- -------<br>-- --------- ------ --- ----- ------ ---- --- --------- --<br>------ - ---- -- --- ----------- ------- ---- ----- -----<br>--- -------- - ------ ---- -- ----- ---- --- --- -----------<br>-- -------,368316.19999980927,368315.5,367884.233,367884.2999999523,367900.899,368317.571,,13,group
screen,html.Screen,2_3_1_0_1_14,2022-02-04T11:48:53.038Z,,,,,,,,,,,,,,,,,2,,,,,,,,,,,,,,493.8289998569526,,response,,,,1,C,,,,,,Space,keypress(Space),,,,instrumental,,,,--- ---- ------ --- ------- ---------- ------- ----------<br>--- --------- --- ----------- ------- ----- through ---<br>--------- ---- -- --- ---- -- --------- -- ---- -------<br>-- --------- ------ --- ----- ------ ---- --- --------- --<br>------ - ---- -- --- ----------- ------- ---- ----- -----<br>--- -------- - ------ ---- -- ----- ---- --- --- -----------<br>-- -------,368812.19999980927,368811.39999985695,368300.905,368316.2999999523,368317.571,368817.554,,14,through
screen,html.Screen,2_3_1_0_1_15,2022-02-04T11:48:53.526Z,,,,,,,,,,,,,,,,,2,,,,,,,,,,,,,,481.74599995231256,,response,,,,1,C,,,,,,Space,keypress(Space),,,,instrumental,,,,--- ---- ------ --- ------- ---------- ------- ----------<br>--- --------- --- ----------- ------- ----- ------- his<br>--------- ---- -- --- ---- -- --------- -- ---- -------<br>-- --------- ------ --- ----- ------ ---- --- --------- --<br>------ - ---- -- --- ----------- ------- ---- ----- -----<br>--- -------- - ------ ---- -- ----- ---- --- --- -----------<br>-- -------,369300.09999990463,369299.2999999523,368800.888,368812.2999999523,368817.554,369300.866,,15,his
screen,html.Screen,2_3_1_0_1_16,2022-02-04T11:48:54.078Z,,,,,,,,,,,,,,,,,2,,,,,,,,,,,,,,550.4339999523363,,response,,,,1,C,,,,,,Space,keypress(Space),,,,instrumental,,,,--- ---- ------ --- ------- ---------- ------- ----------<br>--- --------- --- ----------- ------- ----- ------- ---<br>telescope ---- -- --- ---- -- --------- -- ---- -------<br>-- --------- ------ --- ----- ------ ---- --- --------- --<br>------ - ---- -- --- ----------- ------- ---- ----- -----<br>--- -------- - ------ ---- -- ----- ---- --- --- -----------<br>-- -------,369851.7999999523,369851.2999999523,369284.2,369300.2999999523,369300.866,369867.507,,16,telescope
screen,html.Screen,2_3_1_0_1_17,2022-02-04T11:48:55.207Z,,,,,,,,,,,,,,,,,2,,,,,,,,,,,,,,1112.3929998569656,,response,,,,1,C,,,,,,Space,keypress(Space),,,,instrumental,,,,--- ---- ------ --- ------- ---------- ------- ----------<br>--- --------- --- ----------- ------- ----- ------- ---<br>--------- when -- --- ---- -- --------- -- ---- -------<br>-- --------- ------ --- ----- ------ ---- --- --------- --<br>------ - ---- -- --- ----------- ------- ---- ----- -----<br>--- -------- - ------ ---- -- ----- ---- --- --- -----------<br>-- -------,370980.5,370979.89999985695,369850.841,369851.89999985695,369867.507,370984.145,,17,when
screen,html.Screen,2_3_1_0_1_18,2022-02-04T11:48:55.494Z,,,,,,,,,,,,,,,,,2,,,,,,,,,,,,,,283.2549998569302,,response,,,,1,C,,,,,,Space,keypress(Space),,,,instrumental,,,,--- ---- ------ --- ------- ---------- ------- ----------<br>--- --------- --- ----------- ------- ----- ------- ---<br>--------- ---- he --- ---- -- --------- -- ---- -------<br>-- --------- ------ --- ----- ------ ---- --- --------- --<br>------ - ---- -- --- ----------- ------- ---- ----- -----<br>--- -------- - ------ ---- -- ----- ---- --- --- -----------<br>-- -------,371268.19999980927,371267.39999985695,370967.479,370980.69999980927,370984.145,371284.218,,18,he
screen,html.Screen,2_3_1_0_1_19,2022-02-04T11:48:55.862Z,,,,,,,,,,,,,,,,,2,,,,,,,,,,,,,,351.2820000000065,,response,,,,1,C,,,,,,Space,keypress(Space),,,,instrumental,,,,--- ---- ------ --- ------- ---------- ------- ----------<br>--- --------- --- ----------- ------- ----- ------- ---<br>--------- ---- -- saw ---- -- --------- -- ---- -------<br>-- --------- ------ --- ----- ------ ---- --- --------- --<br>------ - ---- -- --- ----------- ------- ---- ----- -----<br>--- -------- - ------ ---- -- ----- ---- --- --- -----------<br>-- -------,371636.19999980927,371635.5,371267.552,371268.39999985695,371284.218,371650.85,,19,saw
screen,html.Screen,2_3_1_0_1_20,2022-02-04T11:48:56.326Z,,,,,,,,,,,,,,,,,2,,,,,,,,,,,,,,448.54999985697214,,response,,,,1,C,,,,,,Space,keypress(Space),,,,instrumental,,,,--- ---- ------ --- ------- ---------- ------- ----------<br>--- --------- --- ----------- ------- ----- ------- ---<br>--------- ---- -- --- what -- --------- -- ---- -------<br>-- --------- ------ --- ----- ------ ---- --- --------- --<br>------ - ---- -- --- ----------- ------- ---- ----- -----<br>--- -------- - ------ ---- -- ----- ---- --- --- -----------<br>-- -------,372100.09999990463,372099.39999985695,371634.184,371636.39999985695,371650.85,372100.876,,20,what
screen,html.Screen,2_3_1_0_1_21,2022-02-04T11:48:56.710Z,,,,,,,,,,,,,,,,,2,,,,,,,,,,,,,,382.423999952327,,response,,,,1,C,,,,,,Space,keypress(Space),,,,instrumental,,,,--- ---- ------ --- ------- ---------- ------- ----------<br>--- --------- --- ----------- ------- ----- ------- ---<br>--------- ---- -- --- ---- he --------- -- ---- -------<br>-- --------- ------ --- ----- ------ ---- --- --------- --<br>------ - ---- -- --- ----------- ------- ---- ----- -----<br>--- -------- - ------ ---- -- ----- ---- --- --- -----------<br>-- -------,372484,372483.2999999523,372084.21,372100.2999999523,372100.876,372500.835,,21,he
screen,html.Screen,2_3_1_0_1_22,2022-02-04T11:48:57.150Z,,,,,,,,,,,,,,,,,2,,,,,,,,,,,,,,422.5649998569279,,response,,,,1,C,,,,,,Space,keypress(Space),,,,instrumental,,,,--- ---- ------ --- ------- ---------- ------- ----------<br>--- --------- --- ----------- ------- ----- ------- ---<br>--------- ---- -- --- ---- -- described -- ---- -------<br>-- --------- ------ --- ----- ------ ---- --- --------- --<br>------ - ---- -- --- ----------- ------- ---- ----- -----<br>--- -------- - ------ ---- -- ----- ---- --- --- -----------<br>-- -------,372924.09999990463,372923.39999985695,372484.169,372484.19999980927,372500.835,372934.161,,22,described
screen,html.Screen,2_3_1_0_1_23,2022-02-04T11:48:57.566Z,,,,,,,,,,,,,,,,,2,,,,,,,,,,,,,,405.23899985692697,,response,,,,1,C,,,,,,Space,keypress(Space),,,,instrumental,,,,--- ---- ------ --- ------- ---------- ------- ----------<br>--- --------- --- ----------- ------- ----- ------- ---<br>--------- ---- -- --- ---- -- --------- as ---- -------<br>-- --------- ------ --- ----- ------ ---- --- --------- --<br>------ - ---- -- --- ----------- ------- ---- ----- -----<br>--- -------- - ------ ---- -- ----- ---- --- --- -----------<br>-- -------,373340.19999980927,373339.39999985695,372917.495,372924.19999980927,372934.161,373350.83,,23,as
screen,html.Screen,2_3_1_0_1_24,2022-02-04T11:48:57.998Z,,,,,,,,,,,,,,,,,2,,,,,,,,,,,,,,420.56999985693255,,response,,,,1,C,,,,,,Space,keypress(Space),,,,instrumental,,,,"--- ---- ------ --- ------- ---------- ------- ----------<br>--- --------- --- ----------- ------- ----- ------- ---<br>--------- ---- -- --- ---- -- --------- -- ""two -------<br>-- --------- ------ --- ----- ------ ---- --- --------- --<br>------ - ---- -- --- ----------- ------- ---- ----- -----<br>--- -------- - ------ ---- -- ----- ---- --- --- -----------<br>-- -------",373772.2999999523,373771.39999985695,373334.164,373340.2999999523,373350.83,373784.183,,24,"""two"
screen,html.Screen,2_3_1_0_1_25,2022-02-04T11:48:58.366Z,,,,,,,,,,,,,,,,,2,,,,,,,,,,,,,,355.1169999522972,,response,,,,1,C,,,,,,Space,keypress(Space),,,,instrumental,,,,--- ---- ------ --- ------- ---------- ------- ----------<br>--- --------- --- ----------- ------- ----- ------- ---<br>--------- ---- -- --- ---- -- --------- -- ---- patches<br>-- --------- ------ --- ----- ------ ---- --- --------- --<br>------ - ---- -- --- ----------- ------- ---- ----- -----<br>--- -------- - ------ ---- -- ----- ---- --- --- -----------<br>-- -------,374140.09999990463,374139.2999999523,373767.517,373772.39999985695,373784.183,374150.806,,25,patches
screen,html.Screen,2_3_1_0_1_26,2022-02-04T11:48:58.766Z,,,,,,,,,,,,,,,,,2,,,,,,,,,,,,,,388.59399985696655,,response,,,,1,C,,,,,,Space,keypress(Space),,,,instrumental,,,,--- ---- ------ --- ------- ---------- ------- ----------<br>--- --------- --- ----------- ------- ----- ------- ---<br>--------- ---- -- --- ---- -- --------- -- ---- -------<br>of --------- ------ --- ----- ------ ---- --- --------- --<br>------ - ---- -- --- ----------- ------- ---- ----- -----<br>--- -------- - ------ ---- -- ----- ---- --- --- -----------<br>-- -------,374540.19999980927,374539.39999985695,374134.14,374140.19999980927,374150.806,374550.839,,26,of
screen,html.Screen,2_3_1_0_1_27,2022-02-04T11:48:59.206Z,,,,,,,,,,,,,,,,,2,,,,,,,,,,,,,,428.56099985697074,,response,,,,1,C,,,,,,Space,keypress(Space),,,,instrumental,,,,--- ---- ------ --- ------- ---------- ------- ----------<br>--- --------- --- ----------- ------- ----- ------- ---<br>--------- ---- -- --- ---- -- --------- -- ---- -------<br>-- intensely ------ --- ----- ------ ---- --- --------- --<br>------ - ---- -- --- ----------- ------- ---- ----- -----<br>--- -------- - ------ ---- -- ----- ---- --- --- -----------<br>-- -------,374980.09999990463,374979.39999985695,374534.173,374540.39999985695,374550.839,374984.16,,27,intensely
screen,html.Screen,2_3_1_0_1_28,2022-02-04T11:48:59.654Z,,,,,,,,,,,,,,,,,2,,,,,,,,,,,,,,443.1399999523419,,response,,,,1,C,,,,,,Space,keypress(Space),,,,instrumental,,,,--- ---- ------ --- ------- ---------- ------- ----------<br>--- --------- --- ----------- ------- ----- ------- ---<br>--------- ---- -- --- ---- -- --------- -- ---- -------<br>-- --------- bright --- ----- ------ ---- --- --------- --<br>------ - ---- -- --- ----------- ------- ---- ----- -----<br>--- -------- - ------ ---- -- ----- ---- --- --- -----------<br>-- -------,375428.09999990463,375427.2999999523,374967.494,374980.2999999523,374984.16,375434.162,,28,bright
screen,html.Screen,2_3_1_0_1_29,2022-02-04T11:49:00.006Z,,,,,,,,,,,,,,,,,2,,,,,,,,,,,,,,345.03799980925396,,response,,,,1,C,,,,,,Space,keypress(Space),,,,instrumental,,,,--- ---- ------ --- ------- ---------- ------- ----------<br>--- --------- --- ----------- ------- ----- ------- ---<br>--------- ---- -- --- ---- -- --------- -- ---- -------<br>-- --------- ------ and ----- ------ ---- --- --------- --<br>------ - ---- -- --- ----------- ------- ---- ----- -----<br>--- -------- - ------ ---- -- ----- ---- --- --- -----------<br>-- -------,375780,375779.19999980927,375417.496,375428.2999999523,375434.162,375784.121,,29,and
screen,html.Screen,2_3_1_0_1_30,2022-02-04T11:49:00.430Z,,,,,,,,,,,,,,,,,2,,,,,,,,,,,,,,419.17899995233165,,response,,,,1,C,,,,,,Space,keypress(Space),,,,instrumental,,,,--- ---- ------ --- ------- ---------- ------- ----------<br>--- --------- --- ----------- ------- ----- ------- ---<br>--------- ---- -- --- ---- -- --------- -- ---- -------<br>-- --------- ------ --- white ------ ---- --- --------- --<br>------ - ---- -- --- ----------- ------- ---- ----- -----<br>--- -------- - ------ ---- -- ----- ---- --- --- -----------<br>-- -------,376204.09999990463,376203.2999999523,375767.455,375780.09999990463,375784.121,376217.449,,30,white
screen,html.Screen,2_3_1_0_1_31,2022-02-04T11:49:00.847Z,,,,,,,,,,,,,,,,,2,,,,,,,,,,,,,,402.35099995229393,,response,,,,1,C,,,,,,Space,keypress(Space),,,,instrumental,,,,"--- ---- ------ --- ------- ---------- ------- ----------<br>--- --------- --- ----------- ------- ----- ------- ---<br>--------- ---- -- --- ---- -- --------- -- ---- -------<br>-- --------- ------ --- ----- light"" ---- --- --------- --<br>------ - ---- -- --- ----------- ------- ---- ----- -----<br>--- -------- - ------ ---- -- ----- ---- --- --- -----------<br>-- -------",376620.59999990463,376619.7999999523,376200.783,376204.2999999523,376217.449,376634.119,,31,"light"""
screen,html.Screen,2_3_1_0_1_32,2022-02-04T11:49:01.518Z,,,,,,,,,,,,,,,,,2,,,,,,,,,,,,,,657.1809999523102,,response,,,,1,C,,,,,,Space,keypress(Space),,,,instrumental,,,,--- ---- ------ --- ------- ---------- ------- ----------<br>--- --------- --- ----------- ------- ----- ------- ---<br>--------- ---- -- --- ---- -- --------- -- ---- -------<br>-- --------- ------ --- ----- ------ over --- --------- --<br>------ - ---- -- --- ----------- ------- ---- ----- -----<br>--- -------- - ------ ---- -- ----- ---- --- --- -----------<br>-- -------,377292.19999980927,377291.2999999523,376617.453,376620.7999999523,376634.119,377300.78,,32,over
screen,html.Screen,2_3_1_0_1_33,2022-02-04T11:49:01.966Z,,,,,,,,,,,,,,,,,2,,,,,,,,,,,,,,438.51999995228834,,response,,,,1,C,,,,,,Space,keypress(Space),,,,instrumental,,,,--- ---- ------ --- ------- ---------- ------- ----------<br>--- --------- --- ----------- ------- ----- ------- ---<br>--------- ---- -- --- ---- -- --------- -- ---- -------<br>-- --------- ------ --- ----- ------ ---- the --------- --<br>------ - ---- -- --- ----------- ------- ---- ----- -----<br>--- -------- - ------ ---- -- ----- ---- --- --- -----------<br>-- -------,377739.89999985695,377739.2999999523,377284.114,377292.2999999523,377300.78,377750.764,,33,the
screen,html.Screen,2_3_1_0_1_34,2022-02-04T11:49:02.390Z,,,,,,,,,,,,,,,,,2,,,,,,,,,,,,,,412.5359999522916,,response,,,,1,C,,,,,,Space,keypress(Space),,,,instrumental,,,,--- ---- ------ --- ------- ---------- ------- ----------<br>--- --------- --- ----------- ------- ----- ------- ---<br>--------- ---- -- --- ---- -- --------- -- ---- -------<br>-- --------- ------ --- ----- ------ ---- --- sunspots. --<br>------ - ---- -- --- ----------- ------- ---- ----- -----<br>--- -------- - ------ ---- -- ----- ---- --- --- -----------<br>-- -------,378164.09999990463,378163.2999999523,377734.098,377740.09999990463,377750.764,378167.459,,34,sunspots.
screen,html.Screen,2_3_1_0_1_35,2022-02-04T11:49:03.222Z,,,,,,,,,,,,,,,,,2,,,,,,,,,,,,,,827.8409999523428,,response,,,,1,C,,,,,,Space,keypress(Space),,,,instrumental,,,,--- ---- ------ --- ------- ---------- ------- ----------<br>--- --------- --- ----------- ------- ----- ------- ---<br>--------- ---- -- --- ---- -- --------- -- ---- -------<br>-- --------- ------ --- ----- ------ ---- --- --------- He<br>------ - ---- -- --- ----------- ------- ---- ----- -----<br>--- -------- - ------ ---- -- ----- ---- --- --- -----------<br>-- -------,378996.09999990463,378995.2999999523,378150.793,378164.2999999523,378167.459,379000.76,,35,He
screen,html.Screen,2_3_1_0_1_36,2022-02-04T11:49:03.646Z,,,,,,,,,,,,,,,,,2,,,,,,,,,,,,,,418.63999985693954,,response,,,,1,C,,,,,,Space,keypress(Space),,,,instrumental,,,,--- ---- ------ --- ------- ---------- ------- ----------<br>--- --------- --- ----------- ------- ----- ------- ---<br>--------- ---- -- --- ---- -- --------- -- ---- -------<br>-- --------- ------ --- ----- ------ ---- --- --------- --<br>jotted - ---- -- --- ----------- ------- ---- ----- -----<br>--- -------- - ------ ---- -- ----- ---- --- --- -----------<br>-- -------,379420,379419.39999985695,378984.094,378996.19999980927,379000.76,379434.101,,36,jotted
screen,html.Screen,2_3_1_0_1_37,2022-02-04T11:49:04.038Z,,,,,,,,,,,,,,,,,2,,,,,,,,,,,,,,377.19899995229207,,response,,,,1,C,,,,,,Space,keypress(Space),,,,instrumental,,,,--- ---- ------ --- ------- ---------- ------- ----------<br>--- --------- --- ----------- ------- ----- ------- ---<br>--------- ---- -- --- ---- -- --------- -- ---- -------<br>-- --------- ------ --- ----- ------ ---- --- --------- --<br>------ a ---- -- --- ----------- ------- ---- ----- -----<br>--- -------- - ------ ---- -- ----- ---- --- --- -----------<br>-- -------,379812.09999990463,379811.2999999523,379417.435,379420.19999980927,379434.101,379817.405,,37,a
