sender,sender_type,sender_id,timestamp,meta,,Blues,Classical,Country,Dance,Electronic,Folk,Gospel,Hip-Hop,Jazz,Latin,Musical/Film,New-age,Pop,Prolific_id,Provo_ID,R&B,Rap,Reggae,Religious,Rock,Soul,Swing,Traditional,age,artist_name,correct,correctResponse,distraction,duration,education,ended_on,familiarity,gender,headphone_check_performance,item,list,music_frequency,offensiveness,pleasantness,position_correct,preference,response,response_action,snippet_file,song_name,song_rating,sound,stimulus_1,stimulus_2,stimulus_3,text,time_commit,time_end,time_render,time_run,time_show,time_switch,url,word,word_ID
Prolific ID,html.Form,0,2022-02-17T10:50:01.840Z,"{""labjs_version"":""20.2.2"",""labjs_build"":{""flavor"":""production"",""commit"":""a25486e0c714a0ae2ce03ff94b7bb6896854dcfa""},""location"":""https://run.pavlovia.org/mvasilev/prolific2_music_c/"",""userAgent"":""Mozilla/5.0 (Windows NT 10.0; Win64; x64) AppleWebKit/537.36 (KHTML, like Gecko) Chrome/98.0.4758.80 Safari/537.36 Edg/98.0.1108.50"",""platform"":""Win32"",""language"":""en-GB"",""locale"":""en-GB"",""timeZone"":""Europe/London"",""timezoneOffset"":0,""screen_width"":1680,""screen_height"":1050,""scroll_width"":1344,""scroll_height"":678,""window_innerWidth"":1344,""window_innerHeight"":726,""devicePixelRatio"":1.25}",,,,,,,,,,,,,,,5d95dfca33f8930017e85486,,,,,,,,,,,,,,,5162.484,,form submission,,,,,,,,,,,,,,,,,,,,,28526,28525.5,23346.35,23352.5,23363.016,28540.958,{},,
Introduction,html.Screen,1_0,2022-02-17T10:50:08.771Z,,,,,,,,,,,,,,,,,,,,,,,,,,,,,,,6913.341999999815,,response,,,,,,,,,,,continue,click button,,,,,,,,,35456.799999999814,35454.299999999814,28524.292,28526.299999999814,28540.958,35461.939,,,
Volume calibration,html.Screen,1_1,2022-02-17T10:50:39.144Z,,,,,,,,,,,,,,,,,,,,,,,,,,,,,,,30363.860999999815,,response,,,,,,,,,,,continue,click button,,,,,,,,,65828.79999999981,65825.79999999981,35445.273,35457,35461.939,65836.822,,,
Task instructions,html.Screen,1_2,2022-02-17T10:50:47.422Z,,,,,,,,,,,,,,,,,,,,,,,,,,,,,,,8269.878000000186,,response,,,,,,,,,,,continue,click button,,,,,,,,,74107.59999999963,74106.70000000019,65820.156,65829,65836.822,74120.525,,,
Sounds,html.Screen,1_3_0_0,2022-02-17T10:50:51.681Z,,,,,,,,,,,,,,,,,,,,,,,,,,,,,,,4257.235000000001,,timeout,,,,,,,,,3,,,,,,,,O,I,S,,78366.5,78361.094,74103.859,74107.79999999981,74120.525,78377.76,,,
Judgement,html.Screen,1_3_0_1,2022-02-17T10:50:52.783Z,,,,,,,,,,,,,,,,,,,,,,,,,,,,true,3,,1090.039999999819,,response,,,,,,,,,3,,3,click #choice-3,,,,,O,I,S,,79468.5,79467.79999999981,78361.094,78366.79999999981,78377.76,79481.659,,,
Trial,flow.Sequence,1_3_0,2022-02-17T10:50:52.784Z,,,,,,,,,,,,,,,,,,,,,,,,,,,,,,,5347.27499999982,,completion,,,,,,,,,3,,,,,,,,O,I,S,,79468.79999999981,79467.79999999981,74103.859,74107.79999999981,74120.525,79481.659,,,
Sounds,html.Screen,1_3_1_0,2022-02-17T10:50:57.032Z,,,,,,,,,,,,,,,,,,,,,,,,,,,,,,,4250.062999999995,,timeout,,,,,,,,,2,,,,,,,,I,S,O,,83716.79999999981,83715.056,79464.993,79469.09999999963,79481.659,83731.722,,,
Judgement,html.Screen,1_3_1_1,2022-02-17T10:50:57.847Z,,,,,,,,,,,,,,,,,,,,,,,,,,,,true,2,,799.8779999996332,,response,,,,,,,,,2,,2,click #choice-2,,,,,I,S,O,,84532.70000000019,84531.59999999963,83715.056,83716.90000000037,83731.722,84535.711,,,
Trial,flow.Sequence,1_3_1,2022-02-17T10:50:57.848Z,,,,,,,,,,,,,,,,,,,,,,,,,,,,,,,5049.940999999628,,completion,,,,,,,,,2,,,,,,,,I,S,O,,84532.90000000037,84531.59999999963,79464.993,79469,79481.659,84535.711,,,
Sounds,html.Screen,1_3_2_0,2022-02-17T10:51:02.086Z,,,,,,,,,,,,,,,,,,,,,,,,,,,,,,,4250.271999999997,,timeout,,,,,,,,,2,,,,,,,,O,S,I,,88771.20000000019,88769.317,84519.045,84533.20000000019,84535.711,88785.983,,,
Judgement,html.Screen,1_3_2_1,2022-02-17T10:51:02.863Z,,,,,,,,,,,,,,,,,,,,,,,,,,,,true,2,,761.6169999996346,,response,,,,,,,,,2,,2,click #choice-2,,,,,O,S,I,,89548.40000000037,89547.59999999963,88769.317,88771.40000000037,88785.983,89554.772,,,
Trial,flow.Sequence,1_3_2,2022-02-17T10:51:02.863Z,,,,,,,,,,,,,,,,,,,,,,,,,,,,,,,5011.888999999632,,completion,,,,,,,,,2,,,,,,,,O,S,I,,89548.70000000019,89547.59999999963,84519.045,84533.09999999963,84535.711,89554.772,,,
Sounds,html.Screen,1_3_3_0,2022-02-17T10:51:07.105Z,,,,,,,,,,,,,,,,,,,,,,,,,,,,,,,4251.578000000009,,timeout,,,,,,,,,1,,,,,,,,S,I,O,,93790.59999999963,93789.684,89538.106,89548.79999999981,89554.772,93806.35,,,
Judgement,html.Screen,1_3_3_1,2022-02-17T10:51:07.665Z,,,,,,,,,,,,,,,,,,,,,,,,,,,,true,1,,543.1499999999942,,response,,,,,,,,,1,,1,click #choice-1,,,,,S,I,O,,94350.29999999981,94349.5,93789.684,93790.79999999981,93806.35,94359.845,,,
Trial,flow.Sequence,1_3_3,2022-02-17T10:51:07.665Z,,,,,,,,,,,,,,,,,,,,,,,,,,,,,,,4794.728000000003,,completion,,,,,,,,,1,,,,,,,,S,I,O,,94350.5,94349.5,89538.106,89548.79999999981,89554.772,94359.845,,,
Sounds,html.Screen,1_3_4_0,2022-02-17T10:51:11.911Z,,,,,,,,,,,,,,,,,,,,,,,,,,,,,,,4250.649999999994,,timeout,,,,,,,,,1,,,,,,,,S,O,I,,98596.09999999963,98593.829,94343.179,94350.59999999963,94359.845,98610.495,,,
Judgement,html.Screen,1_3_4_1,2022-02-17T10:51:12.633Z,,,,,,,,,,,,,,,,,,,,,,,,,,,,true,1,,707.0050000000047,,response,,,,,,,,,1,,1,click #choice-1,,,,,S,O,I,,99318.29999999981,99317.5,98593.829,98596.20000000019,98610.495,99330.123,,,
Trial,flow.Sequence,1_3_4,2022-02-17T10:51:12.633Z,,,,,,,,,,,,,,,,,,,,,,,,,,,,,,,4957.654999999999,,completion,,,,,,,,,1,,,,,,,,S,O,I,,99318.5,99317.5,94343.179,94350.59999999963,94359.845,99330.123,,,
Sounds,html.Screen,1_3_5_0,2022-02-17T10:51:16.881Z,,,,,,,,,,,,,,,,,,,,,,,,,,,,,,,4251.136999999988,,timeout,,,,,,,,,3,,,,,,,,I,O,S,,103565.90000000037,103564.594,99313.457,99318.59999999963,99330.123,103581.26,,,
Judgement,html.Screen,1_3_5_1,2022-02-17T10:51:17.394Z,,,,,,,,,,,,,,,,,,,,,,,,,,,,true,3,,497.24000000000524,,response,,,,,,,,,3,,3,click #choice-3,,,,,I,O,S,,104079.59999999963,104078.5,103564.594,103566,103581.26,104085.148,,,
Trial,flow.Sequence,1_3_5,2022-02-17T10:51:17.395Z,,,,,,,,,,,,,,,,,,,,,,,,,,,,,,,4748.376999999993,,completion,,,,,,,,,3,,,,,,,,I,O,S,,104079.70000000019,104078.5,99313.457,99318.59999999963,99330.123,104085.148,,,
Task,flow.Loop,1_3,2022-02-17T10:51:17.399Z,,,,,,,,,,,,,,,,,,,,,,,,,,,,,,,29957.975000000006,,completion,,,1,,,,,,,,,,,,,,,,,,104083.79999999981,104078.5,74103.859,74107.70000000019,74120.525,104085.148,,,
Trap,html.Screen,1_4,2022-02-17T10:51:17.404Z,,,,,,,,,,,,,,,,,,,,,,,,,,,,,,,NaN,,skipped,,,,,,,,,,,,,,,,,,,,,104089.40000000037,104078.5,,104089.40000000037,,104085.148,,,
Thanks,html.Screen,1_5,2022-02-17T10:51:20.954Z,,,,,,,,,,,,,,,,,,,,,,,,,,,,,,,3553.351999999999,,response,,,,,,,,,,,continue,click button,,,,,,,,,107639.40000000037,107638.5,104068.482,104089.59999999963,104085.148,112121.338,,,
Headphone screening,flow.Sequence,1,2022-02-17T10:51:20.954Z,,,,,,,,,,,,,,,,,,,,,,,,,,,,,,,79097.542,,completion,,,,,,,,,,,,,,,,,,,,,107639.59999999963,107638.5,28524.292,28526.299999999814,28540.958,112121.338,,,
Instructions,html.Page,2_0,2022-02-17T10:51:43.895Z,,,,,,,,,,,,,,,,,,,,,,,,,,,,,,,18458.261999999624,,form submission,,,,,,,,,,,,,,,,,,,,,130580,130579.59999999963,112104.672,112121,112121.338,130587.664,,,
Holding screen,html.Screen,2_1_0_0,2022-02-17T10:51:53.879Z,,,,,,,,,,,,,,,,,,,,,,,,,,,,,,,9992.409999999989,,timeout,,,,,,,,,,,,,,,,,,,,,140564.90000000037,140563.408,130570.998,130580.40000000037,130587.664,140580.074,,,
screen,html.Screen,2_1_0_1_0,2022-02-17T10:51:54.767Z,,,,,,,,,,,,,,,,,53,,,,,,,,,,,,,,868.3260000003793,,response,,,,99,,,,,,,Space,keypress(Space),,,,,,,,When -- ----- -- ------ - ------- --- ----------<br>------------- ------ ------ ---- ---- ------- ----- -- ----<br>-------- ------- -- ---------- --- - --- ----- ----- ----<br>---- --- --- ----- --- ---- ---- ------- ----- ---- -------<br>--- --- -- ----- -- --- ---- -- --- ---- -- ------ ------<br>--- ----- -- ----,141452.7000000002,141448.40000000037,140563.408,140566.5,140580.074,141464.217,,0,When
screen,html.Screen,2_1_0_1_1,2022-02-17T10:51:55.183Z,,,,,,,,,,,,,,,,,53,,,,,,,,,,,,,,402.9830000001821,,response,,,,99,,,,,,,Space,keypress(Space),,,,,,,,---- it ----- -- ------ - ------- --- ----------<br>------------- ------ ------ ---- ---- ------- ----- -- ----<br>-------- ------- -- ---------- --- - --- ----- ----- ----<br>---- --- --- ----- --- ---- ---- ------- ----- ---- -------<br>--- --- -- ----- -- --- ---- -- --- ---- -- ------ ------<br>--- ----- -- ----,141868,141867.2000000002,141447.551,141452.90000000037,141464.217,141882.336,,1,it
screen,html.Screen,2_1_0_1_2,2022-02-17T10:51:55.647Z,,,,,,,,,,,,,,,,,53,,,,,,,,,,,,,,448.864000000176,,response,,,,99,,,,,,,Space,keypress(Space),,,,,,,,---- -- comes -- ------ - ------- --- ----------<br>------------- ------ ------ ---- ---- ------- ----- -- ----<br>-------- ------- -- ---------- --- - --- ----- ----- ----<br>---- --- --- ----- --- ---- ---- ------- ----- ---- -------<br>--- --- -- ----- -- --- ---- -- --- ---- -- ------ ------<br>--- ----- -- ----,142332,142331.2000000002,141865.67,141868.2000000002,141882.336,142348.699,,2,comes
screen,html.Screen,2_1_0_1_3,2022-02-17T10:51:56.047Z,,,,,,,,,,,,,,,,,53,,,,,,,,,,,,,,382.4009999996342,,response,,,,99,,,,,,,Space,keypress(Space),,,,,,,,---- -- ----- to ------ - ------- --- ----------<br>------------- ------ ------ ---- ---- ------- ----- -- ----<br>-------- ------- -- ---------- --- - --- ----- ----- ----<br>---- --- --- ----- --- ---- ---- ------- ----- ---- -------<br>--- --- -- ----- -- --- ---- -- --- ---- -- ------ ------<br>--- ----- -- ----,142731.90000000037,142731.09999999963,142332.033,142332.2000000002,142348.699,142749.594,,3,to
screen,html.Screen,2_1_0_1_4,2022-02-17T10:51:56.478Z,,,,,,,,,,,,,,,,,53,,,,,,,,,,,,,,413.1060000001744,,response,,,,99,,,,,,,Space,keypress(Space),,,,,,,,---- -- ----- -- having - ------- --- ----------<br>------------- ------ ------ ---- ---- ------- ----- -- ----<br>-------- ------- -- ---------- --- - --- ----- ----- ----<br>---- --- --- ----- --- ---- ---- ------- ----- ---- -------<br>--- --- -- ----- -- --- ---- -- --- ---- -- ------ ------<br>--- ----- -- ----,143163.40000000037,143162.7000000002,142732.928,142732.09999999963,142749.594,143166.036,,4,having
screen,html.Screen,2_1_0_1_5,2022-02-17T10:51:56.862Z,,,,,,,,,,,,,,,,,53,,,,,,,,,,,,,,380.86400000037975,,response,,,,99,,,,,,,Space,keypress(Space),,,,,,,,---- -- ----- -- ------ a ------- --- ----------<br>------------- ------ ------ ---- ---- ------- ----- -- ----<br>-------- ------- -- ---------- --- - --- ----- ----- ----<br>---- --- --- ----- --- ---- ---- ------- ----- ---- -------<br>--- --- -- ----- -- --- ---- -- --- ---- -- ------ ------<br>--- ----- -- ----,143547.7000000002,143546.90000000037,143149.37,143163.5,143166.036,143550.368,,5,a
screen,html.Screen,2_1_0_1_6,2022-02-17T10:51:57.294Z,,,,,,,,,,,,,,,,,53,,,,,,,,,,,,,,428.63200000001234,,response,,,,99,,,,,,,Space,keypress(Space),,,,,,,,---- -- ----- -- ------ - lasting --- ----------<br>------------- ------ ------ ---- ---- ------- ----- -- ----<br>-------- ------- -- ---------- --- - --- ----- ----- ----<br>---- --- --- ----- --- ---- ---- ------- ----- ---- -------<br>--- --- -- ----- -- --- ---- -- --- ---- -- ------ ------<br>--- ----- -- ----,143979.7999999998,143979,143533.702,143547.90000000037,143550.368,143983.717,,6,lasting
screen,html.Screen,2_1_0_1_7,2022-02-17T10:51:57.734Z,,,,,,,,,,,,,,,,,53,,,,,,,,,,,,,,435.2829999999958,,response,,,,99,,,,,,,Space,keypress(Space),,,,,,,,---- -- ----- -- ------ - ------- and ----------<br>------------- ------ ------ ---- ---- ------- ----- -- ----<br>-------- ------- -- ---------- --- - --- ----- ----- ----<br>---- --- --- ----- --- ---- ---- ------- ----- ---- -------<br>--- --- -- ----- -- --- ---- -- --- ---- -- ------ ------<br>--- ----- -- ----,144419.90000000037,144419,143967.051,143980,143983.717,144434.023,,7,and
screen,html.Screen,2_1_0_1_8,2022-02-17T10:51:58.174Z,,,,,,,,,,,,,,,,,53,,,,,,,,,,,,,,425.076999999641,,response,,,,99,,,,,,,Space,keypress(Space),,,,,,,,---- -- ----- -- ------ - ------- --- fulfilling<br>------------- ------ ------ ---- ---- ------- ----- -- ----<br>-------- ------- -- ---------- --- - --- ----- ----- ----<br>---- --- --- ----- --- ---- ---- ------- ----- ---- -------<br>--- --- -- ----- -- --- ---- -- --- ---- -- ------ ------<br>--- ----- -- ----,144859.7999999998,144859.09999999963,144417.357,144420.09999999963,144434.023,144867.74,,8,fulfilling
screen,html.Screen,2_1_0_1_9,2022-02-17T10:51:58.911Z,,,,,,,,,,,,,,,,,53,,,,,,,,,,,,,,727.4600000001956,,response,,,,99,,,,,,,Space,keypress(Space),,,,,,,,"---- -- ----- -- ------ - ------- --- ----------<br>relationship, ------ ------ ---- ---- ------- ----- -- ----<br>-------- ------- -- ---------- --- - --- ----- ----- ----<br>---- --- --- ----- --- ---- ---- ------- ----- ---- -------<br>--- --- -- ----- -- --- ---- -- --- ---- -- ------ ------<br>--- ----- -- ----",145596.7000000002,145595.2000000002,144851.074,144860.09999999963,144867.74,145601.425,,9,"relationship,"
screen,html.Screen,2_1_0_1_10,2022-02-17T10:51:59.150Z,,,,,,,,,,,,,,,,,53,,,,,,,,,,,,,,233.57500000001164,,response,,,,99,,,,,,,Space,keypress(Space),,,,,,,,---- -- ----- -- ------ - ------- --- ----------<br>------------- common ------ ---- ---- ------- ----- -- ----<br>-------- ------- -- ---------- --- - --- ----- ----- ----<br>---- --- --- ----- --- ---- ---- ------- ----- ---- -------<br>--- --- -- ----- -- --- ---- -- --- ---- -- ------ ------<br>--- ----- -- ----,145835.7000000002,145835,145584.759,145597,145601.425,145851.969,,10,common
screen,html.Screen,2_1_0_1_11,2022-02-17T10:51:59.958Z,,,,,,,,,,,,,,,,,53,,,,,,,,,,,,,,791.0309999999881,,response,,,,99,,,,,,,Space,keypress(Space),,,,,,,,---- -- ----- -- ------ - ------- --- ----------<br>------------- ------ wisdom ---- ---- ------- ----- -- ----<br>-------- ------- -- ---------- --- - --- ----- ----- ----<br>---- --- --- ----- --- ---- ---- ------- ----- ---- -------<br>--- --- -- ----- -- --- ---- -- --- ---- -- ------ ------<br>--- ----- -- ----,146643.7999999998,146643,145835.303,145836,145851.969,146652.496,,11,wisdom
screen,html.Screen,2_1_0_1_12,2022-02-17T10:52:00.439Z,,,,,,,,,,,,,,,,,53,,,,,,,,,,,,,,470.60399999961373,,response,,,,99,,,,,,,Space,keypress(Space),,,,,,,,---- -- ----- -- ------ - ------- --- ----------<br>------------- ------ ------ says ---- ------- ----- -- ----<br>-------- ------- -- ---------- --- - --- ----- ----- ----<br>---- --- --- ----- --- ---- ---- ------- ----- ---- -------<br>--- --- -- ----- -- --- ---- -- --- ---- -- ------ ------<br>--- ----- -- ----,147123.90000000037,147123.09999999963,146635.83,146644,146652.496,147135.938,,12,says
screen,html.Screen,2_1_0_1_13,2022-02-17T10:52:00.879Z,,,,,,,,,,,,,,,,,53,,,,,,,,,,,,,,427.2620000001916,,response,,,,99,,,,,,,Space,keypress(Space),,,,,,,,---- -- ----- -- ------ - ------- --- ----------<br>------------- ------ ------ ---- that ------- ----- -- ----<br>-------- ------- -- ---------- --- - --- ----- ----- ----<br>---- --- --- ----- --- ---- ---- ------- ----- ---- -------<br>--- --- -- ----- -- --- ---- -- --- ---- -- ------ ------<br>--- ----- -- ----,147564.09999999963,147563.2000000002,147119.272,147124.2000000002,147135.938,147569.969,,13,that
screen,html.Screen,2_1_0_1_14,2022-02-17T10:52:01.279Z,,,,,,,,,,,,,,,,,53,,,,,,,,,,,,,,393.1309999996156,,response,,,,99,,,,,,,Space,keypress(Space),,,,,,,,---- -- ----- -- ------ - ------- --- ----------<br>------------- ------ ------ ---- ---- feeling ----- -- ----<br>-------- ------- -- ---------- --- - --- ----- ----- ----<br>---- --- --- ----- --- ---- ---- ------- ----- ---- -------<br>--- --- -- ----- -- --- ---- -- --- ---- -- ------ ------<br>--- ----- -- ----,147963.90000000037,147963.09999999963,147553.303,147564.40000000037,147569.969,147970.586,,14,feeling
screen,html.Screen,2_1_0_1_15,2022-02-17T10:52:01.759Z,,,,,,,,,,,,,,,,,53,,,,,,,,,,,,,,472.5139999996172,,response,,,,99,,,,,,,Space,keypress(Space),,,,,,,,---- -- ----- -- ------ - ------- --- ----------<br>------------- ------ ------ ---- ---- ------- close -- ----<br>-------- ------- -- ---------- --- - --- ----- ----- ----<br>---- --- --- ----- --- ---- ---- ------- ----- ---- -------<br>--- --- -- ----- -- --- ---- -- --- ---- -- ------ ------<br>--- ----- -- ----,148444,148443.09999999963,147953.92,147964.2000000002,147970.586,148453.709,,15,close
screen,html.Screen,2_1_0_1_16,2022-02-17T10:52:02.183Z,,,,,,,,,,,,,,,,,53,,,,,,,,,,,,,,413.5909999998112,,response,,,,99,,,,,,,Space,keypress(Space),,,,,,,,---- -- ----- -- ------ - ------- --- ----------<br>------------- ------ ------ ---- ---- ------- ----- to ----<br>-------- ------- -- ---------- --- - --- ----- ----- ----<br>---- --- --- ----- --- ---- ---- ------- ----- ---- -------<br>--- --- -- ----- -- --- ---- -- --- ---- -- ------ ------<br>--- ----- -- ----,148868.2000000002,148867.2999999998,148437.043,148444.2999999998,148453.709,148871.213,,16,to
screen,html.Screen,2_1_0_1_17,2022-02-17T10:52:02.647Z,,,,,,,,,,,,,,,,,53,,,,,,,,,,,,,,459.88699999963865,,response,,,,99,,,,,,,Space,keypress(Space),,,,,,,,---- -- ----- -- ------ - ------- --- ----------<br>------------- ------ ------ ---- ---- ------- ----- -- your<br>-------- ------- -- ---------- --- - --- ----- ----- ----<br>---- --- --- ----- --- ---- ---- ------- ----- ---- -------<br>--- --- -- ----- -- --- ---- -- --- ---- -- ------ ------<br>--- ----- -- ----,149332,149331.09999999963,148854.547,148868.40000000037,148871.213,149337.658,,17,your
screen,html.Screen,2_1_0_1_18,2022-02-17T10:52:03.054Z,,,,,,,,,,,,,,,,,53,,,,,,,,,,,,,,401.3420000000042,,response,,,,99,,,,,,,Space,keypress(Space),,,,,,,,---- -- ----- -- ------ - ------- --- ----------<br>------------- ------ ------ ---- ---- ------- ----- -- ----<br>romantic ------- -- ---------- --- - --- ----- ----- ----<br>---- --- --- ----- --- ---- ---- ------- ----- ---- -------<br>--- --- -- ----- -- --- ---- -- --- ---- -- ------ ------<br>--- ----- -- ----,149739.90000000037,149739,149320.992,149332.2999999998,149337.658,149755.051,,18,romantic
screen,html.Screen,2_1_0_1_19,2022-02-17T10:52:03.582Z,,,,,,,,,,,,,,,,,53,,,,,,,,,,,,,,511.748999999807,,response,,,,99,,,,,,,Space,keypress(Space),,,,,,,,---- -- ----- -- ------ - ------- --- ----------<br>------------- ------ ------ ---- ---- ------- ----- -- ----<br>-------- partner -- ---------- --- - --- ----- ----- ----<br>---- --- --- ----- --- ---- ---- ------- ----- ---- -------<br>--- --- -- ----- -- --- ---- -- --- ---- -- ------ ------<br>--- ----- -- ----,150267.2999999998,150266.7999999998,149738.385,149740.09999999963,149755.051,150272.018,,19,partner
screen,html.Screen,2_1_0_1_20,2022-02-17T10:52:04.047Z,,,,,,,,,,,,,,,,,53,,,,,,,,,,,,,,459.0819999996165,,response,,,,99,,,,,,,Space,keypress(Space),,,,,,,,---- -- ----- -- ------ - ------- --- ----------<br>------------- ------ ------ ---- ---- ------- ----- -- ----<br>-------- ------- is ---------- --- - --- ----- ----- ----<br>---- --- --- ----- --- ---- ---- ------- ----- ---- -------<br>--- --- -- ----- -- --- ---- -- --- ---- -- ------ ------<br>--- ----- -- ----,150732.2000000002,150731.09999999963,150255.352,150267.5,150272.018,150739.037,,20,is
screen,html.Screen,2_1_0_1_21,2022-02-17T10:52:05.180Z,,,,,,,,,,,,,,,,,53,,,,,,,,,,,,,,1125.663000000175,,response,,,,99,,,,,,,Space,keypress(Space),,,,,,,,---- -- ----- -- ------ - ------- --- ----------<br>------------- ------ ------ ---- ---- ------- ----- -- ----<br>-------- ------- -- paramount. --- - --- ----- ----- ----<br>---- --- --- ----- --- ---- ---- ------- ----- ---- -------<br>--- --- -- ----- -- --- ---- -- --- ---- -- ------ ------<br>--- ----- -- ----,151865.90000000037,151864.7000000002,150722.371,150732.2999999998,150739.037,151872.782,,21,paramount.
screen,html.Screen,2_1_0_1_22,2022-02-17T10:52:05.718Z,,,,,,,,,,,,,,,,,53,,,,,,,,,,,,,,530.0179999998072,,response,,,,99,,,,,,,Space,keypress(Space),,,,,,,,---- -- ----- -- ------ - ------- --- ----------<br>------------- ------ ------ ---- ---- ------- ----- -- ----<br>-------- ------- -- ---------- But - --- ----- ----- ----<br>---- --- --- ----- --- ---- ---- ------- ----- ---- -------<br>--- --- -- ----- -- --- ---- -- --- ---- -- ------ ------<br>--- ----- -- ----,152403.7000000002,152402.7999999998,151856.116,151866.09999999963,151872.782,152406.529,,22,But
screen,html.Screen,2_1_0_1_23,2022-02-17T10:52:06.086Z,,,,,,,,,,,,,,,,,53,,,,,,,,,,,,,,364.2709999998042,,response,,,,99,,,,,,,Space,keypress(Space),,,,,,,,---- -- ----- -- ------ - ------- --- ----------<br>------------- ------ ------ ---- ---- ------- ----- -- ----<br>-------- ------- -- ---------- --- a --- ----- ----- ----<br>---- --- --- ----- --- ---- ---- ------- ----- ---- -------<br>--- --- -- ----- -- --- ---- -- --- ---- -- ------ ------<br>--- ----- -- ----,152771.7999999998,152770.7999999998,152389.863,152403.90000000037,152406.529,152774.119,,23,a
screen,html.Screen,2_1_0_1_24,2022-02-17T10:52:06.446Z,,,,,,,,,,,,,,,,,53,,,,,,,,,,,,,,356.88099999999395,,response,,,,99,,,,,,,Space,keypress(Space),,,,,,,,---- -- ----- -- ------ - ------- --- ----------<br>------------- ------ ------ ---- ---- ------- ----- -- ----<br>-------- ------- -- ---------- --- - new ----- ----- ----<br>---- --- --- ----- --- ---- ---- ------- ----- ---- -------<br>--- --- -- ----- -- --- ---- -- --- ---- -- ------ ------<br>--- ----- -- ----,153131.7999999998,153131,152757.453,152772,152774.119,153141.224,,24,new
screen,html.Screen,2_1_0_1_25,2022-02-17T10:52:06.806Z,,,,,,,,,,,,,,,,,53,,,,,,,,,,,,,,349.7760000000126,,response,,,,99,,,,,,,Space,keypress(Space),,,,,,,,---- -- ----- -- ------ - ------- --- ----------<br>------------- ------ ------ ---- ---- ------- ----- -- ----<br>-------- ------- -- ---------- --- - --- study ----- ----<br>---- --- --- ----- --- ---- ---- ------- ----- ---- -------<br>--- --- -- ----- -- --- ---- -- --- ---- -- ------ ------<br>--- ----- -- ----,153491.90000000037,153491,153124.558,153132,153141.224,153508.383,,25,study
screen,html.Screen,2_1_0_1_26,2022-02-17T10:52:07.230Z,,,,,,,,,,,,,,,,,53,,,,,,,,,,,,,,406.5170000003709,,response,,,,99,,,,,,,Space,keypress(Space),,,,,,,,---- -- ----- -- ------ - ------- --- ----------<br>------------- ------ ------ ---- ---- ------- ----- -- ----<br>-------- ------- -- ---------- --- - --- ----- finds ----<br>---- --- --- ----- --- ---- ---- ------- ----- ---- -------<br>--- --- -- ----- -- --- ---- -- --- ---- -- ------ ------<br>--- ----- -- ----,153915.7000000002,153914.90000000037,153491.717,153492.09999999963,153508.383,153925.245,,26,finds
screen,html.Screen,2_1_0_1_27,2022-02-17T10:52:07.630Z,,,,,,,,,,,,,,,,,53,,,,,,,,,,,,,,389.75500000000466,,response,,,,99,,,,,,,Space,keypress(Space),,,,,,,,---- -- ----- -- ------ - ------- --- ----------<br>------------- ------ ------ ---- ---- ------- ----- -- ----<br>-------- ------- -- ---------- --- - --- ----- ----- that<br>---- --- --- ----- --- ---- ---- ------- ----- ---- -------<br>--- --- -- ----- -- --- ---- -- --- ---- -- ------ ------<br>--- ----- -- ----,154315.7999999998,154315,153908.579,153915.90000000037,153925.245,154325.473,,27,that
screen,html.Screen,2_1_0_1_28,2022-02-17T10:52:08.111Z,,,,,,,,,,,,,,,,,53,,,,,,,,,,,,,,469.52700000000186,,response,,,,99,,,,,,,Space,keypress(Space),,,,,,,,---- -- ----- -- ------ - ------- --- ----------<br>------------- ------ ------ ---- ---- ------- ----- -- ----<br>-------- ------- -- ---------- --- - --- ----- ----- ----<br>it's --- --- ----- --- ---- ---- ------- ----- ---- -------<br>--- --- -- ----- -- --- ---- -- --- ---- -- ------ ------<br>--- ----- -- ----,154796,154795,154308.807,154316.09999999963,154325.473,154809.217,,28,it's
screen,html.Screen,2_1_0_1_29,2022-02-17T10:52:08.534Z,,,,,,,,,,,,,,,,,53,,,,,,,,,,,,,,409.8829999996233,,response,,,,99,,,,,,,Space,keypress(Space),,,,,,,,---- -- ----- -- ------ - ------- --- ----------<br>------------- ------ ------ ---- ---- ------- ----- -- ----<br>-------- ------- -- ---------- --- - --- ----- ----- ----<br>---- not --- ----- --- ---- ---- ------- ----- ---- -------<br>--- --- -- ----- -- --- ---- -- --- ---- -- ------ ------<br>--- ----- -- ----,155219.90000000037,155219.09999999963,154792.551,154796.2000000002,154809.217,155226.018,,29,not
screen,html.Screen,2_1_0_1_30,2022-02-17T10:52:08.918Z,,,,,,,,,,,,,,,,,53,,,,,,,,,,,,,,377.0819999996165,,response,,,,99,,,,,,,Space,keypress(Space),,,,,,,,---- -- ----- -- ------ - ------- --- ----------<br>------------- ------ ------ ---- ---- ------- ----- -- ----<br>-------- ------- -- ---------- --- - --- ----- ----- ----<br>---- --- how ----- --- ---- ---- ------- ----- ---- -------<br>--- --- -- ----- -- --- ---- -- --- ---- -- ------ ------<br>--- ----- -- ----,155603.7999999998,155603.09999999963,155209.352,155220.09999999963,155226.018,155609.998,,30,how
screen,html.Screen,2_1_0_1_31,2022-02-17T10:52:09.311Z,,,,,,,,,,,,,,,,,53,,,,,,,,,,,,,,385.0020000000077,,response,,,,99,,,,,,,Space,keypress(Space),,,,,,,,---- -- ----- -- ------ - ------- --- ----------<br>------------- ------ ------ ---- ---- ------- ----- -- ----<br>-------- ------- -- ---------- --- - --- ----- ----- ----<br>---- --- --- close --- ---- ---- ------- ----- ---- -------<br>--- --- -- ----- -- --- ---- -- --- ---- -- ------ ------<br>--- ----- -- ----,155995.90000000037,155995,155593.332,155604,155609.998,156009.926,,31,close
screen,html.Screen,2_1_0_1_32,2022-02-17T10:52:09.670Z,,,,,,,,,,,,,,,,,53,,,,,,,,,,,,,,345.07399999999325,,response,,,,99,,,,,,,Space,keypress(Space),,,,,,,,---- -- ----- -- ------ - ------- --- ----------<br>------------- ------ ------ ---- ---- ------- ----- -- ----<br>-------- ------- -- ---------- --- - --- ----- ----- ----<br>---- --- --- ----- you ---- ---- ------- ----- ---- -------<br>--- --- -- ----- -- --- ---- -- --- ---- -- ------ ------<br>--- ----- -- ----,156355.7999999998,156355,155993.26,155996.09999999963,156009.926,156360.758,,32,you
screen,html.Screen,2_1_0_1_33,2022-02-17T10:52:10.062Z,,,,,,,,,,,,,,,,,53,,,,,,,,,,,,,,386.24199999999837,,response,,,,99,,,,,,,Space,keypress(Space),,,,,,,,---- -- ----- -- ------ - ------- --- ----------<br>------------- ------ ------ ---- ---- ------- ----- -- ----<br>-------- ------- -- ---------- --- - --- ----- ----- ----<br>---- --- --- ----- --- feel ---- ------- ----- ---- -------<br>--- --- -- ----- -- --- ---- -- --- ---- -- ------ ------<br>--- ----- -- ----,156747.90000000037,156747,156344.092,156356.2999999998,156360.758,156760.47,,33,feel
screen,html.Screen,2_1_0_1_34,2022-02-17T10:52:10.503Z,,,,,,,,,,,,,,,,,53,,,,,,,,,,,,,,426.7300000001851,,response,,,,99,,,,,,,Space,keypress(Space),,,,,,,,---- -- ----- -- ------ - ------- --- ----------<br>------------- ------ ------ ---- ---- ------- ----- -- ----<br>-------- ------- -- ---------- --- - --- ----- ----- ----<br>---- --- --- ----- --- ---- that ------- ----- ---- -------<br>--- --- -- ----- -- --- ---- -- --- ---- -- ------ ------<br>--- ----- -- ----,157188,157187.2000000002,156743.804,156748.09999999963,156760.47,157194.442,,34,that
screen,html.Screen,2_1_0_1_35,2022-02-17T10:52:10.903Z,,,,,,,,,,,,,,,,,53,,,,,,,,,,,,,,392.4580000003625,,response,,,,99,,,,,,,Space,keypress(Space),,,,,,,,---- -- ----- -- ------ - ------- --- ----------<br>------------- ------ ------ ---- ---- ------- ----- -- ----<br>-------- ------- -- ---------- --- - --- ----- ----- ----<br>---- --- --- ----- --- ---- ---- matters ----- ---- -------<br>--- --- -- ----- -- --- ---- -- --- ---- -- ------ ------<br>--- ----- -- ----,157588,157586.90000000037,157177.776,157188.2000000002,157194.442,157594.676,,35,matters
screen,html.Screen,2_1_0_1_36,2022-02-17T10:52:11.759Z,,,,,,,,,,,,,,,,,53,,,,,,,,,,,,,,848.5240000001795,,response,,,,99,,,,,,,Space,keypress(Space),,,,,,,,"---- -- ----- -- ------ - ------- --- ----------<br>------------- ------ ------ ---- ---- ------- ----- -- ----<br>-------- ------- -- ---------- --- - --- ----- ----- ----<br>---- --- --- ----- --- ---- ---- ------- most, ---- -------<br>--- --- -- ----- -- --- ---- -- --- ---- -- ------ ------<br>--- ----- -- ----",158444.09999999963,158443.2000000002,157578.01,157588.2999999998,157594.676,158445.047,,36,"most,"
screen,html.Screen,2_1_0_1_37,2022-02-17T10:52:12.095Z,,,,,,,,,,,,,,,,,53,,,,,,,,,,,,,,334.35300000038114,,response,,,,99,,,,,,,Space,keypress(Space),,,,,,,,---- -- ----- -- ------ - ------- --- ----------<br>------------- ------ ------ ---- ---- ------- ----- -- ----<br>-------- ------- -- ---------- --- - --- ----- ----- ----<br>---- --- --- ----- --- ---- ---- ------- ----- it's -------<br>--- --- -- ----- -- --- ---- -- --- ---- -- ------ ------<br>--- ----- -- ----,158780.2000000002,158779.40000000037,158428.381,158444.2000000002,158445.047,158795.377,,37,it's
screen,html.Screen,2_1_0_1_38,2022-02-17T10:52:12.438Z,,,,,,,,,,,,,,,,,53,,,,,,,,,,,,,,327.6229999999923,,response,,,,99,,,,,,,Space,keypress(Space),,,,,,,,---- -- ----- -- ------ - ------- --- ----------<br>------------- ------ ------ ---- ---- ------- ----- -- ----<br>-------- ------- -- ---------- --- - --- ----- ----- ----<br>---- --- --- ----- --- ---- ---- ------- ----- ---- whether<br>--- --- -- ----- -- --- ---- -- --- ---- -- ------ ------<br>--- ----- -- ----,159123.7999999998,159123,158778.711,158780.40000000037,158795.377,159129.454,,38,whether
screen,html.Screen,2_1_0_1_39,2022-02-17T10:52:12.903Z,,,,,,,,,,,,,,,,,53,,,,,,,,,,,,,,457.5460000000021,,response,,,,99,,,,,,,Space,keypress(Space),,,,,,,,---- -- ----- -- ------ - ------- --- ----------<br>------------- ------ ------ ---- ---- ------- ----- -- ----<br>-------- ------- -- ---------- --- - --- ----- ----- ----<br>---- --- --- ----- --- ---- ---- ------- ----- ---- -------<br>you --- -- ----- -- --- ---- -- --- ---- -- ------ ------<br>--- ----- -- ----,159588,159587,159112.788,159124,159129.454,159596.357,,39,you
screen,html.Screen,2_1_0_1_40,2022-02-17T10:52:13.238Z,,,,,,,,,,,,,,,,,53,,,,,,,,,,,,,,326.64300000001094,,response,,,,99,,,,,,,Space,keypress(Space),,,,,,,,---- -- ----- -- ------ - ------- --- ----------<br>------------- ------ ------ ---- ---- ------- ----- -- ----<br>-------- ------- -- ---------- --- - --- ----- ----- ----<br>---- --- --- ----- --- ---- ---- ------- ----- ---- -------<br>--- are -- ----- -- --- ---- -- --- ---- -- ------ ------<br>--- ----- -- ----,159923.7999999998,159923,159579.691,159588.2000000002,159596.357,159929.805,,40,are
screen,html.Screen,2_1_0_1_41,2022-02-17T10:52:13.494Z,,,,,,,,,,,,,,,,,53,,,,,,,,,,,,,,248.99499999982072,,response,,,,99,,,,,,,Space,keypress(Space),,,,,,,,---- -- ----- -- ------ - ------- --- ----------<br>------------- ------ ------ ---- ---- ------- ----- -- ----<br>-------- ------- -- ---------- --- - --- ----- ----- ----<br>---- --- --- ----- --- ---- ---- ------- ----- ---- -------<br>--- --- as ----- -- --- ---- -- --- ---- -- ------ ------<br>--- ----- -- ----,160179.7000000002,160178.7999999998,159913.139,159924,159929.805,160197.139,,41,as
screen,html.Screen,2_1_0_1_42,2022-02-17T10:52:13.902Z,,,,,,,,,,,,,,,,,53,,,,,,,,,,,,,,389.76100000037695,,response,,,,99,,,,,,,Space,keypress(Space),,,,,,,,---- -- ----- -- ------ - ------- --- ----------<br>------------- ------ ------ ---- ---- ------- ----- -- ----<br>-------- ------- -- ---------- --- - --- ----- ----- ----<br>---- --- --- ----- --- ---- ---- ------- ----- ---- -------<br>--- --- -- close -- --- ---- -- --- ---- -- ------ ------<br>--- ----- -- ----,160587.7000000002,160586.90000000037,160180.473,160180,160197.139,160597.429,,42,close
screen,html.Screen,2_1_0_1_43,2022-02-17T10:52:14.303Z,,,,,,,,,,,,,,,,,53,,,,,,,,,,,,,,389.77100000018254,,response,,,,99,,,,,,,Space,keypress(Space),,,,,,,,---- -- ----- -- ------ - ------- --- ----------<br>------------- ------ ------ ---- ---- ------- ----- -- ----<br>-------- ------- -- ---------- --- - --- ----- ----- ----<br>---- --- --- ----- --- ---- ---- ------- ----- ---- -------<br>--- --- -- ----- as --- ---- -- --- ---- -- ------ ------<br>--- ----- -- ----,160988,160987.2000000002,160580.763,160587.90000000037,160597.429,160997.482,,43,as
screen,html.Screen,2_1_0_1_44,2022-02-17T10:52:14.566Z,,,,,,,,,,,,,,,,,53,,,,,,,,,,,,,,253.51800000001094,,response,,,,99,,,,,,,Space,keypress(Space),,,,,,,,---- -- ----- -- ------ - ------- --- ----------<br>------------- ------ ------ ---- ---- ------- ----- -- ----<br>-------- ------- -- ---------- --- - --- ----- ----- ----<br>---- --- --- ----- --- ---- ---- ------- ----- ---- -------<br>--- --- -- ----- -- you ---- -- --- ---- -- ------ ------<br>--- ----- -- ----,161251.7999999998,161251,160980.816,160988.2000000002,160997.482,161264.683,,44,you
screen,html.Screen,2_1_0_1_45,2022-02-17T10:52:14.958Z,,,,,,,,,,,,,,,,,53,,,,,,,,,,,,,,378.21700000038254,,response,,,,99,,,,,,,Space,keypress(Space),,,,,,,,---- -- ----- -- ------ - ------- --- ----------<br>------------- ------ ------ ---- ---- ------- ----- -- ----<br>-------- ------- -- ---------- --- - --- ----- ----- ----<br>---- --- --- ----- --- ---- ---- ------- ----- ---- -------<br>--- --- -- ----- -- --- want -- --- ---- -- ------ ------<br>--- ----- -- ----,161643.7999999998,161642.90000000037,161248.017,161252,161264.683,161647.887,,45,want
screen,html.Screen,2_1_0_1_46,2022-02-17T10:52:15.348Z,,,,,,,,,,,,,,,,,53,,,,,,,,,,,,,,384.6130000000121,,response,,,,99,,,,,,,Space,keypress(Space),,,,,,,,---- -- ----- -- ------ - ------- --- ----------<br>------------- ------ ------ ---- ---- ------- ----- -- ----<br>-------- ------- -- ---------- --- - --- ----- ----- ----<br>---- --- --- ----- --- ---- ---- ------- ----- ---- -------<br>--- --- -- ----- -- --- ---- to --- ---- -- ------ ------<br>--- ----- -- ----,162033.2999999998,162032.5,161631.221,161643.90000000037,161647.887,162048.595,,46,to
screen,html.Screen,2_1_0_1_47,2022-02-17T10:52:15.702Z,,,,,,,,,,,,,,,,,53,,,,,,,,,,,,,,338.5049999996263,,response,,,,99,,,,,,,Space,keypress(Space),,,,,,,,"---- -- ----- -- ------ - ------- --- ----------<br>------------- ------ ------ ---- ---- ------- ----- -- ----<br>-------- ------- -- ---------- --- - --- ----- ----- ----<br>---- --- --- ----- --- ---- ---- ------- ----- ---- -------<br>--- --- -- ----- -- --- ---- -- be, ---- -- ------ ------<br>--- ----- -- ----",162387.90000000037,162387.09999999963,162031.929,162033.5,162048.595,162398.462,,47,"be,"
screen,html.Screen,2_1_0_1_48,2022-02-17T10:52:16.286Z,,,,,,,,,,,,,,,,,53,,,,,,,,,,,,,,572.5380000000005,,response,,,,99,,,,,,,Space,keypress(Space),,,,,,,,---- -- ----- -- ------ - ------- --- ----------<br>------------- ------ ------ ---- ---- ------- ----- -- ----<br>-------- ------- -- ---------- --- - --- ----- ----- ----<br>---- --- --- ----- --- ---- ---- ------- ----- ---- -------<br>--- --- -- ----- -- --- ---- -- --- even -- ------ ------<br>--- ----- -- ----,162971.90000000037,162971,162381.796,162388.09999999963,162398.462,162982.379,,48,even
screen,html.Screen,2_1_0_1_49,2022-02-17T10:52:16.606Z,,,,,,,,,,,,,,,,,53,,,,,,,,,,,,,,308.62100000001374,,response,,,,99,,,,,,,Space,keypress(Space),,,,,,,,---- -- ----- -- ------ - ------- --- ----------<br>------------- ------ ------ ---- ---- ------- ----- -- ----<br>-------- ------- -- ---------- --- - --- ----- ----- ----<br>---- --- --- ----- --- ---- ---- ------- ----- ---- -------<br>--- --- -- ----- -- --- ---- -- --- ---- if ------ ------<br>--- ----- -- ----,163291.7999999998,163291,162965.713,162972,162982.379,163299.25,,49,if
screen,html.Screen,2_1_0_1_50,2022-02-17T10:52:16.886Z,,,,,,,,,,,,,,,,,53,,,,,,,,,,,,,,271.65000000037253,,response,,,,99,,,,,,,Space,keypress(Space),,,,,,,,---- -- ----- -- ------ - ------- --- ----------<br>------------- ------ ------ ---- ---- ------- ----- -- ----<br>-------- ------- -- ---------- --- - --- ----- ----- ----<br>---- --- --- ----- --- ---- ---- ------- ----- ---- -------<br>--- --- -- ----- -- --- ---- -- --- ---- -- that's ------<br>--- ----- -- ----,163571.7999999998,163570.90000000037,163282.584,163292,163299.25,163583.084,,50,that's
screen,html.Screen,2_1_0_1_51,2022-02-17T10:52:17.311Z,,,,,,,,,,,,,,,,,53,,,,,,,,,,,,,,412.0159999996249,,response,,,,99,,,,,,,Space,keypress(Space),,,,,,,,---- -- ----- -- ------ - ------- --- ----------<br>------------- ------ ------ ---- ---- ------- ----- -- ----<br>-------- ------- -- ---------- --- - --- ----- ----- ----<br>---- --- --- ----- --- ---- ---- ------- ----- ---- -------<br>--- --- -- ----- -- --- ---- -- --- ---- -- ------ really<br>--- ----- -- ----,163996,163995.09999999963,163566.418,163572,163583.084,164000.027,,51,really
screen,html.Screen,2_1_0_1_52,2022-02-17T10:52:17.750Z,,,,,,,,,,,,,,,,,53,,,,,,,,,,,,,,434.87300000037067,,response,,,,99,,,,,,,Space,keypress(Space),,,,,,,,---- -- ----- -- ------ - ------- --- ----------<br>------------- ------ ------ ---- ---- ------- ----- -- ----<br>-------- ------- -- ---------- --- - --- ----- ----- ----<br>---- --- --- ----- --- ---- ---- ------- ----- ---- -------<br>--- --- -- ----- -- --- ---- -- --- ---- -- ------ ------<br>not ----- -- ----,164435.7999999998,164434.90000000037,163983.361,163996.2000000002,164000.027,164450.291,,52,not
screen,html.Screen,2_1_0_1_53,2022-02-17T10:52:17.950Z,,,,,,,,,,,,,,,,,53,,,,,,,,,,,,,,184.6090000003751,,response,,,,99,,,,,,,Space,keypress(Space),,,,,,,,---- -- ----- -- ------ - ------- --- ----------<br>------------- ------ ------ ---- ---- ------- ----- -- ----<br>-------- ------- -- ---------- --- - --- ----- ----- ----<br>---- --- --- ----- --- ---- ---- ------- ----- ---- -------<br>--- --- -- ----- -- --- ---- -- --- ---- -- ------ ------<br>--- close -- ----,164635.7000000002,164634.90000000037,164433.625,164435.90000000037,164450.291,164650.62,,53,close
screen,html.Screen,2_1_0_1_54,2022-02-17T10:52:18.382Z,,,,,,,,,,,,,,,,,53,,,,,,,,,,,,,,416.4799999996321,,response,,,,99,,,,,,,Space,keypress(Space),,,,,,,,---- -- ----- -- ------ - ------- --- ----------<br>------------- ------ ------ ---- ---- ------- ----- -- ----<br>-------- ------- -- ---------- --- - --- ----- ----- ----<br>---- --- --- ----- --- ---- ---- ------- ----- ---- -------<br>--- --- -- ----- -- --- ---- -- --- ---- -- ------ ------<br>--- ----- at ----,165067.7999999998,165067.09999999963,164633.954,164635.90000000037,164650.62,165084.284,,54,at
screen,html.Screen,2_1_0_1_55,2022-02-17T10:52:18.855Z,,,,,,,,,,,,,,,,,53,,,,,,,,,,,,,,454.6160000003583,,response,,,,99,,,,,,,Space,keypress(Space),,,,,,,,---- -- ----- -- ------ - ------- --- ----------<br>------------- ------ ------ ---- ---- ------- ----- -- ----<br>-------- ------- -- ---------- --- - --- ----- ----- ----<br>---- --- --- ----- --- ---- ---- ------- ----- ---- -------<br>--- --- -- ----- -- --- ---- -- --- ---- -- ------ ------<br>--- ----- -- all.,165540,165538.90000000037,165067.618,165068,165084.284,165551.519,,55,all.
Item 99,flow.Loop,2_1_0_1,2022-02-17T10:52:18.855Z,,,,,,,,,,,,,,,,,,,,,,,,,,,,,,,24958.82600000038,,completion,,,,,C,,,,,,,,,,,silence,,,,,165540.40000000037,165538.90000000037,140563.408,140566.40000000037,140580.074,165551.519,,,
Question 1,html.Screen,2_1_0_2,2022-02-17T10:52:24.563Z,,,,,,,,,,,,,,,,,,,,,,,,,,,,true,FALSE,,5695.580999999627,,response,,,,99,C,,,,,,FALSE,click #choice-2,,,,silence,,,,,171248,171247.09999999963,165534.853,165540.5,165551.519,171255.1,,,
Question 2,html.Screen,2_1_0_3,2022-02-17T10:52:29.850Z,,,,,,,,,,,,,,,,,,,,,,,,,,,,true,TRUE,,5279.899999999994,,response,,,,99,C,,,,,,TRUE,click #choice-1,,,,silence,,,,,176535.7999999998,176535,171238.434,171248,171255.1,176543.558,,,
Item 99,flow.Sequence,2_1_0,2022-02-17T10:52:29.851Z,,,,,,,,,,,,,,,,,,,,,,,,,,,,,,,45947.335999999996,,completion,,,,,,,,,,,,,,,,,,,,,176535.90000000037,176535,130570.998,130580.40000000037,130587.664,176543.558,,,
Holding screen,html.Screen,2_1_1_0,2022-02-17T10:52:39.850Z,,,,,,,,,,,,,,,,,,,,,,,,,,,,,,,10007.075000000012,,timeout,,,,,,,,,,,,,,,,,,,,,186535.09999999963,186533.967,176526.892,176536.09999999963,176543.558,186550.633,,,
screen,html.Screen,2_1_1_1_0,2022-02-17T10:52:41.564Z,,,,,,,,,,,,,,,,,54,,,,,,,,,,,,,,1697.767000000371,,response,,,,100,,,,,,,Space,keypress(Space),,,,,,,,At --- ---- --- ------ ----- ------- ---- -- --- ------- --<br>------- ---------- ------ -- ----- -- ----- -- ---- ------<br>--- ----- --- --- ------ -------- ----- --- ------ ----- --<br>----- ----- ---------- --- --- ------ ------ ---- -- ------<br>------- --- ------ ----- --- ---- ------- -- ---- --- --<br>------- ------,188249.40000000037,188248.40000000037,186533.967,186535.2999999998,186550.633,188251.381,,0,At
screen,html.Screen,2_1_1_1_1,2022-02-17T10:52:41.910Z,,,,,,,,,,,,,,,,,54,,,,,,,,,,,,,,343.4189999998198,,response,,,,100,,,,,,,Space,keypress(Space),,,,,,,,-- the ---- --- ------ ----- ------- ---- -- --- ------- --<br>------- ---------- ------ -- ----- -- ----- -- ---- ------<br>--- ----- --- --- ------ -------- ----- --- ------ ----- --<br>----- ----- ---------- --- --- ------ ------ ---- -- ------<br>------- --- ------ ----- --- ---- ------- -- ---- --- --<br>------- ------,188595.5,188594.7999999998,188234.715,188250.40000000037,188251.381,188602.159,,1,the
screen,html.Screen,2_1_1_1_2,2022-02-17T10:52:42.198Z,,,,,,,,,,,,,,,,,54,,,,,,,,,,,,,,280.54100000017206,,response,,,,100,,,,,,,Space,keypress(Space),,,,,,,,-- --- time --- ------ ----- ------- ---- -- --- ------- --<br>------- ---------- ------ -- ----- -- ----- -- ---- ------<br>--- ----- --- --- ------ -------- ----- --- ------ ----- --<br>----- ----- ---------- --- --- ------ ------ ---- -- ------<br>------- --- ------ ----- --- ---- ------- -- ---- --- --<br>------- ------,188883.5,188882.7000000002,188585.493,188595.7000000002,188602.159,188887.077,,2,time
screen,html.Screen,2_1_1_1_3,2022-02-17T10:52:42.614Z,,,,,,,,,,,,,,,,,54,,,,,,,,,,,,,,411.7229999998235,,response,,,,100,,,,,,,Space,keypress(Space),,,,,,,,-- --- ---- the ------ ----- ------- ---- -- --- ------- --<br>------- ---------- ------ -- ----- -- ----- -- ---- ------<br>--- ----- --- --- ------ -------- ----- --- ------ ----- --<br>----- ----- ---------- --- --- ------ ------ ---- -- ------<br>------- --- ------ ----- --- ---- ------- -- ---- --- --<br>------- ------,189299.7000000002,189298.7999999998,188870.411,188883.7000000002,188887.077,189303.845,,3,the
screen,html.Screen,2_1_1_1_4,2022-02-17T10:52:42.974Z,,,,,,,,,,,,,,,,,54,,,,,,,,,,,,,,354.8550000001851,,response,,,,100,,,,,,,Space,keypress(Space),,,,,,,,-- --- ---- --- French ----- ------- ---- -- --- ------- --<br>------- ---------- ------ -- ----- -- ----- -- ---- ------<br>--- ----- --- --- ------ -------- ----- --- ------ ----- --<br>----- ----- ---------- --- --- ------ ------ ---- -- ------<br>------- --- ------ ----- --- ---- ------- -- ---- --- --<br>------- ------,189659.5,189658.7000000002,189287.179,189299.7999999998,189303.845,189671.062,,4,French
screen,html.Screen,2_1_1_1_5,2022-02-17T10:52:43.558Z,,,,,,,,,,,,,,,,,54,,,,,,,,,,,,,,571.8380000003672,,response,,,,100,,,,,,,Space,keypress(Space),,,,,,,,-- --- ---- --- ------ crown ------- ---- -- --- ------- --<br>------- ---------- ------ -- ----- -- ----- -- ---- ------<br>--- ----- --- --- ------ -------- ----- --- ------ ----- --<br>----- ----- ---------- --- --- ------ ------ ---- -- ------<br>------- --- ------ ----- --- ---- ------- -- ---- --- --<br>------- ------,190243.59999999963,190242.90000000037,189654.396,189659.59999999963,189671.062,190254.394,,5,crown
screen,html.Screen,2_1_1_1_6,2022-02-17T10:52:43.942Z,,,,,,,,,,,,,,,,,54,,,,,,,,,,,,,,372.30600000018603,,response,,,,100,,,,,,,Space,keypress(Space),,,,,,,,-- --- ---- --- ------ ----- secured ---- -- --- ------- --<br>------- ---------- ------ -- ----- -- ----- -- ---- ------<br>--- ----- --- --- ------ -------- ----- --- ------ ----- --<br>----- ----- ---------- --- --- ------ ------ ---- -- ------<br>------- --- ------ ----- --- ---- ------- -- ---- --- --<br>------- ------,190627.59999999963,190626.7000000002,190237.728,190243.90000000037,190254.394,190638.078,,6,secured
screen,html.Screen,2_1_1_1_7,2022-02-17T10:52:44.310Z,,,,,,,,,,,,,,,,,54,,,,,,,,,,,,,,356.9219999999914,,response,,,,100,,,,,,,Space,keypress(Space),,,,,,,,-- --- ---- --- ------ ----- ------- much -- --- ------- --<br>------- ---------- ------ -- ----- -- ----- -- ---- ------<br>--- ----- --- --- ------ -------- ----- --- ------ ----- --<br>----- ----- ---------- --- --- ------ ------ ---- -- ------<br>------- --- ------ ----- --- ---- ------- -- ---- --- --<br>------- ------,190995.90000000037,190995,190621.412,190627.7999999998,190638.078,191005.214,,7,much
screen,html.Screen,2_1_1_1_8,2022-02-17T10:52:44.750Z,,,,,,,,,,,,,,,,,54,,,,,,,,,,,,,,429.48600000017905,,response,,,,100,,,,,,,Space,keypress(Space),,,,,,,,-- --- ---- --- ------ ----- ------- ---- of --- ------- --<br>------- ---------- ------ -- ----- -- ----- -- ---- ------<br>--- ----- --- --- ------ -------- ----- --- ------ ----- --<br>----- ----- ---------- --- --- ------ ------ ---- -- ------<br>------- --- ------ ----- --- ---- ------- -- ---- --- --<br>------- ------,191435.59999999963,191434.7000000002,190988.548,190996.09999999963,191005.214,191438.831,,8,of
screen,html.Screen,2_1_1_1_9,2022-02-17T10:52:45.022Z,,,,,,,,,,,,,,,,,54,,,,,,,,,,,,,,267.96899999980815,,response,,,,100,,,,,,,Space,keypress(Space),,,,,,,,-- --- ---- --- ------ ----- ------- ---- -- its ------- --<br>------- ---------- ------ -- ----- -- ----- -- ---- ------<br>--- ----- --- --- ------ -------- ----- --- ------ ----- --<br>----- ----- ---------- --- --- ------ ------ ---- -- ------<br>------- --- ------ ----- --- ---- ------- -- ---- --- --<br>------- ------,191707.59999999963,191706.7999999998,191422.165,191435.7999999998,191438.831,191722.074,,9,its
screen,html.Screen,2_1_1_1_10,2022-02-17T10:52:45.430Z,,,,,,,,,,,,,,,,,54,,,,,,,,,,,,,,392.626000000193,,response,,,,100,,,,,,,Space,keypress(Space),,,,,,,,-- --- ---- --- ------ ----- ------- ---- -- --- revenue --<br>------- ---------- ------ -- ----- -- ----- -- ---- ------<br>--- ----- --- --- ------ -------- ----- --- ------ ----- --<br>----- ----- ---------- --- --- ------ ------ ---- -- ------<br>------- --- ------ ----- --- ---- ------- -- ---- --- --<br>------- ------,192115.5,192114.7000000002,191705.408,191707.7999999998,191722.074,192123.172,,10,revenue
screen,html.Screen,2_1_1_1_11,2022-02-17T10:52:45.950Z,,,,,,,,,,,,,,,,,54,,,,,,,,,,,,,,511.5280000001949,,response,,,,100,,,,,,,Space,keypress(Space),,,,,,,,-- --- ---- --- ------ ----- ------- ---- -- --- ------- by<br>------- ---------- ------ -- ----- -- ----- -- ---- ------<br>--- ----- --- --- ------ -------- ----- --- ------ ----- --<br>----- ----- ---------- --- --- ------ ------ ---- -- ------<br>------- --- ------ ----- --- ---- ------- -- ---- --- --<br>------- ------,192635.5,192634.7000000002,192106.506,192115.7000000002,192123.172,192639.615,,11,by
screen,html.Screen,2_1_1_1_12,2022-02-17T10:52:46.398Z,,,,,,,,,,,,,,,,,54,,,,,,,,,,,,,,443.28500000038184,,response,,,,100,,,,,,,Space,keypress(Space),,,,,,,,-- --- ---- --- ------ ----- ------- ---- -- --- ------- --<br>issuing ---------- ------ -- ----- -- ----- -- ---- ------<br>--- ----- --- --- ------ -------- ----- --- ------ ----- --<br>----- ----- ---------- --- --- ------ ------ ---- -- ------<br>------- --- ------ ----- --- ---- ------- -- ---- --- --<br>------- ------,193083.7000000002,193082.90000000037,192622.949,192635.7999999998,192639.615,193090.121,,12,issuing
screen,html.Screen,2_1_1_1_13,2022-02-17T10:52:46.678Z,,,,,,,,,,,,,,,,,54,,,,,,,,,,,,,,272.47899999961373,,response,,,,100,,,,,,,Space,keypress(Space),,,,,,,,-- --- ---- --- ------ ----- ------- ---- -- --- ------- --<br>------- government ------ -- ----- -- ----- -- ---- ------<br>--- ----- --- --- ------ -------- ----- --- ------ ----- --<br>----- ----- ---------- --- --- ------ ------ ---- -- ------<br>------- --- ------ ----- --- ---- ------- -- ---- --- --<br>------- ------,193363.2999999998,193362.59999999963,193073.455,193083.90000000037,193090.121,193373.924,,13,government
screen,html.Screen,2_1_1_1_14,2022-02-17T10:52:47.662Z,,,,,,,,,,,,,,,,,54,,,,,,,,,,,,,,972.8759999998147,,response,,,,100,,,,,,,Space,keypress(Space),,,,,,,,-- --- ---- --- ------ ----- ------- ---- -- --- ------- --<br>------- ---------- bonds. -- ----- -- ----- -- ---- ------<br>--- ----- --- --- ------ -------- ----- --- ------ ----- --<br>----- ----- ---------- --- --- ------ ------ ---- -- ------<br>------- --- ------ ----- --- ---- ------- -- ---- --- --<br>------- ------,194347.5,194346.7999999998,193357.258,193363.59999999963,193373.924,194357.525,,14,bonds.
screen,html.Screen,2_1_1_1_15,2022-02-17T10:52:48.390Z,,,,,,,,,,,,,,,,,54,,,,,,,,,,,,,,717.2749999998196,,response,,,,100,,,,,,,Space,keypress(Space),,,,,,,,-- --- ---- --- ------ ----- ------- ---- -- --- ------- --<br>------- ---------- ------ In ----- -- ----- -- ---- ------<br>--- ----- --- --- ------ -------- ----- --- ------ ----- --<br>----- ----- ---------- --- --- ------ ------ ---- -- ------<br>------- --- ------ ----- --- ---- ------- -- ---- --- --<br>------- ------,195075.7000000002,195074.7999999998,194340.859,194347.7999999998,194357.525,195091.153,,15,In
screen,html.Screen,2_1_1_1_16,2022-02-17T10:52:49.414Z,,,,,,,,,,,,,,,,,54,,,,,,,,,,,,,,1007.8470000000088,,response,,,,100,,,,,,,Space,keypress(Space),,,,,,,,"-- --- ---- --- ------ ----- ------- ---- -- --- ------- --<br>------- ---------- ------ -- 1727, -- ----- -- ---- ------<br>--- ----- --- --- ------ -------- ----- --- ------ ----- --<br>----- ----- ---------- --- --- ------ ------ ---- -- ------<br>------- --- ------ ----- --- ---- ------- -- ---- --- --<br>------- ------",196099.7999999998,196099,195074.487,195075.7999999998,195091.153,196108.253,,16,"1727,"
screen,html.Screen,2_1_1_1_17,2022-02-17T10:52:49.886Z,,,,,,,,,,,,,,,,,54,,,,,,,,,,,,,,462.54699999981676,,response,,,,100,,,,,,,Space,keypress(Space),,,,,,,,-- --- ---- --- ------ ----- ------- ---- -- --- ------- --<br>------- ---------- ------ -- ----- in ----- -- ---- ------<br>--- ----- --- --- ------ -------- ----- --- ------ ----- --<br>----- ----- ---------- --- --- ------ ------ ---- -- ------<br>------- --- ------ ----- --- ---- ------- -- ---- --- --<br>------- ------,196571.5,196570.7999999998,196091.587,196099.90000000037,196108.253,196575.773,,17,in
screen,html.Screen,2_1_1_1_18,2022-02-17T10:52:50.302Z,,,,,,,,,,,,,,,,,54,,,,,,,,,,,,,,410.92700000019977,,response,,,,100,,,,,,,Space,keypress(Space),,,,,,,,-- --- ---- --- ------ ----- ------- ---- -- --- ------- --<br>------- ---------- ------ -- ----- -- order -- ---- ------<br>--- ----- --- --- ------ -------- ----- --- ------ ----- --<br>----- ----- ---------- --- --- ------ ------ ---- -- ------<br>------- --- ------ ----- --- ---- ------- -- ---- --- --<br>------- ------,196987.59999999963,196986.7000000002,196559.107,196571.7999999998,196575.773,196993.17,,18,order
screen,html.Screen,2_1_1_1_19,2022-02-17T10:52:50.598Z,,,,,,,,,,,,,,,,,54,,,,,,,,,,,,,,289.53000000017346,,response,,,,100,,,,,,,Space,keypress(Space),,,,,,,,-- --- ---- --- ------ ----- ------- ---- -- --- ------- --<br>------- ---------- ------ -- ----- -- ----- to ---- ------<br>--- ----- --- --- ------ -------- ----- --- ------ ----- --<br>----- ----- ---------- --- --- ------ ------ ---- -- ------<br>------- --- ------ ----- --- ---- ------- -- ---- --- --<br>------- ------,197283.5,197282.7000000002,196976.504,196987.7999999998,196993.17,197293.658,,19,to
screen,html.Screen,2_1_1_1_20,2022-02-17T10:52:50.814Z,,,,,,,,,,,,,,,,,54,,,,,,,,,,,,,,205.04200000019046,,response,,,,100,,,,,,,Space,keypress(Space),,,,,,,,-- --- ---- --- ------ ----- ------- ---- -- --- ------- --<br>------- ---------- ------ -- ----- -- ----- -- save ------<br>--- ----- --- --- ------ -------- ----- --- ------ ----- --<br>----- ----- ---------- --- --- ------ ------ ---- -- ------<br>------- --- ------ ----- --- ---- ------- -- ---- --- --<br>------- ------,197499.40000000037,197498.7000000002,197276.992,197283.59999999963,197293.658,197510.686,,20,save
screen,html.Screen,2_1_1_1_21,2022-02-17T10:52:51.294Z,,,,,,,,,,,,,,,,,54,,,,,,,,,,,,,,468.1139999998268,,response,,,,100,,,,,,,Space,keypress(Space),,,,,,,,"-- --- ---- --- ------ ----- ------- ---- -- --- ------- --<br>------- ---------- ------ -- ----- -- ----- -- ---- money,<br>--- ----- --- --- ------ -------- ----- --- ------ ----- --<br>----- ----- ---------- --- --- ------ ------ ---- -- ------<br>------- --- ------ ----- --- ---- ------- -- ---- --- --<br>------- ------",197979.7000000002,197978.7999999998,197494.02,197499.7000000002,197510.686,197994.206,,21,"money,"
screen,html.Screen,2_1_1_1_22,2022-02-17T10:52:51.756Z,,,,,,,,,,,,,,,,,54,,,,,,,,,,,,,,445.9940000001807,,response,,,,100,,,,,,,Space,keypress(Space),,,,,,,,-- --- ---- --- ------ ----- ------- ---- -- --- ------- --<br>------- ---------- ------ -- ----- -- ----- -- ---- ------<br>the ----- --- --- ------ -------- ----- --- ------ ----- --<br>----- ----- ---------- --- --- ------ ------ ---- -- ------<br>------- --- ------ ----- --- ---- ------- -- ---- --- --<br>------- ------,198441.09999999963,198440.2000000002,197977.54,197979.90000000037,197994.206,198444.528,,22,the
screen,html.Screen,2_1_1_1_23,2022-02-17T10:52:51.974Z,,,,,,,,,,,,,,,,,54,,,,,,,,,,,,,,214.07199999963632,,response,,,,100,,,,,,,Space,keypress(Space),,,,,,,,-- --- ---- --- ------ ----- ------- ---- -- --- ------- --<br>------- ---------- ------ -- ----- -- ----- -- ---- ------<br>--- state --- --- ------ -------- ----- --- ------ ----- --<br>----- ----- ---------- --- --- ------ ------ ---- -- ------<br>------- --- ------ ----- --- ---- ------- -- ---- --- --<br>------- ------,198659.5,198658.59999999963,198427.862,198441.2999999998,198444.528,198660.951,,23,state
screen,html.Screen,2_1_1_1_24,2022-02-17T10:52:52.350Z,,,,,,,,,,,,,,,,,54,,,,,,,,,,,,,,373.74900000018533,,response,,,,100,,,,,,,Space,keypress(Space),,,,,,,,-- --- ---- --- ------ ----- ------- ---- -- --- ------- --<br>------- ---------- ------ -- ----- -- ----- -- ---- ------<br>--- ----- cut --- ------ -------- ----- --- ------ ----- --<br>----- ----- ---------- --- --- ------ ------ ---- -- ------<br>------- --- ------ ----- --- ---- ------- -- ---- --- --<br>------- ------,199035.5,199034.7000000002,198644.285,198659.7000000002,198660.951,199045.471,,24,cut
screen,html.Screen,2_1_1_1_25,2022-02-17T10:52:52.766Z,,,,,,,,,,,,,,,,,54,,,,,,,,,,,,,,405.3289999998233,,response,,,,100,,,,,,,Space,keypress(Space),,,,,,,,-- --- ---- --- ------ ----- ------- ---- -- --- ------- --<br>------- ---------- ------ -- ----- -- ----- -- ---- ------<br>--- ----- --- the ------ -------- ----- --- ------ ----- --<br>----- ----- ---------- --- --- ------ ------ ---- -- ------<br>------- --- ------ ----- --- ---- ------- -- ---- --- --<br>------- ------,199451.59999999963,199450.7999999998,199028.805,199035.7000000002,199045.471,199461.915,,25,the
screen,html.Screen,2_1_1_1_26,2022-02-17T10:52:53.622Z,,,,,,,,,,,,,,,,,54,,,,,,,,,,,,,,844.8849999998056,,response,,,,100,,,,,,,Space,keypress(Space),,,,,,,,-- --- ---- --- ------ ----- ------- ---- -- --- ------- --<br>------- ---------- ------ -- ----- -- ----- -- ---- ------<br>--- ----- --- --- bonds' -------- ----- --- ------ ----- --<br>----- ----- ---------- --- --- ------ ------ ---- -- ------<br>------- --- ------ ----- --- ---- ------- -- ---- --- --<br>------- ------,200307.59999999963,200306.7999999998,199445.249,199451.7000000002,199461.915,200312.346,,26,bonds'
screen,html.Screen,2_1_1_1_27,2022-02-17T10:52:54.062Z,,,,,,,,,,,,,,,,,54,,,,,,,,,,,,,,434.15400000000955,,response,,,,100,,,,,,,Space,keypress(Space),,,,,,,,-- --- ---- --- ------ ----- ------- ---- -- --- ------- --<br>------- ---------- ------ -- ----- -- ----- -- ---- ------<br>--- ----- --- --- ------ interest ----- --- ------ ----- --<br>----- ----- ---------- --- --- ------ ------ ---- -- ------<br>------- --- ------ ----- --- ---- ------- -- ---- --- --<br>------- ------,200747.40000000037,200746.5,200295.68,200307.7999999998,200312.346,200762.682,,27,interest
screen,html.Screen,2_1_1_1_28,2022-02-17T10:52:54.502Z,,,,,,,,,,,,,,,,,54,,,,,,,,,,,,,,424.01800000018557,,response,,,,100,,,,,,,Space,keypress(Space),,,,,,,,-- --- ---- --- ------ ----- ------- ---- -- --- ------- --<br>------- ---------- ------ -- ----- -- ----- -- ---- ------<br>--- ----- --- --- ------ -------- rate. --- ------ ----- --<br>----- ----- ---------- --- --- ------ ------ ---- -- ------<br>------- --- ------ ----- --- ---- ------- -- ---- --- --<br>------- ------,201187.5,201186.7000000002,200746.016,200747.59999999963,200762.682,201196.654,,28,rate.
screen,html.Screen,2_1_1_1_29,2022-02-17T10:52:55.342Z,,,,,,,,,,,,,,,,,54,,,,,,,,,,,,,,830.1459999998042,,response,,,,100,,,,,,,Space,keypress(Space),,,,,,,,-- --- ---- --- ------ ----- ------- ---- -- --- ------- --<br>------- ---------- ------ -- ----- -- ----- -- ---- ------<br>--- ----- --- --- ------ -------- ----- The ------ ----- --<br>----- ----- ---------- --- --- ------ ------ ---- -- ------<br>------- --- ------ ----- --- ---- ------- -- ---- --- --<br>------- ------,202027.59999999963,202026.7999999998,201179.988,201187.7000000002,201196.654,202030.509,,29,The
screen,html.Screen,2_1_1_1_30,2022-02-17T10:52:55.678Z,,,,,,,,,,,,,,,,,54,,,,,,,,,,,,,,332.19100000019534,,response,,,,100,,,,,,,Space,keypress(Space),,,,,,,,-- --- ---- --- ------ ----- ------- ---- -- --- ------- --<br>------- ---------- ------ -- ----- -- ----- -- ---- ------<br>--- ----- --- --- ------ -------- ----- --- market ----- --<br>----- ----- ---------- --- --- ------ ------ ---- -- ------<br>------- --- ------ ----- --- ---- ------- -- ---- --- --<br>------- ------,202363.5,202362.7000000002,202013.843,202027.7999999998,202030.509,202380.676,,30,market
screen,html.Screen,2_1_1_1_31,2022-02-17T10:52:55.950Z,,,,,,,,,,,,,,,,,54,,,,,,,,,,,,,,254.12399999980698,,response,,,,100,,,,,,,Space,keypress(Space),,,,,,,,-- --- ---- --- ------ ----- ------- ---- -- --- ------- --<br>------- ---------- ------ -- ----- -- ----- -- ---- ------<br>--- ----- --- --- ------ -------- ----- --- ------ value --<br>----- ----- ---------- --- --- ------ ------ ---- -- ------<br>------- --- ------ ----- --- ---- ------- -- ---- --- --<br>------- ------,202635.5,202634.7999999998,202364.01,202363.7000000002,202380.676,202648.23,,31,value
screen,html.Screen,2_1_1_1_32,2022-02-17T10:52:56.358Z,,,,,,,,,,,,,,,,,54,,,,,,,,,,,,,,394.4700000001758,,response,,,,100,,,,,,,Space,keypress(Space),,,,,,,,-- --- ---- --- ------ ----- ------- ---- -- --- ------- --<br>------- ---------- ------ -- ----- -- ----- -- ---- ------<br>--- ----- --- --- ------ -------- ----- --- ------ ----- of<br>----- ----- ---------- --- --- ------ ------ ---- -- ------<br>------- --- ------ ----- --- ---- ------- -- ---- --- --<br>------- ------,203043.5,203042.7000000002,202631.564,202635.7000000002,202648.23,203048.143,,32,of
screen,html.Screen,2_1_1_1_33,2022-02-17T10:52:56.734Z,,,,,,,,,,,,,,,,,54,,,,,,,,,,,,,,370.2570000003616,,response,,,,100,,,,,,,Space,keypress(Space),,,,,,,,-- --- ---- --- ------ ----- ------- ---- -- --- ------- --<br>------- ---------- ------ -- ----- -- ----- -- ---- ------<br>--- ----- --- --- ------ -------- ----- --- ------ ----- --<br>these ----- ---------- --- --- ------ ------ ---- -- ------<br>------- --- ------ ----- --- ---- ------- -- ---- --- --<br>------- ------,203419.2999999998,203418.40000000037,203031.477,203043.7999999998,203048.143,203431.919,,33,these
screen,html.Screen,2_1_1_1_34,2022-02-17T10:52:56.998Z,,,,,,,,,,,,,,,,,54,,,,,,,,,,,,,,250.78100000019185,,response,,,,100,,,,,,,Space,keypress(Space),,,,,,,,-- --- ---- --- ------ ----- ------- ---- -- --- ------- --<br>------- ---------- ------ -- ----- -- ----- -- ---- ------<br>--- ----- --- --- ------ -------- ----- --- ------ ----- --<br>----- bonds ---------- --- --- ------ ------ ---- -- ------<br>------- --- ------ ----- --- ---- ------- -- ---- --- --<br>------- ------,203683.59999999963,203682.7000000002,203415.253,203419.40000000037,203431.919,203698.852,,34,bonds
screen,html.Screen,2_1_1_1_35,2022-02-17T10:52:57.359Z,,,,,,,,,,,,,,,,,54,,,,,,,,,,,,,,344.048000000359,,response,,,,100,,,,,,,Space,keypress(Space),,,,,,,,"-- --- ---- --- ------ ----- ------- ---- -- --- ------- --<br>------- ---------- ------ -- ----- -- ----- -- ---- ------<br>--- ----- --- --- ------ -------- ----- --- ------ ----- --<br>----- ----- plummeted, --- --- ------ ------ ---- -- ------<br>------- --- ------ ----- --- ---- ------- -- ---- --- --<br>------- ------",204043.7000000002,204042.90000000037,203682.186,203683.7999999998,203698.852,204049.196,,35,"plummeted,"
screen,html.Screen,2_1_1_1_36,2022-02-17T10:52:57.902Z,,,,,,,,,,,,,,,,,54,,,,,,,,,,,,,,537.4039999996312,,response,,,,100,,,,,,,Space,keypress(Space),,,,,,,,-- --- ---- --- ------ ----- ------- ---- -- --- ------- --<br>------- ---------- ------ -- ----- -- ----- -- ---- ------<br>--- ----- --- --- ------ -------- ----- --- ------ ----- --<br>----- ----- ---------- and --- ------ ------ ---- -- ------<br>------- --- ------ ----- --- ---- ------- -- ---- --- --<br>------- ------,204587.5,204586.59999999963,204032.53,204043.90000000037,204049.196,204599.414,,36,and
screen,html.Screen,2_1_1_1_37,2022-02-17T10:52:58.182Z,,,,,,,,,,,,,,,,,54,,,,,,,,,,,,,,267.2860000001965,,response,,,,100,,,,,,,Space,keypress(Space),,,,,,,,-- --- ---- --- ------ ----- ------- ---- -- --- ------- --<br>------- ---------- ------ -- ----- -- ----- -- ---- ------<br>--- ----- --- --- ------ -------- ----- --- ------ ----- --<br>----- ----- ---------- --- the ------ ------ ---- -- ------<br>------- --- ------ ----- --- ---- ------- -- ---- --- --<br>------- ------,204867.40000000037,204866.7000000002,204582.748,204587.7000000002,204599.414,204883.048,,37,the
screen,html.Screen,2_1_1_1_38,2022-02-17T10:52:58.422Z,,,,,,,,,,,,,,,,,54,,,,,,,,,,,,,,223.5519999996177,,response,,,,100,,,,,,,Space,keypress(Space),,,,,,,,-- --- ---- --- ------ ----- ------- ---- -- --- ------- --<br>------- ---------- ------ -- ----- -- ----- -- ---- ------<br>--- ----- --- --- ------ -------- ----- --- ------ ----- --<br>----- ----- ---------- --- --- market ------ ---- -- ------<br>------- --- ------ ----- --- ---- ------- -- ---- --- --<br>------- ------,205107.59999999963,205106.59999999963,204866.382,204867.5,204883.048,205116.95,,38,market
screen,html.Screen,2_1_1_1_39,2022-02-17T10:52:58.798Z,,,,,,,,,,,,,,,,,54,,,,,,,,,,,,,,365.8499999998021,,response,,,,100,,,,,,,Space,keypress(Space),,,,,,,,-- --- ---- --- ------ ----- ------- ---- -- --- ------- --<br>------- ---------- ------ -- ----- -- ----- -- ---- ------<br>--- ----- --- --- ------ -------- ----- --- ------ ----- --<br>----- ----- ---------- --- --- ------ became ---- -- ------<br>------- --- ------ ----- --- ---- ------- -- ---- --- --<br>------- ------,205483.59999999963,205482.7999999998,205100.284,205107.7000000002,205116.95,205499.927,,39,became
screen,html.Screen,2_1_1_1_40,2022-02-17T10:52:59.142Z,,,,,,,,,,,,,,,,,54,,,,,,,,,,,,,,326.8729999998177,,response,,,,100,,,,,,,Space,keypress(Space),,,,,,,,-- --- ---- --- ------ ----- ------- ---- -- --- ------- --<br>------- ---------- ------ -- ----- -- ----- -- ---- ------<br>--- ----- --- --- ------ -------- ----- --- ------ ----- --<br>----- ----- ---------- --- --- ------ ------ wary -- ------<br>------- --- ------ ----- --- ---- ------- -- ---- --- --<br>------- ------,205827.59999999963,205826.7999999998,205483.261,205483.7999999998,205499.927,205833.86,,40,wary
screen,html.Screen,2_1_1_1_41,2022-02-17T10:52:59.638Z,,,,,,,,,,,,,,,,,54,,,,,,,,,,,,,,488.84000000020023,,response,,,,100,,,,,,,Space,keypress(Space),,,,,,,,-- --- ---- --- ------ ----- ------- ---- -- --- ------- --<br>------- ---------- ------ -- ----- -- ----- -- ---- ------<br>--- ----- --- --- ------ -------- ----- --- ------ ----- --<br>----- ----- ---------- --- --- ------ ------ ---- of ------<br>------- --- ------ ----- --- ---- ------- -- ---- --- --<br>------- ------,206323.5,206322.7000000002,205817.194,205827.7999999998,205833.86,206334.205,,41,of
screen,html.Screen,2_1_1_1_42,2022-02-17T10:53:00.414Z,,,,,,,,,,,,,,,,,54,,,,,,,,,,,,,,764.4950000001991,,response,,,,100,,,,,,,Space,keypress(Space),,,,,,,,-- --- ---- --- ------ ----- ------- ---- -- --- ------- --<br>------- ---------- ------ -- ----- -- ----- -- ---- ------<br>--- ----- --- --- ------ -------- ----- --- ------ ----- --<br>----- ----- ---------- --- --- ------ ------ ---- -- French<br>------- --- ------ ----- --- ---- ------- -- ---- --- --<br>------- ------,207099.5,207098.7000000002,206317.539,206323.59999999963,206334.205,207101.184,,42,French
screen,html.Screen,2_1_1_1_43,2022-02-17T10:53:01.678Z,,,,,,,,,,,,,,,,,54,,,,,,,,,,,,,,1261.2160000003641,,response,,,,100,,,,,,,Space,keypress(Space),,,,,,,,-- --- ---- --- ------ ----- ------- ---- -- --- ------- --<br>------- ---------- ------ -- ----- -- ----- -- ---- ------<br>--- ----- --- --- ------ -------- ----- --- ------ ----- --<br>----- ----- ---------- --- --- ------ ------ ---- -- ------<br>credit. --- ------ ----- --- ---- ------- -- ---- --- --<br>------- ------,208363.2999999998,208362.40000000037,207084.518,207099.7000000002,207101.184,208368.153,,43,credit.
screen,html.Screen,2_1_1_1_44,2022-02-17T10:53:02.260Z,,,,,,,,,,,,,,,,,54,,,,,,,,,,,,,,576.0470000001951,,response,,,,100,,,,,,,Space,keypress(Space),,,,,,,,-- --- ---- --- ------ ----- ------- ---- -- --- ------- --<br>------- ---------- ------ -- ----- -- ----- -- ---- ------<br>--- ----- --- --- ------ -------- ----- --- ------ ----- --<br>----- ----- ---------- --- --- ------ ------ ---- -- ------<br>------- The ------ ----- --- ---- ------- -- ---- --- --<br>------- ------,208945.09999999963,208944.2000000002,208351.487,208363.5,208368.153,208952.437,,44,The
screen,html.Screen,2_1_1_1_45,2022-02-17T10:53:02.542Z,,,,,,,,,,,,,,,,,54,,,,,,,,,,,,,,274.1629999996221,,response,,,,100,,,,,,,Space,keypress(Space),,,,,,,,-- --- ---- --- ------ ----- ------- ---- -- --- ------- --<br>------- ---------- ------ -- ----- -- ----- -- ---- ------<br>--- ----- --- --- ------ -------- ----- --- ------ ----- --<br>----- ----- ---------- --- --- ------ ------ ---- -- ------<br>------- --- French ----- --- ---- ------- -- ---- --- --<br>------- ------,209227.40000000037,209226.59999999963,208935.771,208945.2999999998,208952.437,209236.344,,45,French
screen,html.Screen,2_1_1_1_46,2022-02-17T10:53:02.838Z,,,,,,,,,,,,,,,,,54,,,,,,,,,,,,,,286.2559999996156,,response,,,,100,,,,,,,Space,keypress(Space),,,,,,,,-- --- ---- --- ------ ----- ------- ---- -- --- ------- --<br>------- ---------- ------ -- ----- -- ----- -- ---- ------<br>--- ----- --- --- ------ -------- ----- --- ------ ----- --<br>----- ----- ---------- --- --- ------ ------ ---- -- ------<br>------- --- ------ state --- ---- ------- -- ---- --- --<br>------- ------,209523.40000000037,209522.59999999963,209219.678,209227.59999999963,209236.344,209537.06,,46,state
screen,html.Screen,2_1_1_1_47,2022-02-17T10:53:03.214Z,,,,,,,,,,,,,,,,,54,,,,,,,,,,,,,,361.5399999996298,,response,,,,100,,,,,,,Space,keypress(Space),,,,,,,,-- --- ---- --- ------ ----- ------- ---- -- --- ------- --<br>------- ---------- ------ -- ----- -- ----- -- ---- ------<br>--- ----- --- --- ------ -------- ----- --- ------ ----- --<br>----- ----- ---------- --- --- ------ ------ ---- -- ------<br>------- --- ------ ----- was ---- ------- -- ---- --- --<br>------- ------,209899.40000000037,209898.59999999963,209520.394,209523.7000000002,209537.06,209903.842,,47,was
screen,html.Screen,2_1_1_1_48,2022-02-17T10:53:03.502Z,,,,,,,,,,,,,,,,,54,,,,,,,,,,,,,,282.8580000001821,,response,,,,100,,,,,,,Space,keypress(Space),,,,,,,,-- --- ---- --- ------ ----- ------- ---- -- --- ------- --<br>------- ---------- ------ -- ----- -- ----- -- ---- ------<br>--- ----- --- --- ------ -------- ----- --- ------ ----- --<br>----- ----- ---------- --- --- ------ ------ ---- -- ------<br>------- --- ------ ----- --- left ------- -- ---- --- --<br>------- ------,210187.40000000037,210186.7000000002,209887.176,209899.5,209903.842,210204.156,,48,left
screen,html.Screen,2_1_1_1_49,2022-02-17T10:53:03.838Z,,,,,,,,,,,,,,,,,54,,,,,,,,,,,,,,318.44399999963935,,response,,,,100,,,,,,,Space,keypress(Space),,,,,,,,-- --- ---- --- ------ ----- ------- ---- -- --- ------- --<br>------- ---------- ------ -- ----- -- ----- -- ---- ------<br>--- ----- --- --- ------ -------- ----- --- ------ ----- --<br>----- ----- ---------- --- --- ------ ------ ---- -- ------<br>------- --- ------ ----- --- ---- without -- ---- --- --<br>------- ------,210523.5,210522.59999999963,210187.49,210187.59999999963,210204.156,210537.792,,49,without
screen,html.Screen,2_1_1_1_50,2022-02-17T10:53:04.166Z,,,,,,,,,,,,,,,,,54,,,,,,,,,,,,,,312.90800000019954,,response,,,,100,,,,,,,Space,keypress(Space),,,,,,,,-- --- ---- --- ------ ----- ------- ---- -- --- ------- --<br>------- ---------- ------ -- ----- -- ----- -- ---- ------<br>--- ----- --- --- ------ -------- ----- --- ------ ----- --<br>----- ----- ---------- --- --- ------ ------ ---- -- ------<br>------- --- ------ ----- --- ---- ------- an ---- --- --<br>------- ------,210851.5,210850.7000000002,210521.126,210523.7000000002,210537.792,210854.702,,50,an
screen,html.Screen,2_1_1_1_51,2022-02-17T10:53:04.422Z,,,,,,,,,,,,,,,,,54,,,,,,,,,,,,,,251.99800000019604,,response,,,,100,,,,,,,Space,keypress(Space),,,,,,,,-- --- ---- --- ------ ----- ------- ---- -- --- ------- --<br>------- ---------- ------ -- ----- -- ----- -- ---- ------<br>--- ----- --- --- ------ -------- ----- --- ------ ----- --<br>----- ----- ---------- --- --- ------ ------ ---- -- ------<br>------- --- ------ ----- --- ---- ------- -- easy --- --<br>------- ------,211107.5,211106.7000000002,210838.036,210851.7000000002,210854.702,211121.793,,51,easy
screen,html.Screen,2_1_1_1_52,2022-02-17T10:53:04.662Z,,,,,,,,,,,,,,,,,54,,,,,,,,,,,,,,224.90700000018114,,response,,,,100,,,,,,,Space,keypress(Space),,,,,,,,-- --- ---- --- ------ ----- ------- ---- -- --- ------- --<br>------- ---------- ------ -- ----- -- ----- -- ---- ------<br>--- ----- --- --- ------ -------- ----- --- ------ ----- --<br>----- ----- ---------- --- --- ------ ------ ---- -- ------<br>------- --- ------ ----- --- ---- ------- -- ---- way --<br>------- ------,211347.5,211346.7000000002,211105.127,211107.7000000002,211121.793,211354.805,,52,way
screen,html.Screen,2_1_1_1_53,2022-02-17T10:53:05.166Z,,,,,,,,,,,,,,,,,54,,,,,,,,,,,,,,495.79499999963446,,response,,,,100,,,,,,,Space,keypress(Space),,,,,,,,-- --- ---- --- ------ ----- ------- ---- -- --- ------- --<br>------- ---------- ------ -- ----- -- ----- -- ---- ------<br>--- ----- --- --- ------ -------- ----- --- ------ ----- --<br>----- ----- ---------- --- --- ------ ------ ---- -- ------<br>------- --- ------ ----- --- ---- ------- -- ---- --- of<br>------- ------,211851.5,211850.59999999963,211338.139,211347.7000000002,211354.805,211855.375,,53,of
screen,html.Screen,2_1_1_1_54,2022-02-17T10:53:05.526Z,,,,,,,,,,,,,,,,,54,,,,,,,,,,,,,,355.02500000037253,,response,,,,100,,,,,,,Space,keypress(Space),,,,,,,,-- --- ---- --- ------ ----- ------- ---- -- --- ------- --<br>------- ---------- ------ -- ----- -- ----- -- ---- ------<br>--- ----- --- --- ------ -------- ----- --- ------ ----- --<br>----- ----- ---------- --- --- ------ ------ ---- -- ------<br>------- --- ------ ----- --- ---- ------- -- ---- --- --<br>raising ------,212211.09999999963,212210.40000000037,211838.709,211851.7000000002,211855.375,212222.319,,54,raising
screen,html.Screen,2_1_1_1_55,2022-02-17T10:53:06.583Z,,,,,,,,,,,,,,,,,54,,,,,,,,,,,,,,1044.4809999998251,,response,,,,100,,,,,,,Space,keypress(Space),,,,,,,,-- --- ---- --- ------ ----- ------- ---- -- --- ------- --<br>------- ---------- ------ -- ----- -- ----- -- ---- ------<br>--- ----- --- --- ------ -------- ----- --- ------ ----- --<br>----- ----- ---------- --- --- ------ ------ ---- -- ------<br>------- --- ------ ----- --- ---- ------- -- ---- --- --<br>------- money.,213268.5,213266.7999999998,212205.653,212211.2999999998,212222.319,213272.726,,55,money.
Item 100,flow.Loop,2_1_1_1,2022-02-17T10:53:06.584Z,,,,,,,,,,,,,,,,,,,,,,,,,,,,,,,26716.166999999812,,completion,,,,,C,,,,,,,,,,,silence,,,,,213268.7999999998,213266.7999999998,186533.967,186535.2000000002,186550.633,213272.726,,,
Question 1,html.Screen,2_1_1_2,2022-02-17T10:53:10.112Z,,,,,,,,,,,,,,,,,,,,,,,,,,,,true,TRUE,,3523.974000000191,,response,,,,100,C,,,,,,TRUE,click #choice-1,,,,silence,,,,,216797.5,216796.7000000002,213256.06,213269,213272.726,216808.523,,,
Question 2,html.Screen,2_1_1_3,2022-02-17T10:53:14.648Z,,,,,,,,,,,,,,,,,,,,,,,,,,,,true,FALSE,,4524.1770000002,,response,,,,100,C,,,,,,FALSE,click #choice-2,,,,silence,,,,,221333.40000000037,221332.7000000002,216791.857,216797.59999999963,216808.523,221345.985,,,
Item 100,flow.Sequence,2_1_1,2022-02-17T10:53:14.648Z,,,,,,,,,,,,,,,,,,,,,,,,,,,,,,,44789.142000000196,,completion,,,,,,,,,,,,,,,,,,,,,221333.5,221332.7000000002,176526.892,176536,176543.558,221345.985,,,
End of Practice,html.Page,2_1_2,2022-02-17T10:53:19.001Z,,,,,,,,,,,,,,,,,,,,,,,,,,,,,,,4340.4150000003865,,form submission,,,,,,,,,,,,,,,,,,,,,225686.59999999963,225686.40000000037,221329.319,221333.59999999963,221345.985,225699.857,,,
Practice,flow.Sequence,2_1,2022-02-17T10:53:19.002Z,,,,,,,,,,,,,,,,,,,,,,,,,,,,,,,95098.73600000037,,completion,,,,,,,,,,,,,,,,,,,,,225686.7999999998,225686.40000000037,130570.998,130580.29999999981,130587.664,225699.857,,,
Trap_instruction,html.Page,2_2_0,2022-02-17T10:53:23.082Z,,,,,,,,,,,,,,,,,,,,,,,,,,,,,,,4067.4429999998247,,form submission,,,,,,,,,,,,,,,,,,,,,229767.5,229767.2999999998,225683.191,225687,225699.857,229769.87,,,
trap_trial,html.Screen,2_2_1,2022-02-17T10:53:26.514Z,,,,,,,,,,,,,,,,,,,,,,,,,,,,true,1,,3428.729999999632,,response,,,,,,,,,,,1,click #choice-1,,,,,,,,,233199.2999999998,233198.59999999963,229753.204,229767.7000000002,229769.87,233203.815,,,
end of trap trial,html.Page,2_2_2,2022-02-17T10:53:29.666Z,,,,,,,,,,,,,,,,,,,,,,,,,,,,,,,3147.58500000037,,form submission,,,,,,,,,,,,,,,,,,,,,236351.5,236351.40000000037,233187.149,233199.5,233203.815,236356.828,,,
Trap 1,flow.Sequence,2_2,2022-02-17T10:53:29.667Z,,,,,,,,,,,,,,,,,,,,,,,,,,,,,,,10651.543000000383,,completion,,,,,,,,,,,,,,,,,,,,,236351.7000000002,236351.40000000037,225683.191,225686.7999999998,225699.857,236356.828,,,
Standby,html.Page,2_3_0,2022-02-17T10:53:37.658Z,,,,,,,,,,,,,,,,,,,,,,,,,,,,,,,8001.838999999978,,timeout,,,,,,,,,,,,,,,,,,,,,244343.2999999998,244342.001,236340.162,236351.90000000037,236356.828,244358.667,,,
Holding screen,html.Screen,2_3_1_0_0,2022-02-17T10:53:44.652Z,,,,,,,,,,,,,,,,,,,,,,,,,,,,,,,6994.329000000027,,timeout,,,,,,,,,,,,,,,,,,,,,251337.5,251336.33,244342.001,244343.59999999963,244358.667,251352.996,,,
screen,html.Screen,2_3_1_0_1_0,2022-02-17T10:53:45.652Z,,,,,,,,,,,,,,,,,11,,,,,,,,,,,,,,983.2040000001725,,response,,,,4,C,,,,,,Space,keypress(Space),,,,instrumental,,,,Known -- ---- --- -- --- -------- ------------ ---------- --<br>- ------- ------ --------- -- ------------ -- --- ---- -----<br>------ ---- ---- ------ ------ ------- --- ----- ---------<br>---- --- -------- -------- --- --- -- ------- --- --- -----<br>-- --- ------ ------- --- --- -------- ---- --------- --<br>---------- -- -------- ----------------,252337.2000000002,252336.2000000002,251336.33,251337.7999999998,251352.996,252338.128,,0,Known
screen,html.Screen,2_3_1_0_1_1,2022-02-17T10:53:45.950Z,,,,,,,,,,,,,,,,,11,,,,,,,,,,,,,,296.0720000001893,,response,,,,4,C,,,,,,Space,keypress(Space),,,,instrumental,,,,----- as ---- --- -- --- -------- ------------ ---------- --<br>- ------- ------ --------- -- ------------ -- --- ---- -----<br>------ ---- ---- ------ ------ ------- --- ----- ---------<br>---- --- -------- -------- --- --- -- ------- --- --- -----<br>-- --- ------ ------- --- --- -------- ---- --------- --<br>---------- -- -------- ----------------,252635.09999999963,252634.2000000002,252321.462,252337.40000000037,252338.128,252637.903,,1,as
screen,html.Screen,2_3_1_0_1_2,2022-02-17T10:53:46.278Z,,,,,,,,,,,,,,,,,11,,,,,,,,,,,,,,324.2970000001951,,response,,,,4,C,,,,,,Space,keypress(Space),,,,instrumental,,,,----- -- Rapa --- -- --- -------- ------------ ---------- --<br>- ------- ------ --------- -- ------------ -- --- ---- -----<br>------ ---- ---- ------ ------ ------- --- ----- ---------<br>---- --- -------- -------- --- --- -- ------- --- --- -----<br>-- --- ------ ------- --- --- -------- ---- --------- --<br>---------- -- -------- ----------------,252963.09999999963,252962.2000000002,252621.237,252635.2000000002,252637.903,252971.341,,2,Rapa
screen,html.Screen,2_3_1_0_1_3,2022-02-17T10:53:46.774Z,,,,,,,,,,,,,,,,,11,,,,,,,,,,,,,,487.2589999996417,,response,,,,4,C,,,,,,Space,keypress(Space),,,,instrumental,,,,----- -- ---- Nui -- --- -------- ------------ ---------- --<br>- ------- ------ --------- -- ------------ -- --- ---- -----<br>------ ---- ---- ------ ------ ------- --- ----- ---------<br>---- --- -------- -------- --- --- -- ------- --- --- -----<br>-- --- ------ ------- --- --- -------- ---- --------- --<br>---------- -- -------- ----------------,253459.40000000037,253458.59999999963,252954.675,252963.2999999998,252971.341,253472.547,,3,Nui
screen,html.Screen,2_3_1_0_1_4,2022-02-17T10:53:47.270Z,,,,,,,,,,,,,,,,,11,,,,,,,,,,,,,,481.6530000001949,,response,,,,4,C,,,,,,Space,keypress(Space),,,,instrumental,,,,----- -- ---- --- to --- -------- ------------ ---------- --<br>- ------- ------ --------- -- ------------ -- --- ---- -----<br>------ ---- ---- ------ ------ ------- --- ----- ---------<br>---- --- -------- -------- --- --- -- ------- --- --- -----<br>-- --- ------ ------- --- --- -------- ---- --------- --<br>---------- -- -------- ----------------,253955,253954.2000000002,253455.881,253459.59999999963,253472.547,253956.258,,4,to
screen,html.Screen,2_3_1_0_1_5,2022-02-17T10:53:47.638Z,,,,,,,,,,,,,,,,,11,,,,,,,,,,,,,,366.1420000003709,,response,,,,4,C,,,,,,Space,keypress(Space),,,,instrumental,,,,----- -- ---- --- -- the -------- ------------ ---------- --<br>- ------- ------ --------- -- ------------ -- --- ---- -----<br>------ ---- ---- ------ ------ ------- --- ----- ---------<br>---- --- -------- -------- --- --- -- ------- --- --- -----<br>-- --- ------ ------- --- --- -------- ---- --------- --<br>---------- -- -------- ----------------,254323.2000000002,254322.40000000037,253939.592,253955.2000000002,253956.258,254339.68,,5,the
screen,html.Screen,2_3_1_0_1_6,2022-02-17T10:53:47.998Z,,,,,,,,,,,,,,,,,11,,,,,,,,,,,,,,342.6199999998207,,response,,,,4,C,,,,,,Space,keypress(Space),,,,instrumental,,,,----- -- ---- --- -- --- island's ------------ ---------- --<br>- ------- ------ --------- -- ------------ -- --- ---- -----<br>------ ---- ---- ------ ------ ------- --- ----- ---------<br>---- --- -------- -------- --- --- -- ------- --- --- -----<br>-- --- ------ ------- --- --- -------- ---- --------- --<br>---------- -- -------- ----------------,254683,254682.2999999998,254323.014,254323.40000000037,254339.68,254690.249,,6,island's
screen,html.Screen,2_3_1_0_1_7,2022-02-17T10:53:48.518Z,,,,,,,,,,,,,,,,,11,,,,,,,,,,,,,,512.2509999999893,,response,,,,4,C,,,,,,Space,keypress(Space),,,,instrumental,,,,"----- -- ---- --- -- --- -------- inhabitants, ---------- --<br>- ------- ------ --------- -- ------------ -- --- ---- -----<br>------ ---- ---- ------ ------ ------- --- ----- ---------<br>---- --- -------- -------- --- --- -- ------- --- --- -----<br>-- --- ------ ------- --- --- -------- ---- --------- --<br>---------- -- -------- ----------------",255203.2999999998,255202.5,254673.583,254683.2000000002,254690.249,255207.032,,7,"inhabitants,"
screen,html.Screen,2_3_1_0_1_8,2022-02-17T10:53:49.678Z,,,,,,,,,,,,,,,,,11,,,,,,,,,,,,,,1155.368000000366,,response,,,,4,C,,,,,,Space,keypress(Space),,,,instrumental,,,,----- -- ---- --- -- --- -------- ------------ Rongorongo --<br>- ------- ------ --------- -- ------------ -- --- ---- -----<br>------ ---- ---- ------ ------ ------- --- ----- ---------<br>---- --- -------- -------- --- --- -- ------- --- --- -----<br>-- --- ------ ------- --- --- -------- ---- --------- --<br>---------- -- -------- ----------------,256363.2999999998,256362.40000000037,255190.366,255203.59999999963,255207.032,256374.172,,8,Rongorongo
screen,html.Screen,2_3_1_0_1_9,2022-02-17T10:53:50.230Z,,,,,,,,,,,,,,,,,11,,,,,,,,,,,,,,540.2280000003811,,response,,,,4,C,,,,,,Space,keypress(Space),,,,instrumental,,,,----- -- ---- --- -- --- -------- ------------ ---------- is<br>- ------- ------ --------- -- ------------ -- --- ---- -----<br>------ ---- ---- ------ ------ ------- --- ----- ---------<br>---- --- -------- -------- --- --- -- ------- --- --- -----<br>-- --- ------ ------- --- --- -------- ---- --------- --<br>---------- -- -------- ----------------,256915.2999999998,256914.40000000037,256357.506,256363.5,256374.172,256924.257,,9,is
screen,html.Screen,2_3_1_0_1_10,2022-02-17T10:53:50.614Z,,,,,,,,,,,,,,,,,11,,,,,,,,,,,,,,373.74299999998766,,response,,,,4,C,,,,,,Space,keypress(Space),,,,instrumental,,,,----- -- ---- --- -- --- -------- ------------ ---------- --<br>a ------- ------ --------- -- ------------ -- --- ---- -----<br>------ ---- ---- ------ ------ ------- --- ----- ---------<br>---- --- -------- -------- --- --- -- ------- --- --- -----<br>-- --- ------ ------- --- --- -------- ---- --------- --<br>---------- -- -------- ----------------,257298.7999999998,257298,256907.591,256915.40000000037,256924.257,257308.715,,10,a
screen,html.Screen,2_3_1_0_1_11,2022-02-17T10:53:51.022Z,,,,,,,,,,,,,,,,,11,,,,,,,,,,,,,,397.5849999998172,,response,,,,4,C,,,,,,Space,keypress(Space),,,,instrumental,,,,----- -- ---- --- -- --- -------- ------------ ---------- --<br>- writing ------ --------- -- ------------ -- --- ---- -----<br>------ ---- ---- ------ ------ ------- --- ----- ---------<br>---- --- -------- -------- --- --- -- ------- --- --- -----<br>-- --- ------ ------- --- --- -------- ---- --------- --<br>---------- -- -------- ----------------,257707.09999999963,257706.2999999998,257292.049,257299,257308.715,257709.412,,11,writing
screen,html.Screen,2_3_1_0_1_12,2022-02-17T10:53:51.382Z,,,,,,,,,,,,,,,,,11,,,,,,,,,,,,,,356.5879999999888,,response,,,,4,C,,,,,,Space,keypress(Space),,,,instrumental,,,,----- -- ---- --- -- --- -------- ------------ ---------- --<br>- ------- system --------- -- ------------ -- --- ---- -----<br>------ ---- ---- ------ ------ ------- --- ----- ---------<br>---- --- -------- -------- --- --- -- ------- --- --- -----<br>-- --- ------ ------- --- --- -------- ---- --------- --<br>---------- -- -------- ----------------,258066.90000000037,258066,257692.746,257707.2999999998,257709.412,258076.417,,12,system
screen,html.Screen,2_3_1_0_1_13,2022-02-17T10:53:51.862Z,,,,,,,,,,,,,,,,,11,,,,,,,,,,,,,,469.882999999827,,response,,,,4,C,,,,,,Space,keypress(Space),,,,instrumental,,,,----- -- ---- --- -- --- -------- ------------ ---------- --<br>- ------- ------ comprised -- ------------ -- --- ---- -----<br>------ ---- ---- ------ ------ ------- --- ----- ---------<br>---- --- -------- -------- --- --- -- ------- --- --- -----<br>-- --- ------ ------- --- --- -------- ---- --------- --<br>---------- -- -------- ----------------,258547.2000000002,258546.2999999998,258059.751,258067.09999999963,258076.417,258559.744,,13,comprised
screen,html.Screen,2_3_1_0_1_14,2022-02-17T10:53:52.286Z,,,,,,,,,,,,,,,,,11,,,,,,,,,,,,,,410.3559999996214,,response,,,,4,C,,,,,,Space,keypress(Space),,,,instrumental,,,,----- -- ---- --- -- --- -------- ------------ ---------- --<br>- ------- ------ --------- of ------------ -- --- ---- -----<br>------ ---- ---- ------ ------ ------- --- ----- ---------<br>---- --- -------- -------- --- --- -- ------- --- --- -----<br>-- --- ------ ------- --- --- -------- ---- --------- --<br>---------- -- -------- ----------------,258971,258970.09999999963,258543.078,258547.2999999998,258559.744,258976.002,,14,of
screen,html.Screen,2_3_1_0_1_15,2022-02-17T10:53:52.598Z,,,,,,,,,,,,,,,,,11,,,,,,,,,,,,,,306.29799999980605,,response,,,,4,C,,,,,,Space,keypress(Space),,,,instrumental,,,,----- -- ---- --- -- --- -------- ------------ ---------- --<br>- ------- ------ --------- -- pictographs. -- --- ---- -----<br>------ ---- ---- ------ ------ ------- --- ----- ---------<br>---- --- -------- -------- --- --- -- ------- --- --- -----<br>-- --- ------ ------- --- --- -------- ---- --------- --<br>---------- -- -------- ----------------,259283.2000000002,259282.2999999998,258959.336,258971.09999999963,258976.002,259294.051,,15,pictographs.
screen,html.Screen,2_3_1_0_1_16,2022-02-17T10:53:53.446Z,,,,,,,,,,,,,,,,,11,,,,,,,,,,,,,,835.8490000003658,,response,,,,4,C,,,,,,Space,keypress(Space),,,,instrumental,,,,----- -- ---- --- -- --- -------- ------------ ---------- --<br>- ------- ------ --------- -- ------------ It --- ---- -----<br>------ ---- ---- ------ ------ ------- --- ----- ---------<br>---- --- -------- -------- --- --- -- ------- --- --- -----<br>-- --- ------ ------- --- --- -------- ---- --------- --<br>---------- -- -------- ----------------,260130.7000000002,260129.90000000037,259277.385,259283.2999999998,259294.051,260144.356,,16,It
screen,html.Screen,2_3_1_0_1_17,2022-02-17T10:53:53.782Z,,,,,,,,,,,,,,,,,11,,,,,,,,,,,,,,321.94399999981397,,response,,,,4,C,,,,,,Space,keypress(Space),,,,instrumental,,,,----- -- ---- --- -- --- -------- ------------ ---------- --<br>- ------- ------ --------- -- ------------ -- has ---- -----<br>------ ---- ---- ------ ------ ------- --- ----- ---------<br>---- --- -------- -------- --- --- -- ------- --- --- -----<br>-- --- ------ ------- --- --- -------- ---- --------- --<br>---------- -- -------- ----------------,260467.09999999963,260466.2999999998,260127.69,260130.7999999998,260144.356,260477.815,,17,has
screen,html.Screen,2_3_1_0_1_18,2022-02-17T10:53:54.030Z,,,,,,,,,,,,,,,,,11,,,,,,,,,,,,,,236.4849999998114,,response,,,,4,C,,,,,,Space,keypress(Space),,,,instrumental,,,,----- -- ---- --- -- --- -------- ------------ ---------- --<br>- ------- ------ --------- -- ------------ -- --- been -----<br>------ ---- ---- ------ ------ ------- --- ----- ---------<br>---- --- -------- -------- --- --- -- ------- --- --- -----<br>-- --- ------ ------- --- --- -------- ---- --------- --<br>---------- -- -------- ----------------,260715.2000000002,260714.2999999998,260461.149,260467.2999999998,260477.815,260728.436,,18,been
screen,html.Screen,2_3_1_0_1_19,2022-02-17T10:53:54.430Z,,,,,,,,,,,,,,,,,11,,,,,,,,,,,,,,386.06400000001304,,response,,,,4,C,,,,,,Space,keypress(Space),,,,instrumental,,,,----- -- ---- --- -- --- -------- ------------ ---------- --<br>- ------- ------ --------- -- ------------ -- --- ---- found<br>------ ---- ---- ------ ------ ------- --- ----- ---------<br>---- --- -------- -------- --- --- -- ------- --- --- -----<br>-- --- ------ ------- --- --- -------- ---- --------- --<br>---------- -- -------- ----------------,261115.2000000002,261114.5,260711.77,260715.40000000037,260728.436,261128.89,,19,found
screen,html.Screen,2_3_1_0_1_20,2022-02-17T10:53:54.837Z,,,,,,,,,,,,,,,,,11,,,,,,,,,,,,,,393.51000000035856,,response,,,,4,C,,,,,,Space,keypress(Space),,,,instrumental,,,,----- -- ---- --- -- --- -------- ------------ ---------- --<br>- ------- ------ --------- -- ------------ -- --- ---- -----<br>carved ---- ---- ------ ------ ------- --- ----- ---------<br>---- --- -------- -------- --- --- -- ------- --- --- -----<br>-- --- ------ ------- --- --- -------- ---- --------- --<br>---------- -- -------- ----------------,261523.09999999963,261522.40000000037,261112.224,261115.40000000037,261128.89,261528.874,,20,carved
screen,html.Screen,2_3_1_0_1_21,2022-02-17T10:53:55.445Z,,,,,,,,,,,,,,,,,11,,,,,,,,,,,,,,601.3260000001756,,response,,,,4,C,,,,,,Space,keypress(Space),,,,instrumental,,,,----- -- ---- --- -- --- -------- ------------ ---------- --<br>- ------- ------ --------- -- ------------ -- --- ---- -----<br>------ into ---- ------ ------ ------- --- ----- ---------<br>---- --- -------- -------- --- --- -- ------- --- --- -----<br>-- --- ------ ------- --- --- -------- ---- --------- --<br>---------- -- -------- ----------------,262131,262130.2000000002,261512.208,261523.40000000037,261528.874,262146.025,,21,into
screen,html.Screen,2_3_1_0_1_22,2022-02-17T10:53:56.043Z,,,,,,,,,,,,,,,,,11,,,,,,,,,,,,,,581.7749999997905,,response,,,,4,C,,,,,,Space,keypress(Space),,,,instrumental,,,,----- -- ---- --- -- --- -------- ------------ ---------- --<br>- ------- ------ --------- -- ------------ -- --- ---- -----<br>------ ---- many ------ ------ ------- --- ----- ---------<br>---- --- -------- -------- --- --- -- ------- --- --- -----<br>-- --- ------ ------- --- --- -------- ---- --------- --<br>---------- -- -------- ----------------,262728.7999999998,262727.7999999998,262129.359,262131.2999999998,262146.025,262746.081,,22,many
screen,html.Screen,2_3_1_0_1_23,2022-02-17T10:53:56.254Z,,,,,,,,,,,,,,,,,11,,,,,,,,,,,,,,192.31900000036694,,response,,,,4,C,,,,,,Space,keypress(Space),,,,instrumental,,,,----- -- ---- --- -- --- -------- ------------ ---------- --<br>- ------- ------ --------- -- ------------ -- --- ---- -----<br>------ ---- ---- oblong ------ ------- --- ----- ---------<br>---- --- -------- -------- --- --- -- ------- --- --- -----<br>-- --- ------ ------- --- --- -------- ---- --------- --<br>---------- -- -------- ----------------,262939.2000000002,262938.4000000004,262729.415,262729,262746.081,262946.704,,23,oblong
screen,html.Screen,2_3_1_0_1_24,2022-02-17T10:53:57.053Z,,,,,,,,,,,,,,,,,11,,,,,,,,,,,,,,791.5959999997867,,response,,,,4,C,,,,,,Space,keypress(Space),,,,instrumental,,,,----- -- ---- --- -- --- -------- ------------ ---------- --<br>- ------- ------ --------- -- ------------ -- --- ---- -----<br>------ ---- ---- ------ wooden ------- --- ----- ---------<br>---- --- -------- -------- --- --- -- ------- --- --- -----<br>-- --- ------ ------- --- --- -------- ---- --------- --<br>---------- -- -------- ----------------,263739.0999999996,263738.2999999998,262930.038,262939.4000000004,262946.704,263747.126,,24,wooden
screen,html.Screen,2_3_1_0_1_25,2022-02-17T10:53:57.949Z,,,,,,,,,,,,,,,,,11,,,,,,,,,,,,,,887.074000000197,,response,,,,4,C,,,,,,Space,keypress(Space),,,,instrumental,,,,----- -- ---- --- -- --- -------- ------------ ---------- --<br>- ------- ------ --------- -- ------------ -- --- ---- -----<br>------ ---- ---- ------ ------ tablets --- ----- ---------<br>---- --- -------- -------- --- --- -- ------- --- --- -----<br>-- --- ------ ------- --- --- -------- ---- --------- --<br>---------- -- -------- ----------------,264635,264634.2000000002,263730.46,263739.4000000004,263747.126,264647.838,,25,tablets
screen,html.Screen,2_3_1_0_1_26,2022-02-17T10:53:58.413Z,,,,,,,,,,,,,,,,,11,,,,,,,,,,,,,,450.36200000019744,,response,,,,4,C,,,,,,Space,keypress(Space),,,,instrumental,,,,----- -- ---- --- -- --- -------- ------------ ---------- --<br>- ------- ------ --------- -- ------------ -- --- ---- -----<br>------ ---- ---- ------ ------ ------- and ----- ---------<br>---- --- -------- -------- --- --- -- ------- --- --- -----<br>-- --- ------ ------- --- --- -------- ---- --------- --<br>---------- -- -------- ----------------,265099,265098.2000000002,264631.172,264635.2000000002,264647.838,265114.661,,26,and
screen,html.Screen,2_3_1_0_1_27,2022-02-17T10:53:58.822Z,,,,,,,,,,,,,,,,,11,,,,,,,,,,,,,,391.63899999979185,,response,,,,4,C,,,,,,Space,keypress(Space),,,,instrumental,,,,----- -- ---- --- -- --- -------- ------------ ---------- --<br>- ------- ------ --------- -- ------------ -- --- ---- -----<br>------ ---- ---- ------ ------ ------- --- other ---------<br>---- --- -------- -------- --- --- -- ------- --- --- -----<br>-- --- ------ ------- --- --- -------- ---- --------- --<br>---------- -- -------- ----------------,265507.2000000002,265506.2999999998,265097.995,265099.2000000002,265114.661,265514.727,,27,other
screen,html.Screen,2_3_1_0_1_28,2022-02-17T10:53:59.677Z,,,,,,,,,,,,,,,,,11,,,,,,,,,,,,,,847.4730000001728,,response,,,,4,C,,,,,,Space,keypress(Space),,,,instrumental,,,,----- -- ---- --- -- --- -------- ------------ ---------- --<br>- ------- ------ --------- -- ------------ -- --- ---- -----<br>------ ---- ---- ------ ------ ------- --- ----- artifacts<br>---- --- -------- -------- --- --- -- ------- --- --- -----<br>-- --- ------ ------- --- --- -------- ---- --------- --<br>---------- -- -------- ----------------,266363.0999999996,266362.2000000002,265498.061,265507.5,265514.727,266365.765,,28,artifacts
screen,html.Screen,2_3_1_0_1_29,2022-02-17T10:54:00.077Z,,,,,,,,,,,,,,,,,11,,,,,,,,,,,,,,396.23499999998603,,response,,,,4,C,,,,,,Space,keypress(Space),,,,instrumental,,,,----- -- ---- --- -- --- -------- ------------ ---------- --<br>- ------- ------ --------- -- ------------ -- --- ---- -----<br>------ ---- ---- ------ ------ ------- --- ----- ---------<br>from --- -------- -------- --- --- -- ------- --- --- -----<br>-- --- ------ ------- --- --- -------- ---- --------- --<br>---------- -- -------- ----------------,266762.9000000004,266762,266349.099,266363.2999999998,266365.765,266766.071,,29,from
screen,html.Screen,2_3_1_0_1_30,2022-02-17T10:54:00.493Z,,,,,,,,,,,,,,,,,11,,,,,,,,,,,,,,412.22899999981746,,response,,,,4,C,,,,,,Space,keypress(Space),,,,instrumental,,,,----- -- ---- --- -- --- -------- ------------ ---------- --<br>- ------- ------ --------- -- ------------ -- --- ---- -----<br>------ ---- ---- ------ ------ ------- --- ----- ---------<br>---- the -------- -------- --- --- -- ------- --- --- -----<br>-- --- ------ ------- --- --- -------- ---- --------- --<br>---------- -- -------- ----------------,267179,267178.2999999998,266749.405,266763.0999999996,266766.071,267183.614,,30,the
screen,html.Screen,2_3_1_0_1_31,2022-02-17T10:54:00.893Z,,,,,,,,,,,,,,,,,11,,,,,,,,,,,,,,394.68599999981234,,response,,,,4,C,,,,,,Space,keypress(Space),,,,instrumental,,,,----- -- ---- --- -- --- -------- ------------ ---------- --<br>- ------- ------ --------- -- ------------ -- --- ---- -----<br>------ ---- ---- ------ ------ ------- --- ----- ---------<br>---- --- island's -------- --- --- -- ------- --- --- -----<br>-- --- ------ ------- --- --- -------- ---- --------- --<br>---------- -- -------- ----------------,267579.0999999996,267578.2999999998,267166.948,267179.2999999998,267183.614,267583.818,,31,island's
screen,html.Screen,2_3_1_0_1_32,2022-02-17T10:54:01.917Z,,,,,,,,,,,,,,,,,11,,,,,,,,,,,,,,1017.9819999997853,,response,,,,4,C,,,,,,Space,keypress(Space),,,,instrumental,,,,----- -- ---- --- -- --- -------- ------------ ---------- --<br>- ------- ------ --------- -- ------------ -- --- ---- -----<br>------ ---- ---- ------ ------ ------- --- ----- ---------<br>---- --- -------- history. --- --- -- ------- --- --- -----<br>-- --- ------ ------- --- --- -------- ---- --------- --<br>---------- -- -------- ----------------,268602.4000000004,268601.7999999998,267567.152,267579.4000000004,267583.818,268617.589,,32,history.
screen,html.Screen,2_3_1_0_1_33,2022-02-17T10:54:02.317Z,,,,,,,,,,,,,,,,,11,,,,,,,,,,,,,,384.8110000003944,,response,,,,4,C,,,,,,Space,keypress(Space),,,,instrumental,,,,----- -- ---- --- -- --- -------- ------------ ---------- --<br>- ------- ------ --------- -- ------------ -- --- ---- -----<br>------ ---- ---- ------ ------ ------- --- ----- ---------<br>---- --- -------- -------- The --- -- ------- --- --- -----<br>-- --- ------ ------- --- --- -------- ---- --------- --<br>---------- -- -------- ----------------,269003.0999999996,269002.4000000004,268600.923,268602.5,268617.589,269017.949,,33,The
screen,html.Screen,2_3_1_0_1_34,2022-02-17T10:54:02.629Z,,,,,,,,,,,,,,,,,11,,,,,,,,,,,,,,295.9510000003502,,response,,,,4,C,,,,,,Space,keypress(Space),,,,instrumental,,,,----- -- ---- --- -- --- -------- ------------ ---------- --<br>- ------- ------ --------- -- ------------ -- --- ---- -----<br>------ ---- ---- ------ ------ ------- --- ----- ---------<br>---- --- -------- -------- --- art -- ------- --- --- -----<br>-- --- ------ ------- --- --- -------- ---- --------- --<br>---------- -- -------- ----------------,269314.7999999998,269313.9000000004,269001.283,269003.2999999998,269017.949,269318.45,,34,art
screen,html.Screen,2_3_1_0_1_35,2022-02-17T10:54:02.973Z,,,,,,,,,,,,,,,,,11,,,,,,,,,,,,,,339.64999999961583,,response,,,,4,C,,,,,,Space,keypress(Space),,,,instrumental,,,,----- -- ---- --- -- --- -------- ------------ ---------- --<br>- ------- ------ --------- -- ------------ -- --- ---- -----<br>------ ---- ---- ------ ------ ------- --- ----- ---------<br>---- --- -------- -------- --- --- of ------- --- --- -----<br>-- --- ------ ------- --- --- -------- ---- --------- --<br>---------- -- -------- ----------------,269658.9000000004,269658.0999999996,269301.784,269315,269318.45,269668.913,,35,of
screen,html.Screen,2_3_1_0_1_36,2022-02-17T10:54:03.357Z,,,,,,,,,,,,,,,,,11,,,,,,,,,,,,,,373.08699999999953,,response,,,,4,C,,,,,,Space,keypress(Space),,,,instrumental,,,,----- -- ---- --- -- --- -------- ------------ ---------- --<br>- ------- ------ --------- -- ------------ -- --- ---- -----<br>------ ---- ---- ------ ------ ------- --- ----- ---------<br>---- --- -------- -------- --- --- -- writing --- --- -----<br>-- --- ------ ------- --- --- -------- ---- --------- --<br>---------- -- -------- ----------------,270042.7999999998,270042,269652.247,269659.0999999996,269668.913,270052.526,,36,writing
screen,html.Screen,2_3_1_0_1_37,2022-02-17T10:54:03.789Z,,,,,,,,,,,,,,,,,11,,,,,,,,,,,,,,421.27399999980116,,response,,,,4,C,,,,,,Space,keypress(Space),,,,instrumental,,,,----- -- ---- --- -- --- -------- ------------ ---------- --<br>- ------- ------ --------- -- ------------ -- --- ---- -----<br>------ ---- ---- ------ ------ ------- --- ----- ---------<br>---- --- -------- -------- --- --- -- ------- was --- -----<br>-- --- ------ ------- --- --- -------- ---- --------- --<br>---------- -- -------- ----------------,270474.4000000004,270473.7999999998,270035.86,270043,270052.526,270486.122,,37,was
screen,html.Screen,2_3_1_0_1_38,2022-02-17T10:54:04.158Z,,,,,,,,,,,,,,,,,11,,,,,,,,,,,,,,356.07800000021234,,response,,,,4,C,,,,,,Space,keypress(Space),,,,instrumental,,,,----- -- ---- --- -- --- -------- ------------ ---------- --<br>- ------- ------ --------- -- ------------ -- --- ---- -----<br>------ ---- ---- ------ ------ ------- --- ----- ---------<br>---- --- -------- -------- --- --- -- ------- --- not -----<br>-- --- ------ ------- --- --- -------- ---- --------- --<br>---------- -- -------- ----------------,270843.2000000002,270842.2000000002,270469.456,270474.5,270486.122,270853.109,,38,not
screen,html.Screen,2_3_1_0_1_39,2022-02-17T10:54:04.581Z,,,,,,,,,,,,,,,,,11,,,,,,,,,,,,,,412.7910000003758,,response,,,,4,C,,,,,,Space,keypress(Space),,,,instrumental,,,,----- -- ---- --- -- --- -------- ------------ ---------- --<br>- ------- ------ --------- -- ------------ -- --- ---- -----<br>------ ---- ---- ------ ------ ------- --- ----- ---------<br>---- --- -------- -------- --- --- -- ------- --- --- known<br>-- --- ------ ------- --- --- -------- ---- --------- --<br>---------- -- -------- ----------------,271266.7999999998,271265.9000000004,270836.443,270843.4000000004,270853.109,271270.394,,39,known
