sender,sender_type,sender_id,timestamp,meta,,Blues,Classical,Country,Dance,Electronic,Folk,Gospel,Hip-Hop,Jazz,Latin,Musical/Film,New-age,Pop,Prolific_id,Provo_ID,R&B,Rap,Reggae,Religious,Rock,Soul,Swing,Traditional,age,artist_name,correct,correctResponse,distraction,duration,education,ended_on,familiarity,gender,headphone_check_performance,item,list,music_frequency,offensiveness,pleasantness,position_correct,preference,response,response_action,snippet_file,song_name,song_rating,sound,stimulus_1,stimulus_2,stimulus_3,text,time_commit,time_end,time_render,time_run,time_show,time_switch,url,word,word_ID
Prolific ID,html.Form,0,2022-02-18T15:07:36.279Z,"{""labjs_version"":""20.2.2"",""labjs_build"":{""flavor"":""production"",""commit"":""a25486e0c714a0ae2ce03ff94b7bb6896854dcfa""},""location"":""https://run.pavlovia.org/mvasilev/prolific2_music_a/"",""userAgent"":""Mozilla/5.0 (Windows NT 10.0; Win64; x64) AppleWebKit/537.36 (KHTML, like Gecko) Chrome/98.0.4758.102 Safari/537.36"",""platform"":""Win32"",""language"":""en-US"",""locale"":""en-GB"",""timeZone"":""Europe/London"",""timezoneOffset"":0,""screen_width"":1920,""screen_height"":1080,""scroll_width"":1920,""scroll_height"":889,""window_innerWidth"":1920,""window_innerHeight"":937,""devicePixelRatio"":1}",,,,,,,,,,,,,,,5f94def06b9a6a3439f4b78a,,,,,,,,,,,,,,,9746.203000011921,,form submission,,,,,,,,,,,,,,,,,,,,,16698.600000023842,16698.30000001192,6918.695,6925.199999988079,6952.097,16712.323,{},,
Introduction,html.Screen,1_0,2022-02-18T15:07:39.486Z,,,,,,,,,,,,,,,,,,,,,,,,,,,,,,,3191.8769999880788,,response,,,,,,,,,,,continue,click button,,,,,,,,,19904.899999976158,19904.19999998808,16695.834,16698.80000001192,16712.323,19915.742,,,
Volume calibration,html.Screen,1_1,2022-02-18T15:07:50.744Z,,,,,,,,,,,,,,,,,,,,,,,,,,,,,,,11245.45799998808,,response,,,,,,,,,,,continue,click button,,,,,,,,,31163.30000001192,31161.19999998808,19899.119,19905,19915.742,31177.602,,,
Task instructions,html.Screen,1_2,2022-02-18T15:07:55.407Z,,,,,,,,,,,,,,,,,,,,,,,,,,,,,,,4648.698000011922,,response,,,,,,,,,,,continue,click button,,,,,,,,,35826.80000001192,35826.30000001192,31160.967,31163.399999976158,31177.602,35832.505,,,
Sounds,html.Screen,1_3_0_0,2022-02-18T15:07:59.659Z,,,,,,,,,,,,,,,,,,,,,,,,,,,,,,,4254.530000000006,,timeout,,,,,,,,,1,,,,,,,,S,O,I,,40078.69999998808,40070.355,35815.841,35826.89999997616,35832.505,40087.035,,,
Judgement,html.Screen,1_3_0_1,2022-02-18T15:08:00.217Z,,,,,,,,,,,,,,,,,,,,,,,,,,,,true,1,,548.2650000119174,,response,,,,,,,,,1,,1,click #choice-1,,,,,S,O,I,,40635.80000001192,40635.30000001192,40070.355,40079.10000002384,40087.035,40637.579,,,
Trial,flow.Sequence,1_3_0,2022-02-18T15:08:00.217Z,,,,,,,,,,,,,,,,,,,,,,,,,,,,,,,4802.795000011924,,completion,,,,,,,,,1,,,,,,,,S,O,I,,40636,40635.30000001192,35815.841,35826.89999997616,35832.505,40637.579,,,
Sounds,html.Screen,1_3_1_0,2022-02-18T15:08:04.457Z,,,,,,,,,,,,,,,,,,,,,,,,,,,,,,,4254.531000000003,,timeout,,,,,,,,,2,,,,,,,,O,S,I,,44876.39999997616,44875.43,40620.956,40636.19999998808,40637.579,44892.11,,,
Judgement,html.Screen,1_3_1_1,2022-02-18T15:08:04.966Z,,,,,,,,,,,,,,,,,,,,,,,,,,,,true,2,,492.28999997615756,,response,,,,,,,,,2,,2,click #choice-2,,,,,O,S,I,,45384.89999997616,45384.39999997616,44875.43,44876.60000002384,44892.11,45392.586,,,
Trial,flow.Sequence,1_3_1,2022-02-18T15:08:04.966Z,,,,,,,,,,,,,,,,,,,,,,,,,,,,,,,4746.82099997616,,completion,,,,,,,,,2,,,,,,,,O,S,I,,45385.19999998808,45384.39999997616,40620.956,40636.10000002384,40637.579,45392.586,,,
Sounds,html.Screen,1_3_2_0,2022-02-18T15:08:09.212Z,,,,,,,,,,,,,,,,,,,,,,,,,,,,,,,4254.496999999996,,timeout,,,,,,,,,2,,,,,,,,I,S,O,,49631.60000002384,49630.385,45375.95,45385.30000001192,45392.586,49647.083,,,
Judgement,html.Screen,1_3_2_1,2022-02-18T15:08:09.445Z,,,,,,,,,,,,,,,,,,,,,,,,,,,,true,2,,216.11699998808035,,response,,,,,,,,,2,,2,click #choice-2,,,,,I,S,O,,49863.89999997616,49863.19999998808,49630.385,49631.89999997616,49647.083,49863.969,,,
Trial,flow.Sequence,1_3_2,2022-02-18T15:08:09.445Z,,,,,,,,,,,,,,,,,,,,,,,,,,,,,,,4470.613999988076,,completion,,,,,,,,,2,,,,,,,,I,S,O,,49864.19999998808,49863.19999998808,45375.95,45385.30000001192,45392.586,49863.969,,,
Sounds,html.Screen,1_3_3_0,2022-02-18T15:08:13.684Z,,,,,,,,,,,,,,,,,,,,,,,,,,,,,,,4254.548999999999,,timeout,,,,,,,,,1,,,,,,,,S,I,O,,54103,54101.817,49847.356,49864.30000001192,49863.969,54118.518,,,
Judgement,html.Screen,1_3_3_1,2022-02-18T15:08:14.272Z,,,,,,,,,,,,,,,,,,,,,,,,,,,,true,1,,572.7820000119245,,response,,,,,,,,,1,,1,click #choice-1,,,,,S,I,O,,54691.80000001192,54691.30000001192,54101.817,54103.39999997616,54118.518,54702.41,,,
Trial,flow.Sequence,1_3_3,2022-02-18T15:08:14.273Z,,,,,,,,,,,,,,,,,,,,,,,,,,,,,,,4827.331000011924,,completion,,,,,,,,,1,,,,,,,,S,I,O,,54691.89999997616,54691.30000001192,49847.356,49864.19999998808,49863.969,54702.41,,,
Sounds,html.Screen,1_3_4_0,2022-02-18T15:08:18.522Z,,,,,,,,,,,,,,,,,,,,,,,,,,,,,,,4254.523999999998,,timeout,,,,,,,,,3,,,,,,,,I,O,S,,58941.10000002384,58940.246,54685.788,54692,54702.41,58956.934,,,
Judgement,html.Screen,1_3_4_1,2022-02-18T15:08:18.835Z,,,,,,,,,,,,,,,,,,,,,,,,,,,,true,3,,297.26599998807797,,response,,,,,,,,,3,,3,click #choice-3,,,,,I,O,S,,59254.80000001192,59254.19999998808,58940.246,58941.39999997616,58956.934,59257.199,,,
Trial,flow.Sequence,1_3_4,2022-02-18T15:08:18.836Z,,,,,,,,,,,,,,,,,,,,,,,,,,,,,,,4551.789999988076,,completion,,,,,,,,,3,,,,,,,,I,O,S,,59254.89999997616,59254.19999998808,54685.788,54692,54702.41,59257.199,,,
Sounds,html.Screen,1_3_5_0,2022-02-18T15:08:23.078Z,,,,,,,,,,,,,,,,,,,,,,,,,,,,,,,4254.534999999996,,timeout,,,,,,,,,3,,,,,,,,O,I,S,,63496.89999997616,63495.054,59240.576,59255,59257.199,63511.734,,,
Judgement,html.Screen,1_3_5_1,2022-02-18T15:08:23.357Z,,,,,,,,,,,,,,,,,,,,,,,,,,,,true,3,,263.6659999761614,,response,,,,,,,,,3,,3,click #choice-3,,,,,O,I,S,,63776,63775.39999997616,63495.054,63497.10000002384,63511.734,63778.639,,,
Trial,flow.Sequence,1_3_5,2022-02-18T15:08:23.357Z,,,,,,,,,,,,,,,,,,,,,,,,,,,,,,,4518.200999976158,,completion,,,,,,,,,3,,,,,,,,O,I,S,,63776.10000002384,63775.39999997616,59240.576,59255,59257.199,63778.639,,,
Task,flow.Loop,1_3,2022-02-18T15:08:23.360Z,,,,,,,,,,,,,,,,,,,,,,,,,,,,,,,27942.89499997616,,completion,,,1,,,,,,,,,,,,,,,,,,63779.39999997616,63775.39999997616,35815.841,35826.89999997616,35832.505,63778.639,,,
Trap,html.Screen,1_4,2022-02-18T15:08:23.361Z,,,,,,,,,,,,,,,,,,,,,,,,,,,,,,,NaN,,skipped,,,,,,,,,,,,,,,,,,,,,63780.30000001192,63775.39999997616,,63780.10000002384,,63778.639,,,
Thanks,html.Screen,1_5,2022-02-18T15:08:26.035Z,,,,,,,,,,,,,,,,,,,,,,,,,,,,,,,2674.661000011918,,response,,,,,,,,,,,continue,click button,,,,,,,,,66453.89999997616,66453.30000001192,63762.003,63780.30000001192,63778.639,70535.743,,,
Headphone screening,flow.Sequence,1,2022-02-18T15:08:26.035Z,,,,,,,,,,,,,,,,,,,,,,,,,,,,,,,49740.97700001192,,completion,,,,,,,,,,,,,,,,,,,,,66454.10000002384,66453.30000001192,16695.834,16698.80000001192,16712.323,70535.743,,,
Instructions,html.Page,2_0,2022-02-18T15:08:44.681Z,,,,,,,,,,,,,,,,,,,,,,,,,,,,,,,14564.256999999998,,form submission,,,,,,,,,,,,,,,,,,,,,85100.19999998808,85100,70519.087,70542.30000001192,70535.743,85101.103,,,
Holding screen,html.Screen,2_1_0_0,2022-02-18T15:08:54.660Z,,,,,,,,,,,,,,,,,,,,,,,,,,,,,,,10010.592000000004,,timeout,,,,,,,,,,,,,,,,,,,,,95079.30000001192,95078.337,85084.471,85100.5,85101.103,95111.695,,,
screen,html.Screen,2_1_0_1_0,2022-02-18T15:08:55.732Z,,,,,,,,,,,,,,,,,53,,,,,,,,,,,,,,1033.7049999761512,,response,,,,99,,,,,,,Space,keypress(Space),,,,,,,,When -- ----- -- ------ - ------- --- ----------<br>------------- ------ ------ ---- ---- ------- ----- -- ----<br>-------- ------- -- ---------- --- - --- ----- ----- ----<br>---- --- --- ----- --- ---- ---- ------- ----- ---- -------<br>--- --- -- ----- -- --- ---- -- --- ---- -- ------ ------<br>--- ----- -- ----,96151.10000002384,96145.39999997616,95078.337,95079.69999998808,95111.695,96162.833,,0,When
screen,html.Screen,2_1_0_1_1,2022-02-18T15:08:56.182Z,,,,,,,,,,,,,,,,,53,,,,,,,,,,,,,,437.1670000000013,,response,,,,99,,,,,,,Space,keypress(Space),,,,,,,,---- it ----- -- ------ - ------- --- ----------<br>------------- ------ ------ ---- ---- ------- ----- -- ----<br>-------- ------- -- ---------- --- - --- ----- ----- ----<br>---- --- --- ----- --- ---- ---- ------- ----- ---- -------<br>--- --- -- ----- -- --- ---- -- --- ---- -- ------ ------<br>--- ----- -- ----,96601.19999998808,96600,96146.111,96151.39999997616,96162.833,96613.287,,1,it
screen,html.Screen,2_1_0_1_2,2022-02-18T15:08:56.590Z,,,,,,,,,,,,,,,,,53,,,,,,,,,,,,,,394.7130000000034,,response,,,,99,,,,,,,Space,keypress(Space),,,,,,,,---- -- comes -- ------ - ------- --- ----------<br>------------- ------ ------ ---- ---- ------- ----- -- ----<br>-------- ------- -- ---------- --- - --- ----- ----- ----<br>---- --- --- ----- --- ---- ---- ------- ----- ---- -------<br>--- --- -- ----- -- --- ---- -- --- ---- -- ------ ------<br>--- ----- -- ----,97009.19999998808,97008,96596.606,96601.39999997616,96613.287,97013.731,,2,comes
screen,html.Screen,2_1_0_1_3,2022-02-18T15:08:56.909Z,,,,,,,,,,,,,,,,,53,,,,,,,,,,,,,,313.76900000000023,,response,,,,99,,,,,,,Space,keypress(Space),,,,,,,,---- -- ----- to ------ - ------- --- ----------<br>------------- ------ ------ ---- ---- ------- ----- -- ----<br>-------- ------- -- ---------- --- - --- ----- ----- ----<br>---- --- --- ----- --- ---- ---- ------- ----- ---- -------<br>--- --- -- ----- -- --- ---- -- --- ---- -- ------ ------<br>--- ----- -- ----,97328.10000002384,97327.5,96997.041,97009.5,97013.731,97330.688,,3,to
screen,html.Screen,2_1_0_1_4,2022-02-18T15:08:57.238Z,,,,,,,,,,,,,,,,,53,,,,,,,,,,,,,,325.4120000238472,,response,,,,99,,,,,,,Space,keypress(Space),,,,,,,,---- -- ----- -- having - ------- --- ----------<br>------------- ------ ------ ---- ---- ------- ----- -- ----<br>-------- ------- -- ---------- --- - --- ----- ----- ----<br>---- --- --- ----- --- ---- ---- ------- ----- ---- -------<br>--- --- -- ----- -- --- ---- -- --- ---- -- ------ ------<br>--- ----- -- ----,97657.19999998808,97656.10000002384,97314.019,97328.19999998808,97330.688,97664.406,,4,having
screen,html.Screen,2_1_0_1_5,2022-02-18T15:08:57.558Z,,,,,,,,,,,,,,,,,53,,,,,,,,,,,,,,311.6940000238392,,response,,,,99,,,,,,,Space,keypress(Space),,,,,,,,---- -- ----- -- ------ a ------- --- ----------<br>------------- ------ ------ ---- ---- ------- ----- -- ----<br>-------- ------- -- ---------- --- - --- ----- ----- ----<br>---- --- --- ----- --- ---- ---- ------- ----- ---- -------<br>--- --- -- ----- -- --- ---- -- --- ---- -- ------ ------<br>--- ----- -- ----,97977.19999998808,97976.10000002384,97647.644,97657.39999997616,97664.406,97981.41,,5,a
screen,html.Screen,2_1_0_1_6,2022-02-18T15:08:57.885Z,,,,,,,,,,,,,,,,,53,,,,,,,,,,,,,,322.2899999880756,,response,,,,99,,,,,,,Space,keypress(Space),,,,,,,,---- -- ----- -- ------ - lasting --- ----------<br>------------- ------ ------ ---- ---- ------- ----- -- ----<br>-------- ------- -- ---------- --- - --- ----- ----- ----<br>---- --- --- ----- --- ---- ---- ------- ----- ---- -------<br>--- --- -- ----- -- --- ---- -- --- ---- -- ------ ------<br>--- ----- -- ----,98304.60000002384,98303.69999998808,97964.723,97977.5,97981.41,98315.031,,6,lasting
screen,html.Screen,2_1_0_1_7,2022-02-18T15:08:58.174Z,,,,,,,,,,,,,,,,,53,,,,,,,,,,,,,,277.0690000238392,,response,,,,99,,,,,,,Space,keypress(Space),,,,,,,,---- -- ----- -- ------ - ------- and ----------<br>------------- ------ ------ ---- ---- ------- ----- -- ----<br>-------- ------- -- ---------- --- - --- ----- ----- ----<br>---- --- --- ----- --- ---- ---- ------- ----- ---- -------<br>--- --- -- ----- -- --- ---- -- --- ---- -- ------ ------<br>--- ----- -- ----,98593.30000001192,98592.10000002384,98298.388,98304.80000001192,98315.031,98598.729,,7,and
screen,html.Screen,2_1_0_1_8,2022-02-18T15:08:58.534Z,,,,,,,,,,,,,,,,,53,,,,,,,,,,,,,,353.27099999999336,,response,,,,99,,,,,,,Space,keypress(Space),,,,,,,,---- -- ----- -- ------ - ------- --- fulfilling<br>------------- ------ ------ ---- ---- ------- ----- -- ----<br>-------- ------- -- ---------- --- - --- ----- ----- ----<br>---- --- --- ----- --- ---- ---- ------- ----- ---- -------<br>--- --- -- ----- -- --- ---- -- --- ---- -- ------ ------<br>--- ----- -- ----,98953.19999998808,98952,98582.033,98593.60000002384,98598.729,98965.774,,8,fulfilling
screen,html.Screen,2_1_0_1_9,2022-02-18T15:08:58.878Z,,,,,,,,,,,,,,,,,53,,,,,,,,,,,,,,330.2259999999951,,response,,,,99,,,,,,,Space,keypress(Space),,,,,,,,"---- -- ----- -- ------ - ------- --- ----------<br>relationship, ------ ------ ---- ---- ------- ----- -- ----<br>-------- ------- -- ---------- --- - --- ----- ----- ----<br>---- --- --- ----- --- ---- ---- ------- ----- ---- -------<br>--- --- -- ----- -- --- ---- -- --- ---- -- ------ ------<br>--- ----- -- ----",99297.30000001192,99296,98949.074,98953.39999997616,98965.774,99299.466,,9,"relationship,"
screen,html.Screen,2_1_0_1_10,2022-02-18T15:08:59.470Z,,,,,,,,,,,,,,,,,53,,,,,,,,,,,,,,588.5339999999997,,response,,,,99,,,,,,,Space,keypress(Space),,,,,,,,---- -- ----- -- ------ - ------- --- ----------<br>------------- common ------ ---- ---- ------- ----- -- ----<br>-------- ------- -- ---------- --- - --- ----- ----- ----<br>---- --- --- ----- --- ---- ---- ------- ----- ---- -------<br>--- --- -- ----- -- --- ---- -- --- ---- -- ------ ------<br>--- ----- -- ----,99889.39999997616,99888,99282.772,99297.5,99299.466,99900.086,,10,common
screen,html.Screen,2_1_0_1_11,2022-02-18T15:08:59.742Z,,,,,,,,,,,,,,,,,53,,,,,,,,,,,,,,259.9140000000043,,response,,,,99,,,,,,,Space,keypress(Space),,,,,,,,---- -- ----- -- ------ - ------- --- ----------<br>------------- ------ wisdom ---- ---- ------- ----- -- ----<br>-------- ------- -- ---------- --- - --- ----- ----- ----<br>---- --- --- ----- --- ---- ---- ------- ----- ---- -------<br>--- --- -- ----- -- --- ---- -- --- ---- -- ------ ------<br>--- ----- -- ----,100161.19999998808,100160,99883.39,99889.69999998808,99900.086,100183.755,,11,wisdom
screen,html.Screen,2_1_0_1_12,2022-02-18T15:09:00.014Z,,,,,,,,,,,,,,,,,53,,,,,,,,,,,,,,248.3450000238372,,response,,,,99,,,,,,,Space,keypress(Space),,,,,,,,---- -- ----- -- ------ - ------- --- ----------<br>------------- ------ ------ says ---- ------- ----- -- ----<br>-------- ------- -- ---------- --- - --- ----- ----- ----<br>---- --- --- ----- --- ---- ---- ------- ----- ---- -------<br>--- --- -- ----- -- --- ---- -- --- ---- -- ------ ------<br>--- ----- -- ----,100433.5,100432.10000002384,100167.046,100161.5,100183.755,100450.734,,12,says
screen,html.Screen,2_1_0_1_13,2022-02-18T15:09:00.302Z,,,,,,,,,,,,,,,,,53,,,,,,,,,,,,,,269.26600000000326,,response,,,,99,,,,,,,Space,keypress(Space),,,,,,,,---- -- ----- -- ------ - ------- --- ----------<br>------------- ------ ------ ---- that ------- ----- -- ----<br>-------- ------- -- ---------- --- - --- ----- ----- ----<br>---- --- --- ----- --- ---- ---- ------- ----- ---- -------<br>--- --- -- ----- -- --- ---- -- --- ---- -- ------ ------<br>--- ----- -- ----,100721.19999998808,100720,100433.967,100433.80000001192,100450.734,100734.323,,13,that
screen,html.Screen,2_1_0_1_14,2022-02-18T15:09:00.582Z,,,,,,,,,,,,,,,,,53,,,,,,,,,,,,,,265.67699999999604,,response,,,,99,,,,,,,Space,keypress(Space),,,,,,,,---- -- ----- -- ------ - ------- --- ----------<br>------------- ------ ------ ---- ---- feeling ----- -- ----<br>-------- ------- -- ---------- --- - --- ----- ----- ----<br>---- --- --- ----- --- ---- ---- ------- ----- ---- -------<br>--- --- -- ----- -- --- ---- -- --- ---- -- ------ ------<br>--- ----- -- ----,101001.5,101000,100717.624,100721.5,100734.323,101017.967,,14,feeling
screen,html.Screen,2_1_0_1_15,2022-02-18T15:09:00.878Z,,,,,,,,,,,,,,,,,53,,,,,,,,,,,,,,278.13300002383767,,response,,,,99,,,,,,,Space,keypress(Space),,,,,,,,---- -- ----- -- ------ - ------- --- ----------<br>------------- ------ ------ ---- ---- ------- close -- ----<br>-------- ------- -- ---------- --- - --- ----- ----- ----<br>---- --- --- ----- --- ---- ---- ------- ----- ---- -------<br>--- --- -- ----- -- --- ---- -- --- ---- -- ------ ------<br>--- ----- -- ----,101297.30000001192,101296.10000002384,101001.236,101001.80000001192,101017.967,101301.584,,15,close
screen,html.Screen,2_1_0_1_16,2022-02-18T15:09:01.157Z,,,,,,,,,,,,,,,,,53,,,,,,,,,,,,,,274.21600001191837,,response,,,,99,,,,,,,Space,keypress(Space),,,,,,,,---- -- ----- -- ------ - ------- --- ----------<br>------------- ------ ------ ---- ---- ------- ----- to ----<br>-------- ------- -- ---------- --- - --- ----- ----- ----<br>---- --- --- ----- --- ---- ---- ------- ----- ---- -------<br>--- --- -- ----- -- --- ---- -- --- ---- -- ------ ------<br>--- ----- -- ----,101576.39999997616,101575.80000001192,101284.883,101297.5,101301.584,101585.175,,16,to
screen,html.Screen,2_1_0_1_17,2022-02-18T15:09:01.438Z,,,,,,,,,,,,,,,,,53,,,,,,,,,,,,,,270.92500002383895,,response,,,,99,,,,,,,Space,keypress(Space),,,,,,,,---- -- ----- -- ------ - ------- --- ----------<br>------------- ------ ------ ---- ---- ------- ----- -- your<br>-------- ------- -- ---------- --- - --- ----- ----- ----<br>---- --- --- ----- --- ---- ---- ------- ----- ---- -------<br>--- --- -- ----- -- --- ---- -- --- ---- -- ------ ------<br>--- ----- -- ----,101857.30000001192,101856.10000002384,101568.512,101576.60000002384,101585.175,101868.894,,17,your
screen,html.Screen,2_1_0_1_18,2022-02-18T15:09:01.742Z,,,,,,,,,,,,,,,,,53,,,,,,,,,,,,,,291.10599999999977,,response,,,,99,,,,,,,Space,keypress(Space),,,,,,,,---- -- ----- -- ------ - ------- --- ----------<br>------------- ------ ------ ---- ---- ------- ----- -- ----<br>romantic ------- -- ---------- --- - --- ----- ----- ----<br>---- --- --- ----- --- ---- ---- ------- ----- ---- -------<br>--- --- -- ----- -- --- ---- -- --- ---- -- ------ ------<br>--- ----- -- ----,102161.19999998808,102160,101852.124,101857.5,101868.894,102169.228,,18,romantic
screen,html.Screen,2_1_0_1_19,2022-02-18T15:09:02.006Z,,,,,,,,,,,,,,,,,53,,,,,,,,,,,,,,254.87200002383906,,response,,,,99,,,,,,,Space,keypress(Space),,,,,,,,---- -- ----- -- ------ - ------- --- ----------<br>------------- ------ ------ ---- ---- ------- ----- -- ----<br>-------- partner -- ---------- --- - --- ----- ----- ----<br>---- --- --- ----- --- ---- ---- ------- ----- ---- -------<br>--- --- -- ----- -- --- ---- -- --- ---- -- ------ ------<br>--- ----- -- ----,102425.30000001192,102424.10000002384,102152.441,102161.39999997616,102169.228,102436.099,,19,partner
screen,html.Screen,2_1_0_1_20,2022-02-18T15:09:02.382Z,,,,,,,,,,,,,,,,,53,,,,,,,,,,,,,,363.900999999998,,response,,,,99,,,,,,,Space,keypress(Space),,,,,,,,---- -- ----- -- ------ - ------- --- ----------<br>------------- ------ ------ ---- ---- ------- ----- -- ----<br>-------- ------- is ---------- --- - --- ----- ----- ----<br>---- --- --- ----- --- ---- ---- ------- ----- ---- -------<br>--- --- -- ----- -- --- ---- -- --- ---- -- ------ ------<br>--- ----- -- ----,102801.19999998808,102800,102419.412,102425.5,102436.099,102819.872,,20,is
screen,html.Screen,2_1_0_1_21,2022-02-18T15:09:02.678Z,,,,,,,,,,,,,,,,,53,,,,,,,,,,,,,,276.22800002383883,,response,,,,99,,,,,,,Space,keypress(Space),,,,,,,,---- -- ----- -- ------ - ------- --- ----------<br>------------- ------ ------ ---- ---- ------- ----- -- ----<br>-------- ------- -- paramount. --- - --- ----- ----- ----<br>---- --- --- ----- --- ---- ---- ------- ----- ---- -------<br>--- --- -- ----- -- --- ---- -- --- ---- -- ------ ------<br>--- ----- -- ----,103097.19999998808,103096.10000002384,102803.161,102801.5,102819.872,103103.473,,21,paramount.
screen,html.Screen,2_1_0_1_22,2022-02-18T15:09:03.037Z,,,,,,,,,,,,,,,,,53,,,,,,,,,,,,,,352.22699998808093,,response,,,,99,,,,,,,Space,keypress(Space),,,,,,,,---- -- ----- -- ------ - ------- --- ----------<br>------------- ------ ------ ---- ---- ------- ----- -- ----<br>-------- ------- -- ---------- But - --- ----- ----- ----<br>---- --- --- ----- --- ---- ---- ------- ----- ---- -------<br>--- --- -- ----- -- --- ---- -- --- ---- -- ------ ------<br>--- ----- -- ----,103456.5,103455.69999998808,103086.755,103097.5,103103.473,103470.528,,22,But
screen,html.Screen,2_1_0_1_23,2022-02-18T15:09:03.566Z,,,,,,,,,,,,,,,,,53,,,,,,,,,,,,,,513.4719999999943,,response,,,,99,,,,,,,Space,keypress(Space),,,,,,,,---- -- ----- -- ------ - ------- --- ----------<br>------------- ------ ------ ---- ---- ------- ----- -- ----<br>-------- ------- -- ---------- --- a --- ----- ----- ----<br>---- --- --- ----- --- ---- ---- ------- ----- ---- -------<br>--- --- -- ----- -- --- ---- -- --- ---- -- ------ ------<br>--- ----- -- ----,103985.19999998808,103984,103453.827,103456.69999998808,103470.528,103987.739,,23,a
screen,html.Screen,2_1_0_1_24,2022-02-18T15:09:03.854Z,,,,,,,,,,,,,,,,,53,,,,,,,,,,,,,,284.2609999999986,,response,,,,99,,,,,,,Space,keypress(Space),,,,,,,,---- -- ----- -- ------ - ------- --- ----------<br>------------- ------ ------ ---- ---- ------- ----- -- ----<br>-------- ------- -- ---------- --- - new ----- ----- ----<br>---- --- --- ----- --- ---- ---- ------- ----- ---- -------<br>--- --- -- ----- -- --- ---- -- --- ---- -- ------ ------<br>--- ----- -- ----,104273.39999997616,104272,103971.039,103985.5,103987.739,104288.055,,24,new
screen,html.Screen,2_1_0_1_25,2022-02-18T15:09:04.102Z,,,,,,,,,,,,,,,,,53,,,,,,,,,,,,,,231.94500000000698,,response,,,,99,,,,,,,Space,keypress(Space),,,,,,,,---- -- ----- -- ------ - ------- --- ----------<br>------------- ------ ------ ---- ---- ------- ----- -- ----<br>-------- ------- -- ---------- --- - --- study ----- ----<br>---- --- --- ----- --- ---- ---- ------- ----- ---- -------<br>--- --- -- ----- -- --- ---- -- --- ---- -- ------ ------<br>--- ----- -- ----,104521.19999998808,104520,104271.35,104273.69999998808,104288.055,104538.314,,25,study
screen,html.Screen,2_1_0_1_26,2022-02-18T15:09:04.398Z,,,,,,,,,,,,,,,,,53,,,,,,,,,,,,,,277.8859999880806,,response,,,,99,,,,,,,Space,keypress(Space),,,,,,,,---- -- ----- -- ------ - ------- --- ----------<br>------------- ------ ------ ---- ---- ------- ----- -- ----<br>-------- ------- -- ---------- --- - --- ----- finds ----<br>---- --- --- ----- --- ---- ---- ------- ----- ---- -------<br>--- --- -- ----- -- --- ---- -- --- ---- -- ------ ------<br>--- ----- -- ----,104817.39999997616,104816.19999998808,104521.626,104521.5,104538.314,104821.965,,26,finds
screen,html.Screen,2_1_0_1_27,2022-02-18T15:09:04.710Z,,,,,,,,,,,,,,,,,53,,,,,,,,,,,,,,306.0350000000035,,response,,,,99,,,,,,,Space,keypress(Space),,,,,,,,---- -- ----- -- ------ - ------- --- ----------<br>------------- ------ ------ ---- ---- ------- ----- -- ----<br>-------- ------- -- ---------- --- - --- ----- ----- that<br>---- --- --- ----- --- ---- ---- ------- ----- ---- -------<br>--- --- -- ----- -- --- ---- -- --- ---- -- ------ ------<br>--- ----- -- ----,105129.60000002384,105128,104805.233,104817.89999997616,104821.965,105139.108,,27,that
screen,html.Screen,2_1_0_1_28,2022-02-18T15:09:05.006Z,,,,,,,,,,,,,,,,,53,,,,,,,,,,,,,,284.99200002384896,,response,,,,99,,,,,,,Space,keypress(Space),,,,,,,,---- -- ----- -- ------ - ------- --- ----------<br>------------- ------ ------ ---- ---- ------- ----- -- ----<br>-------- ------- -- ---------- --- - --- ----- ----- ----<br>it's --- --- ----- --- ---- ---- ------- ----- ---- -------<br>--- --- -- ----- -- --- ---- -- --- ---- -- ------ ------<br>--- ----- -- ----,105425.30000001192,105424.10000002384,105122.253,105129.89999997616,105139.108,105439.296,,28,it's
screen,html.Screen,2_1_0_1_29,2022-02-18T15:09:05.262Z,,,,,,,,,,,,,,,,,53,,,,,,,,,,,,,,240.7039999999979,,response,,,,99,,,,,,,Space,keypress(Space),,,,,,,,---- -- ----- -- ------ - ------- --- ----------<br>------------- ------ ------ ---- ---- ------- ----- -- ----<br>-------- ------- -- ---------- --- - --- ----- ----- ----<br>---- not --- ----- --- ---- ---- ------- ----- ---- -------<br>--- --- -- ----- -- --- ---- -- --- ---- -- ------ ------<br>--- ----- -- ----,105681.10000002384,105680,105422.603,105425.5,105439.296,105689.534,,29,not
screen,html.Screen,2_1_0_1_30,2022-02-18T15:09:05.470Z,,,,,,,,,,,,,,,,,53,,,,,,,,,,,,,,198.5660000238422,,response,,,,99,,,,,,,Space,keypress(Space),,,,,,,,---- -- ----- -- ------ - ------- --- ----------<br>------------- ------ ------ ---- ---- ------- ----- -- ----<br>-------- ------- -- ---------- --- - --- ----- ----- ----<br>---- --- how ----- --- ---- ---- ------- ----- ---- -------<br>--- --- -- ----- -- --- ---- -- --- ---- -- ------ ------<br>--- ----- -- ----,105889.30000001192,105888.10000002384,105672.824,105681.39999997616,105689.534,105906.442,,30,how
screen,html.Screen,2_1_0_1_31,2022-02-18T15:09:05.710Z,,,,,,,,,,,,,,,,,53,,,,,,,,,,,,,,221.6580000238464,,response,,,,99,,,,,,,Space,keypress(Space),,,,,,,,---- -- ----- -- ------ - ------- --- ----------<br>------------- ------ ------ ---- ---- ------- ----- -- ----<br>-------- ------- -- ---------- --- - --- ----- ----- ----<br>---- --- --- close --- ---- ---- ------- ----- ---- -------<br>--- --- -- ----- -- --- ---- -- --- ---- -- ------ ------<br>--- ----- -- ----,106129.39999997616,106128.10000002384,105889.74,105889.69999998808,105906.442,106140.014,,31,close
screen,html.Screen,2_1_0_1_32,2022-02-18T15:09:05.935Z,,,,,,,,,,,,,,,,,53,,,,,,,,,,,,,,213.28600001192535,,response,,,,99,,,,,,,Space,keypress(Space),,,,,,,,---- -- ----- -- ------ - ------- --- ----------<br>------------- ------ ------ ---- ---- ------- ----- -- ----<br>-------- ------- -- ---------- --- - --- ----- ----- ----<br>---- --- --- ----- you ---- ---- ------- ----- ---- -------<br>--- --- -- ----- -- --- ---- -- --- ---- -- ------ ------<br>--- ----- -- ----,106354.5,106353.30000001192,106123.298,106129.60000002384,106140.014,106356.918,,32,you
screen,html.Screen,2_1_0_1_33,2022-02-18T15:09:06.206Z,,,,,,,,,,,,,,,,,53,,,,,,,,,,,,,,267.0819999999949,,response,,,,99,,,,,,,Space,keypress(Space),,,,,,,,---- -- ----- -- ------ - ------- --- ----------<br>------------- ------ ------ ---- ---- ------- ----- -- ----<br>-------- ------- -- ---------- --- - --- ----- ----- ----<br>---- --- --- ----- --- feel ---- ------- ----- ---- -------<br>--- --- -- ----- -- --- ---- -- --- ---- -- ------ ------<br>--- ----- -- ----,106625.30000001192,106624,106340.193,106354.80000001192,106356.918,106640.543,,33,feel
screen,html.Screen,2_1_0_1_34,2022-02-18T15:09:06.469Z,,,,,,,,,,,,,,,,,53,,,,,,,,,,,,,,246.95699999999488,,response,,,,99,,,,,,,Space,keypress(Space),,,,,,,,---- -- ----- -- ------ - ------- --- ----------<br>------------- ------ ------ ---- ---- ------- ----- -- ----<br>-------- ------- -- ---------- --- - --- ----- ----- ----<br>---- --- --- ----- --- ---- that ------- ----- ---- -------<br>--- --- -- ----- -- --- ---- -- --- ---- -- ------ ------<br>--- ----- -- ----,106888.19999998808,106887.5,106623.838,106628,106640.543,106890.772,,34,that
screen,html.Screen,2_1_0_1_35,2022-02-18T15:09:06.734Z,,,,,,,,,,,,,,,,,53,,,,,,,,,,,,,,261.32800002384465,,response,,,,99,,,,,,,Space,keypress(Space),,,,,,,,---- -- ----- -- ------ - ------- --- ----------<br>------------- ------ ------ ---- ---- ------- ----- -- ----<br>-------- ------- -- ---------- --- - --- ----- ----- ----<br>---- --- --- ----- --- ---- ---- matters ----- ---- -------<br>--- --- -- ----- -- --- ---- -- --- ---- -- ------ ------<br>--- ----- -- ----,107153.30000001192,107152.10000002384,106874.091,106888.39999997616,106890.772,107157.76,,35,matters
screen,html.Screen,2_1_0_1_36,2022-02-18T15:09:07.004Z,,,,,,,,,,,,,,,,,53,,,,,,,,,,,,,,265.54000001192617,,response,,,,99,,,,,,,Space,keypress(Space),,,,,,,,"---- -- ----- -- ------ - ------- --- ----------<br>------------- ------ ------ ---- ---- ------- ----- -- ----<br>-------- ------- -- ---------- --- - --- ----- ----- ----<br>---- --- --- ----- --- ---- ---- ------- most, ---- -------<br>--- --- -- ----- -- --- ---- -- --- ---- -- ------ ------<br>--- ----- -- ----",107423.69999998808,107423.30000001192,107141.052,107153.60000002384,107157.76,107424.639,,36,"most,"
screen,html.Screen,2_1_0_1_37,2022-02-18T15:09:07.549Z,,,,,,,,,,,,,,,,,53,,,,,,,,,,,,,,542.7609999761626,,response,,,,99,,,,,,,Space,keypress(Space),,,,,,,,---- -- ----- -- ------ - ------- --- ----------<br>------------- ------ ------ ---- ---- ------- ----- -- ----<br>-------- ------- -- ---------- --- - --- ----- ----- ----<br>---- --- --- ----- --- ---- ---- ------- ----- it's -------<br>--- --- -- ----- -- --- ---- -- --- ---- -- ------ ------<br>--- ----- -- ----,107967.80000001192,107967.39999997616,107408.001,107423.69999998808,107424.639,107975.259,,37,it's
screen,html.Screen,2_1_0_1_38,2022-02-18T15:09:07.775Z,,,,,,,,,,,,,,,,,53,,,,,,,,,,,,,,216.74099999999453,,response,,,,99,,,,,,,Space,keypress(Space),,,,,,,,---- -- ----- -- ------ - ------- --- ----------<br>------------- ------ ------ ---- ---- ------- ----- -- ----<br>-------- ------- -- ---------- --- - --- ----- ----- ----<br>---- --- --- ----- --- ---- ---- ------- ----- ---- whether<br>--- --- -- ----- -- --- ---- -- --- ---- -- ------ ------<br>--- ----- -- ----,108193.69999998808,108192,107958.547,107967.80000001192,107975.259,108208.939,,38,whether
screen,html.Screen,2_1_0_1_39,2022-02-18T15:09:07.982Z,,,,,,,,,,,,,,,,,53,,,,,,,,,,,,,,191.16100002384337,,response,,,,99,,,,,,,Space,keypress(Space),,,,,,,,---- -- ----- -- ------ - ------- --- ----------<br>------------- ------ ------ ---- ---- ------- ----- -- ----<br>-------- ------- -- ---------- --- - --- ----- ----- ----<br>---- --- --- ----- --- ---- ---- ------- ----- ---- -------<br>you --- -- ----- -- --- ---- -- --- ---- -- ------ ------<br>--- ----- -- ----,108401.30000001192,108400.10000002384,108192.178,108194.10000002384,108208.939,108409.058,,39,you
screen,html.Screen,2_1_0_1_40,2022-02-18T15:09:08.222Z,,,,,,,,,,,,,,,,,53,,,,,,,,,,,,,,230.94199999999546,,response,,,,99,,,,,,,Space,keypress(Space),,,,,,,,---- -- ----- -- ------ - ------- --- ----------<br>------------- ------ ------ ---- ---- ------- ----- -- ----<br>-------- ------- -- ---------- --- - --- ----- ----- ----<br>---- --- --- ----- --- ---- ---- ------- ----- ---- -------<br>--- are -- ----- -- --- ---- -- --- ---- -- ------ ------<br>--- ----- -- ----,108641.19999998808,108640,108392.388,108401.5,108409.058,108659.341,,40,are
screen,html.Screen,2_1_0_1_41,2022-02-18T15:09:08.446Z,,,,,,,,,,,,,,,,,53,,,,,,,,,,,,,,204.65899999999965,,response,,,,99,,,,,,,Space,keypress(Space),,,,,,,,---- -- ----- -- ------ - ------- --- ----------<br>------------- ------ ------ ---- ---- ------- ----- -- ----<br>-------- ------- -- ---------- --- - --- ----- ----- ----<br>---- --- --- ----- --- ---- ---- ------- ----- ---- -------<br>--- --- as ----- -- --- ---- -- --- ---- -- ------ ------<br>--- ----- -- ----,108865.19999998808,108864,108642.642,108641.39999997616,108659.341,108876.224,,41,as
screen,html.Screen,2_1_0_1_42,2022-02-18T15:09:08.662Z,,,,,,,,,,,,,,,,,53,,,,,,,,,,,,,,203.77599999999802,,response,,,,99,,,,,,,Space,keypress(Space),,,,,,,,---- -- ----- -- ------ - ------- --- ----------<br>------------- ------ ------ ---- ---- ------- ----- -- ----<br>-------- ------- -- ---------- --- - --- ----- ----- ----<br>---- --- --- ----- --- ---- ---- ------- ----- ---- -------<br>--- --- -- close -- --- ---- -- --- ---- -- ------ ------<br>--- ----- -- ----,109081.19999998808,109080,108859.521,108865.5,108876.224,109093.124,,42,close
screen,html.Screen,2_1_0_1_43,2022-02-18T15:09:08.894Z,,,,,,,,,,,,,,,,,53,,,,,,,,,,,,,,218.9760000238457,,response,,,,99,,,,,,,Space,keypress(Space),,,,,,,,---- -- ----- -- ------ - ------- --- ----------<br>------------- ------ ------ ---- ---- ------- ----- -- ----<br>-------- ------- -- ---------- --- - --- ----- ----- ----<br>---- --- --- ----- --- ---- ---- ------- ----- ---- -------<br>--- --- -- ----- as --- ---- -- --- ---- -- ------ ------<br>--- ----- -- ----,109313.5,109312.10000002384,109076.412,109081.5,109093.124,109326.68,,43,as
screen,html.Screen,2_1_0_1_44,2022-02-18T15:09:09.126Z,,,,,,,,,,,,,,,,,53,,,,,,,,,,,,,,217.42000002384884,,response,,,,99,,,,,,,Space,keypress(Space),,,,,,,,---- -- ----- -- ------ - ------- --- ----------<br>------------- ------ ------ ---- ---- ------- ----- -- ----<br>-------- ------- -- ---------- --- - --- ----- ----- ----<br>---- --- --- ----- --- ---- ---- ------- ----- ---- -------<br>--- --- -- ----- -- you ---- -- --- ---- -- ------ ------<br>--- ----- -- ----,109545.5,109544.10000002384,109310.004,109313.80000001192,109326.68,109560.288,,44,you
screen,html.Screen,2_1_0_1_45,2022-02-18T15:09:09.343Z,,,,,,,,,,,,,,,,,53,,,,,,,,,,,,,,200.9119999880786,,response,,,,99,,,,,,,Space,keypress(Space),,,,,,,,---- -- ----- -- ------ - ------- --- ----------<br>------------- ------ ------ ---- ---- ------- ----- -- ----<br>-------- ------- -- ---------- --- - --- ----- ----- ----<br>---- --- --- ----- --- ---- ---- ------- ----- ---- -------<br>--- --- -- ----- -- --- want -- --- ---- -- ------ ------<br>--- ----- -- ----,109762.30000001192,109761.19999998808,109543.576,109545.80000001192,109560.288,109777.188,,45,want
screen,html.Screen,2_1_0_1_46,2022-02-18T15:09:09.566Z,,,,,,,,,,,,,,,,,53,,,,,,,,,,,,,,206.81200000000536,,response,,,,99,,,,,,,Space,keypress(Space),,,,,,,,---- -- ----- -- ------ - ------- --- ----------<br>------------- ------ ------ ---- ---- ------- ----- -- ----<br>-------- ------- -- ---------- --- - --- ----- ----- ----<br>---- --- --- ----- --- ---- ---- ------- ----- ---- -------<br>--- --- -- ----- -- --- ---- to --- ---- -- ------ ------<br>--- ----- -- ----,109985.10000002384,109984,109760.477,109762.5,109777.188,109994.065,,46,to
screen,html.Screen,2_1_0_1_47,2022-02-18T15:09:09.799Z,,,,,,,,,,,,,,,,,53,,,,,,,,,,,,,,222.03500002383953,,response,,,,99,,,,,,,Space,keypress(Space),,,,,,,,"---- -- ----- -- ------ - ------- --- ----------<br>------------- ------ ------ ---- ---- ------- ----- -- ----<br>-------- ------- -- ---------- --- - --- ----- ----- ----<br>---- --- --- ----- --- ---- ---- ------- ----- ---- -------<br>--- --- -- ----- -- --- ---- -- be, ---- -- ------ ------<br>--- ----- -- ----",110218.10000002384,110216.10000002384,109977.365,109985.30000001192,109994.065,110244.326,,47,"be,"
screen,html.Screen,2_1_0_1_48,2022-02-18T15:09:10.030Z,,,,,,,,,,,,,,,,,53,,,,,,,,,,,,,,203.67399999999907,,response,,,,99,,,,,,,Space,keypress(Space),,,,,,,,---- -- ----- -- ------ - ------- --- ----------<br>------------- ------ ------ ---- ---- ------- ----- -- ----<br>-------- ------- -- ---------- --- - --- ----- ----- ----<br>---- --- --- ----- --- ---- ---- ------- ----- ---- -------<br>--- --- -- ----- -- --- ---- -- --- even -- ------ ------<br>--- ----- -- ----,110449.30000001192,110448,110227.625,110218.30000001192,110244.326,110461.235,,48,even
screen,html.Screen,2_1_0_1_49,2022-02-18T15:09:10.302Z,,,,,,,,,,,,,,,,,53,,,,,,,,,,,,,,258.8650000238413,,response,,,,99,,,,,,,Space,keypress(Space),,,,,,,,---- -- ----- -- ------ - ------- --- ----------<br>------------- ------ ------ ---- ---- ------- ----- -- ----<br>-------- ------- -- ---------- --- - --- ----- ----- ----<br>---- --- --- ----- --- ---- ---- ------- ----- ---- -------<br>--- --- -- ----- -- --- ---- -- --- ---- if ------ ------<br>--- ----- -- ----,110721.19999998808,110720.10000002384,110444.48,110449.60000002384,110461.235,110744.875,,49,if
screen,html.Screen,2_1_0_1_50,2022-02-18T15:09:10.502Z,,,,,,,,,,,,,,,,,53,,,,,,,,,,,,,,175.125,,response,,,,99,,,,,,,Space,keypress(Space),,,,,,,,---- -- ----- -- ------ - ------- --- ----------<br>------------- ------ ------ ---- ---- ------- ----- -- ----<br>-------- ------- -- ---------- --- - --- ----- ----- ----<br>---- --- --- ----- --- ---- ---- ------- ----- ---- -------<br>--- --- -- ----- -- --- ---- -- --- ---- -- that's ------<br>--- ----- -- ----,110921.19999998808,110920,110728.191,110721.5,110744.875,110928.398,,50,that's
screen,html.Screen,2_1_0_1_51,2022-02-18T15:09:10.718Z,,,,,,,,,,,,,,,,,53,,,,,,,,,,,,,,207.7020000238408,,response,,,,99,,,,,,,Space,keypress(Space),,,,,,,,---- -- ----- -- ------ - ------- --- ----------<br>------------- ------ ------ ---- ---- ------- ----- -- ----<br>-------- ------- -- ---------- --- - --- ----- ----- ----<br>---- --- --- ----- --- ---- ---- ------- ----- ---- -------<br>--- --- -- ----- -- --- ---- -- --- ---- -- ------ really<br>--- ----- -- ----,111137.19999998808,111136.10000002384,110911.692,110921.5,110928.398,111145.274,,51,really
screen,html.Screen,2_1_0_1_52,2022-02-18T15:09:10.950Z,,,,,,,,,,,,,,,,,53,,,,,,,,,,,,,,222.82600002383697,,response,,,,99,,,,,,,Space,keypress(Space),,,,,,,,---- -- ----- -- ------ - ------- --- ----------<br>------------- ------ ------ ---- ---- ------- ----- -- ----<br>-------- ------- -- ---------- --- - --- ----- ----- ----<br>---- --- --- ----- --- ---- ---- ------- ----- ---- -------<br>--- --- -- ----- -- --- ---- -- --- ---- -- ------ ------<br>not ----- -- ----,111369.39999997616,111368.10000002384,111128.588,111137.39999997616,111145.274,111378.932,,52,not
screen,html.Screen,2_1_0_1_53,2022-02-18T15:09:11.182Z,,,,,,,,,,,,,,,,,53,,,,,,,,,,,,,,221.0679999999993,,response,,,,99,,,,,,,Space,keypress(Space),,,,,,,,---- -- ----- -- ------ - ------- --- ----------<br>------------- ------ ------ ---- ---- ------- ----- -- ----<br>-------- ------- -- ---------- --- - --- ----- ----- ----<br>---- --- --- ----- --- ---- ---- ------- ----- ---- -------<br>--- --- -- ----- -- --- ---- -- --- ---- -- ------ ------<br>--- close -- ----,111601.30000001192,111600,111362.346,111369.60000002384,111378.932,111612.623,,53,close
screen,html.Screen,2_1_0_1_54,2022-02-18T15:09:11.416Z,,,,,,,,,,,,,,,,,53,,,,,,,,,,,,,,221.5769999880722,,response,,,,99,,,,,,,Space,keypress(Space),,,,,,,,---- -- ----- -- ------ - ------- --- ----------<br>------------- ------ ------ ---- ---- ------- ----- -- ----<br>-------- ------- -- ---------- --- - --- ----- ----- ----<br>---- --- --- ----- --- ---- ---- ------- ----- ---- -------<br>--- --- -- ----- -- --- ---- -- --- ---- -- ------ ------<br>--- ----- at ----,111835.5,111834.19999998808,111595.738,111601.60000002384,111612.623,111846.052,,54,at
screen,html.Screen,2_1_0_1_55,2022-02-18T15:09:11.686Z,,,,,,,,,,,,,,,,,53,,,,,,,,,,,,,,258.0480000238458,,response,,,,99,,,,,,,Space,keypress(Space),,,,,,,,---- -- ----- -- ------ - ------- --- ----------<br>------------- ------ ------ ---- ---- ------- ----- -- ----<br>-------- ------- -- ---------- --- - --- ----- ----- ----<br>---- --- --- ----- --- ---- ---- ------- ----- ---- -------<br>--- --- -- ----- -- --- ---- -- --- ---- -- ------ ------<br>--- ----- -- all.,112105.30000001192,112104.10000002384,111829.331,111835.69999998808,111846.052,112129.664,,55,all.
Item 99,flow.Loop,2_1_0_1,2022-02-18T15:09:11.687Z,,,,,,,,,,,,,,,,,,,,,,,,,,,,,,,16992.405000023835,,completion,,,,,A,,,,,,,,,,,silence,,,,,112105.80000001192,112104.10000002384,95078.337,95079.60000002384,95111.695,112129.664,,,
Question 1,html.Screen,2_1_0_2,2022-02-18T15:09:14.381Z,,,,,,,,,,,,,,,,,,,,,,,,,,,,true,FALSE,,2669.6360000119166,,response,,,,99,A,,,,,,FALSE,click #choice-2,,,,silence,,,,,114799.89999997616,114799.30000001192,112096.285,112106,112129.664,114815.778,,,
Question 2,html.Screen,2_1_0_3,2022-02-18T15:09:18.939Z,,,,,,,,,,,,,,,,,,,,,,,,,,,,true,TRUE,,4541.421999988073,,response,,,,99,A,,,,,,TRUE,click #choice-1,,,,silence,,,,,119357.80000001192,119357.19999998808,114799.097,114800,114815.778,119370.579,,,
Item 99,flow.Sequence,2_1_0,2022-02-18T15:09:18.939Z,,,,,,,,,,,,,,,,,,,,,,,,,,,,,,,34256.096999988076,,completion,,,,,,,,,,,,,,,,,,,,,119358,119357.19999998808,85084.471,85100.5,85101.103,119370.579,,,
Holding screen,html.Screen,2_1_1_0,2022-02-18T15:09:28.929Z,,,,,,,,,,,,,,,,,,,,,,,,,,,,,,,9993.921000000002,,timeout,,,,,,,,,,,,,,,,,,,,,129348.60000002384,129347.793,119353.905,119358.10000002384,119370.579,129364.5,,,
screen,html.Screen,2_1_1_1_0,2022-02-18T15:09:29.990Z,,,,,,,,,,,,,,,,,54,,,,,,,,,,,,,,1043.6000000238419,,response,,,,100,,,,,,,Space,keypress(Space),,,,,,,,At --- ---- --- ------ ----- ------- ---- -- --- ------- --<br>------- ---------- ------ -- ----- -- ----- -- ---- ------<br>--- ----- --- --- ------ -------- ----- --- ------ ----- --<br>----- ----- ---------- --- --- ------ ------ ---- -- ------<br>------- --- ------ ----- --- ---- ------- -- ---- --- --<br>------- ------,130408.80000001192,130408.10000002384,129347.793,129349.10000002384,129364.5,130415.551,,0,At
screen,html.Screen,2_1_1_1_1,2022-02-18T15:09:30.350Z,,,,,,,,,,,,,,,,,54,,,,,,,,,,,,,,352.5490000238351,,response,,,,100,,,,,,,Space,keypress(Space),,,,,,,,-- the ---- --- ------ ----- ------- ---- -- --- ------- --<br>------- ---------- ------ -- ----- -- ----- -- ---- ------<br>--- ----- --- --- ------ -------- ----- --- ------ ----- --<br>----- ----- ---------- --- --- ------ ------ ---- -- ------<br>------- --- ------ ----- --- ---- ------- -- ---- --- --<br>------- ------,130769.10000002384,130768.10000002384,130398.865,130409,130415.551,130782.672,,1,the
screen,html.Screen,2_1_1_1_2,2022-02-18T15:09:30.574Z,,,,,,,,,,,,,,,,,54,,,,,,,,,,,,,,209.42800002383592,,response,,,,100,,,,,,,Space,keypress(Space),,,,,,,,-- --- time --- ------ ----- ------- ---- -- --- ------- --<br>------- ---------- ------ -- ----- -- ----- -- ---- ------<br>--- ----- --- --- ------ -------- ----- --- ------ ----- --<br>----- ----- ---------- --- --- ------ ------ ---- -- ------<br>------- --- ------ ----- --- ---- ------- -- ---- --- --<br>------- ------,130993.10000002384,130992.10000002384,130765.952,130769.39999997616,130782.672,130999.558,,2,time
screen,html.Screen,2_1_1_1_3,2022-02-18T15:09:30.912Z,,,,,,,,,,,,,,,,,54,,,,,,,,,,,,,,329.94199999999546,,response,,,,100,,,,,,,Space,keypress(Space),,,,,,,,-- --- ---- the ------ ----- ------- ---- -- --- ------- --<br>------- ---------- ------ -- ----- -- ----- -- ---- ------<br>--- ----- --- --- ------ -------- ----- --- ------ ----- --<br>----- ----- ---------- --- --- ------ ------ ---- -- ------<br>------- --- ------ ----- --- ---- ------- -- ---- --- --<br>------- ------,131330.80000001192,131329.5,130982.843,130993.30000001192,130999.558,131333.241,,3,the
screen,html.Screen,2_1_1_1_4,2022-02-18T15:09:31.101Z,,,,,,,,,,,,,,,,,54,,,,,,,,,,,,,,186.35900002383278,,response,,,,100,,,,,,,Space,keypress(Space),,,,,,,,-- --- ---- --- French ----- ------- ---- -- --- ------- --<br>------- ---------- ------ -- ----- -- ----- -- ---- ------<br>--- ----- --- --- ------ -------- ----- --- ------ ----- --<br>----- ----- ---------- --- --- ------ ------ ---- -- ------<br>------- --- ------ ----- --- ---- ------- -- ---- --- --<br>------- ------,131520.30000001192,131519.60000002384,131316.528,131331.10000002384,131333.241,131533.417,,4,French
screen,html.Screen,2_1_1_1_5,2022-02-18T15:09:31.390Z,,,,,,,,,,,,,,,,,54,,,,,,,,,,,,,,274.68300002385513,,response,,,,100,,,,,,,Space,keypress(Space),,,,,,,,-- --- ---- --- ------ crown ------- ---- -- --- ------- --<br>------- ---------- ------ -- ----- -- ----- -- ---- ------<br>--- ----- --- --- ------ -------- ----- --- ------ ----- --<br>----- ----- ---------- --- --- ------ ------ ---- -- ------<br>------- --- ------ ----- --- ---- ------- -- ---- --- --<br>------- ------,131809.19999998808,131808.10000002384,131516.759,131520.39999997616,131533.417,131817.071,,5,crown
screen,html.Screen,2_1_1_1_6,2022-02-18T15:09:31.693Z,,,,,,,,,,,,,,,,,54,,,,,,,,,,,,,,294.32899997616187,,response,,,,100,,,,,,,Space,keypress(Space),,,,,,,,-- --- ---- --- ------ ----- secured ---- -- --- ------- --<br>------- ---------- ------ -- ----- -- ----- -- ---- ------<br>--- ----- --- --- ------ -------- ----- --- ------ ----- --<br>----- ----- ---------- --- --- ------ ------ ---- -- ------<br>------- --- ------ ----- --- ---- ------- -- ---- --- --<br>------- ------,132112.19999998808,132111.39999997616,131800.369,131809.5,131817.071,132117.364,,6,secured
screen,html.Screen,2_1_1_1_7,2022-02-18T15:09:32.014Z,,,,,,,,,,,,,,,,,54,,,,,,,,,,,,,,314.6359999999986,,response,,,,100,,,,,,,Space,keypress(Space),,,,,,,,-- --- ---- --- ------ ----- ------- much -- --- ------- --<br>------- ---------- ------ -- ----- -- ----- -- ---- ------<br>--- ----- --- --- ------ -------- ----- --- ------ ----- --<br>----- ----- ---------- --- --- ------ ------ ---- -- ------<br>------- --- ------ ----- --- ---- ------- -- ---- --- --<br>------- ------,132433.10000002384,132432,132100.675,132112.19999998808,132117.364,132434.391,,7,much
screen,html.Screen,2_1_1_1_8,2022-02-18T15:09:32.438Z,,,,,,,,,,,,,,,,,54,,,,,,,,,,,,,,421.7090000238386,,response,,,,100,,,,,,,Space,keypress(Space),,,,,,,,-- --- ---- --- ------ ----- ------- ---- of --- ------- --<br>------- ---------- ------ -- ----- -- ----- -- ---- ------<br>--- ----- --- --- ------ -------- ----- --- ------ ----- --<br>----- ----- ---------- --- --- ------ ------ ---- -- ------<br>------- --- ------ ----- --- ---- ------- -- ---- --- --<br>------- ------,132857.19999998808,132856.10000002384,132417.657,132433.39999997616,132434.391,132868.176,,8,of
screen,html.Screen,2_1_1_1_9,2022-02-18T15:09:32.765Z,,,,,,,,,,,,,,,,,54,,,,,,,,,,,,,,315.4240000238351,,response,,,,100,,,,,,,Space,keypress(Space),,,,,,,,-- --- ---- --- ------ ----- ------- ---- -- its ------- --<br>------- ---------- ------ -- ----- -- ----- -- ---- ------<br>--- ----- --- --- ------ -------- ----- --- ------ ----- --<br>----- ----- ---------- --- --- ------ ------ ---- -- ------<br>------- --- ------ ----- --- ---- ------- -- ---- --- --<br>------- ------,133184.5,133183.60000002384,132851.475,132857.39999997616,132868.176,133201.859,,9,its
screen,html.Screen,2_1_1_1_10,2022-02-18T15:09:33.046Z,,,,,,,,,,,,,,,,,54,,,,,,,,,,,,,,262.14100000000326,,response,,,,100,,,,,,,Space,keypress(Space),,,,,,,,-- --- ---- --- ------ ----- ------- ---- -- --- revenue --<br>------- ---------- ------ -- ----- -- ----- -- ---- ------<br>--- ----- --- --- ------ -------- ----- --- ------ ----- --<br>----- ----- ---------- --- --- ------ ------ ---- -- ------<br>------- --- ------ ----- --- ---- ------- -- ---- --- --<br>------- ------,133465.19999998808,133464,133185.157,133184.60000002384,133201.859,133468.891,,10,revenue
screen,html.Screen,2_1_1_1_11,2022-02-18T15:09:33.413Z,,,,,,,,,,,,,,,,,54,,,,,,,,,,,,,,362.60899999999674,,response,,,,100,,,,,,,Space,keypress(Space),,,,,,,,-- --- ---- --- ------ ----- ------- ---- -- --- ------- by<br>------- ---------- ------ -- ----- -- ----- -- ---- ------<br>--- ----- --- --- ------ -------- ----- --- ------ ----- --<br>----- ----- ---------- --- --- ------ ------ ---- -- ------<br>------- --- ------ ----- --- ---- ------- -- ---- --- --<br>------- ------,133832,133831.5,133452.11,133465.5,133468.891,133835.807,,11,by
screen,html.Screen,2_1_1_1_12,2022-02-18T15:09:33.726Z,,,,,,,,,,,,,,,,,54,,,,,,,,,,,,,,308.1929999999993,,response,,,,100,,,,,,,Space,keypress(Space),,,,,,,,-- --- ---- --- ------ ----- ------- ---- -- --- ------- --<br>issuing ---------- ------ -- ----- -- ----- -- ---- ------<br>--- ----- --- --- ------ -------- ----- --- ------ ----- --<br>----- ----- ---------- --- --- ------ ------ ---- -- ------<br>------- --- ------ ----- --- ---- ------- -- ---- --- --<br>------- ------,134145.10000002384,134144,133819.174,133832.10000002384,133835.807,134152.859,,12,issuing
screen,html.Screen,2_1_1_1_13,2022-02-18T15:09:34.150Z,,,,,,,,,,,,,,,,,54,,,,,,,,,,,,,,415.14100000000326,,response,,,,100,,,,,,,Space,keypress(Space),,,,,,,,-- --- ---- --- ------ ----- ------- ---- -- --- ------- --<br>------- government ------ -- ----- -- ----- -- ---- ------<br>--- ----- --- --- ------ -------- ----- --- ------ ----- --<br>----- ----- ---------- --- --- ------ ------ ---- -- ------<br>------- --- ------ ----- --- ---- ------- -- ---- --- --<br>------- ------,134569.39999997616,134568,134136.147,134145.30000001192,134152.859,134586.674,,13,government
screen,html.Screen,2_1_1_1_14,2022-02-18T15:09:34.566Z,,,,,,,,,,,,,,,,,54,,,,,,,,,,,,,,397.32600000000093,,response,,,,100,,,,,,,Space,keypress(Space),,,,,,,,-- --- ---- --- ------ ----- ------- ---- -- --- ------- --<br>------- ---------- bonds. -- ----- -- ----- -- ---- ------<br>--- ----- --- --- ------ -------- ----- --- ------ ----- --<br>----- ----- ---------- --- --- ------ ------ ---- -- ------<br>------- --- ------ ----- --- ---- ------- -- ---- --- --<br>------- ------,134985.10000002384,134984,134569.946,134569.69999998808,134586.674,134987.086,,14,bonds.
screen,html.Screen,2_1_1_1_15,2022-02-18T15:09:35.109Z,,,,,,,,,,,,,,,,,54,,,,,,,,,,,,,,540.3139999761479,,response,,,,100,,,,,,,Space,keypress(Space),,,,,,,,-- --- ---- --- ------ ----- ------- ---- -- --- ------- --<br>------- ---------- ------ In ----- -- ----- -- ---- ------<br>--- ----- --- --- ------ -------- ----- --- ------ ----- --<br>----- ----- ---------- --- --- ------ ------ ---- -- ------<br>------- --- ------ ----- --- ---- ------- -- ---- --- --<br>------- ------,135527.80000001192,135527.39999997616,134970.389,134985.39999997616,134987.086,135537.604,,15,In
screen,html.Screen,2_1_1_1_16,2022-02-18T15:09:35.334Z,,,,,,,,,,,,,,,,,54,,,,,,,,,,,,,,214.49600002384977,,response,,,,100,,,,,,,Space,keypress(Space),,,,,,,,"-- --- ---- --- ------ ----- ------- ---- -- --- ------- --<br>------- ---------- ------ -- 1727, -- ----- -- ---- ------<br>--- ----- --- --- ------ -------- ----- --- ------ ----- --<br>----- ----- ---------- --- --- ------ ------ ---- -- ------<br>------- --- ------ ----- --- ---- ------- -- ---- --- --<br>------- ------",135753.30000001192,135752.10000002384,135520.919,135527.89999997616,135537.604,135754.561,,16,"1727,"
screen,html.Screen,2_1_1_1_17,2022-02-18T15:09:35.605Z,,,,,,,,,,,,,,,,,54,,,,,,,,,,,,,,268.73900001193397,,response,,,,100,,,,,,,Space,keypress(Space),,,,,,,,-- --- ---- --- ------ ----- ------- ---- -- --- ------- --<br>------- ---------- ------ -- ----- in ----- -- ---- ------<br>--- ----- --- --- ------ -------- ----- --- ------ ----- --<br>----- ----- ---------- --- --- ------ ------ ---- -- ------<br>------- --- ------ ----- --- ---- ------- -- ---- --- --<br>------- ------,136023.69999998808,136023.30000001192,135737.8,135753.5,135754.561,136038.15,,17,in
screen,html.Screen,2_1_1_1_18,2022-02-18T15:09:36.284Z,,,,,,,,,,,,,,,,,54,,,,,,,,,,,,,,665.0499999880849,,response,,,,100,,,,,,,Space,keypress(Space),,,,,,,,-- --- ---- --- ------ ----- ------- ---- -- --- ------- --<br>------- ---------- ------ -- ----- -- order -- ---- ------<br>--- ----- --- --- ------ -------- ----- --- ------ ----- --<br>----- ----- ---------- --- --- ------ ------ ---- -- ------<br>------- --- ------ ----- --- ---- ------- -- ---- --- --<br>------- ------,136703.69999998808,136703.19999998808,136021.503,136023.89999997616,136038.15,136705.521,,18,order
screen,html.Screen,2_1_1_1_19,2022-02-18T15:09:36.564Z,,,,,,,,,,,,,,,,,54,,,,,,,,,,,,,,277.67899998807115,,response,,,,100,,,,,,,Space,keypress(Space),,,,,,,,-- --- ---- --- ------ ----- ------- ---- -- --- ------- --<br>------- ---------- ------ -- ----- -- ----- to ---- ------<br>--- ----- --- --- ------ -------- ----- --- ------ ----- --<br>----- ----- ---------- --- --- ------ ------ ---- -- ------<br>------- --- ------ ----- --- ---- ------- -- ---- --- --<br>------- ------,136983.60000002384,136983.19999998808,136688.834,136703.80000001192,136705.521,136989.199,,19,to
screen,html.Screen,2_1_1_1_20,2022-02-18T15:09:36.814Z,,,,,,,,,,,,,,,,,54,,,,,,,,,,,,,,242.9010000238486,,response,,,,100,,,,,,,Space,keypress(Space),,,,,,,,-- --- ---- --- ------ ----- ------- ---- -- --- ------- --<br>------- ---------- ------ -- ----- -- ----- -- save ------<br>--- ----- --- --- ------ -------- ----- --- ------ ----- --<br>----- ----- ---------- --- --- ------ ------ ---- -- ------<br>------- --- ------ ----- --- ---- ------- -- ---- --- --<br>------- ------,137233.19999998808,137232.10000002384,136972.51,136983.69999998808,136989.199,137239.466,,20,save
screen,html.Screen,2_1_1_1_21,2022-02-18T15:09:37.093Z,,,,,,,,,,,,,,,,,54,,,,,,,,,,,,,,271.93399997617234,,response,,,,100,,,,,,,Space,keypress(Space),,,,,,,,"-- --- ---- --- ------ ----- ------- ---- -- --- ------- --<br>------- ---------- ------ -- ----- -- ----- -- ---- money,<br>--- ----- --- --- ------ -------- ----- --- ------ ----- --<br>----- ----- ---------- --- --- ------ ------ ---- -- ------<br>------- --- ------ ----- --- ---- ------- -- ---- --- --<br>------- ------",137512,137511.39999997616,137222.771,137233.5,137239.466,137523.067,,21,"money,"
screen,html.Screen,2_1_1_1_22,2022-02-18T15:09:37.550Z,,,,,,,,,,,,,,,,,54,,,,,,,,,,,,,,445.03300002383185,,response,,,,100,,,,,,,Space,keypress(Space),,,,,,,,-- --- ---- --- ------ ----- ------- ---- -- --- ------- --<br>------- ---------- ------ -- ----- -- ----- -- ---- ------<br>the ----- --- --- ------ -------- ----- --- ------ ----- --<br>----- ----- ---------- --- --- ------ ------ ---- -- ------<br>------- --- ------ ----- --- ---- ------- -- ---- --- --<br>------- ------,137969.30000001192,137968.10000002384,137506.362,137512.10000002384,137523.067,137973.558,,22,the
screen,html.Screen,2_1_1_1_23,2022-02-18T15:09:37.758Z,,,,,,,,,,,,,,,,,54,,,,,,,,,,,,,,202.44200000001,,response,,,,100,,,,,,,Space,keypress(Space),,,,,,,,-- --- ---- --- ------ ----- ------- ---- -- --- ------- --<br>------- ---------- ------ -- ----- -- ----- -- ---- ------<br>--- state --- --- ------ -------- ----- --- ------ ----- --<br>----- ----- ---------- --- --- ------ ------ ---- -- ------<br>------- --- ------ ----- --- ---- ------- -- ---- --- --<br>------- ------,138177.19999998808,138176,137956.877,137969.60000002384,137973.558,138190.418,,23,state
screen,html.Screen,2_1_1_1_24,2022-02-18T15:09:37.998Z,,,,,,,,,,,,,,,,,54,,,,,,,,,,,,,,225.58199999999488,,response,,,,100,,,,,,,Space,keypress(Space),,,,,,,,-- --- ---- --- ------ ----- ------- ---- -- --- ------- --<br>------- ---------- ------ -- ----- -- ----- -- ---- ------<br>--- ----- cut --- ------ -------- ----- --- ------ ----- --<br>----- ----- ---------- --- --- ------ ------ ---- -- ------<br>------- --- ------ ----- --- ---- ------- -- ---- --- --<br>------- ------,138417.19999998808,138416,138173.753,138177.5,138190.418,138424.046,,24,cut
screen,html.Screen,2_1_1_1_25,2022-02-18T15:09:38.478Z,,,,,,,,,,,,,,,,,54,,,,,,,,,,,,,,472.35399997615605,,response,,,,100,,,,,,,Space,keypress(Space),,,,,,,,-- --- ---- --- ------ ----- ------- ---- -- --- ------- --<br>------- ---------- ------ -- ----- -- ----- -- ---- ------<br>--- ----- --- the ------ -------- ----- --- ------ ----- --<br>----- ----- ---------- --- --- ------ ------ ---- -- ------<br>------- --- ------ ----- --- ---- ------- -- ---- --- --<br>------- ------,138897.69999998808,138896.39999997616,138407.302,138417.5,138424.046,138907.877,,25,the
screen,html.Screen,2_1_1_1_26,2022-02-18T15:09:38.894Z,,,,,,,,,,,,,,,,,54,,,,,,,,,,,,,,404.1229999999923,,response,,,,100,,,,,,,Space,keypress(Space),,,,,,,,-- --- ---- --- ------ ----- ------- ---- -- --- ------- --<br>------- ---------- ------ -- ----- -- ----- -- ---- ------<br>--- ----- --- --- bonds' -------- ----- --- ------ ----- --<br>----- ----- ---------- --- --- ------ ------ ---- -- ------<br>------- --- ------ ----- --- ---- ------- -- ---- --- --<br>------- ------,139313.19999998808,139312,138891.179,138897.89999997616,138907.877,139324.997,,26,bonds'
screen,html.Screen,2_1_1_1_27,2022-02-18T15:09:39.286Z,,,,,,,,,,,,,,,,,54,,,,,,,,,,,,,,379.10300002383883,,response,,,,100,,,,,,,Space,keypress(Space),,,,,,,,-- --- ---- --- ------ ----- ------- ---- -- --- ------- --<br>------- ---------- ------ -- ----- -- ----- -- ---- ------<br>--- ----- --- --- ------ interest ----- --- ------ ----- --<br>----- ----- ---------- --- --- ------ ------ ---- -- ------<br>------- --- ------ ----- --- ---- ------- -- ---- --- --<br>------- ------,139705.19999998808,139704.10000002384,139308.277,139313.5,139324.997,139708.732,,27,interest
screen,html.Screen,2_1_1_1_28,2022-02-18T15:09:39.614Z,,,,,,,,,,,,,,,,,54,,,,,,,,,,,,,,323.26800000001094,,response,,,,100,,,,,,,Space,keypress(Space),,,,,,,,-- --- ---- --- ------ ----- ------- ---- -- --- ------- --<br>------- ---------- ------ -- ----- -- ----- -- ---- ------<br>--- ----- --- --- ------ -------- rate. --- ------ ----- --<br>----- ----- ---------- --- --- ------ ------ ---- -- ------<br>------- --- ------ ----- --- ---- ------- -- ---- --- --<br>------- ------,140033.19999998808,140032,139692.031,139705.5,139708.732,140042.409,,28,rate.
screen,html.Screen,2_1_1_1_29,2022-02-18T15:09:40.072Z,,,,,,,,,,,,,,,,,54,,,,,,,,,,,,,,446.99099997614394,,response,,,,100,,,,,,,Space,keypress(Space),,,,,,,,-- --- ---- --- ------ ----- ------- ---- -- --- ------- --<br>------- ---------- ------ -- ----- -- ----- -- ---- ------<br>--- ----- --- --- ------ -------- ----- The ------ ----- --<br>----- ----- ---------- --- --- ------ ------ ---- -- ------<br>------- --- ------ ----- --- ---- ------- -- ---- --- --<br>------- ------,140490.80000001192,140489.39999997616,140025.7,140033.5,140042.409,140492.919,,29,The
screen,html.Screen,2_1_1_1_30,2022-02-18T15:09:40.350Z,,,,,,,,,,,,,,,,,54,,,,,,,,,,,,,,275.18100002384745,,response,,,,100,,,,,,,Space,keypress(Space),,,,,,,,-- --- ---- --- ------ ----- ------- ---- -- --- ------- --<br>------- ---------- ------ -- ----- -- ----- -- ---- ------<br>--- ----- --- --- ------ -------- ----- --- market ----- --<br>----- ----- ---------- --- --- ------ ------ ---- -- ------<br>------- --- ------ ----- --- ---- ------- -- ---- --- --<br>------- ------,140769.5,140768.10000002384,140476.178,140491,140492.919,140776.613,,30,market
screen,html.Screen,2_1_1_1_31,2022-02-18T15:09:40.694Z,,,,,,,,,,,,,,,,,54,,,,,,,,,,,,,,335.3869999999879,,response,,,,100,,,,,,,Space,keypress(Space),,,,,,,,-- --- ---- --- ------ ----- ------- ---- -- --- ------- --<br>------- ---------- ------ -- ----- -- ----- -- ---- ------<br>--- ----- --- --- ------ -------- ----- --- ------ value --<br>----- ----- ---------- --- --- ------ ------ ---- -- ------<br>------- --- ------ ----- --- ---- ------- -- ---- --- --<br>------- ------,141113.30000001192,141112,140759.809,140769.69999998808,140776.613,141126.905,,31,value
screen,html.Screen,2_1_1_1_32,2022-02-18T15:09:40.990Z,,,,,,,,,,,,,,,,,54,,,,,,,,,,,,,,281.195000023843,,response,,,,100,,,,,,,Space,keypress(Space),,,,,,,,-- --- ---- --- ------ ----- ------- ---- -- --- ------- --<br>------- ---------- ------ -- ----- -- ----- -- ---- ------<br>--- ----- --- --- ------ -------- ----- --- ------ ----- of<br>----- ----- ---------- --- --- ------ ------ ---- -- ------<br>------- --- ------ ----- --- ---- ------- -- ---- --- --<br>------- ------,141409.39999997616,141408.10000002384,141110.21,141113.60000002384,141126.905,141410.519,,32,of
screen,html.Screen,2_1_1_1_33,2022-02-18T15:09:41.278Z,,,,,,,,,,,,,,,,,54,,,,,,,,,,,,,,285.48099999999977,,response,,,,100,,,,,,,Space,keypress(Space),,,,,,,,-- --- ---- --- ------ ----- ------- ---- -- --- ------- --<br>------- ---------- ------ -- ----- -- ----- -- ---- ------<br>--- ----- --- --- ------ -------- ----- --- ------ ----- --<br>these ----- ---------- --- --- ------ ------ ---- -- ------<br>------- --- ------ ----- --- ---- ------- -- ---- --- --<br>------- ------,141697.19999998808,141696,141393.812,141409.60000002384,141410.519,141710.851,,33,these
screen,html.Screen,2_1_1_1_34,2022-02-18T15:09:41.542Z,,,,,,,,,,,,,,,,,54,,,,,,,,,,,,,,249.1490000000049,,response,,,,100,,,,,,,Space,keypress(Space),,,,,,,,-- --- ---- --- ------ ----- ------- ---- -- --- ------- --<br>------- ---------- ------ -- ----- -- ----- -- ---- ------<br>--- ----- --- --- ------ -------- ----- --- ------ ----- --<br>----- bonds ---------- --- --- ------ ------ ---- -- ------<br>------- --- ------ ----- --- ---- ------- -- ---- --- --<br>------- ------,141961.30000001192,141960,141694.144,141697.39999997616,141710.851,141977.792,,34,bonds
screen,html.Screen,2_1_1_1_35,2022-02-18T15:09:41.829Z,,,,,,,,,,,,,,,,,54,,,,,,,,,,,,,,269.5080000119342,,response,,,,100,,,,,,,Space,keypress(Space),,,,,,,,"-- --- ---- --- ------ ----- ------- ---- -- --- ------- --<br>------- ---------- ------ -- ----- -- ----- -- ---- ------<br>--- ----- --- --- ------ -------- ----- --- ------ ----- --<br>----- ----- plummeted, --- --- ------ ------ ---- -- ------<br>------- --- ------ ----- --- ---- ------- -- ---- --- --<br>------- ------",142247.80000001192,142247.30000001192,141961.084,141961.60000002384,141977.792,142261.369,,35,"plummeted,"
screen,html.Screen,2_1_1_1_36,2022-02-18T15:09:42.166Z,,,,,,,,,,,,,,,,,54,,,,,,,,,,,,,,322.63099999999395,,response,,,,100,,,,,,,Space,keypress(Space),,,,,,,,-- --- ---- --- ------ ----- ------- ---- -- --- ------- --<br>------- ---------- ------ -- ----- -- ----- -- ---- ------<br>--- ----- --- --- ------ -------- ----- --- ------ ----- --<br>----- ----- ---------- and --- ------ ------ ---- -- ------<br>------- --- ------ ----- --- ---- ------- -- ---- --- --<br>------- ------,142585.30000001192,142584,142244.699,142247.89999997616,142261.369,142595.096,,36,and
screen,html.Screen,2_1_1_1_37,2022-02-18T15:09:42.678Z,,,,,,,,,,,,,,,,,54,,,,,,,,,,,,,,500.90400000000955,,response,,,,100,,,,,,,Space,keypress(Space),,,,,,,,-- --- ---- --- ------ ----- ------- ---- -- --- ------- --<br>------- ---------- ------ -- ----- -- ----- -- ---- ------<br>--- ----- --- --- ------ -------- ----- --- ------ ----- --<br>----- ----- ---------- --- the ------ ------ ---- -- ------<br>------- --- ------ ----- --- ---- ------- -- ---- --- --<br>------- ------,143097.10000002384,143096,142578.362,142585.5,142595.096,143112.319,,37,the
screen,html.Screen,2_1_1_1_38,2022-02-18T15:09:42.942Z,,,,,,,,,,,,,,,,,54,,,,,,,,,,,,,,247.6810000000114,,response,,,,100,,,,,,,Space,keypress(Space),,,,,,,,-- --- ---- --- ------ ----- ------- ---- -- --- ------- --<br>------- ---------- ------ -- ----- -- ----- -- ---- ------<br>--- ----- --- --- ------ -------- ----- --- ------ ----- --<br>----- ----- ---------- --- --- market ------ ---- -- ------<br>------- --- ------ ----- --- ---- ------- -- ---- --- --<br>------- ------,143361.19999998808,143360,143095.598,143097.39999997616,143112.319,143362.577,,38,market
screen,html.Screen,2_1_1_1_39,2022-02-18T15:09:43.206Z,,,,,,,,,,,,,,,,,54,,,,,,,,,,,,,,261.4230000000098,,response,,,,100,,,,,,,Space,keypress(Space),,,,,,,,-- --- ---- --- ------ ----- ------- ---- -- --- ------- --<br>------- ---------- ------ -- ----- -- ----- -- ---- ------<br>--- ----- --- --- ------ -------- ----- --- ------ ----- --<br>----- ----- ---------- --- --- ------ became ---- -- ------<br>------- --- ------ ----- --- ---- ------- -- ---- --- --<br>------- ------,143625.19999998808,143624,143345.895,143361.39999997616,143362.577,143629.532,,39,became
screen,html.Screen,2_1_1_1_40,2022-02-18T15:09:43.477Z,,,,,,,,,,,,,,,,,54,,,,,,,,,,,,,,266.06800002383534,,response,,,,100,,,,,,,Space,keypress(Space),,,,,,,,-- --- ---- --- ------ ----- ------- ---- -- --- ------- --<br>------- ---------- ------ -- ----- -- ----- -- ---- ------<br>--- ----- --- --- ------ -------- ----- --- ------ ----- --<br>----- ----- ---------- --- --- ------ ------ wary -- ------<br>------- --- ------ ----- --- ---- ------- -- ---- --- --<br>------- ------,143896.5,143895.60000002384,143612.799,143625.39999997616,143629.532,143913.155,,40,wary
screen,html.Screen,2_1_1_1_41,2022-02-18T15:09:43.801Z,,,,,,,,,,,,,,,,,54,,,,,,,,,,,,,,302.84500000000116,,response,,,,100,,,,,,,Space,keypress(Space),,,,,,,,-- --- ---- --- ------ ----- ------- ---- -- --- ------- --<br>------- ---------- ------ -- ----- -- ----- -- ---- ------<br>--- ----- --- --- ------ -------- ----- --- ------ ----- --<br>----- ----- ---------- --- --- ------ ------ ---- of ------<br>------- --- ------ ----- --- ---- ------- -- ---- --- --<br>------- ------,144220.19999998808,144216,143896.466,143896.69999998808,143913.155,144230.158,,41,of
screen,html.Screen,2_1_1_1_42,2022-02-18T15:09:44.070Z,,,,,,,,,,,,,,,,,54,,,,,,,,,,,,,,257.94200002384605,,response,,,,100,,,,,,,Space,keypress(Space),,,,,,,,-- --- ---- --- ------ ----- ------- ---- -- --- ------- --<br>------- ---------- ------ -- ----- -- ----- -- ---- ------<br>--- ----- --- --- ------ -------- ----- --- ------ ----- --<br>----- ----- ---------- --- --- ------ ------ ---- -- French<br>------- --- ------ ----- --- ---- ------- -- ---- --- --<br>------- ------,144489.39999997616,144488.10000002384,144213.401,144220.5,144230.158,144497.095,,42,French
screen,html.Screen,2_1_1_1_43,2022-02-18T15:09:44.358Z,,,,,,,,,,,,,,,,,54,,,,,,,,,,,,,,278.90499999999884,,response,,,,100,,,,,,,Space,keypress(Space),,,,,,,,-- --- ---- --- ------ ----- ------- ---- -- --- ------- --<br>------- ---------- ------ -- ----- -- ----- -- ---- ------<br>--- ----- --- --- ------ -------- ----- --- ------ ----- --<br>----- ----- ---------- --- --- ------ ------ ---- -- ------<br>credit. --- ------ ----- --- ---- ------- -- ---- --- --<br>------- ------,144777.19999998808,144776,144480.405,144489.60000002384,144497.095,144780.749,,43,credit.
screen,html.Screen,2_1_1_1_44,2022-02-18T15:09:44.886Z,,,,,,,,,,,,,,,,,54,,,,,,,,,,,,,,523.3510000238311,,response,,,,100,,,,,,,Space,keypress(Space),,,,,,,,-- --- ---- --- ------ ----- ------- ---- -- --- ------- --<br>------- ---------- ------ -- ----- -- ----- -- ---- ------<br>--- ----- --- --- ------ -------- ----- --- ------ ----- --<br>----- ----- ---------- --- --- ------ ------ ---- -- ------<br>------- The ------ ----- --- ---- ------- -- ---- --- --<br>------- ------,145305.19999998808,145304.10000002384,144764.031,144777.5,144780.749,145314.628,,44,The
screen,html.Screen,2_1_1_1_45,2022-02-18T15:09:45.125Z,,,,,,,,,,,,,,,,,54,,,,,,,,,,,,,,228.87200000000303,,response,,,,100,,,,,,,Space,keypress(Space),,,,,,,,-- --- ---- --- ------ ----- ------- ---- -- --- ------- --<br>------- ---------- ------ -- ----- -- ----- -- ---- ------<br>--- ----- --- --- ------ -------- ----- --- ------ ----- --<br>----- ----- ---------- --- --- ------ ------ ---- -- ------<br>------- --- French ----- --- ---- ------- -- ---- --- --<br>------- ------,145544,145543.5,145297.918,145305.39999997616,145314.628,145548.148,,45,French
screen,html.Screen,2_1_1_1_46,2022-02-18T15:09:45.374Z,,,,,,,,,,,,,,,,,54,,,,,,,,,,,,,,243.95200002385536,,response,,,,100,,,,,,,Space,keypress(Space),,,,,,,,-- --- ---- --- ------ ----- ------- ---- -- --- ------- --<br>------- ---------- ------ -- ----- -- ----- -- ---- ------<br>--- ----- --- --- ------ -------- ----- --- ------ ----- --<br>----- ----- ---------- --- --- ------ ------ ---- -- ------<br>------- --- ------ state --- ---- ------- -- ---- --- --<br>------- ------,145793.30000001192,145792.10000002384,145531.474,145544.10000002384,145548.148,145798.481,,46,state
screen,html.Screen,2_1_1_1_47,2022-02-18T15:09:45.582Z,,,,,,,,,,,,,,,,,54,,,,,,,,,,,,,,201.51900000000023,,response,,,,100,,,,,,,Space,keypress(Space),,,,,,,,-- --- ---- --- ------ ----- ------- ---- -- --- ------- --<br>------- ---------- ------ -- ----- -- ----- -- ---- ------<br>--- ----- --- --- ------ -------- ----- --- ------ ----- --<br>----- ----- ---------- --- --- ------ ------ ---- -- ------<br>------- --- ------ ----- was ---- ------- -- ---- --- --<br>------- ------,146001.19999998808,146000,145781.74,145793.60000002384,145798.481,146015.39,,47,was
screen,html.Screen,2_1_1_1_48,2022-02-18T15:09:45.862Z,,,,,,,,,,,,,,,,,54,,,,,,,,,,,,,,264.60999999998603,,response,,,,100,,,,,,,Space,keypress(Space),,,,,,,,-- --- ---- --- ------ ----- ------- ---- -- --- ------- --<br>------- ---------- ------ -- ----- -- ----- -- ---- ------<br>--- ----- --- --- ------ -------- ----- --- ------ ----- --<br>----- ----- ---------- --- --- ------ ------ ---- -- ------<br>------- --- ------ ----- --- left ------- -- ---- --- --<br>------- ------,146281.10000002384,146280,145998.678,146001.60000002384,146015.39,146282.328,,48,left
screen,html.Screen,2_1_1_1_49,2022-02-18T15:09:46.126Z,,,,,,,,,,,,,,,,,54,,,,,,,,,,,,,,261.6719999999914,,response,,,,100,,,,,,,Space,keypress(Space),,,,,,,,-- --- ---- --- ------ ----- ------- ---- -- --- ------- --<br>------- ---------- ------ -- ----- -- ----- -- ---- ------<br>--- ----- --- --- ------ -------- ----- --- ------ ----- --<br>----- ----- ---------- --- --- ------ ------ ---- -- ------<br>------- --- ------ ----- --- ---- without -- ---- --- --<br>------- ------,146545.30000001192,146544,146265.613,146281.30000001192,146282.328,146549.271,,49,without
screen,html.Screen,2_1_1_1_50,2022-02-18T15:09:46.382Z,,,,,,,,,,,,,,,,,54,,,,,,,,,,,,,,250.82900002383394,,response,,,,100,,,,,,,Space,keypress(Space),,,,,,,,-- --- ---- --- ------ ----- ------- ---- -- --- ------- --<br>------- ---------- ------ -- ----- -- ----- -- ---- ------<br>--- ----- --- --- ------ -------- ----- --- ------ ----- --<br>----- ----- ---------- --- --- ------ ------ ---- -- ------<br>------- --- ------ ----- --- ---- ------- an ---- --- --<br>------- ------,146801.30000001192,146800.10000002384,146532.574,146545.60000002384,146549.271,146816.235,,50,an
screen,html.Screen,2_1_1_1_51,2022-02-18T15:09:46.654Z,,,,,,,,,,,,,,,,,54,,,,,,,,,,,,,,255.76500000001397,,response,,,,100,,,,,,,Space,keypress(Space),,,,,,,,-- --- ---- --- ------ ----- ------- ---- -- --- ------- --<br>------- ---------- ------ -- ----- -- ----- -- ---- ------<br>--- ----- --- --- ------ -------- ----- --- ------ ----- --<br>----- ----- ---------- --- --- ------ ------ ---- -- ------<br>------- --- ------ ----- --- ---- ------- -- easy --- --<br>------- ------,147073.10000002384,147072,146799.524,146801.5,146816.235,147083.154,,51,easy
screen,html.Screen,2_1_1_1_52,2022-02-18T15:09:46.927Z,,,,,,,,,,,,,,,,,54,,,,,,,,,,,,,,260.6460000119114,,response,,,,100,,,,,,,Space,keypress(Space),,,,,,,,-- --- ---- --- ------ ----- ------- ---- -- --- ------- --<br>------- ---------- ------ -- ----- -- ----- -- ---- ------<br>--- ----- --- --- ------ -------- ----- --- ------ ----- --<br>----- ----- ---------- --- --- ------ ------ ---- -- ------<br>------- --- ------ ----- --- ---- ------- -- ---- way --<br>------- ------,147346.30000001192,147343.80000001192,147066.477,147073.30000001192,147083.154,147350.091,,52,way
screen,html.Screen,2_1_1_1_53,2022-02-18T15:09:47.214Z,,,,,,,,,,,,,,,,,54,,,,,,,,,,,,,,281.9090000000142,,response,,,,100,,,,,,,Space,keypress(Space),,,,,,,,-- --- ---- --- ------ ----- ------- ---- -- --- ------- --<br>------- ---------- ------ -- ----- -- ----- -- ---- ------<br>--- ----- --- --- ------ -------- ----- --- ------ ----- --<br>----- ----- ---------- --- --- ------ ------ ---- -- ------<br>------- --- ------ ----- --- ---- ------- -- ---- --- of<br>------- ------,147633.30000001192,147632,147333.412,147346.60000002384,147350.091,147650.442,,53,of
screen,html.Screen,2_1_1_1_54,2022-02-18T15:09:47.524Z,,,,,,,,,,,,,,,,,54,,,,,,,,,,,,,,292.75799998806906,,response,,,,100,,,,,,,Space,keypress(Space),,,,,,,,-- --- ---- --- ------ ----- ------- ---- -- --- ------- --<br>------- ---------- ------ -- ----- -- ----- -- ---- ------<br>--- ----- --- --- ------ -------- ----- --- ------ ----- --<br>----- ----- ---------- --- --- ------ ------ ---- -- ------<br>------- --- ------ ----- --- ---- ------- -- ---- --- --<br>raising ------,147943.69999998808,147943.19999998808,147633.729,147633.60000002384,147650.442,147950.679,,54,raising
screen,html.Screen,2_1_1_1_55,2022-02-18T15:09:47.949Z,,,,,,,,,,,,,,,,,54,,,,,,,,,,,,,,416.92100002383813,,response,,,,100,,,,,,,Space,keypress(Space),,,,,,,,-- --- ---- --- ------ ----- ------- ---- -- --- ------- --<br>------- ---------- ------ -- ----- -- ----- -- ---- ------<br>--- ----- --- --- ------ -------- ----- --- ------ ----- --<br>----- ----- ---------- --- --- ------ ------ ---- -- ------<br>------- --- ------ ----- --- ---- ------- -- ---- --- --<br>------- money.,148368.39999997616,148367.60000002384,147934.036,147943.69999998808,147950.679,148384.496,,55,money.
Item 100,flow.Loop,2_1_1_1,2022-02-18T15:09:47.950Z,,,,,,,,,,,,,,,,,,,,,,,,,,,,,,,19003.100000023842,,completion,,,,,A,,,,,,,,,,,silence,,,,,148368.80000001192,148367.60000002384,129347.793,129349,129364.5,148384.496,,,
Question 1,html.Screen,2_1_1_2,2022-02-18T15:09:50.272Z,,,,,,,,,,,,,,,,,,,,,,,,,,,,true,TRUE,,2305.7039999880653,,response,,,,100,A,,,,,,TRUE,click #choice-1,,,,silence,,,,,150690.80000001192,150690.19999998808,148367.826,148368.89999997616,148384.496,150703.601,,,
Question 2,html.Screen,2_1_1_3,2022-02-18T15:09:51.858Z,,,,,,,,,,,,,,,,,,,,,,,,,,,,true,FALSE,,1572.598999988084,,response,,,,100,A,,,,,,FALSE,click #choice-2,,,,silence,,,,,152276.80000001192,152276.19999998808,150686.947,150690.80000001192,150703.601,152288.58,,,
Item 100,flow.Sequence,2_1_1,2022-02-18T15:09:51.858Z,,,,,,,,,,,,,,,,,,,,,,,,,,,,,,,32905.62099998808,,completion,,,,,,,,,,,,,,,,,,,,,152277,152276.19999998808,119353.905,119358,119370.579,152288.58,,,
End of Practice,html.Page,2_1_2,2022-02-18T15:09:56.306Z,,,,,,,,,,,,,,,,,,,,,,,,,,,,,,,4436.319999976171,,form submission,,,,,,,,,,,,,,,,,,,,,156725.19999998808,156724.89999997616,152271.959,152277,152288.58,156726.612,,,
Practice,flow.Sequence,2_1,2022-02-18T15:09:56.306Z,,,,,,,,,,,,,,,,,,,,,,,,,,,,,,,71623.79699997616,,completion,,,,,,,,,,,,,,,,,,,,,156725.30000001192,156724.89999997616,85084.471,85100.30000001192,85101.103,156726.612,,,
Trap_instruction,html.Page,2_2_0,2022-02-18T15:09:59.782Z,,,,,,,,,,,,,,,,,,,,,,,,,,,,,,,3474.488000023848,,form submission,,,,,,,,,,,,,,,,,,,,,160201.30000001192,160201.10000002384,156709.97,156725.39999997616,156726.612,160213.612,,,
trap_trial,html.Screen,2_2_1,2022-02-18T15:10:02.176Z,,,,,,,,,,,,,,,,,,,,,,,,,,,,true,1,,2380.688000011927,,response,,,,,,,,,,,1,click #choice-1,,,,,,,,,162594.89999997616,162594.30000001192,160197.056,160201.39999997616,160213.612,162599.465,,,
end of trap trial,html.Page,2_2_2,2022-02-18T15:10:03.550Z,,,,,,,,,,,,,,,,,,,,,,,,,,,,,,,1369.6350000238454,,form submission,,,,,,,,,,,,,,,,,,,,,163969.30000001192,163969.10000002384,162582.835,162594.89999997616,162599.465,163984.269,,,
Trap 1,flow.Sequence,2_2,2022-02-18T15:10:03.550Z,,,,,,,,,,,,,,,,,,,,,,,,,,,,,,,7242.488000023848,,completion,,,,,,,,,,,,,,,,,,,,,163969.5,163969.10000002384,156709.97,156725.39999997616,156726.612,163984.269,,,
Standby,html.Page,2_3_0,2022-02-18T15:10:11.540Z,,,,,,,,,,,,,,,,,,,,,,,,,,,,,,,7991.820000000007,,timeout,,,,,,,,,,,,,,,,,,,,,171960.30000001192,171959.384,163967.596,163969.60000002384,163984.269,171976.089,,,
Holding screen,html.Screen,2_3_1_0_0,2022-02-18T15:10:18.547Z,,,,,,,,,,,,,,,,,,,,,,,,,,,,,,,7007.383000000002,,timeout,,,,,,,,,,,,,,,,,,,,,178967.5,178966.771,171959.384,171960.80000001192,171976.089,178983.472,,,
screen,html.Screen,2_3_1_0_1_0,2022-02-18T15:10:19.799Z,,,,,,,,,,,,,,,,,15,,,,,,,,,,,,,,1233.828000011912,,response,,,,7,A,,,,,,Space,keypress(Space),,,,silence,,,,Greg --------- ---------- - --- ------- -- --- ------------<br>----- -- -------- ------- ---- ------ - -------- ---- -----<br>--- ------- ---- -- --- -------- --- - ----- ------ ---- --<br>-------- --- -------- -------- --- -------- ---- -- ----- -<br>-------- ---- --- ---------- --------- -- ------- ------ -<br>--------- ----- -----,180219.10000002384,180217.30000001192,178966.771,178967.89999997616,178983.472,180218.095,,0,Greg
screen,html.Screen,2_3_1_0_1_1,2022-02-18T15:10:20.652Z,,,,,,,,,,,,,,,,,15,,,,,,,,,,,,,,853.2050000119198,,response,,,,7,A,,,,,,Space,keypress(Space),,,,silence,,,,"---- Anderson, ---------- - --- ------- -- --- ------------<br>----- -- -------- ------- ---- ------ - -------- ---- -----<br>--- ------- ---- -- --- -------- --- - ----- ------ ---- --<br>-------- --- -------- -------- --- -------- ---- -- ----- -<br>-------- ---- --- ---------- --------- -- ------- ------ -<br>--------- ----- -----",181071.69999998808,181071.30000001192,180201.398,180219.5,180218.095,181085.64,,1,"Anderson,"
screen,html.Screen,2_3_1_0_1_2,2022-02-18T15:10:20.973Z,,,,,,,,,,,,,,,,,15,,,,,,,,,,,,,,306.4600000238279,,response,,,,7,A,,,,,,Space,keypress(Space),,,,silence,,,,---- --------- considered - --- ------- -- --- ------------<br>----- -- -------- ------- ---- ------ - -------- ---- -----<br>--- ------- ---- -- --- -------- --- - ----- ------ ---- --<br>-------- --- -------- -------- --- -------- ---- -- ----- -<br>-------- ---- --- ---------- --------- -- ------- ------ -<br>--------- ----- -----,181393.19999998808,181392.10000002384,181068.955,181071.80000001192,181085.64,181402.67,,2,considered
screen,html.Screen,2_3_1_0_1_3,2022-02-18T15:10:21.253Z,,,,,,,,,,,,,,,,,15,,,,,,,,,,,,,,269.3299999999872,,response,,,,7,A,,,,,,Space,keypress(Space),,,,silence,,,,---- --------- ---------- a --- ------- -- --- ------------<br>----- -- -------- ------- ---- ------ - -------- ---- -----<br>--- ------- ---- -- --- -------- --- - ----- ------ ---- --<br>-------- --- -------- -------- --- -------- ---- -- ----- -<br>-------- ---- --- ---------- --------- -- ------- ------ -<br>--------- ----- -----,181673.10000002384,181672,181385.984,181393.39999997616,181402.67,181686.32,,3,a
screen,html.Screen,2_3_1_0_1_4,2022-02-18T15:10:21.509Z,,,,,,,,,,,,,,,,,15,,,,,,,,,,,,,,241.78000002383487,,response,,,,7,A,,,,,,Space,keypress(Space),,,,silence,,,,---- --------- ---------- - key ------- -- --- ------------<br>----- -- -------- ------- ---- ------ - -------- ---- -----<br>--- ------- ---- -- --- -------- --- - ----- ------ ---- --<br>-------- --- -------- -------- --- -------- ---- -- ----- -<br>-------- ---- --- ---------- --------- -- ------- ------ -<br>--------- ----- -----,181929.30000001192,181928.10000002384,181669.6,181673.39999997616,181686.32,181936.535,,4,key
screen,html.Screen,2_3_1_0_1_5,2022-02-18T15:10:21.741Z,,,,,,,,,,,,,,,,,15,,,,,,,,,,,,,,223.4649999999965,,response,,,,7,A,,,,,,Space,keypress(Space),,,,silence,,,,---- --------- ---------- - --- witness -- --- ------------<br>----- -- -------- ------- ---- ------ - -------- ---- -----<br>--- ------- ---- -- --- -------- --- - ----- ------ ---- --<br>-------- --- -------- -------- --- -------- ---- -- ----- -<br>-------- ---- --- ---------- --------- -- ------- ------ -<br>--------- ----- -----,182161.10000002384,182160,181919.873,181929.60000002384,181936.535,182170.145,,5,witness
screen,html.Screen,2_3_1_0_1_6,2022-02-18T15:10:22.013Z,,,,,,,,,,,,,,,,,15,,,,,,,,,,,,,,261.95500002385234,,response,,,,7,A,,,,,,Space,keypress(Space),,,,silence,,,,---- --------- ---------- - --- ------- by --- ------------<br>----- -- -------- ------- ---- ------ - -------- ---- -----<br>--- ------- ---- -- --- -------- --- - ----- ------ ---- --<br>-------- --- -------- -------- --- -------- ---- -- ----- -<br>-------- ---- --- ---------- --------- -- ------- ------ -<br>--------- ----- -----,182433.19999998808,182432.10000002384,182153.448,182161.39999997616,182170.145,182437.11,,6,by
screen,html.Screen,2_3_1_0_1_7,2022-02-18T15:10:22.308Z,,,,,,,,,,,,,,,,,15,,,,,,,,,,,,,,290.2899999761721,,response,,,,7,A,,,,,,Space,keypress(Space),,,,silence,,,,---- --------- ---------- - --- ------- -- the ------------<br>----- -- -------- ------- ---- ------ - -------- ---- -----<br>--- ------- ---- -- --- -------- --- - ----- ------ ---- --<br>-------- --- -------- -------- --- -------- ---- -- ----- -<br>-------- ---- --- ---------- --------- -- ------- ------ -<br>--------- ----- -----,182728.10000002384,182727.39999997616,182420.447,182433.5,182437.11,182737.37,,7,the
screen,html.Screen,2_3_1_0_1_8,2022-02-18T15:10:22.581Z,,,,,,,,,,,,,,,,,15,,,,,,,,,,,,,,262.7300000238465,,response,,,,7,A,,,,,,Space,keypress(Space),,,,silence,,,,"---- --------- ---------- - --- ------- -- --- prosecution,<br>----- -- -------- ------- ---- ------ - -------- ---- -----<br>--- ------- ---- -- --- -------- --- - ----- ------ ---- --<br>-------- --- -------- -------- --- -------- ---- -- ----- -<br>-------- ---- --- ---------- --------- -- ------- ------ -<br>--------- ----- -----",183001.19999998808,183000.10000002384,182720.71,182728.19999998808,182737.37,183004.364,,8,"prosecution,"
screen,html.Screen,2_3_1_0_1_9,2022-02-18T15:10:23.102Z,,,,,,,,,,,,,,,,,15,,,,,,,,,,,,,,516.0359999761567,,response,,,,7,A,,,,,,Space,keypress(Space),,,,silence,,,,---- --------- ---------- - --- ------- -- --- ------------<br>vowed -- -------- ------- ---- ------ - -------- ---- -----<br>--- ------- ---- -- --- -------- --- - ----- ------ ---- --<br>-------- --- -------- -------- --- -------- ---- -- ----- -<br>-------- ---- --- ---------- --------- -- ------- ------ -<br>--------- ----- -----,183521.80000001192,183520.39999997616,182987.645,183001.60000002384,183004.364,183538.275,,9,vowed
screen,html.Screen,2_3_1_0_1_10,2022-02-18T15:10:23.350Z,,,,,,,,,,,,,,,,,15,,,,,,,,,,,,,,229.82500002384768,,response,,,,7,A,,,,,,Space,keypress(Space),,,,silence,,,,---- --------- ---------- - --- ------- -- --- ------------<br>----- he -------- ------- ---- ------ - -------- ---- -----<br>--- ------- ---- -- --- -------- --- - ----- ------ ---- --<br>-------- --- -------- -------- --- -------- ---- -- ----- -<br>-------- ---- --- ---------- --------- -- ------- ------ -<br>--------- ----- -----,183769.69999998808,183768.10000002384,183521.571,183522.10000002384,183538.275,183771.853,,10,he
screen,html.Screen,2_3_1_0_1_11,2022-02-18T15:10:23.613Z,,,,,,,,,,,,,,,,,15,,,,,,,,,,,,,,260.1469999999972,,response,,,,7,A,,,,,,Space,keypress(Space),,,,silence,,,,---- --------- ---------- - --- ------- -- --- ------------<br>----- -- wouldn't ------- ---- ------ - -------- ---- -----<br>--- ------- ---- -- --- -------- --- - ----- ------ ---- --<br>-------- --- -------- -------- --- -------- ---- -- ----- -<br>-------- ---- --- ---------- --------- -- ------- ------ -<br>--------- ----- -----,184033.30000001192,184032,183755.131,183770,183771.853,184038.972,,11,wouldn't
screen,html.Screen,2_3_1_0_1_12,2022-02-18T15:10:23.940Z,,,,,,,,,,,,,,,,,15,,,,,,,,,,,,,,320.628000023833,,response,,,,7,A,,,,,,Space,keypress(Space),,,,silence,,,,---- --------- ---------- - --- ------- -- --- ------------<br>----- -- -------- testify ---- ------ - -------- ---- -----<br>--- ------- ---- -- --- -------- --- - ----- ------ ---- --<br>-------- --- -------- -------- --- -------- ---- -- ----- -<br>-------- ---- --- ---------- --------- -- ------- ------ -<br>--------- ----- -----,184360.30000001192,184359.60000002384,184022.052,184033.60000002384,184038.972,184389.161,,12,testify
screen,html.Screen,2_3_1_0_1_13,2022-02-18T15:10:24.214Z,,,,,,,,,,,,,,,,,15,,,,,,,,,,,,,,243.23899997616536,,response,,,,7,A,,,,,,Space,keypress(Space),,,,silence,,,,---- --------- ---------- - --- ------- -- --- ------------<br>----- -- -------- ------- when ------ - -------- ---- -----<br>--- ------- ---- -- --- -------- --- - ----- ------ ---- --<br>-------- --- -------- -------- --- -------- ---- -- ----- -<br>-------- ---- --- ---------- --------- -- ------- ------ -<br>--------- ----- -----,184633.60000002384,184632.39999997616,184372.447,184360.39999997616,184389.161,184639.415,,13,when
screen,html.Screen,2_3_1_0_1_14,2022-02-18T15:10:24.470Z,,,,,,,,,,,,,,,,,15,,,,,,,,,,,,,,248.88500001191278,,response,,,,7,A,,,,,,Space,keypress(Space),,,,silence,,,,---- --------- ---------- - --- ------- -- --- ------------<br>----- -- -------- ------- ---- served - -------- ---- -----<br>--- ------- ---- -- --- -------- --- - ----- ------ ---- --<br>-------- --- -------- -------- --- -------- ---- -- ----- -<br>-------- ---- --- ---------- --------- -- ------- ------ -<br>--------- ----- -----,184889.89999997616,184888.30000001192,184622.662,184633.89999997616,184639.415,184923.085,,14,served
screen,html.Screen,2_3_1_0_1_15,2022-02-18T15:10:24.757Z,,,,,,,,,,,,,,,,,15,,,,,,,,,,,,,,252.91500000000815,,response,,,,7,A,,,,,,Space,keypress(Space),,,,silence,,,,---- --------- ---------- - --- ------- -- --- ------------<br>----- -- -------- ------- ---- ------ a -------- ---- -----<br>--- ------- ---- -- --- -------- --- - ----- ------ ---- --<br>-------- --- -------- -------- --- -------- ---- -- ----- -<br>-------- ---- --- ---------- --------- -- ------- ------ -<br>--------- ----- -----,185177.10000002384,185176,184906.374,184890.30000001192,184923.085,185190.014,,15,a
screen,html.Screen,2_3_1_0_1_16,2022-02-18T15:10:25.029Z,,,,,,,,,,,,,,,,,15,,,,,,,,,,,,,,258.0860000238463,,response,,,,7,A,,,,,,Space,keypress(Space),,,,silence,,,,---- --------- ---------- - --- ------- -- --- ------------<br>----- -- -------- ------- ---- ------ - subpoena ---- -----<br>--- ------- ---- -- --- -------- --- - ----- ------ ---- --<br>-------- --- -------- -------- --- -------- ---- -- ----- -<br>-------- ---- --- ---------- --------- -- ------- ------ -<br>--------- ----- -----,185449.5,185448.10000002384,185173.303,185177.39999997616,185190.014,185456.932,,16,subpoena
screen,html.Screen,2_3_1_0_1_17,2022-02-18T15:10:25.381Z,,,,,,,,,,,,,,,,,15,,,,,,,,,,,,,,343.0679999999993,,response,,,,7,A,,,,,,Space,keypress(Space),,,,silence,,,,---- --------- ---------- - --- ------- -- --- ------------<br>----- -- -------- ------- ---- ------ - -------- last -----<br>--- ------- ---- -- --- -------- --- - ----- ------ ---- --<br>-------- --- -------- -------- --- -------- ---- -- ----- -<br>-------- ---- --- ---------- --------- -- ------- ------ -<br>--------- ----- -----,185801.19999998808,185800,185440.269,185449.69999998808,185456.932,185807.326,,17,last
screen,html.Screen,2_3_1_0_1_18,2022-02-18T15:10:25.708Z,,,,,,,,,,,,,,,,,15,,,,,,,,,,,,,,320.37399998807814,,response,,,,7,A,,,,,,Space,keypress(Space),,,,silence,,,,---- --------- ---------- - --- ------- -- --- ------------<br>----- -- -------- ------- ---- ------ - -------- ---- week.<br>--- ------- ---- -- --- -------- --- - ----- ------ ---- --<br>-------- --- -------- -------- --- -------- ---- -- ----- -<br>-------- ---- --- ---------- --------- -- ------- ------ -<br>--------- ----- -----,186128.5,186127.69999998808,185790.585,185801.39999997616,185807.326,186140.986,,18,week.
screen,html.Screen,2_3_1_0_1_19,2022-02-18T15:10:26.157Z,,,,,,,,,,,,,,,,,15,,,,,,,,,,,,,,435.11400002383743,,response,,,,7,A,,,,,,Space,keypress(Space),,,,silence,,,,---- --------- ---------- - --- ------- -- --- ------------<br>----- -- -------- ------- ---- ------ - -------- ---- -----<br>His ------- ---- -- --- -------- --- - ----- ------ ---- --<br>-------- --- -------- -------- --- -------- ---- -- ----- -<br>-------- ---- --- ---------- --------- -- ------- ------ -<br>--------- ----- -----,186577.39999997616,186576.10000002384,186124.306,186128.69999998808,186140.986,186591.495,,19,His
screen,html.Screen,2_3_1_0_1_20,2022-02-18T15:10:26.390Z,,,,,,,,,,,,,,,,,15,,,,,,,,,,,,,,216.60500002384651,,response,,,,7,A,,,,,,Space,keypress(Space),,,,silence,,,,---- --------- ---------- - --- ------- -- --- ------------<br>----- -- -------- ------- ---- ------ - -------- ---- -----<br>--- lawyers ---- -- --- -------- --- - ----- ------ ---- --<br>-------- --- -------- -------- --- -------- ---- -- ----- -<br>-------- ---- --- ---------- --------- -- ------- ------ -<br>--------- ----- -----,186809.60000002384,186808.10000002384,186574.784,186577.60000002384,186591.495,186825.072,,20,lawyers
screen,html.Screen,2_3_1_0_1_21,2022-02-18T15:10:26.621Z,,,,,,,,,,,,,,,,,15,,,,,,,,,,,,,,214.82799997617258,,response,,,,7,A,,,,,,Space,keypress(Space),,,,silence,,,,---- --------- ---------- - --- ------- -- --- ------------<br>----- -- -------- ------- ---- ------ - -------- ---- -----<br>--- ------- said -- --- -------- --- - ----- ------ ---- --<br>-------- --- -------- -------- --- -------- ---- -- ----- -<br>-------- ---- --- ---------- --------- -- ------- ------ -<br>--------- ----- -----,187041.10000002384,187039.89999997616,186808.353,186810,186825.072,187075.333,,21,said
screen,html.Screen,2_3_1_0_1_22,2022-02-18T15:10:26.869Z,,,,,,,,,,,,,,,,,15,,,,,,,,,,,,,,212.7670000238286,,response,,,,7,A,,,,,,Space,keypress(Space),,,,silence,,,,---- --------- ---------- - --- ------- -- --- ------------<br>----- -- -------- ------- ---- ------ - -------- ---- -----<br>--- ------- ---- he --- -------- --- - ----- ------ ---- --<br>-------- --- -------- -------- --- -------- ---- -- ----- -<br>-------- ---- --- ---------- --------- -- ------- ------ -<br>--------- ----- -----,187289.39999997616,187288.10000002384,187058.638,187041.39999997616,187075.333,187308.956,,22,he
screen,html.Screen,2_3_1_0_1_23,2022-02-18T15:10:27.101Z,,,,,,,,,,,,,,,,,15,,,,,,,,,,,,,,211.0439999999944,,response,,,,7,A,,,,,,Space,keypress(Space),,,,silence,,,,---- --------- ---------- - --- ------- -- --- ------------<br>----- -- -------- ------- ---- ------ - -------- ---- -----<br>--- ------- ---- -- was -------- --- - ----- ------ ---- --<br>-------- --- -------- -------- --- -------- ---- -- ----- -<br>-------- ---- --- ---------- --------- -- ------- ------ -<br>--------- ----- -----,187521.19999998808,187520,187292.198,187291.69999998808,187308.956,187542.494,,23,was
screen,html.Screen,2_3_1_0_1_24,2022-02-18T15:10:27.469Z,,,,,,,,,,,,,,,,,15,,,,,,,,,,,,,,345.6060000238358,,response,,,,7,A,,,,,,Space,keypress(Space),,,,silence,,,,---- --------- ---------- - --- ------- -- --- ------------<br>----- -- -------- ------- ---- ------ - -------- ---- -----<br>--- ------- ---- -- --- prepared --- - ----- ------ ---- --<br>-------- --- -------- -------- --- -------- ---- -- ----- -<br>-------- ---- --- ---------- --------- -- ------- ------ -<br>--------- ----- -----,187889.39999997616,187888.10000002384,187525.833,187521.39999997616,187542.494,187892.864,,24,prepared
screen,html.Screen,2_3_1_0_1_25,2022-02-18T15:10:28.069Z,,,,,,,,,,,,,,,,,15,,,,,,,,,,,,,,595.1359999999986,,response,,,,7,A,,,,,,Space,keypress(Space),,,,silence,,,,---- --------- ---------- - --- ------- -- --- ------------<br>----- -- -------- ------- ---- ------ - -------- ---- -----<br>--- ------- ---- -- --- -------- for - ----- ------ ---- --<br>-------- --- -------- -------- --- -------- ---- -- ----- -<br>-------- ---- --- ---------- --------- -- ------- ------ -<br>--------- ----- -----,188489.19999998808,188488,187876.123,187889.69999998808,187892.864,188493.478,,25,for
screen,html.Screen,2_3_1_0_1_26,2022-02-18T15:10:28.269Z,,,,,,,,,,,,,,,,,15,,,,,,,,,,,,,,194.5219999999972,,response,,,,7,A,,,,,,Space,keypress(Space),,,,silence,,,,---- --------- ---------- - --- ------- -- --- ------------<br>----- -- -------- ------- ---- ------ - -------- ---- -----<br>--- ------- ---- -- --- -------- --- a ----- ------ ---- --<br>-------- --- -------- -------- --- -------- ---- -- ----- -<br>-------- ---- --- ---------- --------- -- ------- ------ -<br>--------- ----- -----,188689.30000001192,188688,188476.771,188489.60000002384,188493.478,188693.701,,26,a
screen,html.Screen,2_3_1_0_1_27,2022-02-18T15:10:28.780Z,,,,,,,,,,,,,,,,,15,,,,,,,,,,,,,,504.6989999761572,,response,,,,7,A,,,,,,Space,keypress(Space),,,,silence,,,,---- --------- ---------- - --- ------- -- --- ------------<br>----- -- -------- ------- ---- ------ - -------- ---- -----<br>--- ------- ---- -- --- -------- --- - third ------ ---- --<br>-------- --- -------- -------- --- -------- ---- -- ----- -<br>-------- ---- --- ---------- --------- -- ------- ------ -<br>--------- ----- -----,189199.80000001192,189198.39999997616,188677.013,188689.60000002384,188693.701,189210.997,,27,third
screen,html.Screen,2_3_1_0_1_28,2022-02-18T15:10:28.808Z,,,,,,,,,,,,,,,,,15,,,,,,,,,,,,,,16.002999999996973,,response,,,,7,A,,,,,,Space,keypress(Space),,,,silence,,,,---- --------- ---------- - --- ------- -- --- ------------<br>----- -- -------- ------- ---- ------ - -------- ---- -----<br>--- ------- ---- -- --- -------- --- - ----- prison ---- --<br>-------- --- -------- -------- --- -------- ---- -- ----- -<br>-------- ---- --- ---------- --------- -- ------- ------ -<br>--------- ----- -----,189228.39999997616,189227,189194.218,189200,189210.997,189244.32,,28,prison
screen,html.Screen,2_3_1_0_1_29,2022-02-18T15:10:28.840Z,,,,,,,,,,,,,,,,,15,,,,,,,,,,,,,,14.079999976151157,,response,,,,7,A,,,,,,Space,keypress(Space),,,,silence,,,,---- --------- ---------- - --- ------- -- --- ------------<br>----- -- -------- ------- ---- ------ - -------- ---- -----<br>--- ------- ---- -- --- -------- --- - ----- ------ stay --<br>-------- --- -------- -------- --- -------- ---- -- ----- -<br>-------- ---- --- ---------- --------- -- ------- ------ -<br>--------- ----- -----,189259.69999998808,189258.39999997616,189227.596,189228.60000002384,189244.32,189277.664,,29,stay
screen,html.Screen,2_3_1_0_1_30,2022-02-18T15:10:28.868Z,,,,,,,,,,,,,,,,,15,,,,,,,,,,,,,,9.436000023852102,,response,,,,7,A,,,,,,Space,keypress(Space),,,,silence,,,,---- --------- ---------- - --- ------- -- --- ------------<br>----- -- -------- ------- ---- ------ - -------- ---- -----<br>--- ------- ---- -- --- -------- --- - ----- ------ ---- to<br>-------- --- -------- -------- --- -------- ---- -- ----- -<br>-------- ---- --- ---------- --------- -- ------- ------ -<br>--------- ----- -----,189288.19999998808,189287.10000002384,189260.985,189260,189277.664,189311.024,,30,to
screen,html.Screen,2_3_1_0_1_31,2022-02-18T15:10:28.916Z,,,,,,,,,,,,,,,,,15,,,,,,,,,,,,,,23.97599999999511,,response,,,,7,A,,,,,,Space,keypress(Space),,,,silence,,,,---- --------- ---------- - --- ------- -- --- ------------<br>----- -- -------- ------- ---- ------ - -------- ---- -----<br>--- ------- ---- -- --- -------- --- - ----- ------ ---- --<br>maintain --- -------- -------- --- -------- ---- -- ----- -<br>-------- ---- --- ---------- --------- -- ------- ------ -<br>--------- ----- -----,189336.5,189335,189294.349,189288.5,189311.024,189344.392,,31,maintain
screen,html.Screen,2_3_1_0_1_32,2022-02-18T15:10:28.944Z,,,,,,,,,,,,,,,,,15,,,,,,,,,,,,,,18.80799998808652,,response,,,,7,A,,,,,,Space,keypress(Space),,,,silence,,,,---- --------- ---------- - --- ------- -- --- ------------<br>----- -- -------- ------- ---- ------ - -------- ---- -----<br>--- ------- ---- -- --- -------- --- - ----- ------ ---- --<br>-------- his -------- -------- --- -------- ---- -- ----- -<br>-------- ---- --- ---------- --------- -- ------- ------ -<br>--------- ----- -----,189364.39999997616,189363.19999998808,189327.689,189336.80000001192,189344.392,189377.766,,32,his
screen,html.Screen,2_3_1_0_1_33,2022-02-18T15:10:28.975Z,,,,,,,,,,,,,,,,,15,,,,,,,,,,,,,,16.133999976154882,,response,,,,7,A,,,,,,Space,keypress(Space),,,,silence,,,,---- --------- ---------- - --- ------- -- --- ------------<br>----- -- -------- ------- ---- ------ - -------- ---- -----<br>--- ------- ---- -- --- -------- --- - ----- ------ ---- --<br>-------- --- silence. -------- --- -------- ---- -- ----- -<br>-------- ---- --- ---------- --------- -- ------- ------ -<br>--------- ----- -----,189395.19999998808,189393.89999997616,189361.086,189364.69999998808,189377.766,189411.134,,33,silence.
screen,html.Screen,2_3_1_0_1_34,2022-02-18T15:10:29.005Z,,,,,,,,,,,,,,,,,15,,,,,,,,,,,,,,12.065999988088151,,response,,,,7,A,,,,,,Space,keypress(Space),,,,silence,,,,---- --------- ---------- - --- ------- -- --- ------------<br>----- -- -------- ------- ---- ------ - -------- ---- -----<br>--- ------- ---- -- --- -------- --- - ----- ------ ---- --<br>-------- --- -------- Anderson --- -------- ---- -- ----- -<br>-------- ---- --- ---------- --------- -- ------- ------ -<br>--------- ----- -----,189424.60000002384,189423.19999998808,189394.458,189395.30000001192,189411.134,189444.503,,34,Anderson
screen,html.Screen,2_3_1_0_1_35,2022-02-18T15:10:29.035Z,,,,,,,,,,,,,,,,,15,,,,,,,,,,,,,,9.497000000003027,,response,,,,7,A,,,,,,Space,keypress(Space),,,,silence,,,,---- --------- ---------- - --- ------- -- --- ------------<br>----- -- -------- ------- ---- ------ - -------- ---- -----<br>--- ------- ---- -- --- -------- --- - ----- ------ ---- --<br>-------- --- -------- -------- was -------- ---- -- ----- -<br>-------- ---- --- ---------- --------- -- ------- ------ -<br>--------- ----- -----,189455.10000002384,189454,189427.825,189424.89999997616,189444.503,189477.852,,35,was
screen,html.Screen,2_3_1_0_1_36,2022-02-18T15:10:30.366Z,,,,,,,,,,,,,,,,,15,,,,,,,,,,,,,,1307.4480000119074,,response,,,,7,A,,,,,,Space,keypress(Space),,,,silence,,,,---- --------- ---------- - --- ------- -- --- ------------<br>----- -- -------- ------- ---- ------ - -------- ---- -----<br>--- ------- ---- -- --- -------- --- - ----- ------ ---- --<br>-------- --- -------- -------- --- released ---- -- ----- -<br>-------- ---- --- ---------- --------- -- ------- ------ -<br>--------- ----- -----,190786.39999997616,190785.30000001192,189461.155,189455.39999997616,189477.852,190795.909,,36,released
screen,html.Screen,2_3_1_0_1_37,2022-02-18T15:10:30.557Z,,,,,,,,,,,,,,,,,15,,,,,,,,,,,,,,180.19100002382766,,response,,,,7,A,,,,,,Space,keypress(Space),,,,silence,,,,---- --------- ---------- - --- ------- -- --- ------------<br>----- -- -------- ------- ---- ------ - -------- ---- -----<br>--- ------- ---- -- --- -------- --- - ----- ------ ---- --<br>-------- --- -------- -------- --- -------- July -- ----- -<br>-------- ---- --- ---------- --------- -- ------- ------ -<br>--------- ----- -----,190977.19999998808,190976.10000002384,190779.229,190786.80000001192,190795.909,190979.443,,37,July
screen,html.Screen,2_3_1_0_1_38,2022-02-18T15:10:30.796Z,,,,,,,,,,,,,,,,,15,,,,,,,,,,,,,,236.25699998807977,,response,,,,7,A,,,,,,Space,keypress(Space),,,,silence,,,,---- --------- ---------- - --- ------- -- --- ------------<br>----- -- -------- ------- ---- ------ - -------- ---- -----<br>--- ------- ---- -- --- -------- --- - ----- ------ ---- --<br>-------- --- -------- -------- --- -------- ---- 20 ----- -<br>-------- ---- --- ---------- --------- -- ------- ------ -<br>--------- ----- -----,191216.39999997616,191215.69999998808,190962.74,190977.5,190979.443,191229.69,,38,20
screen,html.Screen,2_3_1_0_1_39,2022-02-18T15:10:31.069Z,,,,,,,,,,,,,,,,,15,,,,,,,,,,,,,,258.41000002383953,,response,,,,7,A,,,,,,Space,keypress(Space),,,,silence,,,,---- --------- ---------- - --- ------- -- --- ------------<br>----- -- -------- ------- ---- ------ - -------- ---- -----<br>--- ------- ---- -- --- -------- --- - ----- ------ ---- --<br>-------- --- -------- -------- --- -------- ---- -- after -<br>-------- ---- --- ---------- --------- -- ------- ------ -<br>--------- ----- -----,191489.30000001192,191488.10000002384,191213.013,191216.60000002384,191229.69,191496.655,,39,after
screen,html.Screen,2_3_1_0_1_40,2022-02-18T15:10:31.365Z,,,,,,,,,,,,,,,,,15,,,,,,,,,,,,,,287.445000023843,,response,,,,7,A,,,,,,Space,keypress(Space),,,,silence,,,,---- --------- ---------- - --- ------- -- --- ------------<br>----- -- -------- ------- ---- ------ - -------- ---- -----<br>--- ------- ---- -- --- -------- --- - ----- ------ ---- --<br>-------- --- -------- -------- --- -------- ---- -- ----- a<br>-------- ---- --- ---------- --------- -- ------- ------ -<br>--------- ----- -----,191785.19999998808,191784.10000002384,191479.918,191489.60000002384,191496.655,191813.633,,40,a
screen,html.Screen,2_3_1_0_1_41,2022-02-18T15:10:31.662Z,,,,,,,,,,,,,,,,,15,,,,,,,,,,,,,,266.36699999999837,,response,,,,7,A,,,,,,Space,keypress(Space),,,,silence,,,,---- --------- ---------- - --- ------- -- --- ------------<br>----- -- -------- ------- ---- ------ - -------- ---- -----<br>--- ------- ---- -- --- -------- --- - ----- ------ ---- --<br>-------- --- -------- -------- --- -------- ---- -- ----- -<br>two-week ---- --- ---------- --------- -- ------- ------ -<br>--------- ----- -----,192081.80000001192,192080,191796.944,191785.39999997616,191813.633,192097.294,,41,two-week
