sender,sender_type,sender_id,timestamp,meta,,Blues,Classical,Country,Dance,Electronic,Folk,Gospel,Hip-Hop,Jazz,Latin,Musical/Film,New-age,Pop,Prolific_id,Provo_ID,R&B,Rap,Reggae,Religious,Rock,Soul,Swing,Traditional,age,artist_name,correct,correctResponse,distraction,duration,education,ended_on,familiarity,gender,headphone_check_performance,item,list,music_frequency,offensiveness,pleasantness,position_correct,preference,response,response_action,snippet_file,song_name,song_rating,sound,stimulus_1,stimulus_2,stimulus_3,text,time_commit,time_end,time_render,time_run,time_show,time_switch,url,word,word_ID
Prolific ID,html.Form,0,2022-02-15T15:53:04.496Z,"{""labjs_version"":""20.2.2"",""labjs_build"":{""flavor"":""production"",""commit"":""a25486e0c714a0ae2ce03ff94b7bb6896854dcfa""},""location"":""https://run.pavlovia.org/mvasilev/prolific2_music_a/"",""userAgent"":""Mozilla/5.0 (Windows NT 10.0; Win64; x64) AppleWebKit/537.36 (KHTML, like Gecko) Chrome/98.0.4758.82 Safari/537.36"",""platform"":""Win32"",""language"":""en-GB"",""locale"":""en-GB"",""timeZone"":""Europe/London"",""timezoneOffset"":0,""screen_width"":1280,""screen_height"":720,""scroll_width"":1280,""scroll_height"":577,""window_innerWidth"":1280,""window_innerHeight"":577,""devicePixelRatio"":1.5}",,,,,,,,,,,,,,,60e0a0f11799deb4297c7eac,,,,,,,,,,,,,,,7864.079999809264,,form submission,,,,,,,,,,,,,,,,,,,,,16619,16618.199999809265,8742.02,8742.599999904633,8754.12,16633.372,{},,
Introduction,html.Screen,1_0,2022-02-15T15:53:06.925Z,,,,,,,,,,,,,,,,,,,,,,,,,,,,,,,2411.427999952317,,response,,,,,,,,,,,continue,click button,,,,,,,,,19048,19044.799999952316,16600.277,16619.39999985695,16633.372,19053.637,,,
Volume calibration,html.Screen,1_1,2022-02-15T15:53:35.084Z,,,,,,,,,,,,,,,,,,,,,,,,,,,,,,,28145.162999952317,,response,,,,,,,,,,,continue,click button,,,,,,,,,47205.59999990463,47198.799999952316,19037.106,19048.5,19053.637,47215.577,,,
Task instructions,html.Screen,1_2,2022-02-15T15:53:43.605Z,,,,,,,,,,,,,,,,,,,,,,,,,,,,,,,8509.222999952319,,response,,,,,,,,,,,continue,click button,,,,,,,,,55726.59999990463,55724.799999952316,47199.006,47205.799999952316,47215.577,55727.942,,,
Sounds,html.Screen,1_3_0_0,2022-02-15T15:53:47.848Z,,,,,,,,,,,,,,,,,,,,,,,,,,,,,,,4252.399999999994,,timeout,,,,,,,,,1,,,,,,,,S,I,O,,59969.799999952316,59963.348,55711.255,55727.09999990463,55727.942,59980.342,,,
Judgement,html.Screen,1_3_0_1,2022-02-15T15:53:49.472Z,,,,,,,,,,,,,,,,,,,,,,,,,,,,true,1,,1612.557999856952,,response,,,,,,,,,1,,1,click #choice-1,,,,,S,I,O,,61593.5,61592.89999985695,59963.348,59970.09999990463,59980.342,61613.433,,,
Trial,flow.Sequence,1_3_0,2022-02-15T15:53:49.472Z,,,,,,,,,,,,,,,,,,,,,,,,,,,,,,,5864.957999856946,,completion,,,,,,,,,1,,,,,,,,S,I,O,,61593.699999809265,61592.89999985695,55711.255,55727.09999990463,55727.942,61613.433,,,
Sounds,html.Screen,1_3_1_0,2022-02-15T15:53:53.733Z,,,,,,,,,,,,,,,,,,,,,,,,,,,,,,,4256.0999999999985,,timeout,,,,,,,,,3,,,,,,,,I,O,S,,65854.5,65853.197,61596.575,61593.89999985695,61613.433,65869.533,,,
Judgement,html.Screen,1_3_1_1,2022-02-15T15:53:54.436Z,,,,,,,,,,,,,,,,,,,,,,,,,,,,true,3,,684.866999856953,,response,,,,,,,,,3,,3,click #choice-3,,,,,I,O,S,,66558,66554.39999985695,65853.197,65854.89999985695,65869.533,66569.582,,,
Trial,flow.Sequence,1_3_1,2022-02-15T15:53:54.437Z,,,,,,,,,,,,,,,,,,,,,,,,,,,,,,,4940.966999856952,,completion,,,,,,,,,3,,,,,,,,I,O,S,,66558.59999990463,66554.39999985695,61596.575,61593.699999809265,61613.433,66569.582,,,
Sounds,html.Screen,1_3_2_0,2022-02-15T15:53:58.690Z,,,,,,,,,,,,,,,,,,,,,,,,,,,,,,,4257.182000000001,,timeout,,,,,,,,,3,,,,,,,,O,I,S,,70812,70810.372,66552.867,66559.09999990463,66569.582,70826.764,,,
Judgement,html.Screen,1_3_2_1,2022-02-15T15:53:59.122Z,,,,,,,,,,,,,,,,,,,,,,,,,,,,true,3,,414.93599980926956,,response,,,,,,,,,3,,3,click #choice-3,,,,,O,I,S,,71244.19999980927,71241.69999980927,70810.372,70812.29999995232,70826.764,71248.881,,,
Trial,flow.Sequence,1_3_2,2022-02-15T15:53:59.123Z,,,,,,,,,,,,,,,,,,,,,,,,,,,,,,,4672.11799980927,,completion,,,,,,,,,3,,,,,,,,O,I,S,,71244.89999985695,71241.69999980927,66552.867,66558.89999985695,66569.582,71248.881,,,
Sounds,html.Screen,1_3_3_0,2022-02-15T15:54:03.357Z,,,,,,,,,,,,,,,,,,,,,,,,,,,,,,,4245.469000000012,,timeout,,,,,,,,,2,,,,,,,,I,S,O,,75478.89999985695,75477.921,71243.564,71245.19999980927,71248.881,75494.35,,,
Judgement,html.Screen,1_3_3_1,2022-02-15T15:54:04.029Z,,,,,,,,,,,,,,,,,,,,,,,,,,,,true,2,,653.2499999046267,,response,,,,,,,,,2,,2,click #choice-2,,,,,I,S,O,,76150.79999995232,76147.59999990463,75477.921,75479.09999990463,75494.35,76154.986,,,
Trial,flow.Sequence,1_3_3,2022-02-15T15:54:04.029Z,,,,,,,,,,,,,,,,,,,,,,,,,,,,,,,4898.718999904639,,completion,,,,,,,,,2,,,,,,,,I,S,O,,76151.29999995232,76147.59999990463,71243.564,71245.09999990463,71248.881,76154.986,,,
Sounds,html.Screen,1_3_4_0,2022-02-15T15:54:08.260Z,,,,,,,,,,,,,,,,,,,,,,,,,,,,,,,4241.41399999999,,timeout,,,,,,,,,1,,,,,,,,S,O,I,,80381.89999985695,80379.971,76138.479,76151.59999990463,76154.986,80396.4,,,
Judgement,html.Screen,1_3_4_1,2022-02-15T15:54:08.893Z,,,,,,,,,,,,,,,,,,,,,,,,,,,,true,1,,616.4999998569547,,response,,,,,,,,,1,,1,click #choice-1,,,,,S,O,I,,81014.79999995232,81012.89999985695,80379.971,80382.19999980927,80396.4,81029.885,,,
Trial,flow.Sequence,1_3_4,2022-02-15T15:54:08.893Z,,,,,,,,,,,,,,,,,,,,,,,,,,,,,,,4857.913999856944,,completion,,,,,,,,,1,,,,,,,,S,O,I,,81015.29999995232,81012.89999985695,76138.479,76151.39999985695,76154.986,81029.885,,,
Sounds,html.Screen,1_3_5_0,2022-02-15T15:54:13.150Z,,,,,,,,,,,,,,,,,,,,,,,,,,,,,,,4256.738000000012,,timeout,,,,,,,,,2,,,,,,,,O,S,I,,85271.59999990463,85270.186,81013.243,81015.59999990463,81029.885,85286.623,,,
Judgement,html.Screen,1_3_5_1,2022-02-15T15:54:13.581Z,,,,,,,,,,,,,,,,,,,,,,,,,,,,true,2,,414.776999856942,,response,,,,,,,,,2,,2,click #choice-2,,,,,O,S,I,,85703.19999980927,85701.39999985695,85270.186,85272,85286.623,85712.371,,,
Trial,flow.Sequence,1_3_5,2022-02-15T15:54:13.582Z,,,,,,,,,,,,,,,,,,,,,,,,,,,,,,,4671.514999856954,,completion,,,,,,,,,2,,,,,,,,O,S,I,,85703.39999985695,85701.39999985695,81013.243,81015.5,81029.885,85712.371,,,
Task,flow.Loop,1_3,2022-02-15T15:54:13.589Z,,,,,,,,,,,,,,,,,,,,,,,,,,,,,,,29973.457999856946,,completion,,,1,,,,,,,,,,,,,,,,,,85710.59999990463,85701.39999985695,55711.255,55727,55727.942,85712.371,,,
Trap,html.Screen,1_4,2022-02-15T15:54:13.591Z,,,,,,,,,,,,,,,,,,,,,,,,,,,,,,,NaN,,skipped,,,,,,,,,,,,,,,,,,,,,85712.79999995232,85701.39999985695,,85712.59999990463,,85712.371,,,
Thanks,html.Screen,1_5,2022-02-15T15:54:15.770Z,,,,,,,,,,,,,,,,,,,,,,,,,,,,,,,2176.629000000001,,response,,,,,,,,,,,continue,click button,,,,,,,,,87891.69999980927,87889,85695.781,85713.09999990463,85712.371,90331.553,,,
Headphone screening,flow.Sequence,1,2022-02-15T15:54:15.771Z,,,,,,,,,,,,,,,,,,,,,,,,,,,,,,,71255.628,,completion,,,,,,,,,,,,,,,,,,,,,87892.39999985695,87889,16600.277,16619.39999985695,16633.372,90331.553,,,
Instructions,html.Page,2_0,2022-02-15T15:54:31.691Z,,,,,,,,,,,,,,,,,,,,,,,,,,,,,,,13479.246999952316,,form submission,,,,,,,,,,,,,,,,,,,,,103811.59999990463,103810.79999995232,90314.952,90329.39999985695,90331.553,103816.462,,,
Holding screen,html.Screen,2_1_0_0,2022-02-15T15:54:41.674Z,,,,,,,,,,,,,,,,,,,,,,,,,,,,,,,10026.457999999999,,timeout,,,,,,,,,,,,,,,,,,,,,113794.59999990463,113793.273,103799.944,103812.09999990463,103816.462,113842.92,,,
screen,html.Screen,2_1_0_1_0,2022-02-15T15:54:42.872Z,,,,,,,,,,,,,,,,,53,,,,,,,,,,,,,,1143.7799998092669,,response,,,,99,,,,,,,Space,keypress(Space),,,,,,,,When -- ----- -- ------ - ------- --- ----------<br>------------- ------ ------ ---- ---- ------- ----- -- ----<br>-------- ------- -- ---------- --- - --- ----- ----- ----<br>---- --- --- ----- --- ---- ---- ------- ----- ---- -------<br>--- --- -- ----- -- --- ---- -- --- ---- -- ------ ------<br>--- ----- -- ----,114992.39999985695,114986.69999980927,113793.273,113795.09999990463,113842.92,115000.003,,0,When
screen,html.Screen,2_1_0_1_1,2022-02-15T15:54:43.229Z,,,,,,,,,,,,,,,,,53,,,,,,,,,,,,,,348.497000000003,,response,,,,99,,,,,,,Space,keypress(Space),,,,,,,,---- it ----- -- ------ - ------- --- ----------<br>------------- ------ ------ ---- ---- ------- ----- -- ----<br>-------- ------- -- ---------- --- - --- ----- ----- ----<br>---- --- --- ----- --- ---- ---- ------- ----- ---- -------<br>--- --- -- ----- -- --- ---- -- --- ---- -- ------ ------<br>--- ----- -- ----,115349.59999990463,115348.5,114993.192,114992.69999980927,115000.003,115360.259,,1,it
screen,html.Screen,2_1_0_1_2,2022-02-15T15:54:43.610Z,,,,,,,,,,,,,,,,,53,,,,,,,,,,,,,,368.74099999999453,,response,,,,99,,,,,,,Space,keypress(Space),,,,,,,,---- -- comes -- ------ - ------- --- ----------<br>------------- ------ ------ ---- ---- ------- ----- -- ----<br>-------- ------- -- ---------- --- - --- ----- ----- ----<br>---- --- --- ----- --- ---- ---- ------- ----- ---- -------<br>--- --- -- ----- -- --- ---- -- --- ---- -- ------ ------<br>--- ----- -- ----,115730.19999980927,115729,115349.687,115350,115360.259,115737.524,,2,comes
screen,html.Screen,2_1_0_1_3,2022-02-15T15:54:44.049Z,,,,,,,,,,,,,,,,,53,,,,,,,,,,,,,,430.17599980926025,,response,,,,99,,,,,,,Space,keypress(Space),,,,,,,,---- -- ----- to ------ - ------- --- ----------<br>------------- ------ ------ ---- ---- ------- ----- -- ----<br>-------- ------- -- ---------- --- - --- ----- ----- ----<br>---- --- --- ----- --- ---- ---- ------- ----- ---- -------<br>--- --- -- ----- -- --- ---- -- --- ---- -- ------ ------<br>--- ----- -- ----,116169,116167.69999980927,115727.011,115730.5,115737.524,116175.836,,3,to
screen,html.Screen,2_1_0_1_4,2022-02-15T15:54:44.574Z,,,,,,,,,,,,,,,,,53,,,,,,,,,,,,,,517.6640000000043,,response,,,,99,,,,,,,Space,keypress(Space),,,,,,,,---- -- ----- -- having - ------- --- ----------<br>------------- ------ ------ ---- ---- ------- ----- -- ----<br>-------- ------- -- ---------- --- - --- ----- ----- ----<br>---- --- --- ----- --- ---- ---- ------- ----- ---- -------<br>--- --- -- ----- -- --- ---- -- --- ---- -- ------ ------<br>--- ----- -- ----,116694.5,116693.5,116154.116,116169.29999995232,116175.836,116701.809,,4,having
screen,html.Screen,2_1_0_1_5,2022-02-15T15:54:44.969Z,,,,,,,,,,,,,,,,,53,,,,,,,,,,,,,,386.69100000000617,,response,,,,99,,,,,,,Space,keypress(Space),,,,,,,,---- -- ----- -- ------ a ------- --- ----------<br>------------- ------ ------ ---- ---- ------- ----- -- ----<br>-------- ------- -- ---------- --- - --- ----- ----- ----<br>---- --- --- ----- --- ---- ---- ------- ----- ---- -------<br>--- --- -- ----- -- --- ---- -- --- ---- -- ------ ------<br>--- ----- -- ----,117089.89999985695,117088.5,116692.724,116694.79999995232,116701.809,117100.939,,5,a
screen,html.Screen,2_1_0_1_6,2022-02-15T15:54:45.406Z,,,,,,,,,,,,,,,,,53,,,,,,,,,,,,,,424.76099980926665,,response,,,,99,,,,,,,Space,keypress(Space),,,,,,,,---- -- ----- -- ------ - lasting --- ----------<br>------------- ------ ------ ---- ---- ------- ----- -- ----<br>-------- ------- -- ---------- --- - --- ----- ----- ----<br>---- --- --- ----- --- ---- ---- ------- ----- ---- -------<br>--- --- -- ----- -- --- ---- -- --- ---- -- ------ ------<br>--- ----- -- ----,117526.89999985695,117525.69999980927,117085.196,117090.19999980927,117100.939,117533.796,,6,lasting
screen,html.Screen,2_1_0_1_7,2022-02-15T15:54:45.768Z,,,,,,,,,,,,,,,,,53,,,,,,,,,,,,,,353.60399985694676,,response,,,,99,,,,,,,Space,keypress(Space),,,,,,,,---- -- ----- -- ------ - ------- and ----------<br>------------- ------ ------ ---- ---- ------- ----- -- ----<br>-------- ------- -- ---------- --- - --- ----- ----- ----<br>---- --- --- ----- --- ---- ---- ------- ----- ---- -------<br>--- --- -- ----- -- --- ---- -- --- ---- -- ------ ------<br>--- ----- -- ----,117888.59999990463,117887.39999985695,117523.472,117527.09999990463,117533.796,117895.98,,7,and
screen,html.Screen,2_1_0_1_8,2022-02-15T15:54:46.222Z,,,,,,,,,,,,,,,,,53,,,,,,,,,,,,,,445.4199998569529,,response,,,,99,,,,,,,Space,keypress(Space),,,,,,,,---- -- ----- -- ------ - ------- --- fulfilling<br>------------- ------ ------ ---- ---- ------- ----- -- ----<br>-------- ------- -- ---------- --- - --- ----- ----- ----<br>---- --- --- ----- --- ---- ---- ------- ----- ---- -------<br>--- --- -- ----- -- --- ---- -- --- ---- -- ------ ------<br>--- ----- -- ----,118342.59999990463,118341.39999985695,117884.163,117888.89999985695,117895.98,118349.915,,8,fulfilling
screen,html.Screen,2_1_0_1_9,2022-02-15T15:54:46.844Z,,,,,,,,,,,,,,,,,53,,,,,,,,,,,,,,612.9849998569553,,response,,,,99,,,,,,,Space,keypress(Space),,,,,,,,"---- -- ----- -- ------ - ------- --- ----------<br>relationship, ------ ------ ---- ---- ------- ----- -- ----<br>-------- ------- -- ---------- --- - --- ----- ----- ----<br>---- --- --- ----- --- ---- ---- ------- ----- ---- -------<br>--- --- -- ----- -- --- ---- -- --- ---- -- ------ ------<br>--- ----- -- ----",118964.09999990463,118962.89999985695,118329.687,118342.89999985695,118349.915,118971.367,,9,"relationship,"
screen,html.Screen,2_1_0_1_10,2022-02-15T15:54:47.323Z,,,,,,,,,,,,,,,,,53,,,,,,,,,,,,,,470.83299980926677,,response,,,,99,,,,,,,Space,keypress(Space),,,,,,,,---- -- ----- -- ------ - ------- --- ----------<br>------------- common ------ ---- ---- ------- ----- -- ----<br>-------- ------- -- ---------- --- - --- ----- ----- ----<br>---- --- --- ----- --- ---- ---- ------- ----- ---- -------<br>--- --- -- ----- -- --- ---- -- --- ---- -- ------ ------<br>--- ----- -- ----,119443.29999995232,119442.19999980927,118950.098,118964.39999985695,118971.367,119450.661,,10,common
screen,html.Screen,2_1_0_1_11,2022-02-15T15:54:47.708Z,,,,,,,,,,,,,,,,,53,,,,,,,,,,,,,,376.53899980927235,,response,,,,99,,,,,,,Space,keypress(Space),,,,,,,,---- -- ----- -- ------ - ------- --- ----------<br>------------- ------ wisdom ---- ---- ------- ----- -- ----<br>-------- ------- -- ---------- --- - --- ----- ----- ----<br>---- --- --- ----- --- ---- ---- ------- ----- ---- -------<br>--- --- -- ----- -- --- ---- -- --- ---- -- ------ ------<br>--- ----- -- ----,119828.29999995232,119827.19999980927,119438.193,119443.5,119450.661,119835.595,,11,wisdom
screen,html.Screen,2_1_0_1_12,2022-02-15T15:54:48.183Z,,,,,,,,,,,,,,,,,53,,,,,,,,,,,,,,466.90499999999884,,response,,,,99,,,,,,,Space,keypress(Space),,,,,,,,---- -- ----- -- ------ - ------- --- ----------<br>------------- ------ ------ says ---- ------- ----- -- ----<br>-------- ------- -- ---------- --- - --- ----- ----- ----<br>---- --- --- ----- --- ---- ---- ------- ----- ---- -------<br>--- --- -- ----- -- --- ---- -- --- ---- -- ------ ------<br>--- ----- -- ----,120303.69999980927,120302.5,119817.427,119828.59999990463,119835.595,120310.962,,12,says
screen,html.Screen,2_1_0_1_13,2022-02-15T15:54:48.521Z,,,,,,,,,,,,,,,,,53,,,,,,,,,,,,,,329.03800000000047,,response,,,,99,,,,,,,Space,keypress(Space),,,,,,,,---- -- ----- -- ------ - ------- --- ----------<br>------------- ------ ------ ---- that ------- ----- -- ----<br>-------- ------- -- ---------- --- - --- ----- ----- ----<br>---- --- --- ----- --- ---- ---- ------- ----- ---- -------<br>--- --- -- ----- -- --- ---- -- --- ---- -- ------ ------<br>--- ----- -- ----,120641.5,120640,120302.178,120304,120310.962,120656.636,,13,that
screen,html.Screen,2_1_0_1_14,2022-02-15T15:54:48.858Z,,,,,,,,,,,,,,,,,53,,,,,,,,,,,,,,320.96399990463397,,response,,,,99,,,,,,,Space,keypress(Space),,,,,,,,---- -- ----- -- ------ - ------- --- ----------<br>------------- ------ ------ ---- ---- feeling ----- -- ----<br>-------- ------- -- ---------- --- - --- ----- ----- ----<br>---- --- --- ----- --- ---- ---- ------- ----- ---- -------<br>--- --- -- ----- -- --- ---- -- --- ---- -- ------ ------<br>--- ----- -- ----,120978.69999980927,120977.59999990463,120627.693,120641.69999980927,120656.636,120985.92,,14,feeling
screen,html.Screen,2_1_0_1_15,2022-02-15T15:54:49.173Z,,,,,,,,,,,,,,,,,53,,,,,,,,,,,,,,305.7799998092669,,response,,,,99,,,,,,,Space,keypress(Space),,,,,,,,---- -- ----- -- ------ - ------- --- ----------<br>------------- ------ ------ ---- ---- ------- close -- ----<br>-------- ------- -- ---------- --- - --- ----- ----- ----<br>---- --- --- ----- --- ---- ---- ------- ----- ---- -------<br>--- --- -- ----- -- --- ---- -- --- ---- -- ------ ------<br>--- ----- -- ----,121293.19999980927,121291.69999980927,120973.386,120979,120985.92,121306.332,,15,close
screen,html.Screen,2_1_0_1_16,2022-02-15T15:54:49.520Z,,,,,,,,,,,,,,,,,53,,,,,,,,,,,,,,332.7679999046377,,response,,,,99,,,,,,,Space,keypress(Space),,,,,,,,---- -- ----- -- ------ - ------- --- ----------<br>------------- ------ ------ ---- ---- ------- ----- to ----<br>-------- ------- -- ---------- --- - --- ----- ----- ----<br>---- --- --- ----- --- ---- ---- ------- ----- ---- -------<br>--- --- -- ----- -- --- ---- -- --- ---- -- ------ ------<br>--- ----- -- ----,121640.29999995232,121639.09999990463,121286.373,121293.69999980927,121306.332,121647.556,,16,to
screen,html.Screen,2_1_0_1_17,2022-02-15T15:54:49.920Z,,,,,,,,,,,,,,,,,53,,,,,,,,,,,,,,391.5439999046357,,response,,,,99,,,,,,,Space,keypress(Space),,,,,,,,---- -- ----- -- ------ - ------- --- ----------<br>------------- ------ ------ ---- ---- ------- ----- -- your<br>-------- ------- -- ---------- --- - --- ----- ----- ----<br>---- --- --- ----- --- ---- ---- ------- ----- ---- -------<br>--- --- -- ----- -- --- ---- -- --- ---- -- ------ ------<br>--- ----- -- ----,122040.69999980927,122039.09999990463,121639.902,121640.5,121647.556,122048.152,,17,your
screen,html.Screen,2_1_0_1_18,2022-02-15T15:54:50.294Z,,,,,,,,,,,,,,,,,53,,,,,,,,,,,,,,365.5479998092633,,response,,,,99,,,,,,,Space,keypress(Space),,,,,,,,---- -- ----- -- ------ - ------- --- ----------<br>------------- ------ ------ ---- ---- ------- ----- -- ----<br>romantic ------- -- ---------- --- - --- ----- ----- ----<br>---- --- --- ----- --- ---- ---- ------- ----- ---- -------<br>--- --- -- ----- -- --- ---- -- --- ---- -- ------ ------<br>--- ----- -- ----,122414.19999980927,122413.69999980927,122030.872,122041.09999990463,122048.152,122417.169,,18,romantic
screen,html.Screen,2_1_0_1_19,2022-02-15T15:54:50.617Z,,,,,,,,,,,,,,,,,53,,,,,,,,,,,,,,318.93099990463816,,response,,,,99,,,,,,,Space,keypress(Space),,,,,,,,---- -- ----- -- ------ - ------- --- ----------<br>------------- ------ ------ ---- ---- ------- ----- -- ----<br>-------- partner -- ---------- --- - --- ----- ----- ----<br>---- --- --- ----- --- ---- ---- ------- ----- ---- -------<br>--- --- -- ----- -- --- ---- -- --- ---- -- ------ ------<br>--- ----- -- ----,122737.29999995232,122736.09999990463,122414.733,122414.29999995232,122417.169,122744.572,,19,partner
screen,html.Screen,2_1_0_1_20,2022-02-15T15:54:50.937Z,,,,,,,,,,,,,,,,,53,,,,,,,,,,,,,,311.22799995231617,,response,,,,99,,,,,,,Space,keypress(Space),,,,,,,,---- -- ----- -- ------ - ------- --- ----------<br>------------- ------ ------ ---- ---- ------- ----- -- ----<br>-------- ------- is ---------- --- - --- ----- ----- ----<br>---- --- --- ----- --- ---- ---- ------- ----- ---- -------<br>--- --- -- ----- -- --- ---- -- --- ---- -- ------ ------<br>--- ----- -- ----,123056.89999985695,123055.79999995232,122722.831,122737.59999990463,122744.572,123064.322,,20,is
screen,html.Screen,2_1_0_1_21,2022-02-15T15:54:51.206Z,,,,,,,,,,,,,,,,,53,,,,,,,,,,,,,,261.07799985694874,,response,,,,99,,,,,,,Space,keypress(Space),,,,,,,,---- -- ----- -- ------ - ------- --- ----------<br>------------- ------ ------ ---- ---- ------- ----- -- ----<br>-------- ------- -- paramount. --- - --- ----- ----- ----<br>---- --- --- ----- --- ---- ---- ------- ----- ---- -------<br>--- --- -- ----- -- --- ---- -- --- ---- -- ------ ------<br>--- ----- -- ----,123326.5,123325.39999985695,123044.636,123057.29999995232,123064.322,123343.703,,21,paramount.
screen,html.Screen,2_1_0_1_22,2022-02-15T15:54:51.994Z,,,,,,,,,,,,,,,,,53,,,,,,,,,,,,,,769.1969998569548,,response,,,,99,,,,,,,Space,keypress(Space),,,,,,,,---- -- ----- -- ------ - ------- --- ----------<br>------------- ------ ------ ---- ---- ------- ----- -- ----<br>-------- ------- -- ---------- But - --- ----- ----- ----<br>---- --- --- ----- --- ---- ---- ------- ----- ---- -------<br>--- --- -- ----- -- --- ---- -- --- ---- -- ------ ------<br>--- ----- -- ----,124114.09999990463,124112.89999985695,123314.567,123326.69999980927,123343.703,124121.406,,22,But
screen,html.Screen,2_1_0_1_23,2022-02-15T15:54:52.342Z,,,,,,,,,,,,,,,,,53,,,,,,,,,,,,,,339.5939999999973,,response,,,,99,,,,,,,Space,keypress(Space),,,,,,,,---- -- ----- -- ------ - ------- --- ----------<br>------------- ------ ------ ---- ---- ------- ----- -- ----<br>-------- ------- -- ---------- --- a --- ----- ----- ----<br>---- --- --- ----- --- ---- ---- ------- ----- ---- -------<br>--- --- -- ----- -- --- ---- -- --- ---- -- ------ ------<br>--- ----- -- ----,124462.19999980927,124461,124110.436,124114.29999995232,124121.406,124475.594,,23,a
screen,html.Screen,2_1_0_1_24,2022-02-15T15:54:52.650Z,,,,,,,,,,,,,,,,,53,,,,,,,,,,,,,,293.4060000000027,,response,,,,99,,,,,,,Space,keypress(Space),,,,,,,,---- -- ----- -- ------ - ------- --- ----------<br>------------- ------ ------ ---- ---- ------- ----- -- ----<br>-------- ------- -- ---------- --- - new ----- ----- ----<br>---- --- --- ----- --- ---- ---- ------- ----- ---- -------<br>--- --- -- ----- -- --- ---- -- --- ---- -- ------ ------<br>--- ----- -- ----,124770.39999985695,124769,124454.953,124462.5,124475.594,124777.799,,24,new
screen,html.Screen,2_1_0_1_25,2022-02-15T15:54:53.067Z,,,,,,,,,,,,,,,,,53,,,,,,,,,,,,,,409.0009999523172,,response,,,,99,,,,,,,Space,keypress(Space),,,,,,,,---- -- ----- -- ------ - ------- --- ----------<br>------------- ------ ------ ---- ---- ------- ----- -- ----<br>-------- ------- -- ---------- --- - --- study ----- ----<br>---- --- --- ----- --- ---- ---- ------- ----- ---- -------<br>--- --- -- ----- -- --- ---- -- --- ---- -- ------ ------<br>--- ----- -- ----,125187.79999995232,125186.79999995232,124758.498,124770.59999990463,124777.799,125194.761,,25,study
screen,html.Screen,2_1_0_1_26,2022-02-15T15:54:53.358Z,,,,,,,,,,,,,,,,,53,,,,,,,,,,,,,,282.5389999523177,,response,,,,99,,,,,,,Space,keypress(Space),,,,,,,,---- -- ----- -- ------ - ------- --- ----------<br>------------- ------ ------ ---- ---- ------- ----- -- ----<br>-------- ------- -- ---------- --- - --- ----- finds ----<br>---- --- --- ----- --- ---- ---- ------- ----- ---- -------<br>--- --- -- ----- -- --- ---- -- --- ---- -- ------ ------<br>--- ----- -- ----,125478.39999985695,125477.29999995232,125177.782,125188,125194.761,125488.754,,26,finds
screen,html.Screen,2_1_0_1_27,2022-02-15T15:54:53.744Z,,,,,,,,,,,,,,,,,53,,,,,,,,,,,,,,374.14599985694804,,response,,,,99,,,,,,,Space,keypress(Space),,,,,,,,---- -- ----- -- ------ - ------- --- ----------<br>------------- ------ ------ ---- ---- ------- ----- -- ----<br>-------- ------- -- ---------- --- - --- ----- ----- that<br>---- --- --- ----- --- ---- ---- ------- ----- ---- -------<br>--- --- -- ----- -- --- ---- -- --- ---- -- ------ ------<br>--- ----- -- ----,125864.69999980927,125862.89999985695,125478.2,125479,125488.754,125871.912,,27,that
screen,html.Screen,2_1_0_1_28,2022-02-15T15:54:54.068Z,,,,,,,,,,,,,,,,,53,,,,,,,,,,,,,,315.0880000000034,,response,,,,99,,,,,,,Space,keypress(Space),,,,,,,,---- -- ----- -- ------ - ------- --- ----------<br>------------- ------ ------ ---- ---- ------- ----- -- ----<br>-------- ------- -- ---------- --- - --- ----- ----- ----<br>it's --- --- ----- --- ---- ---- ------- ----- ---- -------<br>--- --- -- ----- -- --- ---- -- --- ---- -- ------ ------<br>--- ----- -- ----,126188,126187,125855.458,125864.89999985695,125871.912,126195.357,,28,it's
screen,html.Screen,2_1_0_1_29,2022-02-15T15:54:54.395Z,,,,,,,,,,,,,,,,,53,,,,,,,,,,,,,,318.9429999523127,,response,,,,99,,,,,,,Space,keypress(Space),,,,,,,,---- -- ----- -- ------ - ------- --- ----------<br>------------- ------ ------ ---- ---- ------- ----- -- ----<br>-------- ------- -- ---------- --- - --- ----- ----- ----<br>---- not --- ----- --- ---- ---- ------- ----- ---- -------<br>--- --- -- ----- -- --- ---- -- --- ---- -- ------ ------<br>--- ----- -- ----,126515,126514.29999995232,126188.754,126188.29999995232,126195.357,126534.279,,29,not
screen,html.Screen,2_1_0_1_30,2022-02-15T15:54:54.686Z,,,,,,,,,,,,,,,,,53,,,,,,,,,,,,,,270.721000000005,,response,,,,99,,,,,,,Space,keypress(Space),,,,,,,,---- -- ----- -- ------ - ------- --- ----------<br>------------- ------ ------ ---- ---- ------- ----- -- ----<br>-------- ------- -- ---------- --- - --- ----- ----- ----<br>---- --- how ----- --- ---- ---- ------- ----- ---- -------<br>--- --- -- ----- -- --- ---- -- --- ---- -- ------ ------<br>--- ----- -- ----,126806.09999990463,126805,126512.03,126515.19999980927,126534.279,126813.319,,30,how
screen,html.Screen,2_1_0_1_31,2022-02-15T15:54:54.996Z,,,,,,,,,,,,,,,,,53,,,,,,,,,,,,,,302.2809999046294,,response,,,,99,,,,,,,Space,keypress(Space),,,,,,,,---- -- ----- -- ------ - ------- --- ----------<br>------------- ------ ------ ---- ---- ------- ----- -- ----<br>-------- ------- -- ---------- --- - --- ----- ----- ----<br>---- --- --- close --- ---- ---- ------- ----- ---- -------<br>--- --- -- ----- -- --- ---- -- --- ---- -- ------ ------<br>--- ----- -- ----,127116.79999995232,127115.59999990463,126799.645,126806.29999995232,126813.319,127127.272,,31,close
screen,html.Screen,2_1_0_1_32,2022-02-15T15:54:55.303Z,,,,,,,,,,,,,,,,,53,,,,,,,,,,,,,,294.82799990463536,,response,,,,99,,,,,,,Space,keypress(Space),,,,,,,,---- -- ----- -- ------ - ------- --- ----------<br>------------- ------ ------ ---- ---- ------- ----- -- ----<br>-------- ------- -- ---------- --- - --- ----- ----- ----<br>---- --- --- ----- you ---- ---- ------- ----- ---- -------<br>--- --- -- ----- -- --- ---- -- --- ---- -- ------ ------<br>--- ----- -- ----,127423.39999985695,127422.09999990463,127113.549,127117.09999990463,127127.272,127430.804,,32,you
screen,html.Screen,2_1_0_1_33,2022-02-15T15:54:55.614Z,,,,,,,,,,,,,,,,,53,,,,,,,,,,,,,,301.8959998092614,,response,,,,99,,,,,,,Space,keypress(Space),,,,,,,,---- -- ----- -- ------ - ------- --- ----------<br>------------- ------ ------ ---- ---- ------- ----- -- ----<br>-------- ------- -- ---------- --- - --- ----- ----- ----<br>---- --- --- ----- --- feel ---- ------- ----- ---- -------<br>--- --- -- ----- -- --- ---- -- --- ---- -- ------ ------<br>--- ----- -- ----,127734,127732.69999980927,127410.484,127423.59999990463,127430.804,127741.427,,33,feel
screen,html.Screen,2_1_0_1_34,2022-02-15T15:54:55.883Z,,,,,,,,,,,,,,,,,53,,,,,,,,,,,,,,260.57300000000396,,response,,,,99,,,,,,,Space,keypress(Space),,,,,,,,---- -- ----- -- ------ - ------- --- ----------<br>------------- ------ ------ ---- ---- ------- ----- -- ----<br>-------- ------- -- ---------- --- - --- ----- ----- ----<br>---- --- --- ----- --- ---- that ------- ----- ---- -------<br>--- --- -- ----- -- --- ---- -- --- ---- -- ------ ------<br>--- ----- -- ----,128003.09999990463,128002,127730.891,127734.19999980927,127741.427,128010.223,,34,that
screen,html.Screen,2_1_0_1_35,2022-02-15T15:54:56.175Z,,,,,,,,,,,,,,,,,53,,,,,,,,,,,,,,283.976999809267,,response,,,,99,,,,,,,Space,keypress(Space),,,,,,,,---- -- ----- -- ------ - ------- --- ----------<br>------------- ------ ------ ---- ---- ------- ----- -- ----<br>-------- ------- -- ---------- --- - --- ----- ----- ----<br>---- --- --- ----- --- ---- ---- matters ----- ---- -------<br>--- --- -- ----- -- --- ---- -- --- ---- -- ------ ------<br>--- ----- -- ----,128295.19999980927,128294.19999980927,127991.395,128003.39999985695,128010.223,128302.522,,35,matters
screen,html.Screen,2_1_0_1_36,2022-02-15T15:54:56.487Z,,,,,,,,,,,,,,,,,53,,,,,,,,,,,,,,302.9780000000028,,response,,,,99,,,,,,,Space,keypress(Space),,,,,,,,"---- -- ----- -- ------ - ------- --- ----------<br>------------- ------ ------ ---- ---- ------- ----- -- ----<br>-------- ------- -- ---------- --- - --- ----- ----- ----<br>---- --- --- ----- --- ---- ---- ------- most, ---- -------<br>--- --- -- ----- -- --- ---- -- --- ---- -- ------ ------<br>--- ----- -- ----",128607.29999995232,128605.5,128293.584,128295.59999990463,128302.522,128622.619,,36,"most,"
screen,html.Screen,2_1_0_1_37,2022-02-15T15:54:56.762Z,,,,,,,,,,,,,,,,,53,,,,,,,,,,,,,,258.7809998569428,,response,,,,99,,,,,,,Space,keypress(Space),,,,,,,,---- -- ----- -- ------ - ------- --- ----------<br>------------- ------ ------ ---- ---- ------- ----- -- ----<br>-------- ------- -- ---------- --- - --- ----- ----- ----<br>---- --- --- ----- --- ---- ---- ------- ----- it's -------<br>--- --- -- ----- -- --- ---- -- --- ---- -- ------ ------<br>--- ----- -- ----,128882.5,128881.39999985695,128602.75,128607.59999990463,128622.619,128889.778,,37,it's
screen,html.Screen,2_1_0_1_38,2022-02-15T15:54:57.089Z,,,,,,,,,,,,,,,,,53,,,,,,,,,,,,,,318.92199980925943,,response,,,,99,,,,,,,Space,keypress(Space),,,,,,,,---- -- ----- -- ------ - ------- --- ----------<br>------------- ------ ------ ---- ---- ------- ----- -- ----<br>-------- ------- -- ---------- --- - --- ----- ----- ----<br>---- --- --- ----- --- ---- ---- ------- ----- ---- whether<br>--- --- -- ----- -- --- ---- -- --- ---- -- ------ ------<br>--- ----- -- ----,129209.79999995232,129208.69999980927,128872.544,128882.79999995232,128889.778,129220.142,,38,whether
screen,html.Screen,2_1_0_1_39,2022-02-15T15:54:57.374Z,,,,,,,,,,,,,,,,,53,,,,,,,,,,,,,,273.55799980925804,,response,,,,99,,,,,,,Space,keypress(Space),,,,,,,,---- -- ----- -- ------ - ------- --- ----------<br>------------- ------ ------ ---- ---- ------- ----- -- ----<br>-------- ------- -- ---------- --- - --- ----- ----- ----<br>---- --- --- ----- --- ---- ---- ------- ----- ---- -------<br>you --- -- ----- -- --- ---- -- --- ---- -- ------ ------<br>--- ----- -- ----,129494.69999980927,129493.69999980927,129206.659,129210.09999990463,129220.142,129501.572,,39,you
screen,html.Screen,2_1_0_1_40,2022-02-15T15:54:57.624Z,,,,,,,,,,,,,,,,,53,,,,,,,,,,,,,,242.32799985694874,,response,,,,99,,,,,,,Space,keypress(Space),,,,,,,,---- -- ----- -- ------ - ------- --- ----------<br>------------- ------ ------ ---- ---- ------- ----- -- ----<br>-------- ------- -- ---------- --- - --- ----- ----- ----<br>---- --- --- ----- --- ---- ---- ------- ----- ---- -------<br>--- are -- ----- -- --- ---- -- --- ---- -- ------ ------<br>--- ----- -- ----,129744.39999985695,129743.89999985695,129486.641,129495,129501.572,129751.499,,40,are
screen,html.Screen,2_1_0_1_41,2022-02-15T15:54:57.872Z,,,,,,,,,,,,,,,,,53,,,,,,,,,,,,,,240.4009998569527,,response,,,,99,,,,,,,Space,keypress(Space),,,,,,,,---- -- ----- -- ------ - ------- --- ----------<br>------------- ------ ------ ---- ---- ------- ----- -- ----<br>-------- ------- -- ---------- --- - --- ----- ----- ----<br>---- --- --- ----- --- ---- ---- ------- ----- ---- -------<br>--- --- as ----- -- --- ---- -- --- ---- -- ------ ------<br>--- ----- -- ----,129992.5,129991.89999985695,129734.857,129744.5,129751.499,129998.785,,41,as
screen,html.Screen,2_1_0_1_42,2022-02-15T15:54:58.099Z,,,,,,,,,,,,,,,,,53,,,,,,,,,,,,,,220.31499990462908,,response,,,,99,,,,,,,Space,keypress(Space),,,,,,,,---- -- ----- -- ------ - ------- --- ----------<br>------------- ------ ------ ---- ---- ------- ----- -- ----<br>-------- ------- -- ---------- --- - --- ----- ----- ----<br>---- --- --- ----- --- ---- ---- ------- ----- ---- -------<br>--- --- -- close -- --- ---- -- --- ---- -- ------ ------<br>--- ----- -- ----,130219.59999990463,130219.09999990463,129985.035,129992.59999990463,129998.785,130230.459,,42,close
screen,html.Screen,2_1_0_1_43,2022-02-15T15:54:58.519Z,,,,,,,,,,,,,,,,,53,,,,,,,,,,,,,,408.04099999999744,,response,,,,99,,,,,,,Space,keypress(Space),,,,,,,,---- -- ----- -- ------ - ------- --- ----------<br>------------- ------ ------ ---- ---- ------- ----- -- ----<br>-------- ------- -- ---------- --- - --- ----- ----- ----<br>---- --- --- ----- --- ---- ---- ------- ----- ---- -------<br>--- --- -- ----- as --- ---- -- --- ---- -- ------ ------<br>--- ----- -- ----,130639.79999995232,130638.5,130215.461,130219.69999980927,130230.459,130647.125,,43,as
screen,html.Screen,2_1_0_1_44,2022-02-15T15:54:58.853Z,,,,,,,,,,,,,,,,,53,,,,,,,,,,,,,,325.77499985694885,,response,,,,99,,,,,,,Space,keypress(Space),,,,,,,,---- -- ----- -- ------ - ------- --- ----------<br>------------- ------ ------ ---- ---- ------- ----- -- ----<br>-------- ------- -- ---------- --- - --- ----- ----- ----<br>---- --- --- ----- --- ---- ---- ------- ----- ---- -------<br>--- --- -- ----- -- you ---- -- --- ---- -- ------ ------<br>--- ----- -- ----,130973.59999990463,130972.89999985695,130630.522,130640.09999990463,130647.125,130980.133,,44,you
screen,html.Screen,2_1_0_1_45,2022-02-15T15:54:59.179Z,,,,,,,,,,,,,,,,,53,,,,,,,,,,,,,,317.66699995231465,,response,,,,99,,,,,,,Space,keypress(Space),,,,,,,,---- -- ----- -- ------ - ------- --- ----------<br>------------- ------ ------ ---- ---- ------- ----- -- ----<br>-------- ------- -- ---------- --- - --- ----- ----- ----<br>---- --- --- ----- --- ---- ---- ------- ----- ---- -------<br>--- --- -- ----- -- --- want -- --- ---- -- ------ ------<br>--- ----- -- ----,131299,131297.79999995232,130963.925,130973.69999980927,130980.133,131314.78,,45,want
screen,html.Screen,2_1_0_1_46,2022-02-15T15:54:59.445Z,,,,,,,,,,,,,,,,,53,,,,,,,,,,,,,,249.61999985695002,,response,,,,99,,,,,,,Space,keypress(Space),,,,,,,,---- -- ----- -- ------ - ------- --- ----------<br>------------- ------ ------ ---- ---- ------- ----- -- ----<br>-------- ------- -- ---------- --- - --- ----- ----- ----<br>---- --- --- ----- --- ---- ---- ------- ----- ---- -------<br>--- --- -- ----- -- --- ---- to --- ---- -- ------ ------<br>--- ----- -- ----,131565.5,131564.39999985695,131296.87,131299.19999980927,131314.78,131572.904,,46,to
screen,html.Screen,2_1_0_1_47,2022-02-15T15:54:59.738Z,,,,,,,,,,,,,,,,,53,,,,,,,,,,,,,,284.2959998092556,,response,,,,99,,,,,,,Space,keypress(Space),,,,,,,,"---- -- ----- -- ------ - ------- --- ----------<br>------------- ------ ------ ---- ---- ------- ----- -- ----<br>-------- ------- -- ---------- --- - --- ----- ----- ----<br>---- --- --- ----- --- ---- ---- ------- ----- ---- -------<br>--- --- -- ----- -- --- ---- -- be, ---- -- ------ ------<br>--- ----- -- ----",131858.39999985695,131857.19999980927,131564.57,131565.79999995232,131572.904,131875.933,,47,"be,"
screen,html.Screen,2_1_0_1_48,2022-02-15T15:55:00.330Z,,,,,,,,,,,,,,,,,53,,,,,,,,,,,,,,573.06700000001,,response,,,,99,,,,,,,Space,keypress(Space),,,,,,,,---- -- ----- -- ------ - ------- --- ----------<br>------------- ------ ------ ---- ---- ------- ----- -- ----<br>-------- ------- -- ---------- --- - --- ----- ----- ----<br>---- --- --- ----- --- ---- ---- ------- ----- ---- -------<br>--- --- -- ----- -- --- ---- -- --- even -- ------ ------<br>--- ----- -- ----,132450.19999980927,132449,131856.457,131858.79999995232,131875.933,132461.905,,48,even
screen,html.Screen,2_1_0_1_49,2022-02-15T15:55:00.624Z,,,,,,,,,,,,,,,,,53,,,,,,,,,,,,,,280.59500000000116,,response,,,,99,,,,,,,Space,keypress(Space),,,,,,,,---- -- ----- -- ------ - ------- --- ----------<br>------------- ------ ------ ---- ---- ------- ----- -- ----<br>-------- ------- -- ---------- --- - --- ----- ----- ----<br>---- --- --- ----- --- ---- ---- ------- ----- ---- -------<br>--- --- -- ----- -- --- ---- -- --- ---- if ------ ------<br>--- ----- -- ----,132744.09999990463,132742.5,132442.529,132450.5,132461.905,132751.36,,49,if
screen,html.Screen,2_1_0_1_50,2022-02-15T15:55:00.978Z,,,,,,,,,,,,,,,,,53,,,,,,,,,,,,,,345.5399998569628,,response,,,,99,,,,,,,Space,keypress(Space),,,,,,,,---- -- ----- -- ------ - ------- --- ----------<br>------------- ------ ------ ---- ---- ------- ----- -- ----<br>-------- ------- -- ---------- --- - --- ----- ----- ----<br>---- --- --- ----- --- ---- ---- ------- ----- ---- -------<br>--- --- -- ----- -- --- ---- -- --- ---- -- that's ------<br>--- ----- -- ----,133098,133096.89999985695,132745.441,132744.39999985695,132751.36,133105.285,,50,that's
screen,html.Screen,2_1_0_1_51,2022-02-15T15:55:01.435Z,,,,,,,,,,,,,,,,,53,,,,,,,,,,,,,,448.61499985694536,,response,,,,99,,,,,,,Space,keypress(Space),,,,,,,,---- -- ----- -- ------ - ------- --- ----------<br>------------- ------ ------ ---- ---- ------- ----- -- ----<br>-------- ------- -- ---------- --- - --- ----- ----- ----<br>---- --- --- ----- --- ---- ---- ------- ----- ---- -------<br>--- --- -- ----- -- --- ---- -- --- ---- -- ------ really<br>--- ----- -- ----,133555,133553.89999985695,133084.994,133098.29999995232,133105.285,133571.238,,51,really
screen,html.Screen,2_1_0_1_52,2022-02-15T15:55:01.860Z,,,,,,,,,,,,,,,,,53,,,,,,,,,,,,,,407.66199985693675,,response,,,,99,,,,,,,Space,keypress(Space),,,,,,,,---- -- ----- -- ------ - ------- --- ----------<br>------------- ------ ------ ---- ---- ------- ----- -- ----<br>-------- ------- -- ---------- --- - --- ----- ----- ----<br>---- --- --- ----- --- ---- ---- ------- ----- ---- -------<br>--- --- -- ----- -- --- ---- -- --- ---- -- ------ ------<br>not ----- -- ----,133980.29999995232,133978.89999985695,133555.242,133555.29999995232,133571.238,133986.095,,52,not
screen,html.Screen,2_1_0_1_53,2022-02-15T15:55:02.256Z,,,,,,,,,,,,,,,,,53,,,,,,,,,,,,,,389.2049999523151,,response,,,,99,,,,,,,Space,keypress(Space),,,,,,,,---- -- ----- -- ------ - ------- --- ----------<br>------------- ------ ------ ---- ---- ------- ----- -- ----<br>-------- ------- -- ---------- --- - --- ----- ----- ----<br>---- --- --- ----- --- ---- ---- ------- ----- ---- -------<br>--- --- -- ----- -- --- ---- -- --- ---- -- ------ ------<br>--- close -- ----,134376.39999985695,134375.29999995232,133976.824,133980.5,133986.095,134383.783,,53,close
screen,html.Screen,2_1_0_1_54,2022-02-15T15:55:02.668Z,,,,,,,,,,,,,,,,,53,,,,,,,,,,,,,,403.7170000000042,,response,,,,99,,,,,,,Space,keypress(Space),,,,,,,,---- -- ----- -- ------ - ------- --- ----------<br>------------- ------ ------ ---- ---- ------- ----- -- ----<br>-------- ------- -- ---------- --- - --- ----- ----- ----<br>---- --- --- ----- --- ---- ---- ------- ----- ---- -------<br>--- --- -- ----- -- --- ---- -- --- ---- -- ------ ------<br>--- ----- at ----,134788.69999980927,134787.5,134369.379,134376.69999980927,134383.783,134795.94,,54,at
screen,html.Screen,2_1_0_1_55,2022-02-15T15:55:04.204Z,,,,,,,,,,,,,,,,,53,,,,,,,,,,,,,,1527.0599999999977,,response,,,,99,,,,,,,Space,keypress(Space),,,,,,,,---- -- ----- -- ------ - ------- --- ----------<br>------------- ------ ------ ---- ---- ------- ----- -- ----<br>-------- ------- -- ---------- --- - --- ----- ----- ----<br>---- --- --- ----- --- ---- ---- ------- ----- ---- -------<br>--- --- -- ----- -- --- ---- -- --- ---- -- ------ ------<br>--- ----- -- all.,136324.29999995232,136323,134783.97,134788.89999985695,134795.94,136332.373,,55,all.
Item 99,flow.Loop,2_1_0_1,2022-02-15T15:55:04.204Z,,,,,,,,,,,,,,,,,,,,,,,,,,,,,,,22480.08,,completion,,,,,A,,,,,,,,,,,silence,,,,,136324.69999980927,136323,113793.273,113794.89999985695,113842.92,136332.373,,,
Question 1,html.Screen,2_1_0_2,2022-02-15T15:55:08.148Z,,,,,,,,,,,,,,,,,,,,,,,,,,,,true,FALSE,,3932.926999952324,,response,,,,99,A,,,,,,FALSE,click #choice-2,,,,silence,,,,,140268.79999995232,140265.29999995232,136311.804,136325,136332.373,140280.103,,,
Question 2,html.Screen,2_1_0_3,2022-02-15T15:55:12.351Z,,,,,,,,,,,,,,,,,,,,,,,,,,,,true,TRUE,,4188.1969999523135,,response,,,,99,A,,,,,,TRUE,click #choice-1,,,,silence,,,,,144471.29999995232,144468.29999995232,140263.502,140269.09999990463,140280.103,144486.365,,,
Item 99,flow.Sequence,2_1_0,2022-02-15T15:55:12.351Z,,,,,,,,,,,,,,,,,,,,,,,,,,,,,,,40651.83799995232,,completion,,,,,,,,,,,,,,,,,,,,,144471.89999985695,144468.29999995232,103799.944,103812,103816.462,144486.365,,,
Holding screen,html.Screen,2_1_1_0,2022-02-15T15:55:22.347Z,,,,,,,,,,,,,,,,,,,,,,,,,,,,,,,9996.638999999996,,timeout,,,,,,,,,,,,,,,,,,,,,154466.89999985695,154466.294,144469.682,144472.09999990463,144486.365,154483.004,,,
screen,html.Screen,2_1_1_1_0,2022-02-15T15:55:23.290Z,,,,,,,,,,,,,,,,,54,,,,,,,,,,,,,,926.5959999046463,,response,,,,100,,,,,,,Space,keypress(Space),,,,,,,,At --- ---- --- ------ ----- ------- ---- -- --- ------- --<br>------- ---------- ------ -- ----- -- ----- -- ---- ------<br>--- ----- --- --- ------ -------- ----- --- ------ ----- --<br>----- ----- ---------- --- --- ------ ------ ---- -- ------<br>------- --- ------ ----- --- ---- ------- -- ---- --- --<br>------- ------,155410.5,155409.59999990463,154466.294,154467.19999980927,154483.004,155417.593,,0,At
screen,html.Screen,2_1_1_1_1,2022-02-15T15:55:23.730Z,,,,,,,,,,,,,,,,,54,,,,,,,,,,,,,,432.5069999046391,,response,,,,100,,,,,,,Space,keypress(Space),,,,,,,,-- the ---- --- ------ ----- ------- ---- -- --- ------- --<br>------- ---------- ------ -- ----- -- ----- -- ---- ------<br>--- ----- --- --- ------ -------- ----- --- ------ ----- --<br>----- ----- ---------- --- --- ------ ------ ---- -- ------<br>------- --- ------ ----- --- ---- ------- -- ---- --- --<br>------- ------,155850.5,155850.09999990463,155399.75,155410.69999980927,155417.593,155867.401,,1,the
screen,html.Screen,2_1_1_1_2,2022-02-15T15:55:24.228Z,,,,,,,,,,,,,,,,,54,,,,,,,,,,,,,,479.5989999999874,,response,,,,100,,,,,,,Space,keypress(Space),,,,,,,,-- --- time --- ------ ----- ------- ---- -- --- ------- --<br>------- ---------- ------ -- ----- -- ----- -- ---- ------<br>--- ----- --- --- ------ -------- ----- --- ------ ----- --<br>----- ----- ---------- --- --- ------ ------ ---- -- ------<br>------- --- ------ ----- --- ---- ------- -- ---- --- --<br>------- ------,156348.29999995232,156347,155850.659,155850.59999990463,155867.401,156353.275,,2,time
screen,html.Screen,2_1_1_1_3,2022-02-15T15:55:24.610Z,,,,,,,,,,,,,,,,,54,,,,,,,,,,,,,,375.8249999046384,,response,,,,100,,,,,,,Space,keypress(Space),,,,,,,,-- --- ---- the ------ ----- ------- ---- -- --- ------- --<br>------- ---------- ------ -- ----- -- ----- -- ---- ------<br>--- ----- --- --- ------ -------- ----- --- ------ ----- --<br>----- ----- ---------- --- --- ------ ------ ---- -- ------<br>------- --- ------ ----- --- ---- ------- -- ---- --- --<br>------- ------,156730.29999995232,156729.09999990463,156333.743,156348.59999990463,156353.275,156737.851,,3,the
screen,html.Screen,2_1_1_1_4,2022-02-15T15:55:25.051Z,,,,,,,,,,,,,,,,,54,,,,,,,,,,,,,,432.6490000000049,,response,,,,100,,,,,,,Space,keypress(Space),,,,,,,,-- --- ---- --- French ----- ------- ---- -- --- ------- --<br>------- ---------- ------ -- ----- -- ----- -- ---- ------<br>--- ----- --- --- ------ -------- ----- --- ------ ----- --<br>----- ----- ---------- --- --- ------ ------ ---- -- ------<br>------- --- ------ ----- --- ---- ------- -- ---- --- --<br>------- ------,157171.69999980927,157170.5,156720.249,156730.69999980927,156737.851,157179.076,,4,French
screen,html.Screen,2_1_1_1_5,2022-02-15T15:55:25.386Z,,,,,,,,,,,,,,,,,54,,,,,,,,,,,,,,326.1239998092642,,response,,,,100,,,,,,,Space,keypress(Space),,,,,,,,-- --- ---- --- ------ crown ------- ---- -- --- ------- --<br>------- ---------- ------ -- ----- -- ----- -- ---- ------<br>--- ----- --- --- ------ -------- ----- --- ------ ----- --<br>----- ----- ---------- --- --- ------ ------ ---- -- ------<br>------- --- ------ ----- --- ---- ------- -- ---- --- --<br>------- ------,157506.39999985695,157505.19999980927,157171.032,157172,157179.076,157513.664,,5,crown
screen,html.Screen,2_1_1_1_6,2022-02-15T15:55:25.849Z,,,,,,,,,,,,,,,,,54,,,,,,,,,,,,,,454.63599995232653,,response,,,,100,,,,,,,Space,keypress(Space),,,,,,,,-- --- ---- --- ------ ----- secured ---- -- --- ------- --<br>------- ---------- ------ -- ----- -- ----- -- ---- ------<br>--- ----- --- --- ------ -------- ----- --- ------ ----- --<br>----- ----- ---------- --- --- ------ ------ ---- -- ------<br>------- --- ------ ----- --- ---- ------- -- ---- --- --<br>------- ------,157969.5,157968.29999995232,157496.088,157506.59999990463,157513.664,157981.184,,6,secured
screen,html.Screen,2_1_1_1_7,2022-02-15T15:55:26.328Z,,,,,,,,,,,,,,,,,54,,,,,,,,,,,,,,465.71599985694047,,response,,,,100,,,,,,,Space,keypress(Space),,,,,,,,-- --- ---- --- ------ ----- ------- much -- --- ------- --<br>------- ---------- ------ -- ----- -- ----- -- ---- ------<br>--- ----- --- --- ------ -------- ----- --- ------ ----- --<br>----- ----- ---------- --- --- ------ ------ ---- -- ------<br>------- --- ------ ----- --- ---- ------- -- ---- --- --<br>------- ------,158448.19999980927,158446.89999985695,157963.687,157969.79999995232,157981.184,158452.102,,7,much
screen,html.Screen,2_1_1_1_8,2022-02-15T15:55:26.833Z,,,,,,,,,,,,,,,,,54,,,,,,,,,,,,,,499.8979999999865,,response,,,,100,,,,,,,Space,keypress(Space),,,,,,,,-- --- ---- --- ------ ----- ------- ---- of --- ------- --<br>------- ---------- ------ -- ----- -- ----- -- ---- ------<br>--- ----- --- --- ------ -------- ----- --- ------ ----- --<br>----- ----- ---------- --- --- ------ ------ ---- -- ------<br>------- --- ------ ----- --- ---- ------- -- ---- --- --<br>------- ------,158953.09999990463,158952,158448.208,158448.39999985695,158452.102,158970.546,,8,of
screen,html.Screen,2_1_1_1_9,2022-02-15T15:55:27.202Z,,,,,,,,,,,,,,,,,54,,,,,,,,,,,,,,350.4539999999979,,response,,,,100,,,,,,,Space,keypress(Space),,,,,,,,-- --- ---- --- ------ ----- ------- ---- -- its ------- --<br>------- ---------- ------ -- ----- -- ----- -- ---- ------<br>--- ----- --- --- ------ -------- ----- --- ------ ----- --<br>----- ----- ---------- --- --- ------ ------ ---- -- ------<br>------- --- ------ ----- --- ---- ------- -- ---- --- --<br>------- ------,159322,159321,158952.247,158953.39999985695,158970.546,159329.202,,9,its
screen,html.Screen,2_1_1_1_10,2022-02-15T15:55:27.606Z,,,,,,,,,,,,,,,,,54,,,,,,,,,,,,,,395.89799990464235,,response,,,,100,,,,,,,Space,keypress(Space),,,,,,,,-- --- ---- --- ------ ----- ------- ---- -- --- revenue --<br>------- ---------- ------ -- ----- -- ----- -- ---- ------<br>--- ----- --- --- ------ -------- ----- --- ------ ----- --<br>----- ----- ---------- --- --- ------ ------ ---- -- ------<br>------- --- ------ ----- --- ---- ------- -- ---- --- --<br>------- ------,159726.19999980927,159725.09999990463,159320.481,159322.29999995232,159329.202,159733.573,,10,revenue
screen,html.Screen,2_1_1_1_11,2022-02-15T15:55:28.017Z,,,,,,,,,,,,,,,,,54,,,,,,,,,,,,,,401.8269998569449,,response,,,,100,,,,,,,Space,keypress(Space),,,,,,,,-- --- ---- --- ------ ----- ------- ---- -- --- ------- by<br>------- ---------- ------ -- ----- -- ----- -- ---- ------<br>--- ----- --- --- ------ -------- ----- --- ------ ----- --<br>----- ----- ---------- --- --- ------ ------ ---- -- ------<br>------- --- ------ ----- --- ---- ------- -- ---- --- --<br>------- ------,160136.59999990463,160135.39999985695,159712.806,159726.5,159733.573,160151.971,,11,by
screen,html.Screen,2_1_1_1_12,2022-02-15T15:55:28.693Z,,,,,,,,,,,,,,,,,54,,,,,,,,,,,,,,659.4289998569584,,response,,,,100,,,,,,,Space,keypress(Space),,,,,,,,-- --- ---- --- ------ ----- ------- ---- -- --- ------- --<br>issuing ---------- ------ -- ----- -- ----- -- ---- ------<br>--- ----- --- --- ------ -------- ----- --- ------ ----- --<br>----- ----- ---------- --- --- ------ ------ ---- -- ------<br>------- --- ------ ----- --- ---- ------- -- ---- --- --<br>------- ------,160812.39999985695,160811.39999985695,160133.861,160136.89999985695,160151.971,160819.742,,12,issuing
screen,html.Screen,2_1_1_1_13,2022-02-15T15:55:29.277Z,,,,,,,,,,,,,,,,,54,,,,,,,,,,,,,,576.1579998569505,,response,,,,100,,,,,,,Space,keypress(Space),,,,,,,,-- --- ---- --- ------ ----- ------- ---- -- --- ------- --<br>------- government ------ -- ----- -- ----- -- ---- ------<br>--- ----- --- --- ------ -------- ----- --- ------ ----- --<br>----- ----- ---------- --- --- ------ ------ ---- -- ------<br>------- --- ------ ----- --- ---- ------- -- ---- --- --<br>------- ------,161397,161395.89999985695,160801.852,160812.69999980927,160819.742,161404.396,,13,government
screen,html.Screen,2_1_1_1_14,2022-02-15T15:55:30.116Z,,,,,,,,,,,,,,,,,54,,,,,,,,,,,,,,830.5039998569409,,response,,,,100,,,,,,,Space,keypress(Space),,,,,,,,-- --- ---- --- ------ ----- ------- ---- -- --- ------- --<br>------- ---------- bonds. -- ----- -- ----- -- ---- ------<br>--- ----- --- --- ------ -------- ----- --- ------ ----- --<br>----- ----- ---------- --- --- ------ ------ ---- -- ------<br>------- --- ------ ----- --- ---- ------- -- ---- --- --<br>------- ------,162236.19999980927,162234.89999985695,161386.422,161397.29999995232,161404.396,162240.016,,14,bonds.
screen,html.Screen,2_1_1_1_15,2022-02-15T15:55:30.540Z,,,,,,,,,,,,,,,,,54,,,,,,,,,,,,,,419.0839999046293,,response,,,,100,,,,,,,Space,keypress(Space),,,,,,,,-- --- ---- --- ------ ----- ------- ---- -- --- ------- --<br>------- ---------- ------ In ----- -- ----- -- ---- ------<br>--- ----- --- --- ------ -------- ----- --- ------ ----- --<br>----- ----- ---------- --- --- ------ ------ ---- -- ------<br>------- --- ------ ----- --- ---- ------- -- ---- --- --<br>------- ------,162660.19999980927,162659.09999990463,162221.313,162236.5,162240.016,162675.676,,15,In
screen,html.Screen,2_1_1_1_16,2022-02-15T15:55:31.158Z,,,,,,,,,,,,,,,,,54,,,,,,,,,,,,,,600.7239998569421,,response,,,,100,,,,,,,Space,keypress(Space),,,,,,,,"-- --- ---- --- ------ ----- ------- ---- -- --- ------- --<br>------- ---------- ------ -- 1727, -- ----- -- ---- ------<br>--- ----- --- --- ------ -------- ----- --- ------ ----- --<br>----- ----- ---------- --- --- ------ ------ ---- -- ------<br>------- --- ------ ----- --- ---- ------- -- ---- --- --<br>------- ------",163277.59999990463,163276.39999985695,162656.813,162660.5,162675.676,163287.298,,16,"1727,"
screen,html.Screen,2_1_1_1_17,2022-02-15T15:55:31.585Z,,,,,,,,,,,,,,,,,54,,,,,,,,,,,,,,416.2019999999902,,response,,,,100,,,,,,,Space,keypress(Space),,,,,,,,-- --- ---- --- ------ ----- ------- ---- -- --- ------- --<br>------- ---------- ------ -- ----- in ----- -- ---- ------<br>--- ----- --- --- ------ -------- ----- --- ------ ----- --<br>----- ----- ---------- --- --- ------ ------ ---- -- ------<br>------- --- ------ ----- --- ---- ------- -- ---- --- --<br>------- ------,163704.5,163703.5,163275.659,163277.69999980927,163287.298,163723.956,,17,in
screen,html.Screen,2_1_1_1_18,2022-02-15T15:55:32.408Z,,,,,,,,,,,,,,,,,54,,,,,,,,,,,,,,802.9439998569433,,response,,,,100,,,,,,,Space,keypress(Space),,,,,,,,-- --- ---- --- ------ ----- ------- ---- -- --- ------- --<br>------- ---------- ------ -- ----- -- order -- ---- ------<br>--- ----- --- --- ------ -------- ----- --- ------ ----- --<br>----- ----- ---------- --- --- ------ ------ ---- -- ------<br>------- --- ------ ----- --- ---- ------- -- ---- --- --<br>------- ------,164528,164526.89999985695,163703.85,163704.79999995232,163723.956,164535.35,,18,order
screen,html.Screen,2_1_1_1_19,2022-02-15T15:55:33.109Z,,,,,,,,,,,,,,,,,54,,,,,,,,,,,,,,692.6499999999942,,response,,,,100,,,,,,,Space,keypress(Space),,,,,,,,-- --- ---- --- ------ ----- ------- ---- -- --- ------- --<br>------- ---------- ------ -- ----- -- ----- to ---- ------<br>--- ----- --- --- ------ -------- ----- --- ------ ----- --<br>----- ----- ---------- --- --- ------ ------ ---- -- ------<br>------- --- ------ ----- --- ---- ------- -- ---- --- --<br>------- ------,165229.29999995232,165228,164523.287,164528.29999995232,164535.35,165236.533,,19,to
screen,html.Screen,2_1_1_1_20,2022-02-15T15:55:33.500Z,,,,,,,,,,,,,,,,,54,,,,,,,,,,,,,,382.2669999523205,,response,,,,100,,,,,,,Space,keypress(Space),,,,,,,,-- --- ---- --- ------ ----- ------- ---- -- --- ------- --<br>------- ---------- ------ -- ----- -- ----- -- save ------<br>--- ----- --- --- ------ -------- ----- --- ------ ----- --<br>----- ----- ---------- --- --- ------ ------ ---- -- ------<br>------- --- ------ ----- --- ---- ------- -- ---- --- --<br>------- ------,165620,165618.79999995232,165219.008,165229.5,165236.533,165627.42,,20,save
screen,html.Screen,2_1_1_1_21,2022-02-15T15:55:33.928Z,,,,,,,,,,,,,,,,,54,,,,,,,,,,,,,,419.3799999523035,,response,,,,100,,,,,,,Space,keypress(Space),,,,,,,,"-- --- ---- --- ------ ----- ------- ---- -- --- ------- --<br>------- ---------- ------ -- ----- -- ----- -- ---- money,<br>--- ----- --- --- ------ -------- ----- --- ------ ----- --<br>----- ----- ---------- --- --- ------ ------ ---- -- ------<br>------- --- ------ ----- --- ---- ------- -- ---- --- --<br>------- ------",166047.79999995232,166046.79999995232,165620.008,165620.29999995232,165627.42,166054.602,,21,"money,"
screen,html.Screen,2_1_1_1_22,2022-02-15T15:55:34.352Z,,,,,,,,,,,,,,,,,54,,,,,,,,,,,,,,416.3979999999865,,response,,,,100,,,,,,,Space,keypress(Space),,,,,,,,-- --- ---- --- ------ ----- ------- ---- -- --- ------- --<br>------- ---------- ------ -- ----- -- ----- -- ---- ------<br>the ----- --- --- ------ -------- ----- --- ------ ----- --<br>----- ----- ---------- --- --- ------ ------ ---- -- ------<br>------- --- ------ ----- --- ---- ------- -- ---- --- --<br>------- ------,166472,166471,166044.085,166047.89999985695,166054.602,166478.651,,22,the
screen,html.Screen,2_1_1_1_23,2022-02-15T15:55:34.678Z,,,,,,,,,,,,,,,,,54,,,,,,,,,,,,,,318.44899990462,,response,,,,100,,,,,,,Space,keypress(Space),,,,,,,,-- --- ---- --- ------ ----- ------- ---- -- --- ------- --<br>------- ---------- ------ -- ----- -- ----- -- ---- ------<br>--- state --- --- ------ -------- ----- --- ------ ----- --<br>----- ----- ---------- --- --- ------ ------ ---- -- ------<br>------- --- ------ ----- --- ---- ------- -- ---- --- --<br>------- ------,166798.19999980927,166797.09999990463,166471.035,166472.39999985695,166478.651,166805.611,,23,state
screen,html.Screen,2_1_1_1_24,2022-02-15T15:55:35.035Z,,,,,,,,,,,,,,,,,54,,,,,,,,,,,,,,347.5889998092607,,response,,,,100,,,,,,,Space,keypress(Space),,,,,,,,-- --- ---- --- ------ ----- ------- ---- -- --- ------- --<br>------- ---------- ------ -- ----- -- ----- -- ---- ------<br>--- ----- cut --- ------ -------- ----- --- ------ ----- --<br>----- ----- ---------- --- --- ------ ------ ---- -- ------<br>------- --- ------ ----- --- ---- ------- -- ---- --- --<br>------- ------,167154.39999985695,167153.19999980927,166795.416,166798.5,166805.611,167161.913,,24,cut
screen,html.Screen,2_1_1_1_25,2022-02-15T15:55:35.399Z,,,,,,,,,,,,,,,,,54,,,,,,,,,,,,,,355.58699999999953,,response,,,,100,,,,,,,Space,keypress(Space),,,,,,,,-- --- ---- --- ------ ----- ------- ---- -- --- ------- --<br>------- ---------- ------ -- ----- -- ----- -- ---- ------<br>--- ----- --- the ------ -------- ----- --- ------ ----- --<br>----- ----- ---------- --- --- ------ ------ ---- -- ------<br>------- --- ------ ----- --- ---- ------- -- ---- --- --<br>------- ------,167518.59999990463,167517.5,167155.833,167154.69999980927,167161.913,167535.597,,25,the
screen,html.Screen,2_1_1_1_26,2022-02-15T15:55:35.735Z,,,,,,,,,,,,,,,,,54,,,,,,,,,,,,,,318.1029998092563,,response,,,,100,,,,,,,Space,keypress(Space),,,,,,,,-- --- ---- --- ------ ----- ------- ---- -- --- ------- --<br>------- ---------- ------ -- ----- -- ----- -- ---- ------<br>--- ----- --- --- bonds' -------- ----- --- ------ ----- --<br>----- ----- ---------- --- --- ------ ------ ---- -- ------<br>------- --- ------ ----- --- ---- ------- -- ---- --- --<br>------- ------,167855,167853.69999980927,167512.209,167518.89999985695,167535.597,167862.291,,26,bonds'
screen,html.Screen,2_1_1_1_27,2022-02-15T15:55:36.361Z,,,,,,,,,,,,,,,,,54,,,,,,,,,,,,,,617.3089999046351,,response,,,,100,,,,,,,Space,keypress(Space),,,,,,,,-- --- ---- --- ------ ----- ------- ---- -- --- ------- --<br>------- ---------- ------ -- ----- -- ----- -- ---- ------<br>--- ----- --- --- ------ interest ----- --- ------ ----- --<br>----- ----- ---------- --- --- ------ ------ ---- -- ------<br>------- --- ------ ----- --- ---- ------- -- ---- --- --<br>------- ------,168480.79999995232,168479.59999990463,167852.035,167855.19999980927,167862.291,168495.837,,27,interest
screen,html.Screen,2_1_1_1_28,2022-02-15T15:55:36.962Z,,,,,,,,,,,,,,,,,54,,,,,,,,,,,,,,585.0629998569493,,response,,,,100,,,,,,,Space,keypress(Space),,,,,,,,-- --- ---- --- ------ ----- ------- ---- -- --- ------- --<br>------- ---------- ------ -- ----- -- ----- -- ---- ------<br>--- ----- --- --- ------ -------- rate. --- ------ ----- --<br>----- ----- ---------- --- --- ------ ------ ---- -- ------<br>------- --- ------ ----- --- ---- ------- -- ---- --- --<br>------- ------,169082.09999990463,169080.89999985695,168479.016,168481.09999990463,168495.837,169097.205,,28,rate.
screen,html.Screen,2_1_1_1_29,2022-02-15T15:55:37.538Z,,,,,,,,,,,,,,,,,54,,,,,,,,,,,,,,559.9949998092779,,response,,,,100,,,,,,,Space,keypress(Space),,,,,,,,-- --- ---- --- ------ ----- ------- ---- -- --- ------- --<br>------- ---------- ------ -- ----- -- ----- -- ---- ------<br>--- ----- --- --- ------ -------- ----- The ------ ----- --<br>----- ----- ---------- --- --- ------ ------ ---- -- ------<br>------- --- ------ ----- --- ---- ------- -- ---- --- --<br>------- ------,169658.29999995232,169657.19999980927,169079.669,169082.39999985695,169097.205,169666.979,,29,The
screen,html.Screen,2_1_1_1_30,2022-02-15T15:55:38.505Z,,,,,,,,,,,,,,,,,54,,,,,,,,,,,,,,956.4209998569568,,response,,,,100,,,,,,,Space,keypress(Space),,,,,,,,-- --- ---- --- ------ ----- ------- ---- -- --- ------- --<br>------- ---------- ------ -- ----- -- ----- -- ---- ------<br>--- ----- --- --- ------ -------- ----- --- market ----- --<br>----- ----- ---------- --- --- ------ ------ ---- -- ------<br>------- --- ------ ----- --- ---- ------- -- ---- --- --<br>------- ------,170624.69999980927,170623.39999985695,169646.982,169658.5,169666.979,170641.217,,30,market
screen,html.Screen,2_1_1_1_31,2022-02-15T15:55:39.151Z,,,,,,,,,,,,,,,,,54,,,,,,,,,,,,,,628.5829999523121,,response,,,,100,,,,,,,Space,keypress(Space),,,,,,,,-- --- ---- --- ------ ----- ------- ---- -- --- ------- --<br>------- ---------- ------ -- ----- -- ----- -- ---- ------<br>--- ----- --- --- ------ -------- ----- --- ------ value --<br>----- ----- ---------- --- --- ------ ------ ---- -- ------<br>------- --- ------ ----- --- ---- ------- -- ---- --- --<br>------- ------,171270.39999985695,171269.79999995232,170616.735,170625,170641.217,171276.945,,31,value
screen,html.Screen,2_1_1_1_32,2022-02-15T15:55:39.596Z,,,,,,,,,,,,,,,,,54,,,,,,,,,,,,,,437.8549999523093,,response,,,,100,,,,,,,Space,keypress(Space),,,,,,,,-- --- ---- --- ------ ----- ------- ---- -- --- ------- --<br>------- ---------- ------ -- ----- -- ----- -- ---- ------<br>--- ----- --- --- ------ -------- ----- --- ------ ----- of<br>----- ----- ---------- --- --- ------ ------ ---- -- ------<br>------- --- ------ ----- --- ---- ------- -- ---- --- --<br>------- ------,171715.59999990463,171714.79999995232,171257.953,171270.5,171276.945,171719.382,,32,of
screen,html.Screen,2_1_1_1_33,2022-02-15T15:55:40.003Z,,,,,,,,,,,,,,,,,54,,,,,,,,,,,,,,402.5179998569365,,response,,,,100,,,,,,,Space,keypress(Space),,,,,,,,-- --- ---- --- ------ ----- ------- ---- -- --- ------- --<br>------- ---------- ------ -- ----- -- ----- -- ---- ------<br>--- ----- --- --- ------ -------- ----- --- ------ ----- --<br>these ----- ---------- --- --- ------ ------ ---- -- ------<br>------- --- ------ ----- --- ---- ------- -- ---- --- --<br>------- ------,172123.19999980927,172121.89999985695,171710.048,171715.79999995232,171719.382,172130.636,,33,these
screen,html.Screen,2_1_1_1_34,2022-02-15T15:55:40.330Z,,,,,,,,,,,,,,,,,54,,,,,,,,,,,,,,318.26399985695025,,response,,,,100,,,,,,,Space,keypress(Space),,,,,,,,-- --- ---- --- ------ ----- ------- ---- -- --- ------- --<br>------- ---------- ------ -- ----- -- ----- -- ---- ------<br>--- ----- --- --- ------ -------- ----- --- ------ ----- --<br>----- bonds ---------- --- --- ------ ------ ---- -- ------<br>------- --- ------ ----- --- ---- ------- -- ---- --- --<br>------- ------,172449.69999980927,172448.89999985695,172119.698,172123.5,172130.636,172456.71,,34,bonds
screen,html.Screen,2_1_1_1_35,2022-02-15T15:55:40.807Z,,,,,,,,,,,,,,,,,54,,,,,,,,,,,,,,469.189999856957,,response,,,,100,,,,,,,Space,keypress(Space),,,,,,,,"-- --- ---- --- ------ ----- ------- ---- -- --- ------- --<br>------- ---------- ------ -- ----- -- ----- -- ---- ------<br>--- ----- --- --- ------ -------- ----- --- ------ ----- --<br>----- ----- plummeted, --- --- ------ ------ ---- -- ------<br>------- --- ------ ----- --- ---- ------- -- ---- --- --<br>------- ------",172927,172925.89999985695,172447.335,172449.79999995232,172456.71,172934.543,,35,"plummeted,"
screen,html.Screen,2_1_1_1_36,2022-02-15T15:55:41.301Z,,,,,,,,,,,,,,,,,54,,,,,,,,,,,,,,484.75699995231116,,response,,,,100,,,,,,,Space,keypress(Space),,,,,,,,-- --- ---- --- ------ ----- ------- ---- -- --- ------- --<br>------- ---------- ------ -- ----- -- ----- -- ---- ------<br>--- ----- --- --- ------ -------- ----- --- ------ ----- --<br>----- ----- ---------- and --- ------ ------ ---- -- ------<br>------- --- ------ ----- --- ---- ------- -- ---- --- --<br>------- ------,173420.5,173419.29999995232,172923.186,172927.19999980927,172934.543,173426.075,,36,and
screen,html.Screen,2_1_1_1_37,2022-02-15T15:55:41.603Z,,,,,,,,,,,,,,,,,54,,,,,,,,,,,,,,295.8249998569372,,response,,,,100,,,,,,,Space,keypress(Space),,,,,,,,-- --- ---- --- ------ ----- ------- ---- -- --- ------- --<br>------- ---------- ------ -- ----- -- ----- -- ---- ------<br>--- ----- --- --- ------ -------- ----- --- ------ ----- --<br>----- ----- ---------- --- the ------ ------ ---- -- ------<br>------- --- ------ ----- --- ---- ------- -- ---- --- --<br>------- ------,173723.09999990463,173721.89999985695,173417.751,173420.79999995232,173426.075,173730.414,,37,the
screen,html.Screen,2_1_1_1_38,2022-02-15T15:55:42.094Z,,,,,,,,,,,,,,,,,54,,,,,,,,,,,,,,482.58600000001024,,response,,,,100,,,,,,,Space,keypress(Space),,,,,,,,-- --- ---- --- ------ ----- ------- ---- -- --- ------- --<br>------- ---------- ------ -- ----- -- ----- -- ---- ------<br>--- ----- --- --- ------ -------- ----- --- ------ ----- --<br>----- ----- ---------- --- --- market ------ ---- -- ------<br>------- --- ------ ----- --- ---- ------- -- ---- --- --<br>------- ------,174214.19999980927,174213,173715.104,173723.39999985695,173730.414,174221.511,,38,market
screen,html.Screen,2_1_1_1_39,2022-02-15T15:55:42.685Z,,,,,,,,,,,,,,,,,54,,,,,,,,,,,,,,582.6889998092665,,response,,,,100,,,,,,,Space,keypress(Space),,,,,,,,-- --- ---- --- ------ ----- ------- ---- -- --- ------- --<br>------- ---------- ------ -- ----- -- ----- -- ---- ------<br>--- ----- --- --- ------ -------- ----- --- ------ ----- --<br>----- ----- ---------- --- --- ------ became ---- -- ------<br>------- --- ------ ----- --- ---- ------- -- ---- --- --<br>------- ------,174805.19999980927,174804.19999980927,174213.723,174214.39999985695,174221.511,174812.208,,39,became
screen,html.Screen,2_1_1_1_40,2022-02-15T15:55:43.104Z,,,,,,,,,,,,,,,,,54,,,,,,,,,,,,,,409.8919999046193,,response,,,,100,,,,,,,Space,keypress(Space),,,,,,,,-- --- ---- --- ------ ----- ------- ---- -- --- ------- --<br>------- ---------- ------ -- ----- -- ----- -- ---- ------<br>--- ----- --- --- ------ -------- ----- --- ------ ----- --<br>----- ----- ---------- --- --- ------ ------ wary -- ------<br>------- --- ------ ----- --- ---- ------- -- ---- --- --<br>------- ------,175223.29999995232,175222.09999990463,174804.746,174805.29999995232,174812.208,175231.143,,40,wary
screen,html.Screen,2_1_1_1_41,2022-02-15T15:55:43.416Z,,,,,,,,,,,,,,,,,54,,,,,,,,,,,,,,303.65699995230534,,response,,,,100,,,,,,,Space,keypress(Space),,,,,,,,-- --- ---- --- ------ ----- ------- ---- -- --- ------- --<br>------- ---------- ------ -- ----- -- ----- -- ---- ------<br>--- ----- --- --- ------ -------- ----- --- ------ ----- --<br>----- ----- ---------- --- --- ------ ------ ---- of ------<br>------- --- ------ ----- --- ---- ------- -- ---- --- --<br>------- ------,175535.89999985695,175534.79999995232,175212.287,175223.69999980927,175231.143,175547.976,,41,of
screen,html.Screen,2_1_1_1_42,2022-02-15T15:55:43.878Z,,,,,,,,,,,,,,,,,54,,,,,,,,,,,,,,448.62399990463746,,response,,,,100,,,,,,,Space,keypress(Space),,,,,,,,-- --- ---- --- ------ ----- ------- ---- -- --- ------- --<br>------- ---------- ------ -- ----- -- ----- -- ---- ------<br>--- ----- --- --- ------ -------- ----- --- ------ ----- --<br>----- ----- ---------- --- --- ------ ------ ---- -- French<br>------- --- ------ ----- --- ---- ------- -- ---- --- --<br>------- ------,175997.89999985695,175996.59999990463,175531.321,175536.19999980927,175547.976,176006.257,,42,French
screen,html.Screen,2_1_1_1_43,2022-02-15T15:55:44.436Z,,,,,,,,,,,,,,,,,54,,,,,,,,,,,,,,548.8429999046202,,response,,,,100,,,,,,,Space,keypress(Space),,,,,,,,-- --- ---- --- ------ ----- ------- ---- -- --- ------- --<br>------- ---------- ------ -- ----- -- ----- -- ---- ------<br>--- ----- --- --- ------ -------- ----- --- ------ ----- --<br>----- ----- ---------- --- --- ------ ------ ---- -- ------<br>credit. --- ------ ----- --- ---- ------- -- ---- --- --<br>------- ------,176556.19999980927,176555.09999990463,175986.735,175998.09999990463,176006.257,176566.495,,43,credit.
screen,html.Screen,2_1_1_1_44,2022-02-15T15:55:44.853Z,,,,,,,,,,,,,,,,,54,,,,,,,,,,,,,,405.80499995232094,,response,,,,100,,,,,,,Space,keypress(Space),,,,,,,,-- --- ---- --- ------ ----- ------- ---- -- --- ------- --<br>------- ---------- ------ -- ----- -- ----- -- ---- ------<br>--- ----- --- --- ------ -------- ----- --- ------ ----- --<br>----- ----- ---------- --- --- ------ ------ ---- -- ------<br>------- The ------ ----- --- ---- ------- -- ---- --- --<br>------- ------,176973,176972.29999995232,176556.543,176556.59999990463,176566.495,176985.494,,44,The
screen,html.Screen,2_1_1_1_45,2022-02-15T15:55:45.145Z,,,,,,,,,,,,,,,,,54,,,,,,,,,,,,,,278.50599999999395,,response,,,,100,,,,,,,Space,keypress(Space),,,,,,,,-- --- ---- --- ------ ----- ------- ---- -- --- ------- --<br>------- ---------- ------ -- ----- -- ----- -- ---- ------<br>--- ----- --- --- ------ -------- ----- --- ------ ----- --<br>----- ----- ---------- --- --- ------ ------ ---- -- ------<br>------- --- French ----- --- ---- ------- -- ---- --- --<br>------- ------,177265.19999980927,177264,176966.727,176973.19999980927,176985.494,177272.567,,45,French
screen,html.Screen,2_1_1_1_46,2022-02-15T15:55:45.674Z,,,,,,,,,,,,,,,,,54,,,,,,,,,,,,,,520.0329999046226,,response,,,,100,,,,,,,Space,keypress(Space),,,,,,,,-- --- ---- --- ------ ----- ------- ---- -- --- ------- --<br>------- ---------- ------ -- ----- -- ----- -- ---- ------<br>--- ----- --- --- ------ -------- ----- --- ------ ----- --<br>----- ----- ---------- --- --- ------ ------ ---- -- ------<br>------- --- ------ state --- ---- ------- -- ---- --- --<br>------- ------,177793.69999980927,177792.59999990463,177252.456,177265.5,177272.567,177800.983,,46,state
screen,html.Screen,2_1_1_1_47,2022-02-15T15:55:46.038Z,,,,,,,,,,,,,,,,,54,,,,,,,,,,,,,,355.2169998092577,,response,,,,100,,,,,,,Space,keypress(Space),,,,,,,,-- --- ---- --- ------ ----- ------- ---- -- --- ------- --<br>------- ---------- ------ -- ----- -- ----- -- ---- ------<br>--- ----- --- --- ------ -------- ----- --- ------ ----- --<br>----- ----- ---------- --- --- ------ ------ ---- -- ------<br>------- --- ------ ----- was ---- ------- -- ---- --- --<br>------- ------,178157.39999985695,178156.19999980927,177789.286,177793.89999985695,177800.983,178161.298,,47,was
screen,html.Screen,2_1_1_1_48,2022-02-15T15:55:46.252Z,,,,,,,,,,,,,,,,,54,,,,,,,,,,,,,,209.10199985693907,,response,,,,100,,,,,,,Space,keypress(Space),,,,,,,,-- --- ---- --- ------ ----- ------- ---- -- --- ------- --<br>------- ---------- ------ -- ----- -- ----- -- ---- ------<br>--- ----- --- --- ------ -------- ----- --- ------ ----- --<br>----- ----- ---------- --- --- ------ ------ ---- -- ------<br>------- --- ------ ----- --- left ------- -- ---- --- --<br>------- ------,178371.59999990463,178370.39999985695,178150.943,178157.69999980927,178161.298,178378.956,,48,left
screen,html.Screen,2_1_1_1_49,2022-02-15T15:55:46.681Z,,,,,,,,,,,,,,,,,54,,,,,,,,,,,,,,420.143999904627,,response,,,,100,,,,,,,Space,keypress(Space),,,,,,,,-- --- ---- --- ------ ----- ------- ---- -- --- ------- --<br>------- ---------- ------ -- ----- -- ----- -- ---- ------<br>--- ----- --- --- ------ -------- ----- --- ------ ----- --<br>----- ----- ---------- --- --- ------ ------ ---- -- ------<br>------- --- ------ ----- --- ---- without -- ---- --- --<br>------- ------,178800.39999985695,178799.09999990463,178361.5,178371.79999995232,178378.956,178807.808,,49,without
screen,html.Screen,2_1_1_1_50,2022-02-15T15:55:47.007Z,,,,,,,,,,,,,,,,,54,,,,,,,,,,,,,,317.4919999523263,,response,,,,100,,,,,,,Space,keypress(Space),,,,,,,,-- --- ---- --- ------ ----- ------- ---- -- --- ------- --<br>------- ---------- ------ -- ----- -- ----- -- ---- ------<br>--- ----- --- --- ------ -------- ----- --- ------ ----- --<br>----- ----- ---------- --- --- ------ ------ ---- -- ------<br>------- --- ------ ----- --- ---- ------- an ---- --- --<br>------- ------,179126.5,179125.29999995232,178795.669,178800.59999990463,178807.808,179139.703,,50,an
screen,html.Screen,2_1_1_1_51,2022-02-15T15:55:47.268Z,,,,,,,,,,,,,,,,,54,,,,,,,,,,,,,,246.89699990462395,,response,,,,100,,,,,,,Space,keypress(Space),,,,,,,,-- --- ---- --- ------ ----- ------- ---- -- --- ------- --<br>------- ---------- ------ -- ----- -- ----- -- ---- ------<br>--- ----- --- --- ------ -------- ----- --- ------ ----- --<br>----- ----- ---------- --- --- ------ ------ ---- -- ------<br>------- --- ------ ----- --- ---- ------- -- easy --- --<br>------- ------,179387.69999980927,179386.59999990463,179124.417,179126.79999995232,179139.703,179395.019,,51,easy
screen,html.Screen,2_1_1_1_52,2022-02-15T15:55:47.683Z,,,,,,,,,,,,,,,,,54,,,,,,,,,,,,,,406.8809998569486,,response,,,,100,,,,,,,Space,keypress(Space),,,,,,,,-- --- ---- --- ------ ----- ------- ---- -- --- ------- --<br>------- ---------- ------ -- ----- -- ----- -- ---- ------<br>--- ----- --- --- ------ -------- ----- --- ------ ----- --<br>----- ----- ---------- --- --- ------ ------ ---- -- ------<br>------- --- ------ ----- --- ---- ------- -- ---- way --<br>------- ------,179803.09999990463,179801.89999985695,179373.331,179388,179395.019,179810.577,,52,way
screen,html.Screen,2_1_1_1_53,2022-02-15T15:55:48.070Z,,,,,,,,,,,,,,,,,54,,,,,,,,,,,,,,378.52299990464235,,response,,,,100,,,,,,,Space,keypress(Space),,,,,,,,-- --- ---- --- ------ ----- ------- ---- -- --- ------- --<br>------- ---------- ------ -- ----- -- ----- -- ---- ------<br>--- ----- --- --- ------ -------- ----- --- ------ ----- --<br>----- ----- ---------- --- --- ------ ------ ---- -- ------<br>------- --- ------ ----- --- ---- ------- -- ---- --- of<br>------- ------,180190.29999995232,180189.09999990463,179795.079,179803.39999985695,179810.577,180208.538,,53,of
screen,html.Screen,2_1_1_1_54,2022-02-15T15:55:49.000Z,,,,,,,,,,,,,,,,,54,,,,,,,,,,,,,,909.8619998569484,,response,,,,100,,,,,,,Space,keypress(Space),,,,,,,,-- --- ---- --- ------ ----- ------- ---- -- --- ------- --<br>------- ---------- ------ -- ----- -- ----- -- ---- ------<br>--- ----- --- --- ------ -------- ----- --- ------ ----- --<br>----- ----- ---------- --- --- ------ ------ ---- -- ------<br>------- --- ------ ----- --- ---- ------- -- ---- --- --<br>raising ------,181119.5,181118.39999985695,180177.53,180190.5,180208.538,181126.623,,54,raising
screen,html.Screen,2_1_1_1_55,2022-02-15T15:55:49.486Z,,,,,,,,,,,,,,,,,54,,,,,,,,,,,,,,477.77699985695654,,response,,,,100,,,,,,,Space,keypress(Space),,,,,,,,-- --- ---- --- ------ ----- ------- ---- -- --- ------- --<br>------- ---------- ------ -- ----- -- ----- -- ---- ------<br>--- ----- --- --- ------ -------- ----- --- ------ ----- --<br>----- ----- ---------- --- --- ------ ------ ---- -- ------<br>------- --- ------ ----- --- ---- ------- -- ---- --- --<br>------- money.,181605.5,181604.39999985695,181108.2,181119.79999995232,181126.623,181613.646,,55,money.
Item 100,flow.Loop,2_1_1_1,2022-02-15T15:55:49.486Z,,,,,,,,,,,,,,,,,,,,,,,,,,,,,,,27121.395999856963,,completion,,,,,A,,,,,,,,,,,silence,,,,,181606,181604.39999985695,154466.294,154467.09999990463,154483.004,181613.646,,,
Question 1,html.Screen,2_1_1_2,2022-02-15T15:55:51.317Z,,,,,,,,,,,,,,,,,,,,,,,,,,,,true,TRUE,,1820.753999856941,,response,,,,100,A,,,,,,TRUE,click #choice-1,,,,silence,,,,,183436.79999995232,183434.39999985695,181593.269,181606.09999990463,181613.646,183444.699,,,
Question 2,html.Screen,2_1_1_3,2022-02-15T15:55:53.287Z,,,,,,,,,,,,,,,,,,,,,,,,,,,,true,FALSE,,1961.100999952323,,response,,,,100,A,,,,,,FALSE,click #choice-2,,,,silence,,,,,185406.79999995232,185405.79999995232,183428.525,183437.09999990463,183444.699,185410.853,,,
Item 100,flow.Sequence,2_1_1,2022-02-15T15:55:53.287Z,,,,,,,,,,,,,,,,,,,,,,,,,,,,,,,40919.434999952326,,completion,,,,,,,,,,,,,,,,,,,,,185407.09999990463,185405.79999995232,144469.682,144472.09999990463,144486.365,185410.853,,,
End of Practice,html.Page,2_1_2,2022-02-15T15:55:56.425Z,,,,,,,,,,,,,,,,,,,,,,,,,,,,,,,3133.646999999997,,form submission,,,,,,,,,,,,,,,,,,,,,188545.09999990463,188544.5,185394.402,185407.19999980927,185410.853,188554.221,,,
Practice,flow.Sequence,2_1,2022-02-15T15:55:56.426Z,,,,,,,,,,,,,,,,,,,,,,,,,,,,,,,84728.038,,completion,,,,,,,,,,,,,,,,,,,,,188545.5,188544.5,103799.944,103811.79999995232,103816.462,188554.221,,,
Trap_instruction,html.Page,2_2_0,2022-02-15T15:55:58.762Z,,,,,,,,,,,,,,,,,,,,,,,,,,,,,,,2327.6789998569584,,form submission,,,,,,,,,,,,,,,,,,,,,190882.19999980927,190881.89999985695,188537.496,188545.69999980927,188554.221,190906.774,,,
trap_trial,html.Screen,2_2_1,2022-02-15T15:56:01.699Z,,,,,,,,,,,,,,,,,,,,,,,,,,,,true,1,,2909.3259999046277,,response,,,,,,,,,,,1,click #choice-1,,,,,,,,,193818.89999985695,193816.09999990463,190873.42,190882.19999980927,190906.774,193821.488,,,
end of trap trial,html.Page,2_2_2,2022-02-15T15:56:03.273Z,,,,,,,,,,,,,,,,,,,,,,,,,,,,,,,1570.9119998569367,,form submission,,,,,,,,,,,,,,,,,,,,,195392.89999985695,195392.39999985695,193805.05,193819.5,193821.488,195397.728,,,
Trap 1,flow.Sequence,2_2,2022-02-15T15:56:03.274Z,,,,,,,,,,,,,,,,,,,,,,,,,,,,,,,6838.178999856958,,completion,,,,,,,,,,,,,,,,,,,,,195393.39999985695,195392.39999985695,188537.496,188545.69999980927,188554.221,195397.728,,,
Standby,html.Page,2_3_0,2022-02-15T15:56:11.259Z,,,,,,,,,,,,,,,,,,,,,,,,,,,,,,,7996.505000000005,,timeout,,,,,,,,,,,,,,,,,,,,,203379.19999980927,203377.598,195381.102,195393.69999980927,195397.728,203394.233,,,
Holding screen,html.Screen,2_3_1_0_0,2022-02-15T15:56:18.262Z,,,,,,,,,,,,,,,,,,,,,,,,,,,,,,,7003.286999999982,,timeout,,,,,,,,,,,,,,,,,,,,,210382.09999990463,210380.853,203377.598,203379.69999980927,203394.233,210397.52,,,
screen,html.Screen,2_3_1_0_1_0,2022-02-15T15:56:19.733Z,,,,,,,,,,,,,,,,,2,,,,,,,,,,,,,,1454.1799998092756,,response,,,,1,A,,,,,,Space,keypress(Space),,,,silence,,,,Two ---- ------ --- ------- ---------- ------- ----------<br>--- --------- --- ----------- ------- ----- ------- ---<br>--------- ---- -- --- ---- -- --------- -- ---- -------<br>-- --------- ------ --- ----- ------ ---- --- --------- --<br>------ - ---- -- --- ----------- ------- ---- ----- -----<br>--- -------- - ------ ---- -- ----- ---- --- --- -----------<br>-- -------,211853,211851.69999980927,210380.853,210382.5,210397.52,211858.8,,0,Two
screen,html.Screen,2_3_1_0_1_1,2022-02-15T15:56:20.176Z,,,,,,,,,,,,,,,,,2,,,,,,,,,,,,,,436.0999998569605,,response,,,,1,A,,,,,,Space,keypress(Space),,,,silence,,,,--- days ------ --- ------- ---------- ------- ----------<br>--- --------- --- ----------- ------- ----- ------- ---<br>--------- ---- -- --- ---- -- --------- -- ---- -------<br>-- --------- ------ --- ----- ------ ---- --- --------- --<br>------ - ---- -- --- ----------- ------- ---- ----- -----<br>--- -------- - ------ ---- -- ----- ---- --- --- -----------<br>-- -------,212295.59999990463,212294.89999985695,211847.505,211853.39999985695,211858.8,212302.386,,1,days
screen,html.Screen,2_3_1_0_1_2,2022-02-15T15:56:20.687Z,,,,,,,,,,,,,,,,,2,,,,,,,,,,,,,,503.51399985695025,,response,,,,1,A,,,,,,Space,keypress(Space),,,,silence,,,,"--- ---- later, --- ------- ---------- ------- ----------<br>--- --------- --- ----------- ------- ----- ------- ---<br>--------- ---- -- --- ---- -- --------- -- ---- -------<br>-- --------- ------ --- ----- ------ ---- --- --------- --<br>------ - ---- -- --- ----------- ------- ---- ----- -----<br>--- -------- - ------ ---- -- ----- ---- --- --- -----------<br>-- -------",212807.09999990463,212805.89999985695,212292.283,212295.89999985695,212302.386,212813.99,,2,"later,"
screen,html.Screen,2_3_1_0_1_3,2022-02-15T15:56:21.016Z,,,,,,,,,,,,,,,,,2,,,,,,,,,,,,,,320.40999985695817,,response,,,,1,A,,,,,,Space,keypress(Space),,,,silence,,,,--- ---- ------ the ------- ---------- ------- ----------<br>--- --------- --- ----------- ------- ----- ------- ---<br>--------- ---- -- --- ---- -- --------- -- ---- -------<br>-- --------- ------ --- ----- ------ ---- --- --------- --<br>------ - ---- -- --- ----------- ------- ---- ----- -----<br>--- -------- - ------ ---- -- ----- ---- --- --- -----------<br>-- -------,213135.5,213134.39999985695,212802.196,212807.39999985695,212813.99,213139.772,,3,the
screen,html.Screen,2_3_1_0_1_4,2022-02-15T15:56:21.257Z,,,,,,,,,,,,,,,,,2,,,,,,,,,,,,,,235.92799980926793,,response,,,,1,A,,,,,,Space,keypress(Space),,,,silence,,,,--- ---- ------ --- British ---------- ------- ----------<br>--- --------- --- ----------- ------- ----- ------- ---<br>--------- ---- -- --- ---- -- --------- -- ---- -------<br>-- --------- ------ --- ----- ------ ---- --- --------- --<br>------ - ---- -- --- ----------- ------- ---- ----- -----<br>--- -------- - ------ ---- -- ----- ---- --- --- -----------<br>-- -------,213376.89999985695,213375.69999980927,213130.795,213135.79999995232,213139.772,213383.976,,4,British
screen,html.Screen,2_3_1_0_1_5,2022-02-15T15:56:21.592Z,,,,,,,,,,,,,,,,,2,,,,,,,,,,,,,,326.62399990463746,,response,,,,1,A,,,,,,Space,keypress(Space),,,,silence,,,,--- ---- ------ --- ------- astronomer ------- ----------<br>--- --------- --- ----------- ------- ----- ------- ---<br>--------- ---- -- --- ---- -- --------- -- ---- -------<br>-- --------- ------ --- ----- ------ ---- --- --------- --<br>------ - ---- -- --- ----------- ------- ---- ----- -----<br>--- -------- - ------ ---- -- ----- ---- --- --- -----------<br>-- -------,213711.79999995232,213710.59999990463,213373.141,213377.19999980927,213383.976,213727.429,,5,astronomer
screen,html.Screen,2_3_1_0_1_6,2022-02-15T15:56:22.028Z,,,,,,,,,,,,,,,,,2,,,,,,,,,,,,,,418.87099995231256,,response,,,,1,A,,,,,,Space,keypress(Space),,,,silence,,,,--- ---- ------ --- ------- ---------- Richard ----------<br>--- --------- --- ----------- ------- ----- ------- ---<br>--------- ---- -- --- ---- -- --------- -- ---- -------<br>-- --------- ------ --- ----- ------ ---- --- --------- --<br>------ - ---- -- --- ----------- ------- ---- ----- -----<br>--- -------- - ------ ---- -- ----- ---- --- --- -----------<br>-- -------,214147.5,214146.29999995232,213700.845,213712,213727.429,214156.368,,6,Richard
screen,html.Screen,2_3_1_0_1_7,2022-02-15T15:56:22.495Z,,,,,,,,,,,,,,,,,2,,,,,,,,,,,,,,457.13200000001234,,response,,,,1,A,,,,,,Space,keypress(Space),,,,silence,,,,--- ---- ------ --- ------- ---------- ------- Carrington<br>--- --------- --- ----------- ------- ----- ------- ---<br>--------- ---- -- --- ---- -- --------- -- ---- -------<br>-- --------- ------ --- ----- ------ ---- --- --------- --<br>------ - ---- -- --- ----------- ------- ---- ----- -----<br>--- -------- - ------ ---- -- ----- ---- --- --- -----------<br>-- -------,214614.59999990463,214613.5,214144.145,214147.79999995232,214156.368,214621.716,,7,Carrington
screen,html.Screen,2_3_1_0_1_8,2022-02-15T15:56:23.049Z,,,,,,,,,,,,,,,,,2,,,,,,,,,,,,,,545.8839999046468,,response,,,,1,A,,,,,,Space,keypress(Space),,,,silence,,,,--- ---- ------ --- ------- ---------- ------- ----------<br>was --------- --- ----------- ------- ----- ------- ---<br>--------- ---- -- --- ---- -- --------- -- ---- -------<br>-- --------- ------ --- ----- ------ ---- --- --------- --<br>------ - ---- -- --- ----------- ------- ---- ----- -----<br>--- -------- - ------ ---- -- ----- ---- --- --- -----------<br>-- -------,215168.59999990463,215167.59999990463,214606.445,214614.89999985695,214621.716,215175.642,,8,was
screen,html.Screen,2_3_1_0_1_9,2022-02-15T15:56:23.473Z,,,,,,,,,,,,,,,,,2,,,,,,,,,,,,,,415.95799990464,,response,,,,1,A,,,,,,Space,keypress(Space),,,,silence,,,,--- ---- ------ --- ------- ---------- ------- ----------<br>--- observing --- ----------- ------- ----- ------- ---<br>--------- ---- -- --- ---- -- --------- -- ---- -------<br>-- --------- ------ --- ----- ------ ---- --- --------- --<br>------ - ---- -- --- ----------- ------- ---- ----- -----<br>--- -------- - ------ ---- -- ----- ---- --- --- -----------<br>-- -------,215592.79999995232,215591.59999990463,215155.256,215168.89999985695,215175.642,215599.702,,9,observing
screen,html.Screen,2_3_1_0_1_10,2022-02-15T15:56:23.879Z,,,,,,,,,,,,,,,,,2,,,,,,,,,,,,,,397.69799985695863,,response,,,,1,A,,,,,,Space,keypress(Space),,,,silence,,,,--- ---- ------ --- ------- ---------- ------- ----------<br>--- --------- the ----------- ------- ----- ------- ---<br>--------- ---- -- --- ---- -- --------- -- ---- -------<br>-- --------- ------ --- ----- ------ ---- --- --------- --<br>------ - ---- -- --- ----------- ------- ---- ----- -----<br>--- -------- - ------ ---- -- ----- ---- --- --- -----------<br>-- -------,215998.69999980927,215997.39999985695,215592.631,215593.09999990463,215599.702,216005.702,,10,the
screen,html.Screen,2_3_1_0_1_11,2022-02-15T15:56:24.409Z,,,,,,,,,,,,,,,,,2,,,,,,,,,,,,,,521.8979999046423,,response,,,,1,A,,,,,,Space,keypress(Space),,,,silence,,,,--- ---- ------ --- ------- ---------- ------- ----------<br>--- --------- --- interesting ------- ----- ------- ---<br>--------- ---- -- --- ---- -- --------- -- ---- -------<br>-- --------- ------ --- ----- ------ ---- --- --------- --<br>------ - ---- -- --- ----------- ------- ---- ----- -----<br>--- -------- - ------ ---- -- ----- ---- --- --- -----------<br>-- -------,216528.69999980927,216527.59999990463,215999.777,215999,216005.702,216535.765,,11,interesting
screen,html.Screen,2_3_1_0_1_12,2022-02-15T15:56:25.051Z,,,,,,,,,,,,,,,,,2,,,,,,,,,,,,,,633.8349999046186,,response,,,,1,A,,,,,,Space,keypress(Space),,,,silence,,,,--- ---- ------ --- ------- ---------- ------- ----------<br>--- --------- --- ----------- sunspot ----- ------- ---<br>--------- ---- -- --- ---- -- --------- -- ---- -------<br>-- --------- ------ --- ----- ------ ---- --- --------- --<br>------ - ---- -- --- ----------- ------- ---- ----- -----<br>--- -------- - ------ ---- -- ----- ---- --- --- -----------<br>-- -------,217170.79999995232,217169.59999990463,216522.869,216528.89999985695,216535.765,217177.946,,12,sunspot
screen,html.Screen,2_3_1_0_1_13,2022-02-15T15:56:25.480Z,,,,,,,,,,,,,,,,,2,,,,,,,,,,,,,,420.9539998569526,,response,,,,1,A,,,,,,Space,keypress(Space),,,,silence,,,,--- ---- ------ --- ------- ---------- ------- ----------<br>--- --------- --- ----------- ------- group ------- ---<br>--------- ---- -- --- ---- -- --------- -- ---- -------<br>-- --------- ------ --- ----- ------ ---- --- --------- --<br>------ - ---- -- --- ----------- ------- ---- ----- -----<br>--- -------- - ------ ---- -- ----- ---- --- --- -----------<br>-- -------,217600,217598.89999985695,217169.34,217171.19999980927,217177.946,217606.95,,13,group
screen,html.Screen,2_3_1_0_1_14,2022-02-15T15:56:25.872Z,,,,,,,,,,,,,,,,,2,,,,,,,,,,,,,,383.9499998569372,,response,,,,1,A,,,,,,Space,keypress(Space),,,,silence,,,,--- ---- ------ --- ------- ---------- ------- ----------<br>--- --------- --- ----------- ------- ----- through ---<br>--------- ---- -- --- ---- -- --------- -- ---- -------<br>-- --------- ------ --- ----- ------ ---- --- --------- --<br>------ - ---- -- --- ----------- ------- ---- ----- -----<br>--- -------- - ------ ---- -- ----- ---- --- --- -----------<br>-- -------,217992.09999990463,217990.89999985695,217594.619,217600.29999995232,217606.95,218005.533,,14,through
screen,html.Screen,2_3_1_0_1_15,2022-02-15T15:56:26.256Z,,,,,,,,,,,,,,,,,2,,,,,,,,,,,,,,369.2669999523205,,response,,,,1,A,,,,,,Space,keypress(Space),,,,silence,,,,--- ---- ------ --- ------- ---------- ------- ----------<br>--- --------- --- ----------- ------- ----- ------- his<br>--------- ---- -- --- ---- -- --------- -- ---- -------<br>-- --------- ------ --- ----- ------ ---- --- --------- --<br>------ - ---- -- --- ----------- ------- ---- ----- -----<br>--- -------- - ------ ---- -- ----- ---- --- --- -----------<br>-- -------,218376.09999990463,218374.79999995232,217990.324,217992.29999995232,218005.533,218383.514,,15,his
screen,html.Screen,2_3_1_0_1_16,2022-02-15T15:56:26.619Z,,,,,,,,,,,,,,,,,2,,,,,,,,,,,,,,353.9860000000044,,response,,,,1,A,,,,,,Space,keypress(Space),,,,silence,,,,--- ---- ------ --- ------- ---------- ------- ----------<br>--- --------- --- ----------- ------- ----- ------- ---<br>telescope ---- -- --- ---- -- --------- -- ---- -------<br>-- --------- ------ --- ----- ------ ---- --- --------- --<br>------ - ---- -- --- ----------- ------- ---- ----- -----<br>--- -------- - ------ ---- -- ----- ---- --- --- -----------<br>-- -------,218738.69999980927,218737.5,218372.131,218376.5,218383.514,218745.546,,16,telescope
screen,html.Screen,2_3_1_0_1_17,2022-02-15T15:56:27.014Z,,,,,,,,,,,,,,,,,2,,,,,,,,,,,,,,387.4539999999979,,response,,,,1,A,,,,,,Space,keypress(Space),,,,silence,,,,--- ---- ------ --- ------- ---------- ------- ----------<br>--- --------- --- ----------- ------- ----- ------- ---<br>--------- when -- --- ---- -- --------- -- ---- -------<br>-- --------- ------ --- ----- ------ ---- --- --------- --<br>------ - ---- -- --- ----------- ------- ---- ----- -----<br>--- -------- - ------ ---- -- ----- ---- --- --- -----------<br>-- -------,219134.29999995232,219133,218733.679,218739,218745.546,219141.608,,17,when
screen,html.Screen,2_3_1_0_1_18,2022-02-15T15:56:27.375Z,,,,,,,,,,,,,,,,,2,,,,,,,,,,,,,,352.39199999999255,,response,,,,1,A,,,,,,Space,keypress(Space),,,,silence,,,,--- ---- ------ --- ------- ---------- ------- ----------<br>--- --------- --- ----------- ------- ----- ------- ---<br>--------- ---- he --- ---- -- --------- -- ---- -------<br>-- --------- ------ --- ----- ------ ---- --- --------- --<br>------ - ---- -- --- ----------- ------- ---- ----- -----<br>--- -------- - ------ ---- -- ----- ---- --- --- -----------<br>-- -------,219495.09999990463,219494,219128.988,219134.59999990463,219141.608,219499.331,,18,he
screen,html.Screen,2_3_1_0_1_19,2022-02-15T15:56:27.689Z,,,,,,,,,,,,,,,,,2,,,,,,,,,,,,,,308.4689999523107,,response,,,,1,A,,,,,,Space,keypress(Space),,,,silence,,,,--- ---- ------ --- ------- ---------- ------- ----------<br>--- --------- --- ----------- ------- ----- ------- ---<br>--------- ---- -- saw ---- -- --------- -- ---- -------<br>-- --------- ------ --- ----- ------ ---- --- --------- --<br>------ - ---- -- --- ----------- ------- ---- ----- -----<br>--- -------- - ------ ---- -- ----- ---- --- --- -----------<br>-- -------,219808.89999985695,219807.79999995232,219491.681,219495.5,219499.331,219815.92,,19,saw
screen,html.Screen,2_3_1_0_1_20,2022-02-15T15:56:27.967Z,,,,,,,,,,,,,,,,,2,,,,,,,,,,,,,,270.47999985693605,,response,,,,1,A,,,,,,Space,keypress(Space),,,,silence,,,,--- ---- ------ --- ------- ---------- ------- ----------<br>--- --------- --- ----------- ------- ----- ------- ---<br>--------- ---- -- --- what -- --------- -- ---- -------<br>-- --------- ------ --- ----- ------ ---- --- --------- --<br>------ - ---- -- --- ----------- ------- ---- ----- -----<br>--- -------- - ------ ---- -- ----- ---- --- --- -----------<br>-- -------,220087.59999990463,220086.39999985695,219799.523,219809.19999980927,219815.92,220105.108,,20,what
screen,html.Screen,2_3_1_0_1_21,2022-02-15T15:56:28.250Z,,,,,,,,,,,,,,,,,2,,,,,,,,,,,,,,263.5919998092577,,response,,,,1,A,,,,,,Space,keypress(Space),,,,silence,,,,--- ---- ------ --- ------- ---------- ------- ----------<br>--- --------- --- ----------- ------- ----- ------- ---<br>--------- ---- -- --- ---- he --------- -- ---- -------<br>-- --------- ------ --- ----- ------ ---- --- --------- --<br>------ - ---- -- --- ----------- ------- ---- ----- -----<br>--- -------- - ------ ---- -- ----- ---- --- --- -----------<br>-- -------,220370,220368.69999980927,220082.728,220087.89999985695,220105.108,220376.993,,21,he
screen,html.Screen,2_3_1_0_1_22,2022-02-15T15:56:28.604Z,,,,,,,,,,,,,,,,,2,,,,,,,,,,,,,,346.4069998569612,,response,,,,1,A,,,,,,Space,keypress(Space),,,,silence,,,,--- ---- ------ --- ------- ---------- ------- ----------<br>--- --------- --- ----------- ------- ----- ------- ---<br>--------- ---- -- --- ---- -- described -- ---- -------<br>-- --------- ------ --- ----- ------ ---- --- --------- --<br>------ - ---- -- --- ----------- ------- ---- ----- -----<br>--- -------- - ------ ---- -- ----- ---- --- --- -----------<br>-- -------,220724.69999980927,220723.39999985695,220354.861,220370.29999995232,220376.993,220731.64,,22,described
screen,html.Screen,2_3_1_0_1_23,2022-02-15T15:56:28.938Z,,,,,,,,,,,,,,,,,2,,,,,,,,,,,,,,325.05999980925117,,response,,,,1,A,,,,,,Space,keypress(Space),,,,silence,,,,--- ---- ------ --- ------- ---------- ------- ----------<br>--- --------- --- ----------- ------- ----- ------- ---<br>--------- ---- -- --- ---- -- --------- as ---- -------<br>-- --------- ------ --- ----- ------ ---- --- --------- --<br>------ - ---- -- --- ----------- ------- ---- ----- -----<br>--- -------- - ------ ---- -- ----- ---- --- --- -----------<br>-- -------,221057.89999985695,221056.69999980927,220710.301,220724.89999985695,220731.64,221064.204,,23,as
screen,html.Screen,2_3_1_0_1_24,2022-02-15T15:56:29.350Z,,,,,,,,,,,,,,,,,2,,,,,,,,,,,,,,404.39599990463466,,response,,,,1,A,,,,,,Space,keypress(Space),,,,silence,,,,"--- ---- ------ --- ------- ---------- ------- ----------<br>--- --------- --- ----------- ------- ----- ------- ---<br>--------- ---- -- --- ---- -- --------- -- ""two -------<br>-- --------- ------ --- ----- ------ ---- --- --------- --<br>------ - ---- -- --- ----------- ------- ---- ----- -----<br>--- -------- - ------ ---- -- ----- ---- --- --- -----------<br>-- -------",221469.89999985695,221468.59999990463,221048.385,221058.19999980927,221064.204,221477.198,,24,"""two"
screen,html.Screen,2_3_1_0_1_25,2022-02-15T15:56:29.766Z,,,,,,,,,,,,,,,,,2,,,,,,,,,,,,,,407.5019998092612,,response,,,,1,A,,,,,,Space,keypress(Space),,,,silence,,,,--- ---- ------ --- ------- ---------- ------- ----------<br>--- --------- --- ----------- ------- ----- ------- ---<br>--------- ---- -- --- ---- -- --------- -- ---- patches<br>-- --------- ------ --- ----- ------ ---- --- --------- --<br>------ - ---- -- --- ----------- ------- ---- ----- -----<br>--- -------- - ------ ---- -- ----- ---- --- --- -----------<br>-- -------,221885.89999985695,221884.69999980927,221464.151,221470.29999995232,221477.198,221892.755,,25,patches
screen,html.Screen,2_3_1_0_1_26,2022-02-15T15:56:30.068Z,,,,,,,,,,,,,,,,,2,,,,,,,,,,,,,,293.8449999046279,,response,,,,1,A,,,,,,Space,keypress(Space),,,,silence,,,,--- ---- ------ --- ------- ---------- ------- ----------<br>--- --------- --- ----------- ------- ----- ------- ---<br>--------- ---- -- --- ---- -- --------- -- ---- -------<br>of --------- ------ --- ----- ------ ---- --- --------- --<br>------ - ---- -- --- ----------- ------- ---- ----- -----<br>--- -------- - ------ ---- -- ----- ---- --- --- -----------<br>-- -------,222187.79999995232,222186.59999990463,221877.185,221886,221892.755,222200.659,,26,of
screen,html.Screen,2_3_1_0_1_27,2022-02-15T15:56:30.492Z,,,,,,,,,,,,,,,,,2,,,,,,,,,,,,,,411.54099980925093,,response,,,,1,A,,,,,,Space,keypress(Space),,,,silence,,,,--- ---- ------ --- ------- ---------- ------- ----------<br>--- --------- --- ----------- ------- ----- ------- ---<br>--------- ---- -- --- ---- -- --------- -- ---- -------<br>-- intensely ------ --- ----- ------ ---- --- --------- --<br>------ - ---- -- --- ----------- ------- ---- ----- -----<br>--- -------- - ------ ---- -- ----- ---- --- --- -----------<br>-- -------,222612.69999980927,222612.19999980927,222176.222,222188,222200.659,222618.955,,27,intensely
screen,html.Screen,2_3_1_0_1_28,2022-02-15T15:56:30.869Z,,,,,,,,,,,,,,,,,2,,,,,,,,,,,,,,368.8449999523291,,response,,,,1,A,,,,,,Space,keypress(Space),,,,silence,,,,--- ---- ------ --- ------- ---------- ------- ----------<br>--- --------- --- ----------- ------- ----- ------- ---<br>--------- ---- -- --- ---- -- --------- -- ---- -------<br>-- --------- bright --- ----- ------ ---- --- --------- --<br>------ - ---- -- --- ----------- ------- ---- ----- -----<br>--- -------- - ------ ---- -- ----- ---- --- --- -----------<br>-- -------,222988.89999985695,222987.79999995232,222600.803,222612.79999995232,222618.955,222995.917,,28,bright
screen,html.Screen,2_3_1_0_1_29,2022-02-15T15:56:31.237Z,,,,,,,,,,,,,,,,,2,,,,,,,,,,,,,,360.08300000001327,,response,,,,1,A,,,,,,Space,keypress(Space),,,,silence,,,,--- ---- ------ --- ------- ---------- ------- ----------<br>--- --------- --- ----------- ------- ----- ------- ---<br>--------- ---- -- --- ---- -- --------- -- ---- -------<br>-- --------- ------ and ----- ------ ---- --- --------- --<br>------ - ---- -- --- ----------- ------- ---- ----- -----<br>--- -------- - ------ ---- -- ----- ---- --- --- -----------<br>-- -------,223357.09999990463,223356,222985.82,222989.19999980927,222995.917,223364.247,,29,and
screen,html.Screen,2_3_1_0_1_30,2022-02-15T15:56:31.562Z,,,,,,,,,,,,,,,,,2,,,,,,,,,,,,,,316.752999999997,,response,,,,1,A,,,,,,Space,keypress(Space),,,,silence,,,,--- ---- ------ --- ------- ---------- ------- ----------<br>--- --------- --- ----------- ------- ----- ------- ---<br>--------- ---- -- --- ---- -- --------- -- ---- -------<br>-- --------- ------ --- white ------ ---- --- --------- --<br>------ - ---- -- --- ----------- ------- ---- ----- -----<br>--- -------- - ------ ---- -- ----- ---- --- --- -----------<br>-- -------,223682.39999985695,223681,223346.182,223357.39999985695,223364.247,223689.274,,30,white
screen,html.Screen,2_3_1_0_1_31,2022-02-15T15:56:31.863Z,,,,,,,,,,,,,,,,,2,,,,,,,,,,,,,,292.42599980926025,,response,,,,1,A,,,,,,Space,keypress(Space),,,,silence,,,,"--- ---- ------ --- ------- ---------- ------- ----------<br>--- --------- --- ----------- ------- ----- ------- ---<br>--------- ---- -- --- ---- -- --------- -- ---- -------<br>-- --------- ------ --- ----- light"" ---- --- --------- --<br>------ - ---- -- --- ----------- ------- ---- ----- -----<br>--- -------- - ------ ---- -- ----- ---- --- --- -----------<br>-- -------",223982.89999985695,223981.69999980927,223681.189,223682.69999980927,223689.274,223989.973,,31,"light"""
screen,html.Screen,2_3_1_0_1_32,2022-02-15T15:56:32.222Z,,,,,,,,,,,,,,,,,2,,,,,,,,,,,,,,351.62699990463443,,response,,,,1,A,,,,,,Space,keypress(Space),,,,silence,,,,--- ---- ------ --- ------- ---------- ------- ----------<br>--- --------- --- ----------- ------- ----- ------- ---<br>--------- ---- -- --- ---- -- --------- -- ---- -------<br>-- --------- ------ --- ----- ------ over --- --------- --<br>------ - ---- -- --- ----------- ------- ---- ----- -----<br>--- -------- - ------ ---- -- ----- ---- --- --- -----------<br>-- -------,224342.69999980927,224341.59999990463,223972.852,223983.19999980927,223989.973,224349.824,,32,over
screen,html.Screen,2_3_1_0_1_33,2022-02-15T15:56:32.502Z,,,,,,,,,,,,,,,,,2,,,,,,,,,,,,,,270.97599995232304,,response,,,,1,A,,,,,,Space,keypress(Space),,,,silence,,,,--- ---- ------ --- ------- ---------- ------- ----------<br>--- --------- --- ----------- ------- ----- ------- ---<br>--------- ---- -- --- ---- -- --------- -- ---- -------<br>-- --------- ------ --- ----- ------ ---- the --------- --<br>------ - ---- -- --- ----------- ------- ---- ----- -----<br>--- -------- - ------ ---- -- ----- ---- --- --- -----------<br>-- -------,224622,224620.79999995232,224339.965,224343,224349.824,224628.934,,33,the
screen,html.Screen,2_3_1_0_1_34,2022-02-15T15:56:33.054Z,,,,,,,,,,,,,,,,,2,,,,,,,,,,,,,,543.9659998569405,,response,,,,1,A,,,,,,Space,keypress(Space),,,,silence,,,,--- ---- ------ --- ------- ---------- ------- ----------<br>--- --------- --- ----------- ------- ----- ------- ---<br>--------- ---- -- --- ---- -- --------- -- ---- -------<br>-- --------- ------ --- ----- ------ ---- --- sunspots. --<br>------ - ---- -- --- ----------- ------- ---- ----- -----<br>--- -------- - ------ ---- -- ----- ---- --- --- -----------<br>-- -------,225174.09999990463,225172.89999985695,224616.475,224622.19999980927,224628.934,225181.415,,34,sunspots.
screen,html.Screen,2_3_1_0_1_35,2022-02-15T15:56:33.454Z,,,,,,,,,,,,,,,,,2,,,,,,,,,,,,,,391.38499995230814,,response,,,,1,A,,,,,,Space,keypress(Space),,,,silence,,,,--- ---- ------ --- ------- ---------- ------- ----------<br>--- --------- --- ----------- ------- ----- ------- ---<br>--------- ---- -- --- ---- -- --------- -- ---- -------<br>-- --------- ------ --- ----- ------ ---- --- --------- He<br>------ - ---- -- --- ----------- ------- ---- ----- -----<br>--- -------- - ------ ---- -- ----- ---- --- --- -----------<br>-- -------,225574,225572.79999995232,225162.413,225174.29999995232,225181.415,225581.167,,35,He
screen,html.Screen,2_3_1_0_1_36,2022-02-15T15:56:33.844Z,,,,,,,,,,,,,,,,,2,,,,,,,,,,,,,,381.7329998569621,,response,,,,1,A,,,,,,Space,keypress(Space),,,,silence,,,,--- ---- ------ --- ------- ---------- ------- ----------<br>--- --------- --- ----------- ------- ----- ------- ---<br>--------- ---- -- --- ---- -- --------- -- ---- -------<br>-- --------- ------ --- ----- ------ ---- --- --------- --<br>jotted - ---- -- --- ----------- ------- ---- ----- -----<br>--- -------- - ------ ---- -- ----- ---- --- --- -----------<br>-- -------,225964.09999990463,225962.89999985695,225564.827,225574.29999995232,225581.167,225972.006,,36,jotted
screen,html.Screen,2_3_1_0_1_37,2022-02-15T15:56:34.176Z,,,,,,,,,,,,,,,,,2,,,,,,,,,,,,,,323.49400000000605,,response,,,,1,A,,,,,,Space,keypress(Space),,,,silence,,,,--- ---- ------ --- ------- ---------- ------- ----------<br>--- --------- --- ----------- ------- ----- ------- ---<br>--------- ---- -- --- ---- -- --------- -- ---- -------<br>-- --------- ------ --- ----- ------ ---- --- --------- --<br>------ a ---- -- --- ----------- ------- ---- ----- -----<br>--- -------- - ------ ---- -- ----- ---- --- --- -----------<br>-- -------,226296.69999980927,226295.5,225964.569,225964.39999985695,225972.006,226303.684,,37,a
screen,html.Screen,2_3_1_0_1_38,2022-02-15T15:56:34.409Z,,,,,,,,,,,,,,,,,2,,,,,,,,,,,,,,224.01599980925675,,response,,,,1,A,,,,,,Space,keypress(Space),,,,silence,,,,--- ---- ------ --- ------- ---------- ------- ----------<br>--- --------- --- ----------- ------- ----- ------- ---<br>--------- ---- -- --- ---- -- --------- -- ---- -------<br>-- --------- ------ --- ----- ------ ---- --- --------- --<br>------ - note -- --- ----------- ------- ---- ----- -----<br>--- -------- - ------ ---- -- ----- ---- --- --- -----------<br>-- -------,226528.89999985695,226527.69999980927,226288.698,226297,226303.684,226537.09,,38,note
