sender,sender_type,sender_id,timestamp,meta,,Blues,Classical,Country,Dance,Electronic,Folk,Gospel,Hip-Hop,Jazz,Latin,Musical/Film,New-age,Pop,Prolific_id,Provo_ID,R&B,Rap,Reggae,Religious,Rock,Soul,Swing,Traditional,age,artist_name,correct,correctResponse,distraction,duration,education,ended_on,familiarity,gender,headphone_check_performance,item,list,music_frequency,offensiveness,pleasantness,position_correct,preference,response,response_action,snippet_file,song_name,song_rating,sound,stimulus_1,stimulus_2,stimulus_3,text,time_commit,time_end,time_render,time_run,time_show,time_switch,url,word,word_ID
Prolific ID,html.Form,0,2022-02-01T14:59:42.431Z,"{""labjs_version"":""20.2.2"",""labjs_build"":{""flavor"":""production"",""commit"":""a25486e0c714a0ae2ce03ff94b7bb6896854dcfa""},""location"":""https://run.pavlovia.org/mvasilev/prolific2_music_a/"",""userAgent"":""Mozilla/5.0 (Windows NT 10.0; Win64; x64; rv:96.0) Gecko/20100101 Firefox/96.0"",""platform"":""Win32"",""language"":""en-GB"",""locale"":""en-GB"",""timeZone"":""Europe/London"",""timezoneOffset"":0,""screen_width"":1536,""screen_height"":864,""scroll_width"":1536,""scroll_height"":691,""window_innerWidth"":1536,""window_innerHeight"":739,""devicePixelRatio"":1.25}",,,,,,,,,,,,,,,61620c697493fd1f0e57a700,,,,,,,,,,,,,,,8116.700000000001,,form submission,,,,,,,,,,,,,,,,,,,,,19612,19611,10484.06,10484,11494.3,19619.58,{},,
Introduction,html.Screen,1_0,2022-02-01T15:00:28.428Z,,,,,,,,,,,,,,,,,,,,,,,,,,,,,,,45984.42,,response,,,,,,,,,,,continue,click button,,,,,,,,,65610,65604,19605.84,19613,19619.58,65620.94,,,
Volume calibration,html.Screen,1_1,2022-02-01T15:00:51.593Z,,,,,,,,,,,,,,,,,,,,,,,,,,,,,,,23138.059999999998,,response,,,,,,,,,,,continue,click button,,,,,,,,,88774,88759,65609.2,65610,65620.94,88788.1,,,
Task instructions,html.Screen,1_2,2022-02-01T15:01:00.845Z,,,,,,,,,,,,,,,,,,,,,,,,,,,,,,,9221.899999999994,,response,,,,,,,,,,,continue,click button,,,,,,,,,98026,98010,88772.96,88774,88788.1,98038.64,,,
Sounds,html.Screen,1_3_0_0,2022-02-01T15:01:05.091Z,,,,,,,,,,,,,,,,,,,,,,,,,,,,,,,4249.919999999998,,timeout,,,,,,,,,1,,,,,,,,S,I,O,,102273,102271.94,98026.06,98027,98038.64,102288.56,,,
Judgement,html.Screen,1_3_0_1,2022-02-01T15:01:07.519Z,,,,,,,,,,,,,,,,,,,,,,,,,,,,true,1,,2393.4400000000023,,response,,,,,,,,,1,,1,click #choice-1,,,,,S,I,O,,104701,104682,102271.94,102274,102288.56,104705.24,,,
Trial,flow.Sequence,1_3_0,2022-02-01T15:01:07.519Z,,,,,,,,,,,,,,,,,,,,,,,,,,,,,,,6643.360000000001,,completion,,,,,,,,,1,,,,,,,,S,I,O,,104701,104682,98026.06,98027,98038.64,104705.24,,,
Sounds,html.Screen,1_3_1_0,2022-02-01T15:01:11.758Z,,,,,,,,,,,,,,,,,,,,,,,,,,,,,,,4250.119999999995,,timeout,,,,,,,,,2,,,,,,,,O,S,I,,108939,108938.7,104700.3,104702,104705.24,108955.36,,,
Judgement,html.Screen,1_3_1_1,2022-02-01T15:01:12.288Z,,,,,,,,,,,,,,,,,,,,,,,,,,,,true,2,,507.6399999999994,,response,,,,,,,,,2,,2,click #choice-2,,,,,O,S,I,,109469,109463,108938.7,108939,108955.36,109472.08,,,
Trial,flow.Sequence,1_3_1,2022-02-01T15:01:12.288Z,,,,,,,,,,,,,,,,,,,,,,,,,,,,,,,4757.759999999995,,completion,,,,,,,,,2,,,,,,,,O,S,I,,109469,109463,104700.3,104702,104705.24,109472.08,,,
Sounds,html.Screen,1_3_2_0,2022-02-01T15:01:16.525Z,,,,,,,,,,,,,,,,,,,,,,,,,,,,,,,4250.080000000002,,timeout,,,,,,,,,2,,,,,,,,I,S,O,,113707,113705.48,109468.26,109469,109472.08,113722.16,,,
Judgement,html.Screen,1_3_2_1,2022-02-01T15:01:16.970Z,,,,,,,,,,,,,,,,,,,,,,,,,,,,true,2,,412.8399999999965,,response,,,,,,,,,2,,2,click #choice-2,,,,,I,S,O,,114152,114135,113705.48,113708,113722.16,114155.52,,,
Trial,flow.Sequence,1_3_2,2022-02-01T15:01:16.970Z,,,,,,,,,,,,,,,,,,,,,,,,,,,,,,,4662.919999999998,,completion,,,,,,,,,2,,,,,,,,I,S,O,,114152,114135,109468.26,109469,109472.08,114155.52,,,
Sounds,html.Screen,1_3_3_0,2022-02-01T15:01:21.209Z,,,,,,,,,,,,,,,,,,,,,,,,,,,,,,,4250.179999999993,,timeout,,,,,,,,,3,,,,,,,,I,O,S,,118391,118389.02,114151.12,114152,114155.52,118405.7,,,
Judgement,html.Screen,1_3_3_1,2022-02-01T15:01:24.285Z,,,,,,,,,,,,,,,,,,,,,,,,,,,,false,3,,3057.300000000003,,response,,,,,,,,,3,,2,click #choice-2,,,,,I,O,S,,121467,121463,118389.02,118391,118405.7,121472.36,,,
Trial,flow.Sequence,1_3_3,2022-02-01T15:01:24.285Z,,,,,,,,,,,,,,,,,,,,,,,,,,,,,,,7307.479999999996,,completion,,,,,,,,,3,,,,,,,,I,O,S,,121467,121463,114151.12,114152,114155.52,121472.36,,,
Sounds,html.Screen,1_3_4_0,2022-02-01T15:01:28.525Z,,,,,,,,,,,,,,,,,,,,,,,,,,,,,,,4250.240000000005,,timeout,,,,,,,,,1,,,,,,,,S,O,I,,125706,125705.94,121466.52,121467,121472.36,125722.6,,,
Judgement,html.Screen,1_3_4_1,2022-02-01T15:01:30.324Z,,,,,,,,,,,,,,,,,,,,,,,,,,,,true,1,,1772.3999999999942,,response,,,,,,,,,1,,1,click #choice-1,,,,,S,O,I,,127505,127495,125705.94,125707,125722.6,127505.9,,,
Trial,flow.Sequence,1_3_4,2022-02-01T15:01:30.324Z,,,,,,,,,,,,,,,,,,,,,,,,,,,,,,,6022.639999999999,,completion,,,,,,,,,1,,,,,,,,S,O,I,,127506,127495,121466.52,121467,121472.36,127505.9,,,
Sounds,html.Screen,1_3_5_0,2022-02-01T15:01:34.559Z,,,,,,,,,,,,,,,,,,,,,,,,,,,,,,,4250.059999999998,,timeout,,,,,,,,,3,,,,,,,,O,I,S,,131741,131739.3,127504.96,127506,127505.9,131755.96,,,
Judgement,html.Screen,1_3_5_1,2022-02-01T15:01:35.042Z,,,,,,,,,,,,,,,,,,,,,,,,,,,,true,3,,457.04000000000815,,response,,,,,,,,,3,,3,click #choice-3,,,,,O,I,S,,132224,132213,131739.3,131742,131755.96,132239.34,,,
Trial,flow.Sequence,1_3_5,2022-02-01T15:01:35.042Z,,,,,,,,,,,,,,,,,,,,,,,,,,,,,,,4707.100000000006,,completion,,,,,,,,,3,,,,,,,,O,I,S,,132224,132213,127504.96,127506,127505.9,132239.34,,,
Task,flow.Loop,1_3,2022-02-01T15:01:35.044Z,,,,,,,,,,,,,,,,,,,,,,,,,,,,,,,34174.36,,completion,,,0.8333333333333334,,,,,,,,,,,,,,,,,,132225,132213,98026.06,98027,98038.64,132239.34,,,
Trap,html.Screen,1_4,2022-02-01T15:01:35.044Z,,,,,,,,,,,,,,,,,,,,,,,,,,,,,,,NaN,,skipped,,,,,,,,,,,,,,,,,,,,,132226,132213,,132226,,132239.34,,,
Thanks,html.Screen,1_5,2022-02-01T15:01:40.204Z,,,,,,,,,,,,,,,,,,,,,,,,,,,,,,,5129.6600000000035,,response,,,,,,,,,,,continue,click button,,,,,,,,,137385,137369,132223.66,132226,132239.34,140272.92,,,
Headphone screening,flow.Sequence,1,2022-02-01T15:01:40.204Z,,,,,,,,,,,,,,,,,,,,,,,,,,,,,,,117749.42,,completion,,,,,,,,,,,,,,,,,,,,,137385,137369,19605.84,19612,19619.58,140272.92,,,
Instructions,html.Page,2_0,2022-02-01T15:02:36.815Z,,,,,,,,,,,,,,,,,,,,,,,,,,,,,,,53723.07999999999,,form submission,,,,,,,,,,,,,,,,,,,,,193997,193996,140271.62,140264,140272.92,194007.84,,,
Holding screen,html.Screen,2_1_0_0,2022-02-01T15:02:46.812Z,,,,,,,,,,,,,,,,,,,,,,,,,,,,,,,10000.300000000017,,timeout,,,,,,,,,,,,,,,,,,,,,203992,203991.46,193995.58,193997,194007.84,204008.14,,,
screen,html.Screen,2_1_0_1_0,2022-02-01T15:02:47.718Z,,,,,,,,,,,,,,,,,53,,,,,,,,,,,,,,861.859999999986,,response,,,,99,,,,,,,Space,keypress(Space),,,,,,,,When -- ----- -- ------ - ------- --- ----------<br>------------- ------ ------ ---- ---- ------- ----- -- ----<br>-------- ------- -- ---------- --- - --- ----- ----- ----<br>---- --- --- ----- --- ---- ---- ------- ----- ---- -------<br>--- --- -- ----- -- --- ---- -- --- ---- -- ------ ------<br>--- ----- -- ----,204900,204870,203991.46,203993,204008.14,204900.38,,0,When
screen,html.Screen,2_1_0_1_1,2022-02-01T15:02:48.096Z,,,,,,,,,,,,,,,,,53,,,,,,,,,,,,,,358.61999999999534,,response,,,,99,,,,,,,Space,keypress(Space),,,,,,,,---- it ----- -- ------ - ------- --- ----------<br>------------- ------ ------ ---- ---- ------- ----- -- ----<br>-------- ------- -- ---------- --- - --- ----- ----- ----<br>---- --- --- ----- --- ---- ---- ------- ----- ---- -------<br>--- --- -- ----- -- --- ---- -- --- ---- -- ------ ------<br>--- ----- -- ----,205277,205259,204899.88,204900,204900.38,205278.74,,1,it
screen,html.Screen,2_1_0_1_2,2022-02-01T15:02:48.471Z,,,,,,,,,,,,,,,,,53,,,,,,,,,,,,,,356.2600000000093,,response,,,,99,,,,,,,Space,keypress(Space),,,,,,,,---- -- comes -- ------ - ------- --- ----------<br>------------- ------ ------ ---- ---- ------- ----- -- ----<br>-------- ------- -- ---------- --- - --- ----- ----- ----<br>---- --- --- ----- --- ---- ---- ------- ----- ---- -------<br>--- --- -- ----- -- --- ---- -- --- ---- -- ------ ------<br>--- ----- -- ----,205653,205635,205278.28,205278,205278.74,205653.86,,2,comes
screen,html.Screen,2_1_0_1_3,2022-02-01T15:02:48.815Z,,,,,,,,,,,,,,,,,53,,,,,,,,,,,,,,324.14000000001397,,response,,,,99,,,,,,,Space,keypress(Space),,,,,,,,---- -- ----- to ------ - ------- --- ----------<br>------------- ------ ------ ---- ---- ------- ----- -- ----<br>-------- ------- -- ---------- --- - --- ----- ----- ----<br>---- --- --- ----- --- ---- ---- ------- ----- ---- -------<br>--- --- -- ----- -- --- ---- -- --- ---- -- ------ ------<br>--- ----- -- ----,205996,205978,205653.52,205654,205653.86,206033.32,,3,to
screen,html.Screen,2_1_0_1_4,2022-02-01T15:02:49.175Z,,,,,,,,,,,,,,,,,53,,,,,,,,,,,,,,304.679999999993,,response,,,,99,,,,,,,Space,keypress(Space),,,,,,,,---- -- ----- -- having - ------- --- ----------<br>------------- ------ ------ ---- ---- ------- ----- -- ----<br>-------- ------- -- ---------- --- - --- ----- ----- ----<br>---- --- --- ----- --- ---- ---- ------- ----- ---- -------<br>--- --- -- ----- -- --- ---- -- --- ---- -- ------ ------<br>--- ----- -- ----,206357,206338,205999.04,205999,206033.32,206358.18,,4,having
screen,html.Screen,2_1_0_1_5,2022-02-01T15:02:49.564Z,,,,,,,,,,,,,,,,,53,,,,,,,,,,,,,,370.820000000007,,response,,,,99,,,,,,,Space,keypress(Space),,,,,,,,---- -- ----- -- ------ a ------- --- ----------<br>------------- ------ ------ ---- ---- ------- ----- -- ----<br>-------- ------- -- ---------- --- - --- ----- ----- ----<br>---- --- --- ----- --- ---- ---- ------- ----- ---- -------<br>--- --- -- ----- -- --- ---- -- --- ---- -- ------ ------<br>--- ----- -- ----,206745,206729,206357.64,206357,206358.18,206745.58,,5,a
screen,html.Screen,2_1_0_1_6,2022-02-01T15:02:50.148Z,,,,,,,,,,,,,,,,,53,,,,,,,,,,,,,,576.4200000000128,,response,,,,99,,,,,,,Space,keypress(Space),,,,,,,,---- -- ----- -- ------ - lasting --- ----------<br>------------- ------ ------ ---- ---- ------- ----- -- ----<br>-------- ------- -- ---------- --- - --- ----- ----- ----<br>---- --- --- ----- --- ---- ---- ------- ----- ---- -------<br>--- --- -- ----- -- --- ---- -- --- ---- -- ------ ------<br>--- ----- -- ----,207329,207322,206745.16,206745,206745.58,207329.5,,6,lasting
screen,html.Screen,2_1_0_1_7,2022-02-01T15:02:50.502Z,,,,,,,,,,,,,,,,,53,,,,,,,,,,,,,,336.5,,response,,,,99,,,,,,,Space,keypress(Space),,,,,,,,---- -- ----- -- ------ - ------- and ----------<br>------------- ------ ------ ---- ---- ------- ----- -- ----<br>-------- ------- -- ---------- --- - --- ----- ----- ----<br>---- --- --- ----- --- ---- ---- ------- ----- ---- -------<br>--- --- -- ----- -- --- ---- -- --- ---- -- ------ ------<br>--- ----- -- ----,207683,207666,207329.18,207329,207329.5,207684,,7,and
screen,html.Screen,2_1_0_1_8,2022-02-01T15:02:50.875Z,,,,,,,,,,,,,,,,,53,,,,,,,,,,,,,,357,,response,,,,99,,,,,,,Space,keypress(Space),,,,,,,,---- -- ----- -- ------ - ------- --- fulfilling<br>------------- ------ ------ ---- ---- ------- ----- -- ----<br>-------- ------- -- ---------- --- - --- ----- ----- ----<br>---- --- --- ----- --- ---- ---- ------- ----- ---- -------<br>--- --- -- ----- -- --- ---- -- --- ---- -- ------ ------<br>--- ----- -- ----,208056,208041,207683.5,207683,207684,208058.94,,8,fulfilling
screen,html.Screen,2_1_0_1_9,2022-02-01T15:02:51.373Z,,,,,,,,,,,,,,,,,53,,,,,,,,,,,,,,482.0599999999977,,response,,,,99,,,,,,,Space,keypress(Space),,,,,,,,"---- -- ----- -- ------ - ------- --- ----------<br>relationship, ------ ------ ---- ---- ------- ----- -- ----<br>-------- ------- -- ---------- --- - --- ----- ----- ----<br>---- --- --- ----- --- ---- ---- ------- ----- ---- -------<br>--- --- -- ----- -- --- ---- -- --- ---- -- ------ ------<br>--- ----- -- ----",208554,208541,208056.1,208056,208058.94,208554.78,,9,"relationship,"
screen,html.Screen,2_1_0_1_10,2022-02-01T15:02:51.848Z,,,,,,,,,,,,,,,,,53,,,,,,,,,,,,,,454.22000000000116,,response,,,,99,,,,,,,Space,keypress(Space),,,,,,,,---- -- ----- -- ------ - ------- --- ----------<br>------------- common ------ ---- ---- ------- ----- -- ----<br>-------- ------- -- ---------- --- - --- ----- ----- ----<br>---- --- --- ----- --- ---- ---- ------- ----- ---- -------<br>--- --- -- ----- -- --- ---- -- --- ---- -- ------ ------<br>--- ----- -- ----,209029,209009,208554.3,208554,208554.78,209030.2,,10,common
screen,html.Screen,2_1_0_1_11,2022-02-01T15:02:52.196Z,,,,,,,,,,,,,,,,,53,,,,,,,,,,,,,,322.79999999998836,,response,,,,99,,,,,,,Space,keypress(Space),,,,,,,,---- -- ----- -- ------ - ------- --- ----------<br>------------- ------ wisdom ---- ---- ------- ----- -- ----<br>-------- ------- -- ---------- --- - --- ----- ----- ----<br>---- --- --- ----- --- ---- ---- ------- ----- ---- -------<br>--- --- -- ----- -- --- ---- -- --- ---- -- ------ ------<br>--- ----- -- ----,209377,209353,209029.66,209029,209030.2,209378.36,,11,wisdom
screen,html.Screen,2_1_0_1_12,2022-02-01T15:02:52.538Z,,,,,,,,,,,,,,,,,53,,,,,,,,,,,,,,334.64000000001397,,response,,,,99,,,,,,,Space,keypress(Space),,,,,,,,---- -- ----- -- ------ - ------- --- ----------<br>------------- ------ ------ says ---- ------- ----- -- ----<br>-------- ------- -- ---------- --- - --- ----- ----- ----<br>---- --- --- ----- --- ---- ---- ------- ----- ---- -------<br>--- --- -- ----- -- --- ---- -- --- ---- -- ------ ------<br>--- ----- -- ----,209718,209713,209377.86,209378,209378.36,209719.76,,12,says
screen,html.Screen,2_1_0_1_13,2022-02-01T15:02:52.848Z,,,,,,,,,,,,,,,,,53,,,,,,,,,,,,,,290.2399999999907,,response,,,,99,,,,,,,Space,keypress(Space),,,,,,,,---- -- ----- -- ------ - ------- --- ----------<br>------------- ------ ------ ---- that ------- ----- -- ----<br>-------- ------- -- ---------- --- - --- ----- ----- ----<br>---- --- --- ----- --- ---- ---- ------- ----- ---- -------<br>--- --- -- ----- -- --- ---- -- --- ---- -- ------ ------<br>--- ----- -- ----,210029,210010,209719.24,209719,209719.76,210029.96,,13,that
screen,html.Screen,2_1_0_1_14,2022-02-01T15:02:53.143Z,,,,,,,,,,,,,,,,,53,,,,,,,,,,,,,,276.04000000000815,,response,,,,99,,,,,,,Space,keypress(Space),,,,,,,,---- -- ----- -- ------ - ------- --- ----------<br>------------- ------ ------ ---- ---- feeling ----- -- ----<br>-------- ------- -- ---------- --- - --- ----- ----- ----<br>---- --- --- ----- --- ---- ---- ------- ----- ---- -------<br>--- --- -- ----- -- --- ---- -- --- ---- -- ------ ------<br>--- ----- -- ----,210325,210306,210029.52,210029,210029.96,210327,,14,feeling
screen,html.Screen,2_1_0_1_15,2022-02-01T15:02:53.529Z,,,,,,,,,,,,,,,,,53,,,,,,,,,,,,,,371,,response,,,,99,,,,,,,Space,keypress(Space),,,,,,,,---- -- ----- -- ------ - ------- --- ----------<br>------------- ------ ------ ---- ---- ------- close -- ----<br>-------- ------- -- ---------- --- - --- ----- ----- ----<br>---- --- --- ----- --- ---- ---- ------- ----- ---- -------<br>--- --- -- ----- -- --- ---- -- --- ---- -- ------ ------<br>--- ----- -- ----,210711,210698,210325.64,210326,210327,210711.74,,15,close
screen,html.Screen,2_1_0_1_16,2022-02-01T15:02:53.898Z,,,,,,,,,,,,,,,,,53,,,,,,,,,,,,,,360.2600000000093,,response,,,,99,,,,,,,Space,keypress(Space),,,,,,,,---- -- ----- -- ------ - ------- --- ----------<br>------------- ------ ------ ---- ---- ------- ----- to ----<br>-------- ------- -- ---------- --- - --- ----- ----- ----<br>---- --- --- ----- --- ---- ---- ------- ----- ---- -------<br>--- --- -- ----- -- --- ---- -- --- ---- -- ------ ------<br>--- ----- -- ----,211080,211072,210711.22,210711,210711.74,211080.56,,16,to
screen,html.Screen,2_1_0_1_17,2022-02-01T15:02:54.255Z,,,,,,,,,,,,,,,,,53,,,,,,,,,,,,,,335.4400000000023,,response,,,,99,,,,,,,Space,keypress(Space),,,,,,,,---- -- ----- -- ------ - ------- --- ----------<br>------------- ------ ------ ---- ---- ------- ----- -- your<br>-------- ------- -- ---------- --- - --- ----- ----- ----<br>---- --- --- ----- --- ---- ---- ------- ----- ---- -------<br>--- --- -- ----- -- --- ---- -- --- ---- -- ------ ------<br>--- ----- -- ----,211437,211416,211080.42,211080,211080.56,211437.78,,17,your
screen,html.Screen,2_1_0_1_18,2022-02-01T15:02:54.540Z,,,,,,,,,,,,,,,,,53,,,,,,,,,,,,,,275.22000000000116,,response,,,,99,,,,,,,Space,keypress(Space),,,,,,,,---- -- ----- -- ------ - ------- --- ----------<br>------------- ------ ------ ---- ---- ------- ----- -- ----<br>romantic ------- -- ---------- --- - --- ----- ----- ----<br>---- --- --- ----- --- ---- ---- ------- ----- ---- -------<br>--- --- -- ----- -- --- ---- -- --- ---- -- ------ ------<br>--- ----- -- ----,211722,211713,211437.28,211438,211437.78,211722.66,,18,romantic
screen,html.Screen,2_1_0_1_19,2022-02-01T15:02:54.879Z,,,,,,,,,,,,,,,,,53,,,,,,,,,,,,,,317.3399999999965,,response,,,,99,,,,,,,Space,keypress(Space),,,,,,,,---- -- ----- -- ------ - ------- --- ----------<br>------------- ------ ------ ---- ---- ------- ----- -- ----<br>-------- partner -- ---------- --- - --- ----- ----- ----<br>---- --- --- ----- --- ---- ---- ------- ----- ---- -------<br>--- --- -- ----- -- --- ---- -- --- ---- -- ------ ------<br>--- ----- -- ----,212061,212040,211722.12,211722,211722.66,212061.96,,19,partner
screen,html.Screen,2_1_0_1_20,2022-02-01T15:02:55.226Z,,,,,,,,,,,,,,,,,53,,,,,,,,,,,,,,339.04000000000815,,response,,,,99,,,,,,,Space,keypress(Space),,,,,,,,---- -- ----- -- ------ - ------- --- ----------<br>------------- ------ ------ ---- ---- ------- ----- -- ----<br>-------- ------- is ---------- --- - --- ----- ----- ----<br>---- --- --- ----- --- ---- ---- ------- ----- ---- -------<br>--- --- -- ----- -- --- ---- -- --- ---- -- ------ ------<br>--- ----- -- ----,212407,212401,212061.42,212061,212061.96,212408.6,,20,is
screen,html.Screen,2_1_0_1_21,2022-02-01T15:02:55.570Z,,,,,,,,,,,,,,,,,53,,,,,,,,,,,,,,335.3999999999942,,response,,,,99,,,,,,,Space,keypress(Space),,,,,,,,---- -- ----- -- ------ - ------- --- ----------<br>------------- ------ ------ ---- ---- ------- ----- -- ----<br>-------- ------- -- paramount. --- - --- ----- ----- ----<br>---- --- --- ----- --- ---- ---- ------- ----- ---- -------<br>--- --- -- ----- -- --- ---- -- --- ---- -- ------ ------<br>--- ----- -- ----,212751,212744,212408.1,212408,212408.6,212751.68,,21,paramount.
screen,html.Screen,2_1_0_1_22,2022-02-01T15:02:57.386Z,,,,,,,,,,,,,,,,,53,,,,,,,,,,,,,,1805.320000000007,,response,,,,99,,,,,,,Space,keypress(Space),,,,,,,,---- -- ----- -- ------ - ------- --- ----------<br>------------- ------ ------ ---- ---- ------- ----- -- ----<br>-------- ------- -- ---------- But - --- ----- ----- ----<br>---- --- --- ----- --- ---- ---- ------- ----- ---- -------<br>--- --- -- ----- -- --- ---- -- --- ---- -- ------ ------<br>--- ----- -- ----,214568,214557,212751.14,212751,212751.68,214568.98,,22,But
screen,html.Screen,2_1_0_1_23,2022-02-01T15:02:57.694Z,,,,,,,,,,,,,,,,,53,,,,,,,,,,,,,,300.0199999999895,,response,,,,99,,,,,,,Space,keypress(Space),,,,,,,,---- -- ----- -- ------ - ------- --- ----------<br>------------- ------ ------ ---- ---- ------- ----- -- ----<br>-------- ------- -- ---------- --- a --- ----- ----- ----<br>---- --- --- ----- --- ---- ---- ------- ----- ---- -------<br>--- --- -- ----- -- --- ---- -- --- ---- -- ------ ------<br>--- ----- -- ----,214875,214869,214568.44,214568,214568.98,214877.12,,23,a
screen,html.Screen,2_1_0_1_24,2022-02-01T15:02:57.958Z,,,,,,,,,,,,,,,,,53,,,,,,,,,,,,,,241.88000000000466,,response,,,,99,,,,,,,Space,keypress(Space),,,,,,,,---- -- ----- -- ------ - ------- --- ----------<br>------------- ------ ------ ---- ---- ------- ----- -- ----<br>-------- ------- -- ---------- --- - new ----- ----- ----<br>---- --- --- ----- --- ---- ---- ------- ----- ---- -------<br>--- --- -- ----- -- --- ---- -- --- ---- -- ------ ------<br>--- ----- -- ----,215140,215119,214876.66,214876,214877.12,215141.8,,24,new
screen,html.Screen,2_1_0_1_25,2022-02-01T15:02:58.185Z,,,,,,,,,,,,,,,,,53,,,,,,,,,,,,,,212.20000000001164,,response,,,,99,,,,,,,Space,keypress(Space),,,,,,,,---- -- ----- -- ------ - ------- --- ----------<br>------------- ------ ------ ---- ---- ------- ----- -- ----<br>-------- ------- -- ---------- --- - --- study ----- ----<br>---- --- --- ----- --- ---- ---- ------- ----- ---- -------<br>--- --- -- ----- -- --- ---- -- --- ---- -- ------ ------<br>--- ----- -- ----,215366,215354,215140.24,215140,215141.8,215367.46,,25,study
screen,html.Screen,2_1_0_1_26,2022-02-01T15:02:58.392Z,,,,,,,,,,,,,,,,,53,,,,,,,,,,,,,,188.54000000000815,,response,,,,99,,,,,,,Space,keypress(Space),,,,,,,,---- -- ----- -- ------ - ------- --- ----------<br>------------- ------ ------ ---- ---- ------- ----- -- ----<br>-------- ------- -- ---------- --- - --- ----- finds ----<br>---- --- --- ----- --- ---- ---- ------- ----- ---- -------<br>--- --- -- ----- -- --- ---- -- --- ---- -- ------ ------<br>--- ----- -- ----,215573,215556,215366.5,215367,215367.46,215575.02,,26,finds
screen,html.Screen,2_1_0_1_27,2022-02-01T15:02:58.761Z,,,,,,,,,,,,,,,,,53,,,,,,,,,,,,,,356.9800000000105,,response,,,,99,,,,,,,Space,keypress(Space),,,,,,,,---- -- ----- -- ------ - ------- --- ----------<br>------------- ------ ------ ---- ---- ------- ----- -- ----<br>-------- ------- -- ---------- --- - --- ----- ----- that<br>---- --- --- ----- --- ---- ---- ------- ----- ---- -------<br>--- --- -- ----- -- --- ---- -- --- ---- -- ------ ------<br>--- ----- -- ----,215943,215932,215573.76,215574,215575.02,215943.66,,27,that
screen,html.Screen,2_1_0_1_28,2022-02-01T15:02:59.073Z,,,,,,,,,,,,,,,,,53,,,,,,,,,,,,,,301.3399999999965,,response,,,,99,,,,,,,Space,keypress(Space),,,,,,,,---- -- ----- -- ------ - ------- --- ----------<br>------------- ------ ------ ---- ---- ------- ----- -- ----<br>-------- ------- -- ---------- --- - --- ----- ----- ----<br>it's --- --- ----- --- ---- ---- ------- ----- ---- -------<br>--- --- -- ----- -- --- ---- -- --- ---- -- ------ ------<br>--- ----- -- ----,216255,216245,215943.16,215943,215943.66,216255.62,,28,it's
screen,html.Screen,2_1_0_1_29,2022-02-01T15:02:59.290Z,,,,,,,,,,,,,,,,,53,,,,,,,,,,,,,,207.38000000000466,,response,,,,99,,,,,,,Space,keypress(Space),,,,,,,,---- -- ----- -- ------ - ------- --- ----------<br>------------- ------ ------ ---- ---- ------- ----- -- ----<br>-------- ------- -- ---------- --- - --- ----- ----- ----<br>---- not --- ----- --- ---- ---- ------- ----- ---- -------<br>--- --- -- ----- -- --- ---- -- --- ---- -- ------ ------<br>--- ----- -- ----,216471,216463,216255.12,216255,216255.62,216475.12,,29,not
screen,html.Screen,2_1_0_1_30,2022-02-01T15:02:59.510Z,,,,,,,,,,,,,,,,,53,,,,,,,,,,,,,,205.88000000000466,,response,,,,99,,,,,,,Space,keypress(Space),,,,,,,,---- -- ----- -- ------ - ------- --- ----------<br>------------- ------ ------ ---- ---- ------- ----- -- ----<br>-------- ------- -- ---------- --- - --- ----- ----- ----<br>---- --- how ----- --- ---- ---- ------- ----- ---- -------<br>--- --- -- ----- -- --- ---- -- --- ---- -- ------ ------<br>--- ----- -- ----,216690,216681,216471.86,216472,216475.12,216691.72,,30,how
screen,html.Screen,2_1_0_1_31,2022-02-01T15:02:59.730Z,,,,,,,,,,,,,,,,,53,,,,,,,,,,,,,,209.27999999999884,,response,,,,99,,,,,,,Space,keypress(Space),,,,,,,,---- -- ----- -- ------ - ------- --- ----------<br>------------- ------ ------ ---- ---- ------- ----- -- ----<br>-------- ------- -- ---------- --- - --- ----- ----- ----<br>---- --- --- close --- ---- ---- ------- ----- ---- -------<br>--- --- -- ----- -- --- ---- -- --- ---- -- ------ ------<br>--- ----- -- ----,216911,216901,216691.16,216691,216691.72,216911.62,,31,close
screen,html.Screen,2_1_0_1_32,2022-02-01T15:02:59.915Z,,,,,,,,,,,,,,,,,53,,,,,,,,,,,,,,160.38000000000466,,response,,,,99,,,,,,,Space,keypress(Space),,,,,,,,---- -- ----- -- ------ - ------- --- ----------<br>------------- ------ ------ ---- ---- ------- ----- -- ----<br>-------- ------- -- ---------- --- - --- ----- ----- ----<br>---- --- --- ----- you ---- ---- ------- ----- ---- -------<br>--- --- -- ----- -- --- ---- -- --- ---- -- ------ ------<br>--- ----- -- ----,217097,217072,216911.18,216911,216911.62,217108.44,,32,you
screen,html.Screen,2_1_0_1_33,2022-02-01T15:03:00.296Z,,,,,,,,,,,,,,,,,53,,,,,,,,,,,,,,354.5599999999977,,response,,,,99,,,,,,,Space,keypress(Space),,,,,,,,---- -- ----- -- ------ - ------- --- ----------<br>------------- ------ ------ ---- ---- ------- ----- -- ----<br>-------- ------- -- ---------- --- - --- ----- ----- ----<br>---- --- --- ----- --- feel ---- ------- ----- ---- -------<br>--- --- -- ----- -- --- ---- -- --- ---- -- ------ ------<br>--- ----- -- ----,217477,217463,217097.48,217097,217108.44,217477.9,,33,feel
screen,html.Screen,2_1_0_1_34,2022-02-01T15:03:00.636Z,,,,,,,,,,,,,,,,,53,,,,,,,,,,,,,,328.1000000000058,,response,,,,99,,,,,,,Space,keypress(Space),,,,,,,,---- -- ----- -- ------ - ------- --- ----------<br>------------- ------ ------ ---- ---- ------- ----- -- ----<br>-------- ------- -- ---------- --- - --- ----- ----- ----<br>---- --- --- ----- --- ---- that ------- ----- ---- -------<br>--- --- -- ----- -- --- ---- -- --- ---- -- ------ ------<br>--- ----- -- ----,217819,217806,217477.36,217478,217477.9,217819.06,,34,that
screen,html.Screen,2_1_0_1_35,2022-02-01T15:03:00.963Z,,,,,,,,,,,,,,,,,53,,,,,,,,,,,,,,299.9400000000023,,response,,,,99,,,,,,,Space,keypress(Space),,,,,,,,---- -- ----- -- ------ - ------- --- ----------<br>------------- ------ ------ ---- ---- ------- ----- -- ----<br>-------- ------- -- ---------- --- - --- ----- ----- ----<br>---- --- --- ----- --- ---- ---- matters ----- ---- -------<br>--- --- -- ----- -- --- ---- -- --- ---- -- ------ ------<br>--- ----- -- ----,218144,218119,217818.6,217819,217819.06,218145.06,,35,matters
screen,html.Screen,2_1_0_1_36,2022-02-01T15:03:01.349Z,,,,,,,,,,,,,,,,,53,,,,,,,,,,,,,,363.9400000000023,,response,,,,99,,,,,,,Space,keypress(Space),,,,,,,,"---- -- ----- -- ------ - ------- --- ----------<br>------------- ------ ------ ---- ---- ------- ----- -- ----<br>-------- ------- -- ---------- --- - --- ----- ----- ----<br>---- --- --- ----- --- ---- ---- ------- most, ---- -------<br>--- --- -- ----- -- --- ---- -- --- ---- -- ------ ------<br>--- ----- -- ----",218530,218509,218144.54,218144,218145.06,218531.64,,36,"most,"
screen,html.Screen,2_1_0_1_37,2022-02-01T15:03:01.708Z,,,,,,,,,,,,,,,,,53,,,,,,,,,,,,,,338.35999999998603,,response,,,,99,,,,,,,Space,keypress(Space),,,,,,,,---- -- ----- -- ------ - ------- --- ----------<br>------------- ------ ------ ---- ---- ------- ----- -- ----<br>-------- ------- -- ---------- --- - --- ----- ----- ----<br>---- --- --- ----- --- ---- ---- ------- ----- it's -------<br>--- --- -- ----- -- --- ---- -- --- ---- -- ------ ------<br>--- ----- -- ----,218889,218870,218531.1,218531,218531.64,218889.64,,37,it's
screen,html.Screen,2_1_0_1_38,2022-02-01T15:03:02.008Z,,,,,,,,,,,,,,,,,53,,,,,,,,,,,,,,291.35999999998603,,response,,,,99,,,,,,,Space,keypress(Space),,,,,,,,---- -- ----- -- ------ - ------- --- ----------<br>------------- ------ ------ ---- ---- ------- ----- -- ----<br>-------- ------- -- ---------- --- - --- ----- ----- ----<br>---- --- --- ----- --- ---- ---- ------- ----- ---- whether<br>--- --- -- ----- -- --- ---- -- --- ---- -- ------ ------<br>--- ----- -- ----,219189,219181,218889.14,218889,218889.64,219189.68,,38,whether
screen,html.Screen,2_1_0_1_39,2022-02-01T15:03:02.348Z,,,,,,,,,,,,,,,,,53,,,,,,,,,,,,,,319.320000000007,,response,,,,99,,,,,,,Space,keypress(Space),,,,,,,,---- -- ----- -- ------ - ------- --- ----------<br>------------- ------ ------ ---- ---- ------- ----- -- ----<br>-------- ------- -- ---------- --- - --- ----- ----- ----<br>---- --- --- ----- --- ---- ---- ------- ----- ---- -------<br>you --- -- ----- -- --- ---- -- --- ---- -- ------ ------<br>--- ----- -- ----,219529,219509,219189.16,219189,219189.68,219529.74,,39,you
screen,html.Screen,2_1_0_1_40,2022-02-01T15:03:02.629Z,,,,,,,,,,,,,,,,,53,,,,,,,,,,,,,,261.2600000000093,,response,,,,99,,,,,,,Space,keypress(Space),,,,,,,,---- -- ----- -- ------ - ------- --- ----------<br>------------- ------ ------ ---- ---- ------- ----- -- ----<br>-------- ------- -- ---------- --- - --- ----- ----- ----<br>---- --- --- ----- --- ---- ---- ------- ----- ---- -------<br>--- are -- ----- -- --- ---- -- --- ---- -- ------ ------<br>--- ----- -- ----,219810,219791,219529.42,219529,219529.74,219811.72,,40,are
screen,html.Screen,2_1_0_1_41,2022-02-01T15:03:02.912Z,,,,,,,,,,,,,,,,,53,,,,,,,,,,,,,,260.27999999999884,,response,,,,99,,,,,,,Space,keypress(Space),,,,,,,,---- -- ----- -- ------ - ------- --- ----------<br>------------- ------ ------ ---- ---- ------- ----- -- ----<br>-------- ------- -- ---------- --- - --- ----- ----- ----<br>---- --- --- ----- --- ---- ---- ------- ----- ---- -------<br>--- --- as ----- -- --- ---- -- --- ---- -- ------ ------<br>--- ----- -- ----,220093,220072,219811.18,219812,219811.72,220093.72,,41,as
screen,html.Screen,2_1_0_1_42,2022-02-01T15:03:03.226Z,,,,,,,,,,,,,,,,,53,,,,,,,,,,,,,,307.27999999999884,,response,,,,99,,,,,,,Space,keypress(Space),,,,,,,,---- -- ----- -- ------ - ------- --- ----------<br>------------- ------ ------ ---- ---- ------- ----- -- ----<br>-------- ------- -- ---------- --- - --- ----- ----- ----<br>---- --- --- ----- --- ---- ---- ------- ----- ---- -------<br>--- --- -- close -- --- ---- -- --- ---- -- ------ ------<br>--- ----- -- ----,220408,220401,220093.22,220093,220093.72,220408.7,,42,close
screen,html.Screen,2_1_0_1_43,2022-02-01T15:03:03.568Z,,,,,,,,,,,,,,,,,53,,,,,,,,,,,,,,336.29999999998836,,response,,,,99,,,,,,,Space,keypress(Space),,,,,,,,---- -- ----- -- ------ - ------- --- ----------<br>------------- ------ ------ ---- ---- ------- ----- -- ----<br>-------- ------- -- ---------- --- - --- ----- ----- ----<br>---- --- --- ----- --- ---- ---- ------- ----- ---- -------<br>--- --- -- ----- as --- ---- -- --- ---- -- ------ ------<br>--- ----- -- ----,220750,220745,220408.16,220408,220408.7,220750.56,,43,as
screen,html.Screen,2_1_0_1_44,2022-02-01T15:03:03.891Z,,,,,,,,,,,,,,,,,53,,,,,,,,,,,,,,305.4400000000023,,response,,,,99,,,,,,,Space,keypress(Space),,,,,,,,---- -- ----- -- ------ - ------- --- ----------<br>------------- ------ ------ ---- ---- ------- ----- -- ----<br>-------- ------- -- ---------- --- - --- ----- ----- ----<br>---- --- --- ----- --- ---- ---- ------- ----- ---- -------<br>--- --- -- ----- -- you ---- -- --- ---- -- ------ ------<br>--- ----- -- ----,221072,221056,220750.06,220750,220750.56,221073.02,,44,you
screen,html.Screen,2_1_0_1_45,2022-02-01T15:03:04.212Z,,,,,,,,,,,,,,,,,53,,,,,,,,,,,,,,296.9800000000105,,response,,,,99,,,,,,,Space,keypress(Space),,,,,,,,---- -- ----- -- ------ - ------- --- ----------<br>------------- ------ ------ ---- ---- ------- ----- -- ----<br>-------- ------- -- ---------- --- - --- ----- ----- ----<br>---- --- --- ----- --- ---- ---- ------- ----- ---- -------<br>--- --- -- ----- -- --- want -- --- ---- -- ------ ------<br>--- ----- -- ----,221394,221370,221072.78,221072,221073.02,221394.76,,45,want
screen,html.Screen,2_1_0_1_46,2022-02-01T15:03:04.542Z,,,,,,,,,,,,,,,,,53,,,,,,,,,,,,,,318.2399999999907,,response,,,,99,,,,,,,Space,keypress(Space),,,,,,,,---- -- ----- -- ------ - ------- --- ----------<br>------------- ------ ------ ---- ---- ------- ----- -- ----<br>-------- ------- -- ---------- --- - --- ----- ----- ----<br>---- --- --- ----- --- ---- ---- ------- ----- ---- -------<br>--- --- -- ----- -- --- ---- to --- ---- -- ------ ------<br>--- ----- -- ----,221723,221713,221394.16,221394,221394.76,221725.32,,46,to
screen,html.Screen,2_1_0_1_47,2022-02-01T15:03:04.864Z,,,,,,,,,,,,,,,,,53,,,,,,,,,,,,,,299.679999999993,,response,,,,99,,,,,,,Space,keypress(Space),,,,,,,,"---- -- ----- -- ------ - ------- --- ----------<br>------------- ------ ------ ---- ---- ------- ----- -- ----<br>-------- ------- -- ---------- --- - --- ----- ----- ----<br>---- --- --- ----- --- ---- ---- ------- ----- ---- -------<br>--- --- -- ----- -- --- ---- -- be, ---- -- ------ ------<br>--- ----- -- ----",222045,222025,221723.18,221723,221725.32,222046.14,,47,"be,"
screen,html.Screen,2_1_0_1_48,2022-02-01T15:03:05.186Z,,,,,,,,,,,,,,,,,53,,,,,,,,,,,,,,306.85999999998603,,response,,,,99,,,,,,,Space,keypress(Space),,,,,,,,---- -- ----- -- ------ - ------- --- ----------<br>------------- ------ ------ ---- ---- ------- ----- -- ----<br>-------- ------- -- ---------- --- - --- ----- ----- ----<br>---- --- --- ----- --- ---- ---- ------- ----- ---- -------<br>--- --- -- ----- -- --- ---- -- --- even -- ------ ------<br>--- ----- -- ----,222368,222353,222045.72,222046,222046.14,222369.02,,48,even
screen,html.Screen,2_1_0_1_49,2022-02-01T15:03:05.510Z,,,,,,,,,,,,,,,,,53,,,,,,,,,,,,,,311.9800000000105,,response,,,,99,,,,,,,Space,keypress(Space),,,,,,,,---- -- ----- -- ------ - ------- --- ----------<br>------------- ------ ------ ---- ---- ------- ----- -- ----<br>-------- ------- -- ---------- --- - --- ----- ----- ----<br>---- --- --- ----- --- ---- ---- ------- ----- ---- -------<br>--- --- -- ----- -- --- ---- -- --- ---- if ------ ------<br>--- ----- -- ----,222691,222681,222368.5,222369,222369.02,222692.88,,49,if
screen,html.Screen,2_1_0_1_50,2022-02-01T15:03:05.863Z,,,,,,,,,,,,,,,,,53,,,,,,,,,,,,,,332.11999999999534,,response,,,,99,,,,,,,Space,keypress(Space),,,,,,,,---- -- ----- -- ------ - ------- --- ----------<br>------------- ------ ------ ---- ---- ------- ----- -- ----<br>-------- ------- -- ---------- --- - --- ----- ----- ----<br>---- --- --- ----- --- ---- ---- ------- ----- ---- -------<br>--- --- -- ----- -- --- ---- -- --- ---- -- that's ------<br>--- ----- -- ----,223045,223025,222692.36,222693,222692.88,223045.82,,50,that's
screen,html.Screen,2_1_0_1_51,2022-02-01T15:03:06.236Z,,,,,,,,,,,,,,,,,53,,,,,,,,,,,,,,355.179999999993,,response,,,,99,,,,,,,Space,keypress(Space),,,,,,,,---- -- ----- -- ------ - ------- --- ----------<br>------------- ------ ------ ---- ---- ------- ----- -- ----<br>-------- ------- -- ---------- --- - --- ----- ----- ----<br>---- --- --- ----- --- ---- ---- ------- ----- ---- -------<br>--- --- -- ----- -- --- ---- -- --- ---- -- ------ really<br>--- ----- -- ----,223417,223401,223045.36,223045,223045.82,223418.08,,51,really
screen,html.Screen,2_1_0_1_52,2022-02-01T15:03:06.588Z,,,,,,,,,,,,,,,,,53,,,,,,,,,,,,,,341.9200000000128,,response,,,,99,,,,,,,Space,keypress(Space),,,,,,,,---- -- ----- -- ------ - ------- --- ----------<br>------------- ------ ------ ---- ---- ------- ----- -- ----<br>-------- ------- -- ---------- --- - --- ----- ----- ----<br>---- --- --- ----- --- ---- ---- ------- ----- ---- -------<br>--- --- -- ----- -- --- ---- -- --- ---- -- ------ ------<br>not ----- -- ----,223769,223760,223417.64,223418,223418.08,223772.28,,52,not
screen,html.Screen,2_1_0_1_53,2022-02-01T15:03:06.966Z,,,,,,,,,,,,,,,,,53,,,,,,,,,,,,,,346.72000000000116,,response,,,,99,,,,,,,Space,keypress(Space),,,,,,,,---- -- ----- -- ------ - ------- --- ----------<br>------------- ------ ------ ---- ---- ------- ----- -- ----<br>-------- ------- -- ---------- --- - --- ----- ----- ----<br>---- --- --- ----- --- ---- ---- ------- ----- ---- -------<br>--- --- -- ----- -- --- ---- -- --- ---- -- ------ ------<br>--- close -- ----,224147,224119,223771.76,223772,223772.28,224148.02,,53,close
screen,html.Screen,2_1_0_1_54,2022-02-01T15:03:07.340Z,,,,,,,,,,,,,,,,,53,,,,,,,,,,,,,,361.9800000000105,,response,,,,99,,,,,,,Space,keypress(Space),,,,,,,,---- -- ----- -- ------ - ------- --- ----------<br>------------- ------ ------ ---- ---- ------- ----- -- ----<br>-------- ------- -- ---------- --- - --- ----- ----- ----<br>---- --- --- ----- --- ---- ---- ------- ----- ---- -------<br>--- --- -- ----- -- --- ---- -- --- ---- -- ------ ------<br>--- ----- at ----,224521,224510,224147.58,224147,224148.02,224521.94,,54,at
screen,html.Screen,2_1_0_1_55,2022-02-01T15:03:07.670Z,,,,,,,,,,,,,,,,,53,,,,,,,,,,,,,,316.0599999999977,,response,,,,99,,,,,,,Space,keypress(Space),,,,,,,,---- -- ----- -- ------ - ------- --- ----------<br>------------- ------ ------ ---- ---- ------- ----- -- ----<br>-------- ------- -- ---------- --- - --- ----- ----- ----<br>---- --- --- ----- --- ---- ---- ------- ----- ---- -------<br>--- --- -- ----- -- --- ---- -- --- ---- -- ------ ------<br>--- ----- -- all.,224851,224838,224521.48,224522,224521.94,224852.58,,55,all.
Item 99,flow.Loop,2_1_0_1,2022-02-01T15:03:07.670Z,,,,,,,,,,,,,,,,,,,,,,,,,,,,,,,20829.859999999986,,completion,,,,,A,,,,,,,,,,,silence,,,,,224852,224838,203991.46,203993,204008.14,224852.58,,,
Question 1,html.Screen,2_1_0_2,2022-02-01T15:03:11.755Z,,,,,,,,,,,,,,,,,,,,,,,,,,,,true,FALSE,,4079.420000000013,,response,,,,99,A,,,,,,FALSE,click #choice-2,,,,silence,,,,,228937,228932,224852.08,224852,224852.58,228942.08,,,
Question 2,html.Screen,2_1_0_3,2022-02-01T15:03:16.305Z,,,,,,,,,,,,,,,,,,,,,,,,,,,,true,TRUE,,4519.920000000013,,response,,,,99,A,,,,,,TRUE,click #choice-1,,,,silence,,,,,233486,233462,228936.64,228937,228942.08,233492.22,,,
Item 99,flow.Sequence,2_1_0,2022-02-01T15:03:16.305Z,,,,,,,,,,,,,,,,,,,,,,,,,,,,,,,39454.16,,completion,,,,,,,,,,,,,,,,,,,,,233486,233462,193995.58,193997,194007.84,233492.22,,,
Holding screen,html.Screen,2_1_1_0,2022-02-01T15:03:26.295Z,,,,,,,,,,,,,,,,,,,,,,,,,,,,,,,10000.339999999997,,timeout,,,,,,,,,,,,,,,,,,,,,243477,243475.9,233485.7,233486,233492.22,243492.56,,,
screen,html.Screen,2_1_1_1_0,2022-02-01T15:03:27.198Z,,,,,,,,,,,,,,,,,54,,,,,,,,,,,,,,876.4400000000023,,response,,,,100,,,,,,,Space,keypress(Space),,,,,,,,At --- ---- --- ------ ----- ------- ---- -- --- ------- --<br>------- ---------- ------ -- ----- -- ----- -- ---- ------<br>--- ----- --- --- ------ -------- ----- --- ------ ----- --<br>----- ----- ---------- --- --- ------ ------ ---- -- ------<br>------- --- ------ ----- --- ---- ------- -- ---- --- --<br>------- ------,244379,244369,243475.9,243477,243492.56,244379.96,,0,At
screen,html.Screen,2_1_1_1_1,2022-02-01T15:03:27.645Z,,,,,,,,,,,,,,,,,54,,,,,,,,,,,,,,426.04000000000815,,response,,,,100,,,,,,,Space,keypress(Space),,,,,,,,-- the ---- --- ------ ----- ------- ---- -- --- ------- --<br>------- ---------- ------ -- ----- -- ----- -- ---- ------<br>--- ----- --- --- ------ -------- ----- --- ------ ----- --<br>----- ----- ---------- --- --- ------ ------ ---- -- ------<br>------- --- ------ ----- --- ---- ------- -- ---- --- --<br>------- ------,244826,244806,244379.5,244379,244379.96,244826.86,,1,the
screen,html.Screen,2_1_1_1_2,2022-02-01T15:03:28.058Z,,,,,,,,,,,,,,,,,54,,,,,,,,,,,,,,402.14000000001397,,response,,,,100,,,,,,,Space,keypress(Space),,,,,,,,-- --- time --- ------ ----- ------- ---- -- --- ------- --<br>------- ---------- ------ -- ----- -- ----- -- ---- ------<br>--- ----- --- --- ------ -------- ----- --- ------ ----- --<br>----- ----- ---------- --- --- ------ ------ ---- -- ------<br>------- --- ------ ----- --- ---- ------- -- ---- --- --<br>------- ------,245240,245229,244826.32,244826,244826.86,245239.4,,2,time
screen,html.Screen,2_1_1_1_3,2022-02-01T15:03:28.462Z,,,,,,,,,,,,,,,,,54,,,,,,,,,,,,,,395.6000000000058,,response,,,,100,,,,,,,Space,keypress(Space),,,,,,,,-- --- ---- the ------ ----- ------- ---- -- --- ------- --<br>------- ---------- ------ -- ----- -- ----- -- ---- ------<br>--- ----- --- --- ------ -------- ----- --- ------ ----- --<br>----- ----- ---------- --- --- ------ ------ ---- -- ------<br>------- --- ------ ----- --- ---- ------- -- ---- --- --<br>------- ------,245644,245635,245239.28,245240,245239.4,245644.6,,3,the
screen,html.Screen,2_1_1_1_4,2022-02-01T15:03:29.522Z,,,,,,,,,,,,,,,,,54,,,,,,,,,,,,,,1037.3999999999942,,response,,,,100,,,,,,,Space,keypress(Space),,,,,,,,-- --- ---- --- French ----- ------- ---- -- --- ------- --<br>------- ---------- ------ -- ----- -- ----- -- ---- ------<br>--- ----- --- --- ------ -------- ----- --- ------ ----- --<br>----- ----- ---------- --- --- ------ ------ ---- -- ------<br>------- --- ------ ----- --- ---- ------- -- ---- --- --<br>------- ------,246704,246682,245644.08,245644,245644.6,246704.98,,4,French
screen,html.Screen,2_1_1_1_5,2022-02-01T15:03:29.933Z,,,,,,,,,,,,,,,,,54,,,,,,,,,,,,,,399.0199999999895,,response,,,,100,,,,,,,Space,keypress(Space),,,,,,,,-- --- ---- --- ------ crown ------- ---- -- --- ------- --<br>------- ---------- ------ -- ----- -- ----- -- ---- ------<br>--- ----- --- --- ------ -------- ----- --- ------ ----- --<br>----- ----- ---------- --- --- ------ ------ ---- -- ------<br>------- --- ------ ----- --- ---- ------- -- ---- --- --<br>------- ------,247115,247104,246704.52,246705,246704.98,247116.04,,5,crown
screen,html.Screen,2_1_1_1_6,2022-02-01T15:03:30.316Z,,,,,,,,,,,,,,,,,54,,,,,,,,,,,,,,377.95999999999185,,response,,,,100,,,,,,,Space,keypress(Space),,,,,,,,-- --- ---- --- ------ ----- secured ---- -- --- ------- --<br>------- ---------- ------ -- ----- -- ----- -- ---- ------<br>--- ----- --- --- ------ -------- ----- --- ------ ----- --<br>----- ----- ---------- --- --- ------ ------ ---- -- ------<br>------- --- ------ ----- --- ---- ------- -- ---- --- --<br>------- ------,247498,247494,247115.5,247115,247116.04,247498.64,,6,secured
screen,html.Screen,2_1_1_1_7,2022-02-01T15:03:30.674Z,,,,,,,,,,,,,,,,,54,,,,,,,,,,,,,,339.35999999998603,,response,,,,100,,,,,,,Space,keypress(Space),,,,,,,,-- --- ---- --- ------ ----- ------- much -- --- ------- --<br>------- ---------- ------ -- ----- -- ----- -- ---- ------<br>--- ----- --- --- ------ -------- ----- --- ------ ----- --<br>----- ----- ---------- --- --- ------ ------ ---- -- ------<br>------- --- ------ ----- --- ---- ------- -- ---- --- --<br>------- ------,247855,247838,247498.12,247498,247498.64,247856.32,,7,much
screen,html.Screen,2_1_1_1_8,2022-02-01T15:03:31.064Z,,,,,,,,,,,,,,,,,54,,,,,,,,,,,,,,371.679999999993,,response,,,,100,,,,,,,Space,keypress(Space),,,,,,,,-- --- ---- --- ------ ----- ------- ---- of --- ------- --<br>------- ---------- ------ -- ----- -- ----- -- ---- ------<br>--- ----- --- --- ------ -------- ----- --- ------ ----- --<br>----- ----- ---------- --- --- ------ ------ ---- -- ------<br>------- --- ------ ----- --- ---- ------- -- ---- --- --<br>------- ------,248245,248228,247855.84,247856,247856.32,248246.56,,8,of
screen,html.Screen,2_1_1_1_9,2022-02-01T15:03:31.416Z,,,,,,,,,,,,,,,,,54,,,,,,,,,,,,,,341.4400000000023,,response,,,,100,,,,,,,Space,keypress(Space),,,,,,,,-- --- ---- --- ------ ----- ------- ---- -- its ------- --<br>------- ---------- ------ -- ----- -- ----- -- ---- ------<br>--- ----- --- --- ------ -------- ----- --- ------ ----- --<br>----- ----- ---------- --- --- ------ ------ ---- -- ------<br>------- --- ------ ----- --- ---- ------- -- ---- --- --<br>------- ------,248598,248588,248246.1,248246,248246.56,248599.02,,9,its
screen,html.Screen,2_1_1_1_10,2022-02-01T15:03:32.457Z,,,,,,,,,,,,,,,,,54,,,,,,,,,,,,,,1020.9800000000105,,response,,,,100,,,,,,,Space,keypress(Space),,,,,,,,-- --- ---- --- ------ ----- ------- ---- -- --- revenue --<br>------- ---------- ------ -- ----- -- ----- -- ---- ------<br>--- ----- --- --- ------ -------- ----- --- ------ ----- --<br>----- ----- ---------- --- --- ------ ------ ---- -- ------<br>------- --- ------ ----- --- ---- ------- -- ---- --- --<br>------- ------,249638,249620,248598.5,248599,248599.02,249639.24,,10,revenue
screen,html.Screen,2_1_1_1_11,2022-02-01T15:03:32.818Z,,,,,,,,,,,,,,,,,54,,,,,,,,,,,,,,355.7600000000093,,response,,,,100,,,,,,,Space,keypress(Space),,,,,,,,-- --- ---- --- ------ ----- ------- ---- -- --- ------- by<br>------- ---------- ------ -- ----- -- ----- -- ---- ------<br>--- ----- --- --- ------ -------- ----- --- ------ ----- --<br>----- ----- ---------- --- --- ------ ------ ---- -- ------<br>------- --- ------ ----- --- ---- ------- -- ---- --- --<br>------- ------,249999,249995,249639,249638,249639.24,249999.8,,11,by
screen,html.Screen,2_1_1_1_12,2022-02-01T15:03:33.297Z,,,,,,,,,,,,,,,,,54,,,,,,,,,,,,,,462.20000000001164,,response,,,,100,,,,,,,Space,keypress(Space),,,,,,,,-- --- ---- --- ------ ----- ------- ---- -- --- ------- --<br>issuing ---------- ------ -- ----- -- ----- -- ---- ------<br>--- ----- --- --- ------ -------- ----- --- ------ ----- --<br>----- ----- ---------- --- --- ------ ------ ---- -- ------<br>------- --- ------ ----- --- ---- ------- -- ---- --- --<br>------- ------,250478,250462,249999.26,250000,249999.8,250479.58,,12,issuing
screen,html.Screen,2_1_1_1_13,2022-02-01T15:03:33.810Z,,,,,,,,,,,,,,,,,54,,,,,,,,,,,,,,499.4200000000128,,response,,,,100,,,,,,,Space,keypress(Space),,,,,,,,-- --- ---- --- ------ ----- ------- ---- -- --- ------- --<br>------- government ------ -- ----- -- ----- -- ---- ------<br>--- ----- --- --- ------ -------- ----- --- ------ ----- --<br>----- ----- ---------- --- --- ------ ------ ---- -- ------<br>------- --- ------ ----- --- ---- ------- -- ---- --- --<br>------- ------,250991,250979,250479.04,250479,250479.58,250992.96,,13,government
screen,html.Screen,2_1_1_1_14,2022-02-01T15:03:35.867Z,,,,,,,,,,,,,,,,,54,,,,,,,,,,,,,,2047.0400000000081,,response,,,,100,,,,,,,Space,keypress(Space),,,,,,,,-- --- ---- --- ------ ----- ------- ---- -- --- ------- --<br>------- ---------- bonds. -- ----- -- ----- -- ---- ------<br>--- ----- --- --- ------ -------- ----- --- ------ ----- --<br>----- ----- ---------- --- --- ------ ------ ---- -- ------<br>------- --- ------ ----- --- ---- ------- -- ---- --- --<br>------- ------,253049,253040,250991.26,250992,250992.96,253049.5,,14,bonds.
screen,html.Screen,2_1_1_1_15,2022-02-01T15:03:36.156Z,,,,,,,,,,,,,,,,,54,,,,,,,,,,,,,,273.5,,response,,,,100,,,,,,,Space,keypress(Space),,,,,,,,-- --- ---- --- ------ ----- ------- ---- -- --- ------- --<br>------- ---------- ------ In ----- -- ----- -- ---- ------<br>--- ----- --- --- ------ -------- ----- --- ------ ----- --<br>----- ----- ---------- --- --- ------ ------ ---- -- ------<br>------- --- ------ ----- --- ---- ------- -- ---- --- --<br>------- ------,253337,253323,253049.1,253049,253049.5,253337.64,,15,In
screen,html.Screen,2_1_1_1_16,2022-02-01T15:03:36.414Z,,,,,,,,,,,,,,,,,54,,,,,,,,,,,,,,234.35999999998603,,response,,,,100,,,,,,,Space,keypress(Space),,,,,,,,"-- --- ---- --- ------ ----- ------- ---- -- --- ------- --<br>------- ---------- ------ -- 1727, -- ----- -- ---- ------<br>--- ----- --- --- ------ -------- ----- --- ------ ----- --<br>----- ----- ---------- --- --- ------ ------ ---- -- ------<br>------- --- ------ ----- --- ---- ------- -- ---- --- --<br>------- ------",253595,253572,253337.2,253337,253337.64,253598.32,,16,"1727,"
screen,html.Screen,2_1_1_1_17,2022-02-01T15:03:37.012Z,,,,,,,,,,,,,,,,,54,,,,,,,,,,,,,,582.679999999993,,response,,,,100,,,,,,,Space,keypress(Space),,,,,,,,-- --- ---- --- ------ ----- ------- ---- -- --- ------- --<br>------- ---------- ------ -- ----- in ----- -- ---- ------<br>--- ----- --- --- ------ -------- ----- --- ------ ----- --<br>----- ----- ---------- --- --- ------ ------ ---- -- ------<br>------- --- ------ ----- --- ---- ------- -- ---- --- --<br>------- ------,254194,254181,253596.28,253596,253598.32,254194.58,,17,in
screen,html.Screen,2_1_1_1_18,2022-02-01T15:03:37.639Z,,,,,,,,,,,,,,,,,54,,,,,,,,,,,,,,612.4200000000128,,response,,,,100,,,,,,,Space,keypress(Space),,,,,,,,-- --- ---- --- ------ ----- ------- ---- -- --- ------- --<br>------- ---------- ------ -- ----- -- order -- ---- ------<br>--- ----- --- --- ------ -------- ----- --- ------ ----- --<br>----- ----- ---------- --- --- ------ ------ ---- -- ------<br>------- --- ------ ----- --- ---- ------- -- ---- --- --<br>------- ------,254821,254807,254194.08,254194,254194.58,254821.76,,18,order
screen,html.Screen,2_1_1_1_19,2022-02-01T15:03:37.971Z,,,,,,,,,,,,,,,,,54,,,,,,,,,,,,,,313.2399999999907,,response,,,,100,,,,,,,Space,keypress(Space),,,,,,,,-- --- ---- --- ------ ----- ------- ---- -- --- ------- --<br>------- ---------- ------ -- ----- -- ----- to ---- ------<br>--- ----- --- --- ------ -------- ----- --- ------ ----- --<br>----- ----- ---------- --- --- ------ ------ ---- -- ------<br>------- --- ------ ----- --- ---- ------- -- ---- --- --<br>------- ------,255153,255135,254821.22,254821,254821.76,255152.92,,19,to
screen,html.Screen,2_1_1_1_20,2022-02-01T15:03:38.218Z,,,,,,,,,,,,,,,,,54,,,,,,,,,,,,,,232.0799999999872,,response,,,,100,,,,,,,Space,keypress(Space),,,,,,,,-- --- ---- --- ------ ----- ------- ---- -- --- ------- --<br>------- ---------- ------ -- ----- -- ----- -- save ------<br>--- ----- --- --- ------ -------- ----- --- ------ ----- --<br>----- ----- ---------- --- --- ------ ------ ---- -- ------<br>------- --- ------ ----- --- ---- ------- -- ---- --- --<br>------- ------,255400,255385,255152.74,255153,255152.92,255400.96,,20,save
screen,html.Screen,2_1_1_1_21,2022-02-01T15:03:38.553Z,,,,,,,,,,,,,,,,,54,,,,,,,,,,,,,,312.04000000000815,,response,,,,100,,,,,,,Space,keypress(Space),,,,,,,,"-- --- ---- --- ------ ----- ------- ---- -- --- ------- --<br>------- ---------- ------ -- ----- -- ----- -- ---- money,<br>--- ----- --- --- ------ -------- ----- --- ------ ----- --<br>----- ----- ---------- --- --- ------ ------ ---- -- ------<br>------- --- ------ ----- --- ---- ------- -- ---- --- --<br>------- ------",255734,255713,255400.46,255400,255400.96,255735.34,,21,"money,"
screen,html.Screen,2_1_1_1_22,2022-02-01T15:03:38.889Z,,,,,,,,,,,,,,,,,54,,,,,,,,,,,,,,321.6600000000035,,response,,,,100,,,,,,,Space,keypress(Space),,,,,,,,-- --- ---- --- ------ ----- ------- ---- -- --- ------- --<br>------- ---------- ------ -- ----- -- ----- -- ---- ------<br>the ----- --- --- ------ -------- ----- --- ------ ----- --<br>----- ----- ---------- --- --- ------ ------ ---- -- ------<br>------- --- ------ ----- --- ---- ------- -- ---- --- --<br>------- ------,256070,256057,255734.8,255734,255735.34,256070.92,,22,the
screen,html.Screen,2_1_1_1_23,2022-02-01T15:03:39.205Z,,,,,,,,,,,,,,,,,54,,,,,,,,,,,,,,299.0799999999872,,response,,,,100,,,,,,,Space,keypress(Space),,,,,,,,-- --- ---- --- ------ ----- ------- ---- -- --- ------- --<br>------- ---------- ------ -- ----- -- ----- -- ---- ------<br>--- state --- --- ------ -------- ----- --- ------ ----- --<br>----- ----- ---------- --- --- ------ ------ ---- -- ------<br>------- --- ------ ----- --- ---- ------- -- ---- --- --<br>------- ------,256386,256370,256070.38,256070,256070.92,256387.46,,23,state
screen,html.Screen,2_1_1_1_24,2022-02-01T15:03:39.525Z,,,,,,,,,,,,,,,,,54,,,,,,,,,,,,,,293.54000000000815,,response,,,,100,,,,,,,Space,keypress(Space),,,,,,,,-- --- ---- --- ------ ----- ------- ---- -- --- ------- --<br>------- ---------- ------ -- ----- -- ----- -- ---- ------<br>--- ----- cut --- ------ -------- ----- --- ------ ----- --<br>----- ----- ---------- --- --- ------ ------ ---- -- ------<br>------- --- ------ ----- --- ---- ------- -- ---- --- --<br>------- ------,256706,256681,256386.92,256387,256387.46,256706.8,,24,cut
screen,html.Screen,2_1_1_1_25,2022-02-01T15:03:39.854Z,,,,,,,,,,,,,,,,,54,,,,,,,,,,,,,,303.20000000001164,,response,,,,100,,,,,,,Space,keypress(Space),,,,,,,,-- --- ---- --- ------ ----- ------- ---- -- --- ------- --<br>------- ---------- ------ -- ----- -- ----- -- ---- ------<br>--- ----- --- the ------ -------- ----- --- ------ ----- --<br>----- ----- ---------- --- --- ------ ------ ---- -- ------<br>------- --- ------ ----- --- ---- ------- -- ---- --- --<br>------- ------,257036,257010,256706.32,256706,256706.8,257036.98,,25,the
screen,html.Screen,2_1_1_1_26,2022-02-01T15:03:40.176Z,,,,,,,,,,,,,,,,,54,,,,,,,,,,,,,,317.0199999999895,,response,,,,100,,,,,,,Space,keypress(Space),,,,,,,,-- --- ---- --- ------ ----- ------- ---- -- --- ------- --<br>------- ---------- ------ -- ----- -- ----- -- ---- ------<br>--- ----- --- --- bonds' -------- ----- --- ------ ----- --<br>----- ----- ---------- --- --- ------ ------ ---- -- ------<br>------- --- ------ ----- --- ---- ------- -- ---- --- --<br>------- ------,257358,257354,257036.52,257037,257036.98,257358.34,,26,bonds'
screen,html.Screen,2_1_1_1_27,2022-02-01T15:03:40.732Z,,,,,,,,,,,,,,,,,54,,,,,,,,,,,,,,541.6600000000035,,response,,,,100,,,,,,,Space,keypress(Space),,,,,,,,-- --- ---- --- ------ ----- ------- ---- -- --- ------- --<br>------- ---------- ------ -- ----- -- ----- -- ---- ------<br>--- ----- --- --- ------ interest ----- --- ------ ----- --<br>----- ----- ---------- --- --- ------ ------ ---- -- ------<br>------- --- ------ ----- --- ---- ------- -- ---- --- --<br>------- ------,257912,257900,257358.02,257358,257358.34,257913.34,,27,interest
screen,html.Screen,2_1_1_1_28,2022-02-01T15:03:41.299Z,,,,,,,,,,,,,,,,,54,,,,,,,,,,,,,,549.6600000000035,,response,,,,100,,,,,,,Space,keypress(Space),,,,,,,,-- --- ---- --- ------ ----- ------- ---- -- --- ------- --<br>------- ---------- ------ -- ----- -- ----- -- ---- ------<br>--- ----- --- --- ------ -------- rate. --- ------ ----- --<br>----- ----- ---------- --- --- ------ ------ ---- -- ------<br>------- --- ------ ----- --- ---- ------- -- ---- --- --<br>------- ------,258480,258463,257912.88,257913,257913.34,258481.38,,28,rate.
screen,html.Screen,2_1_1_1_29,2022-02-01T15:03:42.876Z,,,,,,,,,,,,,,,,,54,,,,,,,,,,,,,,1559.6199999999953,,response,,,,100,,,,,,,Space,keypress(Space),,,,,,,,-- --- ---- --- ------ ----- ------- ---- -- --- ------- --<br>------- ---------- ------ -- ----- -- ----- -- ---- ------<br>--- ----- --- --- ------ -------- ----- The ------ ----- --<br>----- ----- ---------- --- --- ------ ------ ---- -- ------<br>------- --- ------ ----- --- ---- ------- -- ---- --- --<br>------- ------,260057,260041,258480.92,258481,258481.38,260059.7,,29,The
screen,html.Screen,2_1_1_1_30,2022-02-01T15:03:43.167Z,,,,,,,,,,,,,,,,,54,,,,,,,,,,,,,,277.29999999998836,,response,,,,100,,,,,,,Space,keypress(Space),,,,,,,,-- --- ---- --- ------ ----- ------- ---- -- --- ------- --<br>------- ---------- ------ -- ----- -- ----- -- ---- ------<br>--- ----- --- --- ------ -------- ----- --- market ----- --<br>----- ----- ---------- --- --- ------ ------ ---- -- ------<br>------- --- ------ ----- --- ---- ------- -- ---- --- --<br>------- ------,260348,260337,260057.94,260058,260059.7,260349.46,,30,market
screen,html.Screen,2_1_1_1_31,2022-02-01T15:03:43.515Z,,,,,,,,,,,,,,,,,54,,,,,,,,,,,,,,332.54000000000815,,response,,,,100,,,,,,,Space,keypress(Space),,,,,,,,-- --- ---- --- ------ ----- ------- ---- -- --- ------- --<br>------- ---------- ------ -- ----- -- ----- -- ---- ------<br>--- ----- --- --- ------ -------- ----- --- ------ value --<br>----- ----- ---------- --- --- ------ ------ ---- -- ------<br>------- --- ------ ----- --- ---- ------- -- ---- --- --<br>------- ------,260696,260682,260349.1,260349,260349.46,260697.06,,31,value
screen,html.Screen,2_1_1_1_32,2022-02-01T15:03:43.809Z,,,,,,,,,,,,,,,,,54,,,,,,,,,,,,,,281.9400000000023,,response,,,,100,,,,,,,Space,keypress(Space),,,,,,,,-- --- ---- --- ------ ----- ------- ---- -- --- ------- --<br>------- ---------- ------ -- ----- -- ----- -- ---- ------<br>--- ----- --- --- ------ -------- ----- --- ------ ----- of<br>----- ----- ---------- --- --- ------ ------ ---- -- ------<br>------- --- ------ ----- --- ---- ------- -- ---- --- --<br>------- ------,260991,260979,260696.58,260697,260697.06,260993.06,,32,of
screen,html.Screen,2_1_1_1_33,2022-02-01T15:03:44.255Z,,,,,,,,,,,,,,,,,54,,,,,,,,,,,,,,421.9400000000023,,response,,,,100,,,,,,,Space,keypress(Space),,,,,,,,-- --- ---- --- ------ ----- ------- ---- -- --- ------- --<br>------- ---------- ------ -- ----- -- ----- -- ---- ------<br>--- ----- --- --- ------ -------- ----- --- ------ ----- --<br>these ----- ---------- --- --- ------ ------ ---- -- ------<br>------- --- ------ ----- --- ---- ------- -- ---- --- --<br>------- ------,261436,261415,260990.92,260991,260993.06,261436.92,,33,these
screen,html.Screen,2_1_1_1_34,2022-02-01T15:03:44.562Z,,,,,,,,,,,,,,,,,54,,,,,,,,,,,,,,291.0799999999872,,response,,,,100,,,,,,,Space,keypress(Space),,,,,,,,-- --- ---- --- ------ ----- ------- ---- -- --- ------- --<br>------- ---------- ------ -- ----- -- ----- -- ---- ------<br>--- ----- --- --- ------ -------- ----- --- ------ ----- --<br>----- bonds ---------- --- --- ------ ------ ---- -- ------<br>------- --- ------ ----- --- ---- ------- -- ---- --- --<br>------- ------,261744,261728,261436.38,261436,261436.92,261744.04,,34,bonds
screen,html.Screen,2_1_1_1_35,2022-02-01T15:03:44.990Z,,,,,,,,,,,,,,,,,54,,,,,,,,,,,,,,406.95999999999185,,response,,,,100,,,,,,,Space,keypress(Space),,,,,,,,"-- --- ---- --- ------ ----- ------- ---- -- --- ------- --<br>------- ---------- ------ -- ----- -- ----- -- ---- ------<br>--- ----- --- --- ------ -------- ----- --- ------ ----- --<br>----- ----- plummeted, --- --- ------ ------ ---- -- ------<br>------- --- ------ ----- --- ---- ------- -- ---- --- --<br>------- ------",262172,262151,261743.76,261744,261744.04,262172.96,,35,"plummeted,"
screen,html.Screen,2_1_1_1_36,2022-02-01T15:03:45.349Z,,,,,,,,,,,,,,,,,54,,,,,,,,,,,,,,337.03999999997905,,response,,,,100,,,,,,,Space,keypress(Space),,,,,,,,-- --- ---- --- ------ ----- ------- ---- -- --- ------- --<br>------- ---------- ------ -- ----- -- ----- -- ---- ------<br>--- ----- --- --- ------ -------- ----- --- ------ ----- --<br>----- ----- ---------- and --- ------ ------ ---- -- ------<br>------- --- ------ ----- --- ---- ------- -- ---- --- --<br>------- ------,262529,262510,262172.12,262172,262172.96,262530.54,,36,and
screen,html.Screen,2_1_1_1_37,2022-02-01T15:03:45.678Z,,,,,,,,,,,,,,,,,54,,,,,,,,,,,,,,323.46000000002095,,response,,,,100,,,,,,,Space,keypress(Space),,,,,,,,-- --- ---- --- ------ ----- ------- ---- -- --- ------- --<br>------- ---------- ------ -- ----- -- ----- -- ---- ------<br>--- ----- --- --- ------ -------- ----- --- ------ ----- --<br>----- ----- ---------- --- the ------ ------ ---- -- ------<br>------- --- ------ ----- --- ---- ------- -- ---- --- --<br>------- ------,262860,262854,262530,262530,262530.54,262860.1,,37,the
screen,html.Screen,2_1_1_1_38,2022-02-01T15:03:45.964Z,,,,,,,,,,,,,,,,,54,,,,,,,,,,,,,,273.9000000000233,,response,,,,100,,,,,,,Space,keypress(Space),,,,,,,,-- --- ---- --- ------ ----- ------- ---- -- --- ------- --<br>------- ---------- ------ -- ----- -- ----- -- ---- ------<br>--- ----- --- --- ------ -------- ----- --- ------ ----- --<br>----- ----- ---------- --- --- market ------ ---- -- ------<br>------- --- ------ ----- --- ---- ------- -- ---- --- --<br>------- ------,263145,263134,262859.84,262860,262860.1,263146,,38,market
screen,html.Screen,2_1_1_1_39,2022-02-01T15:03:46.323Z,,,,,,,,,,,,,,,,,54,,,,,,,,,,,,,,349,,response,,,,100,,,,,,,Space,keypress(Space),,,,,,,,-- --- ---- --- ------ ----- ------- ---- -- --- ------- --<br>------- ---------- ------ -- ----- -- ----- -- ---- ------<br>--- ----- --- --- ------ -------- ----- --- ------ ----- --<br>----- ----- ---------- --- --- ------ became ---- -- ------<br>------- --- ------ ----- --- ---- ------- -- ---- --- --<br>------- ------,263504,263495,263145.54,263145,263146,263504.7,,39,became
screen,html.Screen,2_1_1_1_40,2022-02-01T15:03:46.911Z,,,,,,,,,,,,,,,,,54,,,,,,,,,,,,,,567.2999999999884,,response,,,,100,,,,,,,Space,keypress(Space),,,,,,,,-- --- ---- --- ------ ----- ------- ---- -- --- ------- --<br>------- ---------- ------ -- ----- -- ----- -- ---- ------<br>--- ----- --- --- ------ -------- ----- --- ------ ----- --<br>----- ----- ---------- --- --- ------ ------ wary -- ------<br>------- --- ------ ----- --- ---- ------- -- ---- --- --<br>------- ------,264093,264072,263504.16,263504,263504.7,264093.9,,40,wary
screen,html.Screen,2_1_1_1_41,2022-02-01T15:03:47.257Z,,,,,,,,,,,,,,,,,54,,,,,,,,,,,,,,338.0999999999767,,response,,,,100,,,,,,,Space,keypress(Space),,,,,,,,-- --- ---- --- ------ ----- ------- ---- -- --- ------- --<br>------- ---------- ------ -- ----- -- ----- -- ---- ------<br>--- ----- --- --- ------ -------- ----- --- ------ ----- --<br>----- ----- ---------- --- --- ------ ------ ---- of ------<br>------- --- ------ ----- --- ---- ------- -- ---- --- --<br>------- ------,264439,264432,264093.36,264093,264093.9,264439.3,,41,of
screen,html.Screen,2_1_1_1_42,2022-02-01T15:03:47.609Z,,,,,,,,,,,,,,,,,54,,,,,,,,,,,,,,335.70000000001164,,response,,,,100,,,,,,,Space,keypress(Space),,,,,,,,-- --- ---- --- ------ ----- ------- ---- -- --- ------- --<br>------- ---------- ------ -- ----- -- ----- -- ---- ------<br>--- ----- --- --- ------ -------- ----- --- ------ ----- --<br>----- ----- ---------- --- --- ------ ------ ---- -- French<br>------- --- ------ ----- --- ---- ------- -- ---- --- --<br>------- ------,264791,264775,264438.82,264439,264439.3,264793.2,,42,French
screen,html.Screen,2_1_1_1_43,2022-02-01T15:03:48.157Z,,,,,,,,,,,,,,,,,54,,,,,,,,,,,,,,528.7999999999884,,response,,,,100,,,,,,,Space,keypress(Space),,,,,,,,-- --- ---- --- ------ ----- ------- ---- -- --- ------- --<br>------- ---------- ------ -- ----- -- ----- -- ---- ------<br>--- ----- --- --- ------ -------- ----- --- ------ ----- --<br>----- ----- ---------- --- --- ------ ------ ---- -- ------<br>credit. --- ------ ----- --- ---- ------- -- ---- --- --<br>------- ------,265338,265322,264790.86,264791,264793.2,265338.92,,43,credit.
screen,html.Screen,2_1_1_1_44,2022-02-01T15:03:48.636Z,,,,,,,,,,,,,,,,,54,,,,,,,,,,,,,,468.0800000000163,,response,,,,100,,,,,,,Space,keypress(Space),,,,,,,,-- --- ---- --- ------ ----- ------- ---- -- --- ------- --<br>------- ---------- ------ -- ----- -- ----- -- ---- ------<br>--- ----- --- --- ------ -------- ----- --- ------ ----- --<br>----- ----- ---------- --- --- ------ ------ ---- -- ------<br>------- The ------ ----- --- ---- ------- -- ---- --- --<br>------- ------,265818,265807,265338.44,265338,265338.92,265818.76,,44,The
screen,html.Screen,2_1_1_1_45,2022-02-01T15:03:49.004Z,,,,,,,,,,,,,,,,,54,,,,,,,,,,,,,,346.2399999999907,,response,,,,100,,,,,,,Space,keypress(Space),,,,,,,,-- --- ---- --- ------ ----- ------- ---- -- --- ------- --<br>------- ---------- ------ -- ----- -- ----- -- ---- ------<br>--- ----- --- --- ------ -------- ----- --- ------ ----- --<br>----- ----- ---------- --- --- ------ ------ ---- -- ------<br>------- --- French ----- --- ---- ------- -- ---- --- --<br>------- ------,266186,266165,265818.22,265818,265818.76,266186.68,,45,French
screen,html.Screen,2_1_1_1_46,2022-02-01T15:03:49.323Z,,,,,,,,,,,,,,,,,54,,,,,,,,,,,,,,308.320000000007,,response,,,,100,,,,,,,Space,keypress(Space),,,,,,,,-- --- ---- --- ------ ----- ------- ---- -- --- ------- --<br>------- ---------- ------ -- ----- -- ----- -- ---- ------<br>--- ----- --- --- ------ -------- ----- --- ------ ----- --<br>----- ----- ---------- --- --- ------ ------ ---- -- ------<br>------- --- ------ state --- ---- ------- -- ---- --- --<br>------- ------,266504,266495,266186.22,266186,266186.68,266505.84,,46,state
screen,html.Screen,2_1_1_1_47,2022-02-01T15:03:49.674Z,,,,,,,,,,,,,,,,,54,,,,,,,,,,,,,,332.1599999999744,,response,,,,100,,,,,,,Space,keypress(Space),,,,,,,,-- --- ---- --- ------ ----- ------- ---- -- --- ------- --<br>------- ---------- ------ -- ----- -- ----- -- ---- ------<br>--- ----- --- --- ------ -------- ----- --- ------ ----- --<br>----- ----- ---------- --- --- ------ ------ ---- -- ------<br>------- --- ------ ----- was ---- ------- -- ---- --- --<br>------- ------,266856,266838,266505.38,266506,266505.84,266856.9,,47,was
screen,html.Screen,2_1_1_1_48,2022-02-01T15:03:49.988Z,,,,,,,,,,,,,,,,,54,,,,,,,,,,,,,,293.0999999999767,,response,,,,100,,,,,,,Space,keypress(Space),,,,,,,,-- --- ---- --- ------ ----- ------- ---- -- --- ------- --<br>------- ---------- ------ -- ----- -- ----- -- ---- ------<br>--- ----- --- --- ------ -------- ----- --- ------ ----- --<br>----- ----- ---------- --- --- ------ ------ ---- -- ------<br>------- --- ------ ----- --- left ------- -- ---- --- --<br>------- ------,267170,267150,266856.3,266857,266856.9,267169.88,,48,left
screen,html.Screen,2_1_1_1_49,2022-02-01T15:03:50.308Z,,,,,,,,,,,,,,,,,54,,,,,,,,,,,,,,308.11999999999534,,response,,,,100,,,,,,,Space,keypress(Space),,,,,,,,-- --- ---- --- ------ ----- ------- ---- -- --- ------- --<br>------- ---------- ------ -- ----- -- ----- -- ---- ------<br>--- ----- --- --- ------ -------- ----- --- ------ ----- --<br>----- ----- ---------- --- --- ------ ------ ---- -- ------<br>------- --- ------ ----- --- ---- without -- ---- --- --<br>------- ------,267490,267478,267169.7,267170,267169.88,267490.46,,49,without
screen,html.Screen,2_1_1_1_50,2022-02-01T15:03:50.638Z,,,,,,,,,,,,,,,,,54,,,,,,,,,,,,,,316.53999999997905,,response,,,,100,,,,,,,Space,keypress(Space),,,,,,,,-- --- ---- --- ------ ----- ------- ---- -- --- ------- --<br>------- ---------- ------ -- ----- -- ----- -- ---- ------<br>--- ----- --- --- ------ -------- ----- --- ------ ----- --<br>----- ----- ---------- --- --- ------ ------ ---- -- ------<br>------- --- ------ ----- --- ---- ------- an ---- --- --<br>------- ------,267819,267807,267490.18,267490,267490.46,267819.48,,50,an
screen,html.Screen,2_1_1_1_51,2022-02-01T15:03:50.987Z,,,,,,,,,,,,,,,,,54,,,,,,,,,,,,,,331.5200000000186,,response,,,,100,,,,,,,Space,keypress(Space),,,,,,,,-- --- ---- --- ------ ----- ------- ---- -- --- ------- --<br>------- ---------- ------ -- ----- -- ----- -- ---- ------<br>--- ----- --- --- ------ -------- ----- --- ------ ----- --<br>----- ----- ---------- --- --- ------ ------ ---- -- ------<br>------- --- ------ ----- --- ---- ------- -- easy --- --<br>------- ------,268169,268151,267818.98,267819,267819.48,268169.66,,51,easy
screen,html.Screen,2_1_1_1_52,2022-02-01T15:03:51.356Z,,,,,,,,,,,,,,,,,54,,,,,,,,,,,,,,355.3400000000256,,response,,,,100,,,,,,,Space,keypress(Space),,,,,,,,-- --- ---- --- ------ ----- ------- ---- -- --- ------- --<br>------- ---------- ------ -- ----- -- ----- -- ---- ------<br>--- ----- --- --- ------ -------- ----- --- ------ ----- --<br>----- ----- ---------- --- --- ------ ------ ---- -- ------<br>------- --- ------ ----- --- ---- ------- -- ---- way --<br>------- ------,268538,268525,268169.16,268169,268169.66,268538.62,,52,way
screen,html.Screen,2_1_1_1_53,2022-02-01T15:03:51.766Z,,,,,,,,,,,,,,,,,54,,,,,,,,,,,,,,393.38000000000466,,response,,,,100,,,,,,,Space,keypress(Space),,,,,,,,-- --- ---- --- ------ ----- ------- ---- -- --- ------- --<br>------- ---------- ------ -- ----- -- ----- -- ---- ------<br>--- ----- --- --- ------ -------- ----- --- ------ ----- --<br>----- ----- ---------- --- --- ------ ------ ---- -- ------<br>------- --- ------ ----- --- ---- ------- -- ---- --- of<br>------- ------,268948,268932,268538.28,268538,268538.62,268948.96,,53,of
screen,html.Screen,2_1_1_1_54,2022-02-01T15:03:52.225Z,,,,,,,,,,,,,,,,,54,,,,,,,,,,,,,,451.03999999997905,,response,,,,100,,,,,,,Space,keypress(Space),,,,,,,,-- --- ---- --- ------ ----- ------- ---- -- --- ------- --<br>------- ---------- ------ -- ----- -- ----- -- ---- ------<br>--- ----- --- --- ------ -------- ----- --- ------ ----- --<br>----- ----- ---------- --- --- ------ ------ ---- -- ------<br>------- --- ------ ----- --- ---- ------- -- ---- --- --<br>raising ------,269406,269400,268948.42,268948,268948.96,269406.24,,54,raising
screen,html.Screen,2_1_1_1_55,2022-02-01T15:03:52.645Z,,,,,,,,,,,,,,,,,54,,,,,,,,,,,,,,400.7600000000093,,response,,,,100,,,,,,,Space,keypress(Space),,,,,,,,-- --- ---- --- ------ ----- ------- ---- -- --- ------- --<br>------- ---------- ------ -- ----- -- ----- -- ---- ------<br>--- ----- --- --- ------ -------- ----- --- ------ ----- --<br>----- ----- ---------- --- --- ------ ------ ---- -- ------<br>------- --- ------ ----- --- ---- ------- -- ---- --- --<br>------- money.,269827,269807,269406.14,269406,269406.24,269828.08,,55,money.
Item 100,flow.Loop,2_1_1_1,2022-02-01T15:03:52.646Z,,,,,,,,,,,,,,,,,,,,,,,,,,,,,,,26314.440000000002,,completion,,,,,A,,,,,,,,,,,silence,,,,,269827,269807,243475.9,243477,243492.56,269828.08,,,
Question 1,html.Screen,2_1_1_2,2022-02-01T15:03:55.430Z,,,,,,,,,,,,,,,,,,,,,,,,,,,,true,TRUE,,2775.9199999999837,,response,,,,100,A,,,,,,TRUE,click #choice-1,,,,silence,,,,,272612,272604,269827.54,269828,269828.08,272626.6,,,
Question 2,html.Screen,2_1_1_3,2022-02-01T15:03:57.593Z,,,,,,,,,,,,,,,,,,,,,,,,,,,,true,FALSE,,2133.4000000000233,,response,,,,100,A,,,,,,FALSE,click #choice-2,,,,silence,,,,,274773,274760,272611.28,272612,272626.6,274776.7,,,
Item 100,flow.Sequence,2_1_1,2022-02-01T15:03:57.593Z,,,,,,,,,,,,,,,,,,,,,,,,,,,,,,,41267.78,,completion,,,,,,,,,,,,,,,,,,,,,274773,274760,233485.7,233486,233492.22,274776.7,,,
End of Practice,html.Page,2_1_2,2022-02-01T15:04:17.580Z,,,,,,,,,,,,,,,,,,,,,,,,,,,,,,,20000.599999999977,,timeout,,,,,,,,,,,,,,,,,,,,,294762,294760.64,274773.44,274774,274776.7,294777.3,,,
Practice,flow.Sequence,2_1,2022-02-01T15:04:17.581Z,,,,,,,,,,,,,,,,,,,,,,,,,,,,,,,100752.80000000002,,completion,,,,,,,,,,,,,,,,,,,,,294762,294760.64,193995.58,193997,194007.84,294777.3,,,
Trap_instruction,html.Page,2_2_0,2022-02-01T15:04:37.582Z,,,,,,,,,,,,,,,,,,,,,,,,,,,,,,,20017.119999999995,,timeout,,,,,,,,,,,,,,,,,,,,,314763,314761.08,294760.64,294763,294777.3,314794.42,,,
trap_trial,html.Screen,2_2_1,2022-02-01T15:04:40.521Z,,,,,,,,,,,,,,,,,,,,,,,,,,,,true,1,,2887.5800000000163,,response,,,,,,,,,,,1,click #choice-1,,,,,,,,,317703,317682,314761.08,314763,314794.42,317711.46,,,
end of trap trial,html.Page,2_2_2,2022-02-01T15:04:44.136Z,,,,,,,,,,,,,,,,,,,,,,,,,,,,,,,3606.539999999979,,form submission,,,,,,,,,,,,,,,,,,,,,321318,321318,317701.94,317703,317711.46,321328,,,
Trap 1,flow.Sequence,2_2,2022-02-01T15:04:44.136Z,,,,,,,,,,,,,,,,,,,,,,,,,,,,,,,26540.70000000001,,completion,,,,,,,,,,,,,,,,,,,,,321318,321318,294760.64,294763,294777.3,321328,,,
Standby,html.Page,2_3_0,2022-02-01T15:04:52.131Z,,,,,,,,,,,,,,,,,,,,,,,,,,,,,,,8000.299999999988,,timeout,,,,,,,,,,,,,,,,,,,,,329313,329311.66,321316.62,321318,321328,329328.3,,,
Holding screen,html.Screen,2_3_1_0_0,2022-02-01T15:04:59.132Z,,,,,,,,,,,,,,,,,,,,,,,,,,,,,,,7000.22000000003,,timeout,,,,,,,,,,,,,,,,,,,,,336313,336311.86,329311.66,329314,329328.3,336328.52,,,
screen,html.Screen,2_3_1_0_1_0,2022-02-01T15:05:00.053Z,,,,,,,,,,,,,,,,,2,,,,,,,,,,,,,,883.4799999999814,,response,,,,1,A,,,,,,Space,keypress(Space),,,,silence,,,,Two ---- ------ --- ------- ---------- ------- ----------<br>--- --------- --- ----------- ------- ----- ------- ---<br>--------- ---- -- --- ---- -- --------- -- ---- -------<br>-- --------- ------ --- ----- ------ ---- --- --------- --<br>------ - ---- -- --- ----------- ------- ---- ----- -----<br>--- -------- - ------ ---- -- ----- ---- --- --- -----------<br>-- -------,337234,337212,336311.86,336313,336328.52,337245.08,,0,Two
screen,html.Screen,2_3_1_0_1_1,2022-02-01T15:05:00.588Z,,,,,,,,,,,,,,,,,2,,,,,,,,,,,,,,514.9199999999837,,response,,,,1,A,,,,,,Space,keypress(Space),,,,silence,,,,--- days ------ --- ------- ---------- ------- ----------<br>--- --------- --- ----------- ------- ----- ------- ---<br>--------- ---- -- --- ---- -- --------- -- ---- -------<br>-- --------- ------ --- ----- ------ ---- --- --------- --<br>------ - ---- -- --- ----------- ------- ---- ----- -----<br>--- -------- - ------ ---- -- ----- ---- --- --- -----------<br>-- -------,337770,337760,337234.64,337234,337245.08,337770.58,,1,days
screen,html.Screen,2_3_1_0_1_2,2022-02-01T15:05:01.066Z,,,,,,,,,,,,,,,,,2,,,,,,,,,,,,,,457.4199999999837,,response,,,,1,A,,,,,,Space,keypress(Space),,,,silence,,,,"--- ---- later, --- ------- ---------- ------- ----------<br>--- --------- --- ----------- ------- ----- ------- ---<br>--------- ---- -- --- ---- -- --------- -- ---- -------<br>-- --------- ------ --- ----- ------ ---- --- --------- --<br>------ - ---- -- --- ----------- ------- ---- ----- -----<br>--- -------- - ------ ---- -- ----- ---- --- --- -----------<br>-- -------",338247,338228,337770.04,337770,337770.58,338248.4,,2,"later,"
screen,html.Screen,2_3_1_0_1_3,2022-02-01T15:05:01.452Z,,,,,,,,,,,,,,,,,2,,,,,,,,,,,,,,371.5999999999767,,response,,,,1,A,,,,,,Space,keypress(Space),,,,silence,,,,--- ---- ------ the ------- ---------- ------- ----------<br>--- --------- --- ----------- ------- ----- ------- ---<br>--------- ---- -- --- ---- -- --------- -- ---- -------<br>-- --------- ------ --- ----- ------ ---- --- --------- --<br>------ - ---- -- --- ----------- ------- ---- ----- -----<br>--- -------- - ------ ---- -- ----- ---- --- --- -----------<br>-- -------,338634,338620,338247.86,338248,338248.4,338634,,3,the
screen,html.Screen,2_3_1_0_1_4,2022-02-01T15:05:01.803Z,,,,,,,,,,,,,,,,,2,,,,,,,,,,,,,,328,,response,,,,1,A,,,,,,Space,keypress(Space),,,,silence,,,,--- ---- ------ --- British ---------- ------- ----------<br>--- --------- --- ----------- ------- ----- ------- ---<br>--------- ---- -- --- ---- -- --------- -- ---- -------<br>-- --------- ------ --- ----- ------ ---- --- --------- --<br>------ - ---- -- --- ----------- ------- ---- ----- -----<br>--- -------- - ------ ---- -- ----- ---- --- --- -----------<br>-- -------,338985,338962,338633.82,338634,338634,338985.8,,4,British
screen,html.Screen,2_3_1_0_1_5,2022-02-01T15:05:02.501Z,,,,,,,,,,,,,,,,,2,,,,,,,,,,,,,,680.2000000000116,,response,,,,1,A,,,,,,Space,keypress(Space),,,,silence,,,,--- ---- ------ --- ------- astronomer ------- ----------<br>--- --------- --- ----------- ------- ----- ------- ---<br>--------- ---- -- --- ---- -- --------- -- ---- -------<br>-- --------- ------ --- ----- ------ ---- --- --------- --<br>------ - ---- -- --- ----------- ------- ---- ----- -----<br>--- -------- - ------ ---- -- ----- ---- --- --- -----------<br>-- -------,339682,339666,338985.36,338985,338985.8,339683.46,,5,astronomer
screen,html.Screen,2_3_1_0_1_6,2022-02-01T15:05:02.930Z,,,,,,,,,,,,,,,,,2,,,,,,,,,,,,,,419.53999999997905,,response,,,,1,A,,,,,,Space,keypress(Space),,,,silence,,,,--- ---- ------ --- ------- ---------- Richard ----------<br>--- --------- --- ----------- ------- ----- ------- ---<br>--------- ---- -- --- ---- -- --------- -- ---- -------<br>-- --------- ------ --- ----- ------ ---- --- --------- --<br>------ - ---- -- --- ----------- ------- ---- ----- -----<br>--- -------- - ------ ---- -- ----- ---- --- --- -----------<br>-- -------,340111,340103,339683.18,339684,339683.46,340111.74,,6,Richard
screen,html.Screen,2_3_1_0_1_7,2022-02-01T15:05:03.761Z,,,,,,,,,,,,,,,,,2,,,,,,,,,,,,,,819.2600000000093,,response,,,,1,A,,,,,,Space,keypress(Space),,,,silence,,,,--- ---- ------ --- ------- ---------- ------- Carrington<br>--- --------- --- ----------- ------- ----- ------- ---<br>--------- ---- -- --- ---- -- --------- -- ---- -------<br>-- --------- ------ --- ----- ------ ---- --- --------- --<br>------ - ---- -- --- ----------- ------- ---- ----- -----<br>--- -------- - ------ ---- -- ----- ---- --- --- -----------<br>-- -------,340943,340931,340111.2,340111,340111.74,340945.34,,7,Carrington
screen,html.Screen,2_3_1_0_1_8,2022-02-01T15:05:04.652Z,,,,,,,,,,,,,,,,,2,,,,,,,,,,,,,,877.6599999999744,,response,,,,1,A,,,,,,Space,keypress(Space),,,,silence,,,,--- ---- ------ --- ------- ---------- ------- ----------<br>was --------- --- ----------- ------- ----- ------- ---<br>--------- ---- -- --- ---- -- --------- -- ---- -------<br>-- --------- ------ --- ----- ------ ---- --- --------- --<br>------ - ---- -- --- ----------- ------- ---- ----- -----<br>--- -------- - ------ ---- -- ----- ---- --- --- -----------<br>-- -------,341833,341823,340943.46,340943,340945.34,341833.64,,8,was
screen,html.Screen,2_3_1_0_1_9,2022-02-01T15:05:05.076Z,,,,,,,,,,,,,,,,,2,,,,,,,,,,,,,,410.35999999998603,,response,,,,1,A,,,,,,Space,keypress(Space),,,,silence,,,,--- ---- ------ --- ------- ---------- ------- ----------<br>--- observing --- ----------- ------- ----- ------- ---<br>--------- ---- -- --- ---- -- --------- -- ---- -------<br>-- --------- ------ --- ----- ------ ---- --- --------- --<br>------ - ---- -- --- ----------- ------- ---- ----- -----<br>--- -------- - ------ ---- -- ----- ---- --- --- -----------<br>-- -------,342257,342244,341833.18,341833,341833.64,342257.94,,9,observing
screen,html.Screen,2_3_1_0_1_10,2022-02-01T15:05:05.441Z,,,,,,,,,,,,,,,,,2,,,,,,,,,,,,,,345.0599999999977,,response,,,,1,A,,,,,,Space,keypress(Space),,,,silence,,,,--- ---- ------ --- ------- ---------- ------- ----------<br>--- --------- the ----------- ------- ----- ------- ---<br>--------- ---- -- --- ---- -- --------- -- ---- -------<br>-- --------- ------ --- ----- ------ ---- --- --------- --<br>------ - ---- -- --- ----------- ------- ---- ----- -----<br>--- -------- - ------ ---- -- ----- ---- --- --- -----------<br>-- -------,342623,342603,342257.42,342257,342257.94,342623.44,,10,the
screen,html.Screen,2_3_1_0_1_11,2022-02-01T15:05:05.855Z,,,,,,,,,,,,,,,,,2,,,,,,,,,,,,,,386.5599999999977,,response,,,,1,A,,,,,,Space,keypress(Space),,,,silence,,,,--- ---- ------ --- ------- ---------- ------- ----------<br>--- --------- --- interesting ------- ----- ------- ---<br>--------- ---- -- --- ---- -- --------- -- ---- -------<br>-- --------- ------ --- ----- ------ ---- --- --------- --<br>------ - ---- -- --- ----------- ------- ---- ----- -----<br>--- -------- - ------ ---- -- ----- ---- --- --- -----------<br>-- -------,343036,343010,342622.9,342623,342623.44,343036.2,,11,interesting
screen,html.Screen,2_3_1_0_1_12,2022-02-01T15:05:06.346Z,,,,,,,,,,,,,,,,,2,,,,,,,,,,,,,,472.79999999998836,,response,,,,1,A,,,,,,Space,keypress(Space),,,,silence,,,,--- ---- ------ --- ------- ---------- ------- ----------<br>--- --------- --- ----------- sunspot ----- ------- ---<br>--------- ---- -- --- ---- -- --------- -- ---- -------<br>-- --------- ------ --- ----- ------ ---- --- --------- --<br>------ - ---- -- --- ----------- ------- ---- ----- -----<br>--- -------- - ------ ---- -- ----- ---- --- --- -----------<br>-- -------,343526,343509,343035.96,343036,343036.2,343527.9,,12,sunspot
screen,html.Screen,2_3_1_0_1_13,2022-02-01T15:05:06.765Z,,,,,,,,,,,,,,,,,2,,,,,,,,,,,,,,404.0999999999767,,response,,,,1,A,,,,,,Space,keypress(Space),,,,silence,,,,--- ---- ------ --- ------- ---------- ------- ----------<br>--- --------- --- ----------- ------- group ------- ---<br>--------- ---- -- --- ---- -- --------- -- ---- -------<br>-- --------- ------ --- ----- ------ ---- --- --------- --<br>------ - ---- -- --- ----------- ------- ---- ----- -----<br>--- -------- - ------ ---- -- ----- ---- --- --- -----------<br>-- -------,343947,343932,343527.36,343527,343527.9,343947.62,,13,group
screen,html.Screen,2_3_1_0_1_14,2022-02-01T15:05:07.149Z,,,,,,,,,,,,,,,,,2,,,,,,,,,,,,,,375.38000000000466,,response,,,,1,A,,,,,,Space,keypress(Space),,,,silence,,,,--- ---- ------ --- ------- ---------- ------- ----------<br>--- --------- --- ----------- ------- ----- through ---<br>--------- ---- -- --- ---- -- --------- -- ---- -------<br>-- --------- ------ --- ----- ------ ---- --- --------- --<br>------ - ---- -- --- ----------- ------- ---- ----- -----<br>--- -------- - ------ ---- -- ----- ---- --- --- -----------<br>-- -------,344331,344323,343947.08,343947,343947.62,344331.76,,14,through
screen,html.Screen,2_3_1_0_1_15,2022-02-01T15:05:07.488Z,,,,,,,,,,,,,,,,,2,,,,,,,,,,,,,,318.2399999999907,,response,,,,1,A,,,,,,Space,keypress(Space),,,,silence,,,,--- ---- ------ --- ------- ---------- ------- ----------<br>--- --------- --- ----------- ------- ----- ------- his<br>--------- ---- -- --- ---- -- --------- -- ---- -------<br>-- --------- ------ --- ----- ------ ---- --- --------- --<br>------ - ---- -- --- ----------- ------- ---- ----- -----<br>--- -------- - ------ ---- -- ----- ---- --- --- -----------<br>-- -------,344669,344650,344331.22,344331,344331.76,344669.84,,15,his
screen,html.Screen,2_3_1_0_1_16,2022-02-01T15:05:07.896Z,,,,,,,,,,,,,,,,,2,,,,,,,,,,,,,,386.1599999999744,,response,,,,1,A,,,,,,Space,keypress(Space),,,,silence,,,,--- ---- ------ --- ------- ---------- ------- ----------<br>--- --------- --- ----------- ------- ----- ------- ---<br>telescope ---- -- --- ---- -- --------- -- ---- -------<br>-- --------- ------ --- ----- ------ ---- --- --------- --<br>------ - ---- -- --- ----------- ------- ---- ----- -----<br>--- -------- - ------ ---- -- ----- ---- --- --- -----------<br>-- -------,345077,345056,344669.32,344669,344669.84,345077.96,,16,telescope
screen,html.Screen,2_3_1_0_1_17,2022-02-01T15:05:08.267Z,,,,,,,,,,,,,,,,,2,,,,,,,,,,,,,,354.03999999997905,,response,,,,1,A,,,,,,Space,keypress(Space),,,,silence,,,,--- ---- ------ --- ------- ---------- ------- ----------<br>--- --------- --- ----------- ------- ----- ------- ---<br>--------- when -- --- ---- -- --------- -- ---- -------<br>-- --------- ------ --- ----- ------ ---- --- --------- --<br>------ - ---- -- --- ----------- ------- ---- ----- -----<br>--- -------- - ------ ---- -- ----- ---- --- --- -----------<br>-- -------,345448,345432,345077.42,345078,345077.96,345448.92,,17,when
screen,html.Screen,2_3_1_0_1_18,2022-02-01T15:05:08.636Z,,,,,,,,,,,,,,,,,2,,,,,,,,,,,,,,341.0800000000163,,response,,,,1,A,,,,,,Space,keypress(Space),,,,silence,,,,--- ---- ------ --- ------- ---------- ------- ----------<br>--- --------- --- ----------- ------- ----- ------- ---<br>--------- ---- he --- ---- -- --------- -- ---- -------<br>-- --------- ------ --- ----- ------ ---- --- --------- --<br>------ - ---- -- --- ----------- ------- ---- ----- -----<br>--- -------- - ------ ---- -- ----- ---- --- --- -----------<br>-- -------,345817,345790,345448.38,345449,345448.92,345818.3,,18,he
screen,html.Screen,2_3_1_0_1_19,2022-02-01T15:05:08.925Z,,,,,,,,,,,,,,,,,2,,,,,,,,,,,,,,269.70000000001164,,response,,,,1,A,,,,,,Space,keypress(Space),,,,silence,,,,--- ---- ------ --- ------- ---------- ------- ----------<br>--- --------- --- ----------- ------- ----- ------- ---<br>--------- ---- -- saw ---- -- --------- -- ---- -------<br>-- --------- ------ --- ----- ------ ---- --- --------- --<br>------ - ---- -- --- ----------- ------- ---- ----- -----<br>--- -------- - ------ ---- -- ----- ---- --- --- -----------<br>-- -------,346106,346088,345817.76,345818,345818.3,346107.14,,19,saw
screen,html.Screen,2_3_1_0_1_20,2022-02-01T15:05:09.291Z,,,,,,,,,,,,,,,,,2,,,,,,,,,,,,,,355.85999999998603,,response,,,,1,A,,,,,,Space,keypress(Space),,,,silence,,,,--- ---- ------ --- ------- ---------- ------- ----------<br>--- --------- --- ----------- ------- ----- ------- ---<br>--------- ---- -- --- what -- --------- -- ---- -------<br>-- --------- ------ --- ----- ------ ---- --- --------- --<br>------ - ---- -- --- ----------- ------- ---- ----- -----<br>--- -------- - ------ ---- -- ----- ---- --- --- -----------<br>-- -------,346473,346463,346106.62,346106,346107.14,346473.82,,20,what
screen,html.Screen,2_3_1_0_1_21,2022-02-01T15:05:09.597Z,,,,,,,,,,,,,,,,,2,,,,,,,,,,,,,,286.179999999993,,response,,,,1,A,,,,,,Space,keypress(Space),,,,silence,,,,--- ---- ------ --- ------- ---------- ------- ----------<br>--- --------- --- ----------- ------- ----- ------- ---<br>--------- ---- -- --- ---- he --------- -- ---- -------<br>-- --------- ------ --- ----- ------ ---- --- --------- --<br>------ - ---- -- --- ----------- ------- ---- ----- -----<br>--- -------- - ------ ---- -- ----- ---- --- --- -----------<br>-- -------,346779,346760,346473.28,346473,346473.82,346779.66,,21,he
screen,html.Screen,2_3_1_0_1_22,2022-02-01T15:05:09.911Z,,,,,,,,,,,,,,,,,2,,,,,,,,,,,,,,293.3400000000256,,response,,,,1,A,,,,,,Space,keypress(Space),,,,silence,,,,--- ---- ------ --- ------- ---------- ------- ----------<br>--- --------- --- ----------- ------- ----- ------- ---<br>--------- ---- -- --- ---- -- described -- ---- -------<br>-- --------- ------ --- ----- ------ ---- --- --------- --<br>------ - ---- -- --- ----------- ------- ---- ----- -----<br>--- -------- - ------ ---- -- ----- ---- --- --- -----------<br>-- -------,347091,347073,346779.12,346779,346779.66,347092.78,,22,described
screen,html.Screen,2_3_1_0_1_23,2022-02-01T15:05:10.233Z,,,,,,,,,,,,,,,,,2,,,,,,,,,,,,,,307.21999999997206,,response,,,,1,A,,,,,,Space,keypress(Space),,,,silence,,,,--- ---- ------ --- ------- ---------- ------- ----------<br>--- --------- --- ----------- ------- ----- ------- ---<br>--------- ---- -- --- ---- -- --------- as ---- -------<br>-- --------- ------ --- ----- ------ ---- --- --------- --<br>------ - ---- -- --- ----------- ------- ---- ----- -----<br>--- -------- - ------ ---- -- ----- ---- --- --- -----------<br>-- -------,347414,347400,347092.24,347092,347092.78,347414.94,,23,as
screen,html.Screen,2_3_1_0_1_24,2022-02-01T15:05:10.606Z,,,,,,,,,,,,,,,,,2,,,,,,,,,,,,,,361.0599999999977,,response,,,,1,A,,,,,,Space,keypress(Space),,,,silence,,,,"--- ---- ------ --- ------- ---------- ------- ----------<br>--- --------- --- ----------- ------- ----- ------- ---<br>--------- ---- -- --- ---- -- --------- -- ""two -------<br>-- --------- ------ --- ----- ------ ---- --- --------- --<br>------ - ---- -- --- ----------- ------- ---- ----- -----<br>--- -------- - ------ ---- -- ----- ---- --- --- -----------<br>-- -------",347788,347776,347414.66,347414,347414.94,347788.82,,24,"""two"
screen,html.Screen,2_3_1_0_1_25,2022-02-01T15:05:11.004Z,,,,,,,,,,,,,,,,,2,,,,,,,,,,,,,,376.179999999993,,response,,,,1,A,,,,,,Space,keypress(Space),,,,silence,,,,--- ---- ------ --- ------- ---------- ------- ----------<br>--- --------- --- ----------- ------- ----- ------- ---<br>--------- ---- -- --- ---- -- --------- -- ---- patches<br>-- --------- ------ --- ----- ------ ---- --- --------- --<br>------ - ---- -- --- ----------- ------- ---- ----- -----<br>--- -------- - ------ ---- -- ----- ---- --- --- -----------<br>-- -------,348185,348165,347788.38,347788,347788.82,348185.92,,25,patches
screen,html.Screen,2_3_1_0_1_26,2022-02-01T15:05:11.374Z,,,,,,,,,,,,,,,,,2,,,,,,,,,,,,,,355.0800000000163,,response,,,,1,A,,,,,,Space,keypress(Space),,,,silence,,,,--- ---- ------ --- ------- ---------- ------- ----------<br>--- --------- --- ----------- ------- ----- ------- ---<br>--------- ---- -- --- ---- -- --------- -- ---- -------<br>of --------- ------ --- ----- ------ ---- --- --------- --<br>------ - ---- -- --- ----------- ------- ---- ----- -----<br>--- -------- - ------ ---- -- ----- ---- --- --- -----------<br>-- -------,348556,348541,348185.44,348185,348185.92,348556.16,,26,of
screen,html.Screen,2_3_1_0_1_27,2022-02-01T15:05:11.828Z,,,,,,,,,,,,,,,,,2,,,,,,,,,,,,,,438.8400000000256,,response,,,,1,A,,,,,,Space,keypress(Space),,,,silence,,,,--- ---- ------ --- ------- ---------- ------- ----------<br>--- --------- --- ----------- ------- ----- ------- ---<br>--------- ---- -- --- ---- -- --------- -- ---- -------<br>-- intensely ------ --- ----- ------ ---- --- --------- --<br>------ - ---- -- --- ----------- ------- ---- ----- -----<br>--- -------- - ------ ---- -- ----- ---- --- --- -----------<br>-- -------,349009,348995,348556.04,348556,348556.16,349010.46,,27,intensely
screen,html.Screen,2_3_1_0_1_28,2022-02-01T15:05:12.264Z,,,,,,,,,,,,,,,,,2,,,,,,,,,,,,,,420.53999999997905,,response,,,,1,A,,,,,,Space,keypress(Space),,,,silence,,,,--- ---- ------ --- ------- ---------- ------- ----------<br>--- --------- --- ----------- ------- ----- ------- ---<br>--------- ---- -- --- ---- -- --------- -- ---- -------<br>-- --------- bright --- ----- ------ ---- --- --------- --<br>------ - ---- -- --- ----------- ------- ---- ----- -----<br>--- -------- - ------ ---- -- ----- ---- --- --- -----------<br>-- -------,349446,349431,349009.96,349010,349010.46,349447.06,,28,bright
screen,html.Screen,2_3_1_0_1_29,2022-02-01T15:05:12.624Z,,,,,,,,,,,,,,,,,2,,,,,,,,,,,,,,343.9400000000023,,response,,,,1,A,,,,,,Space,keypress(Space),,,,silence,,,,--- ---- ------ --- ------- ---------- ------- ----------<br>--- --------- --- ----------- ------- ----- ------- ---<br>--------- ---- -- --- ---- -- --------- -- ---- -------<br>-- --------- ------ and ----- ------ ---- --- --------- --<br>------ - ---- -- --- ----------- ------- ---- ----- -----<br>--- -------- - ------ ---- -- ----- ---- --- --- -----------<br>-- -------,349805,349791,349446.56,349446,349447.06,349805.86,,29,and
screen,html.Screen,2_3_1_0_1_30,2022-02-01T15:05:13.066Z,,,,,,,,,,,,,,,,,2,,,,,,,,,,,,,,423.14000000001397,,response,,,,1,A,,,,,,Space,keypress(Space),,,,silence,,,,--- ---- ------ --- ------- ---------- ------- ----------<br>--- --------- --- ----------- ------- ----- ------- ---<br>--------- ---- -- --- ---- -- --------- -- ---- -------<br>-- --------- ------ --- white ------ ---- --- --------- --<br>------ - ---- -- --- ----------- ------- ---- ----- -----<br>--- -------- - ------ ---- -- ----- ---- --- --- -----------<br>-- -------,350247,350229,349805.42,349806,349805.86,350248.08,,30,white
screen,html.Screen,2_3_1_0_1_31,2022-02-01T15:05:13.452Z,,,,,,,,,,,,,,,,,2,,,,,,,,,,,,,,371.9199999999837,,response,,,,1,A,,,,,,Space,keypress(Space),,,,silence,,,,"--- ---- ------ --- ------- ---------- ------- ----------<br>--- --------- --- ----------- ------- ----- ------- ---<br>--------- ---- -- --- ---- -- --------- -- ---- -------<br>-- --------- ------ --- ----- light"" ---- --- --------- --<br>------ - ---- -- --- ----------- ------- ---- ----- -----<br>--- -------- - ------ ---- -- ----- ---- --- --- -----------<br>-- -------",350633,350620,350247.54,350247,350248.08,350634.04,,31,"light"""
screen,html.Screen,2_3_1_0_1_32,2022-02-01T15:05:13.829Z,,,,,,,,,,,,,,,,,2,,,,,,,,,,,,,,360.96000000002095,,response,,,,1,A,,,,,,Space,keypress(Space),,,,silence,,,,--- ---- ------ --- ------- ---------- ------- ----------<br>--- --------- --- ----------- ------- ----- ------- ---<br>--------- ---- -- --- ---- -- --------- -- ---- -------<br>-- --------- ------ --- ----- ------ over --- --------- --<br>------ - ---- -- --- ----------- ------- ---- ----- -----<br>--- -------- - ------ ---- -- ----- ---- --- --- -----------<br>-- -------,351011,350995,350633.5,350633,350634.04,351012.12,,32,over
screen,html.Screen,2_3_1_0_1_33,2022-02-01T15:05:14.173Z,,,,,,,,,,,,,,,,,2,,,,,,,,,,,,,,324.88000000000466,,response,,,,1,A,,,,,,Space,keypress(Space),,,,silence,,,,--- ---- ------ --- ------- ---------- ------- ----------<br>--- --------- --- ----------- ------- ----- ------- ---<br>--------- ---- -- --- ---- -- --------- -- ---- -------<br>-- --------- ------ --- ----- ------ ---- the --------- --<br>------ - ---- -- --- ----------- ------- ---- ----- -----<br>--- -------- - ------ ---- -- ----- ---- --- --- -----------<br>-- -------,351355,351337,351011.62,351011,351012.12,351356.06,,33,the
screen,html.Screen,2_3_1_0_1_34,2022-02-01T15:05:14.553Z,,,,,,,,,,,,,,,,,2,,,,,,,,,,,,,,356.9400000000023,,response,,,,1,A,,,,,,Space,keypress(Space),,,,silence,,,,--- ---- ------ --- ------- ---------- ------- ----------<br>--- --------- --- ----------- ------- ----- ------- ---<br>--------- ---- -- --- ---- -- --------- -- ---- -------<br>-- --------- ------ --- ----- ------ ---- --- sunspots. --<br>------ - ---- -- --- ----------- ------- ---- ----- -----<br>--- -------- - ------ ---- -- ----- ---- --- --- -----------<br>-- -------,351735,351713,351355.62,351356,351356.06,351735.76,,34,sunspots.
screen,html.Screen,2_3_1_0_1_35,2022-02-01T15:05:15.180Z,,,,,,,,,,,,,,,,,2,,,,,,,,,,,,,,617.2399999999907,,response,,,,1,A,,,,,,Space,keypress(Space),,,,silence,,,,--- ---- ------ --- ------- ---------- ------- ----------<br>--- --------- --- ----------- ------- ----- ------- ---<br>--------- ---- -- --- ---- -- --------- -- ---- -------<br>-- --------- ------ --- ----- ------ ---- --- --------- He<br>------ - ---- -- --- ----------- ------- ---- ----- -----<br>--- -------- - ------ ---- -- ----- ---- --- --- -----------<br>-- -------,352362,352353,351735.22,351735,351735.76,352362.56,,35,He
screen,html.Screen,2_3_1_0_1_36,2022-02-01T15:05:15.608Z,,,,,,,,,,,,,,,,,2,,,,,,,,,,,,,,413.4400000000023,,response,,,,1,A,,,,,,Space,keypress(Space),,,,silence,,,,--- ---- ------ --- ------- ---------- ------- ----------<br>--- --------- --- ----------- ------- ----- ------- ---<br>--------- ---- -- --- ---- -- --------- -- ---- -------<br>-- --------- ------ --- ----- ------ ---- --- --------- --<br>jotted - ---- -- --- ----------- ------- ---- ----- -----<br>--- -------- - ------ ---- -- ----- ---- --- --- -----------<br>-- -------,352789,352776,352362.12,352362,352362.56,352790.62,,36,jotted
screen,html.Screen,2_3_1_0_1_37,2022-02-01T15:05:15.945Z,,,,,,,,,,,,,,,,,2,,,,,,,,,,,,,,312.38000000000466,,response,,,,1,A,,,,,,Space,keypress(Space),,,,silence,,,,--- ---- ------ --- ------- ---------- ------- ----------<br>--- --------- --- ----------- ------- ----- ------- ---<br>--------- ---- -- --- ---- -- --------- -- ---- -------<br>-- --------- ------ --- ----- ------ ---- --- --------- --<br>------ a ---- -- --- ----------- ------- ---- ----- -----<br>--- -------- - ------ ---- -- ----- ---- --- --- -----------<br>-- -------,353127,353103,352789.98,352789,352790.62,353128,,37,a
screen,html.Screen,2_3_1_0_1_38,2022-02-01T15:05:16.262Z,,,,,,,,,,,,,,,,,2,,,,,,,,,,,,,,304,,response,,,,1,A,,,,,,Space,keypress(Space),,,,silence,,,,--- ---- ------ --- ------- ---------- ------- ----------<br>--- --------- --- ----------- ------- ----- ------- ---<br>--------- ---- -- --- ---- -- --------- -- ---- -------<br>-- --------- ------ --- ----- ------ ---- --- --------- --<br>------ - note -- --- ----------- ------- ---- ----- -----<br>--- -------- - ------ ---- -- ----- ---- --- --- -----------<br>-- -------,353444,353432,353127.46,353127,353128,353444.68,,38,note
screen,html.Screen,2_3_1_0_1_39,2022-02-01T15:05:16.620Z,,,,,,,,,,,,,,,,,2,,,,,,,,,,,,,,346.320000000007,,response,,,,1,A,,,,,,Space,keypress(Space),,,,silence,,,,--- ---- ------ --- ------- ---------- ------- ----------<br>--- --------- --- ----------- ------- ----- ------- ---<br>--------- ---- -- --- ---- -- --------- -- ---- -------<br>-- --------- ------ --- ----- ------ ---- --- --------- --<br>------ - ---- in --- ----------- ------- ---- ----- -----<br>--- -------- - ------ ---- -- ----- ---- --- --- -----------<br>-- -------,353801,353791,353444.16,353444,353444.68,353801.6,,39,in
screen,html.Screen,2_3_1_0_1_40,2022-02-01T15:05:16.934Z,,,,,,,,,,,,,,,,,2,,,,,,,,,,,,,,302.4000000000233,,response,,,,1,A,,,,,,Space,keypress(Space),,,,silence,,,,--- ---- ------ --- ------- ---------- ------- ----------<br>--- --------- --- ----------- ------- ----- ------- ---<br>--------- ---- -- --- ---- -- --------- -- ---- -------<br>-- --------- ------ --- ----- ------ ---- --- --------- --<br>------ - ---- -- his ----------- ------- ---- ----- -----<br>--- -------- - ------ ---- -- ----- ---- --- --- -----------<br>-- -------,354115,354104,353801.06,353801,353801.6,354116.7,,40,his
screen,html.Screen,2_3_1_0_1_41,2022-02-01T15:05:17.280Z,,,,,,,,,,,,,,,,,2,,,,,,,,,,,,,,331.29999999998836,,response,,,,1,A,,,,,,Space,keypress(Space),,,,silence,,,,--- ---- ------ --- ------- ---------- ------- ----------<br>--- --------- --- ----------- ------- ----- ------- ---<br>--------- ---- -- --- ---- -- --------- -- ---- -------<br>-- --------- ------ --- ----- ------ ---- --- --------- --<br>------ - ---- -- --- painstaking ------- ---- ----- -----<br>--- -------- - ------ ---- -- ----- ---- --- --- -----------<br>-- -------,354461,354448,354116.26,354116,354116.7,354462.8,,41,painstaking
screen,html.Screen,2_3_1_0_1_42,2022-02-01T15:05:17.632Z,,,,,,,,,,,,,,,,,2,,,,,,,,,,,,,,327.20000000001164,,response,,,,1,A,,,,,,Space,keypress(Space),,,,silence,,,,--- ---- ------ --- ------- ---------- ------- ----------<br>--- --------- --- ----------- ------- ----- ------- ---<br>--------- ---- -- --- ---- -- --------- -- ---- -------<br>-- --------- ------ --- ----- ------ ---- --- --------- --<br>------ - ---- -- --- ----------- record. ---- ----- -----<br>--- -------- - ------ ---- -- ----- ---- --- --- -----------<br>-- -------,354813,354790,354462.42,354462,354462.8,354814.7,,42,record.
screen,html.Screen,2_3_1_0_1_43,2022-02-01T15:05:17.987Z,,,,,,,,,,,,,,,,,2,,,,,,,,,,,,,,336.29999999998836,,response,,,,1,A,,,,,,Space,keypress(Space),,,,silence,,,,--- ---- ------ --- ------- ---------- ------- ----------<br>--- --------- --- ----------- ------- ----- ------- ---<br>--------- ---- -- --- ---- -- --------- -- ---- -------<br>-- --------- ------ --- ----- ------ ---- --- --------- --<br>------ - ---- -- --- ----------- ------- That ----- -----<br>--- -------- - ------ ---- -- ----- ---- --- --- -----------<br>-- -------,355169,355151,354814.18,354814,354814.7,355169.02,,43,That
screen,html.Screen,2_3_1_0_1_44,2022-02-01T15:05:18.321Z,,,,,,,,,,,,,,,,,2,,,,,,,,,,,,,,324.9799999999814,,response,,,,1,A,,,,,,Space,keypress(Space),,,,silence,,,,--- ---- ------ --- ------- ---------- ------- ----------<br>--- --------- --- ----------- ------- ----- ------- ---<br>--------- ---- -- --- ---- -- --------- -- ---- -------<br>-- --------- ------ --- ----- ------ ---- --- --------- --<br>------ - ---- -- --- ----------- ------- ---- night -----<br>--- -------- - ------ ---- -- ----- ---- --- --- -----------<br>-- -------,355503,355494,355168.82,355169,355169.02,355503.64,,44,night
screen,html.Screen,2_3_1_0_1_45,2022-02-01T15:05:18.657Z,,,,,,,,,,,,,,,,,2,,,,,,,,,,,,,,318.35999999998603,,response,,,,1,A,,,,,,Space,keypress(Space),,,,silence,,,,--- ---- ------ --- ------- ---------- ------- ----------<br>--- --------- --- ----------- ------- ----- ------- ---<br>--------- ---- -- --- ---- -- --------- -- ---- -------<br>-- --------- ------ --- ----- ------ ---- --- --------- --<br>------ - ---- -- --- ----------- ------- ---- ----- there<br>--- -------- - ------ ---- -- ----- ---- --- --- -----------<br>-- -------,355839,355822,355503.12,355503,355503.64,355839.72,,45,there
screen,html.Screen,2_3_1_0_1_46,2022-02-01T15:05:19.002Z,,,,,,,,,,,,,,,,,2,,,,,,,,,,,,,,326.28000000002794,,response,,,,1,A,,,,,,Space,keypress(Space),,,,silence,,,,--- ---- ------ --- ------- ---------- ------- ----------<br>--- --------- --- ----------- ------- ----- ------- ---<br>--------- ---- -- --- ---- -- --------- -- ---- -------<br>-- --------- ------ --- ----- ------ ---- --- --------- --<br>------ - ---- -- --- ----------- ------- ---- ----- -----<br>was -------- - ------ ---- -- ----- ---- --- --- -----------<br>-- -------,356184,356166,355839.18,355839,355839.72,356184.46,,46,was
screen,html.Screen,2_3_1_0_1_47,2022-02-01T15:05:19.342Z,,,,,,,,,,,,,,,,,2,,,,,,,,,,,,,,325.53999999997905,,response,,,,1,A,,,,,,Space,keypress(Space),,,,silence,,,,--- ---- ------ --- ------- ---------- ------- ----------<br>--- --------- --- ----------- ------- ----- ------- ---<br>--------- ---- -- --- ---- -- --------- -- ---- -------<br>-- --------- ------ --- ----- ------ ---- --- --------- --<br>------ - ---- -- --- ----------- ------- ---- ----- -----<br>--- scarcely - ------ ---- -- ----- ---- --- --- -----------<br>-- -------,356522,356510,356184.04,356184,356184.46,356523.66,,47,scarcely
screen,html.Screen,2_3_1_0_1_48,2022-02-01T15:05:19.663Z,,,,,,,,,,,,,,,,,2,,,,,,,,,,,,,,298.3400000000256,,response,,,,1,A,,,,,,Space,keypress(Space),,,,silence,,,,--- ---- ------ --- ------- ---------- ------- ----------<br>--- --------- --- ----------- ------- ----- ------- ---<br>--------- ---- -- --- ---- -- --------- -- ---- -------<br>-- --------- ------ --- ----- ------ ---- --- --------- --<br>------ - ---- -- --- ----------- ------- ---- ----- -----<br>--- -------- a ------ ---- -- ----- ---- --- --- -----------<br>-- -------,356844,356822,356523.12,356523,356523.66,356845.38,,48,a
