sender,sender_type,sender_id,timestamp,meta,,Blues,Classical,Country,Dance,Electronic,Folk,Gospel,Hip-Hop,Jazz,Latin,Musical/Film,New-age,Pop,Prolific_id,Provo_ID,R&B,Rap,Reggae,Religious,Rock,Soul,Swing,Traditional,age,artist_name,correct,correctResponse,distraction,duration,education,ended_on,familiarity,gender,headphone_check_performance,item,list,music_frequency,offensiveness,pleasantness,position_correct,preference,response,response_action,snippet_file,song_name,song_rating,sound,stimulus_1,stimulus_2,stimulus_3,text,time_commit,time_end,time_render,time_run,time_show,time_switch,url,word,word_ID
Prolific ID,html.Form,0,2022-02-15T15:54:59.913Z,"{""labjs_version"":""20.2.2"",""labjs_build"":{""flavor"":""production"",""commit"":""a25486e0c714a0ae2ce03ff94b7bb6896854dcfa""},""location"":""https://run.pavlovia.org/mvasilev/prolific2_music_a/"",""userAgent"":""Mozilla/5.0 (X11; CrOS x86_64 14324.80.0) AppleWebKit/537.36 (KHTML, like Gecko) Chrome/97.0.4692.102 Safari/537.36"",""platform"":""Linux x86_64"",""language"":""en-GB"",""locale"":""en-GB"",""timeZone"":""Europe/London"",""timezoneOffset"":0,""screen_width"":1366,""screen_height"":768,""scroll_width"":1366,""scroll_height"":720,""window_innerWidth"":1366,""window_innerHeight"":768,""devicePixelRatio"":1}",,,,,,,,,,,,,,,5c4ce29ad7c9720001295e1b,,,,,,,,,,,,,,,18632.308999994042,,form submission,,,,,,,,,,,,,,,,,,,,,34920.80000001192,34918.59999999404,16052.981,16010.199999988079,16286.291,34965.631,{},,
Introduction,html.Screen,1_0,2022-02-15T15:55:04.449Z,,,,,,,,,,,,,,,,,,,,,,,,,,,,,,,4485.868999999999,,response,,,,,,,,,,,continue,click button,,,,,,,,,39456.90000000596,39451.5,34898.971,34921.40000000596,34965.631,39467.235,,,
Volume calibration,html.Screen,1_1,2022-02-15T15:55:46.086Z,,,,,,,,,,,,,,,,,,,,,,,,,,,,,,,41614.56500001192,,response,,,,,,,,,,,continue,click button,,,,,,,,,81094,81081.80000001192,39450.57,39457.09999999404,39467.235,81093.627,,,
Task instructions,html.Screen,1_2,2022-02-15T15:56:09.268Z,,,,,,,,,,,,,,,,,,,,,,,,,,,,,,,23179.972999994046,,response,,,,,,,,,,,continue,click button,,,,,,,,,104276,104273.59999999404,81076.962,81094.80000001192,81093.627,104293.279,,,
Sounds,html.Screen,1_3_0_0,2022-02-15T15:56:13.530Z,,,,,,,,,,,,,,,,,,,,,,,,,,,,,,,4268.205000000002,,timeout,,,,,,,,,1,,,,,,,,S,O,I,,108537.40000000596,108528.154,104259.949,104276.40000000596,104293.279,108561.484,,,
Judgement,html.Screen,1_3_0_1,2022-02-15T15:56:15.536Z,,,,,,,,,,,,,,,,,,,,,,,,,,,,true,1,,1979.3160000119242,,response,,,,,,,,,1,,1,click #choice-1,,,,,S,O,I,,110543.40000000596,110540.80000001192,108528.154,108538.09999999404,108561.484,110546.905,,,
Trial,flow.Sequence,1_3_0,2022-02-15T15:56:15.536Z,,,,,,,,,,,,,,,,,,,,,,,,,,,,,,,6247.521000011926,,completion,,,,,,,,,1,,,,,,,,S,O,I,,110543.90000000596,110540.80000001192,104259.949,104276.30000001192,104293.279,110546.905,,,
Sounds,html.Screen,1_3_1_0,2022-02-15T15:56:19.775Z,,,,,,,,,,,,,,,,,,,,,,,,,,,,,,,4250.077000000005,,timeout,,,,,,,,,3,,,,,,,,I,O,S,,114782.5,114780.317,110530.24,110544.69999998808,110546.905,114796.982,,,
Judgement,html.Screen,1_3_1_1,2022-02-15T15:56:20.982Z,,,,,,,,,,,,,,,,,,,,,,,,,,,,true,3,,1190.5179999999964,,response,,,,,,,,,3,,3,click #choice-3,,,,,I,O,S,,115989.69999998808,115987.5,114780.317,114783,114796.982,115990.943,,,
Trial,flow.Sequence,1_3_1,2022-02-15T15:56:20.982Z,,,,,,,,,,,,,,,,,,,,,,,,,,,,,,,5440.595000000001,,completion,,,,,,,,,3,,,,,,,,I,O,S,,115990.09999999404,115987.5,110530.24,110544.59999999404,110546.905,115990.943,,,
Sounds,html.Screen,1_3_2_0,2022-02-15T15:56:25.219Z,,,,,,,,,,,,,,,,,,,,,,,,,,,,,,,4249.9419999999955,,timeout,,,,,,,,,3,,,,,,,,O,I,S,,120226.69999998808,120224.22,115974.278,115990.40000000596,115990.943,120240.885,,,
Judgement,html.Screen,1_3_2_1,2022-02-15T15:56:26.042Z,,,,,,,,,,,,,,,,,,,,,,,,,,,,true,3,,806.3149999880843,,response,,,,,,,,,3,,3,click #choice-3,,,,,O,I,S,,121049.90000000596,121047.19999998808,120224.22,120227.59999999404,120240.885,121051.296,,,
Trial,flow.Sequence,1_3_2,2022-02-15T15:56:26.043Z,,,,,,,,,,,,,,,,,,,,,,,,,,,,,,,5056.25699998808,,completion,,,,,,,,,3,,,,,,,,O,I,S,,121050.30000001192,121047.19999998808,115974.278,115990.30000001192,115990.943,121051.296,,,
Sounds,html.Screen,1_3_3_0,2022-02-15T15:56:30.280Z,,,,,,,,,,,,,,,,,,,,,,,,,,,,,,,4249.997000000003,,timeout,,,,,,,,,2,,,,,,,,I,S,O,,125287.80000001192,125284.628,121034.631,121050.5,121051.296,125301.293,,,
Judgement,html.Screen,1_3_3_1,2022-02-15T15:56:31.371Z,,,,,,,,,,,,,,,,,,,,,,,,,,,,true,2,,1074.7069999999949,,response,,,,,,,,,2,,2,click #choice-2,,,,,I,S,O,,126378.40000000596,126376,125284.628,125288.19999998808,125301.293,126378.622,,,
Trial,flow.Sequence,1_3_3,2022-02-15T15:56:31.371Z,,,,,,,,,,,,,,,,,,,,,,,,,,,,,,,5324.703999999998,,completion,,,,,,,,,2,,,,,,,,I,S,O,,126379.09999999404,126376,121034.631,121050.40000000596,121051.296,126378.622,,,
Sounds,html.Screen,1_3_4_0,2022-02-15T15:56:35.607Z,,,,,,,,,,,,,,,,,,,,,,,,,,,,,,,4249.838000000003,,timeout,,,,,,,,,1,,,,,,,,S,I,O,,130614.19999998808,130611.795,126361.957,126379.30000001192,126378.622,130628.46,,,
Judgement,html.Screen,1_3_4_1,2022-02-15T15:56:36.449Z,,,,,,,,,,,,,,,,,,,,,,,,,,,,true,1,,824.8400000119145,,response,,,,,,,,,1,,1,click #choice-1,,,,,S,I,O,,131456.30000001192,131453.30000001192,130611.795,130614.69999998808,130628.46,131472.353,,,
Trial,flow.Sequence,1_3_4,2022-02-15T15:56:36.449Z,,,,,,,,,,,,,,,,,,,,,,,,,,,,,,,5074.678000011918,,completion,,,,,,,,,1,,,,,,,,S,I,O,,131456.69999998808,131453.30000001192,126361.957,126379.30000001192,126378.622,131472.353,,,
Sounds,html.Screen,1_3_5_0,2022-02-15T15:56:40.701Z,,,,,,,,,,,,,,,,,,,,,,,,,,,,,,,4249.84599999999,,timeout,,,,,,,,,2,,,,,,,,O,S,I,,135708.5,135705.534,131455.688,131456.80000001192,131472.353,135722.199,,,
Judgement,html.Screen,1_3_5_1,2022-02-15T15:56:41.383Z,,,,,,,,,,,,,,,,,,,,,,,,,,,,true,2,,666.6010000119277,,response,,,,,,,,,2,,2,click #choice-2,,,,,O,S,I,,136391,136388.80000001192,135705.534,135708.90000000596,135722.199,136415.941,,,
Trial,flow.Sequence,1_3_5,2022-02-15T15:56:41.384Z,,,,,,,,,,,,,,,,,,,,,,,,,,,,,,,4916.447000011918,,completion,,,,,,,,,2,,,,,,,,O,S,I,,136391.19999998808,136388.80000001192,131455.688,131456.80000001192,131472.353,136415.941,,,
Task,flow.Loop,1_3,2022-02-15T15:56:41.393Z,,,,,,,,,,,,,,,,,,,,,,,,,,,,,,,32095.521000011926,,completion,,,1,,,,,,,,,,,,,,,,,,136400.59999999404,136388.80000001192,104259.949,104276.30000001192,104293.279,136415.941,,,
Trap,html.Screen,1_4,2022-02-15T15:56:41.399Z,,,,,,,,,,,,,,,,,,,,,,,,,,,,,,,NaN,,skipped,,,,,,,,,,,,,,,,,,,,,136406.90000000596,136388.80000001192,,136405.40000000596,,136415.941,,,
Thanks,html.Screen,1_5,2022-02-15T15:56:44.964Z,,,,,,,,,,,,,,,,,,,,,,,,,,,,,,,3552.8590000119293,,response,,,,,,,,,,,continue,click button,,,,,,,,,139971.59999999404,139968.80000001192,136382.611,136407.5,136415.941,144302.258,,,
Headphone screening,flow.Sequence,1,2022-02-15T15:56:44.964Z,,,,,,,,,,,,,,,,,,,,,,,,,,,,,,,105003.16900001193,,completion,,,,,,,,,,,,,,,,,,,,,139971.80000001192,139968.80000001192,34898.971,34921.40000000596,34965.631,144302.258,,,
Instructions,html.Page,2_0,2022-02-15T15:57:03.716Z,,,,,,,,,,,,,,,,,,,,,,,,,,,,,,,14420.642000005959,,form submission,,,,,,,,,,,,,,,,,,,,,158724.09999999404,158722.90000000596,144285.593,144294.09999999404,144302.258,158733.6,,,
Holding screen,html.Screen,2_1_0_0,2022-02-15T15:57:13.716Z,,,,,,,,,,,,,,,,,,,,,,,,,,,,,,,10054.347999999998,,timeout,,,,,,,,,,,,,,,,,,,,,168723.40000000596,168721.288,158716.935,158724.40000000596,158733.6,168787.948,,,
screen,html.Screen,2_1_0_1_0,2022-02-15T15:57:14.896Z,,,,,,,,,,,,,,,,,53,,,,,,,,,,,,,,1110.251999988075,,response,,,,99,,,,,,,Space,keypress(Space),,,,,,,,When -- ----- -- ------ - ------- --- ----------<br>------------- ------ ------ ---- ---- ------- ----- -- ----<br>-------- ------- -- ---------- --- - --- ----- ----- ----<br>---- --- --- ----- --- ---- ---- ------- ----- ---- -------<br>--- --- -- ----- -- --- ---- -- --- ---- -- ------ ------<br>--- ----- -- ----,169903.90000000596,169898.19999998808,168721.288,168724.09999999404,168787.948,169921.75,,0,When
screen,html.Screen,2_1_0_1_1,2022-02-15T15:57:15.560Z,,,,,,,,,,,,,,,,,53,,,,,,,,,,,,,,643.4499999880791,,response,,,,99,,,,,,,Space,keypress(Space),,,,,,,,---- it ----- -- ------ - ------- --- ----------<br>------------- ------ ------ ---- ---- ------- ----- -- ----<br>-------- ------- -- ---------- --- - --- ----- ----- ----<br>---- --- --- ----- --- ---- ---- ------- ----- ---- -------<br>--- --- -- ----- -- --- ---- -- --- ---- -- ------ ------<br>--- ----- -- ----,170567.90000000596,170565.19999998808,169905.085,169904.19999998808,169921.75,170580.693,,1,it
screen,html.Screen,2_1_0_1_2,2022-02-15T15:57:16.106Z,,,,,,,,,,,,,,,,,53,,,,,,,,,,,,,,530.4069999940402,,response,,,,99,,,,,,,Space,keypress(Space),,,,,,,,---- -- comes -- ------ - ------- --- ----------<br>------------- ------ ------ ---- ---- ------- ----- -- ----<br>-------- ------- -- ---------- --- - --- ----- ----- ----<br>---- --- --- ----- --- ---- ---- ------- ----- ---- -------<br>--- --- -- ----- -- --- ---- -- --- ---- -- ------ ------<br>--- ----- -- ----,171113.30000001192,171111.09999999404,170564.028,170568,170580.693,171122.607,,2,comes
screen,html.Screen,2_1_0_1_3,2022-02-15T15:57:16.797Z,,,,,,,,,,,,,,,,,53,,,,,,,,,,,,,,679.1930000119319,,response,,,,99,,,,,,,Space,keypress(Space),,,,,,,,---- -- ----- to ------ - ------- --- ----------<br>------------- ------ ------ ---- ---- ------- ----- -- ----<br>-------- ------- -- ---------- --- - --- ----- ----- ----<br>---- --- --- ----- --- ---- ---- ------- ----- ---- -------<br>--- --- -- ----- -- --- ---- -- --- ---- -- ------ ------<br>--- ----- -- ----,171805,171801.80000001192,171105.942,171113.5,171122.607,171822.837,,3,to
screen,html.Screen,2_1_0_1_4,2022-02-15T15:57:17.251Z,,,,,,,,,,,,,,,,,53,,,,,,,,,,,,,,434.06300000596093,,response,,,,99,,,,,,,Space,keypress(Space),,,,,,,,---- -- ----- -- having - ------- --- ----------<br>------------- ------ ------ ---- ---- ------- ----- -- ----<br>-------- ------- -- ---------- --- - --- ----- ----- ----<br>---- --- --- ----- --- ---- ---- ------- ----- ---- -------<br>--- --- -- ----- -- --- ---- -- --- ---- -- ------ ------<br>--- ----- -- ----,172259.19999998808,172256.90000000596,171806.172,171805.19999998808,171822.837,172273.169,,4,having
screen,html.Screen,2_1_0_1_5,2022-02-15T15:57:17.632Z,,,,,,,,,,,,,,,,,53,,,,,,,,,,,,,,364.6310000119265,,response,,,,99,,,,,,,Space,keypress(Space),,,,,,,,---- -- ----- -- ------ a ------- --- ----------<br>------------- ------ ------ ---- ---- ------- ----- -- ----<br>-------- ------- -- ---------- --- - --- ----- ----- ----<br>---- --- --- ----- --- ---- ---- ------- ----- ---- -------<br>--- --- -- ----- -- --- ---- -- --- ---- -- ------ ------<br>--- ----- -- ----,172640.19999998808,172637.80000001192,172256.504,172259.30000001192,172273.169,172656.716,,5,a
screen,html.Screen,2_1_0_1_6,2022-02-15T15:57:18.076Z,,,,,,,,,,,,,,,,,53,,,,,,,,,,,,,,424.68400000597467,,response,,,,99,,,,,,,Space,keypress(Space),,,,,,,,---- -- ----- -- ------ - lasting --- ----------<br>------------- ------ ------ ---- ---- ------- ----- -- ----<br>-------- ------- -- ---------- --- - --- ----- ----- ----<br>---- --- --- ----- --- ---- ---- ------- ----- ---- -------<br>--- --- -- ----- -- --- ---- -- --- ---- -- ------ ------<br>--- ----- -- ----,173083.80000001192,173081.40000000596,172640.051,172640.30000001192,172656.716,173090.204,,6,lasting
screen,html.Screen,2_1_0_1_7,2022-02-15T15:57:18.496Z,,,,,,,,,,,,,,,,,53,,,,,,,,,,,,,,410.89599999404163,,response,,,,99,,,,,,,Space,keypress(Space),,,,,,,,---- -- ----- -- ------ - ------- and ----------<br>------------- ------ ------ ---- ---- ------- ----- -- ----<br>-------- ------- -- ---------- --- - --- ----- ----- ----<br>---- --- --- ----- --- ---- ---- ------- ----- ---- -------<br>--- --- -- ----- -- --- ---- -- --- ---- -- ------ ------<br>--- ----- -- ----,173503.5,173501.09999999404,173073.539,173084,173090.204,173507.083,,7,and
screen,html.Screen,2_1_0_1_8,2022-02-15T15:57:19.076Z,,,,,,,,,,,,,,,,,53,,,,,,,,,,,,,,574.3170000059472,,response,,,,99,,,,,,,Space,keypress(Space),,,,,,,,---- -- ----- -- ------ - ------- --- fulfilling<br>------------- ------ ------ ---- ---- ------- ----- -- ----<br>-------- ------- -- ---------- --- - --- ----- ----- ----<br>---- --- --- ----- --- ---- ---- ------- ----- ---- -------<br>--- --- -- ----- -- --- ---- -- --- ---- -- ------ ------<br>--- ----- -- ----,174083.90000000596,174081.40000000596,173490.418,173503.59999999404,173507.083,174090.592,,8,fulfilling
screen,html.Screen,2_1_0_1_9,2022-02-15T15:57:19.865Z,,,,,,,,,,,,,,,,,53,,,,,,,,,,,,,,779.5079999940353,,response,,,,99,,,,,,,Space,keypress(Space),,,,,,,,"---- -- ----- -- ------ - ------- --- ----------<br>relationship, ------ ------ ---- ---- ------- ----- -- ----<br>-------- ------- -- ---------- --- - --- ----- ----- ----<br>---- --- --- ----- --- ---- ---- ------- ----- ---- -------<br>--- --- -- ----- -- --- ---- -- --- ---- -- ------ ------<br>--- ----- -- ----",174872.90000000596,174870.09999999404,174073.927,174084.19999998808,174090.592,174890.832,,9,"relationship,"
screen,html.Screen,2_1_0_1_10,2022-02-15T15:57:20.325Z,,,,,,,,,,,,,,,,,53,,,,,,,,,,,,,,438.46800001192605,,response,,,,99,,,,,,,Space,keypress(Space),,,,,,,,---- -- ----- -- ------ - ------- --- ----------<br>------------- common ------ ---- ---- ------- ----- -- ----<br>-------- ------- -- ---------- --- - --- ----- ----- ----<br>---- --- --- ----- --- ---- ---- ------- ----- ---- -------<br>--- --- -- ----- -- --- ---- -- --- ---- -- ------ ------<br>--- ----- -- ----,175332.59999999404,175329.30000001192,174874.167,174873.09999999404,174890.832,175341.223,,10,common
screen,html.Screen,2_1_0_1_11,2022-02-15T15:57:20.752Z,,,,,,,,,,,,,,,,,53,,,,,,,,,,,,,,415.97699998808093,,response,,,,99,,,,,,,Space,keypress(Space),,,,,,,,---- -- ----- -- ------ - ------- --- ----------<br>------------- ------ wisdom ---- ---- ------- ----- -- ----<br>-------- ------- -- ---------- --- - --- ----- ----- ----<br>---- --- --- ----- --- ---- ---- ------- ----- ---- -------<br>--- --- -- ----- -- --- ---- -- --- ---- -- ------ ------<br>--- ----- -- ----,175759.69999998808,175757.19999998808,175324.558,175332.90000000596,175341.223,175774.77,,11,wisdom
screen,html.Screen,2_1_0_1_12,2022-02-15T15:57:21.164Z,,,,,,,,,,,,,,,,,53,,,,,,,,,,,,,,392.63000000597094,,response,,,,99,,,,,,,Space,keypress(Space),,,,,,,,---- -- ----- -- ------ - ------- --- ----------<br>------------- ------ ------ says ---- ------- ----- -- ----<br>-------- ------- -- ---------- --- - --- ----- ----- ----<br>---- --- --- ----- --- ---- ---- ------- ----- ---- -------<br>--- --- -- ----- -- --- ---- -- --- ---- -- ------ ------<br>--- ----- -- ----,176172.19999998808,176167.40000000596,175758.105,175759.90000000596,175774.77,176174.975,,12,says
screen,html.Screen,2_1_0_1_13,2022-02-15T15:57:21.524Z,,,,,,,,,,,,,,,,,53,,,,,,,,,,,,,,354.42500000595464,,response,,,,99,,,,,,,Space,keypress(Space),,,,,,,,---- -- ----- -- ------ - ------- --- ----------<br>------------- ------ ------ ---- that ------- ----- -- ----<br>-------- ------- -- ---------- --- - --- ----- ----- ----<br>---- --- --- ----- --- ---- ---- ------- ----- ---- -------<br>--- --- -- ----- -- --- ---- -- --- ---- -- ------ ------<br>--- ----- -- ----,176531.69999998808,176529.40000000596,176158.31,176172.69999998808,176174.975,176541.84,,13,that
screen,html.Screen,2_1_0_1_14,2022-02-15T15:57:22.342Z,,,,,,,,,,,,,,,,,53,,,,,,,,,,,,,,806.259999994043,,response,,,,99,,,,,,,Space,keypress(Space),,,,,,,,---- -- ----- -- ------ - ------- --- ----------<br>------------- ------ ------ ---- ---- feeling ----- -- ----<br>-------- ------- -- ---------- --- - --- ----- ----- ----<br>---- --- --- ----- --- ---- ---- ------- ----- ---- -------<br>--- --- -- ----- -- --- ---- -- --- ---- -- ------ ------<br>--- ----- -- ----,177350.09999999404,177348.09999999404,176525.175,176531.90000000596,176541.84,177358.609,,14,feeling
screen,html.Screen,2_1_0_1_15,2022-02-15T15:57:22.984Z,,,,,,,,,,,,,,,,,53,,,,,,,,,,,,,,630.9909999940428,,response,,,,99,,,,,,,Space,keypress(Space),,,,,,,,---- -- ----- -- ------ - ------- --- ----------<br>------------- ------ ------ ---- ---- ------- close -- ----<br>-------- ------- -- ---------- --- - --- ----- ----- ----<br>---- --- --- ----- --- ---- ---- ------- ----- ---- -------<br>--- --- -- ----- -- --- ---- -- --- ---- -- ------ ------<br>--- ----- -- ----,177991.90000000596,177989.59999999404,177341.944,177350.19999998808,177358.609,178009.007,,15,close
screen,html.Screen,2_1_0_1_16,2022-02-15T15:57:23.364Z,,,,,,,,,,,,,,,,,53,,,,,,,,,,,,,,360.2930000119086,,response,,,,99,,,,,,,Space,keypress(Space),,,,,,,,---- -- ----- -- ------ - ------- --- ----------<br>------------- ------ ------ ---- ---- ------- ----- to ----<br>-------- ------- -- ---------- --- - --- ----- ----- ----<br>---- --- --- ----- --- ---- ---- ------- ----- ---- -------<br>--- --- -- ----- -- --- ---- -- --- ---- -- ------ ------<br>--- ----- -- ----,178371.30000001192,178369.30000001192,177992.342,177992.09999999404,178009.007,178375.983,,16,to
screen,html.Screen,2_1_0_1_17,2022-02-15T15:57:23.781Z,,,,,,,,,,,,,,,,,53,,,,,,,,,,,,,,410.1169999940321,,response,,,,99,,,,,,,Space,keypress(Space),,,,,,,,---- -- ----- -- ------ - ------- --- ----------<br>------------- ------ ------ ---- ---- ------- ----- -- your<br>-------- ------- -- ---------- --- - --- ----- ----- ----<br>---- --- --- ----- --- ---- ---- ------- ----- ---- -------<br>--- --- -- ----- -- --- ---- -- --- ---- -- ------ ------<br>--- ----- -- ----,178788.30000001192,178786.09999999404,178359.318,178371.5,178375.983,178792.808,,17,your
screen,html.Screen,2_1_0_1_18,2022-02-15T15:57:24.453Z,,,,,,,,,,,,,,,,,53,,,,,,,,,,,,,,664.4920000119309,,response,,,,99,,,,,,,Space,keypress(Space),,,,,,,,---- -- ----- -- ------ - ------- --- ----------<br>------------- ------ ------ ---- ---- ------- ----- -- ----<br>romantic ------- -- ---------- --- - --- ----- ----- ----<br>---- --- --- ----- --- ---- ---- ------- ----- ---- -------<br>--- --- -- ----- -- --- ---- -- --- ---- -- ------ ------<br>--- ----- -- ----,179460.30000001192,179457.30000001192,178776.143,178788.40000000596,178792.808,179476.313,,18,romantic
screen,html.Screen,2_1_0_1_19,2022-02-15T15:57:25.176Z,,,,,,,,,,,,,,,,,53,,,,,,,,,,,,,,704.0870000059658,,response,,,,99,,,,,,,Space,keypress(Space),,,,,,,,---- -- ----- -- ------ - ------- --- ----------<br>------------- ------ ------ ---- ---- ------- ----- -- ----<br>-------- partner -- ---------- --- - --- ----- ----- ----<br>---- --- --- ----- --- ---- ---- ------- ----- ---- -------<br>--- --- -- ----- -- --- ---- -- --- ---- -- ------ ------<br>--- ----- -- ----,180183.19999998808,180180.40000000596,179459.648,179460.69999998808,179476.313,180193.29,,19,partner
screen,html.Screen,2_1_0_1_20,2022-02-15T15:57:25.583Z,,,,,,,,,,,,,,,,,53,,,,,,,,,,,,,,393.5100000119128,,response,,,,99,,,,,,,Space,keypress(Space),,,,,,,,---- -- ----- -- ------ - ------- --- ----------<br>------------- ------ ------ ---- ---- ------- ----- -- ----<br>-------- ------- is ---------- --- - --- ----- ----- ----<br>---- --- --- ----- --- ---- ---- ------- ----- ---- -------<br>--- --- -- ----- -- --- ---- -- --- ---- -- ------ ------<br>--- ----- -- ----,180590.30000001192,180586.80000001192,180176.625,180183.40000000596,180193.29,180593.64,,20,is
screen,html.Screen,2_1_0_1_21,2022-02-15T15:57:26.971Z,,,,,,,,,,,,,,,,,53,,,,,,,,,,,,,,1383.2600000059465,,response,,,,99,,,,,,,Space,keypress(Space),,,,,,,,---- -- ----- -- ------ - ------- --- ----------<br>------------- ------ ------ ---- ---- ------- ----- -- ----<br>-------- ------- -- paramount. --- - --- ----- ----- ----<br>---- --- --- ----- --- ---- ---- ------- ----- ---- -------<br>--- --- -- ----- -- --- ---- -- --- ---- -- ------ ------<br>--- ----- -- ----,181979.09999999404,181976.90000000596,180576.975,180590.5,180593.64,181993.734,,21,paramount.
screen,html.Screen,2_1_0_1_22,2022-02-15T15:57:27.900Z,,,,,,,,,,,,,,,,,53,,,,,,,,,,,,,,912.0660000119242,,response,,,,99,,,,,,,Space,keypress(Space),,,,,,,,---- -- ----- -- ------ - ------- --- ----------<br>------------- ------ ------ ---- ---- ------- ----- -- ----<br>-------- ------- -- ---------- But - --- ----- ----- ----<br>---- --- --- ----- --- ---- ---- ------- ----- ---- -------<br>--- --- -- ----- -- --- ---- -- --- ---- -- ------ ------<br>--- ----- -- ----,182908.09999999404,182905.80000001192,181977.069,181979.30000001192,181993.734,182911.074,,22,But
screen,html.Screen,2_1_0_1_23,2022-02-15T15:57:28.309Z,,,,,,,,,,,,,,,,,53,,,,,,,,,,,,,,401.6259999880858,,response,,,,99,,,,,,,Space,keypress(Space),,,,,,,,---- -- ----- -- ------ - ------- --- ----------<br>------------- ------ ------ ---- ---- ------- ----- -- ----<br>-------- ------- -- ---------- --- a --- ----- ----- ----<br>---- --- --- ----- --- ---- ---- ------- ----- ---- -------<br>--- --- -- ----- -- --- ---- -- --- ---- -- ------ ------<br>--- ----- -- ----,183316.59999999404,183312.69999998808,182894.409,182908.19999998808,182911.074,183319.843,,23,a
screen,html.Screen,2_1_0_1_24,2022-02-15T15:57:28.718Z,,,,,,,,,,,,,,,,,53,,,,,,,,,,,,,,403.557000005967,,response,,,,99,,,,,,,Space,keypress(Space),,,,,,,,---- -- ----- -- ------ - ------- --- ----------<br>------------- ------ ------ ---- ---- ------- ----- -- ----<br>-------- ------- -- ---------- --- - new ----- ----- ----<br>---- --- --- ----- --- ---- ---- ------- ----- ---- -------<br>--- --- -- ----- -- --- ---- -- --- ---- -- ------ ------<br>--- ----- -- ----,183725.69999998808,183723.40000000596,183303.178,183316.80000001192,183319.843,183736.7,,24,new
screen,html.Screen,2_1_0_1_25,2022-02-15T15:57:29.114Z,,,,,,,,,,,,,,,,,53,,,,,,,,,,,,,,382.6000000119093,,response,,,,99,,,,,,,Space,keypress(Space),,,,,,,,---- -- ----- -- ------ - ------- --- ----------<br>------------- ------ ------ ---- ---- ------- ----- -- ----<br>-------- ------- -- ---------- --- - --- study ----- ----<br>---- --- --- ----- --- ---- ---- ------- ----- ---- -------<br>--- --- -- ----- -- --- ---- -- --- ---- -- ------ ------<br>--- ----- -- ----,184121.90000000596,184119.30000001192,183720.035,183725.90000000596,183736.7,184136.887,,25,study
screen,html.Screen,2_1_0_1_26,2022-02-15T15:57:29.504Z,,,,,,,,,,,,,,,,,53,,,,,,,,,,,,,,371.3129999880912,,response,,,,99,,,,,,,Space,keypress(Space),,,,,,,,---- -- ----- -- ------ - ------- --- ----------<br>------------- ------ ------ ---- ---- ------- ----- -- ----<br>-------- ------- -- ---------- --- - --- ----- finds ----<br>---- --- --- ----- --- ---- ---- ------- ----- ---- -------<br>--- --- -- ----- -- --- ---- -- --- ---- -- ------ ------<br>--- ----- -- ----,184511.69999998808,184508.19999998808,184120.222,184122.09999999404,184136.887,184520.388,,26,finds
screen,html.Screen,2_1_0_1_27,2022-02-15T15:57:29.912Z,,,,,,,,,,,,,,,,,53,,,,,,,,,,,,,,396.21199999403325,,response,,,,99,,,,,,,Space,keypress(Space),,,,,,,,---- -- ----- -- ------ - ------- --- ----------<br>------------- ------ ------ ---- ---- ------- ----- -- ----<br>-------- ------- -- ---------- --- - --- ----- ----- that<br>---- --- --- ----- --- ---- ---- ------- ----- ---- -------<br>--- --- -- ----- -- --- ---- -- --- ---- -- ------ ------<br>--- ----- -- ----,184919.80000001192,184916.59999999404,184503.723,184512,184520.388,184937.238,,27,that
screen,html.Screen,2_1_0_1_28,2022-02-15T15:57:30.369Z,,,,,,,,,,,,,,,,,53,,,,,,,,,,,,,,436.96199998806696,,response,,,,99,,,,,,,Space,keypress(Space),,,,,,,,---- -- ----- -- ------ - ------- --- ----------<br>------------- ------ ------ ---- ---- ------- ----- -- ----<br>-------- ------- -- ---------- --- - --- ----- ----- ----<br>it's --- --- ----- --- ---- ---- ------- ----- ---- -------<br>--- --- -- ----- -- --- ---- -- --- ---- -- ------ ------<br>--- ----- -- ----,185376.90000000596,185374.19999998808,184920.573,184920.19999998808,184937.238,185387.436,,28,it's
screen,html.Screen,2_1_0_1_29,2022-02-15T15:57:30.908Z,,,,,,,,,,,,,,,,,53,,,,,,,,,,,,,,525.864000011934,,response,,,,99,,,,,,,Space,keypress(Space),,,,,,,,---- -- ----- -- ------ - ------- --- ----------<br>------------- ------ ------ ---- ---- ------- ----- -- ----<br>-------- ------- -- ---------- --- - --- ----- ----- ----<br>---- not --- ----- --- ---- ---- ------- ----- ---- -------<br>--- --- -- ----- -- --- ---- -- --- ---- -- ------ ------<br>--- ----- -- ----,185915.90000000596,185913.30000001192,185370.771,185377.09999999404,185387.436,185920.95,,29,not
screen,html.Screen,2_1_0_1_30,2022-02-15T15:57:31.251Z,,,,,,,,,,,,,,,,,53,,,,,,,,,,,,,,335.1499999940279,,response,,,,99,,,,,,,Space,keypress(Space),,,,,,,,---- -- ----- -- ------ - ------- --- ----------<br>------------- ------ ------ ---- ---- ------- ----- -- ----<br>-------- ------- -- ---------- --- - --- ----- ----- ----<br>---- --- how ----- --- ---- ---- ------- ----- ---- -------<br>--- --- -- ----- -- --- ---- -- --- ---- -- ------ ------<br>--- ----- -- ----,186258.59999999404,186256.09999999404,185904.285,185916.09999999404,185920.95,186271.206,,30,how
screen,html.Screen,2_1_0_1_31,2022-02-15T15:57:31.705Z,,,,,,,,,,,,,,,,,53,,,,,,,,,,,,,,439.7939999999944,,response,,,,99,,,,,,,Space,keypress(Space),,,,,,,,---- -- ----- -- ------ - ------- --- ----------<br>------------- ------ ------ ---- ---- ------- ----- -- ----<br>-------- ------- -- ---------- --- - --- ----- ----- ----<br>---- --- --- close --- ---- ---- ------- ----- ---- -------<br>--- --- -- ----- -- --- ---- -- --- ---- -- ------ ------<br>--- ----- -- ----,186713.09999999404,186711,186254.541,186260.40000000596,186271.206,186721.368,,31,close
screen,html.Screen,2_1_0_1_32,2022-02-15T15:57:32.123Z,,,,,,,,,,,,,,,,,53,,,,,,,,,,,,,,407.63200000001234,,response,,,,99,,,,,,,Space,keypress(Space),,,,,,,,---- -- ----- -- ------ - ------- --- ----------<br>------------- ------ ------ ---- ---- ------- ----- -- ----<br>-------- ------- -- ---------- --- - --- ----- ----- ----<br>---- --- --- ----- you ---- ---- ------- ----- ---- -------<br>--- --- -- ----- -- --- ---- -- --- ---- -- ------ ------<br>--- ----- -- ----,187131,187129,186704.703,186713.30000001192,186721.368,187138.244,,32,you
screen,html.Screen,2_1_0_1_33,2022-02-15T15:57:32.596Z,,,,,,,,,,,,,,,,,53,,,,,,,,,,,,,,463.6560000059544,,response,,,,99,,,,,,,Space,keypress(Space),,,,,,,,---- -- ----- -- ------ - ------- --- ----------<br>------------- ------ ------ ---- ---- ------- ----- -- ----<br>-------- ------- -- ---------- --- - --- ----- ----- ----<br>---- --- --- ----- --- feel ---- ------- ----- ---- -------<br>--- --- -- ----- -- --- ---- -- --- ---- -- ------ ------<br>--- ----- -- ----,187603.90000000596,187601.90000000596,187121.579,187131.09999999404,187138.244,187621.762,,33,feel
screen,html.Screen,2_1_0_1_34,2022-02-15T15:57:33.132Z,,,,,,,,,,,,,,,,,53,,,,,,,,,,,,,,515.2380000000121,,response,,,,99,,,,,,,Space,keypress(Space),,,,,,,,---- -- ----- -- ------ - ------- --- ----------<br>------------- ------ ------ ---- ---- ------- ----- -- ----<br>-------- ------- -- ---------- --- - --- ----- ----- ----<br>---- --- --- ----- --- ---- that ------- ----- ---- -------<br>--- --- -- ----- -- --- ---- -- --- ---- -- ------ ------<br>--- ----- -- ----,188139.19999998808,188137,187605.097,187604.19999998808,187621.762,188155.302,,34,that
screen,html.Screen,2_1_0_1_35,2022-02-15T15:57:33.605Z,,,,,,,,,,,,,,,,,53,,,,,,,,,,,,,,454.69800000000396,,response,,,,99,,,,,,,Space,keypress(Space),,,,,,,,---- -- ----- -- ------ - ------- --- ----------<br>------------- ------ ------ ---- ---- ------- ----- -- ----<br>-------- ------- -- ---------- --- - --- ----- ----- ----<br>---- --- --- ----- --- ---- ---- matters ----- ---- -------<br>--- --- -- ----- -- --- ---- -- --- ---- -- ------ ------<br>--- ----- -- ----,188612.40000000596,188610,188138.637,188139.5,188155.302,188622.209,,35,matters
screen,html.Screen,2_1_0_1_36,2022-02-15T15:57:34.511Z,,,,,,,,,,,,,,,,,53,,,,,,,,,,,,,,893.890999994037,,response,,,,99,,,,,,,Space,keypress(Space),,,,,,,,"---- -- ----- -- ------ - ------- --- ----------<br>------------- ------ ------ ---- ---- ------- ----- -- ----<br>-------- ------- -- ---------- --- - --- ----- ----- ----<br>---- --- --- ----- --- ---- ---- ------- most, ---- -------<br>--- --- -- ----- -- --- ---- -- --- ---- -- ------ ------<br>--- ----- -- ----",189518.90000000596,189516.09999999404,188605.544,188612.69999998808,188622.209,189522.389,,36,"most,"
screen,html.Screen,2_1_0_1_37,2022-02-15T15:57:34.949Z,,,,,,,,,,,,,,,,,53,,,,,,,,,,,,,,431.5110000059649,,response,,,,99,,,,,,,Space,keypress(Space),,,,,,,,---- -- ----- -- ------ - ------- --- ----------<br>------------- ------ ------ ---- ---- ------- ----- -- ----<br>-------- ------- -- ---------- --- - --- ----- ----- ----<br>---- --- --- ----- --- ---- ---- ------- ----- it's -------<br>--- --- -- ----- -- --- ---- -- --- ---- -- ------ ------<br>--- ----- -- ----,189956.80000001192,189953.90000000596,189505.724,189519,189522.389,189972.837,,37,it's
screen,html.Screen,2_1_0_1_38,2022-02-15T15:57:35.398Z,,,,,,,,,,,,,,,,,53,,,,,,,,,,,,,,429.4630000119214,,response,,,,99,,,,,,,Space,keypress(Space),,,,,,,,---- -- ----- -- ------ - ------- --- ----------<br>------------- ------ ------ ---- ---- ------- ----- -- ----<br>-------- ------- -- ---------- --- - --- ----- ----- ----<br>---- --- --- ----- --- ---- ---- ------- ----- ---- whether<br>--- --- -- ----- -- --- ---- -- --- ---- -- ------ ------<br>--- ----- -- ----,190406.19999998808,190402.30000001192,189956.172,189956.90000000596,189972.837,190423.038,,38,whether
screen,html.Screen,2_1_0_1_39,2022-02-15T15:57:36.777Z,,,,,,,,,,,,,,,,,53,,,,,,,,,,,,,,1358.6619999880786,,response,,,,99,,,,,,,Space,keypress(Space),,,,,,,,---- -- ----- -- ------ - ------- --- ----------<br>------------- ------ ------ ---- ---- ------- ----- -- ----<br>-------- ------- -- ---------- --- - --- ----- ----- ----<br>---- --- --- ----- --- ---- ---- ------- ----- ---- -------<br>you --- -- ----- -- --- ---- -- --- ---- -- ------ ------<br>--- ----- -- ----,191784.19999998808,191781.69999998808,190406.373,190406.30000001192,190423.038,191789.822,,39,you
screen,html.Screen,2_1_0_1_40,2022-02-15T15:57:37.280Z,,,,,,,,,,,,,,,,,53,,,,,,,,,,,,,,495.0780000059749,,response,,,,99,,,,,,,Space,keypress(Space),,,,,,,,---- -- ----- -- ------ - ------- --- ----------<br>------------- ------ ------ ---- ---- ------- ----- -- ----<br>-------- ------- -- ---------- --- - --- ----- ----- ----<br>---- --- --- ----- --- ---- ---- ------- ----- ---- -------<br>--- are -- ----- -- --- ---- -- --- ---- -- ------ ------<br>--- ----- -- ----,192287.59999999404,192284.90000000596,191773.157,191784.40000000596,191789.822,192298.902,,40,are
screen,html.Screen,2_1_0_1_41,2022-02-15T15:57:37.650Z,,,,,,,,,,,,,,,,,53,,,,,,,,,,,,,,356.4980000059586,,response,,,,99,,,,,,,Space,keypress(Space),,,,,,,,---- -- ----- -- ------ - ------- --- ----------<br>------------- ------ ------ ---- ---- ------- ----- -- ----<br>-------- ------- -- ---------- --- - --- ----- ----- ----<br>---- --- --- ----- --- ---- ---- ------- ----- ---- -------<br>--- --- as ----- -- --- ---- -- --- ---- -- ------ ------<br>--- ----- -- ----,192657.80000001192,192655.40000000596,192282.237,192287.80000001192,192298.902,192674.07,,41,as
screen,html.Screen,2_1_0_1_42,2022-02-15T15:57:38.040Z,,,,,,,,,,,,,,,,,53,,,,,,,,,,,,,,371.429999999993,,response,,,,99,,,,,,,Space,keypress(Space),,,,,,,,---- -- ----- -- ------ - ------- --- ----------<br>------------- ------ ------ ---- ---- ------- ----- -- ----<br>-------- ------- -- ---------- --- - --- ----- ----- ----<br>---- --- --- ----- --- ---- ---- ------- ----- ---- -------<br>--- --- -- close -- --- ---- -- --- ---- -- ------ ------<br>--- ----- -- ----,193047.80000001192,193045.5,192657.405,192658,192674.07,193057.568,,42,close
screen,html.Screen,2_1_0_1_43,2022-02-15T15:57:38.421Z,,,,,,,,,,,,,,,,,53,,,,,,,,,,,,,,369.2320000119216,,response,,,,99,,,,,,,Space,keypress(Space),,,,,,,,---- -- ----- -- ------ - ------- --- ----------<br>------------- ------ ------ ---- ---- ------- ----- -- ----<br>-------- ------- -- ---------- --- - --- ----- ----- ----<br>---- --- --- ----- --- ---- ---- ------- ----- ---- -------<br>--- --- -- ----- as --- ---- -- --- ---- -- ------ ------<br>--- ----- -- ----,193429,193426.80000001192,193040.903,193048,193057.568,193441.093,,43,as
screen,html.Screen,2_1_0_1_44,2022-02-15T15:57:38.787Z,,,,,,,,,,,,,,,,,53,,,,,,,,,,,,,,351.20700001192745,,response,,,,99,,,,,,,Space,keypress(Space),,,,,,,,---- -- ----- -- ------ - ------- --- ----------<br>------------- ------ ------ ---- ---- ------- ----- -- ----<br>-------- ------- -- ---------- --- - --- ----- ----- ----<br>---- --- --- ----- --- ---- ---- ------- ----- ---- -------<br>--- --- -- ----- -- you ---- -- --- ---- -- ------ ------<br>--- ----- -- ----,193795,193792.30000001192,193424.428,193429.19999998808,193441.093,193807.926,,44,you
screen,html.Screen,2_1_0_1_45,2022-02-15T15:57:39.196Z,,,,,,,,,,,,,,,,,53,,,,,,,,,,,,,,392.8740000119142,,response,,,,99,,,,,,,Space,keypress(Space),,,,,,,,---- -- ----- -- ------ - ------- --- ----------<br>------------- ------ ------ ---- ---- ------- ----- -- ----<br>-------- ------- -- ---------- --- - --- ----- ----- ----<br>---- --- --- ----- --- ---- ---- ------- ----- ---- -------<br>--- --- -- ----- -- --- want -- --- ---- -- ------ ------<br>--- ----- -- ----,194203.80000001192,194200.80000001192,193791.261,193795.19999998808,193807.926,194208.088,,45,want
screen,html.Screen,2_1_0_1_46,2022-02-15T15:57:39.605Z,,,,,,,,,,,,,,,,,53,,,,,,,,,,,,,,402.7120000119321,,response,,,,99,,,,,,,Space,keypress(Space),,,,,,,,---- -- ----- -- ------ - ------- --- ----------<br>------------- ------ ------ ---- ---- ------- ----- -- ----<br>-------- ------- -- ---------- --- - --- ----- ----- ----<br>---- --- --- ----- --- ---- ---- ------- ----- ---- -------<br>--- --- -- ----- -- --- ---- to --- ---- -- ------ ------<br>--- ----- -- ----,194613.19999998808,194610.80000001192,194191.423,194204.09999999404,194208.088,194624.94,,46,to
screen,html.Screen,2_1_0_1_47,2022-02-15T15:57:40.310Z,,,,,,,,,,,,,,,,,53,,,,,,,,,,,,,,690.6599999940372,,response,,,,99,,,,,,,Space,keypress(Space),,,,,,,,"---- -- ----- -- ------ - ------- --- ----------<br>------------- ------ ------ ---- ---- ------- ----- -- ----<br>-------- ------- -- ---------- --- - --- ----- ----- ----<br>---- --- --- ----- --- ---- ---- ------- ----- ---- -------<br>--- --- -- ----- -- --- ---- -- be, ---- -- ------ ------<br>--- ----- -- ----",195318.09999999404,195315.59999999404,194608.275,194613.40000000596,194624.94,195325.1,,47,"be,"
screen,html.Screen,2_1_0_1_48,2022-02-15T15:57:40.718Z,,,,,,,,,,,,,,,,,53,,,,,,,,,,,,,,398.4999999940337,,response,,,,99,,,,,,,Space,keypress(Space),,,,,,,,---- -- ----- -- ------ - ------- --- ----------<br>------------- ------ ------ ---- ---- ------- ----- -- ----<br>-------- ------- -- ---------- --- - --- ----- ----- ----<br>---- --- --- ----- --- ---- ---- ------- ----- ---- -------<br>--- --- -- ----- -- --- ---- -- --- even -- ------ ------<br>--- ----- -- ----,195726,195723.59999999404,195308.435,195318.30000001192,195325.1,195742.114,,48,even
screen,html.Screen,2_1_0_1_49,2022-02-15T15:57:41.133Z,,,,,,,,,,,,,,,,,53,,,,,,,,,,,,,,395.98599999403814,,response,,,,99,,,,,,,Space,keypress(Space),,,,,,,,---- -- ----- -- ------ - ------- --- ----------<br>------------- ------ ------ ---- ---- ------- ----- -- ----<br>-------- ------- -- ---------- --- - --- ----- ----- ----<br>---- --- --- ----- --- ---- ---- ------- ----- ---- -------<br>--- --- -- ----- -- --- ---- -- --- ---- if ------ ------<br>--- ----- -- ----,196141,196138.09999999404,195725.449,195726.09999999404,195742.114,196158.966,,49,if
screen,html.Screen,2_1_0_1_50,2022-02-15T15:57:41.710Z,,,,,,,,,,,,,,,,,53,,,,,,,,,,,,,,557.1339999940537,,response,,,,99,,,,,,,Space,keypress(Space),,,,,,,,---- -- ----- -- ------ - ------- --- ----------<br>------------- ------ ------ ---- ---- ------- ----- -- ----<br>-------- ------- -- ---------- --- - --- ----- ----- ----<br>---- --- --- ----- --- ---- ---- ------- ----- ---- -------<br>--- --- -- ----- -- --- ---- -- --- ---- -- that's ------<br>--- ----- -- ----,196718.09999999404,196716.09999999404,196142.301,196141.19999998808,196158.966,196725.808,,50,that's
screen,html.Screen,2_1_0_1_51,2022-02-15T15:57:42.440Z,,,,,,,,,,,,,,,,,53,,,,,,,,,,,,,,719.3919999880891,,response,,,,99,,,,,,,Space,keypress(Space),,,,,,,,---- -- ----- -- ------ - ------- --- ----------<br>------------- ------ ------ ---- ---- ------- ----- -- ----<br>-------- ------- -- ---------- --- - --- ----- ----- ----<br>---- --- --- ----- --- ---- ---- ------- ----- ---- -------<br>--- --- -- ----- -- --- ---- -- --- ---- -- ------ really<br>--- ----- -- ----,197448,197445.19999998808,196709.143,196718.30000001192,196725.808,197459.381,,51,really
screen,html.Screen,2_1_0_1_52,2022-02-15T15:57:43.096Z,,,,,,,,,,,,,,,,,53,,,,,,,,,,,,,,641.8189999880851,,response,,,,99,,,,,,,Space,keypress(Space),,,,,,,,---- -- ----- -- ------ - ------- --- ----------<br>------------- ------ ------ ---- ---- ------- ----- -- ----<br>-------- ------- -- ---------- --- - --- ----- ----- ----<br>---- --- --- ----- --- ---- ---- ------- ----- ---- -------<br>--- --- -- ----- -- --- ---- -- --- ---- -- ------ ------<br>not ----- -- ----,198103.30000001192,198101.19999998808,197442.716,197448.19999998808,197459.381,198109.728,,52,not
screen,html.Screen,2_1_0_1_53,2022-02-15T15:57:43.600Z,,,,,,,,,,,,,,,,,53,,,,,,,,,,,,,,495.67200000595767,,response,,,,99,,,,,,,Space,keypress(Space),,,,,,,,---- -- ----- -- ------ - ------- --- ----------<br>------------- ------ ------ ---- ---- ------- ----- -- ----<br>-------- ------- -- ---------- --- - --- ----- ----- ----<br>---- --- --- ----- --- ---- ---- ------- ----- ---- -------<br>--- --- -- ----- -- --- ---- -- --- ---- -- ------ ------<br>--- close -- ----,198607.40000000596,198605.40000000596,198093.063,198103.59999999404,198109.728,198610.029,,53,close
screen,html.Screen,2_1_0_1_54,2022-02-15T15:57:44.002Z,,,,,,,,,,,,,,,,,53,,,,,,,,,,,,,,396.6709999880695,,response,,,,99,,,,,,,Space,keypress(Space),,,,,,,,---- -- ----- -- ------ - ------- --- ----------<br>------------- ------ ------ ---- ---- ------- ----- -- ----<br>-------- ------- -- ---------- --- - --- ----- ----- ----<br>---- --- --- ----- --- ---- ---- ------- ----- ---- -------<br>--- --- -- ----- -- --- ---- -- --- ---- -- ------ ------<br>--- ----- at ----,199010.19999998808,199006.69999998808,198593.364,198607.69999998808,198610.029,199026.943,,54,at
screen,html.Screen,2_1_0_1_55,2022-02-15T15:57:44.892Z,,,,,,,,,,,,,,,,,53,,,,,,,,,,,,,,870.4570000059612,,response,,,,99,,,,,,,Space,keypress(Space),,,,,,,,---- -- ----- -- ------ - ------- --- ----------<br>------------- ------ ------ ---- ---- ------- ----- -- ----<br>-------- ------- -- ---------- --- - --- ----- ----- ----<br>---- --- --- ----- --- ---- ---- ------- ----- ---- -------<br>--- --- -- ----- -- --- ---- -- --- ---- -- ------ ------<br>--- ----- -- all.,199899.69999998808,199897.40000000596,199010.278,199010.40000000596,199026.943,199910.412,,55,all.
Item 99,flow.Loop,2_1_0_1,2022-02-15T15:57:44.892Z,,,,,,,,,,,,,,,,,,,,,,,,,,,,,,,31109.452000005957,,completion,,,,,A,,,,,,,,,,,silence,,,,,199900,199897.40000000596,168721.288,168723.90000000596,168787.948,199910.412,,,
Question 1,html.Screen,2_1_0_2,2022-02-15T15:57:50.709Z,,,,,,,,,,,,,,,,,,,,,,,,,,,,true,FALSE,,5803.488000005949,,response,,,,99,A,,,,,,FALSE,click #choice-2,,,,silence,,,,,205716.80000001192,205713.90000000596,199893.747,199900.30000001192,199910.412,205721.416,,,
Question 2,html.Screen,2_1_0_3,2022-02-15T15:57:59.973Z,,,,,,,,,,,,,,,,,,,,,,,,,,,,true,TRUE,,9257.283999988082,,response,,,,99,A,,,,,,TRUE,click #choice-1,,,,silence,,,,,214981,214978.69999998808,205704.751,205717,205721.416,214992.595,,,
Item 99,flow.Sequence,2_1_0,2022-02-15T15:57:59.974Z,,,,,,,,,,,,,,,,,,,,,,,,,,,,,,,56245.09999998807,,completion,,,,,,,,,,,,,,,,,,,,,214981.30000001192,214978.69999998808,158716.935,158724.40000000596,158733.6,214992.595,,,
Holding screen,html.Screen,2_1_1_0,2022-02-15T15:58:09.974Z,,,,,,,,,,,,,,,,,,,,,,,,,,,,,,,10004.130000000005,,timeout,,,,,,,,,,,,,,,,,,,,,224981.90000000596,224980.06,214975.93,214981.40000000596,214992.595,224996.725,,,
screen,html.Screen,2_1_1_1_0,2022-02-15T15:58:12.422Z,,,,,,,,,,,,,,,,,54,,,,,,,,,,,,,,2430.8749999940337,,response,,,,100,,,,,,,Space,keypress(Space),,,,,,,,At --- ---- --- ------ ----- ------- ---- -- --- ------- --<br>------- ---------- ------ -- ----- -- ----- -- ---- ------<br>--- ----- --- --- ------ -------- ----- --- ------ ----- --<br>----- ----- ---------- --- --- ------ ------ ---- -- ------<br>------- --- ------ ----- --- ---- ------- -- ---- --- --<br>------- ------,227429.69999998808,227427.59999999404,224980.06,224982.5,224996.725,227447.113,,0,At
screen,html.Screen,2_1_1_1_1,2022-02-15T15:58:12.888Z,,,,,,,,,,,,,,,,,54,,,,,,,,,,,,,,445.08699998806696,,response,,,,100,,,,,,,Space,keypress(Space),,,,,,,,-- the ---- --- ------ ----- ------- ---- -- --- ------- --<br>------- ---------- ------ -- ----- -- ----- -- ---- ------<br>--- ----- --- --- ------ -------- ----- --- ------ ----- --<br>----- ----- ---------- --- --- ------ ------ ---- -- ------<br>------- --- ------ ----- --- ---- ------- -- ---- --- --<br>------- ------,227895.40000000596,227892.19999998808,227430.448,227429.90000000596,227447.113,227898.238,,1,the
screen,html.Screen,2_1_1_1_2,2022-02-15T15:58:14.634Z,,,,,,,,,,,,,,,,,54,,,,,,,,,,,,,,1741.0620000119088,,response,,,,100,,,,,,,Space,keypress(Space),,,,,,,,-- --- time --- ------ ----- ------- ---- -- --- ------- --<br>------- ---------- ------ -- ----- -- ----- -- ---- ------<br>--- ----- --- --- ------ -------- ----- --- ------ ----- --<br>----- ----- ---------- --- --- ------ ------ ---- -- ------<br>------- --- ------ ----- --- ---- ------- -- ---- --- --<br>------- ------,229641.80000001192,229639.30000001192,227881.573,227895.59999999404,227898.238,229656.648,,2,time
screen,html.Screen,2_1_1_1_3,2022-02-15T15:58:15.016Z,,,,,,,,,,,,,,,,,54,,,,,,,,,,,,,,364.95199999405304,,response,,,,100,,,,,,,Space,keypress(Space),,,,,,,,-- --- ---- the ------ ----- ------- ---- -- --- ------- --<br>------- ---------- ------ -- ----- -- ----- -- ---- ------<br>--- ----- --- --- ------ -------- ----- --- ------ ----- --<br>----- ----- ---------- --- --- ------ ------ ---- -- ------<br>------- --- ------ ----- --- ---- ------- -- ---- --- --<br>------- ------,230024,230021.59999999404,229639.983,229642,229656.648,230032.575,,3,the
screen,html.Screen,2_1_1_1_4,2022-02-15T15:58:15.333Z,,,,,,,,,,,,,,,,,54,,,,,,,,,,,,,,306.2250000119093,,response,,,,100,,,,,,,Space,keypress(Space),,,,,,,,-- --- ---- --- French ----- ------- ---- -- --- ------- --<br>------- ---------- ------ -- ----- -- ----- -- ---- ------<br>--- ----- --- --- ------ -------- ----- --- ------ ----- --<br>----- ----- ---------- --- --- ------ ------ ---- -- ------<br>------- --- ------ ----- --- ---- ------- -- ---- --- --<br>------- ------,230341.09999999404,230338.80000001192,230015.91,230024.19999998808,230032.575,230357.701,,4,French
screen,html.Screen,2_1_1_1_5,2022-02-15T15:58:15.714Z,,,,,,,,,,,,,,,,,54,,,,,,,,,,,,,,362.19900000595953,,response,,,,100,,,,,,,Space,keypress(Space),,,,,,,,-- --- ---- --- ------ crown ------- ---- -- --- ------- --<br>------- ---------- ------ -- ----- -- ----- -- ---- ------<br>--- ----- --- --- ------ -------- ----- --- ------ ----- --<br>----- ----- ---------- --- --- ------ ------ ---- -- ------<br>------- --- ------ ----- --- ---- ------- -- ---- --- --<br>------- ------,230722.19999998808,230719.90000000596,230341.036,230341.30000001192,230357.701,230724.495,,5,crown
screen,html.Screen,2_1_1_1_6,2022-02-15T15:58:16.039Z,,,,,,,,,,,,,,,,,54,,,,,,,,,,,,,,320.00500000000466,,response,,,,100,,,,,,,Space,keypress(Space),,,,,,,,-- --- ---- --- ------ ----- secured ---- -- --- ------- --<br>------- ---------- ------ -- ----- -- ----- -- ---- ------<br>--- ----- --- --- ------ -------- ----- --- ------ ----- --<br>----- ----- ---------- --- --- ------ ------ ---- -- ------<br>------- --- ------ ----- --- ---- ------- -- ---- --- --<br>------- ------,231046.80000001192,231044.5,230707.83,230722.30000001192,230724.495,231058.003,,6,secured
screen,html.Screen,2_1_1_1_7,2022-02-15T15:58:16.392Z,,,,,,,,,,,,,,,,,54,,,,,,,,,,,,,,339.6969999880821,,response,,,,100,,,,,,,Space,keypress(Space),,,,,,,,-- --- ---- --- ------ ----- ------- much -- --- ------- --<br>------- ---------- ------ -- ----- -- ----- -- ---- ------<br>--- ----- --- --- ------ -------- ----- --- ------ ----- --<br>----- ----- ---------- --- --- ------ ------ ---- -- ------<br>------- --- ------ ----- --- ---- ------- -- ---- --- --<br>------- ------,231400.09999999404,231397.69999998808,231041.338,231047,231058.003,231408.16,,7,much
screen,html.Screen,2_1_1_1_8,2022-02-15T15:58:16.746Z,,,,,,,,,,,,,,,,,54,,,,,,,,,,,,,,343.240000005957,,response,,,,100,,,,,,,Space,keypress(Space),,,,,,,,-- --- ---- --- ------ ----- ------- ---- of --- ------- --<br>------- ---------- ------ -- ----- -- ----- -- ---- ------<br>--- ----- --- --- ------ -------- ----- --- ------ ----- --<br>----- ----- ---------- --- --- ------ ------ ---- -- ------<br>------- --- ------ ----- --- ---- ------- -- ---- --- --<br>------- ------,231753.80000001192,231751.40000000596,231391.495,231400.19999998808,231408.16,231758.329,,8,of
screen,html.Screen,2_1_1_1_9,2022-02-15T15:58:17.025Z,,,,,,,,,,,,,,,,,54,,,,,,,,,,,,,,271.87099998808117,,response,,,,100,,,,,,,Space,keypress(Space),,,,,,,,-- --- ---- --- ------ ----- ------- ---- -- its ------- --<br>------- ---------- ------ -- ----- -- ----- -- ---- ------<br>--- ----- --- --- ------ -------- ----- --- ------ ----- --<br>----- ----- ---------- --- --- ------ ------ ---- -- ------<br>------- --- ------ ----- --- ---- ------- -- ---- --- --<br>------- ------,232032.40000000596,232030.19999998808,231741.664,231754.09999999404,231758.329,232041.824,,9,its
screen,html.Screen,2_1_1_1_10,2022-02-15T15:58:17.478Z,,,,,,,,,,,,,,,,,54,,,,,,,,,,,,,,441.7759999940463,,response,,,,100,,,,,,,Space,keypress(Space),,,,,,,,-- --- ---- --- ------ ----- ------- ---- -- --- revenue --<br>------- ---------- ------ -- ----- -- ----- -- ---- ------<br>--- ----- --- --- ------ -------- ----- --- ------ ----- --<br>----- ----- ---------- --- --- ------ ------ ---- -- ------<br>------- --- ------ ----- --- ---- ------- -- ---- --- --<br>------- ------,232485.69999998808,232483.59999999404,232025.159,232032.69999998808,232041.824,232491.937,,10,revenue
screen,html.Screen,2_1_1_1_11,2022-02-15T15:58:17.922Z,,,,,,,,,,,,,,,,,54,,,,,,,,,,,,,,434.8630000119156,,response,,,,100,,,,,,,Space,keypress(Space),,,,,,,,-- --- ---- --- ------ ----- ------- ---- -- --- ------- by<br>------- ---------- ------ -- ----- -- ----- -- ---- ------<br>--- ----- --- --- ------ -------- ----- --- ------ ----- --<br>----- ----- ---------- --- --- ------ ------ ---- -- ------<br>------- --- ------ ----- --- ---- ------- -- ---- --- --<br>------- ------,232929.30000001192,232926.80000001192,232475.272,232485.90000000596,232491.937,232942.136,,11,by
screen,html.Screen,2_1_1_1_12,2022-02-15T15:58:18.531Z,,,,,,,,,,,,,,,,,54,,,,,,,,,,,,,,593.2640000059619,,response,,,,100,,,,,,,Space,keypress(Space),,,,,,,,-- --- ---- --- ------ ----- ------- ---- -- --- ------- --<br>issuing ---------- ------ -- ----- -- ----- -- ---- ------<br>--- ----- --- --- ------ -------- ----- --- ------ ----- --<br>----- ----- ---------- --- --- ------ ------ ---- -- ------<br>------- --- ------ ----- --- ---- ------- -- ---- --- --<br>------- ------,233538.90000000596,233535.40000000596,232925.471,232929.5,232942.136,233558.984,,12,issuing
screen,html.Screen,2_1_1_1_13,2022-02-15T15:58:19.120Z,,,,,,,,,,,,,,,,,54,,,,,,,,,,,,,,566.0160000000033,,response,,,,100,,,,,,,Space,keypress(Space),,,,,,,,-- --- ---- --- ------ ----- ------- ---- -- --- ------- --<br>------- government ------ -- ----- -- ----- -- ---- ------<br>--- ----- --- --- ------ -------- ----- --- ------ ----- --<br>----- ----- ---------- --- --- ------ ------ ---- -- ------<br>------- --- ------ ----- --- ---- ------- -- ---- --- --<br>------- ------,234127.90000000596,234125,233542.319,233539.30000001192,233558.984,234142.599,,13,government
screen,html.Screen,2_1_1_1_14,2022-02-15T15:58:20.674Z,,,,,,,,,,,,,,,,,54,,,,,,,,,,,,,,1535.6009999880916,,response,,,,100,,,,,,,Space,keypress(Space),,,,,,,,-- --- ---- --- ------ ----- ------- ---- -- --- ------- --<br>------- ---------- bonds. -- ----- -- ----- -- ---- ------<br>--- ----- --- --- ------ -------- ----- --- ------ ----- --<br>----- ----- ---------- --- --- ------ ------ ---- -- ------<br>------- --- ------ ----- --- ---- ------- -- ---- --- --<br>------- ------,235681.90000000596,235678.19999998808,234125.934,234128.09999999404,234142.599,235692.773,,14,bonds.
screen,html.Screen,2_1_1_1_15,2022-02-15T15:58:22.393Z,,,,,,,,,,,,,,,,,54,,,,,,,,,,,,,,1706.326999994053,,response,,,,100,,,,,,,Space,keypress(Space),,,,,,,,-- --- ---- --- ------ ----- ------- ---- -- --- ------- --<br>------- ---------- ------ In ----- -- ----- -- ---- ------<br>--- ----- --- --- ------ -------- ----- --- ------ ----- --<br>----- ----- ---------- --- --- ------ ------ ---- -- ------<br>------- --- ------ ----- --- ---- ------- -- ---- --- --<br>------- ------,237401.19999998808,237399.09999999404,235676.108,235682.19999998808,235692.773,237426.809,,15,In
screen,html.Screen,2_1_1_1_16,2022-02-15T15:58:23.526Z,,,,,,,,,,,,,,,,,54,,,,,,,,,,,,,,1102.7909999940312,,response,,,,100,,,,,,,Space,keypress(Space),,,,,,,,"-- --- ---- --- ------ ----- ------- ---- -- --- ------- --<br>------- ---------- ------ -- 1727, -- ----- -- ---- ------<br>--- ----- --- --- ------ -------- ----- --- ------ ----- --<br>----- ----- ---------- --- --- ------ ------ ---- -- ------<br>------- --- ------ ----- --- ---- ------- -- ---- --- --<br>------- ------",238533.69999998808,238529.59999999404,237393.479,237401.30000001192,237426.809,238544.215,,16,"1727,"
screen,html.Screen,2_1_1_1_17,2022-02-15T15:58:24.489Z,,,,,,,,,,,,,,,,,54,,,,,,,,,,,,,,949.884999994043,,response,,,,100,,,,,,,Space,keypress(Space),,,,,,,,-- --- ---- --- ------ ----- ------- ---- -- --- ------- --<br>------- ---------- ------ -- ----- in ----- -- ---- ------<br>--- ----- --- --- ------ -------- ----- --- ------ ----- --<br>----- ----- ---------- --- --- ------ ------ ---- -- ------<br>------- --- ------ ----- --- ---- ------- -- ---- --- --<br>------- ------,239496.40000000596,239494.09999999404,238527.55,238534.09999999404,238544.215,239503.093,,17,in
screen,html.Screen,2_1_1_1_18,2022-02-15T15:58:24.954Z,,,,,,,,,,,,,,,,,54,,,,,,,,,,,,,,455.6069999880856,,response,,,,100,,,,,,,Space,keypress(Space),,,,,,,,-- --- ---- --- ------ ----- ------- ---- -- --- ------- --<br>------- ---------- ------ -- ----- -- order -- ---- ------<br>--- ----- --- --- ------ -------- ----- --- ------ ----- --<br>----- ----- ---------- --- --- ------ ------ ---- -- ------<br>------- --- ------ ----- --- ---- ------- -- ---- --- --<br>------- ------,239962.09999999404,239958.69999998808,239486.428,239496.80000001192,239503.093,239978.542,,18,order
screen,html.Screen,2_1_1_1_19,2022-02-15T15:58:25.227Z,,,,,,,,,,,,,,,,,54,,,,,,,,,,,,,,252.95800000001327,,response,,,,100,,,,,,,Space,keypress(Space),,,,,,,,-- --- ---- --- ------ ----- ------- ---- -- --- ------- --<br>------- ---------- ------ -- ----- -- ----- to ---- ------<br>--- ----- --- --- ------ -------- ----- --- ------ ----- --<br>----- ----- ---------- --- --- ------ ------ ---- -- ------<br>------- --- ------ ----- --- ---- ------- -- ---- --- --<br>------- ------,240234.30000001192,240231.5,239961.877,239962.30000001192,239978.542,240245.431,,19,to
screen,html.Screen,2_1_1_1_20,2022-02-15T15:58:25.594Z,,,,,,,,,,,,,,,,,54,,,,,,,,,,,,,,352.96900000594906,,response,,,,100,,,,,,,Space,keypress(Space),,,,,,,,-- --- ---- --- ------ ----- ------- ---- -- --- ------- --<br>------- ---------- ------ -- ----- -- ----- -- save ------<br>--- ----- --- --- ------ -------- ----- --- ------ ----- --<br>----- ----- ---------- --- --- ------ ------ ---- -- ------<br>------- --- ------ ----- --- ---- ------- -- ---- --- --<br>------- ------,240602,240598.40000000596,240228.766,240234.69999998808,240245.431,240612.221,,20,save
screen,html.Screen,2_1_1_1_21,2022-02-15T15:58:25.973Z,,,,,,,,,,,,,,,,,54,,,,,,,,,,,,,,365.27900000000955,,response,,,,100,,,,,,,Space,keypress(Space),,,,,,,,"-- --- ---- --- ------ ----- ------- ---- -- --- ------- --<br>------- ---------- ------ -- ----- -- ----- -- ---- money,<br>--- ----- --- --- ------ -------- ----- --- ------ ----- --<br>----- ----- ---------- --- --- ------ ------ ---- -- ------<br>------- --- ------ ----- --- ---- ------- -- ---- --- --<br>------- ------",240980.5,240977.5,240595.556,240602.19999998808,240612.221,240995.725,,21,"money,"
screen,html.Screen,2_1_1_1_22,2022-02-15T15:58:26.505Z,,,,,,,,,,,,,,,,,54,,,,,,,,,,,,,,514.5750000119151,,response,,,,100,,,,,,,Space,keypress(Space),,,,,,,,-- --- ---- --- ------ ----- ------- ---- -- --- ------- --<br>------- ---------- ------ -- ----- -- ----- -- ---- ------<br>the ----- --- --- ------ -------- ----- --- ------ ----- --<br>----- ----- ---------- --- --- ------ ------ ---- -- ------<br>------- --- ------ ----- --- ---- ------- -- ---- --- --<br>------- ------,241512.80000001192,241510.30000001192,240979.06,240981.40000000596,240995.725,241529.212,,22,the
screen,html.Screen,2_1_1_1_23,2022-02-15T15:58:27.018Z,,,,,,,,,,,,,,,,,54,,,,,,,,,,,,,,494.5880000119214,,response,,,,100,,,,,,,Space,keypress(Space),,,,,,,,-- --- ---- --- ------ ----- ------- ---- -- --- ------- --<br>------- ---------- ------ -- ----- -- ----- -- ---- ------<br>--- state --- --- ------ -------- ----- --- ------ ----- --<br>----- ----- ---------- --- --- ------ ------ ---- -- ------<br>------- --- ------ ----- --- ---- ------- -- ---- --- --<br>------- ------,242025.80000001192,242023.80000001192,241512.547,241513,241529.212,242029.453,,23,state
screen,html.Screen,2_1_1_1_24,2022-02-15T15:58:27.825Z,,,,,,,,,,,,,,,,,54,,,,,,,,,,,,,,801.0469999999914,,response,,,,100,,,,,,,Space,keypress(Space),,,,,,,,-- --- ---- --- ------ ----- ------- ---- -- --- ------- --<br>------- ---------- ------ -- ----- -- ----- -- ---- ------<br>--- ----- cut --- ------ -------- ----- --- ------ ----- --<br>----- ----- ---------- --- --- ------ ------ ---- -- ------<br>------- --- ------ ----- --- ---- ------- -- ---- --- --<br>------- ------,242833.09999999404,242830.5,242012.788,242026,242029.453,242846.321,,24,cut
screen,html.Screen,2_1_1_1_25,2022-02-15T15:58:28.275Z,,,,,,,,,,,,,,,,,54,,,,,,,,,,,,,,434.27899999404326,,response,,,,100,,,,,,,Space,keypress(Space),,,,,,,,-- --- ---- --- ------ ----- ------- ---- -- --- ------- --<br>------- ---------- ------ -- ----- -- ----- -- ---- ------<br>--- ----- --- the ------ -------- ----- --- ------ ----- --<br>----- ----- ---------- --- --- ------ ------ ---- -- ------<br>------- --- ------ ----- --- ---- ------- -- ---- --- --<br>------- ------,243282.69999998808,243280.59999999404,242829.656,242833.40000000596,242846.321,243296.716,,25,the
screen,html.Screen,2_1_1_1_26,2022-02-15T15:58:28.853Z,,,,,,,,,,,,,,,,,54,,,,,,,,,,,,,,561.3839999940537,,response,,,,100,,,,,,,Space,keypress(Space),,,,,,,,-- --- ---- --- ------ ----- ------- ---- -- --- ------- --<br>------- ---------- ------ -- ----- -- ----- -- ---- ------<br>--- ----- --- --- bonds' -------- ----- --- ------ ----- --<br>----- ----- ---------- --- --- ------ ------ ---- -- ------<br>------- --- ------ ----- --- ---- ------- -- ---- --- --<br>------- ------,243860.30000001192,243858.09999999404,243280.051,243282.90000000596,243296.716,243863.596,,26,bonds'
screen,html.Screen,2_1_1_1_27,2022-02-15T15:58:29.495Z,,,,,,,,,,,,,,,,,54,,,,,,,,,,,,,,636.7040000119305,,response,,,,100,,,,,,,Space,keypress(Space),,,,,,,,-- --- ---- --- ------ ----- ------- ---- -- --- ------- --<br>------- ---------- ------ -- ----- -- ----- -- ---- ------<br>--- ----- --- --- ------ interest ----- --- ------ ----- --<br>----- ----- ---------- --- --- ------ ------ ---- -- ------<br>------- --- ------ ----- --- ---- ------- -- ---- --- --<br>------- ------,244502.30000001192,244500.30000001192,243846.931,243861.19999998808,243863.596,244513.847,,27,interest
screen,html.Screen,2_1_1_1_28,2022-02-15T15:58:29.926Z,,,,,,,,,,,,,,,,,54,,,,,,,,,,,,,,416.5530000059516,,response,,,,100,,,,,,,Space,keypress(Space),,,,,,,,-- --- ---- --- ------ ----- ------- ---- -- --- ------- --<br>------- ---------- ------ -- ----- -- ----- -- ---- ------<br>--- ----- --- --- ------ -------- rate. --- ------ ----- --<br>----- ----- ---------- --- --- ------ ------ ---- -- ------<br>------- --- ------ ----- --- ---- ------- -- ---- --- --<br>------- ------,244933.30000001192,244930.40000000596,244497.182,244502.59999999404,244513.847,244947.499,,28,rate.
screen,html.Screen,2_1_1_1_29,2022-02-15T15:58:30.982Z,,,,,,,,,,,,,,,,,54,,,,,,,,,,,,,,1039.7009999880684,,response,,,,100,,,,,,,Space,keypress(Space),,,,,,,,-- --- ---- --- ------ ----- ------- ---- -- --- ------- --<br>------- ---------- ------ -- ----- -- ----- -- ---- ------<br>--- ----- --- --- ------ -------- ----- The ------ ----- --<br>----- ----- ---------- --- --- ------ ------ ---- -- ------<br>------- --- ------ ----- --- ---- ------- -- ---- --- --<br>------- ------,245989.80000001192,245987.19999998808,244930.834,244933.5,244947.499,245997.627,,29,The
screen,html.Screen,2_1_1_1_30,2022-02-15T15:58:31.415Z,,,,,,,,,,,,,,,,,54,,,,,,,,,,,,,,422.5729999880714,,response,,,,100,,,,,,,Space,keypress(Space),,,,,,,,-- --- ---- --- ------ ----- ------- ---- -- --- ------- --<br>------- ---------- ------ -- ----- -- ----- -- ---- ------<br>--- ----- --- --- ------ -------- ----- --- market ----- --<br>----- ----- ---------- --- --- ------ ------ ---- -- ------<br>------- --- ------ ----- --- ---- ------- -- ---- --- --<br>------- ------,246422.69999998808,246420.19999998808,245980.962,245989.90000000596,245997.627,246439.823,,30,market
screen,html.Screen,2_1_1_1_31,2022-02-15T15:58:31.697Z,,,,,,,,,,,,,,,,,54,,,,,,,,,,,,,,261.7769999940356,,response,,,,100,,,,,,,Space,keypress(Space),,,,,,,,-- --- ---- --- ------ ----- ------- ---- -- --- ------- --<br>------- ---------- ------ -- ----- -- ----- -- ---- ------<br>--- ----- --- --- ------ -------- ----- --- ------ value --<br>----- ----- ---------- --- --- ------ ------ ---- -- ------<br>------- --- ------ ----- --- ---- ------- -- ---- --- --<br>------- ------,246704.30000001192,246701.59999999404,246423.158,246423,246439.823,246715.034,,31,value
screen,html.Screen,2_1_1_1_32,2022-02-15T15:58:32.119Z,,,,,,,,,,,,,,,,,54,,,,,,,,,,,,,,409.66599998806487,,response,,,,100,,,,,,,Space,keypress(Space),,,,,,,,-- --- ---- --- ------ ----- ------- ---- -- --- ------- --<br>------- ---------- ------ -- ----- -- ----- -- ---- ------<br>--- ----- --- --- ------ -------- ----- --- ------ ----- of<br>----- ----- ---------- --- --- ------ ------ ---- -- ------<br>------- --- ------ ----- --- ---- ------- -- ---- --- --<br>------- ------,247126.5,247124.69999998808,246698.369,246704.5,246715.034,247131.817,,32,of
screen,html.Screen,2_1_1_1_33,2022-02-15T15:58:32.616Z,,,,,,,,,,,,,,,,,54,,,,,,,,,,,,,,489.9830000119109,,response,,,,100,,,,,,,Space,keypress(Space),,,,,,,,-- --- ---- --- ------ ----- ------- ---- -- --- ------- --<br>------- ---------- ------ -- ----- -- ----- -- ---- ------<br>--- ----- --- --- ------ -------- ----- --- ------ ----- --<br>these ----- ---------- --- --- ------ ------ ---- -- ------<br>------- --- ------ ----- --- ---- ------- -- ---- --- --<br>------- ------,247623.80000001192,247621.80000001192,247115.152,247126.80000001192,247131.817,247632.007,,33,these
screen,html.Screen,2_1_1_1_34,2022-02-15T15:58:33.514Z,,,,,,,,,,,,,,,,,54,,,,,,,,,,,,,,887.7930000119086,,response,,,,100,,,,,,,Space,keypress(Space),,,,,,,,-- --- ---- --- ------ ----- ------- ---- -- --- ------- --<br>------- ---------- ------ -- ----- -- ----- -- ---- ------<br>--- ----- --- --- ------ -------- ----- --- ------ ----- --<br>----- bonds ---------- --- --- ------ ------ ---- -- ------<br>------- --- ------ ----- --- ---- ------- -- ---- --- --<br>------- ------,248521.69999998808,248519.80000001192,247615.342,247624.09999999404,247632.007,248532.187,,34,bonds
screen,html.Screen,2_1_1_1_35,2022-02-15T15:58:34.321Z,,,,,,,,,,,,,,,,,54,,,,,,,,,,,,,,794.1130000119156,,response,,,,100,,,,,,,Space,keypress(Space),,,,,,,,"-- --- ---- --- ------ ----- ------- ---- -- --- ------- --<br>------- ---------- ------ -- ----- -- ----- -- ---- ------<br>--- ----- --- --- ------ -------- ----- --- ------ ----- --<br>----- ----- plummeted, --- --- ------ ------ ---- -- ------<br>------- --- ------ ----- --- ---- ------- -- ---- --- --<br>------- ------",249329.19999998808,249326.30000001192,248515.522,248522,248532.187,249332.615,,35,"plummeted,"
screen,html.Screen,2_1_1_1_36,2022-02-15T15:58:34.779Z,,,,,,,,,,,,,,,,,54,,,,,,,,,,,,,,451.18500001193024,,response,,,,100,,,,,,,Space,keypress(Space),,,,,,,,-- --- ---- --- ------ ----- ------- ---- -- --- ------- --<br>------- ---------- ------ -- ----- -- ----- -- ---- ------<br>--- ----- --- --- ------ -------- ----- --- ------ ----- --<br>----- ----- ---------- and --- ------ ------ ---- -- ------<br>------- --- ------ ----- --- ---- ------- -- ---- --- --<br>------- ------,249786.40000000596,249783.80000001192,249315.95,249329.30000001192,249332.615,249799.674,,36,and
screen,html.Screen,2_1_1_1_37,2022-02-15T15:58:35.193Z,,,,,,,,,,,,,,,,,54,,,,,,,,,,,,,,399.12600001192186,,response,,,,100,,,,,,,Space,keypress(Space),,,,,,,,-- --- ---- --- ------ ----- ------- ---- -- --- ------- --<br>------- ---------- ------ -- ----- -- ----- -- ---- ------<br>--- ----- --- --- ------ -------- ----- --- ------ ----- --<br>----- ----- ---------- --- the ------ ------ ---- -- ------<br>------- --- ------ ----- --- ---- ------- -- ---- --- --<br>------- ------,250201,250198.80000001192,249783.009,249786.59999999404,249799.674,250216.558,,37,the
screen,html.Screen,2_1_1_1_38,2022-02-15T15:58:36.010Z,,,,,,,,,,,,,,,,,54,,,,,,,,,,,,,,797.7420000119309,,response,,,,100,,,,,,,Space,keypress(Space),,,,,,,,-- --- ---- --- ------ ----- ------- ---- -- --- ------- --<br>------- ---------- ------ -- ----- -- ----- -- ---- ------<br>--- ----- --- --- ------ -------- ----- --- ------ ----- --<br>----- ----- ---------- --- --- market ------ ---- -- ------<br>------- --- ------ ----- --- ---- ------- -- ---- --- --<br>------- ------,251017.19999998808,251014.30000001192,250199.893,250201.19999998808,250216.558,251033.35,,38,market
screen,html.Screen,2_1_1_1_39,2022-02-15T15:58:36.584Z,,,,,,,,,,,,,,,,,54,,,,,,,,,,,,,,556.1499999999942,,response,,,,100,,,,,,,Space,keypress(Space),,,,,,,,-- --- ---- --- ------ ----- ------- ---- -- --- ------- --<br>------- ---------- ------ -- ----- -- ----- -- ---- ------<br>--- ----- --- --- ------ -------- ----- --- ------ ----- --<br>----- ----- ---------- --- --- ------ became ---- -- ------<br>------- --- ------ ----- --- ---- ------- -- ---- --- --<br>------- ------,251591.90000000596,251589.5,251016.685,251017.40000000596,251033.35,251600.423,,39,became
screen,html.Screen,2_1_1_1_40,2022-02-15T15:58:37.320Z,,,,,,,,,,,,,,,,,54,,,,,,,,,,,,,,724.6769999940298,,response,,,,100,,,,,,,Space,keypress(Space),,,,,,,,-- --- ---- --- ------ ----- ------- ---- -- --- ------- --<br>------- ---------- ------ -- ----- -- ----- -- ---- ------<br>--- ----- --- --- ------ -------- ----- --- ------ ----- --<br>----- ----- ---------- --- --- ------ ------ wary -- ------<br>------- --- ------ ----- --- ---- ------- -- ---- --- --<br>------- ------,252327.40000000596,252325.09999999404,251583.758,251592,251600.423,252333.997,,40,wary
screen,html.Screen,2_1_1_1_41,2022-02-15T15:58:37.717Z,,,,,,,,,,,,,,,,,54,,,,,,,,,,,,,,389.002999999997,,response,,,,100,,,,,,,Space,keypress(Space),,,,,,,,-- --- ---- --- ------ ----- ------- ---- -- --- ------- --<br>------- ---------- ------ -- ----- -- ----- -- ---- ------<br>--- ----- --- --- ------ -------- ----- --- ------ ----- --<br>----- ----- ---------- --- --- ------ ------ ---- of ------<br>------- --- ------ ----- --- ---- ------- -- ---- --- --<br>------- ------,252725.09999999404,252723,252317.332,252327.59999999404,252333.997,252734.373,,41,of
screen,html.Screen,2_1_1_1_42,2022-02-15T15:58:38.138Z,,,,,,,,,,,,,,,,,54,,,,,,,,,,,,,,409.32699998808675,,response,,,,100,,,,,,,Space,keypress(Space),,,,,,,,-- --- ---- --- ------ ----- ------- ---- -- --- ------- --<br>------- ---------- ------ -- ----- -- ----- -- ---- ------<br>--- ----- --- --- ------ -------- ----- --- ------ ----- --<br>----- ----- ---------- --- --- ------ ------ ---- -- French<br>------- --- ------ ----- --- ---- ------- -- ---- --- --<br>------- ------,253145.90000000596,253143.69999998808,252717.708,252725.30000001192,252734.373,253151.217,,42,French
screen,html.Screen,2_1_1_1_43,2022-02-15T15:58:38.877Z,,,,,,,,,,,,,,,,,54,,,,,,,,,,,,,,731.1830000059563,,response,,,,100,,,,,,,Space,keypress(Space),,,,,,,,-- --- ---- --- ------ ----- ------- ---- -- --- ------- --<br>------- ---------- ------ -- ----- -- ----- -- ---- ------<br>--- ----- --- --- ------ -------- ----- --- ------ ----- --<br>----- ----- ---------- --- --- ------ ------ ---- -- ------<br>credit. --- ------ ----- --- ---- ------- -- ---- --- --<br>------- ------,253884.40000000596,253882.40000000596,253134.552,253146,253151.217,253901.374,,43,credit.
screen,html.Screen,2_1_1_1_44,2022-02-15T15:58:39.607Z,,,,,,,,,,,,,,,,,54,,,,,,,,,,,,,,711.4260000119102,,response,,,,100,,,,,,,Space,keypress(Space),,,,,,,,-- --- ---- --- ------ ----- ------- ---- -- --- ------- --<br>------- ---------- ------ -- ----- -- ----- -- ---- ------<br>--- ----- --- --- ------ -------- ----- --- ------ ----- --<br>----- ----- ---------- --- --- ------ ------ ---- -- ------<br>------- The ------ ----- --- ---- ------- -- ---- --- --<br>------- ------,254614.90000000596,254612.80000001192,253884.709,253885,253901.374,254618.374,,44,The
screen,html.Screen,2_1_1_1_45,2022-02-15T15:58:40.511Z,,,,,,,,,,,,,,,,,54,,,,,,,,,,,,,,898.5260000059498,,response,,,,100,,,,,,,Space,keypress(Space),,,,,,,,-- --- ---- --- ------ ----- ------- ---- -- --- ------- --<br>------- ---------- ------ -- ----- -- ----- -- ---- ------<br>--- ----- --- --- ------ -------- ----- --- ------ ----- --<br>----- ----- ---------- --- --- ------ ------ ---- -- ------<br>------- --- French ----- --- ---- ------- -- ---- --- --<br>------- ------,255519,255516.90000000596,254601.709,254615.09999999404,254618.374,255535.355,,45,French
screen,html.Screen,2_1_1_1_46,2022-02-15T15:58:41.006Z,,,,,,,,,,,,,,,,,54,,,,,,,,,,,,,,476.04500000595,,response,,,,100,,,,,,,Space,keypress(Space),,,,,,,,-- --- ---- --- ------ ----- ------- ---- -- --- ------- --<br>------- ---------- ------ -- ----- -- ----- -- ---- ------<br>--- ----- --- --- ------ -------- ----- --- ------ ----- --<br>----- ----- ---------- --- --- ------ ------ ---- -- ------<br>------- --- ------ state --- ---- ------- -- ---- --- --<br>------- ------,256013.40000000596,256011.40000000596,255518.69,255519.19999998808,255535.355,256019.131,,46,state
screen,html.Screen,2_1_1_1_47,2022-02-15T15:58:41.352Z,,,,,,,,,,,,,,,,,54,,,,,,,,,,,,,,338.169000011927,,response,,,,100,,,,,,,Space,keypress(Space),,,,,,,,-- --- ---- --- ------ ----- ------- ---- -- --- ------- --<br>------- ---------- ------ -- ----- -- ----- -- ---- ------<br>--- ----- --- --- ------ -------- ----- --- ------ ----- --<br>----- ----- ---------- --- --- ------ ------ ---- -- ------<br>------- --- ------ ----- was ---- ------- -- ---- --- --<br>------- ------,256359.30000001192,256357.30000001192,256002.466,256014.19999998808,256019.131,256369.379,,47,was
screen,html.Screen,2_1_1_1_48,2022-02-15T15:58:42.203Z,,,,,,,,,,,,,,,,,54,,,,,,,,,,,,,,839.8209999880928,,response,,,,100,,,,,,,Space,keypress(Space),,,,,,,,-- --- ---- --- ------ ----- ------- ---- -- --- ------- --<br>------- ---------- ------ -- ----- -- ----- -- ---- ------<br>--- ----- --- --- ------ -------- ----- --- ------ ----- --<br>----- ----- ---------- --- --- ------ ------ ---- -- ------<br>------- --- ------ ----- --- left ------- -- ---- --- --<br>------- ------,257211.19999998808,257209.19999998808,256352.714,256359.59999999404,256369.379,257219.491,,48,left
screen,html.Screen,2_1_1_1_49,2022-02-15T15:58:42.860Z,,,,,,,,,,,,,,,,,54,,,,,,,,,,,,,,646.3090000119118,,response,,,,100,,,,,,,Space,keypress(Space),,,,,,,,-- --- ---- --- ------ ----- ------- ---- -- --- ------- --<br>------- ---------- ------ -- ----- -- ----- -- ---- ------<br>--- ----- --- --- ------ -------- ----- --- ------ ----- --<br>----- ----- ---------- --- --- ------ ------ ---- -- ------<br>------- --- ------ ----- --- ---- without -- ---- --- --<br>------- ------,257867.90000000596,257865.80000001192,257202.826,257211.40000000596,257219.491,257869.885,,49,without
screen,html.Screen,2_1_1_1_50,2022-02-15T15:58:43.524Z,,,,,,,,,,,,,,,,,54,,,,,,,,,,,,,,659.4150000119116,,response,,,,100,,,,,,,Space,keypress(Space),,,,,,,,-- --- ---- --- ------ ----- ------- ---- -- --- ------- --<br>------- ---------- ------ -- ----- -- ----- -- ---- ------<br>--- ----- --- --- ------ -------- ----- --- ------ ----- --<br>----- ----- ---------- --- --- ------ ------ ---- -- ------<br>------- --- ------ ----- --- ---- ------- an ---- --- --<br>------- ------,258531.40000000596,258529.30000001192,257853.22,257868.19999998808,257869.885,258536.852,,50,an
screen,html.Screen,2_1_1_1_51,2022-02-15T15:58:44.199Z,,,,,,,,,,,,,,,,,54,,,,,,,,,,,,,,668.048000005947,,response,,,,100,,,,,,,Space,keypress(Space),,,,,,,,-- --- ---- --- ------ ----- ------- ---- -- --- ------- --<br>------- ---------- ------ -- ----- -- ----- -- ---- ------<br>--- ----- --- --- ------ -------- ----- --- ------ ----- --<br>----- ----- ---------- --- --- ------ ------ ---- -- ------<br>------- --- ------ ----- --- ---- ------- -- easy --- --<br>------- ------,259207,259204.90000000596,258520.187,258531.59999999404,258536.852,259220.489,,51,easy
screen,html.Screen,2_1_1_1_52,2022-02-15T15:58:44.750Z,,,,,,,,,,,,,,,,,54,,,,,,,,,,,,,,533.2109999880777,,response,,,,100,,,,,,,Space,keypress(Space),,,,,,,,-- --- ---- --- ------ ----- ------- ---- -- --- ------- --<br>------- ---------- ------ -- ----- -- ----- -- ---- ------<br>--- ----- --- --- ------ -------- ----- --- ------ ----- --<br>----- ----- ---------- --- --- ------ ------ ---- -- ------<br>------- --- ------ ----- --- ---- ------- -- ---- way --<br>------- ------,259757.5,259753.69999998808,259203.824,259207.09999999404,259220.489,259770.795,,52,way
screen,html.Screen,2_1_1_1_53,2022-02-15T15:58:45.484Z,,,,,,,,,,,,,,,,,54,,,,,,,,,,,,,,719.0050000119081,,response,,,,100,,,,,,,Space,keypress(Space),,,,,,,,-- --- ---- --- ------ ----- ------- ---- -- --- ------- --<br>------- ---------- ------ -- ----- -- ----- -- ---- ------<br>--- ----- --- --- ------ -------- ----- --- ------ ----- --<br>----- ----- ---------- --- --- ------ ------ ---- -- ------<br>------- --- ------ ----- --- ---- ------- -- ---- --- of<br>------- ------,260491.80000001192,260489.80000001192,259754.13,259757.69999998808,259770.795,260504.369,,53,of
screen,html.Screen,2_1_1_1_54,2022-02-15T15:58:45.982Z,,,,,,,,,,,,,,,,,54,,,,,,,,,,,,,,483.13099999999395,,response,,,,100,,,,,,,Space,keypress(Space),,,,,,,,-- --- ---- --- ------ ----- ------- ---- -- --- ------- --<br>------- ---------- ------ -- ----- -- ----- -- ---- ------<br>--- ----- --- --- ------ -------- ----- --- ------ ----- --<br>----- ----- ---------- --- --- ------ ------ ---- -- ------<br>------- --- ------ ----- --- ---- ------- -- ---- --- --<br>raising ------,260989.90000000596,260987.5,260487.704,260492,260504.369,261004.714,,54,raising
screen,html.Screen,2_1_1_1_55,2022-02-15T15:58:46.691Z,,,,,,,,,,,,,,,,,54,,,,,,,,,,,,,,691.6860000059532,,response,,,,100,,,,,,,Space,keypress(Space),,,,,,,,-- --- ---- --- ------ ----- ------- ---- -- --- ------- --<br>------- ---------- ------ -- ----- -- ----- -- ---- ------<br>--- ----- --- --- ------ -------- ----- --- ------ ----- --<br>----- ----- ---------- --- --- ------ ------ ---- -- ------<br>------- --- ------ ----- --- ---- ------- -- ---- --- --<br>------- money.,261698.5,261696.40000000596,260988.049,260990,261004.714,261704.925,,55,money.
Item 100,flow.Loop,2_1_1_1,2022-02-15T15:58:46.691Z,,,,,,,,,,,,,,,,,,,,,,,,,,,,,,,36699.675000005955,,completion,,,,,A,,,,,,,,,,,silence,,,,,261698.90000000596,261696.40000000596,224980.06,224982.30000001192,224996.725,261704.925,,,
Question 1,html.Screen,2_1_1_2,2022-02-15T15:58:50.239Z,,,,,,,,,,,,,,,,,,,,,,,,,,,,true,TRUE,,3539.0750000000116,,response,,,,100,A,,,,,,TRUE,click #choice-1,,,,silence,,,,,265246.1999999881,265244,261688.26,261699.09999999404,261704.925,265248.294,,,
Question 2,html.Screen,2_1_1_3,2022-02-15T15:58:52.383Z,,,,,,,,,,,,,,,,,,,,,,,,,,,,true,FALSE,,2140.5060000119265,,response,,,,100,A,,,,,,FALSE,click #choice-2,,,,silence,,,,,267391,267388.8000000119,265231.629,265246.40000000596,265248.294,267399.491,,,
Item 100,flow.Sequence,2_1_1,2022-02-15T15:58:52.384Z,,,,,,,,,,,,,,,,,,,,,,,,,,,,,,,52396.20500001192,,completion,,,,,,,,,,,,,,,,,,,,,267391.3000000119,267388.8000000119,214975.93,214981.40000000596,214992.595,267399.491,,,
End of Practice,html.Page,2_1_2,2022-02-15T15:58:58.146Z,,,,,,,,,,,,,,,,,,,,,,,,,,,,,,,5752.9090000059805,,form submission,,,,,,,,,,,,,,,,,,,,,273153.6999999881,273152.40000000596,267382.826,267391.40000000596,267399.491,273167.838,,,
Practice,flow.Sequence,2_1,2022-02-15T15:58:58.147Z,,,,,,,,,,,,,,,,,,,,,,,,,,,,,,,114418.80000000595,,completion,,,,,,,,,,,,,,,,,,,,,273154.3000000119,273152.40000000596,158716.935,158724.30000001192,158733.6,273167.838,,,
Trap_instruction,html.Page,2_2_0,2022-02-15T15:59:02.447Z,,,,,,,,,,,,,,,,,,,,,,,,,,,,,,,4286.462000011932,,form submission,,,,,,,,,,,,,,,,,,,,,277455.09999999404,277454.3000000119,273134.508,273154.90000000596,273167.838,277543.227,,,
trap_trial,html.Screen,2_2_1,2022-02-15T15:59:06.617Z,,,,,,,,,,,,,,,,,,,,,,,,,,,,true,1,,4078.673000005947,,response,,,,,,,,,,,1,click #choice-1,,,,,,,,,281625,281621.90000000596,277443.237,277455.3000000119,277543.227,281636.679,,,
end of trap trial,html.Page,2_2_2,2022-02-15T15:59:09.522Z,,,,,,,,,,,,,,,,,,,,,,,,,,,,,,,2892.121000011917,,form submission,,,,,,,,,,,,,,,,,,,,,284529.59999999404,284528.8000000119,281620.014,281625.1999999881,281636.679,284539.359,,,
Trap 1,flow.Sequence,2_2,2022-02-15T15:59:09.522Z,,,,,,,,,,,,,,,,,,,,,,,,,,,,,,,11360.962000011932,,completion,,,,,,,,,,,,,,,,,,,,,284529.90000000596,284528.8000000119,273134.508,273154.6999999881,273167.838,284539.359,,,
Standby,html.Page,2_3_0,2022-02-15T15:59:17.525Z,,,,,,,,,,,,,,,,,,,,,,,,,,,,,,,8008.064000000013,,timeout,,,,,,,,,,,,,,,,,,,,,292532.6999999881,292530.758,284522.694,284530.09999999404,284539.359,292547.423,,,
Holding screen,html.Screen,2_3_1_0_0,2022-02-15T15:59:24.532Z,,,,,,,,,,,,,,,,,,,,,,,,,,,,,,,7006.572999999975,,timeout,,,,,,,,,,,,,,,,,,,,,299539.3000000119,299537.331,292530.758,292533.40000000596,292547.423,299553.996,,,
screen,html.Screen,2_3_1_0_1_0,2022-02-15T15:59:25.943Z,,,,,,,,,,,,,,,,,11,,,,,,,,,,,,,,1393.0040000000154,,response,,,,4,A,,,,,,Space,keypress(Space),,,,silence,,,,Known -- ---- --- -- --- -------- ------------ ---------- --<br>- ------- ------ --------- -- ------------ -- --- ---- -----<br>------ ---- ---- ------ ------ ------- --- ----- ---------<br>---- --- -------- -------- --- --- -- ------- --- --- -----<br>-- --- ------ ------- --- --- -------- ---- --------- --<br>---------- -- -------- ----------------,300950.90000000596,300947,299537.331,299539.90000000596,299553.996,300954.4,,0,Known
screen,html.Screen,2_3_1_0_1_1,2022-02-15T15:59:26.530Z,,,,,,,,,,,,,,,,,11,,,,,,,,,,,,,,581.4000000118976,,response,,,,4,A,,,,,,Space,keypress(Space),,,,silence,,,,----- as ---- --- -- --- -------- ------------ ---------- --<br>- ------- ------ --------- -- ------------ -- --- ---- -----<br>------ ---- ---- ------ ------ ------- --- ----- ---------<br>---- --- -------- -------- --- --- -- ------- --- --- -----<br>-- --- ------ ------- --- --- -------- ---- --------- --<br>---------- -- -------- ----------------,301538,301535.8000000119,300937.735,300951.09999999404,300954.4,301555.088,,1,as
screen,html.Screen,2_3_1_0_1_2,2022-02-15T15:59:26.926Z,,,,,,,,,,,,,,,,,11,,,,,,,,,,,,,,375.81200000597164,,response,,,,4,A,,,,,,Space,keypress(Space),,,,silence,,,,----- -- Rapa --- -- --- -------- ------------ ---------- --<br>- ------- ------ --------- -- ------------ -- --- ---- -----<br>------ ---- ---- ------ ------ ------- --- ----- ---------<br>---- --- -------- -------- --- --- -- ------- --- --- -----<br>-- --- ------ ------- --- --- -------- ---- --------- --<br>---------- -- -------- ----------------,301933.1999999881,301930.90000000596,301538.423,301538.09999999404,301555.088,301938.704,,2,Rapa
screen,html.Screen,2_3_1_0_1_3,2022-02-15T15:59:27.639Z,,,,,,,,,,,,,,,,,11,,,,,,,,,,,,,,704.9959999880521,,response,,,,4,A,,,,,,Space,keypress(Space),,,,silence,,,,----- -- ---- Nui -- --- -------- ------------ ---------- --<br>- ------- ------ --------- -- ------------ -- --- ---- -----<br>------ ---- ---- ------ ------ ------- --- ----- ---------<br>---- --- -------- -------- --- --- -- ------- --- --- -----<br>-- --- ------ ------- --- --- -------- ---- --------- --<br>---------- -- -------- ----------------,302646.6999999881,302643.6999999881,301922.039,301933.40000000596,301938.704,302655.529,,3,Nui
screen,html.Screen,2_3_1_0_1_4,2022-02-15T15:59:28.116Z,,,,,,,,,,,,,,,,,11,,,,,,,,,,,,,,465.47100000001956,,response,,,,4,A,,,,,,Space,keypress(Space),,,,silence,,,,----- -- ---- --- to --- -------- ------------ ---------- --<br>- ------- ------ --------- -- ------------ -- --- ---- -----<br>------ ---- ---- ------ ------ ------- --- ----- ---------<br>---- --- -------- -------- --- --- -- ------- --- --- -----<br>-- --- ------ ------- --- --- -------- ---- --------- --<br>---------- -- -------- ----------------,303123.40000000596,303121,302638.864,302646.8000000119,302655.529,303139.204,,4,to
screen,html.Screen,2_3_1_0_1_5,2022-02-15T15:59:28.444Z,,,,,,,,,,,,,,,,,11,,,,,,,,,,,,,,310.295999999973,,response,,,,4,A,,,,,,Space,keypress(Space),,,,silence,,,,----- -- ---- --- -- the -------- ------------ ---------- --<br>- ------- ------ --------- -- ------------ -- --- ---- -----<br>------ ---- ---- ------ ------ ------- --- ----- ---------<br>---- --- -------- -------- --- --- -- ------- --- --- -----<br>-- --- ------ ------- --- --- -------- ---- --------- --<br>---------- -- -------- ----------------,303451.59999999404,303449.5,303122.539,303123.6999999881,303139.204,303456.117,,5,the
screen,html.Screen,2_3_1_0_1_6,2022-02-15T15:59:28.908Z,,,,,,,,,,,,,,,,,11,,,,,,,,,,,,,,456.8829999999725,,response,,,,4,A,,,,,,Space,keypress(Space),,,,silence,,,,----- -- ---- --- -- --- island's ------------ ---------- --<br>- ------- ------ --------- -- ------------ -- --- ---- -----<br>------ ---- ---- ------ ------ ------- --- ----- ---------<br>---- --- -------- -------- --- --- -- ------- --- --- -----<br>-- --- ------ ------- --- --- -------- ---- --------- --<br>---------- -- -------- ----------------,303915.90000000596,303913,303439.452,303451.90000000596,303456.117,303922.911,,6,island's
screen,html.Screen,2_3_1_0_1_7,2022-02-15T15:59:30.039Z,,,,,,,,,,,,,,,,,11,,,,,,,,,,,,,,1121.2889999880572,,response,,,,4,A,,,,,,Space,keypress(Space),,,,silence,,,,"----- -- ---- --- -- --- -------- inhabitants, ---------- --<br>- ------- ------ --------- -- ------------ -- --- ---- -----<br>------ ---- ---- ------ ------ ------- --- ----- ---------<br>---- --- -------- -------- --- --- -- ------- --- --- -----<br>-- --- ------ ------- --- --- -------- ---- --------- --<br>---------- -- -------- ----------------",305046.90000000596,305044.1999999881,303906.246,303916,303922.911,305056.374,,7,"inhabitants,"
screen,html.Screen,2_3_1_0_1_8,2022-02-15T15:59:31.103Z,,,,,,,,,,,,,,,,,11,,,,,,,,,,,,,,1051.9260000119102,,response,,,,4,A,,,,,,Space,keypress(Space),,,,silence,,,,----- -- ---- --- -- --- -------- ------------ Rongorongo --<br>- ------- ------ --------- -- ------------ -- --- ---- -----<br>------ ---- ---- ------ ------ ------- --- ----- ---------<br>---- --- -------- -------- --- --- -- ------- --- --- -----<br>-- --- ------ ------- --- --- -------- ---- --------- --<br>---------- -- -------- ----------------,306111.09999999404,306108.3000000119,305039.709,305047.09999999404,305056.374,306115.307,,8,Rongorongo
screen,html.Screen,2_3_1_0_1_9,2022-02-15T15:59:31.510Z,,,,,,,,,,,,,,,,,11,,,,,,,,,,,,,,399.79299999406794,,response,,,,4,A,,,,,,Space,keypress(Space),,,,silence,,,,----- -- ---- --- -- --- -------- ------------ ---------- is<br>- ------- ------ --------- -- ------------ -- --- ---- -----<br>------ ---- ---- ------ ------ ------- --- ----- ---------<br>---- --- -------- -------- --- --- -- ------- --- --- -----<br>-- --- ------ ------- --- --- -------- ---- --------- --<br>---------- -- -------- ----------------,306517.3000000119,306515.09999999404,306098.642,306111.3000000119,306115.307,306524.164,,9,is
screen,html.Screen,2_3_1_0_1_10,2022-02-15T15:59:32.057Z,,,,,,,,,,,,,,,,,11,,,,,,,,,,,,,,537.7360000059707,,response,,,,4,A,,,,,,Space,keypress(Space),,,,silence,,,,----- -- ---- --- -- --- -------- ------------ ---------- --<br>a ------- ------ --------- -- ------------ -- --- ---- -----<br>------ ---- ---- ------ ------ ------- --- ----- ---------<br>---- --- -------- -------- --- --- -- ------- --- --- -----<br>-- --- ------ ------- --- --- -------- ---- --------- --<br>---------- -- -------- ----------------,307064.40000000596,307061.90000000596,306507.499,306517.5,306524.164,307065.947,,10,a
screen,html.Screen,2_3_1_0_1_11,2022-02-15T15:59:32.580Z,,,,,,,,,,,,,,,,,11,,,,,,,,,,,,,,518.9530000059749,,response,,,,4,A,,,,,,Space,keypress(Space),,,,silence,,,,----- -- ---- --- -- --- -------- ------------ ---------- --<br>- writing ------ --------- -- ------------ -- --- ---- -----<br>------ ---- ---- ------ ------ ------- --- ----- ---------<br>---- --- -------- -------- --- --- -- ------- --- --- -----<br>-- --- ------ ------- --- --- -------- ---- --------- --<br>---------- -- -------- ----------------,307588.09999999404,307584.90000000596,307049.282,307064.59999999404,307065.947,307599.52,,11,writing
screen,html.Screen,2_3_1_0_1_12,2022-02-15T15:59:33.250Z,,,,,,,,,,,,,,,,,11,,,,,,,,,,,,,,655.7800000119023,,response,,,,4,A,,,,,,Space,keypress(Space),,,,silence,,,,----- -- ---- --- -- --- -------- ------------ ---------- --<br>- ------- system --------- -- ------------ -- --- ---- -----<br>------ ---- ---- ------ ------ ------- --- ----- ---------<br>---- --- -------- -------- --- --- -- ------- --- --- -----<br>-- --- ------ ------- --- --- -------- ---- --------- --<br>---------- -- -------- ----------------,308257.6999999881,308255.3000000119,307582.855,307588.40000000596,307599.52,308266.412,,12,system
screen,html.Screen,2_3_1_0_1_13,2022-02-15T15:59:34.018Z,,,,,,,,,,,,,,,,,11,,,,,,,,,,,,,,757.4880000059493,,response,,,,4,A,,,,,,Space,keypress(Space),,,,silence,,,,----- -- ---- --- -- --- -------- ------------ ---------- --<br>- ------- ------ comprised -- ------------ -- --- ---- -----<br>------ ---- ---- ------ ------ ------- --- ----- ---------<br>---- --- -------- -------- --- --- -- ------- --- --- -----<br>-- --- ------ ------- --- --- -------- ---- --------- --<br>---------- -- -------- ----------------,309026,309023.90000000596,308249.747,308257.90000000596,308266.412,309033.38,,13,comprised
screen,html.Screen,2_3_1_0_1_14,2022-02-15T15:59:34.358Z,,,,,,,,,,,,,,,,,11,,,,,,,,,,,,,,329.61999999999534,,response,,,,4,A,,,,,,Space,keypress(Space),,,,silence,,,,----- -- ---- --- -- --- -------- ------------ ---------- --<br>- ------- ------ --------- of ------------ -- --- ---- -----<br>------ ---- ---- ------ ------ ------- --- ----- ---------<br>---- --- -------- -------- --- --- -- ------- --- --- -----<br>-- --- ------ ------- --- --- -------- ---- --------- --<br>---------- -- -------- ----------------,309365.5,309363,309016.715,309026.1999999881,309033.38,309367.1,,14,of
screen,html.Screen,2_3_1_0_1_15,2022-02-15T15:59:35.244Z,,,,,,,,,,,,,,,,,11,,,,,,,,,,,,,,882.4000000000233,,response,,,,4,A,,,,,,Space,keypress(Space),,,,silence,,,,----- -- ---- --- -- --- -------- ------------ ---------- --<br>- ------- ------ --------- -- pictographs. -- --- ---- -----<br>------ ---- ---- ------ ------ ------- --- ----- ---------<br>---- --- -------- -------- --- --- -- ------- --- --- -----<br>-- --- ------ ------- --- --- -------- ---- --------- --<br>---------- -- -------- ----------------,310252,310249.5,309350.435,309365.6999999881,309367.1,310267.185,,15,pictographs.
screen,html.Screen,2_3_1_0_1_16,2022-02-15T15:59:35.618Z,,,,,,,,,,,,,,,,,11,,,,,,,,,,,,,,356.5149999880814,,response,,,,4,A,,,,,,Space,keypress(Space),,,,silence,,,,----- -- ---- --- -- --- -------- ------------ ---------- --<br>- ------- ------ --------- -- ------------ It --- ---- -----<br>------ ---- ---- ------ ------ ------- --- ----- ---------<br>---- --- -------- -------- --- --- -- ------- --- --- -----<br>-- --- ------ ------- --- --- -------- ---- --------- --<br>---------- -- -------- ----------------,310626,310623.6999999881,310250.52,310252.09999999404,310267.185,310634.304,,16,It
screen,html.Screen,2_3_1_0_1_17,2022-02-15T15:59:35.877Z,,,,,,,,,,,,,,,,,11,,,,,,,,,,,,,,247.9960000119172,,response,,,,4,A,,,,,,Space,keypress(Space),,,,silence,,,,----- -- ---- --- -- --- -------- ------------ ---------- --<br>- ------- ------ --------- -- ------------ -- has ---- -----<br>------ ---- ---- ------ ------ ------- --- ----- ---------<br>---- --- -------- -------- --- --- -- ------- --- --- -----<br>-- --- ------ ------- --- --- -------- ---- --------- --<br>---------- -- -------- ----------------,310884.5,310882.3000000119,310617.639,310626.1999999881,310634.304,310901.168,,17,has
screen,html.Screen,2_3_1_0_1_18,2022-02-15T15:59:36.275Z,,,,,,,,,,,,,,,,,11,,,,,,,,,,,,,,378.53199998807395,,response,,,,4,A,,,,,,Space,keypress(Space),,,,silence,,,,----- -- ---- --- -- --- -------- ------------ ---------- --<br>- ------- ------ --------- -- ------------ -- --- been -----<br>------ ---- ---- ------ ------ ------- --- ----- ---------<br>---- --- -------- -------- --- --- -- ------- --- --- -----<br>-- --- ------ ------- --- --- -------- ---- --------- --<br>---------- -- -------- ----------------,311282.90000000596,311279.6999999881,310884.503,310884.6999999881,310901.168,311284.594,,18,been
screen,html.Screen,2_3_1_0_1_19,2022-02-15T15:59:36.834Z,,,,,,,,,,,,,,,,,11,,,,,,,,,,,,,,554.7060000119382,,response,,,,4,A,,,,,,Space,keypress(Space),,,,silence,,,,----- -- ---- --- -- --- -------- ------------ ---------- --<br>- ------- ------ --------- -- ------------ -- --- ---- found<br>------ ---- ---- ------ ------ ------- --- ----- ---------<br>---- --- -------- -------- --- --- -- ------- --- --- -----<br>-- --- ------ ------- --- --- -------- ---- --------- --<br>---------- -- -------- ----------------,311842.09999999404,311839.3000000119,311267.929,311283,311284.594,311851.437,,19,found
screen,html.Screen,2_3_1_0_1_20,2022-02-15T15:59:37.697Z,,,,,,,,,,,,,,,,,11,,,,,,,,,,,,,,850.1629999940633,,response,,,,4,A,,,,,,Space,keypress(Space),,,,silence,,,,----- -- ---- --- -- --- -------- ------------ ---------- --<br>- ------- ------ --------- -- ------------ -- --- ---- -----<br>carved ---- ---- ------ ------ ------- --- ----- ---------<br>---- --- -------- -------- --- --- -- ------- --- --- -----<br>-- --- ------ ------- --- --- -------- ---- --------- --<br>---------- -- -------- ----------------,312705.1999999881,312701.59999999404,311834.772,311842.3000000119,311851.437,312718.319,,20,carved
screen,html.Screen,2_3_1_0_1_21,2022-02-15T15:59:38.145Z,,,,,,,,,,,,,,,,,11,,,,,,,,,,,,,,431.48100001190323,,response,,,,4,A,,,,,,Space,keypress(Space),,,,silence,,,,----- -- ---- --- -- --- -------- ------------ ---------- --<br>- ------- ------ --------- -- ------------ -- --- ---- -----<br>------ into ---- ------ ------ ------- --- ----- ---------<br>---- --- -------- -------- --- --- -- ------- --- --- -----<br>-- --- ------ ------- --- --- -------- ---- --------- --<br>---------- -- -------- ----------------,313152.59999999404,313149.8000000119,312701.654,312705.3000000119,312718.319,313168.743,,21,into
screen,html.Screen,2_3_1_0_1_22,2022-02-15T15:59:38.715Z,,,,,,,,,,,,,,,,,11,,,,,,,,,,,,,,550.6570000059437,,response,,,,4,A,,,,,,Space,keypress(Space),,,,silence,,,,----- -- ---- --- -- --- -------- ------------ ---------- --<br>- ------- ------ --------- -- ------------ -- --- ---- -----<br>------ ---- many ------ ------ ------- --- ----- ---------<br>---- --- -------- -------- --- --- -- ------- --- --- -----<br>-- --- ------ ------- --- --- -------- ---- --------- --<br>---------- -- -------- ----------------,313722.90000000596,313719.40000000596,313152.078,313152.6999999881,313168.743,313735.609,,22,many
screen,html.Screen,2_3_1_0_1_23,2022-02-15T15:59:39.094Z,,,,,,,,,,,,,,,,,11,,,,,,,,,,,,,,363.39100000000326,,response,,,,4,A,,,,,,Space,keypress(Space),,,,silence,,,,----- -- ---- --- -- --- -------- ------------ ---------- --<br>- ------- ------ --------- -- ------------ -- --- ---- -----<br>------ ---- ---- oblong ------ ------- --- ----- ---------<br>---- --- -------- -------- --- --- -- ------- --- --- -----<br>-- --- ------ ------- --- --- -------- ---- --------- --<br>---------- -- -------- ----------------,314101.40000000596,314099,313718.944,313723,313735.609,314119.23,,23,oblong
screen,html.Screen,2_3_1_0_1_24,2022-02-15T15:59:39.561Z,,,,,,,,,,,,,,,,,11,,,,,,,,,,,,,,446.86999999405816,,response,,,,4,A,,,,,,Space,keypress(Space),,,,silence,,,,----- -- ---- --- -- --- -------- ------------ ---------- --<br>- ------- ------ --------- -- ------------ -- --- ---- -----<br>------ ---- ---- ------ wooden ------- --- ----- ---------<br>---- --- -------- -------- --- --- -- ------- --- --- -----<br>-- --- ------ ------- --- --- -------- ---- --------- --<br>---------- -- -------- ----------------,314568.5,314566.09999999404,314102.565,314101.8000000119,314119.23,314586.039,,24,wooden
screen,html.Screen,2_3_1_0_1_25,2022-02-15T15:59:40.197Z,,,,,,,,,,,,,,,,,11,,,,,,,,,,,,,,616.5609999940498,,response,,,,4,A,,,,,,Space,keypress(Space),,,,silence,,,,----- -- ---- --- -- --- -------- ------------ ---------- --<br>- ------- ------ --------- -- ------------ -- --- ---- -----<br>------ ---- ---- ------ ------ tablets --- ----- ---------<br>---- --- -------- -------- --- --- -- ------- --- --- -----<br>-- --- ------ ------- --- --- -------- ---- --------- --<br>---------- -- -------- ----------------,315204.8000000119,315202.59999999404,314569.374,314568.6999999881,314586.039,315219.584,,25,tablets
screen,html.Screen,2_3_1_0_1_26,2022-02-15T15:59:40.785Z,,,,,,,,,,,,,,,,,11,,,,,,,,,,,,,,570.316000005987,,response,,,,4,A,,,,,,Space,keypress(Space),,,,silence,,,,----- -- ---- --- -- --- -------- ------------ ---------- --<br>- ------- ------ --------- -- ------------ -- --- ---- -----<br>------ ---- ---- ------ ------ ------- and ----- ---------<br>---- --- -------- -------- --- --- -- ------- --- --- -----<br>-- --- ------ ------- --- --- -------- ---- --------- --<br>---------- -- -------- ----------------,315792.8000000119,315789.90000000596,315202.919,315205,315219.584,315803.208,,26,and
screen,html.Screen,2_3_1_0_1_27,2022-02-15T15:59:41.103Z,,,,,,,,,,,,,,,,,11,,,,,,,,,,,,,,304.59200001193676,,response,,,,4,A,,,,,,Space,keypress(Space),,,,silence,,,,----- -- ---- --- -- --- -------- ------------ ---------- --<br>- ------- ------ --------- -- ------------ -- --- ---- -----<br>------ ---- ---- ------ ------ ------- --- other ---------<br>---- --- -------- -------- --- --- -- ------- --- --- -----<br>-- --- ------ ------- --- --- -------- ---- --------- --<br>---------- -- -------- ----------------,316110.40000000596,316107.8000000119,315786.543,315793,315803.208,316120.16,,27,other
screen,html.Screen,2_3_1_0_1_28,2022-02-15T15:59:41.508Z,,,,,,,,,,,,,,,,,11,,,,,,,,,,,,,,393.64000001194654,,response,,,,4,A,,,,,,Space,keypress(Space),,,,silence,,,,----- -- ---- --- -- --- -------- ------------ ---------- --<br>- ------- ------ --------- -- ------------ -- --- ---- -----<br>------ ---- ---- ------ ------ ------- --- ----- artifacts<br>---- --- -------- -------- --- --- -- ------- --- --- -----<br>-- --- ------ ------- --- --- -------- ---- --------- --<br>---------- -- -------- ----------------,316516.09999999404,316513.8000000119,316103.495,316110.59999999404,316120.16,316520.309,,28,artifacts
screen,html.Screen,2_3_1_0_1_29,2022-02-15T15:59:42.045Z,,,,,,,,,,,,,,,,,11,,,,,,,,,,,,,,530.6909999999916,,response,,,,4,A,,,,,,Space,keypress(Space),,,,silence,,,,----- -- ---- --- -- --- -------- ------------ ---------- --<br>- ------- ------ --------- -- ------------ -- --- ---- -----<br>------ ---- ---- ------ ------ ------- --- ----- ---------<br>from --- -------- -------- --- --- -- ------- --- --- -----<br>-- --- ------ ------- --- --- -------- ---- --------- --<br>---------- -- -------- ----------------,317053,317051,316503.644,316516.3000000119,316520.309,317070.476,,29,from
screen,html.Screen,2_3_1_0_1_30,2022-02-15T15:59:42.651Z,,,,,,,,,,,,,,,,,11,,,,,,,,,,,,,,586.3240000118967,,response,,,,4,A,,,,,,Space,keypress(Space),,,,silence,,,,----- -- ---- --- -- --- -------- ------------ ---------- --<br>- ------- ------ --------- -- ------------ -- --- ---- -----<br>------ ---- ---- ------ ------ ------- --- ----- ---------<br>---- the -------- -------- --- --- -- ------- --- --- -----<br>-- --- ------ ------- --- --- -------- ---- --------- --<br>---------- -- -------- ----------------,317658.90000000596,317656.8000000119,317053.811,317053.09999999404,317070.476,317670.716,,30,the
screen,html.Screen,2_3_1_0_1_31,2022-02-15T15:59:43.097Z,,,,,,,,,,,,,,,,,11,,,,,,,,,,,,,,431.2839999999851,,response,,,,4,A,,,,,,Space,keypress(Space),,,,silence,,,,----- -- ---- --- -- --- -------- ------------ ---------- --<br>- ------- ------ --------- -- ------------ -- --- ---- -----<br>------ ---- ---- ------ ------ ------- --- ----- ---------<br>---- --- island's -------- --- --- -- ------- --- --- -----<br>-- --- ------ ------- --- --- -------- ---- --------- --<br>---------- -- -------- ----------------,318104.5,318102,317654.051,317659.09999999404,317670.716,318121.01,,31,island's
screen,html.Screen,2_3_1_0_1_32,2022-02-15T15:59:43.836Z,,,,,,,,,,,,,,,,,11,,,,,,,,,,,,,,720.2900000119116,,response,,,,4,A,,,,,,Space,keypress(Space),,,,silence,,,,----- -- ---- --- -- --- -------- ------------ ---------- --<br>- ------- ------ --------- -- ------------ -- --- ---- -----<br>------ ---- ---- ------ ------ ------- --- ----- ---------<br>---- --- -------- history. --- --- -- ------- --- --- -----<br>-- --- ------ ------- --- --- -------- ---- --------- --<br>---------- -- -------- ----------------,318843.8000000119,318841.3000000119,318104.345,318104.6999999881,318121.01,318854.495,,32,history.
screen,html.Screen,2_3_1_0_1_33,2022-02-15T15:59:44.380Z,,,,,,,,,,,,,,,,,11,,,,,,,,,,,,,,530.4050000059651,,response,,,,4,A,,,,,,Space,keypress(Space),,,,silence,,,,----- -- ---- --- -- --- -------- ------------ ---------- --<br>- ------- ------ --------- -- ------------ -- --- ---- -----<br>------ ---- ---- ------ ------ ------- --- ----- ---------<br>---- --- -------- -------- The --- -- ------- --- --- -----<br>-- --- ------ ------- --- --- -------- ---- --------- --<br>---------- -- -------- ----------------,319387.40000000596,319384.90000000596,318837.83,318844,318854.495,319404.869,,33,The
screen,html.Screen,2_3_1_0_1_34,2022-02-15T15:59:45.110Z,,,,,,,,,,,,,,,,,11,,,,,,,,,,,,,,710.7309999940335,,response,,,,4,A,,,,,,Space,keypress(Space),,,,silence,,,,----- -- ---- --- -- --- -------- ------------ ---------- --<br>- ------- ------ --------- -- ------------ -- --- ---- -----<br>------ ---- ---- ------ ------ ------- --- ----- ---------<br>---- --- -------- -------- --- art -- ------- --- --- -----<br>-- --- ------ ------- --- --- -------- ---- --------- --<br>---------- -- -------- ----------------,320117.59999999404,320115.59999999404,319388.204,319387.6999999881,319404.869,320121.751,,34,art
screen,html.Screen,2_3_1_0_1_35,2022-02-15T15:59:45.552Z,,,,,,,,,,,,,,,,,11,,,,,,,,,,,,,,435.7490000000107,,response,,,,4,A,,,,,,Space,keypress(Space),,,,silence,,,,----- -- ---- --- -- --- -------- ------------ ---------- --<br>- ------- ------ --------- -- ------------ -- --- ---- -----<br>------ ---- ---- ------ ------ ------- --- ----- ---------<br>---- --- -------- -------- --- --- of ------- --- --- -----<br>-- --- ------ ------- --- --- -------- ---- --------- --<br>---------- -- -------- ----------------,320560.1999999881,320557.5,320105.086,320117.8000000119,320121.751,320572.113,,35,of
screen,html.Screen,2_3_1_0_1_36,2022-02-15T15:59:46.226Z,,,,,,,,,,,,,,,,,11,,,,,,,,,,,,,,659.9869999940274,,response,,,,4,A,,,,,,Space,keypress(Space),,,,silence,,,,----- -- ---- --- -- --- -------- ------------ ---------- --<br>- ------- ------ --------- -- ------------ -- --- ---- -----<br>------ ---- ---- ------ ------ ------- --- ----- ---------<br>---- --- -------- -------- --- --- -- writing --- --- -----<br>-- --- ------ ------- --- --- -------- ---- --------- --<br>---------- -- -------- ----------------,321234.09999999404,321232.09999999404,320555.448,320560.40000000596,320572.113,321238.966,,36,writing
screen,html.Screen,2_3_1_0_1_37,2022-02-15T15:59:46.837Z,,,,,,,,,,,,,,,,,11,,,,,,,,,,,,,,601.2339999880642,,response,,,,4,A,,,,,,Space,keypress(Space),,,,silence,,,,----- -- ---- --- -- --- -------- ------------ ---------- --<br>- ------- ------ --------- -- ------------ -- --- ---- -----<br>------ ---- ---- ------ ------ ------- --- ----- ---------<br>---- --- -------- -------- --- --- -- ------- was --- -----<br>-- --- ------ ------- --- --- -------- ---- --------- --<br>---------- -- -------- ----------------,321845,321840.1999999881,321222.301,321234.3000000119,321238.966,321855.938,,37,was
screen,html.Screen,2_3_1_0_1_38,2022-02-15T15:59:47.433Z,,,,,,,,,,,,,,,,,11,,,,,,,,,,,,,,580.8620000118972,,response,,,,4,A,,,,,,Space,keypress(Space),,,,silence,,,,----- -- ---- --- -- --- -------- ------------ ---------- --<br>- ------- ------ --------- -- ------------ -- --- ---- -----<br>------ ---- ---- ------ ------ ------- --- ----- ---------<br>---- --- -------- -------- --- --- -- ------- --- not -----<br>-- --- ------ ------- --- --- -------- ---- --------- --<br>---------- -- -------- ----------------,322440.59999999404,322436.8000000119,321839.273,321845.1999999881,321855.938,322456.22,,38,not
screen,html.Screen,2_3_1_0_1_39,2022-02-15T15:59:48.164Z,,,,,,,,,,,,,,,,,11,,,,,,,,,,,,,,713.2800000000279,,response,,,,4,A,,,,,,Space,keypress(Space),,,,silence,,,,----- -- ---- --- -- --- -------- ------------ ---------- --<br>- ------- ------ --------- -- ------------ -- --- ---- -----<br>------ ---- ---- ------ ------ ------- --- ----- ---------<br>---- --- -------- -------- --- --- -- ------- --- --- known<br>-- --- ------ ------- --- --- -------- ---- --------- --<br>---------- -- -------- ----------------,323172,323169.5,322439.555,322440.8000000119,322456.22,323189.802,,39,known
