sender,sender_type,sender_id,timestamp,meta,,Blues,Classical,Country,Dance,Electronic,Folk,Gospel,Hip-Hop,Jazz,Latin,Musical/Film,New-age,Pop,Prolific_id,Provo_ID,R&B,Rap,Reggae,Religious,Rock,Soul,Swing,Traditional,age,artist_name,correct,correctResponse,distraction,duration,education,ended_on,familiarity,gender,headphone_check_performance,item,list,music_frequency,offensiveness,pleasantness,position_correct,preference,response,response_action,snippet_file,song_name,song_rating,sound,stimulus_1,stimulus_2,stimulus_3,text,time_commit,time_end,time_render,time_run,time_show,time_switch,url,word,word_ID
Prolific ID,html.Form,0,2022-02-04T13:59:47.139Z,"{""labjs_version"":""20.2.2"",""labjs_build"":{""flavor"":""production"",""commit"":""a25486e0c714a0ae2ce03ff94b7bb6896854dcfa""},""location"":""https://run.pavlovia.org/mvasilev/prolific2_music_d/"",""userAgent"":""Mozilla/5.0 (Windows NT 10.0; Win64; x64) AppleWebKit/537.36 (KHTML, like Gecko) Chrome/98.0.4758.82 Safari/537.36"",""platform"":""Win32"",""language"":""en-GB"",""locale"":""en-GB"",""timeZone"":""Europe/London"",""timezoneOffset"":0,""screen_width"":1280,""screen_height"":720,""scroll_width"":1280,""scroll_height"":561,""window_innerWidth"":1280,""window_innerHeight"":609,""devicePixelRatio"":1.5}",,,,,,,,,,,,,,,5e35373e1ddb124e6c306747,,,,,,,,,,,,,,,5271.910000004471,,form submission,,,,,,,,,,,,,,,,,,,,,50246.30000000447,50245.30000000447,44942.607,44950.60000000149,44973.39,50255.69,{},,
Introduction,html.Screen,1_0,2022-02-04T13:59:52.779Z,,,,,,,,,,,,,,,,,,,,,,,,,,,,,,,5626.309999999998,,response,,,,,,,,,,,continue,click button,,,,,,,,,55885.89999999851,55882,50239.24,50246.89999999851,50255.69,55887.732,,,
Volume calibration,html.Screen,1_1,2022-02-04T14:00:08.997Z,,,,,,,,,,,,,,,,,,,,,,,,,,,,,,,16214.767999999996,,response,,,,,,,,,,,continue,click button,,,,,,,,,72103.80000000447,72102.5,55871.094,55886,55887.732,72117.667,,,
Task instructions,html.Screen,1_2,2022-02-04T14:00:19.673Z,,,,,,,,,,,,,,,,,,,,,,,,,,,,,,,10661.732999998509,,response,,,,,,,,,,,continue,click button,,,,,,,,,82780.39999999851,82779.39999999851,72101.014,72104,72117.667,82782.032,,,
Sounds,html.Screen,1_3_0_0,2022-02-04T14:00:23.912Z,,,,,,,,,,,,,,,,,,,,,,,,,,,,,,,4249.526999999987,,timeout,,,,,,,,,2,,,,,,,,O,S,I,,87018.80000000447,87014.521,82765.712,82780.60000000149,82782.032,87031.559,,,
Judgement,html.Screen,1_3_0_1,2022-02-04T14:00:26.695Z,,,,,,,,,,,,,,,,,,,,,,,,,,,,true,2,,2768.941000000006,,response,,,,,,,,,2,,2,click #choice-2,,,,,O,S,I,,89801.89999999851,89800.5,87014.521,87019,87031.559,89814.144,,,
Trial,flow.Sequence,1_3_0,2022-02-04T14:00:26.695Z,,,,,,,,,,,,,,,,,,,,,,,,,,,,,,,7018.4679999999935,,completion,,,,,,,,,2,,,,,,,,O,S,I,,89802.30000000447,89800.5,82765.712,82780.60000000149,82782.032,89814.144,,,
Sounds,html.Screen,1_3_1_0,2022-02-04T14:00:30.941Z,,,,,,,,,,,,,,,,,,,,,,,,,,,,,,,4248.949999999997,,timeout,,,,,,,,,3,,,,,,,,I,O,S,,94047.89999999851,94046.853,89797.447,89802.80000000447,89814.144,94063.094,,,
Judgement,html.Screen,1_3_1_1,2022-02-04T14:00:32.092Z,,,,,,,,,,,,,,,,,,,,,,,,,,,,true,3,,1134.0060000014928,,response,,,,,,,,,3,,3,click #choice-3,,,,,I,O,S,,95198.70000000298,95197.10000000149,94046.853,94048.10000000149,94063.094,95213.127,,,
Trial,flow.Sequence,1_3_1,2022-02-04T14:00:32.092Z,,,,,,,,,,,,,,,,,,,,,,,,,,,,,,,5382.95600000149,,completion,,,,,,,,,3,,,,,,,,I,O,S,,95199.10000000149,95197.10000000149,89797.447,89802.5,89814.144,95213.127,,,
Sounds,html.Screen,1_3_2_0,2022-02-04T14:00:36.339Z,,,,,,,,,,,,,,,,,,,,,,,,,,,,,,,4248.906000000003,,timeout,,,,,,,,,3,,,,,,,,O,I,S,,99446.5,99445.356,95196.452,95199.30000000447,95213.127,99462.033,,,
Judgement,html.Screen,1_3_2_1,2022-02-04T14:00:37.328Z,,,,,,,,,,,,,,,,,,,,,,,,,,,,true,3,,972.0670000014943,,response,,,,,,,,,3,,3,click #choice-3,,,,,O,I,S,,100435.20000000298,100434.10000000149,99445.356,99446.80000000447,99462.033,100445.421,,,
Trial,flow.Sequence,1_3_2,2022-02-04T14:00:37.329Z,,,,,,,,,,,,,,,,,,,,,,,,,,,,,,,5220.973000001497,,completion,,,,,,,,,3,,,,,,,,O,I,S,,100435.5,100434.10000000149,95196.452,95199.20000000298,95213.127,100445.421,,,
Sounds,html.Screen,1_3_3_0,2022-02-04T14:00:41.572Z,,,,,,,,,,,,,,,,,,,,,,,,,,,,,,,4248.622000000003,,timeout,,,,,,,,,1,,,,,,,,S,O,I,,104678.5,104677.427,100428.287,100435.70000000298,100445.421,104694.043,,,
Judgement,html.Screen,1_3_3_1,2022-02-04T14:00:42.848Z,,,,,,,,,,,,,,,,,,,,,,,,,,,,true,1,,1260.3569999985048,,response,,,,,,,,,1,,1,click #choice-1,,,,,S,O,I,,105955.39999999851,105954.39999999851,104677.427,104678.70000000298,104694.043,105960.449,,,
Trial,flow.Sequence,1_3_3,2022-02-04T14:00:42.849Z,,,,,,,,,,,,,,,,,,,,,,,,,,,,,,,5508.978999998508,,completion,,,,,,,,,1,,,,,,,,S,O,I,,105955.5,105954.39999999851,100428.287,100435.60000000149,100445.421,105960.449,,,
Sounds,html.Screen,1_3_4_0,2022-02-04T14:00:47.087Z,,,,,,,,,,,,,,,,,,,,,,,,,,,,,,,4249.234000000011,,timeout,,,,,,,,,1,,,,,,,,S,I,O,,110193.89999999851,110192.936,105944.182,105955.70000000298,105960.449,110209.683,,,
Judgement,html.Screen,1_3_4_1,2022-02-04T14:00:49.575Z,,,,,,,,,,,,,,,,,,,,,,,,,,,,true,1,,2471.3169999999955,,response,,,,,,,,,1,,1,click #choice-1,,,,,S,I,O,,112682.20000000298,112681,110192.936,110194,110209.683,112692.528,,,
Trial,flow.Sequence,1_3_4,2022-02-04T14:00:49.575Z,,,,,,,,,,,,,,,,,,,,,,,,,,,,,,,6720.551000000007,,completion,,,,,,,,,1,,,,,,,,S,I,O,,112682.39999999851,112681,105944.182,105955.70000000298,105960.449,112692.528,,,
Sounds,html.Screen,1_3_5_0,2022-02-04T14:00:53.819Z,,,,,,,,,,,,,,,,,,,,,,,,,,,,,,,4249.273000000001,,timeout,,,,,,,,,2,,,,,,,,I,S,O,,116926.30000000447,116925.162,112675.87,112682.60000000149,112692.528,116941.801,,,
Judgement,html.Screen,1_3_5_1,2022-02-04T14:00:54.792Z,,,,,,,,,,,,,,,,,,,,,,,,,,,,true,2,,956.3990000029735,,response,,,,,,,,,2,,2,click #choice-2,,,,,I,S,O,,117899.20000000298,117898.20000000298,116925.162,116926.5,116941.801,117907.88,,,
Trial,flow.Sequence,1_3_5,2022-02-04T14:00:54.792Z,,,,,,,,,,,,,,,,,,,,,,,,,,,,,,,5205.6720000029745,,completion,,,,,,,,,2,,,,,,,,I,S,O,,117899.30000000447,117898.20000000298,112675.87,112682.5,112692.528,117907.88,,,
Task,flow.Loop,1_3,2022-02-04T14:00:54.798Z,,,,,,,,,,,,,,,,,,,,,,,,,,,,,,,35116.168000002974,,completion,,,1,,,,,,,,,,,,,,,,,,117904.70000000298,117898.20000000298,82765.712,82780.5,82782.032,117907.88,,,
Trap,html.Screen,1_4,2022-02-04T14:00:54.799Z,,,,,,,,,,,,,,,,,,,,,,,,,,,,,,,NaN,,skipped,,,,,,,,,,,,,,,,,,,,,117905.70000000298,117898.20000000298,,117905.60000000149,,117907.88,,,
Thanks,html.Screen,1_5,2022-02-04T14:00:58.670Z,,,,,,,,,,,,,,,,,,,,,,,,,,,,,,,3867.3200000029756,,response,,,,,,,,,,,continue,click button,,,,,,,,,121776.80000000447,121775.20000000298,117891.657,117905.80000000447,117907.88,125656.214,,,
Headphone screening,flow.Sequence,1,2022-02-04T14:00:58.670Z,,,,,,,,,,,,,,,,,,,,,,,,,,,,,,,71519.51000000298,,completion,,,,,,,,,,,,,,,,,,,,,121777,121775.20000000298,50239.24,50246.80000000447,50255.69,125656.214,,,
Instructions,html.Page,2_0,2022-02-04T14:01:11.033Z,,,,,,,,,,,,,,,,,,,,,,,,,,,,,,,8482.886000001483,,form submission,,,,,,,,,,,,,,,,,,,,,134139.5,134139.1000000015,125639.704,125654.89999999851,125656.214,134154.458,,,
Holding screen,html.Screen,2_1_0_0,2022-02-04T14:01:21.031Z,,,,,,,,,,,,,,,,,,,,,,,,,,,,,,,10014.548999999999,,timeout,,,,,,,,,,,,,,,,,,,,,144137.8999999985,144135.795,134138.009,134139.80000000447,134154.458,144169.007,,,
screen,html.Screen,2_1_0_1_0,2022-02-04T14:01:23.153Z,,,,,,,,,,,,,,,,,53,,,,,,,,,,,,,,2086.793000004458,,response,,,,99,,,,,,,Space,keypress(Space),,,,,,,,When -- ----- -- ------ - ------- --- ----------<br>------------- ------ ------ ---- ---- ------- ----- -- ----<br>-------- ------- -- ---------- --- - --- ----- ----- ----<br>---- --- --- ----- --- ---- ---- ------- ----- ---- -------<br>--- --- -- ----- -- --- ---- -- --- ---- -- ------ ------<br>--- ----- -- ----,146259.70000000298,146255.80000000447,144135.795,144138.1000000015,144169.007,146268.686,,0,When
screen,html.Screen,2_1_0_1_1,2022-02-04T14:01:23.905Z,,,,,,,,,,,,,,,,,53,,,,,,,,,,,,,,741.7139999985229,,response,,,,99,,,,,,,Space,keypress(Space),,,,,,,,---- it ----- -- ------ - ------- --- ----------<br>------------- ------ ------ ---- ---- ------- ----- -- ----<br>-------- ------- -- ---------- --- - --- ----- ----- ----<br>---- --- --- ----- --- ---- ---- ------- ----- ---- -------<br>--- --- -- ----- -- --- ---- -- --- ---- -- ------ ------<br>--- ----- -- ----,147011.1000000015,147010.3999999985,146252.403,146259.80000000447,146268.686,147018.466,,1,it
screen,html.Screen,2_1_0_1_2,2022-02-04T14:01:24.388Z,,,,,,,,,,,,,,,,,53,,,,,,,,,,,,,,475.5340000000142,,response,,,,99,,,,,,,Space,keypress(Space),,,,,,,,---- -- comes -- ------ - ------- --- ----------<br>------------- ------ ------ ---- ---- ------- ----- -- ----<br>-------- ------- -- ---------- --- - --- ----- ----- ----<br>---- --- --- ----- --- ---- ---- ------- ----- ---- -------<br>--- --- -- ----- -- --- ---- -- --- ---- -- ------ ------<br>--- ----- -- ----,147494.70000000298,147494,147001.986,147011.30000000447,147018.466,147502.016,,2,comes
screen,html.Screen,2_1_0_1_3,2022-02-04T14:01:24.828Z,,,,,,,,,,,,,,,,,53,,,,,,,,,,,,,,431.7840000044671,,response,,,,99,,,,,,,Space,keypress(Space),,,,,,,,---- -- ----- to ------ - ------- --- ----------<br>------------- ------ ------ ---- ---- ------- ----- -- ----<br>-------- ------- -- ---------- --- - --- ----- ----- ----<br>---- --- --- ----- --- ---- ---- ------- ----- ---- -------<br>--- --- -- ----- -- --- ---- -- --- ---- -- ------ ------<br>--- ----- -- ----,147934.6000000015,147933.80000000447,147485.338,147494.80000000447,147502.016,147968.615,,3,to
screen,html.Screen,2_1_0_1_4,2022-02-04T14:01:25.423Z,,,,,,,,,,,,,,,,,53,,,,,,,,,,,,,,560.1850000044797,,response,,,,99,,,,,,,Space,keypress(Space),,,,,,,,---- -- ----- -- having - ------- --- ----------<br>------------- ------ ------ ---- ---- ------- ----- -- ----<br>-------- ------- -- ---------- --- - --- ----- ----- ----<br>---- --- --- ----- --- ---- ---- ------- ----- ---- -------<br>--- --- -- ----- -- --- ---- -- --- ---- -- ------ ------<br>--- ----- -- ----,148529.6000000015,148528.80000000447,147951.587,147934.70000000298,147968.615,148534.726,,4,having
screen,html.Screen,2_1_0_1_5,2022-02-04T14:01:25.854Z,,,,,,,,,,,,,,,,,53,,,,,,,,,,,,,,425.57400000447524,,response,,,,99,,,,,,,Space,keypress(Space),,,,,,,,---- -- ----- -- ------ a ------- --- ----------<br>------------- ------ ------ ---- ---- ------- ----- -- ----<br>-------- ------- -- ---------- --- - --- ----- ----- ----<br>---- --- --- ----- --- ---- ---- ------- ----- ---- -------<br>--- --- -- ----- -- --- ---- -- --- ---- -- ------ ------<br>--- ----- -- ----,148961,148960.30000000447,148518.401,148529.80000000447,148534.726,148968.11,,5,a
screen,html.Screen,2_1_0_1_6,2022-02-04T14:01:26.372Z,,,,,,,,,,,,,,,,,53,,,,,,,,,,,,,,509.5900000029942,,response,,,,99,,,,,,,Space,keypress(Space),,,,,,,,---- -- ----- -- ------ - lasting --- ----------<br>------------- ------ ------ ---- ---- ------- ----- -- ----<br>-------- ------- -- ---------- --- - --- ----- ----- ----<br>---- --- --- ----- --- ---- ---- ------- ----- ---- -------<br>--- --- -- ----- -- --- ---- -- --- ---- -- ------ ------<br>--- ----- -- ----,149478.5,149477.70000000298,148951.403,148961.1000000015,148968.11,149484.642,,6,lasting
screen,html.Screen,2_1_0_1_7,2022-02-04T14:01:26.648Z,,,,,,,,,,,,,,,,,53,,,,,,,,,,,,,,269.5580000029877,,response,,,,99,,,,,,,Space,keypress(Space),,,,,,,,---- -- ----- -- ------ - ------- and ----------<br>------------- ------ ------ ---- ---- ------- ----- -- ----<br>-------- ------- -- ---------- --- - --- ----- ----- ----<br>---- --- --- ----- --- ---- ---- ------- ----- ---- -------<br>--- --- -- ----- -- --- ---- -- --- ---- -- ------ ------<br>--- ----- -- ----,149755,149754.20000000298,149468.216,149478.6000000015,149484.642,149767.833,,7,and
screen,html.Screen,2_1_0_1_8,2022-02-04T14:01:27.089Z,,,,,,,,,,,,,,,,,53,,,,,,,,,,,,,,426.86700000296696,,response,,,,99,,,,,,,Space,keypress(Space),,,,,,,,---- -- ----- -- ------ - ------- --- fulfilling<br>------------- ------ ------ ---- ---- ------- ----- -- ----<br>-------- ------- -- ---------- --- - --- ----- ----- ----<br>---- --- --- ----- --- ---- ---- ------- ----- ---- -------<br>--- --- -- ----- -- --- ---- -- --- ---- -- ------ ------<br>--- ----- -- ----,150195.5,150194.70000000298,149751.246,149755.20000000298,149767.833,150201.125,,8,fulfilling
screen,html.Screen,2_1_0_1_9,2022-02-04T14:01:27.753Z,,,,,,,,,,,,,,,,,53,,,,,,,,,,,,,,658.2749999985099,,response,,,,99,,,,,,,Space,keypress(Space),,,,,,,,"---- -- ----- -- ------ - ------- --- ----------<br>relationship, ------ ------ ---- ---- ------- ----- -- ----<br>-------- ------- -- ---------- --- - --- ----- ----- ----<br>---- --- --- ----- --- ---- ---- ------- ----- ---- -------<br>--- --- -- ----- -- --- ---- -- --- ---- -- ------ ------<br>--- ----- -- ----",150860,150859.3999999985,150184.76,150195.6000000015,150201.125,150867.627,,9,"relationship,"
screen,html.Screen,2_1_0_1_10,2022-02-04T14:01:28.295Z,,,,,,,,,,,,,,,,,53,,,,,,,,,,,,,,533.5730000029725,,response,,,,99,,,,,,,Space,keypress(Space),,,,,,,,---- -- ----- -- ------ - ------- --- ----------<br>------------- common ------ ---- ---- ------- ----- -- ----<br>-------- ------- -- ---------- --- - --- ----- ----- ----<br>---- --- --- ----- --- ---- ---- ------- ----- ---- -------<br>--- --- -- ----- -- --- ---- -- --- ---- -- ------ ------<br>--- ----- -- ----,151402,151401.20000000298,150851.23,150860.1000000015,150867.627,151417.618,,10,common
screen,html.Screen,2_1_0_1_11,2022-02-04T14:01:29.120Z,,,,,,,,,,,,,,,,,53,,,,,,,,,,,,,,808.6820000044827,,response,,,,99,,,,,,,Space,keypress(Space),,,,,,,,---- -- ----- -- ------ - ------- --- ----------<br>------------- ------ wisdom ---- ---- ------- ----- -- ----<br>-------- ------- -- ---------- --- - --- ----- ----- ----<br>---- --- --- ----- --- ---- ---- ------- ----- ---- -------<br>--- --- -- ----- -- --- ---- -- --- ---- -- ------ ------<br>--- ----- -- ----,152227,152226.30000000447,151401.259,151402.1000000015,151417.618,152234.309,,11,wisdom
screen,html.Screen,2_1_0_1_12,2022-02-04T14:01:29.428Z,,,,,,,,,,,,,,,,,53,,,,,,,,,,,,,,299.0909999985015,,response,,,,99,,,,,,,Space,keypress(Space),,,,,,,,---- -- ----- -- ------ - ------- --- ----------<br>------------- ------ ------ says ---- ------- ----- -- ----<br>-------- ------- -- ---------- --- - --- ----- ----- ----<br>---- --- --- ----- --- ---- ---- ------- ----- ---- -------<br>--- --- -- ----- -- --- ---- -- --- ---- -- ------ ------<br>--- ----- -- ----,152534.20000000298,152533.3999999985,152217.659,152227.30000000447,152234.309,152550.945,,12,says
screen,html.Screen,2_1_0_1_13,2022-02-04T14:01:29.879Z,,,,,,,,,,,,,,,,,53,,,,,,,,,,,,,,433.25500000297325,,response,,,,99,,,,,,,Space,keypress(Space),,,,,,,,---- -- ----- -- ------ - ------- --- ----------<br>------------- ------ ------ ---- that ------- ----- -- ----<br>-------- ------- -- ---------- --- - --- ----- ----- ----<br>---- --- --- ----- --- ---- ---- ------- ----- ---- -------<br>--- --- -- ----- -- --- ---- -- --- ---- -- ------ ------<br>--- ----- -- ----,152985.20000000298,152984.20000000298,152533.915,152534.3999999985,152550.945,153000.912,,13,that
screen,html.Screen,2_1_0_1_14,2022-02-04T14:01:30.220Z,,,,,,,,,,,,,,,,,53,,,,,,,,,,,,,,325.28800000296906,,response,,,,99,,,,,,,Space,keypress(Space),,,,,,,,---- -- ----- -- ------ - ------- --- ----------<br>------------- ------ ------ ---- ---- feeling ----- -- ----<br>-------- ------- -- ---------- --- - --- ----- ----- ----<br>---- --- --- ----- --- ---- ---- ------- ----- ---- -------<br>--- --- -- ----- -- --- ---- -- --- ---- -- ------ ------<br>--- ----- -- ----,153327,153326.20000000298,152984.342,152985.30000000447,153000.912,153334.04,,14,feeling
screen,html.Screen,2_1_0_1_15,2022-02-04T14:01:30.590Z,,,,,,,,,,,,,,,,,53,,,,,,,,,,,,,,362.06000000148197,,response,,,,99,,,,,,,Space,keypress(Space),,,,,,,,---- -- ----- -- ------ - ------- --- ----------<br>------------- ------ ------ ---- ---- ------- close -- ----<br>-------- ------- -- ---------- --- - --- ----- ----- ----<br>---- --- --- ----- --- ---- ---- ------- ----- ---- -------<br>--- --- -- ----- -- --- ---- -- --- ---- -- ------ ------<br>--- ----- -- ----,153696.80000000447,153696.1000000015,153317.475,153327,153334.04,153700.315,,15,close
screen,html.Screen,2_1_0_1_16,2022-02-04T14:01:31.029Z,,,,,,,,,,,,,,,,,53,,,,,,,,,,,,,,434.58499999850756,,response,,,,99,,,,,,,Space,keypress(Space),,,,,,,,---- -- ----- -- ------ - ------- --- ----------<br>------------- ------ ------ ---- ---- ------- ----- to ----<br>-------- ------- -- ---------- --- - --- ----- ----- ----<br>---- --- --- ----- --- ---- ---- ------- ----- ---- -------<br>--- --- -- ----- -- --- ---- -- --- ---- -- ------ ------<br>--- ----- -- ----,154135.70000000298,154134.8999999985,153684.038,153697,153700.315,154150.564,,16,to
screen,html.Screen,2_1_0_1_17,2022-02-04T14:01:31.484Z,,,,,,,,,,,,,,,,,53,,,,,,,,,,,,,,439.7360000044573,,response,,,,99,,,,,,,Space,keypress(Space),,,,,,,,---- -- ----- -- ------ - ------- --- ----------<br>------------- ------ ------ ---- ---- ------- ----- -- your<br>-------- ------- -- ---------- --- - --- ----- ----- ----<br>---- --- --- ----- --- ---- ---- ------- ----- ---- -------<br>--- --- -- ----- -- --- ---- -- --- ---- -- ------ ------<br>--- ----- -- ----,154591,154590.30000000447,154133.879,154135.8999999985,154150.564,154600.435,,17,your
screen,html.Screen,2_1_0_1_18,2022-02-04T14:01:31.812Z,,,,,,,,,,,,,,,,,53,,,,,,,,,,,,,,317.66500000149244,,response,,,,99,,,,,,,Space,keypress(Space),,,,,,,,---- -- ----- -- ------ - ------- --- ----------<br>------------- ------ ------ ---- ---- ------- ----- -- ----<br>romantic ------- -- ---------- --- - --- ----- ----- ----<br>---- --- --- ----- --- ---- ---- ------- ----- ---- -------<br>--- --- -- ----- -- --- ---- -- --- ---- -- ------ ------<br>--- ----- -- ----,154918.8999999985,154918.1000000015,154583.569,154591.1000000015,154600.435,154933.416,,18,romantic
screen,html.Screen,2_1_0_1_19,2022-02-04T14:01:32.068Z,,,,,,,,,,,,,,,,,53,,,,,,,,,,,,,,240.68400000149268,,response,,,,99,,,,,,,Space,keypress(Space),,,,,,,,---- -- ----- -- ------ - ------- --- ----------<br>------------- ------ ------ ---- ---- ------- ----- -- ----<br>-------- partner -- ---------- --- - --- ----- ----- ----<br>---- --- --- ----- --- ---- ---- ------- ----- ---- -------<br>--- --- -- ----- -- --- ---- -- --- ---- -- ------ ------<br>--- ----- -- ----,155174.80000000447,155174.1000000015,154917.163,154919.20000000298,154933.416,155183.668,,19,partner
screen,html.Screen,2_1_0_1_20,2022-02-04T14:01:32.281Z,,,,,,,,,,,,,,,,,53,,,,,,,,,,,,,,203.73199999850476,,response,,,,99,,,,,,,Space,keypress(Space),,,,,,,,---- -- ----- -- ------ - ------- --- ----------<br>------------- ------ ------ ---- ---- ------- ----- -- ----<br>-------- ------- is ---------- --- - --- ----- ----- ----<br>---- --- --- ----- --- ---- ---- ------- ----- ---- -------<br>--- --- -- ----- -- --- ---- -- --- ---- -- ------ ------<br>--- ----- -- ----,155388.1000000015,155387.3999999985,155166.813,155174.8999999985,155183.668,155400.108,,20,is
screen,html.Screen,2_1_0_1_21,2022-02-04T14:01:33.399Z,,,,,,,,,,,,,,,,,53,,,,,,,,,,,,,,1104.3919999999925,,response,,,,99,,,,,,,Space,keypress(Space),,,,,,,,---- -- ----- -- ------ - ------- --- ----------<br>------------- ------ ------ ---- ---- ------- ----- -- ----<br>-------- ------- -- paramount. --- - --- ----- ----- ----<br>---- --- --- ----- --- ---- ---- ------- ----- ---- -------<br>--- --- -- ----- -- --- ---- -- --- ---- -- ------ ------<br>--- ----- -- ----,156505.20000000298,156504.5,155383.804,155388.20000000298,155400.108,156516.422,,21,paramount.
screen,html.Screen,2_1_0_1_22,2022-02-04T14:01:33.887Z,,,,,,,,,,,,,,,,,53,,,,,,,,,,,,,,476.67800000149873,,response,,,,99,,,,,,,Space,keypress(Space),,,,,,,,---- -- ----- -- ------ - ------- --- ----------<br>------------- ------ ------ ---- ---- ------- ----- -- ----<br>-------- ------- -- ---------- But - --- ----- ----- ----<br>---- --- --- ----- --- ---- ---- ------- ----- ---- -------<br>--- --- -- ----- -- --- ---- -- --- ---- -- ------ ------<br>--- ----- -- ----,156993.8999999985,156993.1000000015,156499.961,156505.30000000447,156516.422,156999.668,,22,But
screen,html.Screen,2_1_0_1_23,2022-02-04T14:01:34.312Z,,,,,,,,,,,,,,,,,53,,,,,,,,,,,,,,418.0320000029751,,response,,,,99,,,,,,,Space,keypress(Space),,,,,,,,---- -- ----- -- ------ - ------- --- ----------<br>------------- ------ ------ ---- ---- ------- ----- -- ----<br>-------- ------- -- ---------- --- a --- ----- ----- ----<br>---- --- --- ----- --- ---- ---- ------- ----- ---- -------<br>--- --- -- ----- -- --- ---- -- --- ---- -- ------ ------<br>--- ----- -- ----,157418.6000000015,157417.70000000298,156983.372,156994,156999.668,157433.23,,23,a
screen,html.Screen,2_1_0_1_24,2022-02-04T14:01:34.519Z,,,,,,,,,,,,,,,,,53,,,,,,,,,,,,,,191.37000000147964,,response,,,,99,,,,,,,Space,keypress(Space),,,,,,,,---- -- ----- -- ------ - ------- --- ----------<br>------------- ------ ------ ---- ---- ------- ----- -- ----<br>-------- ------- -- ---------- --- - new ----- ----- ----<br>---- --- --- ----- --- ---- ---- ------- ----- ---- -------<br>--- --- -- ----- -- --- ---- -- --- ---- -- ------ ------<br>--- ----- -- ----,157625.20000000298,157624.6000000015,157416.566,157418.80000000447,157433.23,157633.11,,24,new
screen,html.Screen,2_1_0_1_25,2022-02-04T14:01:34.657Z,,,,,,,,,,,,,,,,,53,,,,,,,,,,,,,,129.78999999852385,,response,,,,99,,,,,,,Space,keypress(Space),,,,,,,,---- -- ----- -- ------ - ------- --- ----------<br>------------- ------ ------ ---- ---- ------- ----- -- ----<br>-------- ------- -- ---------- --- - --- study ----- ----<br>---- --- --- ----- --- ---- ---- ------- ----- ---- -------<br>--- --- -- ----- -- --- ---- -- --- ---- -- ------ ------<br>--- ----- -- ----,157763.6000000015,157762.8999999985,157616.215,157625.30000000447,157633.11,157766.148,,25,study
screen,html.Screen,2_1_0_1_26,2022-02-04T14:01:35.135Z,,,,,,,,,,,,,,,,,53,,,,,,,,,,,,,,474.8520000000135,,response,,,,99,,,,,,,Space,keypress(Space),,,,,,,,---- -- ----- -- ------ - ------- --- ----------<br>------------- ------ ------ ---- ---- ------- ----- -- ----<br>-------- ------- -- ---------- --- - --- ----- finds ----<br>---- --- --- ----- --- ---- ---- ------- ----- ---- -------<br>--- --- -- ----- -- --- ---- -- --- ---- -- ------ ------<br>--- ----- -- ----,158241.80000000447,158241,157749.483,157763.70000000298,157766.148,158249.372,,26,finds
screen,html.Screen,2_1_0_1_27,2022-02-04T14:01:35.553Z,,,,,,,,,,,,,,,,,53,,,,,,,,,,,,,,409.3280000029772,,response,,,,99,,,,,,,Space,keypress(Space),,,,,,,,---- -- ----- -- ------ - ------- --- ----------<br>------------- ------ ------ ---- ---- ------- ----- -- ----<br>-------- ------- -- ---------- --- - --- ----- ----- that<br>---- --- --- ----- --- ---- ---- ------- ----- ---- -------<br>--- --- -- ----- -- --- ---- -- --- ---- -- ------ ------<br>--- ----- -- ----,158659.5,158658.70000000298,158232.799,158242,158249.372,158665.98,,27,that
screen,html.Screen,2_1_0_1_28,2022-02-04T14:01:35.869Z,,,,,,,,,,,,,,,,,53,,,,,,,,,,,,,,309.32000000445987,,response,,,,99,,,,,,,Space,keypress(Space),,,,,,,,---- -- ----- -- ------ - ------- --- ----------<br>------------- ------ ------ ---- ---- ------- ----- -- ----<br>-------- ------- -- ---------- --- - --- ----- ----- ----<br>it's --- --- ----- --- ---- ---- ------- ----- ---- -------<br>--- --- -- ----- -- --- ---- -- --- ---- -- ------ ------<br>--- ----- -- ----,158976,158975.30000000447,158649.667,158659.6000000015,158665.98,158982.662,,28,it's
screen,html.Screen,2_1_0_1_29,2022-02-04T14:01:36.205Z,,,,,,,,,,,,,,,,,53,,,,,,,,,,,,,,327.8379999999888,,response,,,,99,,,,,,,Space,keypress(Space),,,,,,,,---- -- ----- -- ------ - ------- --- ----------<br>------------- ------ ------ ---- ---- ------- ----- -- ----<br>-------- ------- -- ---------- --- - --- ----- ----- ----<br>---- not --- ----- --- ---- ---- ------- ----- ---- -------<br>--- --- -- ----- -- --- ---- -- --- ---- -- ------ ------<br>--- ----- -- ----,159311.20000000298,159310.5,158966.073,158976.1000000015,158982.662,159315.774,,29,not
screen,html.Screen,2_1_0_1_30,2022-02-04T14:01:36.489Z,,,,,,,,,,,,,,,,,53,,,,,,,,,,,,,,279.02600000446546,,response,,,,99,,,,,,,Space,keypress(Space),,,,,,,,---- -- ----- -- ------ - ------- --- ----------<br>------------- ------ ------ ---- ---- ------- ----- -- ----<br>-------- ------- -- ---------- --- - --- ----- ----- ----<br>---- --- how ----- --- ---- ---- ------- ----- ---- -------<br>--- --- -- ----- -- --- ---- -- --- ---- -- ------ ------<br>--- ----- -- ----,159595.70000000298,159594.80000000447,159299.372,159311.3999999985,159315.774,159599.079,,30,how
screen,html.Screen,2_1_0_1_31,2022-02-04T14:01:36.814Z,,,,,,,,,,,,,,,,,53,,,,,,,,,,,,,,321.4210000000021,,response,,,,99,,,,,,,Space,keypress(Space),,,,,,,,---- -- ----- -- ------ - ------- --- ----------<br>------------- ------ ------ ---- ---- ------- ----- -- ----<br>-------- ------- -- ---------- --- - --- ----- ----- ----<br>---- --- --- close --- ---- ---- ------- ----- ---- -------<br>--- --- -- ----- -- --- ---- -- --- ---- -- ------ ------<br>--- ----- -- ----,159921.1000000015,159920.5,159582.485,159595.80000000447,159599.079,159932.478,,31,close
screen,html.Screen,2_1_0_1_32,2022-02-04T14:01:37.072Z,,,,,,,,,,,,,,,,,53,,,,,,,,,,,,,,245.4219999985071,,response,,,,99,,,,,,,Space,keypress(Space),,,,,,,,---- -- ----- -- ------ - ------- --- ----------<br>------------- ------ ------ ---- ---- ------- ----- -- ----<br>-------- ------- -- ---------- --- - --- ----- ----- ----<br>---- --- --- ----- you ---- ---- ------- ----- ---- -------<br>--- --- -- ----- -- --- ---- -- --- ---- -- ------ ------<br>--- ----- -- ----,160178.6000000015,160177.8999999985,159915.967,159921.30000000447,159932.478,160182.282,,32,you
screen,html.Screen,2_1_0_1_33,2022-02-04T14:01:37.321Z,,,,,,,,,,,,,,,,,53,,,,,,,,,,,,,,244.61799999850336,,response,,,,99,,,,,,,Space,keypress(Space),,,,,,,,---- -- ----- -- ------ - ------- --- ----------<br>------------- ------ ------ ---- ---- ------- ----- -- ----<br>-------- ------- -- ---------- --- - --- ----- ----- ----<br>---- --- --- ----- --- feel ---- ------- ----- ---- -------<br>--- --- -- ----- -- --- ---- -- --- ---- -- ------ ------<br>--- ----- -- ----,160427.6000000015,160426.8999999985,160165.965,160179.8999999985,160182.282,160432.227,,33,feel
screen,html.Screen,2_1_0_1_34,2022-02-04T14:01:37.570Z,,,,,,,,,,,,,,,,,53,,,,,,,,,,,,,,243.8730000014766,,response,,,,99,,,,,,,Space,keypress(Space),,,,,,,,---- -- ----- -- ------ - ------- --- ----------<br>------------- ------ ------ ---- ---- ------- ----- -- ----<br>-------- ------- -- ---------- --- - --- ----- ----- ----<br>---- --- --- ----- --- ---- that ------- ----- ---- -------<br>--- --- -- ----- -- --- ---- -- --- ---- -- ------ ------<br>--- ----- -- ----,160676.8999999985,160676.1000000015,160415.909,160427.70000000298,160432.227,160682.144,,34,that
screen,html.Screen,2_1_0_1_35,2022-02-04T14:01:37.823Z,,,,,,,,,,,,,,,,,53,,,,,,,,,,,,,,247.25599999850965,,response,,,,99,,,,,,,Space,keypress(Space),,,,,,,,---- -- ----- -- ------ - ------- --- ----------<br>------------- ------ ------ ---- ---- ------- ----- -- ----<br>-------- ------- -- ---------- --- - --- ----- ----- ----<br>---- --- --- ----- --- ---- ---- matters ----- ---- -------<br>--- --- -- ----- -- --- ---- -- --- ---- -- ------ ------<br>--- ----- -- ----,160930.1000000015,160929.3999999985,160665.539,160677,160682.144,160932.129,,35,matters
screen,html.Screen,2_1_0_1_36,2022-02-04T14:01:38.110Z,,,,,,,,,,,,,,,,,53,,,,,,,,,,,,,,282.97100000150385,,response,,,,99,,,,,,,Space,keypress(Space),,,,,,,,"---- -- ----- -- ------ - ------- --- ----------<br>------------- ------ ------ ---- ---- ------- ----- -- ----<br>-------- ------- -- ---------- --- - --- ----- ----- ----<br>---- --- --- ----- --- ---- ---- ------- most, ---- -------<br>--- --- -- ----- -- --- ---- -- --- ---- -- ------ ------<br>--- ----- -- ----",161216.20000000298,161215.1000000015,160915.712,160930.30000000447,160932.129,161232.088,,36,"most,"
screen,html.Screen,2_1_0_1_37,2022-02-04T14:01:38.655Z,,,,,,,,,,,,,,,,,53,,,,,,,,,,,,,,528.9120000000112,,response,,,,99,,,,,,,Space,keypress(Space),,,,,,,,---- -- ----- -- ------ - ------- --- ----------<br>------------- ------ ------ ---- ---- ------- ----- -- ----<br>-------- ------- -- ---------- --- - --- ----- ----- ----<br>---- --- --- ----- --- ---- ---- ------- ----- it's -------<br>--- --- -- ----- -- --- ---- -- --- ---- -- ------ ------<br>--- ----- -- ----,161761.70000000298,161761,161215.747,161216.3999999985,161232.088,161765.281,,37,it's
screen,html.Screen,2_1_0_1_38,2022-02-04T14:01:39.143Z,,,,,,,,,,,,,,,,,53,,,,,,,,,,,,,,483.2190000000119,,response,,,,99,,,,,,,Space,keypress(Space),,,,,,,,---- -- ----- -- ------ - ------- --- ----------<br>------------- ------ ------ ---- ---- ------- ----- -- ----<br>-------- ------- -- ---------- --- - --- ----- ----- ----<br>---- --- --- ----- --- ---- ---- ------- ----- ---- whether<br>--- --- -- ----- -- --- ---- -- --- ---- -- ------ ------<br>--- ----- -- ----,162249.70000000298,162248.5,161749.048,161761.8999999985,161765.281,162265.383,,38,whether
screen,html.Screen,2_1_0_1_39,2022-02-04T14:01:39.743Z,,,,,,,,,,,,,,,,,53,,,,,,,,,,,,,,583.0169999985083,,response,,,,99,,,,,,,Space,keypress(Space),,,,,,,,---- -- ----- -- ------ - ------- --- ----------<br>------------- ------ ------ ---- ---- ------- ----- -- ----<br>-------- ------- -- ---------- --- - --- ----- ----- ----<br>---- --- --- ----- --- ---- ---- ------- ----- ---- -------<br>you --- -- ----- -- --- ---- -- --- ---- -- ------ ------<br>--- ----- -- ----,162849.20000000298,162848.3999999985,162248.569,162249.80000000447,162265.383,162865.436,,39,you
screen,html.Screen,2_1_0_1_40,2022-02-04T14:01:39.992Z,,,,,,,,,,,,,,,,,53,,,,,,,,,,,,,,232.66400000150315,,response,,,,99,,,,,,,Space,keypress(Space),,,,,,,,---- -- ----- -- ------ - ------- --- ----------<br>------------- ------ ------ ---- ---- ------- ----- -- ----<br>-------- ------- -- ---------- --- - --- ----- ----- ----<br>---- --- --- ----- --- ---- ---- ------- ----- ---- -------<br>--- are -- ----- -- --- ---- -- --- ---- -- ------ ------<br>--- ----- -- ----,163098.8999999985,163098.1000000015,162848.466,162849.3999999985,162865.436,163115.283,,40,are
screen,html.Screen,2_1_0_1_41,2022-02-04T14:01:40.257Z,,,,,,,,,,,,,,,,,53,,,,,,,,,,,,,,247.8170000014943,,response,,,,99,,,,,,,Space,keypress(Space),,,,,,,,---- -- ----- -- ------ - ------- --- ----------<br>------------- ------ ------ ---- ---- ------- ----- -- ----<br>-------- ------- -- ---------- --- - --- ----- ----- ----<br>---- --- --- ----- --- ---- ---- ------- ----- ---- -------<br>--- --- as ----- -- --- ---- -- --- ---- -- ------ ------<br>--- ----- -- ----,163363.80000000447,163363.1000000015,163098.508,163099,163115.283,163383.033,,41,as
screen,html.Screen,2_1_0_1_42,2022-02-04T14:01:40.704Z,,,,,,,,,,,,,,,,,53,,,,,,,,,,,,,,426.9670000000042,,response,,,,99,,,,,,,Space,keypress(Space),,,,,,,,---- -- ----- -- ------ - ------- --- ----------<br>------------- ------ ------ ---- ---- ------- ----- -- ----<br>-------- ------- -- ---------- --- - --- ----- ----- ----<br>---- --- --- ----- --- ---- ---- ------- ----- ---- -------<br>--- --- -- close -- --- ---- -- --- ---- -- ------ ------<br>--- ----- -- ----,163810.70000000298,163810,163348.358,163363.8999999985,163383.033,163814.831,,42,close
screen,html.Screen,2_1_0_1_43,2022-02-04T14:01:40.979Z,,,,,,,,,,,,,,,,,53,,,,,,,,,,,,,,269.7690000014845,,response,,,,99,,,,,,,Space,keypress(Space),,,,,,,,---- -- ----- -- ------ - ------- --- ----------<br>------------- ------ ------ ---- ---- ------- ----- -- ----<br>-------- ------- -- ---------- --- - --- ----- ----- ----<br>---- --- --- ----- --- ---- ---- ------- ----- ---- -------<br>--- --- -- ----- as --- ---- -- --- ---- -- ------ ------<br>--- ----- -- ----,164085.5,164084.6000000015,163798.305,163810.80000000447,163814.831,164098.161,,43,as
screen,html.Screen,2_1_0_1_44,2022-02-04T14:01:41.149Z,,,,,,,,,,,,,,,,,53,,,,,,,,,,,,,,156.93900000149733,,response,,,,99,,,,,,,Space,keypress(Space),,,,,,,,---- -- ----- -- ------ - ------- --- ----------<br>------------- ------ ------ ---- ---- ------- ----- -- ----<br>-------- ------- -- ---------- --- - --- ----- ----- ----<br>---- --- --- ----- --- ---- ---- ------- ----- ---- -------<br>--- --- -- ----- -- you ---- -- --- ---- -- ------ ------<br>--- ----- -- ----,164255.70000000298,164255.1000000015,164081.553,164085.70000000298,164098.161,164265.121,,44,you
screen,html.Screen,2_1_0_1_45,2022-02-04T14:01:41.498Z,,,,,,,,,,,,,,,,,53,,,,,,,,,,,,,,338.6790000044566,,response,,,,99,,,,,,,Space,keypress(Space),,,,,,,,---- -- ----- -- ------ - ------- --- ----------<br>------------- ------ ------ ---- ---- ------- ----- -- ----<br>-------- ------- -- ---------- --- - --- ----- ----- ----<br>---- --- --- ----- --- ---- ---- ------- ----- ---- -------<br>--- --- -- ----- -- --- want -- --- ---- -- ------ ------<br>--- ----- -- ----,164604.5,164603.80000000447,164248.312,164255.8999999985,164265.121,164615.054,,45,want
screen,html.Screen,2_1_0_1_46,2022-02-04T14:01:41.855Z,,,,,,,,,,,,,,,,,53,,,,,,,,,,,,,,345.2460000044666,,response,,,,99,,,,,,,Space,keypress(Space),,,,,,,,---- -- ----- -- ------ - ------- --- ----------<br>------------- ------ ------ ---- ---- ------- ----- -- ----<br>-------- ------- -- ---------- --- - --- ----- ----- ----<br>---- --- --- ----- --- ---- ---- ------- ----- ---- -------<br>--- --- -- ----- -- --- ---- to --- ---- -- ------ ------<br>--- ----- -- ----,164961.20000000298,164960.30000000447,164598.064,164604.70000000298,164615.054,164964.614,,46,to
screen,html.Screen,2_1_0_1_47,2022-02-04T14:01:42.455Z,,,,,,,,,,,,,,,,,53,,,,,,,,,,,,,,595.8859999999986,,response,,,,99,,,,,,,Space,keypress(Space),,,,,,,,"---- -- ----- -- ------ - ------- --- ----------<br>------------- ------ ------ ---- ---- ------- ----- -- ----<br>-------- ------- -- ---------- --- - --- ----- ----- ----<br>---- --- --- ----- --- ---- ---- ------- ----- ---- -------<br>--- --- -- ----- -- --- ---- -- be, ---- -- ------ ------<br>--- ----- -- ----",165561.20000000298,165560.5,164948.028,164961.30000000447,164964.614,165564.445,,47,"be,"
screen,html.Screen,2_1_0_1_48,2022-02-04T14:01:42.917Z,,,,,,,,,,,,,,,,,53,,,,,,,,,,,,,,458.554999999993,,response,,,,99,,,,,,,Space,keypress(Space),,,,,,,,---- -- ----- -- ------ - ------- --- ----------<br>------------- ------ ------ ---- ---- ------- ----- -- ----<br>-------- ------- -- ---------- --- - --- ----- ----- ----<br>---- --- --- ----- --- ---- ---- ------- ----- ---- -------<br>--- --- -- ----- -- --- ---- -- --- even -- ------ ------<br>--- ----- -- ----,166023.70000000298,166023,165547.948,165561.3999999985,165564.445,166031.129,,48,even
screen,html.Screen,2_1_0_1_49,2022-02-04T14:01:43.174Z,,,,,,,,,,,,,,,,,53,,,,,,,,,,,,,,248.77099999852362,,response,,,,99,,,,,,,Space,keypress(Space),,,,,,,,---- -- ----- -- ------ - ------- --- ----------<br>------------- ------ ------ ---- ---- ------- ----- -- ----<br>-------- ------- -- ---------- --- - --- ----- ----- ----<br>---- --- --- ----- --- ---- ---- ------- ----- ---- -------<br>--- --- -- ----- -- --- ---- -- --- ---- if ------ ------<br>--- ----- -- ----,166280.70000000298,166279.8999999985,166014.502,166023.80000000447,166031.129,166297.768,,49,if
screen,html.Screen,2_1_0_1_50,2022-02-04T14:01:43.383Z,,,,,,,,,,,,,,,,,53,,,,,,,,,,,,,,191.5320000044594,,response,,,,99,,,,,,,Space,keypress(Space),,,,,,,,---- -- ----- -- ------ - ------- --- ----------<br>------------- ------ ------ ---- ---- ------- ----- -- ----<br>-------- ------- -- ---------- --- - --- ----- ----- ----<br>---- --- --- ----- --- ---- ---- ------- ----- ---- -------<br>--- --- -- ----- -- --- ---- -- --- ---- -- that's ------<br>--- ----- -- ----,166489.8999999985,166489.30000000447,166281.286,166280.80000000447,166297.768,166497.643,,50,that's
screen,html.Screen,2_1_0_1_51,2022-02-04T14:01:43.865Z,,,,,,,,,,,,,,,,,53,,,,,,,,,,,,,,473.4570000014792,,response,,,,99,,,,,,,Space,keypress(Space),,,,,,,,---- -- ----- -- ------ - ------- --- ----------<br>------------- ------ ------ ---- ---- ------- ----- -- ----<br>-------- ------- -- ---------- --- - --- ----- ----- ----<br>---- --- --- ----- --- ---- ---- ------- ----- ---- -------<br>--- --- -- ----- -- --- ---- -- --- ---- -- ------ really<br>--- ----- -- ----,166971.80000000447,166971.1000000015,166481.227,166490.1000000015,166497.643,166981,,51,really
screen,html.Screen,2_1_0_1_52,2022-02-04T14:01:44.294Z,,,,,,,,,,,,,,,,,53,,,,,,,,,,,,,,419.3999999985099,,response,,,,99,,,,,,,Space,keypress(Space),,,,,,,,---- -- ----- -- ------ - ------- --- ----------<br>------------- ------ ------ ---- ---- ------- ----- -- ----<br>-------- ------- -- ---------- --- - --- ----- ----- ----<br>---- --- --- ----- --- ---- ---- ------- ----- ---- -------<br>--- --- -- ----- -- --- ---- -- --- ---- -- ------ ------<br>not ----- -- ----,167401,167400.3999999985,166964.314,166971.8999999985,166981,167414.346,,52,not
screen,html.Screen,2_1_0_1_53,2022-02-04T14:01:44.533Z,,,,,,,,,,,,,,,,,53,,,,,,,,,,,,,,224.65400000000955,,response,,,,99,,,,,,,Space,keypress(Space),,,,,,,,---- -- ----- -- ------ - ------- --- ----------<br>------------- ------ ------ ---- ---- ------- ----- -- ----<br>-------- ------- -- ---------- --- - --- ----- ----- ----<br>---- --- --- ----- --- ---- ---- ------- ----- ---- -------<br>--- --- -- ----- -- --- ---- -- --- ---- -- ------ ------<br>--- close -- ----,167639.70000000298,167639,167397.756,167401.30000000447,167414.346,167647.367,,53,close
screen,html.Screen,2_1_0_1_54,2022-02-04T14:01:44.756Z,,,,,,,,,,,,,,,,,53,,,,,,,,,,,,,,214.0329999985115,,response,,,,99,,,,,,,Space,keypress(Space),,,,,,,,---- -- ----- -- ------ - ------- --- ----------<br>------------- ------ ------ ---- ---- ------- ----- -- ----<br>-------- ------- -- ---------- --- - --- ----- ----- ----<br>---- --- --- ----- --- ---- ---- ------- ----- ---- -------<br>--- --- -- ----- -- --- ---- -- --- ---- -- ------ ------<br>--- ----- at ----,167862.20000000298,167861.3999999985,167630.739,167639.80000000447,167647.367,167890.28,,54,at
screen,html.Screen,2_1_0_1_55,2022-02-04T14:01:45.329Z,,,,,,,,,,,,,,,,,53,,,,,,,,,,,,,,544.9200000029814,,response,,,,99,,,,,,,Space,keypress(Space),,,,,,,,---- -- ----- -- ------ - ------- --- ----------<br>------------- ------ ------ ---- ---- ------- ----- -- ----<br>-------- ------- -- ---------- --- - --- ----- ----- ----<br>---- --- --- ----- --- ---- ---- ------- ----- ---- -------<br>--- --- -- ----- -- --- ---- -- --- ---- -- ------ ------<br>--- ----- -- all.,168435.8999999985,168435.20000000298,167847.597,167862.30000000447,167890.28,168447.22,,55,all.
Item 99,flow.Loop,2_1_0_1,2022-02-04T14:01:45.330Z,,,,,,,,,,,,,,,,,,,,,,,,,,,,,,,24266.193000002968,,completion,,,,,D,,,,,,,,,,,silence,,,,,168436.20000000298,168435.20000000298,144135.795,144138.1000000015,144169.007,168447.22,,,
Question 1,html.Screen,2_1_0_2,2022-02-04T14:01:48.390Z,,,,,,,,,,,,,,,,,,,,,,,,,,,,true,FALSE,,3048.279999999999,,response,,,,99,D,,,,,,FALSE,click #choice-2,,,,silence,,,,,171496.3999999985,171495.5,168430.863,168436.30000000447,168447.22,171527.984,,,
Question 2,html.Screen,2_1_0_3,2022-02-04T14:01:53.055Z,,,,,,,,,,,,,,,,,,,,,,,,,,,,true,TRUE,,4632.316000004474,,response,,,,99,D,,,,,,TRUE,click #choice-1,,,,silence,,,,,176161.30000000447,176160.30000000447,171480.055,171496.6000000015,171527.984,176194.227,,,
Item 99,flow.Sequence,2_1_0,2022-02-04T14:01:53.055Z,,,,,,,,,,,,,,,,,,,,,,,,,,,,,,,42005.84200000446,,completion,,,,,,,,,,,,,,,,,,,,,176161.6000000015,176160.30000000447,134138.009,134139.80000000447,134154.458,176194.227,,,
Holding screen,html.Screen,2_1_1_0,2022-02-04T14:02:03.072Z,,,,,,,,,,,,,,,,,,,,,,,,,,,,,,,9999.565999999992,,timeout,,,,,,,,,,,,,,,,,,,,,186178.80000000447,186177.261,176145.756,176161.80000000447,176194.227,186193.793,,,
screen,html.Screen,2_1_1_1_0,2022-02-04T14:02:04.273Z,,,,,,,,,,,,,,,,,54,,,,,,,,,,,,,,1185.1069999985048,,response,,,,100,,,,,,,Space,keypress(Space),,,,,,,,At --- ---- --- ------ ----- ------- ---- -- --- ------- --<br>------- ---------- ------ -- ----- -- ----- -- ---- ------<br>--- ----- --- --- ------ -------- ----- --- ------ ----- --<br>----- ----- ---------- --- --- ------ ------ ---- -- ------<br>------- --- ------ ----- --- ---- ------- -- ---- --- --<br>------- ------,187379.70000000298,187378.8999999985,186177.261,186178.8999999985,186193.793,187393.459,,0,At
screen,html.Screen,2_1_1_1_1,2022-02-04T14:02:04.691Z,,,,,,,,,,,,,,,,,54,,,,,,,,,,,,,,403.3410000044678,,response,,,,100,,,,,,,Space,keypress(Space),,,,,,,,-- the ---- --- ------ ----- ------- ---- -- --- ------- --<br>------- ---------- ------ -- ----- -- ----- -- ---- ------<br>--- ----- --- --- ------ -------- ----- --- ------ ----- --<br>----- ----- ---------- --- --- ------ ------ ---- -- ------<br>------- --- ------ ----- --- ---- ------- -- ---- --- --<br>------- ------,187797.80000000447,187796.80000000447,187376.856,187379.8999999985,187393.459,187809.861,,1,the
screen,html.Screen,2_1_1_1_2,2022-02-04T14:02:05.058Z,,,,,,,,,,,,,,,,,54,,,,,,,,,,,,,,354.8390000029758,,response,,,,100,,,,,,,Space,keypress(Space),,,,,,,,-- --- time --- ------ ----- ------- ---- -- --- ------- --<br>------- ---------- ------ -- ----- -- ----- -- ---- ------<br>--- ----- --- --- ------ -------- ----- --- ------ ----- --<br>----- ----- ---------- --- --- ------ ------ ---- -- ------<br>------- --- ------ ----- --- ---- ------- -- ---- --- --<br>------- ------,188165.3999999985,188164.70000000298,187793.495,187797.8999999985,187809.861,188176.739,,2,time
screen,html.Screen,2_1_1_1_3,2022-02-04T14:02:05.412Z,,,,,,,,,,,,,,,,,54,,,,,,,,,,,,,,341.56100000446895,,response,,,,100,,,,,,,Space,keypress(Space),,,,,,,,-- --- ---- the ------ ----- ------- ---- -- --- ------- --<br>------- ---------- ------ -- ----- -- ----- -- ---- ------<br>--- ----- --- --- ------ -------- ----- --- ------ ----- --<br>----- ----- ---------- --- --- ------ ------ ---- -- ------<br>------- --- ------ ----- --- ---- ------- -- ---- --- --<br>------- ------,188518.8999999985,188518.30000000447,188160.107,188165.5,188176.739,188526.447,,3,the
screen,html.Screen,2_1_1_1_4,2022-02-04T14:02:05.792Z,,,,,,,,,,,,,,,,,54,,,,,,,,,,,,,,372.25300000299467,,response,,,,100,,,,,,,Space,keypress(Space),,,,,,,,-- --- ---- --- French ----- ------- ---- -- --- ------- --<br>------- ---------- ------ -- ----- -- ----- -- ---- ------<br>--- ----- --- --- ------ -------- ----- --- ------ ----- --<br>----- ----- ---------- --- --- ------ ------ ---- -- ------<br>------- --- ------ ----- --- ---- ------- -- ---- --- --<br>------- ------,188899.30000000447,188898.70000000298,188509.676,188519.1000000015,188526.447,188909.673,,4,French
screen,html.Screen,2_1_1_1_5,2022-02-04T14:02:06.268Z,,,,,,,,,,,,,,,,,54,,,,,,,,,,,,,,465.02700000297045,,response,,,,100,,,,,,,Space,keypress(Space),,,,,,,,-- --- ---- --- ------ crown ------- ---- -- --- ------- --<br>------- ---------- ------ -- ----- -- ----- -- ---- ------<br>--- ----- --- --- ------ -------- ----- --- ------ ----- --<br>----- ----- ---------- --- --- ------ ------ ---- -- ------<br>------- --- ------ ----- --- ---- ------- -- ---- --- --<br>------- ------,189375.3999999985,189374.70000000298,188892.908,188899.3999999985,188909.673,189393.138,,5,crown
screen,html.Screen,2_1_1_1_6,2022-02-04T14:02:06.592Z,,,,,,,,,,,,,,,,,54,,,,,,,,,,,,,,305.46200000148383,,response,,,,100,,,,,,,Space,keypress(Space),,,,,,,,-- --- ---- --- ------ ----- secured ---- -- --- ------- --<br>------- ---------- ------ -- ----- -- ----- -- ---- ------<br>--- ----- --- --- ------ -------- ----- --- ------ ----- --<br>----- ----- ---------- --- --- ------ ------ ---- -- ------<br>------- --- ------ ----- --- ---- ------- -- ---- --- --<br>------- ------,189699.30000000447,189698.6000000015,189359.683,189375.6000000015,189393.138,189709.459,,6,secured
screen,html.Screen,2_1_1_1_7,2022-02-04T14:02:06.822Z,,,,,,,,,,,,,,,,,54,,,,,,,,,,,,,,219.44099999850732,,response,,,,100,,,,,,,Space,keypress(Space),,,,,,,,-- --- ---- --- ------ ----- ------- much -- --- ------- --<br>------- ---------- ------ -- ----- -- ----- -- ---- ------<br>--- ----- --- --- ------ -------- ----- --- ------ ----- --<br>----- ----- ---------- --- --- ------ ------ ---- -- ------<br>------- --- ------ ----- --- ---- ------- -- ---- --- --<br>------- ------,189929.6000000015,189928.8999999985,189692.988,189699.5,189709.459,189942.843,,7,much
screen,html.Screen,2_1_1_1_8,2022-02-04T14:02:07.498Z,,,,,,,,,,,,,,,,,54,,,,,,,,,,,,,,661.3570000029868,,response,,,,100,,,,,,,Space,keypress(Space),,,,,,,,-- --- ---- --- ------ ----- ------- ---- of --- ------- --<br>------- ---------- ------ -- ----- -- ----- -- ---- ------<br>--- ----- --- --- ------ -------- ----- --- ------ ----- --<br>----- ----- ---------- --- --- ------ ------ ---- -- ------<br>------- --- ------ ----- --- ---- ------- -- ---- --- --<br>------- ------,190604.8999999985,190604.20000000298,189926.294,189929.8999999985,189942.843,190609.187,,8,of
screen,html.Screen,2_1_1_1_9,2022-02-04T14:02:07.955Z,,,,,,,,,,,,,,,,,54,,,,,,,,,,,,,,452.21299999850453,,response,,,,100,,,,,,,Space,keypress(Space),,,,,,,,-- --- ---- --- ------ ----- ------- ---- -- its ------- --<br>------- ---------- ------ -- ----- -- ----- -- ---- ------<br>--- ----- --- --- ------ -------- ----- --- ------ ----- --<br>----- ----- ---------- --- --- ------ ------ ---- -- ------<br>------- --- ------ ----- --- ---- ------- -- ---- --- --<br>------- ------,191062.20000000298,191061.3999999985,190592.67,190605,190609.187,191076.045,,9,its
screen,html.Screen,2_1_1_1_10,2022-02-04T14:02:08.272Z,,,,,,,,,,,,,,,,,54,,,,,,,,,,,,,,302.1550000029674,,response,,,,100,,,,,,,Space,keypress(Space),,,,,,,,-- --- ---- --- ------ ----- ------- ---- -- --- revenue --<br>------- ---------- ------ -- ----- -- ----- -- ---- ------<br>--- ----- --- --- ------ -------- ----- --- ------ ----- --<br>----- ----- ---------- --- --- ------ ------ ---- -- ------<br>------- --- ------ ----- --- ---- ------- -- ---- --- --<br>------- ------,191378.8999999985,191378.20000000298,191059.355,191062.5,191076.045,191392.69,,10,revenue
screen,html.Screen,2_1_1_1_11,2022-02-04T14:02:08.721Z,,,,,,,,,,,,,,,,,54,,,,,,,,,,,,,,435.20999999850756,,response,,,,100,,,,,,,Space,keypress(Space),,,,,,,,-- --- ---- --- ------ ----- ------- ---- -- --- ------- by<br>------- ---------- ------ -- ----- -- ----- -- ---- ------<br>--- ----- --- --- ------ -------- ----- --- ------ ----- --<br>----- ----- ---------- --- --- ------ ------ ---- -- ------<br>------- --- ------ ----- --- ---- ------- -- ---- --- --<br>------- ------,191828.6000000015,191827.8999999985,191375.783,191379,191392.69,191842.475,,11,by
screen,html.Screen,2_1_1_1_12,2022-02-04T14:02:09.145Z,,,,,,,,,,,,,,,,,54,,,,,,,,,,,,,,409.3250000044645,,response,,,,100,,,,,,,Space,keypress(Space),,,,,,,,-- --- ---- --- ------ ----- ------- ---- -- --- ------- --<br>issuing ---------- ------ -- ----- -- ----- -- ---- ------<br>--- ----- --- --- ------ -------- ----- --- ------ ----- --<br>----- ----- ---------- --- --- ------ ------ ---- -- ------<br>------- --- ------ ----- --- ---- ------- -- ---- --- --<br>------- ------,192252.5,192251.80000000447,191825.635,191828.80000000447,191842.475,192259.082,,12,issuing
screen,html.Screen,2_1_1_1_13,2022-02-04T14:02:09.393Z,,,,,,,,,,,,,,,,,54,,,,,,,,,,,,,,240.817999998515,,response,,,,100,,,,,,,Space,keypress(Space),,,,,,,,-- --- ---- --- ------ ----- ------- ---- -- --- ------- --<br>------- government ------ -- ----- -- ----- -- ---- ------<br>--- ----- --- --- ------ -------- ----- --- ------ ----- --<br>----- ----- ---------- --- --- ------ ------ ---- -- ------<br>------- --- ------ ----- --- ---- ------- -- ---- --- --<br>------- ------,192500.6000000015,192499.8999999985,192242.578,192252.70000000298,192259.082,192508.749,,13,government
screen,html.Screen,2_1_1_1_14,2022-02-04T14:02:10.121Z,,,,,,,,,,,,,,,,,54,,,,,,,,,,,,,,718.6509999984992,,response,,,,100,,,,,,,Space,keypress(Space),,,,,,,,-- --- ---- --- ------ ----- ------- ---- -- --- ------- --<br>------- ---------- bonds. -- ----- -- ----- -- ---- ------<br>--- ----- --- --- ------ -------- ----- --- ------ ----- --<br>----- ----- ---------- --- --- ------ ------ ---- -- ------<br>------- --- ------ ----- --- ---- ------- -- ---- --- --<br>------- ------,193228.30000000447,193227.3999999985,192492.419,192500.70000000298,192508.749,193242.269,,14,bonds.
screen,html.Screen,2_1_1_1_15,2022-02-04T14:02:10.705Z,,,,,,,,,,,,,,,,,54,,,,,,,,,,,,,,569.0310000044701,,response,,,,100,,,,,,,Space,keypress(Space),,,,,,,,-- --- ---- --- ------ ----- ------- ---- -- --- ------- --<br>------- ---------- ------ In ----- -- ----- -- ---- ------<br>--- ----- --- --- ------ -------- ----- --- ------ ----- --<br>----- ----- ---------- --- --- ------ ------ ---- -- ------<br>------- --- ------ ----- --- ---- ------- -- ---- --- --<br>------- ------,193812,193811.30000000447,193225.653,193228.30000000447,193242.269,193825.195,,15,In
screen,html.Screen,2_1_1_1_16,2022-02-04T14:02:10.970Z,,,,,,,,,,,,,,,,,54,,,,,,,,,,,,,,251.2049999985029,,response,,,,100,,,,,,,Space,keypress(Space),,,,,,,,"-- --- ---- --- ------ ----- ------- ---- -- --- ------- --<br>------- ---------- ------ -- 1727, -- ----- -- ---- ------<br>--- ----- --- --- ------ -------- ----- --- ------ ----- --<br>----- ----- ---------- --- --- ------ ------ ---- -- ------<br>------- --- ------ ----- --- ---- ------- -- ---- --- --<br>------- ------",194077.20000000298,194076.3999999985,193808.844,193812.20000000298,193825.195,194092.04,,16,"1727,"
screen,html.Screen,2_1_1_1_17,2022-02-04T14:02:12.624Z,,,,,,,,,,,,,,,,,54,,,,,,,,,,,,,,1638.3599999985017,,response,,,,100,,,,,,,Space,keypress(Space),,,,,,,,-- --- ---- --- ------ ----- ------- ---- -- --- ------- --<br>------- ---------- ------ -- ----- in ----- -- ---- ------<br>--- ----- --- --- ------ -------- ----- --- ------ ----- --<br>----- ----- ---------- --- --- ------ ------ ---- -- ------<br>------- --- ------ ----- --- ---- ------- -- ---- --- --<br>------- ------,195731,195730.3999999985,194075.176,194077.3999999985,194092.04,195741.805,,17,in
screen,html.Screen,2_1_1_1_18,2022-02-04T14:02:13.116Z,,,,,,,,,,,,,,,,,54,,,,,,,,,,,,,,481.195000000007,,response,,,,100,,,,,,,Space,keypress(Space),,,,,,,,-- --- ---- --- ------ ----- ------- ---- -- --- ------- --<br>------- ---------- ------ -- ----- -- order -- ---- ------<br>--- ----- --- --- ------ -------- ----- --- ------ ----- --<br>----- ----- ---------- --- --- ------ ------ ---- -- ------<br>------- --- ------ ----- --- ---- ------- -- ---- --- --<br>------- ------,196223.80000000447,196223,195725.191,195731.20000000298,195741.805,196243.687,,18,order
screen,html.Screen,2_1_1_1_19,2022-02-04T14:02:13.557Z,,,,,,,,,,,,,,,,,54,,,,,,,,,,,,,,419.41300000148476,,response,,,,100,,,,,,,Space,keypress(Space),,,,,,,,-- --- ---- --- ------ ----- ------- ---- -- --- ------- --<br>------- ---------- ------ -- ----- -- ----- to ---- ------<br>--- ----- --- --- ------ -------- ----- --- ------ ----- --<br>----- ----- ---------- --- --- ------ ------ ---- -- ------<br>------- --- ------ ----- --- ---- ------- -- ---- --- --<br>------- ------,196663.80000000447,196663.1000000015,196208.41,196223.8999999985,196243.687,196674.928,,19,to
screen,html.Screen,2_1_1_1_20,2022-02-04T14:02:13.743Z,,,,,,,,,,,,,,,,,54,,,,,,,,,,,,,,174.67200000147568,,response,,,,100,,,,,,,Space,keypress(Space),,,,,,,,-- --- ---- --- ------ ----- ------- ---- -- --- ------- --<br>------- ---------- ------ -- ----- -- ----- -- save ------<br>--- ----- --- --- ------ -------- ----- --- ------ ----- --<br>----- ----- ---------- --- --- ------ ------ ---- -- ------<br>------- --- ------ ----- --- ---- ------- -- ---- --- --<br>------- ------,196850.20000000298,196849.6000000015,196657.945,196663.80000000447,196674.928,196857.88,,20,save
screen,html.Screen,2_1_1_1_21,2022-02-04T14:02:14.279Z,,,,,,,,,,,,,,,,,54,,,,,,,,,,,,,,528.1199999999953,,response,,,,100,,,,,,,Space,keypress(Space),,,,,,,,"-- --- ---- --- ------ ----- ------- ---- -- --- ------- --<br>------- ---------- ------ -- ----- -- ----- -- ---- money,<br>--- ----- --- --- ------ -------- ----- --- ------ ----- --<br>----- ----- ---------- --- --- ------ ------ ---- -- ------<br>------- --- ------ ----- --- ---- ------- -- ---- --- --<br>------- ------",197386.70000000298,197386,196841.217,196850.3999999985,196857.88,197391.092,,21,"money,"
screen,html.Screen,2_1_1_1_22,2022-02-04T14:02:15.033Z,,,,,,,,,,,,,,,,,54,,,,,,,,,,,,,,748.2080000044662,,response,,,,100,,,,,,,Space,keypress(Space),,,,,,,,-- --- ---- --- ------ ----- ------- ---- -- --- ------- --<br>------- ---------- ------ -- ----- -- ----- -- ---- ------<br>the ----- --- --- ------ -------- ----- --- ------ ----- --<br>----- ----- ---------- --- --- ------ ------ ---- -- ------<br>------- --- ------ ----- --- ---- ------- -- ---- --- --<br>------- ------,198140,198139.30000000447,197374.729,197386.8999999985,197391.092,198169.048,,22,the
screen,html.Screen,2_1_1_1_23,2022-02-04T14:02:15.454Z,,,,,,,,,,,,,,,,,54,,,,,,,,,,,,,,391.55200000148034,,response,,,,100,,,,,,,Space,keypress(Space),,,,,,,,-- --- ---- --- ------ ----- ------- ---- -- --- ------- --<br>------- ---------- ------ -- ----- -- ----- -- ---- ------<br>--- state --- --- ------ -------- ----- --- ------ ----- --<br>----- ----- ---------- --- --- ------ ------ ---- -- ------<br>------- --- ------ ----- --- ---- ------- -- ---- --- --<br>------- ------,198561.20000000298,198560.6000000015,198124.655,198140.1000000015,198169.048,198574.465,,23,state
screen,html.Screen,2_1_1_1_24,2022-02-04T14:02:15.717Z,,,,,,,,,,,,,,,,,54,,,,,,,,,,,,,,249.43499999851338,,response,,,,100,,,,,,,Space,keypress(Space),,,,,,,,-- --- ---- --- ------ ----- ------- ---- -- --- ------- --<br>------- ---------- ------ -- ----- -- ----- -- ---- ------<br>--- ----- cut --- ------ -------- ----- --- ------ ----- --<br>----- ----- ---------- --- --- ------ ------ ---- -- ------<br>------- --- ------ ----- --- ---- ------- -- ---- --- --<br>------- ------,198824.6000000015,198823.8999999985,198557.821,198561.5,198574.465,198840.852,,24,cut
screen,html.Screen,2_1_1_1_25,2022-02-04T14:02:16.056Z,,,,,,,,,,,,,,,,,54,,,,,,,,,,,,,,321.8480000029667,,response,,,,100,,,,,,,Space,keypress(Space),,,,,,,,-- --- ---- --- ------ ----- ------- ---- -- --- ------- --<br>------- ---------- ------ -- ----- -- ----- -- ---- ------<br>--- ----- --- the ------ -------- ----- --- ------ ----- --<br>----- ----- ---------- --- --- ------ ------ ---- -- ------<br>------- --- ------ ----- --- ---- ------- -- ---- --- --<br>------- ------,199163.30000000447,199162.70000000298,198824.169,198824.80000000447,198840.852,199174.254,,25,the
screen,html.Screen,2_1_1_1_26,2022-02-04T14:02:16.486Z,,,,,,,,,,,,,,,,,54,,,,,,,,,,,,,,418.1459999985236,,response,,,,100,,,,,,,Space,keypress(Space),,,,,,,,-- --- ---- --- ------ ----- ------- ---- -- --- ------- --<br>------- ---------- ------ -- ----- -- ----- -- ---- ------<br>--- ----- --- --- bonds' -------- ----- --- ------ ----- --<br>----- ----- ---------- --- --- ------ ------ ---- -- ------<br>------- --- ------ ----- --- ---- ------- -- ---- --- --<br>------- ------,199593.20000000298,199592.3999999985,199157.62,199163.6000000015,199174.254,199607.391,,26,bonds'
screen,html.Screen,2_1_1_1_27,2022-02-04T14:02:17.160Z,,,,,,,,,,,,,,,,,54,,,,,,,,,,,,,,659.5089999985066,,response,,,,100,,,,,,,Space,keypress(Space),,,,,,,,-- --- ---- --- ------ ----- ------- ---- -- --- ------- --<br>------- ---------- ------ -- ----- -- ----- -- ---- ------<br>--- ----- --- --- ------ interest ----- --- ------ ----- --<br>----- ----- ---------- --- --- ------ ------ ---- -- ------<br>------- --- ------ ----- --- ---- ------- -- ---- --- --<br>------- ------,200267.5,200266.8999999985,199590.674,199593.3999999985,199607.391,200273.872,,27,interest
screen,html.Screen,2_1_1_1_28,2022-02-04T14:02:20.148Z,,,,,,,,,,,,,,,,,54,,,,,,,,,,,,,,2980.527999998507,,response,,,,100,,,,,,,Space,keypress(Space),,,,,,,,-- --- ---- --- ------ ----- ------- ---- -- --- ------- --<br>------- ---------- ------ -- ----- -- ----- -- ---- ------<br>--- ----- --- --- ------ -------- rate. --- ------ ----- --<br>----- ----- ---------- --- --- ------ ------ ---- -- ------<br>------- --- ------ ----- --- ---- ------- -- ---- --- --<br>------- ------,203255.1000000015,203254.3999999985,200257.55,200267.6000000015,200273.872,203284.244,,28,rate.
screen,html.Screen,2_1_1_1_29,2022-02-04T14:02:20.690Z,,,,,,,,,,,,,,,,,54,,,,,,,,,,,,,,512.4560000029742,,response,,,,100,,,,,,,Space,keypress(Space),,,,,,,,-- --- ---- --- ------ ----- ------- ---- -- --- ------- --<br>------- ---------- ------ -- ----- -- ----- -- ---- ------<br>--- ----- --- --- ------ -------- ----- The ------ ----- --<br>----- ----- ---------- --- --- ------ ------ ---- -- ------<br>------- --- ------ ----- --- ---- ------- -- ---- --- --<br>------- ------,203797.5,203796.70000000298,203240.264,203255.30000000447,203284.244,203806.732,,29,The
screen,html.Screen,2_1_1_1_30,2022-02-04T14:02:21.280Z,,,,,,,,,,,,,,,,,54,,,,,,,,,,,,,,579.8680000015011,,response,,,,100,,,,,,,Space,keypress(Space),,,,,,,,-- --- ---- --- ------ ----- ------- ---- -- --- ------- --<br>------- ---------- ------ -- ----- -- ----- -- ---- ------<br>--- ----- --- --- ------ -------- ----- --- market ----- --<br>----- ----- ---------- --- --- ------ ------ ---- -- ------<br>------- --- ------ ----- --- ---- ------- -- ---- --- --<br>------- ------,204387.3999999985,204386.6000000015,203790.099,203797.70000000298,203806.732,204389.582,,30,market
screen,html.Screen,2_1_1_1_31,2022-02-04T14:02:21.656Z,,,,,,,,,,,,,,,,,54,,,,,,,,,,,,,,373.317999998515,,response,,,,100,,,,,,,Space,keypress(Space),,,,,,,,-- --- ---- --- ------ ----- ------- ---- -- --- ------- --<br>------- ---------- ------ -- ----- -- ----- -- ---- ------<br>--- ----- --- --- ------ -------- ----- --- ------ value --<br>----- ----- ---------- --- --- ------ ------ ---- -- ------<br>------- --- ------ ----- --- ---- ------- -- ---- --- --<br>------- ------,204763.5,204762.8999999985,204373.123,204387.6000000015,204389.582,204773.21,,31,value
screen,html.Screen,2_1_1_1_32,2022-02-04T14:02:22.123Z,,,,,,,,,,,,,,,,,54,,,,,,,,,,,,,,456.79000000000815,,response,,,,100,,,,,,,Space,keypress(Space),,,,,,,,-- --- ---- --- ------ ----- ------- ---- -- --- ------- --<br>------- ---------- ------ -- ----- -- ----- -- ---- ------<br>--- ----- --- --- ------ -------- ----- --- ------ ----- of<br>----- ----- ---------- --- --- ------ ------ ---- -- ------<br>------- --- ------ ----- --- ---- ------- -- ---- --- --<br>------- ------,205230.6000000015,205230,204756.487,204763.6000000015,204773.21,205239.473,,32,of
screen,html.Screen,2_1_1_1_33,2022-02-04T14:02:22.564Z,,,,,,,,,,,,,,,,,54,,,,,,,,,,,,,,430.92699999851175,,response,,,,100,,,,,,,Space,keypress(Space),,,,,,,,-- --- ---- --- ------ ----- ------- ---- -- --- ------- --<br>------- ---------- ------ -- ----- -- ----- -- ---- ------<br>--- ----- --- --- ------ -------- ----- --- ------ ----- --<br>these ----- ---------- --- --- ------ ------ ---- -- ------<br>------- --- ------ ----- --- ---- ------- -- ---- --- --<br>------- ------,205671.1000000015,205670.3999999985,205222.813,205230.80000000447,205239.473,205692.879,,33,these
screen,html.Screen,2_1_1_1_34,2022-02-04T14:02:22.808Z,,,,,,,,,,,,,,,,,54,,,,,,,,,,,,,,222.12100000001374,,response,,,,100,,,,,,,Space,keypress(Space),,,,,,,,-- --- ---- --- ------ ----- ------- ---- -- --- ------- --<br>------- ---------- ------ -- ----- -- ----- -- ---- ------<br>--- ----- --- --- ------ -------- ----- --- ------ ----- --<br>----- bonds ---------- --- --- ------ ------ ---- -- ------<br>------- --- ------ ----- --- ---- ------- -- ---- --- --<br>------- ------,205915.6000000015,205915,205656.337,205671.20000000298,205692.879,205922.627,,34,bonds
screen,html.Screen,2_1_1_1_35,2022-02-04T14:02:23.518Z,,,,,,,,,,,,,,,,,54,,,,,,,,,,,,,,701.2729999985022,,response,,,,100,,,,,,,Space,keypress(Space),,,,,,,,"-- --- ---- --- ------ ----- ------- ---- -- --- ------- --<br>------- ---------- ------ -- ----- -- ----- -- ---- ------<br>--- ----- --- --- ------ -------- ----- --- ------ ----- --<br>----- ----- plummeted, --- --- ------ ------ ---- -- ------<br>------- --- ------ ----- --- ---- ------- -- ---- --- --<br>------- ------",206624.80000000447,206623.8999999985,205906.192,205915.70000000298,205922.627,206639.123,,35,"plummeted,"
screen,html.Screen,2_1_1_1_36,2022-02-04T14:02:24.034Z,,,,,,,,,,,,,,,,,54,,,,,,,,,,,,,,500.9770000014978,,response,,,,100,,,,,,,Space,keypress(Space),,,,,,,,-- --- ---- --- ------ ----- ------- ---- -- --- ------- --<br>------- ---------- ------ -- ----- -- ----- -- ---- ------<br>--- ----- --- --- ------ -------- ----- --- ------ ----- --<br>----- ----- ---------- and --- ------ ------ ---- -- ------<br>------- --- ------ ----- --- ---- ------- -- ---- --- --<br>------- ------,207140.8999999985,207140.1000000015,206622.554,206624.8999999985,206639.123,207155.9,,36,and
screen,html.Screen,2_1_1_1_37,2022-02-04T14:02:24.436Z,,,,,,,,,,,,,,,,,54,,,,,,,,,,,,,,387.20000000149594,,response,,,,100,,,,,,,Space,keypress(Space),,,,,,,,-- --- ---- --- ------ ----- ------- ---- -- --- ------- --<br>------- ---------- ------ -- ----- -- ----- -- ---- ------<br>--- ----- --- --- ------ -------- ----- --- ------ ----- --<br>----- ----- ---------- --- the ------ ------ ---- -- ------<br>------- --- ------ ----- --- ---- ------- -- ---- --- --<br>------- ------,207543.70000000298,207543.1000000015,207139.424,207141.1000000015,207155.9,207555.893,,37,the
screen,html.Screen,2_1_1_1_38,2022-02-04T14:02:24.786Z,,,,,,,,,,,,,,,,,54,,,,,,,,,,,,,,336.2070000014792,,response,,,,100,,,,,,,Space,keypress(Space),,,,,,,,-- --- ---- --- ------ ----- ------- ---- -- --- ------- --<br>------- ---------- ------ -- ----- -- ----- -- ---- ------<br>--- ----- --- --- ------ -------- ----- --- ------ ----- --<br>----- ----- ---------- --- --- market ------ ---- -- ------<br>------- --- ------ ----- --- ---- ------- -- ---- --- --<br>------- ------,207893.1000000015,207892.1000000015,207539.086,207543.8999999985,207555.893,207905.887,,38,market
screen,html.Screen,2_1_1_1_39,2022-02-04T14:02:25.163Z,,,,,,,,,,,,,,,,,54,,,,,,,,,,,,,,363.31300000299234,,response,,,,100,,,,,,,Space,keypress(Space),,,,,,,,-- --- ---- --- ------ ----- ------- ---- -- --- ------- --<br>------- ---------- ------ -- ----- -- ----- -- ---- ------<br>--- ----- --- --- ------ -------- ----- --- ------ ----- --<br>----- ----- ---------- --- --- ------ became ---- -- ------<br>------- --- ------ ----- --- ---- ------- -- ---- --- --<br>------- ------,208269.80000000447,208269.20000000298,207889.126,207893.20000000298,207905.887,208272.08,,39,became
screen,html.Screen,2_1_1_1_40,2022-02-04T14:02:25.517Z,,,,,,,,,,,,,,,,,54,,,,,,,,,,,,,,351.62000000299304,,response,,,,100,,,,,,,Space,keypress(Space),,,,,,,,-- --- ---- --- ------ ----- ------- ---- -- --- ------- --<br>------- ---------- ------ -- ----- -- ----- -- ---- ------<br>--- ----- --- --- ------ -------- ----- --- ------ ----- --<br>----- ----- ---------- --- --- ------ ------ wary -- ------<br>------- --- ------ ----- --- ---- ------- -- ---- --- --<br>------- ------,208624.5,208623.70000000298,208255.554,208269.8999999985,208272.08,208638.727,,40,wary
screen,html.Screen,2_1_1_1_41,2022-02-04T14:02:25.930Z,,,,,,,,,,,,,,,,,54,,,,,,,,,,,,,,397.2729999999865,,response,,,,100,,,,,,,Space,keypress(Space),,,,,,,,-- --- ---- --- ------ ----- ------- ---- -- --- ------- --<br>------- ---------- ------ -- ----- -- ----- -- ---- ------<br>--- ----- --- --- ------ -------- ----- --- ------ ----- --<br>----- ----- ---------- --- --- ------ ------ ---- of ------<br>------- --- ------ ----- --- ---- ------- -- ---- --- --<br>------- ------,209036.80000000447,209036,208622.28,208624.6000000015,208638.727,209038.583,,41,of
screen,html.Screen,2_1_1_1_42,2022-02-04T14:02:26.370Z,,,,,,,,,,,,,,,,,54,,,,,,,,,,,,,,437.91699999998673,,response,,,,100,,,,,,,Space,keypress(Space),,,,,,,,-- --- ---- --- ------ ----- ------- ---- -- --- ------- --<br>------- ---------- ------ -- ----- -- ----- -- ---- ------<br>--- ----- --- --- ------ -------- ----- --- ------ ----- --<br>----- ----- ---------- --- --- ------ ------ ---- -- French<br>------- --- ------ ----- --- ---- ------- -- ---- --- --<br>------- ------,209477.20000000298,209476.5,209022.252,209036.8999999985,209038.583,209488.566,,42,French
screen,html.Screen,2_1_1_1_43,2022-02-04T14:02:27.241Z,,,,,,,,,,,,,,,,,54,,,,,,,,,,,,,,859.5340000014985,,response,,,,100,,,,,,,Space,keypress(Space),,,,,,,,-- --- ---- --- ------ ----- ------- ---- -- --- ------- --<br>------- ---------- ------ -- ----- -- ----- -- ---- ------<br>--- ----- --- --- ------ -------- ----- --- ------ ----- --<br>----- ----- ---------- --- --- ------ ------ ---- -- ------<br>credit. --- ------ ----- --- ---- ------- -- ---- --- --<br>------- ------,210348.80000000447,210348.1000000015,209472.147,209477.3999999985,209488.566,210355.304,,43,credit.
screen,html.Screen,2_1_1_1_44,2022-02-04T14:02:27.719Z,,,,,,,,,,,,,,,,,54,,,,,,,,,,,,,,469.7960000014864,,response,,,,100,,,,,,,Space,keypress(Space),,,,,,,,-- --- ---- --- ------ ----- ------- ---- -- --- ------- --<br>------- ---------- ------ -- ----- -- ----- -- ---- ------<br>--- ----- --- --- ------ -------- ----- --- ------ ----- --<br>----- ----- ---------- --- --- ------ ------ ---- -- ------<br>------- The ------ ----- --- ---- ------- -- ---- --- --<br>------- ------,210826,210825.1000000015,210338.789,210348.8999999985,210355.304,210838.218,,44,The
screen,html.Screen,2_1_1_1_45,2022-02-04T14:02:28.017Z,,,,,,,,,,,,,,,,,54,,,,,,,,,,,,,,285.08200000447687,,response,,,,100,,,,,,,Space,keypress(Space),,,,,,,,-- --- ---- --- ------ ----- ------- ---- -- --- ------- --<br>------- ---------- ------ -- ----- -- ----- -- ---- ------<br>--- ----- --- --- ------ -------- ----- --- ------ ----- --<br>----- ----- ---------- --- --- ------ ------ ---- -- ------<br>------- --- French ----- --- ---- ------- -- ---- --- --<br>------- ------,211124,211123.30000000447,210821.69,210826.1000000015,210838.218,211138.206,,45,French
screen,html.Screen,2_1_1_1_46,2022-02-04T14:02:28.440Z,,,,,,,,,,,,,,,,,54,,,,,,,,,,,,,,408.49400000297464,,response,,,,100,,,,,,,Space,keypress(Space),,,,,,,,-- --- ---- --- ------ ----- ------- ---- -- --- ------- --<br>------- ---------- ------ -- ----- -- ----- -- ---- ------<br>--- ----- --- --- ------ -------- ----- --- ------ ----- --<br>----- ----- ---------- --- --- ------ ------ ---- -- ------<br>------- --- ------ state --- ---- ------- -- ---- --- --<br>------- ------,211547.3999999985,211546.70000000298,211121.899,211124.20000000298,211138.206,211554.735,,46,state
screen,html.Screen,2_1_1_1_47,2022-02-04T14:02:28.819Z,,,,,,,,,,,,,,,,,54,,,,,,,,,,,,,,370.4650000029942,,response,,,,100,,,,,,,Space,keypress(Space),,,,,,,,-- --- ---- --- ------ ----- ------- ---- -- --- ------- --<br>------- ---------- ------ -- ----- -- ----- -- ---- ------<br>--- ----- --- --- ------ -------- ----- --- ------ ----- --<br>----- ----- ---------- --- --- ------ ------ ---- -- ------<br>------- --- ------ ----- was ---- ------- -- ---- --- --<br>------- ------,211926,211925.20000000298,211538.352,211547.5,211554.735,211937.99,,47,was
screen,html.Screen,2_1_1_1_48,2022-02-04T14:02:29.123Z,,,,,,,,,,,,,,,,,54,,,,,,,,,,,,,,291.5100000000093,,response,,,,100,,,,,,,Space,keypress(Space),,,,,,,,-- --- ---- --- ------ ----- ------- ---- -- --- ------- --<br>------- ---------- ------ -- ----- -- ----- -- ---- ------<br>--- ----- --- --- ------ -------- ----- --- ------ ----- --<br>----- ----- ---------- --- --- ------ ------ ---- -- ------<br>------- --- ------ ----- --- left ------- -- ---- --- --<br>------- ------,212230.1000000015,212229.5,211921.378,211926.20000000298,211937.99,212237.952,,48,left
screen,html.Screen,2_1_1_1_49,2022-02-04T14:02:29.498Z,,,,,,,,,,,,,,,,,54,,,,,,,,,,,,,,366.1480000014999,,response,,,,100,,,,,,,Space,keypress(Space),,,,,,,,-- --- ---- --- ------ ----- ------- ---- -- --- ------- --<br>------- ---------- ------ -- ----- -- ----- -- ---- ------<br>--- ----- --- --- ------ -------- ----- --- ------ ----- --<br>----- ----- ---------- --- --- ------ ------ ---- -- ------<br>------- --- ------ ----- --- ---- without -- ---- --- --<br>------- ------,212605,212604.1000000015,212221.665,212230.30000000447,212237.952,212621.563,,49,without
screen,html.Screen,2_1_1_1_50,2022-02-04T14:02:29.840Z,,,,,,,,,,,,,,,,,54,,,,,,,,,,,,,,325.03700000149547,,response,,,,100,,,,,,,Space,keypress(Space),,,,,,,,-- --- ---- --- ------ ----- ------- ---- -- --- ------- --<br>------- ---------- ------ -- ----- -- ----- -- ---- ------<br>--- ----- --- --- ------ -------- ----- --- ------ ----- --<br>----- ----- ---------- --- --- ------ ------ ---- -- ------<br>------- --- ------ ----- --- ---- ------- an ---- --- --<br>------- ------,212947.3999999985,212946.6000000015,212604.86,212605.20000000298,212621.563,212954.517,,50,an
screen,html.Screen,2_1_1_1_51,2022-02-04T14:02:30.222Z,,,,,,,,,,,,,,,,,54,,,,,,,,,,,,,,373.7830000044778,,response,,,,100,,,,,,,Space,keypress(Space),,,,,,,,-- --- ---- --- ------ ----- ------- ---- -- --- ------- --<br>------- ---------- ------ -- ----- -- ----- -- ---- ------<br>--- ----- --- --- ------ -------- ----- --- ------ ----- --<br>----- ----- ---------- --- --- ------ ------ ---- -- ------<br>------- --- ------ ----- --- ---- ------- -- easy --- --<br>------- ------,213329.1000000015,213328.30000000447,212937.85,212947.5,212954.517,213337.721,,51,easy
screen,html.Screen,2_1_1_1_52,2022-02-04T14:02:30.497Z,,,,,,,,,,,,,,,,,54,,,,,,,,,,,,,,265.37900000149966,,response,,,,100,,,,,,,Space,keypress(Space),,,,,,,,-- --- ---- --- ------ ----- ------- ---- -- --- ------- --<br>------- ---------- ------ -- ----- -- ----- -- ---- ------<br>--- ----- --- --- ------ -------- ----- --- ------ ----- --<br>----- ----- ---------- --- --- ------ ------ ---- -- ------<br>------- --- ------ ----- --- ---- ------- -- ---- way --<br>------- ------,213603.80000000447,213603.1000000015,213321.064,213329.30000000447,213337.721,213621.069,,52,way
screen,html.Screen,2_1_1_1_53,2022-02-04T14:02:30.908Z,,,,,,,,,,,,,,,,,54,,,,,,,,,,,,,,393.63100000299164,,response,,,,100,,,,,,,Space,keypress(Space),,,,,,,,-- --- ---- --- ------ ----- ------- ---- -- --- ------- --<br>------- ---------- ------ -- ----- -- ----- -- ---- ------<br>--- ----- --- --- ------ -------- ----- --- ------ ----- --<br>----- ----- ---------- --- --- ------ ------ ---- -- ------<br>------- --- ------ ----- --- ---- ------- -- ---- --- of<br>------- ------,214015.30000000447,214014.70000000298,213587.927,213603.8999999985,213621.069,214020.828,,53,of
screen,html.Screen,2_1_1_1_54,2022-02-04T14:02:31.323Z,,,,,,,,,,,,,,,,,54,,,,,,,,,,,,,,408.7720000014815,,response,,,,100,,,,,,,Space,keypress(Space),,,,,,,,-- --- ---- --- ------ ----- ------- ---- -- --- ------- --<br>------- ---------- ------ -- ----- -- ----- -- ---- ------<br>--- ----- --- --- ------ -------- ----- --- ------ ----- --<br>----- ----- ---------- --- --- ------ ------ ---- -- ------<br>------- --- ------ ----- --- ---- ------- -- ---- --- --<br>raising ------,214430.3999999985,214429.6000000015,214004.37,214015.5,214020.828,214437.476,,54,raising
screen,html.Screen,2_1_1_1_55,2022-02-04T14:02:31.919Z,,,,,,,,,,,,,,,,,54,,,,,,,,,,,,,,588.0240000000049,,response,,,,100,,,,,,,Space,keypress(Space),,,,,,,,-- --- ---- --- ------ ----- ------- ---- -- --- ------- --<br>------- ---------- ------ -- ----- -- ----- -- ---- ------<br>--- ----- --- --- ------ -------- ----- --- ------ ----- --<br>----- ----- ---------- --- --- ------ ------ ---- -- ------<br>------- --- ------ ----- --- ---- ------- -- ---- --- --<br>------- money.,215026.20000000298,215025.5,214420.841,214430.5,214437.476,215037.343,,55,money.
Item 100,flow.Loop,2_1_1_1,2022-02-04T14:02:31.919Z,,,,,,,,,,,,,,,,,,,,,,,,,,,,,,,28831.706999999995,,completion,,,,,D,,,,,,,,,,,silence,,,,,215026.5,215025.5,186177.261,186178.8999999985,186193.793,215037.343,,,
Question 1,html.Screen,2_1_1_2,2022-02-04T14:02:34.621Z,,,,,,,,,,,,,,,,,,,,,,,,,,,,true,TRUE,,2690.2570000014966,,response,,,,100,D,,,,,,TRUE,click #choice-1,,,,silence,,,,,217728.6000000015,217727.6000000015,215021.138,215026.6000000015,215037.343,217736.756,,,
Question 2,html.Screen,2_1_1_3,2022-02-04T14:02:36.588Z,,,,,,,,,,,,,,,,,,,,,,,,,,,,true,FALSE,,1958.0440000044764,,response,,,,100,D,,,,,,FALSE,click #choice-2,,,,silence,,,,,219695.70000000298,219694.80000000447,217720.391,217728.80000000447,217736.756,219702.963,,,
Item 100,flow.Sequence,2_1_1,2022-02-04T14:02:36.589Z,,,,,,,,,,,,,,,,,,,,,,,,,,,,,,,43500.57300000446,,completion,,,,,,,,,,,,,,,,,,,,,219695.8999999985,219694.80000000447,176145.756,176161.70000000298,176194.227,219702.963,,,
End of Practice,html.Page,2_1_2,2022-02-04T14:02:42.365Z,,,,,,,,,,,,,,,,,,,,,,,,,,,,,,,5768.637000001501,,form submission,,,,,,,,,,,,,,,,,,,,,225472,225471.6000000015,219686.421,219696,219702.963,225485.234,,,
Practice,flow.Sequence,2_1,2022-02-04T14:02:42.365Z,,,,,,,,,,,,,,,,,,,,,,,,,,,,,,,91317.14200000148,,completion,,,,,,,,,,,,,,,,,,,,,225472.30000000447,225471.6000000015,134138.009,134139.70000000298,134154.458,225485.234,,,
Trap_instruction,html.Page,2_2_0,2022-02-04T14:02:46.420Z,,,,,,,,,,,,,,,,,,,,,,,,,,,,,,,4041.3660000014934,,form submission,,,,,,,,,,,,,,,,,,,,,229526.8999999985,229526.6000000015,225468.461,225472.3999999985,225485.234,229584.215,,,
trap_trial,html.Screen,2_2_1,2022-02-04T14:02:49.453Z,,,,,,,,,,,,,,,,,,,,,,,,,,,,true,1,,2975.2850000000035,,response,,,,,,,,,,,1,click #choice-1,,,,,,,,,232560.5,232559.5,229517.729,229527.1000000015,229584.215,232566.911,,,
end of trap trial,html.Page,2_2_2,2022-02-04T14:02:51.875Z,,,,,,,,,,,,,,,,,,,,,,,,,,,,,,,2414.7890000029874,,form submission,,,,,,,,,,,,,,,,,,,,,234981.8999999985,234981.70000000298,232550.665,232560.6000000015,232566.911,234983.096,,,
Trap 1,flow.Sequence,2_2,2022-02-04T14:02:51.875Z,,,,,,,,,,,,,,,,,,,,,,,,,,,,,,,9496.466000002983,,completion,,,,,,,,,,,,,,,,,,,,,234982.1000000015,234981.70000000298,225468.461,225472.3999999985,225485.234,234983.096,,,
Standby,html.Page,2_3_0,2022-02-04T14:02:59.859Z,,,,,,,,,,,,,,,,,,,,,,,,,,,,,,,7998.338000000018,,timeout,,,,,,,,,,,,,,,,,,,,,242966.1000000015,242965.015,234966.553,234982.30000000447,234983.096,242981.434,,,
Holding screen,html.Screen,2_3_1_0_0,2022-02-04T14:03:06.857Z,,,,,,,,,,,,,,,,,,,,,,,,,,,,,,,6998.573000000004,,timeout,,,,,,,,,,,,,,,,,,,,,249964.30000000447,249963.264,242965.015,242966.30000000447,242981.434,249980.007,,,
screen,html.Screen,2_3_1_0_1_0,2022-02-04T14:03:08.311Z,,,,,,,,,,,,,,,,,11,,,,,,,,,,,,,,1436.4929999999877,,response,,,,4,D,,,,,,Space,keypress(Space),,,,silence,,,,Known -- ---- --- -- --- -------- ------------ ---------- --<br>- ------- ------ --------- -- ------------ -- --- ---- -----<br>------ ---- ---- ------ ------ ------- --- ----- ---------<br>---- --- -------- -------- --- --- -- ------- --- --- -----<br>-- --- ------ ------- --- --- -------- ---- --------- --<br>---------- -- -------- ----------------,251417.70000000298,251416.5,249963.264,249964.6000000015,249980.007,251429.798,,0,Known
screen,html.Screen,2_3_1_0_1_1,2022-02-04T14:03:08.707Z,,,,,,,,,,,,,,,,,11,,,,,,,,,,,,,,384.00200000446057,,response,,,,4,D,,,,,,Space,keypress(Space),,,,silence,,,,----- as ---- --- -- --- -------- ------------ ---------- --<br>- ------- ------ --------- -- ------------ -- --- ---- -----<br>------ ---- ---- ------ ------ ------- --- ----- ---------<br>---- --- -------- -------- --- --- -- ------- --- --- -----<br>-- --- ------ ------- --- --- -------- ---- --------- --<br>---------- -- -------- ----------------,251814.6000000015,251813.80000000447,251413.526,251418,251429.798,251829.578,,1,as
screen,html.Screen,2_3_1_0_1_2,2022-02-04T14:03:08.981Z,,,,,,,,,,,,,,,,,11,,,,,,,,,,,,,,258.32199999850127,,response,,,,4,D,,,,,,Space,keypress(Space),,,,silence,,,,----- -- Rapa --- -- --- -------- ------------ ---------- --<br>- ------- ------ --------- -- ------------ -- --- ---- -----<br>------ ---- ---- ------ ------ ------- --- ----- ---------<br>---- --- -------- -------- --- --- -- ------- --- --- -----<br>-- --- ------ ------- --- --- -------- ---- --------- --<br>---------- -- -------- ----------------,252088.3999999985,252087.8999999985,251813.189,251814.80000000447,251829.578,252096.16,,2,Rapa
screen,html.Screen,2_3_1_0_1_3,2022-02-04T14:03:09.628Z,,,,,,,,,,,,,,,,,11,,,,,,,,,,,,,,638.7399999985064,,response,,,,4,D,,,,,,Space,keypress(Space),,,,silence,,,,----- -- ---- Nui -- --- -------- ------------ ---------- --<br>- ------- ------ --------- -- ------------ -- --- ---- -----<br>------ ---- ---- ------ ------ ------- --- ----- ---------<br>---- --- -------- -------- --- --- -- ------- --- --- -----<br>-- --- ------ ------- --- --- -------- ---- --------- --<br>---------- -- -------- ----------------,252735.6000000015,252734.8999999985,252079.667,252088.6000000015,252096.16,252746.015,,3,Nui
screen,html.Screen,2_3_1_0_1_4,2022-02-04T14:03:10.102Z,,,,,,,,,,,,,,,,,11,,,,,,,,,,,,,,462.58500000147615,,response,,,,4,D,,,,,,Space,keypress(Space),,,,silence,,,,----- -- ---- --- to --- -------- ------------ ---------- --<br>- ------- ------ --------- -- ------------ -- --- ---- -----<br>------ ---- ---- ------ ------ ------- --- ----- ---------<br>---- --- -------- -------- --- --- -- ------- --- --- -----<br>-- --- ------ ------- --- --- -------- ---- --------- --<br>---------- -- -------- ----------------,253209.20000000298,253208.6000000015,252729.501,252735.70000000298,252746.015,253212.59,,4,to
screen,html.Screen,2_3_1_0_1_5,2022-02-04T14:03:10.504Z,,,,,,,,,,,,,,,,,11,,,,,,,,,,,,,,397.5100000014936,,response,,,,4,D,,,,,,Space,keypress(Space),,,,silence,,,,----- -- ---- --- -- the -------- ------------ ---------- --<br>- ------- ------ --------- -- ------------ -- --- ---- -----<br>------ ---- ---- ------ ------ ------- --- ----- ---------<br>---- --- -------- -------- --- --- -- ------- --- --- -----<br>-- --- ------ ------- --- --- -------- ---- --------- --<br>---------- -- -------- ----------------,253610.70000000298,253610.1000000015,253196.112,253209.3999999985,253212.59,253630.384,,5,the
screen,html.Screen,2_3_1_0_1_6,2022-02-04T14:03:10.936Z,,,,,,,,,,,,,,,,,11,,,,,,,,,,,,,,411.6160000000091,,response,,,,4,D,,,,,,Space,keypress(Space),,,,silence,,,,----- -- ---- --- -- --- island's ------------ ---------- --<br>- ------- ------ --------- -- ------------ -- --- ---- -----<br>------ ---- ---- ------ ------ ------- --- ----- ---------<br>---- --- -------- -------- --- --- -- ------- --- --- -----<br>-- --- ------ ------- --- --- -------- ---- --------- --<br>---------- -- -------- ----------------,254042.70000000298,254042,253595.88,253610.80000000447,253630.384,254045.676,,6,island's
screen,html.Screen,2_3_1_0_1_7,2022-02-04T14:03:11.210Z,,,,,,,,,,,,,,,,,11,,,,,,,,,,,,,,270.42400000148336,,response,,,,4,D,,,,,,Space,keypress(Space),,,,silence,,,,"----- -- ---- --- -- --- -------- inhabitants, ---------- --<br>- ------- ------ --------- -- ------------ -- --- ---- -----<br>------ ---- ---- ------ ------ ------- --- ----- ---------<br>---- --- -------- -------- --- --- -- ------- --- --- -----<br>-- --- ------ ------- --- --- -------- ---- --------- --<br>---------- -- -------- ----------------",254317.1000000015,254316.1000000015,254029.13,254042.80000000447,254045.676,254329.087,,7,"inhabitants,"
screen,html.Screen,2_3_1_0_1_8,2022-02-04T14:03:12.747Z,,,,,,,,,,,,,,,,,11,,,,,,,,,,,,,,1524.6130000029807,,response,,,,4,D,,,,,,Space,keypress(Space),,,,silence,,,,----- -- ---- --- -- --- -------- ------------ Rongorongo --<br>- ------- ------ --------- -- ------------ -- --- ---- -----<br>------ ---- ---- ------ ------ ------- --- ----- ---------<br>---- --- -------- -------- --- --- -- ------- --- --- -----<br>-- --- ------ ------- --- --- -------- ---- --------- --<br>---------- -- -------- ----------------,255854.3999999985,255853.70000000298,254312.315,254317.20000000298,254329.087,255862.148,,8,Rongorongo
screen,html.Screen,2_3_1_0_1_9,2022-02-04T14:03:13.494Z,,,,,,,,,,,,,,,,,11,,,,,,,,,,,,,,738.0520000029937,,response,,,,4,D,,,,,,Space,keypress(Space),,,,silence,,,,----- -- ---- --- -- --- -------- ------------ ---------- is<br>- ------- ------ --------- -- ------------ -- --- ---- -----<br>------ ---- ---- ------ ------ ------- --- ----- ---------<br>---- --- -------- -------- --- --- -- ------- --- --- -----<br>-- --- ------ ------- --- --- -------- ---- --------- --<br>---------- -- -------- ----------------,256600.8999999985,256600.20000000298,255845.633,255854.6000000015,255862.148,256612.214,,9,is
screen,html.Screen,2_3_1_0_1_10,2022-02-04T14:03:13.886Z,,,,,,,,,,,,,,,,,11,,,,,,,,,,,,,,380.3860000014829,,response,,,,4,D,,,,,,Space,keypress(Space),,,,silence,,,,----- -- ---- --- -- --- -------- ------------ ---------- --<br>a ------- ------ --------- -- ------------ -- --- ---- -----<br>------ ---- ---- ------ ------ ------- --- ----- ---------<br>---- --- -------- -------- --- --- -- ------- --- --- -----<br>-- --- ------ ------- --- --- -------- ---- --------- --<br>---------- -- -------- ----------------,256993.3999999985,256992.6000000015,256595.628,256601,256612.214,257026.946,,10,a
screen,html.Screen,2_3_1_0_1_11,2022-02-04T14:03:14.107Z,,,,,,,,,,,,,,,,,11,,,,,,,,,,,,,,186.65400000149384,,response,,,,4,D,,,,,,Space,keypress(Space),,,,silence,,,,----- -- ---- --- -- --- -------- ------------ ---------- --<br>- writing ------ --------- -- ------------ -- --- ---- -----<br>------ ---- ---- ------ ------ ------- --- ----- ---------<br>---- --- -------- -------- --- --- -- ------- --- --- -----<br>-- --- ------ ------- --- --- -------- ---- --------- --<br>---------- -- -------- ----------------,257214.5,257213.6000000015,256978.498,256993.6000000015,257026.946,257228.455,,11,writing
screen,html.Screen,2_3_1_0_1_12,2022-02-04T14:03:14.750Z,,,,,,,,,,,,,,,,,11,,,,,,,,,,,,,,628.3450000044832,,response,,,,4,D,,,,,,Space,keypress(Space),,,,silence,,,,----- -- ---- --- -- --- -------- ------------ ---------- --<br>- ------- system --------- -- ------------ -- --- ---- -----<br>------ ---- ---- ------ ------ ------- --- ----- ---------<br>---- --- -------- -------- --- --- -- ------- --- --- -----<br>-- --- ------ ------- --- --- -------- ---- --------- --<br>---------- -- -------- ----------------,257857.6000000015,257856.80000000447,257211.976,257214.70000000298,257228.455,257861.52,,12,system
screen,html.Screen,2_3_1_0_1_13,2022-02-04T14:03:15.257Z,,,,,,,,,,,,,,,,,11,,,,,,,,,,,,,,501.37999999852036,,response,,,,4,D,,,,,,Space,keypress(Space),,,,silence,,,,----- -- ---- --- -- --- -------- ------------ ---------- --<br>- ------- ------ comprised -- ------------ -- --- ---- -----<br>------ ---- ---- ------ ------ ------- --- ----- ---------<br>---- --- -------- -------- --- --- -- ------- --- --- -----<br>-- --- ------ ------- --- --- -------- ---- --------- --<br>---------- -- -------- ----------------,258363.8999999985,258362.8999999985,257845.362,257857.70000000298,257861.52,258378.195,,13,comprised
screen,html.Screen,2_3_1_0_1_14,2022-02-04T14:03:15.654Z,,,,,,,,,,,,,,,,,11,,,,,,,,,,,,,,382.40500000148313,,response,,,,4,D,,,,,,Space,keypress(Space),,,,silence,,,,----- -- ---- --- -- --- -------- ------------ ---------- --<br>- ------- ------ --------- of ------------ -- --- ---- -----<br>------ ---- ---- ------ ------ ------- --- ----- ---------<br>---- --- -------- -------- --- --- -- ------- --- --- -----<br>-- --- ------ ------- --- --- -------- ---- --------- --<br>---------- -- -------- ----------------,258761.3999999985,258760.6000000015,258361.847,258364,258378.195,258778.05,,14,of
screen,html.Screen,2_3_1_0_1_15,2022-02-04T14:03:16.761Z,,,,,,,,,,,,,,,,,11,,,,,,,,,,,,,,1089.6500000029919,,response,,,,4,D,,,,,,Space,keypress(Space),,,,silence,,,,----- -- ---- --- -- --- -------- ------------ ---------- --<br>- ------- ------ --------- -- pictographs. -- --- ---- -----<br>------ ---- ---- ------ ------ ------- --- ----- ---------<br>---- --- -------- -------- --- --- -- ------- --- --- -----<br>-- --- ------ ------- --- --- -------- ---- --------- --<br>---------- -- -------- ----------------,259868.3999999985,259867.70000000298,258761.442,258761.6000000015,258778.05,259877.81,,15,pictographs.
screen,html.Screen,2_3_1_0_1_16,2022-02-04T14:03:17.356Z,,,,,,,,,,,,,,,,,11,,,,,,,,,,,,,,584.2900000014924,,response,,,,4,D,,,,,,Space,keypress(Space),,,,silence,,,,----- -- ---- --- -- --- -------- ------------ ---------- --<br>- ------- ------ --------- -- ------------ It --- ---- -----<br>------ ---- ---- ------ ------ ------- --- ----- ---------<br>---- --- -------- -------- --- --- -- ------- --- --- -----<br>-- --- ------ ------- --- --- -------- ---- --------- --<br>---------- -- -------- ----------------,260462.80000000447,260462.1000000015,259861.634,259868.5,259877.81,260477.689,,16,It
screen,html.Screen,2_3_1_0_1_17,2022-02-04T14:03:17.610Z,,,,,,,,,,,,,,,,,11,,,,,,,,,,,,,,238.91100000147708,,response,,,,4,D,,,,,,Space,keypress(Space),,,,silence,,,,----- -- ---- --- -- --- -------- ------------ ---------- --<br>- ------- ------ --------- -- ------------ -- has ---- -----<br>------ ---- ---- ------ ------ ------- --- ----- ---------<br>---- --- -------- -------- --- --- -- ------- --- --- -----<br>-- --- ------ ------- --- --- -------- ---- --------- --<br>---------- -- -------- ----------------,260717.3999999985,260716.6000000015,260461.099,260463,260477.689,260727.674,,17,has
screen,html.Screen,2_3_1_0_1_18,2022-02-04T14:03:18.009Z,,,,,,,,,,,,,,,,,11,,,,,,,,,,,,,,387.82600000000093,,response,,,,4,D,,,,,,Space,keypress(Space),,,,silence,,,,----- -- ---- --- -- --- -------- ------------ ---------- --<br>- ------- ------ --------- -- ------------ -- --- been -----<br>------ ---- ---- ------ ------ ------- --- ----- ---------<br>---- --- -------- -------- --- --- -- ------- --- --- -----<br>-- --- ------ ------- --- --- -------- ---- --------- --<br>---------- -- -------- ----------------,261116.20000000298,261115.5,260711.217,260717.5,260727.674,261127.552,,18,been
screen,html.Screen,2_3_1_0_1_19,2022-02-04T14:03:18.430Z,,,,,,,,,,,,,,,,,11,,,,,,,,,,,,,,409.2480000044743,,response,,,,4,D,,,,,,Space,keypress(Space),,,,silence,,,,----- -- ---- --- -- --- -------- ------------ ---------- --<br>- ------- ------ --------- -- ------------ -- --- ---- found<br>------ ---- ---- ------ ------ ------- --- ----- ---------<br>---- --- -------- -------- --- --- -- ------- --- --- -----<br>-- --- ------ ------- --- --- -------- ---- --------- --<br>---------- -- -------- ----------------,261537.5,261536.80000000447,261110.947,261116.30000000447,261127.552,261544.18,,19,found
screen,html.Screen,2_3_1_0_1_20,2022-02-04T14:03:18.892Z,,,,,,,,,,,,,,,,,11,,,,,,,,,,,,,,453.5200000029872,,response,,,,4,D,,,,,,Space,keypress(Space),,,,silence,,,,----- -- ---- --- -- --- -------- ------------ ---------- --<br>- ------- ------ --------- -- ------------ -- --- ---- -----<br>carved ---- ---- ------ ------ ------- --- ----- ---------<br>---- --- -------- -------- --- --- -- ------- --- --- -----<br>-- --- ------ ------- --- --- -------- ---- --------- --<br>---------- -- -------- ----------------,261998.8999999985,261997.70000000298,261527.962,261537.6000000015,261544.18,262010.725,,20,carved
screen,html.Screen,2_3_1_0_1_21,2022-02-04T14:03:19.209Z,,,,,,,,,,,,,,,,,11,,,,,,,,,,,,,,305.0750000044645,,response,,,,4,D,,,,,,Space,keypress(Space),,,,silence,,,,----- -- ---- --- -- --- -------- ------------ ---------- --<br>- ------- ------ --------- -- ------------ -- --- ---- -----<br>------ into ---- ------ ------ ------- --- ----- ---------<br>---- --- -------- -------- --- --- -- ------- --- --- -----<br>-- --- ------ ------- --- --- -------- ---- --------- --<br>---------- -- -------- ----------------,262316.6000000015,262315.80000000447,261994.161,261999,262010.725,262327.342,,21,into
screen,html.Screen,2_3_1_0_1_22,2022-02-04T14:03:19.603Z,,,,,,,,,,,,,,,,,11,,,,,,,,,,,,,,382.6579999999958,,response,,,,4,D,,,,,,Space,keypress(Space),,,,silence,,,,----- -- ---- --- -- --- -------- ------------ ---------- --<br>- ------- ------ --------- -- ------------ -- --- ---- -----<br>------ ---- many ------ ------ ------- --- ----- ---------<br>---- --- -------- -------- --- --- -- ------- --- --- -----<br>-- --- ------ ------- --- --- -------- ---- --------- --<br>---------- -- -------- ----------------,262710.6000000015,262710,262310.95,262316.6000000015,262327.342,262727.321,,22,many
screen,html.Screen,2_3_1_0_1_23,2022-02-04T14:03:20.092Z,,,,,,,,,,,,,,,,,11,,,,,,,,,,,,,,471.0789999985136,,response,,,,4,D,,,,,,Space,keypress(Space),,,,silence,,,,----- -- ---- --- -- --- -------- ------------ ---------- --<br>- ------- ------ --------- -- ------------ -- --- ---- -----<br>------ ---- ---- oblong ------ ------- --- ----- ---------<br>---- --- -------- -------- --- --- -- ------- --- --- -----<br>-- --- ------ ------- --- --- -------- ---- --------- --<br>---------- -- -------- ----------------,263198.8999999985,263198.3999999985,262710.879,262710.80000000447,262727.321,263210.58,,23,oblong
screen,html.Screen,2_3_1_0_1_24,2022-02-04T14:03:20.469Z,,,,,,,,,,,,,,,,,11,,,,,,,,,,,,,,365.22000000445405,,response,,,,4,D,,,,,,Space,keypress(Space),,,,silence,,,,----- -- ---- --- -- --- -------- ------------ ---------- --<br>- ------- ------ --------- -- ------------ -- --- ---- -----<br>------ ---- ---- ------ wooden ------- --- ----- ---------<br>---- --- -------- -------- --- --- -- ------- --- --- -----<br>-- --- ------ ------- --- --- -------- ---- --------- --<br>---------- -- -------- ----------------,263576.5,263575.80000000447,263193.873,263198.8999999985,263210.58,263593.902,,24,wooden
screen,html.Screen,2_3_1_0_1_25,2022-02-04T14:03:20.939Z,,,,,,,,,,,,,,,,,11,,,,,,,,,,,,,,451.09799999999814,,response,,,,4,D,,,,,,Space,keypress(Space),,,,silence,,,,----- -- ---- --- -- --- -------- ------------ ---------- --<br>- ------- ------ --------- -- ------------ -- --- ---- -----<br>------ ---- ---- ------ ------ tablets --- ----- ---------<br>---- --- -------- -------- --- --- -- ------- --- --- -----<br>-- --- ------ ------- --- --- -------- ---- --------- --<br>---------- -- -------- ----------------,264045.80000000447,264045,263560.842,263576.700000003,263593.902,264060.247,,25,tablets
screen,html.Screen,2_3_1_0_1_26,2022-02-04T14:03:21.330Z,,,,,,,,,,,,,,,,,11,,,,,,,,,,,,,,375.8530000015162,,response,,,,4,D,,,,,,Space,keypress(Space),,,,silence,,,,----- -- ---- --- -- --- -------- ------------ ---------- --<br>- ------- ------ --------- -- ------------ -- --- ---- -----<br>------ ---- ---- ------ ------ ------- and ----- ---------<br>---- --- -------- -------- --- --- -- ------- --- --- -----<br>-- --- ------ ------- --- --- -------- ---- --------- --<br>---------- -- -------- ----------------,264436.700000003,264436.1000000015,264043.717,264046,264060.247,264443.899,,26,and
screen,html.Screen,2_3_1_0_1_27,2022-02-04T14:03:21.797Z,,,,,,,,,,,,,,,,,11,,,,,,,,,,,,,,459.20100000151433,,response,,,,4,D,,,,,,Space,keypress(Space),,,,silence,,,,----- -- ---- --- -- --- -------- ------------ ---------- --<br>- ------- ------ --------- -- ------------ -- --- ---- -----<br>------ ---- ---- ------ ------ ------- --- other ---------<br>---- --- -------- -------- --- --- -- ------- --- --- -----<br>-- --- ------ ------- --- --- -------- ---- --------- --<br>---------- -- -------- ----------------,264903.8999999985,264903.1000000015,264427.265,264436.8999999985,264443.899,264910.031,,27,other
screen,html.Screen,2_3_1_0_1_28,2022-02-04T14:03:22.260Z,,,,,,,,,,,,,,,,,11,,,,,,,,,,,,,,456.86899999849265,,response,,,,4,D,,,,,,Space,keypress(Space),,,,silence,,,,----- -- ---- --- -- --- -------- ------------ ---------- --<br>- ------- ------ --------- -- ------------ -- --- ---- -----<br>------ ---- ---- ------ ------ ------- --- ----- artifacts<br>---- --- -------- -------- --- --- -- ------- --- --- -----<br>-- --- ------ ------- --- --- -------- ---- --------- --<br>---------- -- -------- ----------------,265367.6000000015,265366.8999999985,264893.826,264904,264910.031,265376.688,,28,artifacts
screen,html.Screen,2_3_1_0_1_29,2022-02-04T14:03:22.671Z,,,,,,,,,,,,,,,,,11,,,,,,,,,,,,,,401.0120000029565,,response,,,,4,D,,,,,,Space,keypress(Space),,,,silence,,,,----- -- ---- --- -- --- -------- ------------ ---------- --<br>- ------- ------ --------- -- ------------ -- --- ---- -----<br>------ ---- ---- ------ ------ ------- --- ----- ---------<br>from --- -------- -------- --- --- -- ------- --- --- -----<br>-- --- ------ ------- --- --- -------- ---- --------- --<br>---------- -- -------- ----------------,265778.6000000015,265777.700000003,265360.116,265367.80000000447,265376.688,265793.321,,29,from
screen,html.Screen,2_3_1_0_1_30,2022-02-04T14:03:23.080Z,,,,,,,,,,,,,,,,,11,,,,,,,,,,,,,,393.37900000298396,,response,,,,4,D,,,,,,Space,keypress(Space),,,,silence,,,,----- -- ---- --- -- --- -------- ------------ ---------- --<br>- ------- ------ --------- -- ------------ -- --- ---- -----<br>------ ---- ---- ------ ------ ------- --- ----- ---------<br>---- the -------- -------- --- --- -- ------- --- --- -----<br>-- --- ------ ------- --- --- -------- ---- --------- --<br>---------- -- -------- ----------------,266187.5,266186.700000003,265776.666,265778.700000003,265793.321,266193.207,,30,the
screen,html.Screen,2_3_1_0_1_31,2022-02-04T14:03:23.538Z,,,,,,,,,,,,,,,,,11,,,,,,,,,,,,,,451.192999998515,,response,,,,4,D,,,,,,Space,keypress(Space),,,,silence,,,,----- -- ---- --- -- --- -------- ------------ ---------- --<br>- ------- ------ --------- -- ------------ -- --- ---- -----<br>------ ---- ---- ------ ------ ------- --- ----- ---------<br>---- --- island's -------- --- --- -- ------- --- --- -----<br>-- --- ------ ------- --- --- -------- ---- --------- --<br>---------- -- -------- ----------------,266645.30000000447,266644.3999999985,266177.026,266187.700000003,266193.207,266659.801,,31,island's
screen,html.Screen,2_3_1_0_1_32,2022-02-04T14:03:24.651Z,,,,,,,,,,,,,,,,,11,,,,,,,,,,,,,,1097.6990000000224,,response,,,,4,D,,,,,,Space,keypress(Space),,,,silence,,,,----- -- ---- --- -- --- -------- ------------ ---------- --<br>- ------- ------ --------- -- ------------ -- --- ---- -----<br>------ ---- ---- ------ ------ ------- --- ----- ---------<br>---- --- -------- history. --- --- -- ------- --- --- -----<br>-- --- ------ ------- --- --- -------- ---- --------- --<br>---------- -- -------- ----------------,267758.1000000015,267757.5,266643.33,266645.3999999985,266659.801,267783.165,,32,history.
screen,html.Screen,2_3_1_0_1_33,2022-02-04T14:03:25.306Z,,,,,,,,,,,,,,,,,11,,,,,,,,,,,,,,629.6350000044913,,response,,,,4,D,,,,,,Space,keypress(Space),,,,silence,,,,----- -- ---- --- -- --- -------- ------------ ---------- --<br>- ------- ------ --------- -- ------------ -- --- ---- -----<br>------ ---- ---- ------ ------ ------- --- ----- ---------<br>---- --- -------- -------- The --- -- ------- --- --- -----<br>-- --- ------ ------- --- --- -------- ---- --------- --<br>---------- -- -------- ----------------,268413.5,268412.80000000447,267743.211,267758.30000000447,267783.165,268426.019,,33,The
screen,html.Screen,2_3_1_0_1_34,2022-02-04T14:03:25.637Z,,,,,,,,,,,,,,,,,11,,,,,,,,,,,,,,317.7810000044992,,response,,,,4,D,,,,,,Space,keypress(Space),,,,silence,,,,----- -- ---- --- -- --- -------- ------------ ---------- --<br>- ------- ------ --------- -- ------------ -- --- ---- -----<br>------ ---- ---- ------ ------ ------- --- ----- ---------<br>---- --- -------- -------- --- art -- ------- --- --- -----<br>-- --- ------ ------- --- --- -------- ---- --------- --<br>---------- -- -------- ----------------,268744.700000003,268743.80000000447,268409.427,268413.6000000015,268426.019,268759.252,,34,art
screen,html.Screen,2_3_1_0_1_35,2022-02-04T14:03:26.038Z,,,,,,,,,,,,,,,,,11,,,,,,,,,,,,,,384.7480000000214,,response,,,,4,D,,,,,,Space,keypress(Space),,,,silence,,,,----- -- ---- --- -- --- -------- ------------ ---------- --<br>- ------- ------ --------- -- ------------ -- --- ---- -----<br>------ ---- ---- ------ ------ ------- --- ----- ---------<br>---- --- -------- -------- --- --- of ------- --- --- -----<br>-- --- ------ ------- --- --- -------- ---- --------- --<br>---------- -- -------- ----------------,269144.8999999985,269144,268742.649,268744.80000000447,268759.252,269159.576,,35,of
screen,html.Screen,2_3_1_0_1_36,2022-02-04T14:03:26.439Z,,,,,,,,,,,,,,,,,11,,,,,,,,,,,,,,386.0240000014892,,response,,,,4,D,,,,,,Space,keypress(Space),,,,silence,,,,----- -- ---- --- -- --- -------- ------------ ---------- --<br>- ------- ------ --------- -- ------------ -- --- ---- -----<br>------ ---- ---- ------ ------ ------- --- ----- ---------<br>---- --- -------- -------- --- --- -- writing --- --- -----<br>-- --- ------ ------- --- --- -------- ---- --------- --<br>---------- -- -------- ----------------,269546.30000000447,269545.6000000015,269142.933,269145,269159.576,269559.153,,36,writing
screen,html.Screen,2_3_1_0_1_37,2022-02-04T14:03:26.796Z,,,,,,,,,,,,,,,,,11,,,,,,,,,,,,,,342.94700000149896,,response,,,,4,D,,,,,,Space,keypress(Space),,,,silence,,,,----- -- ---- --- -- --- -------- ------------ ---------- --<br>- ------- ------ --------- -- ------------ -- --- ---- -----<br>------ ---- ---- ------ ------ ------- --- ----- ---------<br>---- --- -------- -------- --- --- -- ------- was --- -----<br>-- --- ------ ------- --- --- -------- ---- --------- --<br>---------- -- -------- ----------------,269902.80000000447,269902.1000000015,269542.75,269546.3999999985,269559.153,269909.083,,37,was
screen,html.Screen,2_3_1_0_1_38,2022-02-04T14:03:27.024Z,,,,,,,,,,,,,,,,,11,,,,,,,,,,,,,,221.61700000299606,,response,,,,4,D,,,,,,Space,keypress(Space),,,,silence,,,,----- -- ---- --- -- --- -------- ------------ ---------- --<br>- ------- ------ --------- -- ------------ -- --- ---- -----<br>------ ---- ---- ------ ------ ------- --- ----- ---------<br>---- --- -------- -------- --- --- -- ------- --- not -----<br>-- --- ------ ------- --- --- -------- ---- --------- --<br>---------- -- -------- ----------------,270131.3999999985,270130.700000003,269892.768,269902.8999999985,269909.083,270142.682,,38,not
screen,html.Screen,2_3_1_0_1_39,2022-02-04T14:03:27.433Z,,,,,,,,,,,,,,,,,11,,,,,,,,,,,,,,397.01800000300864,,response,,,,4,D,,,,,,Space,keypress(Space),,,,silence,,,,----- -- ---- --- -- --- -------- ------------ ---------- --<br>- ------- ------ --------- -- ------------ -- --- ---- -----<br>------ ---- ---- ------ ------ ------- --- ----- ---------<br>---- --- -------- -------- --- --- -- ------- --- --- known<br>-- --- ------ ------- --- --- -------- ---- --------- --<br>---------- -- -------- ----------------,270540.6000000015,270539.700000003,270126.034,270131.6000000015,270142.682,270571.474,,39,known
