sender,sender_type,sender_id,timestamp,meta,,Blues,Classical,Country,Dance,Electronic,Folk,Gospel,Hip-Hop,Jazz,Latin,Musical/Film,New-age,Pop,Prolific_id,Provo_ID,R&B,Rap,Reggae,Religious,Rock,Soul,Swing,Traditional,age,artist_name,correct,correctResponse,distraction,duration,education,ended_on,familiarity,gender,headphone_check_performance,item,list,music_frequency,offensiveness,pleasantness,position_correct,preference,response,response_action,snippet_file,song_name,song_rating,sound,stimulus_1,stimulus_2,stimulus_3,text,time_commit,time_end,time_render,time_run,time_show,time_switch,url,word,word_ID
Prolific ID,html.Form,0,2022-02-18T13:04:36.872Z,"{""labjs_version"":""20.2.2"",""labjs_build"":{""flavor"":""production"",""commit"":""a25486e0c714a0ae2ce03ff94b7bb6896854dcfa""},""location"":""https://run.pavlovia.org/mvasilev/prolific2_music_f/"",""userAgent"":""Mozilla/5.0 (X11; CrOS x86_64 14388.52.0) AppleWebKit/537.36 (KHTML, like Gecko) Chrome/98.0.4758.91 Safari/537.36"",""platform"":""Linux x86_64"",""language"":""en-GB"",""locale"":""en-GB"",""timeZone"":""Europe/London"",""timezoneOffset"":0,""screen_width"":1920,""screen_height"":1080,""scroll_width"":1872,""scroll_height"":961,""window_innerWidth"":1872,""window_innerHeight"":1009,""devicePixelRatio"":1}",,,,,,,,,,,,,,,6148b49d6ac652cefd310332,,,,,,,,,,,,,,,10658.603,,form submission,,,,,,,,,,,,,,,,,,,,,32119.300000000047,32118,21426.093,21437.5,21459.397,32133.419,{},,
Introduction,html.Screen,1_0,2022-02-18T13:09:31.101Z,,,,,,,,,,,,,,,,,,,,,,,,,,,,,,,294209.7810000001,,response,,,,,,,,,,,continue,click button,,,,,,,,,326348.6,326343.20000000007,32100.115,32120.400000000023,32133.419,326359.967,,,
Volume calibration,html.Screen,1_1,2022-02-18T13:09:47.136Z,,,,,,,,,,,,,,,,,,,,,,,,,,,,,,,16015.833000000042,,response,,,,,,,,,,,continue,click button,,,,,,,,,342383,342375.80000000005,326343.315,326348.9,326359.967,342395.965,,,
Task instructions,html.Screen,1_2,2022-02-18T13:09:52.483Z,,,,,,,,,,,,,,,,,,,,,,,,,,,,,,,5332.134999999951,,response,,,,,,,,,,,continue,click button,,,,,,,,,347730.20000000007,347728.1,342379.313,342383.30000000005,342395.965,347741.291,,,
Sounds,html.Screen,1_3_0_0,2022-02-18T13:09:56.729Z,,,,,,,,,,,,,,,,,,,,,,,,,,,,,,,4246.280999999959,,timeout,,,,,,,,,3,,,,,,,,I,O,S,,351976.5,351970.92,347724.639,347730.6,347741.291,351987.572,,,
Judgement,html.Screen,1_3_0_1,2022-02-18T13:10:00.979Z,,,,,,,,,,,,,,,,,,,,,,,,,,,,true,3,,4236.828000000038,,response,,,,,,,,,3,,3,click #choice-3,,,,,I,O,S,,356226.6,356224.4,351970.92,351976.80000000005,351987.572,356233.895,,,
Trial,flow.Sequence,1_3_0,2022-02-18T13:10:00.985Z,,,,,,,,,,,,,,,,,,,,,,,,,,,,,,,8483.108999999997,,completion,,,,,,,,,3,,,,,,,,I,O,S,,356232.20000000007,356224.4,347724.639,347730.5,347741.291,356233.895,,,
Sounds,html.Screen,1_3_1_0,2022-02-18T13:10:05.218Z,,,,,,,,,,,,,,,,,,,,,,,,,,,,,,,4246.2639999999665,,timeout,,,,,,,,,1,,,,,,,,S,O,I,,360465.1,360463.507,356217.243,356232.80000000005,356233.895,360480.159,,,
Judgement,html.Screen,1_3_1_1,2022-02-18T13:10:06.380Z,,,,,,,,,,,,,,,,,,,,,,,,,,,,true,1,,1145.1410000000615,,response,,,,,,,,,1,,1,click #choice-1,,,,,S,O,I,,361627.4,361625.30000000005,360463.507,360465.5,360480.159,361645.837,,,
Trial,flow.Sequence,1_3_1,2022-02-18T13:10:06.381Z,,,,,,,,,,,,,,,,,,,,,,,,,,,,,,,5391.405000000028,,completion,,,,,,,,,1,,,,,,,,S,O,I,,361628,361625.30000000005,356217.243,356232.5,356233.895,361645.837,,,
Sounds,html.Screen,1_3_2_0,2022-02-18T13:10:10.629Z,,,,,,,,,,,,,,,,,,,,,,,,,,,,,,,4246.262999999977,,timeout,,,,,,,,,2,,,,,,,,I,S,O,,365876.80000000005,365875.448,361629.185,361628.4,361645.837,365892.1,,,
Judgement,html.Screen,1_3_2_1,2022-02-18T13:10:11.647Z,,,,,,,,,,,,,,,,,,,,,,,,,,,,false,2,,999.5,,response,,,,,,,,,2,,3,click #choice-3,,,,,I,S,O,,366893.9,366891.6,365875.448,365877.20000000007,365892.1,366907.914,,,
Trial,flow.Sequence,1_3_2,2022-02-18T13:10:11.647Z,,,,,,,,,,,,,,,,,,,,,,,,,,,,,,,5245.762999999977,,completion,,,,,,,,,2,,,,,,,,I,S,O,,366894.5,366891.6,361629.185,361628.30000000005,361645.837,366907.914,,,
Sounds,html.Screen,1_3_3_0,2022-02-18T13:10:15.892Z,,,,,,,,,,,,,,,,,,,,,,,,,,,,,,,4246.252000000037,,timeout,,,,,,,,,3,,,,,,,,O,I,S,,371139.1,371137.514,366891.262,366894.80000000005,366907.914,371154.166,,,
Judgement,html.Screen,1_3_3_1,2022-02-18T13:10:16.320Z,,,,,,,,,,,,,,,,,,,,,,,,,,,,true,3,,411.63400000002,,response,,,,,,,,,3,,3,click #choice-3,,,,,O,I,S,,371567.4,371565.80000000005,371137.514,371139.4,371154.166,371570.509,,,
Trial,flow.Sequence,1_3_3,2022-02-18T13:10:16.320Z,,,,,,,,,,,,,,,,,,,,,,,,,,,,,,,4657.886000000057,,completion,,,,,,,,,3,,,,,,,,O,I,S,,371567.80000000005,371565.80000000005,366891.262,366894.70000000007,366907.914,371570.509,,,
Sounds,html.Screen,1_3_4_0,2022-02-18T13:10:20.554Z,,,,,,,,,,,,,,,,,,,,,,,,,,,,,,,4246.264999999956,,timeout,,,,,,,,,2,,,,,,,,O,S,I,,375801.30000000005,375800.122,371553.857,371568.1,371570.509,375816.774,,,
Judgement,html.Screen,1_3_4_1,2022-02-18T13:10:21.170Z,,,,,,,,,,,,,,,,,,,,,,,,,,,,true,2,,598.4260000000941,,response,,,,,,,,,2,,2,click #choice-2,,,,,O,S,I,,376417.20000000007,376415.20000000007,375800.122,375801.5,375816.774,376416.273,,,
Trial,flow.Sequence,1_3_4,2022-02-18T13:10:21.170Z,,,,,,,,,,,,,,,,,,,,,,,,,,,,,,,4844.69100000005,,completion,,,,,,,,,2,,,,,,,,O,S,I,,376417.5,376415.20000000007,371553.857,371568,371570.509,376416.273,,,
Sounds,html.Screen,1_3_5_0,2022-02-18T13:10:25.400Z,,,,,,,,,,,,,,,,,,,,,,,,,,,,,,,4246.271000000008,,timeout,,,,,,,,,1,,,,,,,,S,I,O,,380647.30000000005,380645.892,376399.621,376417.80000000005,376416.273,380662.544,,,
Judgement,html.Screen,1_3_5_1,2022-02-18T13:10:26.426Z,,,,,,,,,,,,,,,,,,,,,,,,,,,,true,1,,1008.8560000000289,,response,,,,,,,,,1,,1,click #choice-1,,,,,S,I,O,,381673.5,381671.4,380645.892,380647.6,380662.544,381695.006,,,
Trial,flow.Sequence,1_3_5,2022-02-18T13:10:26.426Z,,,,,,,,,,,,,,,,,,,,,,,,,,,,,,,5255.127000000037,,completion,,,,,,,,,1,,,,,,,,S,I,O,,381673.80000000005,381671.4,376399.621,376417.80000000005,376416.273,381695.006,,,
Task,flow.Loop,1_3,2022-02-18T13:10:26.437Z,,,,,,,,,,,,,,,,,,,,,,,,,,,,,,,33930.109,,completion,,,0.8333333333333334,,,,,,,,,,,,,,,,,,381684.5,381671.4,347724.639,347730.4,347741.291,381695.006,,,
Trap,html.Screen,1_4,2022-02-18T13:10:26.441Z,,,,,,,,,,,,,,,,,,,,,,,,,,,,,,,NaN,,skipped,,,,,,,,,,,,,,,,,,,,,381688,381671.4,,381687.6,,381695.006,,,
Thanks,html.Screen,1_5,2022-02-18T13:10:37.158Z,,,,,,,,,,,,,,,,,,,,,,,,,,,,,,,10708.694000000076,,response,,,,,,,,,,,continue,click button,,,,,,,,,392405.70000000007,392403.70000000007,381678.354,381688.30000000005,381695.006,401844.014,,,
Headphone screening,flow.Sequence,1,2022-02-18T13:10:37.159Z,,,,,,,,,,,,,,,,,,,,,,,,,,,,,,,360270.2810000001,,completion,,,,,,,,,,,,,,,,,,,,,392406.4,392403.70000000007,32100.115,32120.400000000023,32133.419,401844.014,,,
Instructions,html.Page,2_0,2022-02-18T13:11:18.102Z,,,,,,,,,,,,,,,,,,,,,,,,,,,,,,,31504.286000000022,,form submission,,,,,,,,,,,,,,,,,,,,,433349.1,433348.30000000005,401810.71,401841.5,401844.014,433366.563,,,
Holding screen,html.Screen,2_1_0_0,2022-02-18T13:11:28.112Z,,,,,,,,,,,,,,,,,,,,,,,,,,,,,,,10024.603999999992,,timeout,,,,,,,,,,,,,,,,,,,,,443359.20000000007,443357.863,433333.259,433349.6,433366.563,443391.167,,,
screen,html.Screen,2_1_0_1_0,2022-02-18T13:11:29.177Z,,,,,,,,,,,,,,,,,53,,,,,,,,,,,,,,1026.8329999999842,,response,,,,99,,,,,,,Space,keypress(Space),,,,,,,,When -- ----- -- ------ - ------- --- ----------<br>------------- ------ ------ ---- ---- ------- ----- -- ----<br>-------- ------- -- ---------- --- - --- ----- ----- ----<br>---- --- --- ----- --- ---- ---- ------- ----- ---- -------<br>--- --- -- ----- -- --- ---- -- --- ---- -- ------ ------<br>--- ----- -- ----,444424.5,444418,443357.863,443359.6,443391.167,444440.244,,0,When
screen,html.Screen,2_1_0_1_1,2022-02-18T13:11:29.821Z,,,,,,,,,,,,,,,,,53,,,,,,,,,,,,,,625.255999999994,,response,,,,99,,,,,,,Space,keypress(Space),,,,,,,,---- it ----- -- ------ - ------- --- ----------<br>------------- ------ ------ ---- ---- ------- ----- -- ----<br>-------- ------- -- ---------- --- - --- ----- ----- ----<br>---- --- --- ----- --- ---- ---- ------- ----- ---- -------<br>--- --- -- ----- -- --- ---- -- --- ---- -- ------ ------<br>--- ----- -- ----,445068.6,445065.5,444423.592,444424.80000000005,444440.244,445073.017,,1,it
screen,html.Screen,2_1_0_1_2,2022-02-18T13:11:30.520Z,,,,,,,,,,,,,,,,,53,,,,,,,,,,,,,,692.3830000000307,,response,,,,99,,,,,,,Space,keypress(Space),,,,,,,,---- -- comes -- ------ - ------- --- ----------<br>------------- ------ ------ ---- ---- ------- ----- -- ----<br>-------- ------- -- ---------- --- - --- ----- ----- ----<br>---- --- --- ----- --- ---- ---- ------- ----- ---- -------<br>--- --- -- ----- -- --- ---- -- --- ---- -- ------ ------<br>--- ----- -- ----,445767.20000000007,445765.4,445056.365,445068.9,445073.017,445772.408,,2,comes
screen,html.Screen,2_1_0_1_3,2022-02-18T13:11:31.052Z,,,,,,,,,,,,,,,,,53,,,,,,,,,,,,,,525.6919999999809,,response,,,,99,,,,,,,Space,keypress(Space),,,,,,,,---- -- ----- to ------ - ------- --- ----------<br>------------- ------ ------ ---- ---- ------- ----- -- ----<br>-------- ------- -- ---------- --- - --- ----- ----- ----<br>---- --- --- ----- --- ---- ---- ------- ----- ---- -------<br>--- --- -- ----- -- --- ---- -- --- ---- -- ------ ------<br>--- ----- -- ----,446299.80000000005,446298.1,445755.756,445769.6,445772.408,446305.279,,3,to
screen,html.Screen,2_1_0_1_4,2022-02-18T13:11:31.572Z,,,,,,,,,,,,,,,,,53,,,,,,,,,,,,,,512.4210000000894,,response,,,,99,,,,,,,Space,keypress(Space),,,,,,,,---- -- ----- -- having - ------- --- ----------<br>------------- ------ ------ ---- ---- ------- ----- -- ----<br>-------- ------- -- ---------- --- - --- ----- ----- ----<br>---- --- --- ----- --- ---- ---- ------- ----- ---- -------<br>--- --- -- ----- -- --- ---- -- --- ---- -- ------ ------<br>--- ----- -- ----,446819.30000000005,446817.70000000007,446288.627,446300.20000000007,446305.279,446821.502,,4,having
screen,html.Screen,2_1_0_1_5,2022-02-18T13:11:31.950Z,,,,,,,,,,,,,,,,,53,,,,,,,,,,,,,,374.59799999999814,,response,,,,99,,,,,,,Space,keypress(Space),,,,,,,,---- -- ----- -- ------ a ------- --- ----------<br>------------- ------ ------ ---- ---- ------- ----- -- ----<br>-------- ------- -- ---------- --- - --- ----- ----- ----<br>---- --- --- ----- --- ---- ---- ------- ----- ---- -------<br>--- --- -- ----- -- --- ---- -- --- ---- -- ------ ------<br>--- ----- -- ----,447197.70000000007,447196.1,446804.85,446819.5,446821.502,447204.502,,5,a
screen,html.Screen,2_1_0_1_6,2022-02-18T13:11:32.459Z,,,,,,,,,,,,,,,,,53,,,,,,,,,,,,,,499.19800000009127,,response,,,,99,,,,,,,Space,keypress(Space),,,,,,,,---- -- ----- -- ------ - lasting --- ----------<br>------------- ------ ------ ---- ---- ------- ----- -- ----<br>-------- ------- -- ---------- --- - --- ----- ----- ----<br>---- --- --- ----- --- ---- ---- ------- ----- ---- -------<br>--- --- -- ----- -- --- ---- -- --- ---- -- ------ ------<br>--- ----- -- ----,447706.1,447703.70000000007,447187.85,447197.9,447204.502,447720.706,,6,lasting
screen,html.Screen,2_1_0_1_7,2022-02-18T13:11:32.908Z,,,,,,,,,,,,,,,,,53,,,,,,,,,,,,,,433.2939999999944,,response,,,,99,,,,,,,Space,keypress(Space),,,,,,,,---- -- ----- -- ------ - ------- and ----------<br>------------- ------ ------ ---- ---- ------- ----- -- ----<br>-------- ------- -- ---------- --- - --- ----- ----- ----<br>---- --- --- ----- --- ---- ---- ------- ----- ---- -------<br>--- --- -- ----- -- --- ---- -- --- ---- -- ------ ------<br>--- ----- -- ----,448155.70000000007,448154,447704.054,447706.4,447720.706,448170.327,,7,and
screen,html.Screen,2_1_0_1_8,2022-02-18T13:11:33.465Z,,,,,,,,,,,,,,,,,53,,,,,,,,,,,,,,538.6730000000098,,response,,,,99,,,,,,,Space,keypress(Space),,,,,,,,---- -- ----- -- ------ - ------- --- fulfilling<br>------------- ------ ------ ---- ---- ------- ----- -- ----<br>-------- ------- -- ---------- --- - --- ----- ----- ----<br>---- --- --- ----- --- ---- ---- ------- ----- ---- -------<br>--- --- -- ----- -- --- ---- -- --- ---- -- ------ ------<br>--- ----- -- ----,448712.5,448709,448153.675,448156,448170.327,448719.833,,8,fulfilling
screen,html.Screen,2_1_0_1_9,2022-02-18T13:11:33.894Z,,,,,,,,,,,,,,,,,53,,,,,,,,,,,,,,419.5670000000391,,response,,,,99,,,,,,,Space,keypress(Space),,,,,,,,"---- -- ----- -- ------ - ------- --- ----------<br>relationship, ------ ------ ---- ---- ------- ----- -- ----<br>-------- ------- -- ---------- --- - --- ----- ----- ----<br>---- --- --- ----- --- ---- ---- ------- ----- ---- -------<br>--- --- -- ----- -- --- ---- -- --- ---- -- ------ ------<br>--- ----- -- ----",449141.4,449139.4,448703.181,448712.80000000005,448719.833,449152.803,,9,"relationship,"
screen,html.Screen,2_1_0_1_10,2022-02-18T13:11:34.540Z,,,,,,,,,,,,,,,,,53,,,,,,,,,,,,,,632.9970000000321,,response,,,,99,,,,,,,Space,keypress(Space),,,,,,,,---- -- ----- -- ------ - ------- --- ----------<br>------------- common ------ ---- ---- ------- ----- -- ----<br>-------- ------- -- ---------- --- - --- ----- ----- ----<br>---- --- --- ----- --- ---- ---- ------- ----- ---- -------<br>--- --- -- ----- -- --- ---- -- --- ---- -- ------ ------<br>--- ----- -- ----,449787,449785.80000000005,449136.151,449141.70000000007,449152.803,449802.233,,10,common
screen,html.Screen,2_1_0_1_11,2022-02-18T13:11:35.185Z,,,,,,,,,,,,,,,,,53,,,,,,,,,,,,,,627.8669999999693,,response,,,,99,,,,,,,Space,keypress(Space),,,,,,,,---- -- ----- -- ------ - ------- --- ----------<br>------------- ------ wisdom ---- ---- ------- ----- -- ----<br>-------- ------- -- ---------- --- - --- ----- ----- ----<br>---- --- --- ----- --- ---- ---- ------- ----- ---- -------<br>--- --- -- ----- -- --- ---- -- --- ---- -- ------ ------<br>--- ----- -- ----,450432.6,450430.1,449785.581,449787.20000000007,449802.233,450435.005,,11,wisdom
screen,html.Screen,2_1_0_1_12,2022-02-18T13:11:35.637Z,,,,,,,,,,,,,,,,,53,,,,,,,,,,,,,,445.99499999999534,,response,,,,99,,,,,,,Space,keypress(Space),,,,,,,,---- -- ----- -- ------ - ------- --- ----------<br>------------- ------ ------ says ---- ------- ----- -- ----<br>-------- ------- -- ---------- --- - --- ----- ----- ----<br>---- --- --- ----- --- ---- ---- ------- ----- ---- -------<br>--- --- -- ----- -- --- ---- -- --- ---- -- ------ ------<br>--- ----- -- ----,450884,450881,450418.353,450432.9,450435.005,450901.277,,12,says
screen,html.Screen,2_1_0_1_13,2022-02-18T13:11:36.078Z,,,,,,,,,,,,,,,,,53,,,,,,,,,,,,,,423.22299999999814,,response,,,,99,,,,,,,Space,keypress(Space),,,,,,,,---- -- ----- -- ------ - ------- --- ----------<br>------------- ------ ------ ---- that ------- ----- -- ----<br>-------- ------- -- ---------- --- - --- ----- ----- ----<br>---- --- --- ----- --- ---- ---- ------- ----- ---- -------<br>--- --- -- ----- -- --- ---- -- --- ---- -- ------ ------<br>--- ----- -- ----,451325.5,451324.5,450884.625,450885.20000000007,450901.277,451334.232,,13,that
screen,html.Screen,2_1_0_1_14,2022-02-18T13:11:36.499Z,,,,,,,,,,,,,,,,,53,,,,,,,,,,,,,,409.86799999995856,,response,,,,99,,,,,,,Space,keypress(Space),,,,,,,,---- -- ----- -- ------ - ------- --- ----------<br>------------- ------ ------ ---- ---- feeling ----- -- ----<br>-------- ------- -- ---------- --- - --- ----- ----- ----<br>---- --- --- ----- --- ---- ---- ------- ----- ---- -------<br>--- --- -- ----- -- --- ---- -- --- ---- -- ------ ------<br>--- ----- -- ----,451746.6,451744.1,451317.58,451325.6,451334.232,451750.53,,14,feeling
screen,html.Screen,2_1_0_1_15,2022-02-18T13:11:36.934Z,,,,,,,,,,,,,,,,,53,,,,,,,,,,,,,,428.7700000000186,,response,,,,99,,,,,,,Space,keypress(Space),,,,,,,,---- -- ----- -- ------ - ------- --- ----------<br>------------- ------ ------ ---- ---- ------- close -- ----<br>-------- ------- -- ---------- --- - --- ----- ----- ----<br>---- --- --- ----- --- ---- ---- ------- ----- ---- -------<br>--- --- -- ----- -- --- ---- -- --- ---- -- ------ ------<br>--- ----- -- ----,452181.6,452179.30000000005,451733.878,451746.80000000005,451750.53,452183.483,,15,close
screen,html.Screen,2_1_0_1_16,2022-02-18T13:11:37.294Z,,,,,,,,,,,,,,,,,53,,,,,,,,,,,,,,355.91700000001583,,response,,,,99,,,,,,,Space,keypress(Space),,,,,,,,---- -- ----- -- ------ - ------- --- ----------<br>------------- ------ ------ ---- ---- ------- ----- to ----<br>-------- ------- -- ---------- --- - --- ----- ----- ----<br>---- --- --- ----- --- ---- ---- ------- ----- ---- -------<br>--- --- -- ----- -- --- ---- -- --- ---- -- ------ ------<br>--- ----- -- ----,452541.80000000005,452539.4,452166.831,452181.9,452183.483,452549.834,,16,to
screen,html.Screen,2_1_0_1_17,2022-02-18T13:11:37.702Z,,,,,,,,,,,,,,,,,53,,,,,,,,,,,,,,396.9660000000731,,response,,,,99,,,,,,,Space,keypress(Space),,,,,,,,---- -- ----- -- ------ - ------- --- ----------<br>------------- ------ ------ ---- ---- ------- ----- -- your<br>-------- ------- -- ---------- --- - --- ----- ----- ----<br>---- --- --- ----- --- ---- ---- ------- ----- ---- -------<br>--- --- -- ----- -- --- ---- -- --- ---- -- ------ ------<br>--- ----- -- ----,452949.20000000007,452946.80000000005,452533.182,452542.5,452549.834,452966.128,,17,your
screen,html.Screen,2_1_0_1_18,2022-02-18T13:11:38.109Z,,,,,,,,,,,,,,,,,53,,,,,,,,,,,,,,387.5720000000438,,response,,,,99,,,,,,,Space,keypress(Space),,,,,,,,---- -- ----- -- ------ - ------- --- ----------<br>------------- ------ ------ ---- ---- ------- ----- -- ----<br>romantic ------- -- ---------- --- - --- ----- ----- ----<br>---- --- --- ----- --- ---- ---- ------- ----- ---- -------<br>--- --- -- ----- -- --- ---- -- --- ---- -- ------ ------<br>--- ----- -- ----,453356.4,453353.70000000007,452949.476,452949.5,452966.128,453365.788,,18,romantic
screen,html.Screen,2_1_0_1_19,2022-02-18T13:11:38.558Z,,,,,,,,,,,,,,,,,53,,,,,,,,,,,,,,437.31199999997625,,response,,,,99,,,,,,,Space,keypress(Space),,,,,,,,---- -- ----- -- ------ - ------- --- ----------<br>------------- ------ ------ ---- ---- ------- ----- -- ----<br>-------- partner -- ---------- --- - --- ----- ----- ----<br>---- --- --- ----- --- ---- ---- ------- ----- ---- -------<br>--- --- -- ----- -- --- ---- -- --- ---- -- ------ ------<br>--- ----- -- ----,453805.20000000007,453803.1,453349.136,453356.70000000007,453365.788,453815.397,,19,partner
screen,html.Screen,2_1_0_1_20,2022-02-18T13:11:38.980Z,,,,,,,,,,,,,,,,,53,,,,,,,,,,,,,,409.7029999999795,,response,,,,99,,,,,,,Space,keypress(Space),,,,,,,,---- -- ----- -- ------ - ------- --- ----------<br>------------- ------ ------ ---- ---- ------- ----- -- ----<br>-------- ------- is ---------- --- - --- ----- ----- ----<br>---- --- --- ----- --- ---- ---- ------- ----- ---- -------<br>--- --- -- ----- -- --- ---- -- --- ---- -- ------ ------<br>--- ----- -- ----,454227.20000000007,454225.1,453798.745,453805.5,453815.397,454231.694,,20,is
screen,html.Screen,2_1_0_1_21,2022-02-18T13:11:39.421Z,,,,,,,,,,,,,,,,,53,,,,,,,,,,,,,,433.60600000002887,,response,,,,99,,,,,,,Space,keypress(Space),,,,,,,,---- -- ----- -- ------ - ------- --- ----------<br>------------- ------ ------ ---- ---- ------- ----- -- ----<br>-------- ------- -- paramount. --- - --- ----- ----- ----<br>---- --- --- ----- --- ---- ---- ------- ----- ---- -------<br>--- --- -- ----- -- --- ---- -- --- ---- -- ------ ------<br>--- ----- -- ----,454668.70000000007,454665.30000000005,454215.042,454227.5,454231.694,454681.302,,21,paramount.
screen,html.Screen,2_1_0_1_22,2022-02-18T13:11:40.032Z,,,,,,,,,,,,,,,,,53,,,,,,,,,,,,,,596.3980000000447,,response,,,,99,,,,,,,Space,keypress(Space),,,,,,,,---- -- ----- -- ------ - ------- --- ----------<br>------------- ------ ------ ---- ---- ------- ----- -- ----<br>-------- ------- -- ---------- But - --- ----- ----- ----<br>---- --- --- ----- --- ---- ---- ------- ----- ---- -------<br>--- --- -- ----- -- --- ---- -- --- ---- -- ------ ------<br>--- ----- -- ----,455279.70000000007,455277.70000000007,454664.65,454669,454681.302,455297.43,,22,But
screen,html.Screen,2_1_0_1_23,2022-02-18T13:11:40.478Z,,,,,,,,,,,,,,,,,53,,,,,,,,,,,,,,424.97000000003027,,response,,,,99,,,,,,,Space,keypress(Space),,,,,,,,---- -- ----- -- ------ - ------- --- ----------<br>------------- ------ ------ ---- ---- ------- ----- -- ----<br>-------- ------- -- ---------- --- a --- ----- ----- ----<br>---- --- --- ----- --- ---- ---- ------- ----- ---- -------<br>--- --- -- ----- -- --- ---- -- --- ---- -- ------ ------<br>--- ----- -- ----,455725.30000000005,455722.4,455280.778,455279.9,455297.43,455730.393,,23,a
screen,html.Screen,2_1_0_1_24,2022-02-18T13:11:40.874Z,,,,,,,,,,,,,,,,,53,,,,,,,,,,,,,,388.9070000000647,,response,,,,99,,,,,,,Space,keypress(Space),,,,,,,,---- -- ----- -- ------ - ------- --- ----------<br>------------- ------ ------ ---- ---- ------- ----- -- ----<br>-------- ------- -- ---------- --- - new ----- ----- ----<br>---- --- --- ----- --- ---- ---- ------- ----- ---- -------<br>--- --- -- ----- -- --- ---- -- --- ---- -- ------ ------<br>--- ----- -- ----,456121.80000000005,456119.30000000005,455713.741,455725.5,455730.393,456130.034,,24,new
screen,html.Screen,2_1_0_1_25,2022-02-18T13:11:41.319Z,,,,,,,,,,,,,,,,,53,,,,,,,,,,,,,,433.66600000008475,,response,,,,99,,,,,,,Space,keypress(Space),,,,,,,,---- -- ----- -- ------ - ------- --- ----------<br>------------- ------ ------ ---- ---- ------- ----- -- ----<br>-------- ------- -- ---------- --- - --- study ----- ----<br>---- --- --- ----- --- ---- ---- ------- ----- ---- -------<br>--- --- -- ----- -- --- ---- -- --- ---- -- ------ ------<br>--- ----- -- ----,456566.20000000007,456563.70000000007,456113.382,456122.20000000007,456130.034,456579.653,,25,study
screen,html.Screen,2_1_0_1_26,2022-02-18T13:11:41.732Z,,,,,,,,,,,,,,,,,53,,,,,,,,,,,,,,397.6470000000554,,response,,,,99,,,,,,,Space,keypress(Space),,,,,,,,---- -- ----- -- ------ - ------- --- ----------<br>------------- ------ ------ ---- ---- ------- ----- -- ----<br>-------- ------- -- ---------- --- - --- ----- finds ----<br>---- --- --- ----- --- ---- ---- ------- ----- ---- -------<br>--- --- -- ----- -- --- ---- -- --- ---- -- ------ ------<br>--- ----- -- ----,456979.5,456977.30000000005,456563.001,456566.4,456579.653,456995.953,,26,finds
screen,html.Screen,2_1_0_1_27,2022-02-18T13:11:42.188Z,,,,,,,,,,,,,,,,,53,,,,,,,,,,,,,,436.74700000009034,,response,,,,99,,,,,,,Space,keypress(Space),,,,,,,,---- -- ----- -- ------ - ------- --- ----------<br>------------- ------ ------ ---- ---- ------- ----- -- ----<br>-------- ------- -- ---------- --- - --- ----- ----- that<br>---- --- --- ----- --- ---- ---- ------- ----- ---- -------<br>--- --- -- ----- -- --- ---- -- --- ---- -- ------ ------<br>--- ----- -- ----,457435.5,457432.70000000007,456979.301,456979.80000000005,456995.953,457445.566,,27,that
screen,html.Screen,2_1_0_1_28,2022-02-18T13:11:42.656Z,,,,,,,,,,,,,,,,,53,,,,,,,,,,,,,,454.73400000005495,,response,,,,99,,,,,,,Space,keypress(Space),,,,,,,,---- -- ----- -- ------ - ------- --- ----------<br>------------- ------ ------ ---- ---- ------- ----- -- ----<br>-------- ------- -- ---------- --- - --- ----- ----- ----<br>it's --- --- ----- --- ---- ---- ------- ----- ---- -------<br>--- --- -- ----- -- --- ---- -- --- ---- -- ------ ------<br>--- ----- -- ----,457903.30000000005,457900.30000000005,457428.914,457435.70000000007,457445.566,457911.815,,28,it's
screen,html.Screen,2_1_0_1_29,2022-02-18T13:11:43.115Z,,,,,,,,,,,,,,,,,53,,,,,,,,,,,,,,447.58500000002095,,response,,,,99,,,,,,,Space,keypress(Space),,,,,,,,---- -- ----- -- ------ - ------- --- ----------<br>------------- ------ ------ ---- ---- ------- ----- -- ----<br>-------- ------- -- ---------- --- - --- ----- ----- ----<br>---- not --- ----- --- ---- ---- ------- ----- ---- -------<br>--- --- -- ----- -- --- ---- -- --- ---- -- ------ ------<br>--- ----- -- ----,458362.4,458359.4,457895.163,457903.6,457911.815,458378.079,,29,not
screen,html.Screen,2_1_0_1_30,2022-02-18T13:11:43.588Z,,,,,,,,,,,,,,,,,53,,,,,,,,,,,,,,455.12100000004284,,response,,,,99,,,,,,,Space,keypress(Space),,,,,,,,---- -- ----- -- ------ - ------- --- ----------<br>------------- ------ ------ ---- ---- ------- ----- -- ----<br>-------- ------- -- ---------- --- - --- ----- ----- ----<br>---- --- how ----- --- ---- ---- ------- ----- ---- -------<br>--- --- -- ----- -- --- ---- -- --- ---- -- ------ ------<br>--- ----- -- ----,458835.5,458833.20000000007,458361.427,458362.70000000007,458378.079,458844.335,,30,how
screen,html.Screen,2_1_0_1_31,2022-02-18T13:11:43.999Z,,,,,,,,,,,,,,,,,53,,,,,,,,,,,,,,400.26499999995576,,response,,,,99,,,,,,,Space,keypress(Space),,,,,,,,---- -- ----- -- ------ - ------- --- ----------<br>------------- ------ ------ ---- ---- ------- ----- -- ----<br>-------- ------- -- ---------- --- - --- ----- ----- ----<br>---- --- --- close --- ---- ---- ------- ----- ---- -------<br>--- --- -- ----- -- --- ---- -- --- ---- -- ------ ------<br>--- ----- -- ----,459246.20000000007,459244.6,458827.683,458835.80000000005,458844.335,459260.645,,31,close
screen,html.Screen,2_1_0_1_32,2022-02-18T13:11:44.440Z,,,,,,,,,,,,,,,,,53,,,,,,,,,,,,,,424.75500000000466,,response,,,,99,,,,,,,Space,keypress(Space),,,,,,,,---- -- ----- -- ------ - ------- --- ----------<br>------------- ------ ------ ---- ---- ------- ----- -- ----<br>-------- ------- -- ---------- --- - --- ----- ----- ----<br>---- --- --- ----- you ---- ---- ------- ----- ---- -------<br>--- --- -- ----- -- --- ---- -- --- ---- -- ------ ------<br>--- ----- -- ----,459687.70000000007,459685.4,459243.993,459246.30000000005,459260.645,459693.59,,32,you
screen,html.Screen,2_1_0_1_33,2022-02-18T13:11:44.916Z,,,,,,,,,,,,,,,,,53,,,,,,,,,,,,,,467.61000000004424,,response,,,,99,,,,,,,Space,keypress(Space),,,,,,,,---- -- ----- -- ------ - ------- --- ----------<br>------------- ------ ------ ---- ---- ------- ----- -- ----<br>-------- ------- -- ---------- --- - --- ----- ----- ----<br>---- --- --- ----- --- feel ---- ------- ----- ---- -------<br>--- --- -- ----- -- --- ---- -- --- ---- -- ------ ------<br>--- ----- -- ----,460163.80000000005,460161.20000000007,459676.938,459687.9,459693.59,460176.516,,33,feel
screen,html.Screen,2_1_0_1_34,2022-02-18T13:11:45.395Z,,,,,,,,,,,,,,,,,53,,,,,,,,,,,,,,463.2840000000433,,response,,,,99,,,,,,,Space,keypress(Space),,,,,,,,---- -- ----- -- ------ - ------- --- ----------<br>------------- ------ ------ ---- ---- ------- ----- -- ----<br>-------- ------- -- ---------- --- - --- ----- ----- ----<br>---- --- --- ----- --- ---- that ------- ----- ---- -------<br>--- --- -- ----- -- --- ---- -- --- ---- -- ------ ------<br>--- ----- -- ----,460642,460639.80000000005,460159.864,460164.1,460176.516,460659.414,,34,that
screen,html.Screen,2_1_0_1_35,2022-02-18T13:11:45.802Z,,,,,,,,,,,,,,,,,53,,,,,,,,,,,,,,387.9860000000335,,response,,,,99,,,,,,,Space,keypress(Space),,,,,,,,---- -- ----- -- ------ - ------- --- ----------<br>------------- ------ ------ ---- ---- ------- ----- -- ----<br>-------- ------- -- ---------- --- - --- ----- ----- ----<br>---- --- --- ----- --- ---- ---- matters ----- ---- -------<br>--- --- -- ----- -- --- ---- -- --- ---- -- ------ ------<br>--- ----- -- ----,461049.9,461047.4,460642.762,460642.30000000005,460659.414,461059.067,,35,matters
screen,html.Screen,2_1_0_1_36,2022-02-18T13:11:46.299Z,,,,,,,,,,,,,,,,,53,,,,,,,,,,,,,,485.23300000006566,,response,,,,99,,,,,,,Space,keypress(Space),,,,,,,,"---- -- ----- -- ------ - ------- --- ----------<br>------------- ------ ------ ---- ---- ------- ----- -- ----<br>-------- ------- -- ---------- --- - --- ----- ----- ----<br>---- --- --- ----- --- ---- ---- ------- most, ---- -------<br>--- --- -- ----- -- --- ---- -- --- ---- -- ------ ------<br>--- ----- -- ----",461546.1,461544.30000000005,461042.415,461055,461059.067,461558.64,,36,"most,"
screen,html.Screen,2_1_0_1_37,2022-02-18T13:11:46.802Z,,,,,,,,,,,,,,,,,53,,,,,,,,,,,,,,486.0600000000559,,response,,,,99,,,,,,,Space,keypress(Space),,,,,,,,---- -- ----- -- ------ - ------- --- ----------<br>------------- ------ ------ ---- ---- ------- ----- -- ----<br>-------- ------- -- ---------- --- - --- ----- ----- ----<br>---- --- --- ----- --- ---- ---- ------- ----- it's -------<br>--- --- -- ----- -- --- ---- -- --- ---- -- ------ ------<br>--- ----- -- ----,462049.1,462044.70000000007,461541.988,461546.30000000005,461558.64,462058.201,,37,it's
screen,html.Screen,2_1_0_1_38,2022-02-18T13:11:47.282Z,,,,,,,,,,,,,,,,,53,,,,,,,,,,,,,,468.79899999999907,,response,,,,99,,,,,,,Space,keypress(Space),,,,,,,,---- -- ----- -- ------ - ------- --- ----------<br>------------- ------ ------ ---- ---- ------- ----- -- ----<br>-------- ------- -- ---------- --- - --- ----- ----- ----<br>---- --- --- ----- --- ---- ---- ------- ----- ---- whether<br>--- --- -- ----- -- --- ---- -- --- ---- -- ------ ------<br>--- ----- -- ----,462529,462527,462041.549,462049.4,462058.201,462541.108,,38,whether
screen,html.Screen,2_1_0_1_39,2022-02-18T13:11:47.832Z,,,,,,,,,,,,,,,,,53,,,,,,,,,,,,,,536.2920000000158,,response,,,,99,,,,,,,Space,keypress(Space),,,,,,,,---- -- ----- -- ------ - ------- --- ----------<br>------------- ------ ------ ---- ---- ------- ----- -- ----<br>-------- ------- -- ---------- --- - --- ----- ----- ----<br>---- --- --- ----- --- ---- ---- ------- ----- ---- -------<br>you --- -- ----- -- --- ---- -- --- ---- -- ------ ------<br>--- ----- -- ----,463079.80000000005,463077.4,462524.456,462529.4,462541.108,463090.631,,39,you
screen,html.Screen,2_1_0_1_40,2022-02-18T13:11:48.267Z,,,,,,,,,,,,,,,,,53,,,,,,,,,,,,,,420.96899999998277,,response,,,,99,,,,,,,Space,keypress(Space),,,,,,,,---- -- ----- -- ------ - ------- --- ----------<br>------------- ------ ------ ---- ---- ------- ----- -- ----<br>-------- ------- -- ---------- --- - --- ----- ----- ----<br>---- --- --- ----- --- ---- ---- ------- ----- ---- -------<br>--- are -- ----- -- --- ---- -- --- ---- -- ------ ------<br>--- ----- -- ----,463513.9,463511.6,463073.979,463080.1,463090.631,463523.585,,40,are
screen,html.Screen,2_1_0_1_41,2022-02-18T13:11:48.669Z,,,,,,,,,,,,,,,,,53,,,,,,,,,,,,,,391.91499999997905,,response,,,,99,,,,,,,Space,keypress(Space),,,,,,,,---- -- ----- -- ------ - ------- --- ----------<br>------------- ------ ------ ---- ---- ------- ----- -- ----<br>-------- ------- -- ---------- --- - --- ----- ----- ----<br>---- --- --- ----- --- ---- ---- ------- ----- ---- -------<br>--- --- as ----- -- --- ---- -- --- ---- -- ------ ------<br>--- ----- -- ----,463916.5,463915.5,463506.933,463514.20000000007,463523.585,463923.244,,41,as
screen,html.Screen,2_1_0_1_42,2022-02-18T13:11:49.102Z,,,,,,,,,,,,,,,,,53,,,,,,,,,,,,,,423.4560000000638,,response,,,,99,,,,,,,Space,keypress(Space),,,,,,,,---- -- ----- -- ------ - ------- --- ----------<br>------------- ------ ------ ---- ---- ------- ----- -- ----<br>-------- ------- -- ---------- --- - --- ----- ----- ----<br>---- --- --- ----- --- ---- ---- ------- ----- ---- -------<br>--- --- -- close -- --- ---- -- --- ---- -- ------ ------<br>--- ----- -- ----,464349.5,464346.70000000007,463906.592,463916.6,463923.244,464356.192,,42,close
screen,html.Screen,2_1_0_1_43,2022-02-18T13:11:49.509Z,,,,,,,,,,,,,,,,,53,,,,,,,,,,,,,,398.00800000008894,,response,,,,99,,,,,,,Space,keypress(Space),,,,,,,,---- -- ----- -- ------ - ------- --- ----------<br>------------- ------ ------ ---- ---- ------- ----- -- ----<br>-------- ------- -- ---------- --- - --- ----- ----- ----<br>---- --- --- ----- --- ---- ---- ------- ----- ---- -------<br>--- --- -- ----- as --- ---- -- --- ---- -- ------ ------<br>--- ----- -- ----,464756.6,464754.20000000007,464339.54,464349.70000000007,464356.192,464772.505,,43,as
screen,html.Screen,2_1_0_1_44,2022-02-18T13:11:49.976Z,,,,,,,,,,,,,,,,,53,,,,,,,,,,,,,,448.59499999997206,,response,,,,99,,,,,,,Space,keypress(Space),,,,,,,,---- -- ----- -- ------ - ------- --- ----------<br>------------- ------ ------ ---- ---- ------- ----- -- ----<br>-------- ------- -- ---------- --- - --- ----- ----- ----<br>---- --- --- ----- --- ---- ---- ------- ----- ---- -------<br>--- --- -- ----- -- you ---- -- --- ---- -- ------ ------<br>--- ----- -- ----,465222.9,465221.1,464755.853,464756.80000000005,464772.505,465238.761,,44,you
screen,html.Screen,2_1_0_1_45,2022-02-18T13:11:50.356Z,,,,,,,,,,,,,,,,,53,,,,,,,,,,,,,,362.7390000000014,,response,,,,99,,,,,,,Space,keypress(Space),,,,,,,,---- -- ----- -- ------ - ------- --- ----------<br>------------- ------ ------ ---- ---- ------- ----- -- ----<br>-------- ------- -- ---------- --- - --- ----- ----- ----<br>---- --- --- ----- --- ---- ---- ------- ----- ---- -------<br>--- --- -- ----- -- --- want -- --- ---- -- ------ ------<br>--- ----- -- ----,465603.80000000005,465601.5,465222.109,465223.20000000007,465238.761,465605.099,,45,want
screen,html.Screen,2_1_0_1_46,2022-02-18T13:11:50.777Z,,,,,,,,,,,,,,,,,53,,,,,,,,,,,,,,416.6010000000824,,response,,,,99,,,,,,,Space,keypress(Space),,,,,,,,---- -- ----- -- ------ - ------- --- ----------<br>------------- ------ ------ ---- ---- ------- ----- -- ----<br>-------- ------- -- ---------- --- - --- ----- ----- ----<br>---- --- --- ----- --- ---- ---- ------- ----- ---- -------<br>--- --- -- ----- -- --- ---- to --- ---- -- ------ ------<br>--- ----- -- ----,466024.6,466021.70000000007,465588.447,465604.1,465605.099,466038.065,,46,to
screen,html.Screen,2_1_0_1_47,2022-02-18T13:11:51.162Z,,,,,,,,,,,,,,,,,53,,,,,,,,,,,,,,369.33500000002095,,response,,,,99,,,,,,,Space,keypress(Space),,,,,,,,"---- -- ----- -- ------ - ------- --- ----------<br>------------- ------ ------ ---- ---- ------- ----- -- ----<br>-------- ------- -- ---------- --- - --- ----- ----- ----<br>---- --- --- ----- --- ---- ---- ------- ----- ---- -------<br>--- --- -- ----- -- --- ---- -- be, ---- -- ------ ------<br>--- ----- -- ----",466409.80000000005,466407.4,466021.413,466024.80000000005,466038.065,466421.061,,47,"be,"
screen,html.Screen,2_1_0_1_48,2022-02-18T13:11:51.671Z,,,,,,,,,,,,,,,,,53,,,,,,,,,,,,,,494.93900000001304,,response,,,,99,,,,,,,Space,keypress(Space),,,,,,,,---- -- ----- -- ------ - ------- --- ----------<br>------------- ------ ------ ---- ---- ------- ----- -- ----<br>-------- ------- -- ---------- --- - --- ----- ----- ----<br>---- --- --- ----- --- ---- ---- ------- ----- ---- -------<br>--- --- -- ----- -- --- ---- -- --- even -- ------ ------<br>--- ----- -- ----,466918.70000000007,466916,466404.409,466410.1,466421.061,466920.621,,48,even
screen,html.Screen,2_1_0_1_49,2022-02-18T13:11:52.120Z,,,,,,,,,,,,,,,,,53,,,,,,,,,,,,,,444.0790000000852,,response,,,,99,,,,,,,Space,keypress(Space),,,,,,,,---- -- ----- -- ------ - ------- --- ----------<br>------------- ------ ------ ---- ---- ------- ----- -- ----<br>-------- ------- -- ---------- --- - --- ----- ----- ----<br>---- --- --- ----- --- ---- ---- ------- ----- ---- -------<br>--- --- -- ----- -- --- ---- -- --- ---- if ------ ------<br>--- ----- -- ----,467367.20000000007,467364.70000000007,466903.969,466919,466920.621,467370.23,,49,if
screen,html.Screen,2_1_0_1_50,2022-02-18T13:11:52.545Z,,,,,,,,,,,,,,,,,53,,,,,,,,,,,,,,419.36999999999534,,response,,,,99,,,,,,,Space,keypress(Space),,,,,,,,---- -- ----- -- ------ - ------- --- ----------<br>------------- ------ ------ ---- ---- ------- ----- -- ----<br>-------- ------- -- ---------- --- - --- ----- ----- ----<br>---- --- --- ----- --- ---- ---- ------- ----- ---- -------<br>--- --- -- ----- -- --- ---- -- --- ---- -- that's ------<br>--- ----- -- ----,467792.20000000007,467789.6,467353.578,467367.4,467370.23,467803.192,,50,that's
screen,html.Screen,2_1_0_1_51,2022-02-18T13:11:52.940Z,,,,,,,,,,,,,,,,,53,,,,,,,,,,,,,,381.9079999999958,,response,,,,99,,,,,,,Space,keypress(Space),,,,,,,,---- -- ----- -- ------ - ------- --- ----------<br>------------- ------ ------ ---- ---- ------- ----- -- ----<br>-------- ------- -- ---------- --- - --- ----- ----- ----<br>---- --- --- ----- --- ---- ---- ------- ----- ---- -------<br>--- --- -- ----- -- --- ---- -- --- ---- -- ------ really<br>--- ----- -- ----,468187.30000000005,468185.1,467786.54,467792.4,467803.192,468202.841,,51,really
screen,html.Screen,2_1_0_1_52,2022-02-18T13:11:53.371Z,,,,,,,,,,,,,,,,,53,,,,,,,,,,,,,,413.1589999999851,,response,,,,99,,,,,,,Space,keypress(Space),,,,,,,,---- -- ----- -- ------ - ------- --- ----------<br>------------- ------ ------ ---- ---- ------- ----- -- ----<br>-------- ------- -- ---------- --- - --- ----- ----- ----<br>---- --- --- ----- --- ---- ---- ------- ----- ---- -------<br>--- --- -- ----- -- --- ---- -- --- ---- -- ------ ------<br>not ----- -- ----,468618.20000000007,468616,468186.189,468187.5,468202.841,468635.789,,52,not
screen,html.Screen,2_1_0_1_53,2022-02-18T13:11:53.779Z,,,,,,,,,,,,,,,,,53,,,,,,,,,,,,,,387.9110000000801,,response,,,,99,,,,,,,Space,keypress(Space),,,,,,,,---- -- ----- -- ------ - ------- --- ----------<br>------------- ------ ------ ---- ---- ------- ----- -- ----<br>-------- ------- -- ---------- --- - --- ----- ----- ----<br>---- --- --- ----- --- ---- ---- ------- ----- ---- -------<br>--- --- -- ----- -- --- ---- -- --- ---- -- ------ ------<br>--- close -- ----,469026.20000000007,469023.70000000007,468619.137,468618.5,468635.789,469035.444,,53,close
screen,html.Screen,2_1_0_1_54,2022-02-18T13:11:54.182Z,,,,,,,,,,,,,,,,,53,,,,,,,,,,,,,,391.5559999999823,,response,,,,99,,,,,,,Space,keypress(Space),,,,,,,,---- -- ----- -- ------ - ------- --- ----------<br>------------- ------ ------ ---- ---- ------- ----- -- ----<br>-------- ------- -- ---------- --- - --- ----- ----- ----<br>---- --- --- ----- --- ---- ---- ------- ----- ---- -------<br>--- --- -- ----- -- --- ---- -- --- ---- -- ------ ------<br>--- ----- at ----,469429.20000000007,469427,469018.792,469026.4,469035.444,469435.101,,54,at
screen,html.Screen,2_1_0_1_55,2022-02-18T13:11:54.677Z,,,,,,,,,,,,,,,,,53,,,,,,,,,,,,,,486.19900000002235,,response,,,,99,,,,,,,Space,keypress(Space),,,,,,,,---- -- ----- -- ------ - ------- --- ----------<br>------------- ------ ------ ---- ---- ------- ----- -- ----<br>-------- ------- -- ---------- --- - --- ----- ----- ----<br>---- --- --- ----- --- ---- ---- ------- ----- ---- -------<br>--- --- -- ----- -- --- ---- -- --- ---- -- ------ ------<br>--- ----- -- all.,469924.30000000005,469921.30000000005,469418.449,469429.5,469435.101,469934.654,,55,all.
Item 99,flow.Loop,2_1_0_1,2022-02-18T13:11:54.677Z,,,,,,,,,,,,,,,,,,,,,,,,,,,,,,,26530.13300000003,,completion,,,,,F,,,,,,,,,,,silence,,,,,469924.9,469921.30000000005,443357.863,443359.5,443391.167,469934.654,,,
Question 1,html.Screen,2_1_0_2,2022-02-18T13:12:01.326Z,,,,,,,,,,,,,,,,,,,,,,,,,,,,false,FALSE,,6634.546000000089,,response,,,,99,F,,,,,,TRUE,click #choice-1,,,,silence,,,,,476573.4,476569.20000000007,469918.002,469925.1,469934.654,476578.855,,,
Question 2,html.Screen,2_1_0_3,2022-02-18T13:12:06.979Z,,,,,,,,,,,,,,,,,,,,,,,,,,,,true,TRUE,,5644.145000000019,,response,,,,99,F,,,,,,TRUE,click #choice-1,,,,silence,,,,,482226.5,482223,476562.203,476573.6,476578.855,482240.581,,,
Item 99,flow.Sequence,2_1_0,2022-02-18T13:12:06.980Z,,,,,,,,,,,,,,,,,,,,,,,,,,,,,,,48856.436999999976,,completion,,,,,,,,,,,,,,,,,,,,,482227,482223,433333.259,433349.5,433366.563,482240.581,,,
Holding screen,html.Screen,2_1_1_0,2022-02-18T13:12:16.991Z,,,,,,,,,,,,,,,,,,,,,,,,,,,,,,,10007.939000000013,,timeout,,,,,,,,,,,,,,,,,,,,,492237.9,492231.868,482223.929,482227.4,482240.581,492248.52,,,
screen,html.Screen,2_1_1_1_0,2022-02-18T13:12:18.330Z,,,,,,,,,,,,,,,,,54,,,,,,,,,,,,,,1325.6800000000512,,response,,,,100,,,,,,,Space,keypress(Space),,,,,,,,At --- ---- --- ------ ----- ------- ---- -- --- ------- --<br>------- ---------- ------ -- ----- -- ----- -- ---- ------<br>--- ----- --- --- ------ -------- ----- --- ------ ----- --<br>----- ----- ---------- --- --- ------ ------ ---- -- ------<br>------- --- ------ ----- --- ---- ------- -- ---- --- --<br>------- ------,493577.4,493574.20000000007,492231.868,492238.20000000007,492248.52,493580.681,,0,At
screen,html.Screen,2_1_1_1_1,2022-02-18T13:12:18.816Z,,,,,,,,,,,,,,,,,54,,,,,,,,,,,,,,481.719000000041,,response,,,,100,,,,,,,Space,keypress(Space),,,,,,,,-- the ---- --- ------ ----- ------- ---- -- --- ------- --<br>------- ---------- ------ -- ----- -- ----- -- ---- ------<br>--- ----- --- --- ------ -------- ----- --- ------ ----- --<br>----- ----- ---------- --- --- ------ ------ ---- -- ------<br>------- --- ------ ----- --- ---- ------- -- ---- --- --<br>------- ------,494063.4,494062.4,493564.029,493577.4,493580.681,494080.254,,1,the
screen,html.Screen,2_1_1_1_2,2022-02-18T13:12:19.338Z,,,,,,,,,,,,,,,,,54,,,,,,,,,,,,,,502.0459999999148,,response,,,,100,,,,,,,Space,keypress(Space),,,,,,,,-- --- time --- ------ ----- ------- ---- -- --- ------- --<br>------- ---------- ------ -- ----- -- ----- -- ---- ------<br>--- ----- --- --- ------ -------- ----- --- ------ ----- --<br>----- ----- ---------- --- --- ------ ------ ---- -- ------<br>------- --- ------ ----- --- ---- ------- -- ---- --- --<br>------- ------,494585.29999999993,494582.29999999993,494063.602,494063.70000000007,494080.254,494596.475,,2,time
screen,html.Screen,2_1_1_1_3,2022-02-18T13:12:19.775Z,,,,,,,,,,,,,,,,,54,,,,,,,,,,,,,,423.82499999995343,,response,,,,100,,,,,,,Space,keypress(Space),,,,,,,,-- --- ---- the ------ ----- ------- ---- -- --- ------- --<br>------- ---------- ------ -- ----- -- ----- -- ---- ------<br>--- ----- --- --- ------ -------- ----- --- ------ ----- --<br>----- ----- ---------- --- --- ------ ------ ---- -- ------<br>------- --- ------ ----- --- ---- ------- -- ---- --- --<br>------- ------,495022.6,495020.29999999993,494579.823,494585.4,494596.475,495029.419,,3,the
screen,html.Screen,2_1_1_1_4,2022-02-18T13:12:20.522Z,,,,,,,,,,,,,,,,,54,,,,,,,,,,,,,,739.1809999999823,,response,,,,100,,,,,,,Space,keypress(Space),,,,,,,,-- --- ---- --- French ----- ------- ---- -- --- ------- --<br>------- ---------- ------ -- ----- -- ----- -- ---- ------<br>--- ----- --- --- ------ -------- ----- --- ------ ----- --<br>----- ----- ---------- --- --- ------ ------ ---- -- ------<br>------- --- ------ ----- --- ---- ------- -- ---- --- --<br>------- ------,495769.70000000007,495768.6,495012.767,495022.9,495029.419,495778.773,,4,French
screen,html.Screen,2_1_1_1_5,2022-02-18T13:12:21.144Z,,,,,,,,,,,,,,,,,54,,,,,,,,,,,,,,610.8269999999902,,response,,,,100,,,,,,,Space,keypress(Space),,,,,,,,-- --- ---- --- ------ crown ------- ---- -- --- ------- --<br>------- ---------- ------ -- ----- -- ----- -- ---- ------<br>--- ----- --- --- ------ -------- ----- --- ------ ----- --<br>----- ----- ---------- --- --- ------ ------ ---- -- ------<br>------- --- ------ ----- --- ---- ------- -- ---- --- --<br>------- ------,496391.70000000007,496389.6,495762.121,495769.9,495778.773,496394.895,,5,crown
screen,html.Screen,2_1_1_1_6,2022-02-18T13:12:21.743Z,,,,,,,,,,,,,,,,,54,,,,,,,,,,,,,,592.8050000000512,,response,,,,100,,,,,,,Space,keypress(Space),,,,,,,,-- --- ---- --- ------ ----- secured ---- -- --- ------- --<br>------- ---------- ------ -- ----- -- ----- -- ---- ------<br>--- ----- --- --- ------ -------- ----- --- ------ ----- --<br>----- ----- ---------- --- --- ------ ------ ---- -- ------<br>------- --- ------ ----- --- ---- ------- -- ---- --- --<br>------- ------,496990.1,496987.70000000007,496378.243,496392.0000000001,496394.895,496994.379,,6,secured
screen,html.Screen,2_1_1_1_7,2022-02-18T13:12:22.329Z,,,,,,,,,,,,,,,,,54,,,,,,,,,,,,,,580.3210000000545,,response,,,,100,,,,,,,Space,keypress(Space),,,,,,,,-- --- ---- --- ------ ----- ------- much -- --- ------- --<br>------- ---------- ------ -- ----- -- ----- -- ---- ------<br>--- ----- --- --- ------ -------- ----- --- ------ ----- --<br>----- ----- ---------- --- --- ------ ------ ---- -- ------<br>------- --- ------ ----- --- ---- ------- -- ---- --- --<br>------- ------,497576.4,497574.70000000007,496977.727,496990.29999999993,496994.379,497593.854,,7,much
screen,html.Screen,2_1_1_1_8,2022-02-18T13:12:23.005Z,,,,,,,,,,,,,,,,,54,,,,,,,,,,,,,,657.1460000001243,,response,,,,100,,,,,,,Space,keypress(Space),,,,,,,,-- --- ---- --- ------ ----- ------- ---- of --- ------- --<br>------- ---------- ------ -- ----- -- ----- -- ---- ------<br>--- ----- --- --- ------ -------- ----- --- ------ ----- --<br>----- ----- ---------- --- --- ------ ------ ---- -- ------<br>------- --- ------ ----- --- ---- ------- -- ---- --- --<br>------- ------,498252.79999999993,498251.0000000001,497577.202,497576.70000000007,497593.854,498259.941,,8,of
screen,html.Screen,2_1_1_1_9,2022-02-18T13:12:23.581Z,,,,,,,,,,,,,,,,,54,,,,,,,,,,,,,,565.9590000000317,,response,,,,100,,,,,,,Space,keypress(Space),,,,,,,,-- --- ---- --- ------ ----- ------- ---- -- its ------- --<br>------- ---------- ------ -- ----- -- ----- -- ---- ------<br>--- ----- --- --- ------ -------- ----- --- ------ ----- --<br>----- ----- ---------- --- --- ------ ------ ---- -- ------<br>------- --- ------ ----- --- ---- ------- -- ---- --- --<br>------- ------,498828.29999999993,498825.9,498243.289,498254.0000000001,498259.941,498842.757,,9,its
screen,html.Screen,2_1_1_1_10,2022-02-18T13:12:24.808Z,,,,,,,,,,,,,,,,,54,,,,,,,,,,,,,,1211.2430000001332,,response,,,,100,,,,,,,Space,keypress(Space),,,,,,,,-- --- ---- --- ------ ----- ------- ---- -- --- revenue --<br>------- ---------- ------ -- ----- -- ----- -- ---- ------<br>--- ----- --- --- ------ -------- ----- --- ------ ----- --<br>----- ----- ---------- --- --- ------ ------ ---- -- ------<br>------- --- ------ ----- --- ---- ------- -- ---- --- --<br>------- ------,500055.70000000007,500054.0000000001,498826.105,498828.5000000001,498842.757,500058.358,,10,revenue
screen,html.Screen,2_1_1_1_11,2022-02-18T13:12:25.539Z,,,,,,,,,,,,,,,,,54,,,,,,,,,,,,,,725.9419999999227,,response,,,,100,,,,,,,Space,keypress(Space),,,,,,,,-- --- ---- --- ------ ----- ------- ---- -- --- ------- by<br>------- ---------- ------ -- ----- -- ----- -- ---- ------<br>--- ----- --- --- ------ -------- ----- --- ------ ----- --<br>----- ----- ---------- --- --- ------ ------ ---- -- ------<br>------- --- ------ ----- --- ---- ------- -- ---- --- --<br>------- ------,500786.20000000007,500784.29999999993,500041.706,500056.0000000001,500058.358,500791.067,,11,by
screen,html.Screen,2_1_1_1_12,2022-02-18T13:12:26.100Z,,,,,,,,,,,,,,,,,54,,,,,,,,,,,,,,555.1330000000889,,response,,,,100,,,,,,,Space,keypress(Space),,,,,,,,-- --- ---- --- ------ ----- ------- ---- -- --- ------- --<br>issuing ---------- ------ -- ----- -- ----- -- ---- ------<br>--- ----- --- --- ------ -------- ----- --- ------ ----- --<br>----- ----- ---------- --- --- ------ ------ ---- -- ------<br>------- --- ------ ----- --- ---- ------- -- ---- --- --<br>------- ------,501347.20000000007,501346.20000000007,500774.415,500786.4,500791.067,501357.238,,12,issuing
screen,html.Screen,2_1_1_1_13,2022-02-18T13:12:26.772Z,,,,,,,,,,,,,,,,,54,,,,,,,,,,,,,,659.7620000001043,,response,,,,100,,,,,,,Space,keypress(Space),,,,,,,,-- --- ---- --- ------ ----- ------- ---- -- --- ------- --<br>------- government ------ -- ----- -- ----- -- ---- ------<br>--- ----- --- --- ------ -------- ----- --- ------ ----- --<br>----- ----- ---------- --- --- ------ ------ ---- -- ------<br>------- --- ------ ----- --- ---- ------- -- ---- --- --<br>------- ------,502019.6,502017.0000000001,501340.586,501347.29999999993,501357.238,502023.319,,13,government
screen,html.Screen,2_1_1_1_14,2022-02-18T13:12:27.674Z,,,,,,,,,,,,,,,,,54,,,,,,,,,,,,,,896.1810000000987,,response,,,,100,,,,,,,Space,keypress(Space),,,,,,,,-- --- ---- --- ------ ----- ------- ---- -- --- ------- --<br>------- ---------- bonds. -- ----- -- ----- -- ---- ------<br>--- ----- --- --- ------ -------- ----- --- ------ ----- --<br>----- ----- ---------- --- --- ------ ------ ---- -- ------<br>------- --- ------ ----- --- ---- ------- -- ---- --- --<br>------- ------,502921.6,502919.5000000001,502006.667,502019.79999999993,502023.319,502939.188,,14,bonds.
screen,html.Screen,2_1_1_1_15,2022-02-18T13:12:28.269Z,,,,,,,,,,,,,,,,,54,,,,,,,,,,,,,,575.6119999999064,,response,,,,100,,,,,,,Space,keypress(Space),,,,,,,,-- --- ---- --- ------ ----- ------- ---- -- --- ------- --<br>------- ---------- ------ In ----- -- ----- -- ---- ------<br>--- ----- --- --- ------ -------- ----- --- ------ ----- --<br>----- ----- ---------- --- --- ------ ------ ---- -- ------<br>------- --- ------ ----- --- ---- ------- -- ---- --- --<br>------- ------,503516.4,503514.79999999993,502922.536,502921.9,502939.188,503522.008,,15,In
screen,html.Screen,2_1_1_1_16,2022-02-18T13:12:29.739Z,,,,,,,,,,,,,,,,,54,,,,,,,,,,,,,,1461.2919999999576,,response,,,,100,,,,,,,Space,keypress(Space),,,,,,,,"-- --- ---- --- ------ ----- ------- ---- -- --- ------- --<br>------- ---------- ------ -- 1727, -- ----- -- ---- ------<br>--- ----- --- --- ------ -------- ----- --- ------ ----- --<br>----- ----- ---------- --- --- ------ ------ ---- -- ------<br>------- --- ------ ----- --- ---- ------- -- ---- --- --<br>------- ------",504986.0000000001,504983.29999999993,503505.356,503516.70000000007,503522.008,504987.391,,16,"1727,"
screen,html.Screen,2_1_1_1_17,2022-02-18T13:12:30.350Z,,,,,,,,,,,,,,,,,54,,,,,,,,,,,,,,608.1090000001132,,response,,,,100,,,,,,,Space,keypress(Space),,,,,,,,-- --- ---- --- ------ ----- ------- ---- -- --- ------- --<br>------- ---------- ------ -- ----- in ----- -- ---- ------<br>--- ----- --- --- ------ -------- ----- --- ------ ----- --<br>----- ----- ---------- --- --- ------ ------ ---- -- ------<br>------- --- ------ ----- --- ---- ------- -- ---- --- --<br>------- ------,505597.4,505595.5000000001,504970.739,504986.20000000007,504987.391,505603.533,,17,in
screen,html.Screen,2_1_1_1_18,2022-02-18T13:12:30.928Z,,,,,,,,,,,,,,,,,54,,,,,,,,,,,,,,570.2669999999343,,response,,,,100,,,,,,,Space,keypress(Space),,,,,,,,-- --- ---- --- ------ ----- ------- ---- -- --- ------- --<br>------- ---------- ------ -- ----- -- order -- ---- ------<br>--- ----- --- --- ------ -------- ----- --- ------ ----- --<br>----- ----- ---------- --- --- ------ ------ ---- -- ------<br>------- --- ------ ----- --- ---- ------- -- ---- --- --<br>------- ------,506175.70000000007,506173.79999999993,505586.881,505597.70000000007,505603.533,506186.346,,18,order
screen,html.Screen,2_1_1_1_19,2022-02-18T13:12:31.834Z,,,,,,,,,,,,,,,,,54,,,,,,,,,,,,,,893.3540000000503,,response,,,,100,,,,,,,Space,keypress(Space),,,,,,,,-- --- ---- --- ------ ----- ------- ---- -- --- ------- --<br>------- ---------- ------ -- ----- -- ----- to ---- ------<br>--- ----- --- --- ------ -------- ----- --- ------ ----- --<br>----- ----- ---------- --- --- ------ ------ ---- -- ------<br>------- --- ------ ----- --- ---- ------- -- ---- --- --<br>------- ------,507081.4,507079.70000000007,506169.694,506176.0000000001,506186.346,507085.562,,19,to
screen,html.Screen,2_1_1_1_20,2022-02-18T13:12:32.482Z,,,,,,,,,,,,,,,,,54,,,,,,,,,,,,,,640.838000000047,,response,,,,100,,,,,,,Space,keypress(Space),,,,,,,,-- --- ---- --- ------ ----- ------- ---- -- --- ------- --<br>------- ---------- ------ -- ----- -- ----- -- save ------<br>--- ----- --- --- ------ -------- ----- --- ------ ----- --<br>----- ----- ---------- --- --- ------ ------ ---- -- ------<br>------- --- ------ ----- --- ---- ------- -- ---- --- --<br>------- ------,507728.9,507726.4,507068.91,507081.70000000007,507085.562,507735.008,,20,save
screen,html.Screen,2_1_1_1_21,2022-02-18T13:12:33.295Z,,,,,,,,,,,,,,,,,54,,,,,,,,,,,,,,805.1920000000973,,response,,,,100,,,,,,,Space,keypress(Space),,,,,,,,"-- --- ---- --- ------ ----- ------- ---- -- --- ------- --<br>------- ---------- ------ -- ----- -- ----- -- ---- money,<br>--- ----- --- --- ------ -------- ----- --- ------ ----- --<br>----- ----- ---------- --- --- ------ ------ ---- -- ------<br>------- --- ------ ----- --- ---- ------- -- ---- --- --<br>------- ------",508542.6,508540.20000000007,507718.356,507729.20000000007,507735.008,508550.954,,21,"money,"
screen,html.Screen,2_1_1_1_22,2022-02-18T13:12:33.778Z,,,,,,,,,,,,,,,,,54,,,,,,,,,,,,,,472.0460000000894,,response,,,,100,,,,,,,Space,keypress(Space),,,,,,,,-- --- ---- --- ------ ----- ------- ---- -- --- ------- --<br>------- ---------- ------ -- ----- -- ----- -- ---- ------<br>the ----- --- --- ------ -------- ----- --- ------ ----- --<br>----- ----- ---------- --- --- ------ ------ ---- -- ------<br>------- --- ------ ----- --- ---- ------- -- ---- --- --<br>------- ------,509025.29999999993,509023.0000000001,508534.302,508542.9,508550.954,509033.865,,22,the
screen,html.Screen,2_1_1_1_23,2022-02-18T13:12:34.183Z,,,,,,,,,,,,,,,,,54,,,,,,,,,,,,,,393.63500000012573,,response,,,,100,,,,,,,Space,keypress(Space),,,,,,,,-- --- ---- --- ------ ----- ------- ---- -- --- ------- --<br>------- ---------- ------ -- ----- -- ----- -- ---- ------<br>--- state --- --- ------ -------- ----- --- ------ ----- --<br>----- ----- ---------- --- --- ------ ------ ---- -- ------<br>------- --- ------ ----- --- ---- ------- -- ---- --- --<br>------- ------,509430.5000000001,509427.5000000001,509017.213,509025.5000000001,509033.865,509433.519,,23,state
screen,html.Screen,2_1_1_1_24,2022-02-18T13:12:34.646Z,,,,,,,,,,,,,,,,,54,,,,,,,,,,,,,,457.4810000001453,,response,,,,100,,,,,,,Space,keypress(Space),,,,,,,,-- --- ---- --- ------ ----- ------- ---- -- --- ------- --<br>------- ---------- ------ -- ----- -- ----- -- ---- ------<br>--- ----- cut --- ------ -------- ----- --- ------ ----- --<br>----- ----- ---------- --- --- ------ ------ ---- -- ------<br>------- --- ------ ----- --- ---- ------- -- ---- --- --<br>------- ------,509893.79999999993,509891.0000000001,509416.867,509430.70000000007,509433.519,509899.784,,24,cut
screen,html.Screen,2_1_1_1_25,2022-02-18T13:12:35.008Z,,,,,,,,,,,,,,,,,54,,,,,,,,,,,,,,352.91600000008475,,response,,,,100,,,,,,,Space,keypress(Space),,,,,,,,-- --- ---- --- ------ ----- ------- ---- -- --- ------- --<br>------- ---------- ------ -- ----- -- ----- -- ---- ------<br>--- ----- --- the ------ -------- ----- --- ------ ----- --<br>----- ----- ---------- --- --- ------ ------ ---- -- ------<br>------- --- ------ ----- --- ---- ------- -- ---- --- --<br>------- ------,510255.5000000001,510252.70000000007,509883.132,509894.1,509899.784,510266.133,,25,the
screen,html.Screen,2_1_1_1_26,2022-02-18T13:12:35.385Z,,,,,,,,,,,,,,,,,54,,,,,,,,,,,,,,364.0670000000973,,response,,,,100,,,,,,,Space,keypress(Space),,,,,,,,-- --- ---- --- ------ ----- ------- ---- -- --- ------- --<br>------- ---------- ------ -- ----- -- ----- -- ---- ------<br>--- ----- --- --- bonds' -------- ----- --- ------ ----- --<br>----- ----- ---------- --- --- ------ ------ ---- -- ------<br>------- --- ------ ----- --- ---- ------- -- ---- --- --<br>------- ------,510632.79999999993,510630.20000000007,510249.481,510255.79999999993,510266.133,510649.127,,26,bonds'
screen,html.Screen,2_1_1_1_27,2022-02-18T13:12:35.813Z,,,,,,,,,,,,,,,,,54,,,,,,,,,,,,,,409.47299999999814,,response,,,,100,,,,,,,Space,keypress(Space),,,,,,,,-- --- ---- --- ------ ----- ------- ---- -- --- ------- --<br>------- ---------- ------ -- ----- -- ----- -- ---- ------<br>--- ----- --- --- ------ interest ----- --- ------ ----- --<br>----- ----- ---------- --- --- ------ ------ ---- -- ------<br>------- --- ------ ----- --- ---- ------- -- ---- --- --<br>------- ------,511060.79999999993,511058.6,510632.475,510633.1,510649.127,511065.432,,27,interest
screen,html.Screen,2_1_1_1_28,2022-02-18T13:12:36.238Z,,,,,,,,,,,,,,,,,54,,,,,,,,,,,,,,418.1680000000051,,response,,,,100,,,,,,,Space,keypress(Space),,,,,,,,-- --- ---- --- ------ ----- ------- ---- -- --- ------- --<br>------- ---------- ------ -- ----- -- ----- -- ---- ------<br>--- ----- --- --- ------ -------- rate. --- ------ ----- --<br>----- ----- ---------- --- --- ------ ------ ---- -- ------<br>------- --- ------ ----- --- ---- ------- -- ---- --- --<br>------- ------,511485.4,511483.6,511048.78,511061.1,511065.432,511498.385,,28,rate.
screen,html.Screen,2_1_1_1_29,2022-02-18T13:12:36.766Z,,,,,,,,,,,,,,,,,54,,,,,,,,,,,,,,512.7149999999674,,response,,,,100,,,,,,,Space,keypress(Space),,,,,,,,-- --- ---- --- ------ ----- ------- ---- -- --- ------- --<br>------- ---------- ------ -- ----- -- ----- -- ---- ------<br>--- ----- --- --- ------ -------- ----- The ------ ----- --<br>----- ----- ---------- --- --- ------ ------ ---- -- ------<br>------- --- ------ ----- --- ---- ------- -- ---- --- --<br>------- ------,512013.5000000001,512011.1,511481.733,511485.70000000007,511498.385,512014.604,,29,The
screen,html.Screen,2_1_1_1_30,2022-02-18T13:12:37.197Z,,,,,,,,,,,,,,,,,54,,,,,,,,,,,,,,428.09600000007777,,response,,,,100,,,,,,,Space,keypress(Space),,,,,,,,-- --- ---- --- ------ ----- ------- ---- -- --- ------- --<br>------- ---------- ------ -- ----- -- ----- -- ---- ------<br>--- ----- --- --- ------ -------- ----- --- market ----- --<br>----- ----- ---------- --- --- ------ ------ ---- -- ------<br>------- --- ------ ----- --- ---- ------- -- ---- --- --<br>------- ------,512444.70000000007,512442.70000000007,511997.952,512013.79999999993,512014.604,512447.56,,30,market
screen,html.Screen,2_1_1_1_31,2022-02-18T13:12:37.583Z,,,,,,,,,,,,,,,,,54,,,,,,,,,,,,,,381.8400000000256,,response,,,,100,,,,,,,Space,keypress(Space),,,,,,,,-- --- ---- --- ------ ----- ------- ---- -- --- ------- --<br>------- ---------- ------ -- ----- -- ----- -- ---- ------<br>--- ----- --- --- ------ -------- ----- --- ------ value --<br>----- ----- ---------- --- --- ------ ------ ---- -- ------<br>------- --- ------ ----- --- ---- ------- -- ---- --- --<br>------- ------,512830.5000000001,512829.4,512430.908,512445.0000000001,512447.56,512847.21,,31,value
screen,html.Screen,2_1_1_1_32,2022-02-18T13:12:37.982Z,,,,,,,,,,,,,,,,,54,,,,,,,,,,,,,,377.4900000000489,,response,,,,100,,,,,,,Space,keypress(Space),,,,,,,,-- --- ---- --- ------ ----- ------- ---- -- --- ------- --<br>------- ---------- ------ -- ----- -- ----- -- ---- ------<br>--- ----- --- --- ------ -------- ----- --- ------ ----- of<br>----- ----- ---------- --- --- ------ ------ ---- -- ------<br>------- --- ------ ----- --- ---- ------- -- ---- --- --<br>------- ------,513229.0000000001,513224.70000000007,512830.558,512830.6,512847.21,513246.858,,32,of
screen,html.Screen,2_1_1_1_33,2022-02-18T13:12:38.450Z,,,,,,,,,,,,,,,,,54,,,,,,,,,,,,,,448.3420000000624,,response,,,,100,,,,,,,Space,keypress(Space),,,,,,,,-- --- ---- --- ------ ----- ------- ---- -- --- ------- --<br>------- ---------- ------ -- ----- -- ----- -- ---- ------<br>--- ----- --- --- ------ -------- ----- --- ------ ----- --<br>these ----- ---------- --- --- ------ ------ ---- -- ------<br>------- --- ------ ----- --- ---- ------- -- ---- --- --<br>------- ------,513697.79999999993,513695.20000000007,513230.206,513229.20000000007,513246.858,513713.111,,33,these
screen,html.Screen,2_1_1_1_34,2022-02-18T13:12:38.836Z,,,,,,,,,,,,,,,,,54,,,,,,,,,,,,,,367.68899999995483,,response,,,,100,,,,,,,Space,keypress(Space),,,,,,,,-- --- ---- --- ------ ----- ------- ---- -- --- ------- --<br>------- ---------- ------ -- ----- -- ----- -- ---- ------<br>--- ----- --- --- ------ -------- ----- --- ------ ----- --<br>----- bonds ---------- --- --- ------ ------ ---- -- ------<br>------- --- ------ ----- --- ---- ------- -- ---- --- --<br>------- ------,514083.1,514080.79999999993,513696.459,513698.1,513713.111,514096.118,,34,bonds
screen,html.Screen,2_1_1_1_35,2022-02-18T13:12:39.314Z,,,,,,,,,,,,,,,,,54,,,,,,,,,,,,,,463.1819999999134,,response,,,,100,,,,,,,Space,keypress(Space),,,,,,,,"-- --- ---- --- ------ ----- ------- ---- -- --- ------- --<br>------- ---------- ------ -- ----- -- ----- -- ---- ------<br>--- ----- --- --- ------ -------- ----- --- ------ ----- --<br>----- ----- plummeted, --- --- ------ ------ ---- -- ------<br>------- --- ------ ----- --- ---- ------- -- ---- --- --<br>------- ------",514561.70000000007,514559.29999999993,514079.466,514083.29999999993,514096.118,514579.024,,35,"plummeted,"
screen,html.Screen,2_1_1_1_36,2022-02-18T13:12:39.758Z,,,,,,,,,,,,,,,,,54,,,,,,,,,,,,,,423.8760000000475,,response,,,,100,,,,,,,Space,keypress(Space),,,,,,,,-- --- ---- --- ------ ----- ------- ---- -- --- ------- --<br>------- ---------- ------ -- ----- -- ----- -- ---- ------<br>--- ----- --- --- ------ -------- ----- --- ------ ----- --<br>----- ----- ---------- and --- ------ ------ ---- -- ------<br>------- --- ------ ----- --- ---- ------- -- ---- --- --<br>------- ------,515005.1,515002.9,514562.372,514561.9,514579.024,515011.986,,36,and
screen,html.Screen,2_1_1_1_37,2022-02-18T13:12:40.156Z,,,,,,,,,,,,,,,,,54,,,,,,,,,,,,,,388.21400000009453,,response,,,,100,,,,,,,Space,keypress(Space),,,,,,,,-- --- ---- --- ------ ----- ------- ---- -- --- ------- --<br>------- ---------- ------ -- ----- -- ----- -- ---- ------<br>--- ----- --- --- ------ -------- ----- --- ------ ----- --<br>----- ----- ---------- --- the ------ ------ ---- -- ------<br>------- --- ------ ----- --- ---- ------- -- ---- --- --<br>------- ------,515403.20000000007,515400.20000000007,514995.334,515005.29999999993,515011.986,515411.629,,37,the
screen,html.Screen,2_1_1_1_38,2022-02-18T13:12:40.606Z,,,,,,,,,,,,,,,,,54,,,,,,,,,,,,,,439.87100000010105,,response,,,,100,,,,,,,Space,keypress(Space),,,,,,,,-- --- ---- --- ------ ----- ------- ---- -- --- ------- --<br>------- ---------- ------ -- ----- -- ----- -- ---- ------<br>--- ----- --- --- ------ -------- ----- --- ------ ----- --<br>----- ----- ---------- --- --- market ------ ---- -- ------<br>------- --- ------ ----- --- ---- ------- -- ---- --- --<br>------- ------,515853.6,515851.5000000001,515394.977,515403.5000000001,515411.629,515861.238,,38,market
screen,html.Screen,2_1_1_1_39,2022-02-18T13:12:41.014Z,,,,,,,,,,,,,,,,,54,,,,,,,,,,,,,,397.6620000000112,,response,,,,100,,,,,,,Space,keypress(Space),,,,,,,,-- --- ---- --- ------ ----- ------- ---- -- --- ------- --<br>------- ---------- ------ -- ----- -- ----- -- ---- ------<br>--- ----- --- --- ------ -------- ----- --- ------ ----- --<br>----- ----- ---------- --- --- ------ became ---- -- ------<br>------- --- ------ ----- --- ---- ------- -- ---- --- --<br>------- ------,516261.5000000001,516258.9,515844.586,515853.9,515861.238,516277.548,,39,became
screen,html.Screen,2_1_1_1_40,2022-02-18T13:12:41.468Z,,,,,,,,,,,,,,,,,54,,,,,,,,,,,,,,436.55199999996694,,response,,,,100,,,,,,,Space,keypress(Space),,,,,,,,-- --- ---- --- ------ ----- ------- ---- -- --- ------- --<br>------- ---------- ------ -- ----- -- ----- -- ---- ------<br>--- ----- --- --- ------ -------- ----- --- ------ ----- --<br>----- ----- ---------- --- --- ------ ------ wary -- ------<br>------- --- ------ ----- --- ---- ------- -- ---- --- --<br>------- ------,516715.9,516714.1,516260.896,516261.70000000007,516277.548,516727.155,,40,wary
screen,html.Screen,2_1_1_1_41,2022-02-18T13:12:42.165Z,,,,,,,,,,,,,,,,,54,,,,,,,,,,,,,,683.2449999999953,,response,,,,100,,,,,,,Space,keypress(Space),,,,,,,,-- --- ---- --- ------ ----- ------- ---- -- --- ------- --<br>------- ---------- ------ -- ----- -- ----- -- ---- ------<br>--- ----- --- --- ------ -------- ----- --- ------ ----- --<br>----- ----- ---------- --- --- ------ ------ ---- of ------<br>------- --- ------ ----- --- ---- ------- -- ---- --- --<br>------- ------,517412.5000000001,517410.4,516710.503,516716.1,516727.155,517426.54,,41,of
screen,html.Screen,2_1_1_1_42,2022-02-18T13:12:42.596Z,,,,,,,,,,,,,,,,,54,,,,,,,,,,,,,,414.1600000000908,,response,,,,100,,,,,,,Space,keypress(Space),,,,,,,,-- --- ---- --- ------ ----- ------- ---- -- --- ------- --<br>------- ---------- ------ -- ----- -- ----- -- ---- ------<br>--- ----- --- --- ------ -------- ----- --- ------ ----- --<br>----- ----- ---------- --- --- ------ ------ ---- -- French<br>------- --- ------ ----- --- ---- ------- -- ---- --- --<br>------- ------,517843.29999999993,517840.70000000007,517409.888,517412.70000000007,517426.54,517859.507,,42,French
screen,html.Screen,2_1_1_1_43,2022-02-18T13:12:43.000Z,,,,,,,,,,,,,,,,,54,,,,,,,,,,,,,,386.1930000000866,,response,,,,100,,,,,,,Space,keypress(Space),,,,,,,,-- --- ---- --- ------ ----- ------- ---- -- --- ------- --<br>------- ---------- ------ -- ----- -- ----- -- ---- ------<br>--- ----- --- --- ------ -------- ----- --- ------ ----- --<br>----- ----- ---------- --- --- ------ ------ ---- -- ------<br>credit. --- ------ ----- --- ---- ------- -- ---- --- --<br>------- ------,518247.9,518245.70000000007,517842.855,517843.29999999993,517859.507,518259.154,,43,credit.
screen,html.Screen,2_1_1_1_44,2022-02-18T13:12:43.640Z,,,,,,,,,,,,,,,,,54,,,,,,,,,,,,,,626.4459999999963,,response,,,,100,,,,,,,Space,keypress(Space),,,,,,,,-- --- ---- --- ------ ----- ------- ---- -- --- ------- --<br>------- ---------- ------ -- ----- -- ----- -- ---- ------<br>--- ----- --- --- ------ -------- ----- --- ------ ----- --<br>----- ----- ---------- --- --- ------ ------ ---- -- ------<br>------- The ------ ----- --- ---- ------- -- ---- --- --<br>------- ------,518887.6,518885.6,518242.502,518248.20000000007,518259.154,518891.927,,44,The
screen,html.Screen,2_1_1_1_45,2022-02-18T13:12:44.067Z,,,,,,,,,,,,,,,,,54,,,,,,,,,,,,,,420.47299999999814,,response,,,,100,,,,,,,Space,keypress(Space),,,,,,,,-- --- ---- --- ------ ----- ------- ---- -- --- ------- --<br>------- ---------- ------ -- ----- -- ----- -- ---- ------<br>--- ----- --- --- ------ -------- ----- --- ------ ----- --<br>----- ----- ---------- --- --- ------ ------ ---- -- ------<br>------- --- French ----- --- ---- ------- -- ---- --- --<br>------- ------,519314.1,519312.4,518875.275,518887.79999999993,518891.927,519324.88,,45,French
screen,html.Screen,2_1_1_1_46,2022-02-18T13:12:44.497Z,,,,,,,,,,,,,,,,,54,,,,,,,,,,,,,,418.21999999997206,,response,,,,100,,,,,,,Space,keypress(Space),,,,,,,,-- --- ---- --- ------ ----- ------- ---- -- --- ------- --<br>------- ---------- ------ -- ----- -- ----- -- ---- ------<br>--- ----- --- --- ------ -------- ----- --- ------ ----- --<br>----- ----- ---------- --- --- ------ ------ ---- -- ------<br>------- --- ------ state --- ---- ------- -- ---- --- --<br>------- ------,519744.79999999993,519743.1,519308.228,519314.4,519324.88,519757.841,,46,state
screen,html.Screen,2_1_1_1_47,2022-02-18T13:12:44.909Z,,,,,,,,,,,,,,,,,54,,,,,,,,,,,,,,396.5590000000084,,response,,,,100,,,,,,,Space,keypress(Space),,,,,,,,-- --- ---- --- ------ ----- ------- ---- -- --- ------- --<br>------- ---------- ------ -- ----- -- ----- -- ---- ------<br>--- ----- --- --- ------ -------- ----- --- ------ ----- --<br>----- ----- ---------- --- --- ------ ------ ---- -- ------<br>------- --- ------ ----- was ---- ------- -- ---- --- --<br>------- ------,520156.20000000007,520154.4,519741.189,519745.1,519757.841,520157.501,,47,was
screen,html.Screen,2_1_1_1_48,2022-02-18T13:12:45.311Z,,,,,,,,,,,,,,,,,54,,,,,,,,,,,,,,398.9990000001271,,response,,,,100,,,,,,,Space,keypress(Space),,,,,,,,-- --- ---- --- ------ ----- ------- ---- -- --- ------- --<br>------- ---------- ------ -- ----- -- ----- -- ---- ------<br>--- ----- --- --- ------ -------- ----- --- ------ ----- --<br>----- ----- ---------- --- --- ------ ------ ---- -- ------<br>------- --- ------ ----- --- left ------- -- ---- --- --<br>------- ------,520558.1,520556.5000000001,520140.849,520156.5000000001,520157.501,520573.793,,48,left
screen,html.Screen,2_1_1_1_49,2022-02-18T13:12:45.706Z,,,,,,,,,,,,,,,,,54,,,,,,,,,,,,,,376.8069999999716,,response,,,,100,,,,,,,Space,keypress(Space),,,,,,,,-- --- ---- --- ------ ----- ------- ---- -- --- ------- --<br>------- ---------- ------ -- ----- -- ----- -- ---- ------<br>--- ----- --- --- ------ -------- ----- --- ------ ----- --<br>----- ----- ---------- --- --- ------ ------ ---- -- ------<br>------- --- ------ ----- --- ---- without -- ---- --- --<br>------- ------,520953.6,520950.6,520557.141,520558.4,520573.793,520956.803,,49,without
screen,html.Screen,2_1_1_1_50,2022-02-18T13:12:46.129Z,,,,,,,,,,,,,,,,,54,,,,,,,,,,,,,,417.59700000000885,,response,,,,100,,,,,,,Space,keypress(Space),,,,,,,,-- --- ---- --- ------ ----- ------- ---- -- --- ------- --<br>------- ---------- ------ -- ----- -- ----- -- ---- ------<br>--- ----- --- --- ------ -------- ----- --- ------ ----- --<br>----- ----- ---------- --- --- ------ ------ ---- -- ------<br>------- --- ------ ----- --- ---- ------- an ---- --- --<br>------- ------,521376.0000000001,521374.4,520940.151,520953.70000000007,520956.803,521389.756,,50,an
screen,html.Screen,2_1_1_1_51,2022-02-18T13:12:47.327Z,,,,,,,,,,,,,,,,,54,,,,,,,,,,,,,,1182.944000000076,,response,,,,100,,,,,,,Space,keypress(Space),,,,,,,,-- --- ---- --- ------ ----- ------- ---- -- --- ------- --<br>------- ---------- ------ -- ----- -- ----- -- ---- ------<br>--- ----- --- --- ------ -------- ----- --- ------ ----- --<br>----- ----- ---------- --- --- ------ ------ ---- -- ------<br>------- --- ------ ----- --- ---- ------- -- easy --- --<br>------- ------,522574.6,522572.70000000007,521373.104,521376.20000000007,521389.756,522588.694,,51,easy
screen,html.Screen,2_1_1_1_52,2022-02-18T13:12:53.267Z,,,,,,,,,,,,,,,,,54,,,,,,,,,,,,,,5922.405999999959,,response,,,,100,,,,,,,Space,keypress(Space),,,,,,,,-- --- ---- --- ------ ----- ------- ---- -- --- ------- --<br>------- ---------- ------ -- ----- -- ----- -- ---- ------<br>--- ----- --- --- ------ -------- ----- --- ------ ----- --<br>----- ----- ---------- --- --- ------ ------ ---- -- ------<br>------- --- ------ ----- --- ---- ------- -- ---- way --<br>------- ------,528514.5000000001,528511.1,522572.042,522574.9,522588.694,528516.822,,52,way
screen,html.Screen,2_1_1_1_53,2022-02-18T13:12:53.667Z,,,,,,,,,,,,,,,,,54,,,,,,,,,,,,,,395.3780000000261,,response,,,,100,,,,,,,Space,keypress(Space),,,,,,,,-- --- ---- --- ------ ----- ------- ---- -- --- ------- --<br>------- ---------- ------ -- ----- -- ----- -- ---- ------<br>--- ----- --- --- ------ -------- ----- --- ------ ----- --<br>----- ----- ---------- --- --- ------ ------ ---- -- ------<br>------- --- ------ ----- --- ---- ------- -- ---- --- of<br>------- ------,528914.6,528912.2000000001,528500.17,528514.7000000001,528516.822,528916.512,,53,of
screen,html.Screen,2_1_1_1_54,2022-02-18T13:12:54.074Z,,,,,,,,,,,,,,,,,54,,,,,,,,,,,,,,402.78799999994226,,response,,,,100,,,,,,,Space,keypress(Space),,,,,,,,-- --- ---- --- ------ ----- ------- ---- -- --- ------- --<br>------- ---------- ------ -- ----- -- ----- -- ---- ------<br>--- ----- --- --- ------ -------- ----- --- ------ ----- --<br>----- ----- ---------- --- --- ------ ------ ---- -- ------<br>------- --- ------ ----- --- ---- ------- -- ---- --- --<br>raising ------,529321.7999999999,529319.2999999999,528899.86,528915.0000000001,528916.512,529332.822,,54,raising
screen,html.Screen,2_1_1_1_55,2022-02-18T13:12:54.446Z,,,,,,,,,,,,,,,,,54,,,,,,,,,,,,,,358.77799999993294,,response,,,,100,,,,,,,Space,keypress(Space),,,,,,,,-- --- ---- --- ------ ----- ------- ---- -- --- ------- --<br>------- ---------- ------ -- ----- -- ----- -- ---- ------<br>--- ----- --- --- ------ -------- ----- --- ------ ----- --<br>----- ----- ---------- --- --- ------ ------ ---- -- ------<br>------- --- ------ ----- --- ---- ------- -- ---- --- --<br>------- money.,529693.7000000001,529691.6,529316.17,529322.0000000001,529332.822,529699.16,,55,money.
Item 100,flow.Loop,2_1_1_1,2022-02-18T13:12:54.447Z,,,,,,,,,,,,,,,,,,,,,,,,,,,,,,,37443.07999999996,,completion,,,,,F,,,,,,,,,,,silence,,,,,529694.1,529691.6,492231.868,492238.20000000007,492248.52,529699.16,,,
Question 1,html.Screen,2_1_1_2,2022-02-18T13:12:57.834Z,,,,,,,,,,,,,,,,,,,,,,,,,,,,true,TRUE,,3378.340000000084,,response,,,,100,F,,,,,,TRUE,click #choice-1,,,,silence,,,,,533081.6,533077.5000000001,529682.508,529694.4,529699.16,533096.204,,,
Question 2,html.Screen,2_1_1_3,2022-02-18T13:13:01.072Z,,,,,,,,,,,,,,,,,,,,,,,,,,,,false,FALSE,,3219.3959999999497,,response,,,,100,F,,,,,,TRUE,click #choice-1,,,,silence,,,,,536319.5000000001,536315.6,533079.552,533081.9,533096.204,536326.711,,,
Item 100,flow.Sequence,2_1_1,2022-02-18T13:13:01.073Z,,,,,,,,,,,,,,,,,,,,,,,,,,,,,,,54075.01899999997,,completion,,,,,,,,,,,,,,,,,,,,,536319.9,536315.6,482223.929,482227.30000000005,482240.581,536326.711,,,
End of Practice,html.Page,2_1_2,2022-02-18T13:13:06.807Z,,,,,,,,,,,,,,,,,,,,,,,,,,,,,,,5727.08899999992,,form submission,,,,,,,,,,,,,,,,,,,,,542054.1,542053.7999999999,536310.059,536320.1,536326.711,542055.053,,,
Practice,flow.Sequence,2_1,2022-02-18T13:13:06.807Z,,,,,,,,,,,,,,,,,,,,,,,,,,,,,,,108687.2369999999,,completion,,,,,,,,,,,,,,,,,,,,,542054.2999999999,542053.7999999999,433333.259,433349.4,433366.563,542055.053,,,
Trap_instruction,html.Page,2_2_0,2022-02-18T13:13:12.927Z,,,,,,,,,,,,,,,,,,,,,,,,,,,,,,,6118.746999999974,,form submission,,,,,,,,,,,,,,,,,,,,,548174.2000000001,548173.7999999999,542038.401,542054.5000000001,542055.053,548232.94,,,
trap_trial,html.Screen,2_2_1,2022-02-18T13:13:16.893Z,,,,,,,,,,,,,,,,,,,,,,,,,,,,true,1,,3901.859999999986,,response,,,,,,,,,,,1,click #choice-1,,,,,,,,,552140.0000000001,552134.7999999999,548166.332,548174.2999999999,548232.94,552162.861,,,
end of trap trial,html.Page,2_2_2,2022-02-18T13:13:19.461Z,,,,,,,,,,,,,,,,,,,,,,,,,,,,,,,2544.9389999998966,,form submission,,,,,,,,,,,,,,,,,,,,,554708.4,554707.7999999999,552146.209,552140.2999999999,552162.861,554710.672,,,
Trap 1,flow.Sequence,2_2,2022-02-18T13:13:19.461Z,,,,,,,,,,,,,,,,,,,,,,,,,,,,,,,12652.746999999974,,completion,,,,,,,,,,,,,,,,,,,,,554708.7999999999,554707.7999999999,542038.401,542054.2999999999,542055.053,554710.672,,,
Standby,html.Page,2_3_0,2022-02-18T13:13:27.441Z,,,,,,,,,,,,,,,,,,,,,,,,,,,,,,,7993.030000000028,,timeout,,,,,,,,,,,,,,,,,,,,,562688.4,562687.05,554694.02,554709.1,554710.672,562703.702,,,
Holding screen,html.Screen,2_3_1_0_0,2022-02-18T13:13:34.435Z,,,,,,,,,,,,,,,,,,,,,,,,,,,,,,,6993.883999999962,,timeout,,,,,,,,,,,,,,,,,,,,,569682.2000000001,569680.934,562687.05,562688.9,562703.702,569697.586,,,
screen,html.Screen,2_3_1_0_1_0,2022-02-18T13:13:35.941Z,,,,,,,,,,,,,,,,,11,,,,,,,,,,,,,,1487.71399999992,,response,,,,4,F,,,,,,Space,keypress(Space),,,,instrumental,,,,Known -- ---- --- -- --- -------- ------------ ---------- --<br>- ------- ------ --------- -- ------------ -- --- ---- -----<br>------ ---- ---- ------ ------ ------- --- ----- ---------<br>---- --- -------- -------- --- --- -- ------- --- --- -----<br>-- --- ------ ------- --- --- -------- ---- --------- --<br>---------- -- -------- ----------------,571188.2999999999,571185.2999999999,569680.934,569682.6,569697.586,571196.28,,0,Known
screen,html.Screen,2_3_1_0_1_1,2022-02-18T13:13:36.467Z,,,,,,,,,,,,,,,,,11,,,,,,,,,,,,,,516.3199999999488,,response,,,,4,F,,,,,,Space,keypress(Space),,,,instrumental,,,,----- as ---- --- -- --- -------- ------------ ---------- --<br>- ------- ------ --------- -- ------------ -- --- ---- -----<br>------ ---- ---- ------ ------ ------- --- ----- ---------<br>---- --- -------- -------- --- --- -- ------- --- --- -----<br>-- --- ------ ------- --- --- -------- ---- --------- --<br>---------- -- -------- ----------------,571714.9,571712.6,571179.628,571188.6,571196.28,571729.151,,1,as
screen,html.Screen,2_3_1_0_1_2,2022-02-18T13:13:37.496Z,,,,,,,,,,,,,,,,,11,,,,,,,,,,,,,,1012.349000000162,,response,,,,4,F,,,,,,Space,keypress(Space),,,,instrumental,,,,----- -- Rapa --- -- --- -------- ------------ ---------- --<br>- ------- ------ --------- -- ------------ -- --- ---- -----<br>------ ---- ---- ------ ------ ------- --- ----- ---------<br>---- --- -------- -------- --- --- -- ------- --- --- -----<br>-- --- ------ ------- --- --- -------- ---- --------- --<br>---------- -- -------- ----------------,572743.2000000001,572741.5000000001,571712.499,571715.2000000001,571729.151,572744.933,,2,Rapa
screen,html.Screen,2_3_1_0_1_3,2022-02-18T13:13:38.264Z,,,,,,,,,,,,,,,,,11,,,,,,,,,,,,,,763.3669999999693,,response,,,,4,F,,,,,,Space,keypress(Space),,,,instrumental,,,,----- -- ---- Nui -- --- -------- ------------ ---------- --<br>- ------- ------ --------- -- ------------ -- --- ---- -----<br>------ ---- ---- ------ ------ ------- --- ----- ---------<br>---- --- -------- -------- --- --- -- ------- --- --- -----<br>-- --- ------ ------- --- --- -------- ---- --------- --<br>---------- -- -------- ----------------,573511.2000000001,573508.2999999999,572728.281,572743.4,572744.933,573527.582,,3,Nui
screen,html.Screen,2_3_1_0_1_4,2022-02-18T13:13:38.921Z,,,,,,,,,,,,,,,,,11,,,,,,,,,,,,,,638.7179999998771,,response,,,,4,F,,,,,,Space,keypress(Space),,,,instrumental,,,,----- -- ---- --- to --- -------- ------------ ---------- --<br>- ------- ------ --------- -- ------------ -- --- ---- -----<br>------ ---- ---- ------ ------ ------- --- ----- ---------<br>---- --- -------- -------- --- --- -- ------- --- --- -----<br>-- --- ------ ------- --- --- -------- ---- --------- --<br>---------- -- -------- ----------------,574168.0000000001,574166.2999999999,573510.93,573511.5000000001,573527.582,574177.006,,4,to
screen,html.Screen,2_3_1_0_1_5,2022-02-18T13:13:39.319Z,,,,,,,,,,,,,,,,,11,,,,,,,,,,,,,,387.293999999878,,response,,,,4,F,,,,,,Space,keypress(Space),,,,instrumental,,,,----- -- ---- --- -- the -------- ------------ ---------- --<br>- ------- ------ --------- -- ------------ -- --- ---- -----<br>------ ---- ---- ------ ------ ------- --- ----- ---------<br>---- --- -------- -------- --- --- -- ------- --- --- -----<br>-- --- ------ ------- --- --- -------- ---- --------- --<br>---------- -- -------- ----------------,574566.7000000001,574564.2999999999,574160.354,574168.2999999999,574177.006,574576.673,,5,the
screen,html.Screen,2_3_1_0_1_6,2022-02-18T13:13:39.806Z,,,,,,,,,,,,,,,,,11,,,,,,,,,,,,,,475.42700000002515,,response,,,,4,F,,,,,,Space,keypress(Space),,,,instrumental,,,,----- -- ---- --- -- --- island's ------------ ---------- --<br>- ------- ------ --------- -- ------------ -- --- ---- -----<br>------ ---- ---- ------ ------ ------- --- ----- ---------<br>---- --- -------- -------- --- --- -- ------- --- --- -----<br>-- --- ------ ------- --- --- -------- ---- --------- --<br>---------- -- -------- ----------------,575053.7999999999,575052.1,574560.021,574567.0000000001,574576.673,575059.584,,6,island's
screen,html.Screen,2_3_1_0_1_7,2022-02-18T13:13:40.441Z,,,,,,,,,,,,,,,,,11,,,,,,,,,,,,,,626.9160000000848,,response,,,,4,F,,,,,,Space,keypress(Space),,,,instrumental,,,,"----- -- ---- --- -- --- -------- inhabitants, ---------- --<br>- ------- ------ --------- -- ------------ -- --- ---- -----<br>------ ---- ---- ------ ------ ------- --- ----- ---------<br>---- --- -------- -------- --- --- -- ------- --- --- -----<br>-- --- ------ ------- --- --- -------- ---- --------- --<br>---------- -- -------- ----------------",575688.2999999999,575686.5000000001,575042.932,575054.0000000001,575059.584,575692.359,,7,"inhabitants,"
screen,html.Screen,2_3_1_0_1_8,2022-02-18T13:13:41.500Z,,,,,,,,,,,,,,,,,11,,,,,,,,,,,,,,1053.4409999998752,,response,,,,4,F,,,,,,Space,keypress(Space),,,,instrumental,,,,----- -- ---- --- -- --- -------- ------------ Rongorongo --<br>- ------- ------ --------- -- ------------ -- --- ---- -----<br>------ ---- ---- ------ ------ ------- --- ----- ---------<br>---- --- -------- -------- --- --- -- ------- --- --- -----<br>-- --- ------ ------- --- --- -------- ---- --------- --<br>---------- -- -------- ----------------,576747.7000000001,576745.7999999999,575675.707,575688.6,575692.359,576758.093,,8,Rongorongo
screen,html.Screen,2_3_1_0_1_9,2022-02-18T13:13:42.021Z,,,,,,,,,,,,,,,,,11,,,,,,,,,,,,,,508.10700000007637,,response,,,,4,F,,,,,,Space,keypress(Space),,,,instrumental,,,,----- -- ---- --- -- --- -------- ------------ ---------- is<br>- ------- ------ --------- -- ------------ -- --- ---- -----<br>------ ---- ---- ------ ------ ------- --- ----- ---------<br>---- --- -------- -------- --- --- -- ------- --- --- -----<br>-- --- ------ ------- --- --- -------- ---- --------- --<br>---------- -- -------- ----------------,577268.6,577266.2000000001,576741.441,576748.1,576758.093,577274.306,,9,is
screen,html.Screen,2_3_1_0_1_10,2022-02-18T13:13:42.441Z,,,,,,,,,,,,,,,,,11,,,,,,,,,,,,,,410.99399999994785,,response,,,,4,F,,,,,,Space,keypress(Space),,,,instrumental,,,,----- -- ---- --- -- --- -------- ------------ ---------- --<br>a ------- ------ --------- -- ------------ -- --- ---- -----<br>------ ---- ---- ------ ------ ------- --- ----- ---------<br>---- --- -------- -------- --- --- -- ------- --- --- -----<br>-- --- ------ ------- --- --- -------- ---- --------- --<br>---------- -- -------- ----------------,577688.0000000001,577685.2999999999,577257.654,577268.7999999999,577274.306,577707.261,,10,a
screen,html.Screen,2_3_1_0_1_11,2022-02-18T13:13:42.840Z,,,,,,,,,,,,,,,,,11,,,,,,,,,,,,,,378.1389999999665,,response,,,,4,F,,,,,,Space,keypress(Space),,,,instrumental,,,,----- -- ---- --- -- --- -------- ------------ ---------- --<br>- writing ------ --------- -- ------------ -- --- ---- -----<br>------ ---- ---- ------ ------ ------- --- ----- ---------<br>---- --- -------- -------- --- --- -- ------- --- --- -----<br>-- --- ------ ------- --- --- -------- ---- --------- --<br>---------- -- -------- ----------------,578087.2999999999,578085.4,577690.609,577688.2000000001,577707.261,578090.269,,11,writing
screen,html.Screen,2_3_1_0_1_12,2022-02-18T13:13:43.224Z,,,,,,,,,,,,,,,,,11,,,,,,,,,,,,,,378.4310000000987,,response,,,,4,F,,,,,,Space,keypress(Space),,,,instrumental,,,,----- -- ---- --- -- --- -------- ------------ ---------- --<br>- ------- system --------- -- ------------ -- --- ---- -----<br>------ ---- ---- ------ ------ ------- --- ----- ---------<br>---- --- -------- -------- --- --- -- ------- --- --- -----<br>-- --- ------ ------- --- --- -------- ---- --------- --<br>---------- -- -------- ----------------,578471.2000000001,578468.7000000001,578073.617,578087.6,578090.269,578473.268,,12,system
screen,html.Screen,2_3_1_0_1_13,2022-02-18T13:13:43.607Z,,,,,,,,,,,,,,,,,11,,,,,,,,,,,,,,378.4320000000298,,response,,,,4,F,,,,,,Space,keypress(Space),,,,instrumental,,,,----- -- ---- --- -- --- -------- ------------ ---------- --<br>- ------- ------ comprised -- ------------ -- --- ---- -----<br>------ ---- ---- ------ ------ ------- --- ----- ---------<br>---- --- -------- -------- --- --- -- ------- --- --- -----<br>-- --- ------ ------- --- --- -------- ---- --------- --<br>---------- -- -------- ----------------,578854.2000000001,578851.7000000001,578456.616,578471.5000000001,578473.268,578856.271,,13,comprised
screen,html.Screen,2_3_1_0_1_14,2022-02-18T13:13:44.034Z,,,,,,,,,,,,,,,,,11,,,,,,,,,,,,,,422.329000000027,,response,,,,4,F,,,,,,Space,keypress(Space),,,,instrumental,,,,----- -- ---- --- -- --- -------- ------------ ---------- --<br>- ------- ------ --------- of ------------ -- --- ---- -----<br>------ ---- ---- ------ ------ ------- --- ----- ---------<br>---- --- -------- -------- --- --- -- ------- --- --- -----<br>-- --- ------ ------- --- --- -------- ---- --------- --<br>---------- -- -------- ----------------,579281.5000000001,579278.6,578839.619,578854.4,578856.271,579289.223,,14,of
screen,html.Screen,2_3_1_0_1_15,2022-02-18T13:13:44.898Z,,,,,,,,,,,,,,,,,11,,,,,,,,,,,,,,855.076999999932,,response,,,,4,F,,,,,,Space,keypress(Space),,,,instrumental,,,,----- -- ---- --- -- --- -------- ------------ ---------- --<br>- ------- ------ --------- -- pictographs. -- --- ---- -----<br>------ ---- ---- ------ ------ ------- --- ----- ---------<br>---- --- -------- -------- --- --- -- ------- --- --- -----<br>-- --- ------ ------- --- --- -------- ---- --------- --<br>---------- -- -------- ----------------,580145.2000000001,580144.2999999999,579272.571,579281.7000000001,579289.223,580155.133,,15,pictographs.
screen,html.Screen,2_3_1_0_1_16,2022-02-18T13:13:45.330Z,,,,,,,,,,,,,,,,,11,,,,,,,,,,,,,,420.0670000000391,,response,,,,4,F,,,,,,Space,keypress(Space),,,,instrumental,,,,----- -- ---- --- -- --- -------- ------------ ---------- --<br>- ------- ------ --------- -- ------------ It --- ---- -----<br>------ ---- ---- ------ ------ ------- --- ----- ---------<br>---- --- -------- -------- --- --- -- ------- --- --- -----<br>-- --- ------ ------- --- --- -------- ---- --------- --<br>---------- -- -------- ----------------,580577.2999999999,580575.2000000001,580138.481,580145.4,580155.133,580588.087,,16,It
screen,html.Screen,2_3_1_0_1_17,2022-02-18T13:13:45.710Z,,,,,,,,,,,,,,,,,11,,,,,,,,,,,,,,368.512999999919,,response,,,,4,F,,,,,,Space,keypress(Space),,,,instrumental,,,,----- -- ---- --- -- --- -------- ------------ ---------- --<br>- ------- ------ --------- -- ------------ -- has ---- -----<br>------ ---- ---- ------ ------ ------- --- ----- ---------<br>---- --- -------- -------- --- --- -- ------- --- --- -----<br>-- --- ------ ------- --- --- -------- ---- --------- --<br>---------- -- -------- ----------------,580957.7999999999,580956.6,580571.435,580577.5000000001,580588.087,580971.085,,17,has
screen,html.Screen,2_3_1_0_1_18,2022-02-18T13:13:46.072Z,,,,,,,,,,,,,,,,,11,,,,,,,,,,,,,,346.41500000015367,,response,,,,4,F,,,,,,Space,keypress(Space),,,,instrumental,,,,----- -- ---- --- -- --- -------- ------------ ---------- --<br>- ------- ------ --------- -- ------------ -- --- been -----<br>------ ---- ---- ------ ------ ------- --- ----- ---------<br>---- --- -------- -------- --- --- -- ------- --- --- -----<br>-- --- ------ ------- --- --- -------- ---- --------- --<br>---------- -- -------- ----------------,581318.9,581317.5000000001,580954.433,580957.9,580971.085,581320.778,,18,been
screen,html.Screen,2_3_1_0_1_19,2022-02-18T13:13:46.524Z,,,,,,,,,,,,,,,,,11,,,,,,,,,,,,,,448.5219999998808,,response,,,,4,F,,,,,,Space,keypress(Space),,,,instrumental,,,,----- -- ---- --- -- --- -------- ------------ ---------- --<br>- ------- ------ --------- -- ------------ -- --- ---- found<br>------ ---- ---- ------ ------ ------- --- ----- ---------<br>---- --- -------- -------- --- --- -- ------- --- --- -----<br>-- --- ------ ------- --- --- -------- ---- --------- --<br>---------- -- -------- ----------------,581771.1,581769.2999999999,581304.126,581319.0000000001,581320.778,581787.037,,19,found
screen,html.Screen,2_3_1_0_1_20,2022-02-18T13:13:46.936Z,,,,,,,,,,,,,,,,,11,,,,,,,,,,,,,,394.96300000010524,,response,,,,4,F,,,,,,Space,keypress(Space),,,,instrumental,,,,----- -- ---- --- -- --- -------- ------------ ---------- --<br>- ------- ------ --------- -- ------------ -- --- ---- -----<br>carved ---- ---- ------ ------ ------- --- ----- ---------<br>---- --- -------- -------- --- --- -- ------- --- --- -----<br>-- --- ------ ------- --- --- -------- ---- --------- --<br>---------- -- -------- ----------------,582183.1,582182.0000000001,581770.385,581771.2999999999,581787.037,582186.694,,20,carved
screen,html.Screen,2_3_1_0_1_21,2022-02-18T13:13:47.394Z,,,,,,,,,,,,,,,,,11,,,,,,,,,,,,,,453.8060000000987,,response,,,,4,F,,,,,,Space,keypress(Space),,,,instrumental,,,,----- -- ---- --- -- --- -------- ------------ ---------- --<br>- ------- ------ --------- -- ------------ -- --- ---- -----<br>------ into ---- ------ ------ ------- --- ----- ---------<br>---- --- -------- -------- --- --- -- ------- --- --- -----<br>-- --- ------ ------- --- --- -------- ---- --------- --<br>---------- -- -------- ----------------,582641.2000000001,582640.5000000001,582170.042,582183.2000000001,582186.694,582652.95,,21,into
screen,html.Screen,2_3_1_0_1_22,2022-02-18T13:13:47.749Z,,,,,,,,,,,,,,,,,11,,,,,,,,,,,,,,342.7500000001164,,response,,,,4,F,,,,,,Space,keypress(Space),,,,instrumental,,,,----- -- ---- --- -- --- -------- ------------ ---------- --<br>- ------- ------ --------- -- ------------ -- --- ---- -----<br>------ ---- many ------ ------ ------- --- ----- ---------<br>---- --- -------- -------- --- --- -- ------- --- --- -----<br>-- --- ------ ------- --- --- -------- ---- --------- --<br>---------- -- -------- ----------------,582996.9,582995.7000000001,582636.298,582641.2999999999,582652.95,583002.644,,22,many
screen,html.Screen,2_3_1_0_1_23,2022-02-18T13:13:48.161Z,,,,,,,,,,,,,,,,,11,,,,,,,,,,,,,,404.3560000001453,,response,,,,4,F,,,,,,Space,keypress(Space),,,,instrumental,,,,----- -- ---- --- -- --- -------- ------------ ---------- --<br>- ------- ------ --------- -- ------------ -- --- ---- -----<br>------ ---- ---- oblong ------ ------- --- ----- ---------<br>---- --- -------- -------- --- --- -- ------- --- --- -----<br>-- --- ------ ------- --- --- -------- ---- --------- --<br>---------- -- -------- ----------------,583408.2000000001,583407.0000000001,582985.992,582997.0000000001,583002.644,583418.948,,23,oblong
screen,html.Screen,2_3_1_0_1_24,2022-02-18T13:13:48.547Z,,,,,,,,,,,,,,,,,11,,,,,,,,,,,,,,373.752000000095,,response,,,,4,F,,,,,,Space,keypress(Space),,,,instrumental,,,,----- -- ---- --- -- --- -------- ------------ ---------- --<br>- ------- ------ --------- -- ------------ -- --- ---- -----<br>------ ---- ---- ------ wooden ------- --- ----- ---------<br>---- --- -------- -------- --- --- -- ------- --- --- -----<br>-- --- ------ ------- --- --- -------- ---- --------- --<br>---------- -- -------- ----------------,583794.1,583792.7000000001,583402.296,583408.2999999999,583418.948,583801.948,,24,wooden
screen,html.Screen,2_3_1_0_1_25,2022-02-18T13:13:48.952Z,,,,,,,,,,,,,,,,,11,,,,,,,,,,,,,,395.15200000000186,,response,,,,4,F,,,,,,Space,keypress(Space),,,,instrumental,,,,----- -- ---- --- -- --- -------- ------------ ---------- --<br>- ------- ------ --------- -- ------------ -- --- ---- -----<br>------ ---- ---- ------ ------ tablets --- ----- ---------<br>---- --- -------- -------- --- --- -- ------- --- --- -----<br>-- --- ------ ------- --- --- -------- ---- --------- --<br>---------- -- -------- ----------------,584199.1,584197.1,583785.296,583794.4,583801.948,584201.607,,25,tablets
screen,html.Screen,2_3_1_0_1_26,2022-02-18T13:13:49.361Z,,,,,,,,,,,,,,,,,11,,,,,,,,,,,,,,404.99300000001676,,response,,,,4,F,,,,,,Space,keypress(Space),,,,instrumental,,,,----- -- ---- --- -- --- -------- ------------ ---------- --<br>- ------- ------ --------- -- ------------ -- --- ---- -----<br>------ ---- ---- ------ ------ ------- and ----- ---------<br>---- --- -------- -------- --- --- -- ------- --- --- -----<br>-- --- ------ ------- --- --- -------- ---- --------- --<br>---------- -- -------- ----------------,584608.4,584606.6,584184.955,584199.2999999999,584201.607,584617.9,,26,and
screen,html.Screen,2_3_1_0_1_27,2022-02-18T13:13:49.743Z,,,,,,,,,,,,,,,,,11,,,,,,,,,,,,,,368.80000000004657,,response,,,,4,F,,,,,,Space,keypress(Space),,,,instrumental,,,,----- -- ---- --- -- --- -------- ------------ ---------- --<br>- ------- ------ --------- -- ------------ -- --- ---- -----<br>------ ---- ---- ------ ------ ------- --- other ---------<br>---- --- -------- -------- --- --- -- ------- --- --- -----<br>-- --- ------ ------- --- --- -------- ---- --------- --<br>---------- -- -------- ----------------,584990.0000000001,584986.7000000001,584601.248,584608.6,584617.9,585000.895,,27,other
screen,html.Screen,2_3_1_0_1_28,2022-02-18T13:13:50.337Z,,,,,,,,,,,,,,,,,11,,,,,,,,,,,,,,581.2049999999581,,response,,,,4,F,,,,,,Space,keypress(Space),,,,instrumental,,,,----- -- ---- --- -- --- -------- ------------ ---------- --<br>- ------- ------ --------- -- ------------ -- --- ---- -----<br>------ ---- ---- ------ ------ ------- --- ----- artifacts<br>---- --- -------- -------- --- --- -- ------- --- --- -----<br>-- --- ------ ------- --- --- -------- ---- --------- --<br>---------- -- -------- ----------------,585584.4,585582.1,584984.243,584990.2999999999,585000.895,585600.383,,28,artifacts
screen,html.Screen,2_3_1_0_1_29,2022-02-18T13:13:50.760Z,,,,,,,,,,,,,,,,,11,,,,,,,,,,,,,,405.4169999998994,,response,,,,4,F,,,,,,Space,keypress(Space),,,,instrumental,,,,----- -- ---- --- -- --- -------- ------------ ---------- --<br>- ------- ------ --------- -- ------------ -- --- ---- -----<br>------ ---- ---- ------ ------ ------- --- ----- ---------<br>from --- -------- -------- --- --- -- ------- --- --- -----<br>-- --- ------ ------- --- --- -------- ---- --------- --<br>---------- -- -------- ----------------,586007.7000000001,586005.7999999999,585583.731,585584.6,585600.383,586016.686,,29,from
screen,html.Screen,2_3_1_0_1_30,2022-02-18T13:13:51.124Z,,,,,,,,,,,,,,,,,11,,,,,,,,,,,,,,352.41399999998976,,response,,,,4,F,,,,,,Space,keypress(Space),,,,instrumental,,,,----- -- ---- --- -- --- -------- ------------ ---------- --<br>- ------- ------ --------- -- ------------ -- --- ---- -----<br>------ ---- ---- ------ ------ ------- --- ----- ---------<br>---- the -------- -------- --- --- -- ------- --- --- -----<br>-- --- ------ ------- --- --- -------- ---- --------- --<br>---------- -- -------- ----------------,586371.2000000001,586369.1,586000.034,586008.0000000001,586016.686,586383.031,,30,the
screen,html.Screen,2_3_1_0_1_31,2022-02-18T13:13:51.602Z,,,,,,,,,,,,,,,,,11,,,,,,,,,,,,,,464.9690000001574,,response,,,,4,F,,,,,,Space,keypress(Space),,,,instrumental,,,,----- -- ---- --- -- --- -------- ------------ ---------- --<br>- ------- ------ --------- -- ------------ -- --- ---- -----<br>------ ---- ---- ------ ------ ------- --- ----- ---------<br>---- --- island's -------- --- --- -- ------- --- --- -----<br>-- --- ------ ------- --- --- -------- ---- --------- --<br>---------- -- -------- ----------------,586849.7999999999,586848.0000000001,586366.379,586371.5000000001,586383.031,586865.938,,31,island's
screen,html.Screen,2_3_1_0_1_32,2022-02-18T13:13:52.040Z,,,,,,,,,,,,,,,,,11,,,,,,,,,,,,,,418.96200000005774,,response,,,,4,F,,,,,,Space,keypress(Space),,,,instrumental,,,,----- -- ---- --- -- --- -------- ------------ ---------- --<br>- ------- ------ --------- -- ------------ -- --- ---- -----<br>------ ---- ---- ------ ------ ------- --- ----- ---------<br>---- --- -------- history. --- --- -- ------- --- --- -----<br>-- --- ------ ------- --- --- -------- ---- --------- --<br>---------- -- -------- ----------------,587287.7999999999,587284.9,586849.286,586850.1,586865.938,587298.897,,32,history.
screen,html.Screen,2_3_1_0_1_33,2022-02-18T13:13:52.447Z,,,,,,,,,,,,,,,,,11,,,,,,,,,,,,,,393.6030000001192,,response,,,,4,F,,,,,,Space,keypress(Space),,,,instrumental,,,,----- -- ---- --- -- --- -------- ------------ ---------- --<br>- ------- ------ --------- -- ------------ -- --- ---- -----<br>------ ---- ---- ------ ------ ------- --- ----- ---------<br>---- --- -------- -------- The --- -- ------- --- --- -----<br>-- --- ------ ------- --- --- -------- ---- --------- --<br>---------- -- -------- ----------------,587694.5000000001,587692.5000000001,587282.245,587288.0000000001,587298.897,587698.541,,33,The
screen,html.Screen,2_3_1_0_1_34,2022-02-18T13:13:52.925Z,,,,,,,,,,,,,,,,,11,,,,,,,,,,,,,,472.4590000001481,,response,,,,4,F,,,,,,Space,keypress(Space),,,,instrumental,,,,----- -- ---- --- -- --- -------- ------------ ---------- --<br>- ------- ------ --------- -- ------------ -- --- ---- -----<br>------ ---- ---- ------ ------ ------- --- ----- ---------<br>---- --- -------- -------- --- art -- ------- --- --- -----<br>-- --- ------ ------- --- --- -------- ---- --------- --<br>---------- -- -------- ----------------,588172.7999999999,588171.0000000001,587681.889,587694.7000000001,587698.541,588181.46,,34,art
screen,html.Screen,2_3_1_0_1_35,2022-02-18T13:13:53.278Z,,,,,,,,,,,,,,,,,11,,,,,,,,,,,,,,342.44000000006054,,response,,,,4,F,,,,,,Space,keypress(Space),,,,instrumental,,,,----- -- ---- --- -- --- -------- ------------ ---------- --<br>- ------- ------ --------- -- ------------ -- --- ---- -----<br>------ ---- ---- ------ ------ ------- --- ----- ---------<br>---- --- -------- -------- --- --- of ------- --- --- -----<br>-- --- ------ ------- --- --- -------- ---- --------- --<br>---------- -- -------- ----------------,588525.7000000001,588523.9,588164.808,588173.0000000001,588181.46,588531.16,,35,of
screen,html.Screen,2_3_1_0_1_36,2022-02-18T13:13:53.599Z,,,,,,,,,,,,,,,,,11,,,,,,,,,,,,,,313.4399999999441,,response,,,,4,F,,,,,,Space,keypress(Space),,,,instrumental,,,,----- -- ---- --- -- --- -------- ------------ ---------- --<br>- ------- ------ --------- -- ------------ -- --- ---- -----<br>------ ---- ---- ------ ------ ------- --- ----- ---------<br>---- --- -------- -------- --- --- -- writing --- --- -----<br>-- --- ------ ------- --- --- -------- ---- --------- --<br>---------- -- -------- ----------------,588846.4,588844.6,588514.508,588526.0000000001,588531.16,588864.203,,36,writing
screen,html.Screen,2_3_1_0_1_37,2022-02-18T13:13:54.137Z,,,,,,,,,,,,,,,,,11,,,,,,,,,,,,,,518.7970000001369,,response,,,,4,F,,,,,,Space,keypress(Space),,,,instrumental,,,,----- -- ---- --- -- --- -------- ------------ ---------- --<br>- ------- ------ --------- -- ------------ -- --- ---- -----<br>------ ---- ---- ------ ------ ------- --- ----- ---------<br>---- --- -------- -------- --- --- -- ------- was --- -----<br>-- --- ------ ------- --- --- -------- ---- --------- --<br>---------- -- -------- ----------------,589384.9,589383.0000000001,588847.551,588846.7000000001,588864.203,589397.06,,37,was
screen,html.Screen,2_3_1_0_1_38,2022-02-18T13:13:54.499Z,,,,,,,,,,,,,,,,,11,,,,,,,,,,,,,,347.44000000006054,,response,,,,4,F,,,,,,Space,keypress(Space),,,,instrumental,,,,----- -- ---- --- -- --- -------- ------------ ---------- --<br>- ------- ------ --------- -- ------------ -- --- ---- -----<br>------ ---- ---- ------ ------ ------- --- ----- ---------<br>---- --- -------- -------- --- --- -- ------- --- not -----<br>-- --- ------ ------- --- --- -------- ---- --------- --<br>---------- -- -------- ----------------,589746.4,589744.5000000001,589380.408,589385.2000000001,589397.06,589763.414,,38,not
screen,html.Screen,2_3_1_0_1_39,2022-02-18T13:13:54.939Z,,,,,,,,,,,,,,,,,11,,,,,,,,,,,,,,420.7860000000801,,response,,,,4,F,,,,,,Space,keypress(Space),,,,instrumental,,,,----- -- ---- --- -- --- -------- ------------ ---------- --<br>- ------- ------ --------- -- ------------ -- --- ---- -----<br>------ ---- ---- ------ ------ ------- --- ----- ---------<br>---- --- -------- -------- --- --- -- ------- --- --- known<br>-- --- ------ ------- --- --- -------- ---- --------- --<br>---------- -- -------- ----------------,590186.0000000001,590184.2000000001,589746.762,589746.6,589763.414,590196.373,,39,known
screen,html.Screen,2_3_1_0_1_40,2022-02-18T13:13:55.367Z,,,,,,,,,,,,,,,,,11,,,,,,,,,,,,,,415.627000000095,,response,,,,4,F,,,,,,Space,keypress(Space),,,,instrumental,,,,----- -- ---- --- -- --- -------- ------------ ---------- --<br>- ------- ------ --------- -- ------------ -- --- ---- -----<br>------ ---- ---- ------ ------ ------- --- ----- ---------<br>---- --- -------- -------- --- --- -- ------- --- --- -----<br>in --- ------ ------- --- --- -------- ---- --------- --<br>---------- -- -------- ----------------,590614.1,590612.0000000001,590179.721,590186.2999999999,590196.373,590629.327,,40,in
screen,html.Screen,2_3_1_0_1_41,2022-02-18T13:13:55.747Z,,,,,,,,,,,,,,,,,11,,,,,,,,,,,,,,362.8730000000214,,response,,,,4,F,,,,,,Space,keypress(Space),,,,instrumental,,,,----- -- ---- --- -- --- -------- ------------ ---------- --<br>- ------- ------ --------- -- ------------ -- --- ---- -----<br>------ ---- ---- ------ ------ ------- --- ----- ---------<br>---- --- -------- -------- --- --- -- ------- --- --- -----<br>-- any ------ ------- --- --- -------- ---- --------- --<br>---------- -- -------- ----------------,590994.5000000001,590992.2000000001,590612.675,590614.4,590629.327,591012.325,,41,any
