sender,sender_type,sender_id,timestamp,meta,,Blues,Classical,Country,Dance,Electronic,Folk,Gospel,Hip-Hop,Jazz,Latin,Musical/Film,New-age,Pop,Prolific_id,Provo_ID,R&B,Rap,Reggae,Religious,Rock,Soul,Swing,Traditional,age,artist_name,correct,correctResponse,distraction,duration,education,ended_on,familiarity,gender,headphone_check_performance,item,list,music_frequency,offensiveness,pleasantness,position_correct,preference,response,response_action,snippet_file,song_name,song_rating,sound,stimulus_1,stimulus_2,stimulus_3,text,time_commit,time_end,time_render,time_run,time_show,time_switch,url,word,word_ID
Prolific ID,html.Form,0,2022-02-03T14:34:27.728Z,"{""labjs_version"":""20.2.2"",""labjs_build"":{""flavor"":""production"",""commit"":""a25486e0c714a0ae2ce03ff94b7bb6896854dcfa""},""location"":""https://run.pavlovia.org/mvasilev/prolific2_music_a/"",""userAgent"":""Mozilla/5.0 (Windows NT 6.1; Win64; x64) AppleWebKit/537.36 (KHTML, like Gecko) Chrome/97.0.4692.99 Safari/537.36"",""platform"":""Win32"",""language"":""en-GB"",""locale"":""en-GB"",""timeZone"":""Europe/London"",""timezoneOffset"":0,""screen_width"":1366,""screen_height"":768,""scroll_width"":1366,""scroll_height"":609,""window_innerWidth"":1366,""window_innerHeight"":657,""devicePixelRatio"":1}",,,,,,,,,,,,,,,5ceae0b53060280001a063a0,,,,,,,,,,,,,,,9029.643999809265,,form submission,,,,,,,,,,,,,,,,,,,,,35893.699999809265,35892.199999809265,26829.15,26504.299999952316,26862.556,35917.518,{},,
Introduction,html.Screen,1_0,2022-02-03T14:34:32.256Z,,,,,,,,,,,,,,,,,,,,,,,,,,,,,,,4496.8819998569525,,response,,,,,,,,,,,continue,click button,,,,,,,,,40421.5,40414.39999985695,35884.106,35894.799999952316,35917.518,40444.887,,,
Volume calibration,html.Screen,1_1,2022-02-03T14:35:39.222Z,,,,,,,,,,,,,,,,,,,,,,,,,,,,,,,66935.613,,response,,,,,,,,,,,continue,click button,,,,,,,,,107386.79999995232,107380.5,40411.479,40421.89999985695,40444.887,107387.613,,,
Task instructions,html.Screen,1_2,2022-02-03T14:35:44.233Z,,,,,,,,,,,,,,,,,,,,,,,,,,,,,,,5008.186999952319,,response,,,,,,,,,,,continue,click button,,,,,,,,,112397.5,112395.79999995232,107370.908,107387,107387.613,112399.583,,,
Sounds,html.Screen,1_3_0_0,2022-02-03T14:35:48.572Z,,,,,,,,,,,,,,,,,,,,,,,,,,,,,,,4343.7560000000085,,timeout,,,,,,,,,1,,,,,,,,S,I,O,,116737.09999990463,116626.39,112382.877,112397.89999985695,112399.583,116743.339,,,
Judgement,html.Screen,1_3_0_1,2022-02-03T14:35:49.885Z,,,,,,,,,,,,,,,,,,,,,,,,,,,,true,1,,1305.460999952309,,response,,,,,,,,,1,,1,click #choice-1,,,,,S,I,O,,118050.29999995232,118048.79999995232,116626.39,116737.5,116743.339,118146.575,,,
Trial,flow.Sequence,1_3_0,2022-02-03T14:35:49.886Z,,,,,,,,,,,,,,,,,,,,,,,,,,,,,,,5649.216999952318,,completion,,,,,,,,,1,,,,,,,,S,I,O,,118051,118048.79999995232,112382.877,112397.79999995232,112399.583,118146.575,,,
Sounds,html.Screen,1_3_1_0,2022-02-03T14:35:54.259Z,,,,,,,,,,,,,,,,,,,,,,,,,,,,,,,4293.582000000009,,timeout,,,,,,,,,3,,,,,,,,O,I,S,,122428.59999990463,122423.451,118046.345,118051.39999985695,118146.575,122440.157,,,
Judgement,html.Screen,1_3_1_1,2022-02-03T14:35:55.138Z,,,,,,,,,,,,,,,,,,,,,,,,,,,,true,3,,865.6429999523098,,response,,,,,,,,,3,,3,click #choice-3,,,,,O,I,S,,123307.5,123305.79999995232,122423.451,122429,122440.157,123308.892,,,
Trial,flow.Sequence,1_3_1,2022-02-03T14:35:55.138Z,,,,,,,,,,,,,,,,,,,,,,,,,,,,,,,5159.224999952319,,completion,,,,,,,,,3,,,,,,,,O,I,S,,123308,123305.79999995232,118046.345,118051.09999990463,118146.575,123308.892,,,
Sounds,html.Screen,1_3_2_0,2022-02-03T14:35:59.369Z,,,,,,,,,,,,,,,,,,,,,,,,,,,,,,,4243.437999999995,,timeout,,,,,,,,,2,,,,,,,,I,S,O,,127538.5,127535.624,123292.186,123308.39999985695,123308.892,127552.33,,,
Judgement,html.Screen,1_3_2_1,2022-02-03T14:36:00.201Z,,,,,,,,,,,,,,,,,,,,,,,,,,,,true,2,,816.6699999999983,,response,,,,,,,,,2,,2,click #choice-2,,,,,I,S,O,,128370.89999985695,128369,127535.624,127538.89999985695,127552.33,128370.988,,,
Trial,flow.Sequence,1_3_2,2022-02-03T14:36:00.202Z,,,,,,,,,,,,,,,,,,,,,,,,,,,,,,,5060.107999999993,,completion,,,,,,,,,2,,,,,,,,I,S,O,,128371.59999990463,128369,123292.186,123308.19999980927,123308.892,128370.988,,,
Sounds,html.Screen,1_3_3_0,2022-02-03T14:36:04.430Z,,,,,,,,,,,,,,,,,,,,,,,,,,,,,,,4243.476999999999,,timeout,,,,,,,,,2,,,,,,,,O,S,I,,132599.69999980927,132597.758,128354.282,128372.19999980927,128370.988,132614.465,,,
Judgement,html.Screen,1_3_3_1,2022-02-03T14:36:05.514Z,,,,,,,,,,,,,,,,,,,,,,,,,,,,true,2,,1067.5350000000035,,response,,,,,,,,,2,,2,click #choice-2,,,,,O,S,I,,133683.59999990463,133682,132597.758,132600,132614.465,133683.655,,,
Trial,flow.Sequence,1_3_3,2022-02-03T14:36:05.514Z,,,,,,,,,,,,,,,,,,,,,,,,,,,,,,,5311.012000000002,,completion,,,,,,,,,2,,,,,,,,O,S,I,,133684.09999990463,133682,128354.282,128372,128370.988,133683.655,,,
Sounds,html.Screen,1_3_4_0,2022-02-03T14:36:09.742Z,,,,,,,,,,,,,,,,,,,,,,,,,,,,,,,4243.260000000009,,timeout,,,,,,,,,1,,,,,,,,S,O,I,,137911.79999995232,137910.211,133666.948,133684.5,133683.655,137926.915,,,
Judgement,html.Screen,1_3_4_1,2022-02-03T14:36:10.724Z,,,,,,,,,,,,,,,,,,,,,,,,,,,,true,1,,965.3849999523081,,response,,,,,,,,,1,,1,click #choice-1,,,,,S,O,I,,138894.39999985695,138892.29999995232,137910.211,137912.09999990463,137926.915,138896.119,,,
Trial,flow.Sequence,1_3_4,2022-02-03T14:36:10.725Z,,,,,,,,,,,,,,,,,,,,,,,,,,,,,,,5208.644999952317,,completion,,,,,,,,,1,,,,,,,,S,O,I,,138894.89999985695,138892.29999995232,133666.948,133684.29999995232,133683.655,138896.119,,,
Sounds,html.Screen,1_3_5_0,2022-02-03T14:36:14.955Z,,,,,,,,,,,,,,,,,,,,,,,,,,,,,,,4243.396000000008,,timeout,,,,,,,,,3,,,,,,,,I,O,S,,143124.59999990463,143122.809,138879.411,138895.29999995232,138896.119,143139.515,,,
Judgement,html.Screen,1_3_5_1,2022-02-03T14:36:15.877Z,,,,,,,,,,,,,,,,,,,,,,,,,,,,true,3,,905.0849999046186,,response,,,,,,,,,3,,3,click #choice-3,,,,,I,O,S,,144046.79999995232,144044.59999990463,143122.809,143125,143139.515,144075.011,,,
Trial,flow.Sequence,1_3_5,2022-02-03T14:36:15.878Z,,,,,,,,,,,,,,,,,,,,,,,,,,,,,,,5148.4809999046265,,completion,,,,,,,,,3,,,,,,,,I,O,S,,144047.39999985695,144044.59999990463,138879.411,138895.19999980927,138896.119,144075.011,,,
Task,flow.Loop,1_3,2022-02-03T14:36:15.892Z,,,,,,,,,,,,,,,,,,,,,,,,,,,,,,,31645.016999904634,,completion,,,1,,,,,,,,,,,,,,,,,,144062.29999995232,144044.59999990463,112382.877,112397.69999980927,112399.583,144075.011,,,
Trap,html.Screen,1_4,2022-02-03T14:36:15.896Z,,,,,,,,,,,,,,,,,,,,,,,,,,,,,,,NaN,,skipped,,,,,,,,,,,,,,,,,,,,,144066.19999980927,144044.59999990463,,144065.79999995232,,144075.011,,,
Thanks,html.Screen,1_5,2022-02-03T14:36:22.126Z,,,,,,,,,,,,,,,,,,,,,,,,,,,,,,,6218.6889998092665,,response,,,,,,,,,,,continue,click button,,,,,,,,,150295.59999990463,150293.69999980927,144041.599,144066.59999990463,144075.011,175348.58,,,
Headphone screening,flow.Sequence,1,2022-02-03T14:36:22.126Z,,,,,,,,,,,,,,,,,,,,,,,,,,,,,,,114376.18199980927,,completion,,,,,,,,,,,,,,,,,,,,,150296.09999990463,150293.69999980927,35884.106,35894.59999990463,35917.518,175348.58,,,
Instructions,html.Page,2_0,2022-02-03T14:38:54.296Z,,,,,,,,,,,,,,,,,,,,,,,,,,,,,,,127108.31999985696,,form submission,,,,,,,,,,,,,,,,,,,,,302458.09999990463,302456.89999985695,174246.555,175247.79999995232,175348.58,302480.417,,,
Holding screen,html.Screen,2_1_0_0,2022-02-03T14:39:04.300Z,,,,,,,,,,,,,,,,,,,,,,,,,,,,,,,10012.361999999965,,timeout,,,,,,,,,,,,,,,,,,,,,312461.39999985695,312459.351,302413.889,302458.7999999523,302480.417,312492.779,,,
screen,html.Screen,2_1_0_1_0,2022-02-03T14:39:05.464Z,,,,,,,,,,,,,,,,,53,,,,,,,,,,,,,,1125.7210000000196,,response,,,,99,,,,,,,Space,keypress(Space),,,,,,,,When -- ----- -- ------ - ------- --- ----------<br>------------- ------ ------ ---- ---- ------- ----- -- ----<br>-------- ------- -- ---------- --- - --- ----- ----- ----<br>---- --- --- ----- --- ---- ---- ------- ----- ---- -------<br>--- --- -- ----- -- --- ---- -- --- ---- -- ------ ------<br>--- ----- -- ----,313625.09999990463,313618.5,312459.351,312461.89999985695,312492.779,313628.834,,0,When
screen,html.Screen,2_1_0_1_1,2022-02-03T14:39:06.042Z,,,,,,,,,,,,,,,,,53,,,,,,,,,,,,,,572.6660000000265,,response,,,,99,,,,,,,Space,keypress(Space),,,,,,,,---- it ----- -- ------ - ------- --- ----------<br>------------- ------ ------ ---- ---- ------- ----- -- ----<br>-------- ------- -- ---------- --- - --- ----- ----- ----<br>---- --- --- ----- --- ---- ---- ------- ----- ---- -------<br>--- --- -- ----- -- --- ---- -- --- ---- -- ------ ------<br>--- ----- -- ----,314202.69999980927,314201.5,313612.128,313625.59999990463,313628.834,314213.635,,1,it
screen,html.Screen,2_1_0_1_2,2022-02-03T14:39:06.623Z,,,,,,,,,,,,,,,,,53,,,,,,,,,,,,,,568.7649998569395,,response,,,,99,,,,,,,Space,keypress(Space),,,,,,,,---- -- comes -- ------ - ------- --- ----------<br>------------- ------ ------ ---- ---- ------- ----- -- ----<br>-------- ------- -- ---------- --- - --- ----- ----- ----<br>---- --- --- ----- --- ---- ---- ------- ----- ---- -------<br>--- --- -- ----- -- --- ---- -- --- ---- -- ------ ------<br>--- ----- -- ----,314783.69999980927,314782.39999985695,314196.923,314202.89999985695,314213.635,314798.206,,2,comes
screen,html.Screen,2_1_0_1_3,2022-02-03T14:39:07.046Z,,,,,,,,,,,,,,,,,53,,,,,,,,,,,,,,407.19399985694326,,response,,,,99,,,,,,,Space,keypress(Space),,,,,,,,---- -- ----- to ------ - ------- --- ----------<br>------------- ------ ------ ---- ---- ------- ----- -- ----<br>-------- ------- -- ---------- --- - --- ----- ----- ----<br>---- --- --- ----- --- ---- ---- ------- ----- ---- -------<br>--- --- -- ----- -- --- ---- -- --- ---- -- ------ ------<br>--- ----- -- ----,315206.59999990463,315205.39999985695,314781.501,314784,314798.206,315215.98,,3,to
screen,html.Screen,2_1_0_1_4,2022-02-03T14:39:07.530Z,,,,,,,,,,,,,,,,,53,,,,,,,,,,,,,,473.4199998569675,,response,,,,99,,,,,,,Space,keypress(Space),,,,,,,,---- -- ----- -- having - ------- --- ----------<br>------------- ------ ------ ---- ---- ------- ----- -- ----<br>-------- ------- -- ---------- --- - --- ----- ----- ----<br>---- --- --- ----- --- ---- ---- ------- ----- ---- -------<br>--- --- -- ----- -- --- ---- -- --- ---- -- ------ ------<br>--- ----- -- ----,315690.5,315689.39999985695,315199.272,315206.89999985695,315215.98,315700.549,,4,having
screen,html.Screen,2_1_0_1_5,2022-02-03T14:39:07.982Z,,,,,,,,,,,,,,,,,53,,,,,,,,,,,,,,441.65099980926607,,response,,,,99,,,,,,,Space,keypress(Space),,,,,,,,---- -- ----- -- ------ a ------- --- ----------<br>------------- ------ ------ ---- ---- ------- ----- -- ----<br>-------- ------- -- ---------- --- - --- ----- ----- ----<br>---- --- --- ----- --- ---- ---- ------- ----- ---- -------<br>--- --- -- ----- -- --- ---- -- --- ---- -- ------ ------<br>--- ----- -- ----,316143.2999999523,316142.19999980927,315683.836,315690.7999999523,315700.549,316151.386,,5,a
screen,html.Screen,2_1_0_1_6,2022-02-03T14:39:08.483Z,,,,,,,,,,,,,,,,,53,,,,,,,,,,,,,,491.51399985695025,,response,,,,99,,,,,,,Space,keypress(Space),,,,,,,,---- -- ----- -- ------ - lasting --- ----------<br>------------- ------ ------ ---- ---- ------- ----- -- ----<br>-------- ------- -- ---------- --- - --- ----- ----- ----<br>---- --- --- ----- --- ---- ---- ------- ----- ---- -------<br>--- --- -- ----- -- --- ---- -- --- ---- -- ------ ------<br>--- ----- -- ----,316644.19999980927,316642.89999985695,316134.682,316143.59999990463,316151.386,316652.63,,6,lasting
screen,html.Screen,2_1_0_1_7,2022-02-03T14:39:09.467Z,,,,,,,,,,,,,,,,,53,,,,,,,,,,,,,,973.5699998092605,,response,,,,99,,,,,,,Space,keypress(Space),,,,,,,,---- -- ----- -- ------ - ------- and ----------<br>------------- ------ ------ ---- ---- ------- ----- -- ----<br>-------- ------- -- ---------- --- - --- ----- ----- ----<br>---- --- --- ----- --- ---- ---- ------- ----- ---- -------<br>--- --- -- ----- -- --- ---- -- --- ---- -- ------ ------<br>--- ----- -- ----,317627.59999990463,317626.19999980927,316635.925,316644.59999990463,316652.63,317636.76,,7,and
screen,html.Screen,2_1_0_1_8,2022-02-03T14:39:10.302Z,,,,,,,,,,,,,,,,,53,,,,,,,,,,,,,,824.7399999999907,,response,,,,99,,,,,,,Space,keypress(Space),,,,,,,,---- -- ----- -- ------ - ------- --- fulfilling<br>------------- ------ ------ ---- ---- ------- ----- -- ----<br>-------- ------- -- ---------- --- - --- ----- ----- ----<br>---- --- --- ----- --- ---- ---- ------- ----- ---- -------<br>--- --- -- ----- -- --- ---- -- --- ---- -- ------ ------<br>--- ----- -- ----,318462.69999980927,318461.5,317620.082,317627.89999985695,317636.76,318473.681,,8,fulfilling
screen,html.Screen,2_1_0_1_9,2022-02-03T14:39:12.553Z,,,,,,,,,,,,,,,,,53,,,,,,,,,,,,,,2238.618999952334,,response,,,,99,,,,,,,Space,keypress(Space),,,,,,,,"---- -- ----- -- ------ - ------- --- ----------<br>relationship, ------ ------ ---- ---- ------- ----- -- ----<br>-------- ------- -- ---------- --- - --- ----- ----- ----<br>---- --- --- ----- --- ---- ---- ------- ----- ---- -------<br>--- --- -- ----- -- --- ---- -- --- ---- -- ------ ------<br>--- ----- -- ----",320713.59999990463,320712.2999999523,318456.975,318463.09999990463,318473.681,320728.965,,9,"relationship,"
screen,html.Screen,2_1_0_1_10,2022-02-03T14:39:12.972Z,,,,,,,,,,,,,,,,,53,,,,,,,,,,,,,,403.2349998092395,,response,,,,99,,,,,,,Space,keypress(Space),,,,,,,,---- -- ----- -- ------ - ------- --- ----------<br>------------- common ------ ---- ---- ------- ----- -- ----<br>-------- ------- -- ---------- --- - --- ----- ----- ----<br>---- --- --- ----- --- ---- ---- ------- ----- ---- -------<br>--- --- -- ----- -- --- ---- -- --- ---- -- ------ ------<br>--- ----- -- ----,321133.39999985695,321132.19999980927,320712.26,320714,320728.965,321146.784,,10,common
screen,html.Screen,2_1_0_1_11,2022-02-03T14:39:13.647Z,,,,,,,,,,,,,,,,,53,,,,,,,,,,,,,,659.7160000000149,,response,,,,99,,,,,,,Space,keypress(Space),,,,,,,,---- -- ----- -- ------ - ------- --- ----------<br>------------- ------ wisdom ---- ---- ------- ----- -- ----<br>-------- ------- -- ---------- --- - --- ----- ----- ----<br>---- --- --- ----- --- ---- ---- ------- ----- ---- -------<br>--- --- -- ----- -- --- ---- -- --- ---- -- ------ ------<br>--- ----- -- ----,321807.89999985695,321806.5,321130.075,321133.59999990463,321146.784,321814.935,,11,wisdom
screen,html.Screen,2_1_0_1_12,2022-02-03T14:39:14.108Z,,,,,,,,,,,,,,,,,53,,,,,,,,,,,,,,452.4649998569512,,response,,,,99,,,,,,,Space,keypress(Space),,,,,,,,---- -- ----- -- ------ - ------- --- ----------<br>------------- ------ ------ says ---- ------- ----- -- ----<br>-------- ------- -- ---------- --- - --- ----- ----- ----<br>---- --- --- ----- --- ---- ---- ------- ----- ---- -------<br>--- --- -- ----- -- --- ---- -- --- ---- -- ------ ------<br>--- ----- -- ----,322268.59999990463,322267.39999985695,321798.229,321808.19999980927,321814.935,322282.779,,12,says
screen,html.Screen,2_1_0_1_13,2022-02-03T14:39:14.710Z,,,,,,,,,,,,,,,,,53,,,,,,,,,,,,,,587.1209998569684,,response,,,,99,,,,,,,Space,keypress(Space),,,,,,,,---- -- ----- -- ------ - ------- --- ----------<br>------------- ------ ------ ---- that ------- ----- -- ----<br>-------- ------- -- ---------- --- - --- ----- ----- ----<br>---- --- --- ----- --- ---- ---- ------- ----- ---- -------<br>--- --- -- ----- -- --- ---- -- --- ---- -- ------ ------<br>--- ----- -- ----,322871.09999990463,322869.89999985695,322266.072,322268.89999985695,322282.779,322884.148,,13,that
screen,html.Screen,2_1_0_1_14,2022-02-03T14:39:15.408Z,,,,,,,,,,,,,,,,,53,,,,,,,,,,,,,,683.9519999046461,,response,,,,99,,,,,,,Space,keypress(Space),,,,,,,,---- -- ----- -- ------ - ------- --- ----------<br>------------- ------ ------ ---- ---- feeling ----- -- ----<br>-------- ------- -- ---------- --- - --- ----- ----- ----<br>---- --- --- ----- --- ---- ---- ------- ----- ---- -------<br>--- --- -- ----- -- --- ---- -- --- ---- -- ------ ------<br>--- ----- -- ----,323569.39999985695,323568.09999990463,322867.442,322871.39999985695,322884.148,323585.873,,14,feeling
screen,html.Screen,2_1_0_1_15,2022-02-03T14:39:15.836Z,,,,,,,,,,,,,,,,,53,,,,,,,,,,,,,,410.1269999999786,,response,,,,99,,,,,,,Space,keypress(Space),,,,,,,,---- -- ----- -- ------ - ------- --- ----------<br>------------- ------ ------ ---- ---- ------- close -- ----<br>-------- ------- -- ---------- --- - --- ----- ----- ----<br>---- --- --- ----- --- ---- ---- ------- ----- ---- -------<br>--- --- -- ----- -- --- ---- -- --- ---- -- ------ ------<br>--- ----- -- ----,323997.2999999523,323996,323569.096,323569.69999980927,323585.873,324003.479,,15,close
screen,html.Screen,2_1_0_1_16,2022-02-03T14:39:16.249Z,,,,,,,,,,,,,,,,,53,,,,,,,,,,,,,,405.22099980927305,,response,,,,99,,,,,,,Space,keypress(Space),,,,,,,,---- -- ----- -- ------ - ------- --- ----------<br>------------- ------ ------ ---- ---- ------- ----- to ----<br>-------- ------- -- ---------- --- - --- ----- ----- ----<br>---- --- --- ----- --- ---- ---- ------- ----- ---- -------<br>--- --- -- ----- -- --- ---- -- --- ---- -- ------ ------<br>--- ----- -- ----,324409.89999985695,324408.69999980927,323986.774,323997.69999980927,324003.479,324421.148,,16,to
screen,html.Screen,2_1_0_1_17,2022-02-03T14:39:16.636Z,,,,,,,,,,,,,,,,,53,,,,,,,,,,,,,,374.6519999523298,,response,,,,99,,,,,,,Space,keypress(Space),,,,,,,,---- -- ----- -- ------ - ------- --- ----------<br>------------- ------ ------ ---- ---- ------- ----- -- your<br>-------- ------- -- ---------- --- - --- ----- ----- ----<br>---- --- --- ----- --- ---- ---- ------- ----- ---- -------<br>--- --- -- ----- -- --- ---- -- --- ---- -- ------ ------<br>--- ----- -- ----,324797.09999990463,324795.7999999523,324404.442,324410.2999999523,324421.148,324805.492,,17,your
screen,html.Screen,2_1_0_1_18,2022-02-03T14:39:17.067Z,,,,,,,,,,,,,,,,,53,,,,,,,,,,,,,,421.6079999046051,,response,,,,99,,,,,,,Space,keypress(Space),,,,,,,,---- -- ----- -- ------ - ------- --- ----------<br>------------- ------ ------ ---- ---- ------- ----- -- ----<br>romantic ------- -- ---------- --- - --- ----- ----- ----<br>---- --- --- ----- --- ---- ---- ------- ----- ---- -------<br>--- --- -- ----- -- --- ---- -- --- ---- -- ------ ------<br>--- ----- -- ----,325228.39999985695,325227.09999990463,324788.783,324797.39999985695,324805.492,325239.579,,18,romantic
screen,html.Screen,2_1_0_1_19,2022-02-03T14:39:17.437Z,,,,,,,,,,,,,,,,,53,,,,,,,,,,,,,,357.6209998092381,,response,,,,99,,,,,,,Space,keypress(Space),,,,,,,,---- -- ----- -- ------ - ------- --- ----------<br>------------- ------ ------ ---- ---- ------- ----- -- ----<br>-------- partner -- ---------- --- - --- ----- ----- ----<br>---- --- --- ----- --- ---- ---- ------- ----- ---- -------<br>--- --- -- ----- -- --- ---- -- --- ---- -- ------ ------<br>--- ----- -- ----,325598.39999985695,325597.19999980927,325222.879,325228.7999999523,325239.579,325607.231,,19,partner
screen,html.Screen,2_1_0_1_20,2022-02-03T14:39:17.882Z,,,,,,,,,,,,,,,,,53,,,,,,,,,,,,,,434.8689999046037,,response,,,,99,,,,,,,Space,keypress(Space),,,,,,,,---- -- ----- -- ------ - ------- --- ----------<br>------------- ------ ------ ---- ---- ------- ----- -- ----<br>-------- ------- is ---------- --- - --- ----- ----- ----<br>---- --- --- ----- --- ---- ---- ------- ----- ---- -------<br>--- --- -- ----- -- --- ---- -- --- ---- -- ------ ------<br>--- ----- -- ----,326043.2999999523,326042.09999990463,325590.526,325598.69999980927,325607.231,326058.436,,20,is
screen,html.Screen,2_1_0_1_21,2022-02-03T14:39:18.327Z,,,,,,,,,,,,,,,,,53,,,,,,,,,,,,,,427.9639998569619,,response,,,,99,,,,,,,Space,keypress(Space),,,,,,,,---- -- ----- -- ------ - ------- --- ----------<br>------------- ------ ------ ---- ---- ------- ----- -- ----<br>-------- ------- -- paramount. --- - --- ----- ----- ----<br>---- --- --- ----- --- ---- ---- ------- ----- ---- -------<br>--- --- -- ----- -- --- ---- -- --- ---- -- ------ ------<br>--- ----- -- ----,326487.59999990463,326486.39999985695,326041.729,326043.59999990463,326058.436,326492.632,,21,paramount.
screen,html.Screen,2_1_0_1_22,2022-02-03T14:39:18.802Z,,,,,,,,,,,,,,,,,53,,,,,,,,,,,,,,468.46799990464933,,response,,,,99,,,,,,,Space,keypress(Space),,,,,,,,---- -- ----- -- ------ - ------- --- ----------<br>------------- ------ ------ ---- ---- ------- ----- -- ----<br>-------- ------- -- ---------- But - --- ----- ----- ----<br>---- --- --- ----- --- ---- ---- ------- ----- ---- -------<br>--- --- -- ----- -- --- ---- -- --- ---- -- ------ ------<br>--- ----- -- ----,326962.59999990463,326961.09999990463,326475.929,326487.89999985695,326492.632,326977.301,,22,But
screen,html.Screen,2_1_0_1_23,2022-02-03T14:39:19.360Z,,,,,,,,,,,,,,,,,53,,,,,,,,,,,,,,542.2989999046549,,response,,,,99,,,,,,,Space,keypress(Space),,,,,,,,---- -- ----- -- ------ - ------- --- ----------<br>------------- ------ ------ ---- ---- ------- ----- -- ----<br>-------- ------- -- ---------- --- a --- ----- ----- ----<br>---- --- --- ----- --- ---- ---- ------- ----- ---- -------<br>--- --- -- ----- -- --- ---- -- --- ---- -- ------ ------<br>--- ----- -- ----,327521.09999990463,327519.59999990463,326960.593,326962.89999985695,326977.301,327528.576,,23,a
screen,html.Screen,2_1_0_1_24,2022-02-03T14:39:19.834Z,,,,,,,,,,,,,,,,,53,,,,,,,,,,,,,,465.3239998569479,,response,,,,99,,,,,,,Space,keypress(Space),,,,,,,,---- -- ----- -- ------ - ------- --- ----------<br>------------- ------ ------ ---- ---- ------- ----- -- ----<br>-------- ------- -- ---------- --- - new ----- ----- ----<br>---- --- --- ----- --- ---- ---- ------- ----- ---- -------<br>--- --- -- ----- -- --- ---- -- --- ---- -- ------ ------<br>--- ----- -- ----,327995.2999999523,327993.89999985695,327511.87,327521.39999985695,327528.576,328013.045,,24,new
screen,html.Screen,2_1_0_1_25,2022-02-03T14:39:20.241Z,,,,,,,,,,,,,,,,,53,,,,,,,,,,,,,,387.15499980928143,,response,,,,99,,,,,,,Space,keypress(Space),,,,,,,,---- -- ----- -- ------ - ------- --- ----------<br>------------- ------ ------ ---- ---- ------- ----- -- ----<br>-------- ------- -- ---------- --- - --- study ----- ----<br>---- --- --- ----- --- ---- ---- ------- ----- ---- -------<br>--- --- -- ----- -- --- ---- -- --- ---- -- ------ ------<br>--- ----- -- ----,328401.69999980927,328400.19999980927,327996.339,327995.69999980927,328013.045,328414,,25,study
screen,html.Screen,2_1_0_1_26,2022-02-03T14:39:20.633Z,,,,,,,,,,,,,,,,,53,,,,,,,,,,,,,,378.7999999523163,,response,,,,99,,,,,,,Space,keypress(Space),,,,,,,,---- -- ----- -- ------ - ------- --- ----------<br>------------- ------ ------ ---- ---- ------- ----- -- ----<br>-------- ------- -- ---------- --- - --- ----- finds ----<br>---- --- --- ----- --- ---- ---- ------- ----- ---- -------<br>--- --- -- ----- -- --- ---- -- --- ---- -- ------ ------<br>--- ----- -- ----,328794.09999990463,328792.7999999523,328397.294,328402,328414,328798.173,,26,finds
screen,html.Screen,2_1_0_1_27,2022-02-03T14:39:20.966Z,,,,,,,,,,,,,,,,,53,,,,,,,,,,,,,,327.3269999999902,,response,,,,99,,,,,,,Space,keypress(Space),,,,,,,,---- -- ----- -- ------ - ------- --- ----------<br>------------- ------ ------ ---- ---- ------- ----- -- ----<br>-------- ------- -- ---------- --- - --- ----- ----- that<br>---- --- --- ----- --- ---- ---- ------- ----- ---- -------<br>--- --- -- ----- -- --- ---- -- --- ---- -- ------ ------<br>--- ----- -- ----,329126.69999980927,329125.5,328781.469,328794.39999985695,328798.173,329132.393,,27,that
screen,html.Screen,2_1_0_1_28,2022-02-03T14:39:21.490Z,,,,,,,,,,,,,,,,,53,,,,,,,,,,,,,,517.8069998092833,,response,,,,99,,,,,,,Space,keypress(Space),,,,,,,,---- -- ----- -- ------ - ------- --- ----------<br>------------- ------ ------ ---- ---- ------- ----- -- ----<br>-------- ------- -- ---------- --- - --- ----- ----- ----<br>it's --- --- ----- --- ---- ---- ------- ----- ---- -------<br>--- --- -- ----- -- --- ---- -- --- ---- -- ------ ------<br>--- ----- -- ----,329651.2999999523,329650.19999980927,329115.687,329127,329132.393,329666.986,,28,it's
screen,html.Screen,2_1_0_1_29,2022-02-03T14:39:21.878Z,,,,,,,,,,,,,,,,,53,,,,,,,,,,,,,,370.61399990465725,,response,,,,99,,,,,,,Space,keypress(Space),,,,,,,,---- -- ----- -- ------ - ------- --- ----------<br>------------- ------ ------ ---- ---- ------- ----- -- ----<br>-------- ------- -- ---------- --- - --- ----- ----- ----<br>---- not --- ----- --- ---- ---- ------- ----- ---- -------<br>--- --- -- ----- -- --- ---- -- --- ---- -- ------ ------<br>--- ----- -- ----,330038.7999999523,330037.59999990463,329650.28,329651.69999980927,329666.986,330051.182,,29,not
screen,html.Screen,2_1_0_1_30,2022-02-03T14:39:22.225Z,,,,,,,,,,,,,,,,,53,,,,,,,,,,,,,,333.71799985697726,,response,,,,99,,,,,,,Space,keypress(Space),,,,,,,,---- -- ----- -- ------ - ------- --- ----------<br>------------- ------ ------ ---- ---- ------- ----- -- ----<br>-------- ------- -- ---------- --- - --- ----- ----- ----<br>---- --- how ----- --- ---- ---- ------- ----- ---- -------<br>--- --- -- ----- -- --- ---- -- --- ---- -- ------ ------<br>--- ----- -- ----,330386.2999999523,330384.89999985695,330034.478,330039.09999990463,330051.182,330401.924,,30,how
screen,html.Screen,2_1_0_1_31,2022-02-03T14:39:22.671Z,,,,,,,,,,,,,,,,,53,,,,,,,,,,,,,,426.4759998569498,,response,,,,99,,,,,,,Space,keypress(Space),,,,,,,,---- -- ----- -- ------ - ------- --- ----------<br>------------- ------ ------ ---- ---- ------- ----- -- ----<br>-------- ------- -- ---------- --- - --- ----- ----- ----<br>---- --- --- close --- ---- ---- ------- ----- ---- -------<br>--- --- -- ----- -- --- ---- -- --- ---- -- ------ ------<br>--- ----- -- ----,330831.7999999523,330828.39999985695,330385.221,330386.5,330401.924,330836.414,,31,close
screen,html.Screen,2_1_0_1_32,2022-02-03T14:39:23.103Z,,,,,,,,,,,,,,,,,53,,,,,,,,,,,,,,426.08600000001024,,response,,,,99,,,,,,,Space,keypress(Space),,,,,,,,---- -- ----- -- ------ - ------- --- ----------<br>------------- ------ ------ ---- ---- ------- ----- -- ----<br>-------- ------- -- ---------- --- - --- ----- ----- ----<br>---- --- --- ----- you ---- ---- ------- ----- ---- -------<br>--- --- -- ----- -- --- ---- -- --- ---- -- ------ ------<br>--- ----- -- ----,331263.69999980927,331262.5,330819.709,330832.2999999523,330836.414,331270.804,,32,you
screen,html.Screen,2_1_0_1_33,2022-02-03T14:39:23.537Z,,,,,,,,,,,,,,,,,53,,,,,,,,,,,,,,426.29599990462884,,response,,,,99,,,,,,,Space,keypress(Space),,,,,,,,---- -- ----- -- ------ - ------- --- ----------<br>------------- ------ ------ ---- ---- ------- ----- -- ----<br>-------- ------- -- ---------- --- - --- ----- ----- ----<br>---- --- --- ----- --- feel ---- ------- ----- ---- -------<br>--- --- -- ----- -- --- ---- -- --- ---- -- ------ ------<br>--- ----- -- ----,331698.2999999523,331697.09999990463,331254.098,331264,331270.804,331705.163,,33,feel
screen,html.Screen,2_1_0_1_34,2022-02-03T14:39:23.952Z,,,,,,,,,,,,,,,,,53,,,,,,,,,,,,,,406.83699999999953,,response,,,,99,,,,,,,Space,keypress(Space),,,,,,,,---- -- ----- -- ------ - ------- --- ----------<br>------------- ------ ------ ---- ---- ------- ----- -- ----<br>-------- ------- -- ---------- --- - --- ----- ----- ----<br>---- --- --- ----- --- ---- that ------- ----- ---- -------<br>--- --- -- ----- -- --- ---- -- --- ---- -- ------ ------<br>--- ----- -- ----,332113.39999985695,332112,331688.458,331698.69999980927,331705.163,332122.834,,34,that
screen,html.Screen,2_1_0_1_35,2022-02-03T14:39:24.343Z,,,,,,,,,,,,,,,,,53,,,,,,,,,,,,,,379.8659998092917,,response,,,,99,,,,,,,Space,keypress(Space),,,,,,,,---- -- ----- -- ------ - ------- --- ----------<br>------------- ------ ------ ---- ---- ------- ----- -- ----<br>-------- ------- -- ---------- --- - --- ----- ----- ----<br>---- --- --- ----- --- ---- ---- matters ----- ---- -------<br>--- --- -- ----- -- --- ---- -- --- ---- -- ------ ------<br>--- ----- -- ----,332504.19999980927,332502.69999980927,332106.128,332113.7999999523,332122.834,332507.131,,35,matters
screen,html.Screen,2_1_0_1_36,2022-02-03T14:39:24.766Z,,,,,,,,,,,,,,,,,53,,,,,,,,,,,,,,418.36900000000605,,response,,,,99,,,,,,,Space,keypress(Space),,,,,,,,"---- -- ----- -- ------ - ------- --- ----------<br>------------- ------ ------ ---- ---- ------- ----- -- ----<br>-------- ------- -- ---------- --- - --- ----- ----- ----<br>---- --- --- ----- --- ---- ---- ------- most, ---- -------<br>--- --- -- ----- -- --- ---- -- --- ---- -- ------ ------<br>--- ----- -- ----",332927,332925.5,332490.424,332504.69999980927,332507.131,332941.459,,36,"most,"
screen,html.Screen,2_1_0_1_37,2022-02-03T14:39:25.175Z,,,,,,,,,,,,,,,,,53,,,,,,,,,,,,,,392.8409999523428,,response,,,,99,,,,,,,Space,keypress(Space),,,,,,,,---- -- ----- -- ------ - ------- --- ----------<br>------------- ------ ------ ---- ---- ------- ----- -- ----<br>-------- ------- -- ---------- --- - --- ----- ----- ----<br>---- --- --- ----- --- ---- ---- ------- ----- it's -------<br>--- --- -- ----- -- --- ---- -- --- ---- -- ------ ------<br>--- ----- -- ----,333335.69999980927,333334.2999999523,332924.753,332927.2999999523,332941.459,333342.4,,37,it's
screen,html.Screen,2_1_0_1_38,2022-02-03T14:39:25.545Z,,,,,,,,,,,,,,,,,53,,,,,,,,,,,,,,361.99999985692557,,response,,,,99,,,,,,,Space,keypress(Space),,,,,,,,---- -- ----- -- ------ - ------- --- ----------<br>------------- ------ ------ ---- ---- ------- ----- -- ----<br>-------- ------- -- ---------- --- - --- ----- ----- ----<br>---- --- --- ----- --- ---- ---- ------- ----- ---- whether<br>--- --- -- ----- -- --- ---- -- --- ---- -- ------ ------<br>--- ----- -- ----,333705.69999980927,333704.39999985695,333325.695,333336.09999990463,333342.4,333710.014,,38,whether
screen,html.Screen,2_1_0_1_39,2022-02-03T14:39:25.961Z,,,,,,,,,,,,,,,,,53,,,,,,,,,,,,,,410.3859998569242,,response,,,,99,,,,,,,Space,keypress(Space),,,,,,,,---- -- ----- -- ------ - ------- --- ----------<br>------------- ------ ------ ---- ---- ------- ----- -- ----<br>-------- ------- -- ---------- --- - --- ----- ----- ----<br>---- --- --- ----- --- ---- ---- ------- ----- ---- -------<br>you --- -- ----- -- --- ---- -- --- ---- -- ------ ------<br>--- ----- -- ----,334121.59999990463,334120.39999985695,333693.306,333706.09999990463,333710.014,334127.542,,39,you
screen,html.Screen,2_1_0_1_40,2022-02-03T14:39:26.341Z,,,,,,,,,,,,,,,,,53,,,,,,,,,,,,,,373.45799999998417,,response,,,,99,,,,,,,Space,keypress(Space),,,,,,,,---- -- ----- -- ------ - ------- --- ----------<br>------------- ------ ------ ---- ---- ------- ----- -- ----<br>-------- ------- -- ---------- --- - --- ----- ----- ----<br>---- --- --- ----- --- ---- ---- ------- ----- ---- -------<br>--- are -- ----- -- --- ---- -- --- ---- -- ------ ------<br>--- ----- -- ----,334502.39999985695,334501,334110.838,334121.89999985695,334127.542,334511.929,,40,are
screen,html.Screen,2_1_0_1_41,2022-02-03T14:39:26.735Z,,,,,,,,,,,,,,,,,53,,,,,,,,,,,,,,382.67099990462884,,response,,,,99,,,,,,,Space,keypress(Space),,,,,,,,---- -- ----- -- ------ - ------- --- ----------<br>------------- ------ ------ ---- ---- ------- ----- -- ----<br>-------- ------- -- ---------- --- - --- ----- ----- ----<br>---- --- --- ----- --- ---- ---- ------- ----- ---- -------<br>--- --- as ----- -- --- ---- -- --- ---- -- ------ ------<br>--- ----- -- ----,334895.7999999523,334894.59999990463,334495.221,334503,334511.929,334912.794,,41,as
screen,html.Screen,2_1_0_1_42,2022-02-03T14:39:27.126Z,,,,,,,,,,,,,,,,,53,,,,,,,,,,,,,,372.7060000000056,,response,,,,99,,,,,,,Space,keypress(Space),,,,,,,,---- -- ----- -- ------ - ------- --- ----------<br>------------- ------ ------ ---- ---- ------- ----- -- ----<br>-------- ------- -- ---------- --- - --- ----- ----- ----<br>---- --- --- ----- --- ---- ---- ------- ----- ---- -------<br>--- --- -- close -- --- ---- -- --- ---- -- ------ ------<br>--- ----- -- ----,335286.7999999523,335285.5,334896.088,334896.09999990463,334912.794,335296.947,,42,close
screen,html.Screen,2_1_0_1_43,2022-02-03T14:39:27.544Z,,,,,,,,,,,,,,,,,53,,,,,,,,,,,,,,407.152999904647,,response,,,,99,,,,,,,Space,keypress(Space),,,,,,,,---- -- ----- -- ------ - ------- --- ----------<br>------------- ------ ------ ---- ---- ------- ----- -- ----<br>-------- ------- -- ---------- --- - --- ----- ----- ----<br>---- --- --- ----- --- ---- ---- ------- ----- ---- -------<br>--- --- -- ----- as --- ---- -- --- ---- -- ------ ------<br>--- ----- -- ----,335705.39999985695,335704.09999990463,335280.244,335287.09999990463,335296.947,335714.841,,43,as
screen,html.Screen,2_1_0_1_44,2022-02-03T14:39:27.895Z,,,,,,,,,,,,,,,,,53,,,,,,,,,,,,,,339.4589999523014,,response,,,,99,,,,,,,Space,keypress(Space),,,,,,,,---- -- ----- -- ------ - ------- --- ----------<br>------------- ------ ------ ---- ---- ------- ----- -- ----<br>-------- ------- -- ---------- --- - --- ----- ----- ----<br>---- --- --- ----- --- ---- ---- ------- ----- ---- -------<br>--- --- -- ----- -- you ---- -- --- ---- -- ------ ------<br>--- ----- -- ----,336055.59999990463,336054.2999999523,335698.131,335705.69999980927,335714.841,336065.523,,44,you
screen,html.Screen,2_1_0_1_45,2022-02-03T14:39:28.266Z,,,,,,,,,,,,,,,,,53,,,,,,,,,,,,,,359.9770000000135,,response,,,,99,,,,,,,Space,keypress(Space),,,,,,,,---- -- ----- -- ------ - ------- --- ----------<br>------------- ------ ------ ---- ---- ------- ----- -- ----<br>-------- ------- -- ---------- --- - --- ----- ----- ----<br>---- --- --- ----- --- ---- ---- ------- ----- ---- -------<br>--- --- -- ----- -- --- want -- --- ---- -- ------ ------<br>--- ----- -- ----,336426.69999980927,336425.5,336048.818,336055.89999985695,336065.523,336432.991,,45,want
screen,html.Screen,2_1_0_1_46,2022-02-03T14:39:28.623Z,,,,,,,,,,,,,,,,,53,,,,,,,,,,,,,,349.1089999046526,,response,,,,99,,,,,,,Space,keypress(Space),,,,,,,,---- -- ----- -- ------ - ------- --- ----------<br>------------- ------ ------ ---- ---- ------- ----- -- ----<br>-------- ------- -- ---------- --- - --- ----- ----- ----<br>---- --- --- ----- --- ---- ---- ------- ----- ---- -------<br>--- --- -- ----- -- --- ---- to --- ---- -- ------ ------<br>--- ----- -- ----,336783.5,336782.09999990463,336416.288,336427.09999990463,336432.991,336800.709,,46,to
screen,html.Screen,2_1_0_1_47,2022-02-03T14:39:28.975Z,,,,,,,,,,,,,,,,,53,,,,,,,,,,,,,,334.3909999046591,,response,,,,99,,,,,,,Space,keypress(Space),,,,,,,,"---- -- ----- -- ------ - ------- --- ----------<br>------------- ------ ------ ---- ---- ------- ----- -- ----<br>-------- ------- -- ---------- --- - --- ----- ----- ----<br>---- --- --- ----- --- ---- ---- ------- ----- ---- -------<br>--- --- -- ----- -- --- ---- -- be, ---- -- ------ ------<br>--- ----- -- ----",337136.2999999523,337135.09999990463,336784,336783.7999999523,336800.709,337151.573,,47,"be,"
screen,html.Screen,2_1_0_1_48,2022-02-03T14:39:29.400Z,,,,,,,,,,,,,,,,,53,,,,,,,,,,,,,,408.1269998092903,,response,,,,99,,,,,,,Space,keypress(Space),,,,,,,,---- -- ----- -- ------ - ------- --- ----------<br>------------- ------ ------ ---- ---- ------- ----- -- ----<br>-------- ------- -- ---------- --- - --- ----- ----- ----<br>---- --- --- ----- --- ---- ---- ------- ----- ---- -------<br>--- --- -- ----- -- --- ---- -- --- even -- ------ ------<br>--- ----- -- ----,337561,337559.69999980927,337134.865,337136.69999980927,337151.573,337569.153,,48,even
screen,html.Screen,2_1_0_1_49,2022-02-03T14:39:29.764Z,,,,,,,,,,,,,,,,,53,,,,,,,,,,,,,,354.34700000000885,,response,,,,99,,,,,,,Space,keypress(Space),,,,,,,,---- -- ----- -- ------ - ------- --- ----------<br>------------- ------ ------ ---- ---- ------- ----- -- ----<br>-------- ------- -- ---------- --- - --- ----- ----- ----<br>---- --- --- ----- --- ---- ---- ------- ----- ---- -------<br>--- --- -- ----- -- --- ---- -- --- ---- if ------ ------<br>--- ----- -- ----,337924.69999980927,337923.5,337552.447,337561.2999999523,337569.153,337936.62,,49,if
screen,html.Screen,2_1_0_1_50,2022-02-03T14:39:30.131Z,,,,,,,,,,,,,,,,,53,,,,,,,,,,,,,,353.9799999046372,,response,,,,99,,,,,,,Space,keypress(Space),,,,,,,,---- -- ----- -- ------ - ------- --- ----------<br>------------- ------ ------ ---- ---- ------- ----- -- ----<br>-------- ------- -- ---------- --- - --- ----- ----- ----<br>---- --- --- ----- --- ---- ---- ------- ----- ---- -------<br>--- --- -- ----- -- --- ---- -- --- ---- -- that's ------<br>--- ----- -- ----,338291.7999999523,338290.59999990463,337919.916,337925.09999990463,337936.62,338304.257,,50,that's
screen,html.Screen,2_1_0_1_51,2022-02-03T14:39:30.579Z,,,,,,,,,,,,,,,,,53,,,,,,,,,,,,,,434.6429998569656,,response,,,,99,,,,,,,Space,keypress(Space),,,,,,,,---- -- ----- -- ------ - ------- --- ----------<br>------------- ------ ------ ---- ---- ------- ----- -- ----<br>-------- ------- -- ---------- --- - --- ----- ----- ----<br>---- --- --- ----- --- ---- ---- ------- ----- ---- -------<br>--- --- -- ----- -- --- ---- -- --- ---- -- ------ really<br>--- ----- -- ----,338740.19999980927,338738.89999985695,338287.55,338292.19999980927,338304.257,338755.249,,51,really
screen,html.Screen,2_1_0_1_52,2022-02-03T14:39:31.042Z,,,,,,,,,,,,,,,,,53,,,,,,,,,,,,,,446.4509998092544,,response,,,,99,,,,,,,Space,keypress(Space),,,,,,,,---- -- ----- -- ------ - ------- --- ----------<br>------------- ------ ------ ---- ---- ------- ----- -- ----<br>-------- ------- -- ---------- --- - --- ----- ----- ----<br>---- --- --- ----- --- ---- ---- ------- ----- ---- -------<br>--- --- -- ----- -- --- ---- -- --- ---- -- ------ ------<br>not ----- -- ----,339202.7999999523,339201.69999980927,338738.544,338740.5,338755.249,339206.376,,52,not
screen,html.Screen,2_1_0_1_53,2022-02-03T14:39:31.395Z,,,,,,,,,,,,,,,,,53,,,,,,,,,,,,,,348.82399980927585,,response,,,,99,,,,,,,Space,keypress(Space),,,,,,,,---- -- ----- -- ------ - ------- --- ----------<br>------------- ------ ------ ---- ---- ------- ----- -- ----<br>-------- ------- -- ---------- --- - --- ----- ----- ----<br>---- --- --- ----- --- ---- ---- ------- ----- ---- -------<br>--- --- -- ----- -- --- ---- -- --- ---- -- ------ ------<br>--- close -- ----,339556.5,339555.19999980927,339189.67,339203.19999980927,339206.376,339574.003,,53,close
screen,html.Screen,2_1_0_1_54,2022-02-03T14:39:31.804Z,,,,,,,,,,,,,,,,,53,,,,,,,,,,,,,,389.4969999999739,,response,,,,99,,,,,,,Space,keypress(Space),,,,,,,,---- -- ----- -- ------ - ------- --- ----------<br>------------- ------ ------ ---- ---- ------- ----- -- ----<br>-------- ------- -- ---------- --- - --- ----- ----- ----<br>---- --- --- ----- --- ---- ---- ------- ----- ---- -------<br>--- --- -- ----- -- --- ---- -- --- ---- -- ------ ------<br>--- ----- at ----,339964.59999990463,339963.5,339557.293,339556.7999999523,339574.003,339974.845,,54,at
screen,html.Screen,2_1_0_1_55,2022-02-03T14:39:32.263Z,,,,,,,,,,,,,,,,,53,,,,,,,,,,,,,,447.7549999046605,,response,,,,99,,,,,,,Space,keypress(Space),,,,,,,,---- -- ----- -- ------ - ------- --- ----------<br>------------- ------ ------ ---- ---- ------- ----- -- ----<br>-------- ------- -- ---------- --- - --- ----- ----- ----<br>---- --- --- ----- --- ---- ---- ------- ----- ---- -------<br>--- --- -- ----- -- --- ---- -- --- ---- -- ------ ------<br>--- ----- -- all.,340423.89999985695,340422.59999990463,339958.14,339964.89999985695,339974.845,340442.583,,55,all.
Item 99,flow.Loop,2_1_0_1,2022-02-03T14:39:32.264Z,,,,,,,,,,,,,,,,,,,,,,,,,,,,,,,27929.820999904652,,completion,,,,,A,,,,,,,,,,,silence,,,,,340424.59999990463,340422.59999990463,312459.351,312461.69999980927,312492.779,340442.583,,,
Question 1,html.Screen,2_1_0_2,2022-02-03T14:39:36.413Z,,,,,,,,,,,,,,,,,,,,,,,,,,,,true,FALSE,,4129.516999904648,,response,,,,99,A,,,,,,FALSE,click #choice-2,,,,silence,,,,,344574.09999990463,344572.09999990463,340425.878,340425,340442.583,344585.821,,,
Question 2,html.Screen,2_1_0_3,2022-02-03T14:39:41.308Z,,,,,,,,,,,,,,,,,,,,,,,,,,,,true,TRUE,,4880.578999856953,,response,,,,99,A,,,,,,TRUE,click #choice-1,,,,silence,,,,,349468.5,349466.39999985695,344569.116,344574.5,344585.821,349481.024,,,
Item 99,flow.Sequence,2_1_0,2022-02-03T14:39:41.308Z,,,,,,,,,,,,,,,,,,,,,,,,,,,,,,,46985.98299985693,,completion,,,,,,,,,,,,,,,,,,,,,349469.19999980927,349466.39999985695,302413.889,302458.69999980927,302480.417,349481.024,,,
Holding screen,html.Screen,2_1_1_0,2022-02-03T14:39:51.311Z,,,,,,,,,,,,,,,,,,,,,,,,,,,,,,,10006.417000000016,,timeout,,,,,,,,,,,,,,,,,,,,,359472.19999980927,359470.745,349464.311,349469.59999990463,349481.024,359487.441,,,
screen,html.Screen,2_1_1_1_0,2022-02-03T14:39:54.290Z,,,,,,,,,,,,,,,,,54,,,,,,,,,,,,,,2962.158999904641,,response,,,,100,,,,,,,Space,keypress(Space),,,,,,,,At --- ---- --- ------ ----- ------- ---- -- --- ------- --<br>------- ---------- ------ -- ----- -- ----- -- ---- ------<br>--- ----- --- --- ------ -------- ----- --- ------ ----- --<br>----- ----- ---------- --- --- ------ ------ ---- -- ------<br>------- --- ------ ----- --- ---- ------- -- ---- --- --<br>------- ------,362450.89999985695,362449.59999990463,359470.745,359472.59999990463,359487.441,362461.791,,0,At
screen,html.Screen,2_1_1_1_1,2022-02-03T14:39:54.653Z,,,,,,,,,,,,,,,,,54,,,,,,,,,,,,,,349.9089998092386,,response,,,,100,,,,,,,Space,keypress(Space),,,,,,,,-- the ---- --- ------ ----- ------- ---- -- --- ------- --<br>------- ---------- ------ -- ----- -- ----- -- ---- ------<br>--- ----- --- --- ------ -------- ----- --- ------ ----- --<br>----- ----- ---------- --- --- ------ ------ ---- -- ------<br>------- --- ------ ----- --- ---- ------- -- ---- --- --<br>------- ------,362813.09999990463,362811.69999980927,362445.084,362451.19999980927,362461.791,362829.291,,1,the
screen,html.Screen,2_1_1_1_2,2022-02-03T14:39:55.051Z,,,,,,,,,,,,,,,,,54,,,,,,,,,,,,,,380.9089998092386,,response,,,,100,,,,,,,Space,keypress(Space),,,,,,,,-- --- time --- ------ ----- ------- ---- -- --- ------- --<br>------- ---------- ------ -- ----- -- ----- -- ---- ------<br>--- ----- --- --- ------ -------- ----- --- ------ ----- --<br>----- ----- ---------- --- --- ------ ------ ---- -- ------<br>------- --- ------ ----- --- ---- ------- -- ---- --- --<br>------- ------,363211.5,363210.19999980927,362812.585,362813.39999985695,362829.291,363213.454,,2,time
screen,html.Screen,2_1_1_1_3,2022-02-03T14:39:55.483Z,,,,,,,,,,,,,,,,,54,,,,,,,,,,,,,,429.045999999973,,response,,,,100,,,,,,,Space,keypress(Space),,,,,,,,-- --- ---- the ------ ----- ------- ---- -- --- ------- --<br>------- ---------- ------ -- ----- -- ----- -- ---- ------<br>--- ----- --- --- ------ -------- ----- --- ------ ----- --<br>----- ----- ---------- --- --- ------ ------ ---- -- ------<br>------- --- ------ ----- --- ---- ------- -- ---- --- --<br>------- ------,363643.59999990463,363642.5,363196.75,363211.7999999523,363213.454,363647.791,,3,the
screen,html.Screen,2_1_1_1_4,2022-02-03T14:39:55.908Z,,,,,,,,,,,,,,,,,54,,,,,,,,,,,,,,419.1089998569223,,response,,,,100,,,,,,,Space,keypress(Space),,,,,,,,-- --- ---- --- French ----- ------- ---- -- --- ------- --<br>------- ---------- ------ -- ----- -- ----- -- ---- ------<br>--- ----- --- --- ------ -------- ----- --- ------ ----- --<br>----- ----- ---------- --- --- ------ ------ ---- -- ------<br>------- --- ------ ----- --- ---- ------- -- ---- --- --<br>------- ------,364068.09999990463,364066.89999985695,363631.087,363644,363647.791,364082.259,,4,French
screen,html.Screen,2_1_1_1_5,2022-02-03T14:39:56.309Z,,,,,,,,,,,,,,,,,54,,,,,,,,,,,,,,385.74099999998,,response,,,,100,,,,,,,Space,keypress(Space),,,,,,,,-- --- ---- --- ------ crown ------- ---- -- --- ------- --<br>------- ---------- ------ -- ----- -- ----- -- ---- ------<br>--- ----- --- --- ------ -------- ----- --- ------ ----- --<br>----- ----- ---------- --- --- ------ ------ ---- -- ------<br>------- --- ------ ----- --- ---- ------- -- ---- --- --<br>------- ------,364469.19999980927,364468,364065.554,364068.5,364082.259,364483.169,,5,crown
screen,html.Screen,2_1_1_1_6,2022-02-03T14:39:56.703Z,,,,,,,,,,,,,,,,,54,,,,,,,,,,,,,,378.0309998092707,,response,,,,100,,,,,,,Space,keypress(Space),,,,,,,,-- --- ---- --- ------ ----- secured ---- -- --- ------- --<br>------- ---------- ------ -- ----- -- ----- -- ---- ------<br>--- ----- --- --- ------ -------- ----- --- ------ ----- --<br>----- ----- ---------- --- --- ------ ------ ---- -- ------<br>------- --- ------ ----- --- ---- ------- -- ---- --- --<br>------- ------,364862.7999999523,364861.19999980927,364466.465,364469.5,364483.169,364884.087,,6,secured
screen,html.Screen,2_1_1_1_7,2022-02-03T14:39:57.130Z,,,,,,,,,,,,,,,,,54,,,,,,,,,,,,,,404.91300000000047,,response,,,,100,,,,,,,Space,keypress(Space),,,,,,,,-- --- ---- --- ------ ----- ------- much -- --- ------- --<br>------- ---------- ------ -- ----- -- ----- -- ---- ------<br>--- ----- --- --- ------ -------- ----- --- ------ ----- --<br>----- ----- ---------- --- --- ------ ------ ---- -- ------<br>------- --- ------ ----- --- ---- ------- -- ---- --- --<br>------- ------,365290.2999999523,365289,364867.546,364863.19999980927,364884.087,365301.88,,7,much
screen,html.Screen,2_1_1_1_8,2022-02-03T14:39:57.503Z,,,,,,,,,,,,,,,,,54,,,,,,,,,,,,,,359.9199999523116,,response,,,,100,,,,,,,Space,keypress(Space),,,,,,,,-- --- ---- --- ------ ----- ------- ---- of --- ------- --<br>------- ---------- ------ -- ----- -- ----- -- ---- ------<br>--- ----- --- --- ------ -------- ----- --- ------ ----- --<br>----- ----- ---------- --- --- ------ ------ ---- -- ------<br>------- --- ------ ----- --- ---- ------- -- ---- --- --<br>------- ------,365663,365661.7999999523,365285.173,365290.59999990463,365301.88,365669.377,,8,of
screen,html.Screen,2_1_1_1_9,2022-02-03T14:39:57.810Z,,,,,,,,,,,,,,,,,54,,,,,,,,,,,,,,299.6230000000214,,response,,,,100,,,,,,,Space,keypress(Space),,,,,,,,-- --- ---- --- ------ ----- ------- ---- -- its ------- --<br>------- ---------- ------ -- ----- -- ----- -- ---- ------<br>--- ----- --- --- ------ -------- ----- --- ------ ----- --<br>----- ----- ---------- --- --- ------ ------ ---- -- ------<br>------- --- ------ ----- --- ---- ------- -- ---- --- --<br>------- ------,365970.09999990463,365969,365652.672,365663.39999985695,365669.377,365986.76,,9,its
screen,html.Screen,2_1_1_1_10,2022-02-03T14:39:58.233Z,,,,,,,,,,,,,,,,,54,,,,,,,,,,,,,,405.53999995230697,,response,,,,100,,,,,,,Space,keypress(Space),,,,,,,,-- --- ---- --- ------ ----- ------- ---- -- --- revenue --<br>------- ---------- ------ -- ----- -- ----- -- ---- ------<br>--- ----- --- --- ------ -------- ----- --- ------ ----- --<br>----- ----- ---------- --- --- ------ ------ ---- -- ------<br>------- --- ------ ----- --- ---- ------- -- ---- --- --<br>------- ------,366393.59999990463,366392.2999999523,365970.056,365970.5,365986.76,366404.498,,10,revenue
screen,html.Screen,2_1_1_1_11,2022-02-03T14:39:58.699Z,,,,,,,,,,,,,,,,,54,,,,,,,,,,,,,,453.60199990461115,,response,,,,100,,,,,,,Space,keypress(Space),,,,,,,,-- --- ---- --- ------ ----- ------- ---- -- --- ------- by<br>------- ---------- ------ -- ----- -- ----- -- ---- ------<br>--- ----- --- --- ------ -------- ----- --- ------ ----- --<br>----- ----- ---------- --- --- ------ ------ ---- -- ------<br>------- --- ------ ----- --- ---- ------- -- ---- --- --<br>------- ------,366859.2999999523,366858.09999990463,366387.791,366394,366404.498,366872.257,,11,by
screen,html.Screen,2_1_1_1_12,2022-02-03T14:39:59.134Z,,,,,,,,,,,,,,,,,54,,,,,,,,,,,,,,420.34299990464933,,response,,,,100,,,,,,,Space,keypress(Space),,,,,,,,-- --- ---- --- ------ ----- ------- ---- -- --- ------- --<br>issuing ---------- ------ -- ----- -- ----- -- ---- ------<br>--- ----- --- --- ------ -------- ----- --- ------ ----- --<br>----- ----- ---------- --- --- ------ ------ ---- -- ------<br>------- --- ------ ----- --- ---- ------- -- ---- --- --<br>------- ------,367294,367292.59999990463,366855.551,366859.59999990463,366872.257,367306.576,,12,issuing
screen,html.Screen,2_1_1_1_13,2022-02-03T14:39:59.528Z,,,,,,,,,,,,,,,,,54,,,,,,,,,,,,,,380.72399995231535,,response,,,,100,,,,,,,Space,keypress(Space),,,,,,,,-- --- ---- --- ------ ----- ------- ---- -- --- ------- --<br>------- government ------ -- ----- -- ----- -- ---- ------<br>--- ----- --- --- ------ -------- ----- --- ------ ----- --<br>----- ----- ---------- --- --- ------ ------ ---- -- ------<br>------- --- ------ ----- --- ---- ------- -- ---- --- --<br>------- ------,367688.7999999523,367687.2999999523,367289.871,367294.39999985695,367306.576,367690.862,,13,government
screen,html.Screen,2_1_1_1_14,2022-02-03T14:39:59.913Z,,,,,,,,,,,,,,,,,54,,,,,,,,,,,,,,381.6379999999772,,response,,,,100,,,,,,,Space,keypress(Space),,,,,,,,-- --- ---- --- ------ ----- ------- ---- -- --- ------- --<br>------- ---------- bonds. -- ----- -- ----- -- ---- ------<br>--- ----- --- --- ------ -------- ----- --- ------ ----- --<br>----- ----- ---------- --- --- ------ ------ ---- -- ------<br>------- --- ------ ----- --- ---- ------- -- ---- --- --<br>------- ------,368073.69999980927,368072.5,367674.157,367689.19999980927,367690.862,368075.107,,14,bonds.
screen,html.Screen,2_1_1_1_15,2022-02-03T14:40:00.391Z,,,,,,,,,,,,,,,,,54,,,,,,,,,,,,,,474.89299999998184,,response,,,,100,,,,,,,Space,keypress(Space),,,,,,,,-- --- ---- --- ------ ----- ------- ---- -- --- ------- --<br>------- ---------- ------ In ----- -- ----- -- ---- ------<br>--- ----- --- --- ------ -------- ----- --- ------ ----- --<br>----- ----- ---------- --- --- ------ ------ ---- -- ------<br>------- --- ------ ----- --- ---- ------- -- ---- --- --<br>------- ------,368551.5,368550,368058.281,368074,368075.107,368559.539,,15,In
screen,html.Screen,2_1_1_1_16,2022-02-03T14:40:00.837Z,,,,,,,,,,,,,,,,,54,,,,,,,,,,,,,,436.8609998569591,,response,,,,100,,,,,,,Space,keypress(Space),,,,,,,,"-- --- ---- --- ------ ----- ------- ---- -- --- ------- --<br>------- ---------- ------ -- 1727, -- ----- -- ---- ------<br>--- ----- --- --- ------ -------- ----- --- ------ ----- --<br>----- ----- ---------- --- --- ------ ------ ---- -- ------<br>------- --- ------ ----- --- ---- ------- -- ---- --- --<br>------- ------",368997.69999980927,368996.39999985695,368542.834,368551.7999999523,368559.539,369011.139,,16,"1727,"
screen,html.Screen,2_1_1_1_17,2022-02-03T14:40:01.830Z,,,,,,,,,,,,,,,,,54,,,,,,,,,,,,,,977.7609998569242,,response,,,,100,,,,,,,Space,keypress(Space),,,,,,,,-- --- ---- --- ------ ----- ------- ---- -- --- ------- --<br>------- ---------- ------ -- ----- in ----- -- ---- ------<br>--- ----- --- --- ------ -------- ----- --- ------ ----- --<br>----- ----- ---------- --- --- ------ ------ ---- -- ------<br>------- --- ------ ----- --- ---- ------- -- ---- --- --<br>------- ------,369990.19999980927,369988.89999985695,368994.42,368998,369011.139,369996.041,,17,in
screen,html.Screen,2_1_1_1_18,2022-02-03T14:40:02.189Z,,,,,,,,,,,,,,,,,54,,,,,,,,,,,,,,352.25899995228974,,response,,,,100,,,,,,,Space,keypress(Space),,,,,,,,-- --- ---- --- ------ ----- ------- ---- -- --- ------- --<br>------- ---------- ------ -- ----- -- order -- ---- ------<br>--- ----- --- --- ------ -------- ----- --- ------ ----- --<br>----- ----- ---------- --- --- ------ ------ ---- -- ------<br>------- --- ------ ----- --- ---- ------- -- ---- --- --<br>------- ------,370349.5,370348.2999999523,369979.34,369992.39999985695,369996.041,370363.837,,18,order
screen,html.Screen,2_1_1_1_19,2022-02-03T14:40:02.583Z,,,,,,,,,,,,,,,,,54,,,,,,,,,,,,,,378.0629998569493,,response,,,,100,,,,,,,Space,keypress(Space),,,,,,,,-- --- ---- --- ------ ----- ------- ---- -- --- ------- --<br>------- ---------- ------ -- ----- -- ----- to ---- ------<br>--- ----- --- --- ------ -------- ----- --- ------ ----- --<br>----- ----- ---------- --- --- ------ ------ ---- -- ------<br>------- --- ------ ----- --- ---- ------- -- ---- --- --<br>------- ------,370743.19999980927,370741.89999985695,370347.133,370349.7999999523,370363.837,370748.114,,19,to
screen,html.Screen,2_1_1_1_20,2022-02-03T14:40:02.901Z,,,,,,,,,,,,,,,,,54,,,,,,,,,,,,,,311.98599990463117,,response,,,,100,,,,,,,Space,keypress(Space),,,,,,,,-- --- ---- --- ------ ----- ------- ---- -- --- ------- --<br>------- ---------- ------ -- ----- -- ----- -- save ------<br>--- ----- --- --- ------ -------- ----- --- ------ ----- --<br>----- ----- ---------- --- --- ------ ------ ---- -- ------<br>------- --- ------ ----- --- ---- ------- -- ---- --- --<br>------- ------,371061.2999999523,371060.09999990463,370731.409,370743.5,370748.114,371065.547,,20,save
screen,html.Screen,2_1_1_1_21,2022-02-03T14:40:03.316Z,,,,,,,,,,,,,,,,,54,,,,,,,,,,,,,,409.7529999522958,,response,,,,100,,,,,,,Space,keypress(Space),,,,,,,,"-- --- ---- --- ------ ----- ------- ---- -- --- ------- --<br>------- ---------- ------ -- ----- -- ----- -- ---- money,<br>--- ----- --- --- ------ -------- ----- --- ------ ----- --<br>----- ----- ---------- --- --- ------ ------ ---- -- ------<br>------- --- ------ ----- --- ---- ------- -- ---- --- --<br>------- ------",371476.5,371475.2999999523,371048.841,371061.69999980927,371065.547,371483.111,,21,"money,"
screen,html.Screen,2_1_1_1_22,2022-02-03T14:40:03.731Z,,,,,,,,,,,,,,,,,54,,,,,,,,,,,,,,406.48899990465725,,response,,,,100,,,,,,,Space,keypress(Space),,,,,,,,-- --- ---- --- ------ ----- ------- ---- -- --- ------- --<br>------- ---------- ------ -- ----- -- ----- -- ---- ------<br>the ----- --- --- ------ -------- ----- --- ------ ----- --<br>----- ----- ---------- --- --- ------ ------ ---- -- ------<br>------- --- ------ ----- --- ---- ------- -- ---- --- --<br>------- ------,371890.89999985695,371889.59999990463,371466.408,371476.7999999523,371483.111,371900.945,,22,the
screen,html.Screen,2_1_1_1_23,2022-02-03T14:40:04.130Z,,,,,,,,,,,,,,,,,54,,,,,,,,,,,,,,387.75499980925815,,response,,,,100,,,,,,,Space,keypress(Space),,,,,,,,-- --- ---- --- ------ ----- ------- ---- -- --- ------- --<br>------- ---------- ------ -- ----- -- ----- -- ---- ------<br>--- state --- --- ------ -------- ----- --- ------ ----- --<br>----- ----- ---------- --- --- ------ ------ ---- -- ------<br>------- --- ------ ----- --- ---- ------- -- ---- --- --<br>------- ------,372289.89999985695,372288.69999980927,371884.237,371891.19999980927,371900.945,372301.841,,23,state
screen,html.Screen,2_1_1_1_24,2022-02-03T14:40:04.553Z,,,,,,,,,,,,,,,,,54,,,,,,,,,,,,,,410.4589999523014,,response,,,,100,,,,,,,Space,keypress(Space),,,,,,,,-- --- ---- --- ------ ----- ------- ---- -- --- ------- --<br>------- ---------- ------ -- ----- -- ----- -- ---- ------<br>--- ----- cut --- ------ -------- ----- --- ------ ----- --<br>----- ----- ---------- --- --- ------ ------ ---- -- ------<br>------- --- ------ ----- --- ---- ------- -- ---- --- --<br>------- ------,372713.59999990463,372712.2999999523,372285.11,372290.19999980927,372301.841,372719.403,,24,cut
screen,html.Screen,2_1_1_1_25,2022-02-03T14:40:04.963Z,,,,,,,,,,,,,,,,,54,,,,,,,,,,,,,,402.89699995232513,,response,,,,100,,,,,,,Space,keypress(Space),,,,,,,,-- --- ---- --- ------ ----- ------- ---- -- --- ------- --<br>------- ---------- ------ -- ----- -- ----- -- ---- ------<br>--- ----- --- the ------ -------- ----- --- ------ ----- --<br>----- ----- ---------- --- --- ------ ------ ---- -- ------<br>------- --- ------ ----- --- ---- ------- -- ---- --- --<br>------- ------,373123.59999990463,373122.2999999523,372702.699,372713.89999985695,372719.403,373137.123,,25,the
screen,html.Screen,2_1_1_1_26,2022-02-03T14:40:05.421Z,,,,,,,,,,,,,,,,,54,,,,,,,,,,,,,,442.47699990461115,,response,,,,100,,,,,,,Space,keypress(Space),,,,,,,,-- --- ---- --- ------ ----- ------- ---- -- --- ------- --<br>------- ---------- ------ -- ----- -- ----- -- ---- ------<br>--- ----- --- --- bonds' -------- ----- --- ------ ----- --<br>----- ----- ---------- --- --- ------ ------ ---- -- ------<br>------- --- ------ ----- --- ---- ------- -- ---- --- --<br>------- ------,373580.89999985695,373579.59999990463,373120.418,373123.89999985695,373137.123,373588.259,,26,bonds'
screen,html.Screen,2_1_1_1_27,2022-02-03T14:40:05.836Z,,,,,,,,,,,,,,,,,54,,,,,,,,,,,,,,407.14099985692883,,response,,,,100,,,,,,,Space,keypress(Space),,,,,,,,-- --- ---- --- ------ ----- ------- ---- -- --- ------- --<br>------- ---------- ------ -- ----- -- ----- -- ---- ------<br>--- ----- --- --- ------ interest ----- --- ------ ----- --<br>----- ----- ---------- --- --- ------ ------ ---- -- ------<br>------- --- ------ ----- --- ---- ------- -- ---- --- --<br>------- ------,373996.69999980927,373995.39999985695,373571.553,373581.19999980927,373588.259,374005.891,,27,interest
screen,html.Screen,2_1_1_1_28,2022-02-03T14:40:06.272Z,,,,,,,,,,,,,,,,,54,,,,,,,,,,,,,,424.60899999999674,,response,,,,100,,,,,,,Space,keypress(Space),,,,,,,,-- --- ---- --- ------ ----- ------- ---- -- --- ------- --<br>------- ---------- ------ -- ----- -- ----- -- ---- ------<br>--- ----- --- --- ------ -------- rate. --- ------ ----- --<br>----- ----- ---------- --- --- ------ ------ ---- -- ------<br>------- --- ------ ----- --- ---- ------- -- ---- --- --<br>------- ------,374431.7999999523,374430.5,373989.186,373997.09999990463,374005.891,374456.955,,28,rate.
screen,html.Screen,2_1_1_1_29,2022-02-03T14:40:06.891Z,,,,,,,,,,,,,,,,,54,,,,,,,,,,,,,,593.0449999999837,,response,,,,100,,,,,,,Space,keypress(Space),,,,,,,,-- --- ---- --- ------ ----- ------- ---- -- --- ------- --<br>------- ---------- ------ -- ----- -- ----- -- ---- ------<br>--- ----- --- --- ------ -------- ----- The ------ ----- --<br>----- ----- ---------- --- --- ------ ------ ---- -- ------<br>------- --- ------ ----- --- ---- ------- -- ---- --- --<br>------- ------,375051.2999999523,375050,374440.25,374432.19999980927,374456.955,375058.013,,29,The
screen,html.Screen,2_1_1_1_30,2022-02-03T14:40:07.306Z,,,,,,,,,,,,,,,,,54,,,,,,,,,,,,,,406.4870000000228,,response,,,,100,,,,,,,Space,keypress(Space),,,,,,,,-- --- ---- --- ------ ----- ------- ---- -- --- ------- --<br>------- ---------- ------ -- ----- -- ----- -- ---- ------<br>--- ----- --- --- ------ -------- ----- --- market ----- --<br>----- ----- ---------- --- --- ------ ------ ---- -- ------<br>------- --- ------ ----- --- ---- ------- -- ---- --- --<br>------- ------,375465.89999985695,375464.5,375041.318,375051.59999990463,375058.013,375492.511,,30,market
screen,html.Screen,2_1_1_1_31,2022-02-03T14:40:07.674Z,,,,,,,,,,,,,,,,,54,,,,,,,,,,,,,,340.18899980926653,,response,,,,100,,,,,,,Space,keypress(Space),,,,,,,,-- --- ---- --- ------ ----- ------- ---- -- --- ------- --<br>------- ---------- ------ -- ----- -- ----- -- ---- ------<br>--- ----- --- --- ------ -------- ----- --- ------ value --<br>----- ----- ---------- --- --- ------ ------ ---- -- ------<br>------- --- ------ ----- --- ---- ------- -- ---- --- --<br>------- ------,375833.89999985695,375832.69999980927,375476.105,375466.2999999523,375492.511,375843.692,,31,value
screen,html.Screen,2_1_1_1_32,2022-02-03T14:40:08.051Z,,,,,,,,,,,,,,,,,54,,,,,,,,,,,,,,366.50799980928423,,response,,,,100,,,,,,,Space,keypress(Space),,,,,,,,-- --- ---- --- ------ ----- ------- ---- -- --- ------- --<br>------- ---------- ------ -- ----- -- ----- -- ---- ------<br>--- ----- --- --- ------ -------- ----- --- ------ ----- of<br>----- ----- ---------- --- --- ------ ------ ---- -- ------<br>------- --- ------ ----- --- ---- ------- -- ---- --- --<br>------- ------,376211.39999985695,376210.19999980927,375826.983,375834.19999980927,375843.692,376227.797,,32,of
screen,html.Screen,2_1_1_1_33,2022-02-03T14:40:08.452Z,,,,,,,,,,,,,,,,,54,,,,,,,,,,,,,,383.5029999522958,,response,,,,100,,,,,,,Space,keypress(Space),,,,,,,,-- --- ---- --- ------ ----- ------- ---- -- --- ------- --<br>------- ---------- ------ -- ----- -- ----- -- ---- ------<br>--- ----- --- --- ------ -------- ----- --- ------ ----- --<br>these ----- ---------- --- --- ------ ------ ---- -- ------<br>------- --- ------ ----- --- ---- ------- -- ---- --- --<br>------- ------,376612.5,376611.2999999523,376211.093,376211.7999999523,376227.797,376628.805,,33,these
screen,html.Screen,2_1_1_1_34,2022-02-03T14:40:08.782Z,,,,,,,,,,,,,,,,,54,,,,,,,,,,,,,,312.59499985695584,,response,,,,100,,,,,,,Space,keypress(Space),,,,,,,,-- --- ---- --- ------ ----- ------- ---- -- --- ------- --<br>------- ---------- ------ -- ----- -- ----- -- ---- ------<br>--- ----- --- --- ------ -------- ----- --- ------ ----- --<br>----- bonds ---------- --- --- ------ ------ ---- -- ------<br>------- --- ------ ----- --- ---- ------- -- ---- --- --<br>------- ------,376942.5,376941.39999985695,376612.1,376612.7999999523,376628.805,376946.248,,34,bonds
screen,html.Screen,2_1_1_1_35,2022-02-03T14:40:09.228Z,,,,,,,,,,,,,,,,,54,,,,,,,,,,,,,,440.9519998092437,,response,,,,100,,,,,,,Space,keypress(Space),,,,,,,,"-- --- ---- --- ------ ----- ------- ---- -- --- ------- --<br>------- ---------- ------ -- ----- -- ----- -- ---- ------<br>--- ----- --- --- ------ -------- ----- --- ------ ----- --<br>----- ----- plummeted, --- --- ------ ------ ---- -- ------<br>------- --- ------ ----- --- ---- ------- -- ---- --- --<br>------- ------",377388.5,377387.19999980927,376929.542,376942.89999985695,376946.248,377397.32,,35,"plummeted,"
screen,html.Screen,2_1_1_1_36,2022-02-03T14:40:09.634Z,,,,,,,,,,,,,,,,,54,,,,,,,,,,,,,,395.57999985694187,,response,,,,100,,,,,,,Space,keypress(Space),,,,,,,,-- --- ---- --- ------ ----- ------- ---- -- --- ------- --<br>------- ---------- ------ -- ----- -- ----- -- ---- ------<br>--- ----- --- --- ------ -------- ----- --- ------ ----- --<br>----- ----- ---------- and --- ------ ------ ---- -- ------<br>------- --- ------ ----- --- ---- ------- -- ---- --- --<br>------- ------,377794.09999990463,377792.89999985695,377380.614,377388.89999985695,377397.32,377798.278,,36,and
screen,html.Screen,2_1_1_1_37,2022-02-03T14:40:10.025Z,,,,,,,,,,,,,,,,,54,,,,,,,,,,,,,,385.921999809274,,response,,,,100,,,,,,,Space,keypress(Space),,,,,,,,-- --- ---- --- ------ ----- ------- ---- -- --- ------- --<br>------- ---------- ------ -- ----- -- ----- -- ---- ------<br>--- ----- --- --- ------ -------- ----- --- ------ ----- --<br>----- ----- ---------- --- the ------ ------ ---- -- ------<br>------- --- ------ ----- --- ---- ------- -- ---- --- --<br>------- ------,378185.2999999523,378184.19999980927,377781.572,377794.39999985695,377798.278,378199.236,,37,the
screen,html.Screen,2_1_1_1_38,2022-02-03T14:40:10.394Z,,,,,,,,,,,,,,,,,54,,,,,,,,,,,,,,354.16399985697353,,response,,,,100,,,,,,,Space,keypress(Space),,,,,,,,-- --- ---- --- ------ ----- ------- ---- -- --- ------- --<br>------- ---------- ------ -- ----- -- ----- -- ---- ------<br>--- ----- --- --- ------ -------- ----- --- ------ ----- --<br>----- ----- ---------- --- --- market ------ ---- -- ------<br>------- --- ------ ----- --- ---- ------- -- ---- --- --<br>------- ------,378554.69999980927,378553.39999985695,378182.53,378185.69999980927,378199.236,378566.593,,38,market
screen,html.Screen,2_1_1_1_39,2022-02-03T14:40:10.770Z,,,,,,,,,,,,,,,,,54,,,,,,,,,,,,,,362.4070000000065,,response,,,,100,,,,,,,Space,keypress(Space),,,,,,,,-- --- ---- --- ------ ----- ------- ---- -- --- ------- --<br>------- ---------- ------ -- ----- -- ----- -- ---- ------<br>--- ----- --- --- ------ -------- ----- --- ------ ----- --<br>----- ----- ---------- --- --- ------ became ---- -- ------<br>------- --- ------ ----- --- ---- ------- -- ---- --- --<br>------- ------,378930.2999999523,378929,378549.891,378555.09999990463,378566.593,378934.26,,39,became
screen,html.Screen,2_1_1_1_40,2022-02-03T14:40:11.165Z,,,,,,,,,,,,,,,,,54,,,,,,,,,,,,,,389.4399998092558,,response,,,,100,,,,,,,Space,keypress(Space),,,,,,,,-- --- ---- --- ------ ----- ------- ---- -- --- ------- --<br>------- ---------- ------ -- ----- -- ----- -- ---- ------<br>--- ----- --- --- ------ -------- ----- --- ------ ----- --<br>----- ----- ---------- --- --- ------ ------ wary -- ------<br>------- --- ------ ----- --- ---- ------- -- ---- --- --<br>------- ------,379324.89999985695,379323.69999980927,378917.555,378930.59999990463,378934.26,379335.249,,40,wary
screen,html.Screen,2_1_1_1_41,2022-02-03T14:40:11.574Z,,,,,,,,,,,,,,,,,54,,,,,,,,,,,,,,397.5509999523056,,response,,,,100,,,,,,,Space,keypress(Space),,,,,,,,-- --- ---- --- ------ ----- ------- ---- -- --- ------- --<br>------- ---------- ------ -- ----- -- ----- -- ---- ------<br>--- ----- --- --- ------ -------- ----- --- ------ ----- --<br>----- ----- ---------- --- --- ------ ------ ---- of ------<br>------- --- ------ ----- --- ---- ------- -- ---- --- --<br>------- ------,379734.2999999523,379732.7999999523,379318.541,379325.2999999523,379335.249,379753.005,,41,of
screen,html.Screen,2_1_1_1_42,2022-02-03T14:40:11.981Z,,,,,,,,,,,,,,,,,54,,,,,,,,,,,,,,386.6949998092605,,response,,,,100,,,,,,,Space,keypress(Space),,,,,,,,-- --- ---- --- ------ ----- ------- ---- -- --- ------- --<br>------- ---------- ------ -- ----- -- ----- -- ---- ------<br>--- ----- --- --- ------ -------- ----- --- ------ ----- --<br>----- ----- ---------- --- --- ------ ------ ---- -- French<br>------- --- ------ ----- --- ---- ------- -- ---- --- --<br>------- ------,380141,380139.69999980927,379736.292,379734.5,379753.005,380153.827,,42,French
screen,html.Screen,2_1_1_1_43,2022-02-03T14:40:12.412Z,,,,,,,,,,,,,,,,,54,,,,,,,,,,,,,,416.8729998092749,,response,,,,100,,,,,,,Space,keypress(Space),,,,,,,,-- --- ---- --- ------ ----- ------- ---- -- --- ------- --<br>------- ---------- ------ -- ----- -- ----- -- ---- ------<br>--- ----- --- --- ------ -------- ----- --- ------ ----- --<br>----- ----- ---------- --- --- ------ ------ ---- -- ------<br>credit. --- ------ ----- --- ---- ------- -- ---- --- --<br>------- ------,380572.19999980927,380570.69999980927,380137.122,380141.19999980927,380153.827,380588.196,,43,credit.
screen,html.Screen,2_1_1_1_44,2022-02-03T14:40:12.837Z,,,,,,,,,,,,,,,,,54,,,,,,,,,,,,,,407.60399995232,,response,,,,100,,,,,,,Space,keypress(Space),,,,,,,,-- --- ---- --- ------ ----- ------- ---- -- --- ------- --<br>------- ---------- ------ -- ----- -- ----- -- ---- ------<br>--- ----- --- --- ------ -------- ----- --- ------ ----- --<br>----- ----- ---------- --- --- ------ ------ ---- -- ------<br>------- The ------ ----- --- ---- ------- -- ---- --- --<br>------- ------,380997.09999990463,380995.7999999523,380571.491,380572.39999985695,380588.196,381005.887,,44,The
screen,html.Screen,2_1_1_1_45,2022-02-03T14:40:13.181Z,,,,,,,,,,,,,,,,,54,,,,,,,,,,,,,,334.4129999523284,,response,,,,100,,,,,,,Space,keypress(Space),,,,,,,,-- --- ---- --- ------ ----- ------- ---- -- --- ------- --<br>------- ---------- ------ -- ----- -- ----- -- ---- ------<br>--- ----- --- --- ------ -------- ----- --- ------ ----- --<br>----- ----- ---------- --- --- ------ ------ ---- -- ------<br>------- --- French ----- --- ---- ------- -- ---- --- --<br>------- ------,381341.5,381340.2999999523,380989.181,380997.39999985695,381005.887,381356.775,,45,French
screen,html.Screen,2_1_1_1_46,2022-02-03T14:40:13.523Z,,,,,,,,,,,,,,,,,54,,,,,,,,,,,,,,325.2249999999767,,response,,,,100,,,,,,,Space,keypress(Space),,,,,,,,-- --- ---- --- ------ ----- ------- ---- -- --- ------- --<br>------- ---------- ------ -- ----- -- ----- -- ---- ------<br>--- ----- --- --- ------ -------- ----- --- ------ ----- --<br>----- ----- ---------- --- --- ------ ------ ---- -- ------<br>------- --- ------ state --- ---- ------- -- ---- --- --<br>------- ------,381683.2999999523,381682,381340.068,381341.89999985695,381356.775,381690.846,,46,state
screen,html.Screen,2_1_1_1_47,2022-02-03T14:40:13.930Z,,,,,,,,,,,,,,,,,54,,,,,,,,,,,,,,397.65399999998044,,response,,,,100,,,,,,,Space,keypress(Space),,,,,,,,-- --- ---- --- ------ ----- ------- ---- -- --- ------- --<br>------- ---------- ------ -- ----- -- ----- -- ---- ------<br>--- ----- --- --- ------ -------- ----- --- ------ ----- --<br>----- ----- ---------- --- --- ------ ------ ---- -- ------<br>------- --- ------ ----- was ---- ------- -- ---- --- --<br>------- ------,382090.09999990463,382088.5,381674.141,381683.59999990463,381690.846,382091.846,,47,was
screen,html.Screen,2_1_1_1_48,2022-02-03T14:40:14.311Z,,,,,,,,,,,,,,,,,54,,,,,,,,,,,,,,378.0539998569293,,response,,,,100,,,,,,,Space,keypress(Space),,,,,,,,-- --- ---- --- ------ ----- ------- ---- -- --- ------- --<br>------- ---------- ------ -- ----- -- ----- -- ---- ------<br>--- ----- --- --- ------ -------- ----- --- ------ ----- --<br>----- ----- ---------- --- --- ------ ------ ---- -- ------<br>------- --- ------ ----- --- left ------- -- ---- --- --<br>------- ------,382471.5,382469.89999985695,382075.139,382090.39999985695,382091.846,382476.027,,48,left
screen,html.Screen,2_1_1_1_49,2022-02-03T14:40:14.725Z,,,,,,,,,,,,,,,,,54,,,,,,,,,,,,,,407.47299999999814,,response,,,,100,,,,,,,Space,keypress(Space),,,,,,,,-- --- ---- --- ------ ----- ------- ---- -- --- ------- --<br>------- ---------- ------ -- ----- -- ----- -- ---- ------<br>--- ----- --- --- ------ -------- ----- --- ------ ----- --<br>----- ----- ---------- --- --- ------ ------ ---- -- ------<br>------- --- ------ ----- --- ---- without -- ---- --- --<br>------- ------,382884.7999999523,382883.5,382459.322,382471.7999999523,382476.027,382910.56,,49,without
screen,html.Screen,2_1_1_1_50,2022-02-03T14:40:15.155Z,,,,,,,,,,,,,,,,,54,,,,,,,,,,,,,,403.3399998569512,,response,,,,100,,,,,,,Space,keypress(Space),,,,,,,,-- --- ---- --- ------ ----- ------- ---- -- --- ------- --<br>------- ---------- ------ -- ----- -- ----- -- ---- ------<br>--- ----- --- --- ------ -------- ----- --- ------ ----- --<br>----- ----- ---------- --- --- ------ ------ ---- -- ------<br>------- --- ------ ----- --- ---- ------- an ---- --- --<br>------- ------,383315.09999990463,383313.89999985695,382893.577,382885.19999980927,382910.56,383328.108,,50,an
screen,html.Screen,2_1_1_1_51,2022-02-03T14:40:15.543Z,,,,,,,,,,,,,,,,,54,,,,,,,,,,,,,,373.7919998569414,,response,,,,100,,,,,,,Space,keypress(Space),,,,,,,,-- --- ---- --- ------ ----- ------- ---- -- --- ------- --<br>------- ---------- ------ -- ----- -- ----- -- ---- ------<br>--- ----- --- --- ------ -------- ----- --- ------ ----- --<br>----- ----- ---------- --- --- ------ ------ ---- -- ------<br>------- --- ------ ----- --- ---- ------- -- easy --- --<br>------- ------,383703.09999990463,383701.89999985695,383311.402,383315.5,383328.108,383712.356,,51,easy
screen,html.Screen,2_1_1_1_52,2022-02-03T14:40:15.944Z,,,,,,,,,,,,,,,,,54,,,,,,,,,,,,,,390.64399999997113,,response,,,,100,,,,,,,Space,keypress(Space),,,,,,,,-- --- ---- --- ------ ----- ------- ---- -- --- ------- --<br>------- ---------- ------ -- ----- -- ----- -- ---- ------<br>--- ----- --- --- ------ -------- ----- --- ------ ----- --<br>----- ----- ---------- --- --- ------ ------ ---- -- ------<br>------- --- ------ ----- --- ---- ------- -- ---- way --<br>------- ------,384104.09999990463,384103,383695.65,383703.39999985695,383712.356,384113.286,,52,way
screen,html.Screen,2_1_1_1_53,2022-02-03T14:40:16.371Z,,,,,,,,,,,,,,,,,54,,,,,,,,,,,,,,416.91399980924325,,response,,,,100,,,,,,,Space,keypress(Space),,,,,,,,-- --- ---- --- ------ ----- ------- ---- -- --- ------- --<br>------- ---------- ------ -- ----- -- ----- -- ---- ------<br>--- ----- --- --- ------ -------- ----- --- ------ ----- --<br>----- ----- ---------- --- --- ------ ------ ---- -- ------<br>------- --- ------ ----- --- ---- ------- -- ---- --- of<br>------- ------,384531.39999985695,384530.19999980927,384096.581,384104.5,384113.286,384547.688,,53,of
screen,html.Screen,2_1_1_1_54,2022-02-03T14:40:16.815Z,,,,,,,,,,,,,,,,,54,,,,,,,,,,,,,,426.4119999046088,,response,,,,100,,,,,,,Space,keypress(Space),,,,,,,,-- --- ---- --- ------ ----- ------- ---- -- --- ------- --<br>------- ---------- ------ -- ----- -- ----- -- ---- ------<br>--- ----- --- --- ------ -------- ----- --- ------ ----- --<br>----- ----- ---------- --- --- ------ ------ ---- -- ------<br>------- --- ------ ----- --- ---- ------- -- ---- --- --<br>raising ------,384975.2999999523,384974.09999990463,384530.982,384531.69999980927,384547.688,384981.954,,54,raising
screen,html.Screen,2_1_1_1_55,2022-02-03T14:40:17.396Z,,,,,,,,,,,,,,,,,54,,,,,,,,,,,,,,572.6459999046056,,response,,,,100,,,,,,,Space,keypress(Space),,,,,,,,-- --- ---- --- ------ ----- ------- ---- -- --- ------- --<br>------- ---------- ------ -- ----- -- ----- -- ---- ------<br>--- ----- --- --- ------ -------- ----- --- ------ ----- --<br>----- ----- ---------- --- --- ------ ------ ---- -- ------<br>------- --- ------ ----- --- ---- ------- -- ---- --- --<br>------- money.,385555.7999999523,385554.59999990463,384965.25,384977.19999980927,384981.954,385583.644,,55,money.
Item 100,flow.Loop,2_1_1_1,2022-02-03T14:40:17.396Z,,,,,,,,,,,,,,,,,,,,,,,,,,,,,,,26067.15899990464,,completion,,,,,A,,,,,,,,,,,silence,,,,,385556.5,385554.59999990463,359470.745,359472.5,359487.441,385583.644,,,
Question 1,html.Screen,2_1_1_2,2022-02-03T14:40:21.995Z,,,,,,,,,,,,,,,,,,,,,,,,,,,,false,TRUE,,4570.155999952345,,response,,,,100,A,,,,,,FALSE,click #choice-2,,,,silence,,,,,390155.69999980927,390153.7999999523,385566.907,385556.59999990463,385583.644,390177.555,,,
Question 2,html.Screen,2_1_1_3,2022-02-03T14:40:25.007Z,,,,,,,,,,,,,,,,,,,,,,,,,,,,true,FALSE,,2987.445000000007,,response,,,,100,A,,,,,,FALSE,click #choice-2,,,,silence,,,,,393166.7999999523,393165,390144.155,390156.09999990463,390177.555,393168.123,,,
Item 100,flow.Sequence,2_1_1,2022-02-03T14:40:25.007Z,,,,,,,,,,,,,,,,,,,,,,,,,,,,,,,43683.976000000024,,completion,,,,,,,,,,,,,,,,,,,,,393167.2999999523,393165,349464.311,349469.5,349481.024,393168.123,,,
End of Practice,html.Page,2_1_2,2022-02-03T14:40:28.361Z,,,,,,,,,,,,,,,,,,,,,,,,,,,,,,,3352.476999904611,,form submission,,,,,,,,,,,,,,,,,,,,,396521.2999999523,396520.59999990463,393151.418,393167.59999990463,393168.123,396526.18,,,
Practice,flow.Sequence,2_1,2022-02-03T14:40:28.362Z,,,,,,,,,,,,,,,,,,,,,,,,,,,,,,,94040.18299990462,,completion,,,,,,,,,,,,,,,,,,,,,396521.89999985695,396520.59999990463,302413.889,302458.5,302480.417,396526.18,,,
Trap_instruction,html.Page,2_2_0,2022-02-03T14:40:47.530Z,,,,,,,,,,,,,,,,,,,,,,,,,,,,,,,19163.320000000007,,form submission,,,,,,,,,,,,,,,,,,,,,415690.19999980927,415689.5,396509.475,396522.19999980927,396526.18,415822.065,,,
trap_trial,html.Screen,2_2_1,2022-02-03T14:40:51.437Z,,,,,,,,,,,,,,,,,,,,,,,,,,,,true,1,,3773.134999809263,,response,,,,,,,,,,,1,click #choice-1,,,,,,,,,419597.59999990463,419595.19999980927,415688.425,415690.5,415822.065,419597.762,,,
end of trap trial,html.Page,2_2_2,2022-02-03T14:40:53.525Z,,,,,,,,,,,,,,,,,,,,,,,,,,,,,,,2086.8379999046447,,form submission,,,,,,,,,,,,,,,,,,,,,421685.2999999523,421684.59999990463,419581.057,419598,419597.762,421685.911,,,
Trap 1,flow.Sequence,2_2,2022-02-03T14:40:53.526Z,,,,,,,,,,,,,,,,,,,,,,,,,,,,,,,25158.41999990464,,completion,,,,,,,,,,,,,,,,,,,,,421685.7999999523,421684.59999990463,396509.475,396522.19999980927,396526.18,421685.911,,,
Standby,html.Page,2_3_0,2022-02-03T14:41:01.514Z,,,,,,,,,,,,,,,,,,,,,,,,,,,,,,,8002.698999999964,,timeout,,,,,,,,,,,,,,,,,,,,,429673.19999980927,429671.902,421669.208,421686.19999980927,421685.911,429688.61,,,
Holding screen,html.Screen,2_3_1_0_0,2022-02-03T14:41:08.514Z,,,,,,,,,,,,,,,,,,,,,,,,,,,,,,,6999.761999999988,,timeout,,,,,,,,,,,,,,,,,,,,,436673.5,436671.668,429671.902,429673.7999999523,429688.61,436688.372,,,
screen,html.Screen,2_3_1_0_1_0,2022-02-03T14:41:09.797Z,,,,,,,,,,,,,,,,,2,,,,,,,,,,,,,,1266.4279999523424,,response,,,,1,A,,,,,,Space,keypress(Space),,,,silence,,,,Two ---- ------ --- ------- ---------- ------- ----------<br>--- --------- --- ----------- ------- ----- ------- ---<br>--------- ---- -- --- ---- -- --------- -- ---- -------<br>-- --------- ------ --- ----- ------ ---- --- --------- --<br>------ - ---- -- --- ----------- ------- ---- ----- -----<br>--- -------- - ------ ---- -- ----- ---- --- --- -----------<br>-- -------,437956.19999980927,437954.7999999523,436671.668,436674,436688.372,437958.148,,0,Two
screen,html.Screen,2_3_1_0_1_1,2022-02-03T14:41:10.259Z,,,,,,,,,,,,,,,,,2,,,,,,,,,,,,,,458.6519999523298,,response,,,,1,A,,,,,,Space,keypress(Space),,,,silence,,,,--- days ------ --- ------- ---------- ------- ----------<br>--- --------- --- ----------- ------- ----- ------- ---<br>--------- ---- -- --- ---- -- --------- -- ---- -------<br>-- --------- ------ --- ----- ------ ---- --- --------- --<br>------ - ---- -- --- ----------- ------- ---- ----- -----<br>--- -------- - ------ ---- -- ----- ---- --- --- -----------<br>-- -------,438418,438416.7999999523,437941.443,437956.59999990463,437958.148,438425.989,,1,days
screen,html.Screen,2_3_1_0_1_2,2022-02-03T14:41:10.769Z,,,,,,,,,,,,,,,,,2,,,,,,,,,,,,,,500.8109999523149,,response,,,,1,A,,,,,,Space,keypress(Space),,,,silence,,,,"--- ---- later, --- ------- ---------- ------- ----------<br>--- --------- --- ----------- ------- ----- ------- ---<br>--------- ---- -- --- ---- -- --------- -- ---- -------<br>-- --------- ------ --- ----- ------ ---- --- --------- --<br>------ - ---- -- --- ----------- ------- ---- ----- -----<br>--- -------- - ------ ---- -- ----- ---- --- --- -----------<br>-- -------",438927.89999985695,438926.7999999523,438409.282,438418.39999985695,438425.989,438943.964,,2,"later,"
screen,html.Screen,2_3_1_0_1_3,2022-02-03T14:41:11.184Z,,,,,,,,,,,,,,,,,2,,,,,,,,,,,,,,398.33599995233817,,response,,,,1,A,,,,,,Space,keypress(Space),,,,silence,,,,--- ---- ------ the ------- ---------- ------- ----------<br>--- --------- --- ----------- ------- ----- ------- ---<br>--------- ---- -- --- ---- -- --------- -- ---- -------<br>-- --------- ------ --- ----- ------ ---- --- --------- --<br>------ - ---- -- --- ----------- ------- ---- ----- -----<br>--- -------- - ------ ---- -- ----- ---- --- --- -----------<br>-- -------,439343.5,439342.2999999523,438927.254,438928.19999980927,438943.964,439361.58,,3,the
screen,html.Screen,2_3_1_0_1_4,2022-02-03T14:41:11.601Z,,,,,,,,,,,,,,,,,2,,,,,,,,,,,,,,397.11999980924884,,response,,,,1,A,,,,,,Space,keypress(Space),,,,silence,,,,--- ---- ------ --- British ---------- ------- ----------<br>--- --------- --- ----------- ------- ----- ------- ---<br>--------- ---- -- --- ---- -- --------- -- ---- -------<br>-- --------- ------ --- ----- ------ ---- --- --------- --<br>------ - ---- -- --- ----------- ------- ---- ----- -----<br>--- -------- - ------ ---- -- ----- ---- --- --- -----------<br>-- -------,439759.89999985695,439758.69999980927,439344.87,439343.7999999523,439361.58,439779.269,,4,British
screen,html.Screen,2_3_1_0_1_5,2022-02-03T14:41:12.071Z,,,,,,,,,,,,,,,,,2,,,,,,,,,,,,,,449.73100000002887,,response,,,,1,A,,,,,,Space,keypress(Space),,,,silence,,,,--- ---- ------ --- ------- astronomer ------- ----------<br>--- --------- --- ----------- ------- ----- ------- ---<br>--------- ---- -- --- ---- -- --------- -- ---- -------<br>-- --------- ------ --- ----- ------ ---- --- --------- --<br>------ - ---- -- --- ----------- ------- ---- ----- -----<br>--- -------- - ------ ---- -- ----- ---- --- --- -----------<br>-- -------,440230.19999980927,440229,439762.286,439760.19999980927,439779.269,440246.977,,5,astronomer
screen,html.Screen,2_3_1_0_1_6,2022-02-03T14:41:12.513Z,,,,,,,,,,,,,,,,,2,,,,,,,,,,,,,,423.8229999523028,,response,,,,1,A,,,,,,Space,keypress(Space),,,,silence,,,,--- ---- ------ --- ------- ---------- Richard ----------<br>--- --------- --- ----------- ------- ----- ------- ---<br>--------- ---- -- --- ---- -- --------- -- ---- -------<br>-- --------- ------ --- ----- ------ ---- --- --------- --<br>------ - ---- -- --- ----------- ------- ---- ----- -----<br>--- -------- - ------ ---- -- ----- ---- --- --- -----------<br>-- -------,440672.19999980927,440670.7999999523,440230.271,440230.5,440246.977,440681.345,,6,Richard
screen,html.Screen,2_3_1_0_1_7,2022-02-03T14:41:13.047Z,,,,,,,,,,,,,,,,,2,,,,,,,,,,,,,,523.0549998569768,,response,,,,1,A,,,,,,Space,keypress(Space),,,,silence,,,,--- ---- ------ --- ------- ---------- ------- Carrington<br>--- --------- --- ----------- ------- ----- ------- ---<br>--------- ---- -- --- ---- -- --------- -- ---- -------<br>-- --------- ------ --- ----- ------ ---- --- --------- --<br>------ - ---- -- --- ----------- ------- ---- ----- -----<br>--- -------- - ------ ---- -- ----- ---- --- --- -----------<br>-- -------,441205.7999999523,441204.39999985695,440664.639,440672.5,440681.345,441215.923,,7,Carrington
screen,html.Screen,2_3_1_0_1_8,2022-02-03T14:41:13.490Z,,,,,,,,,,,,,,,,,2,,,,,,,,,,,,,,432.1769999046228,,response,,,,1,A,,,,,,Space,keypress(Space),,,,silence,,,,--- ---- ------ --- ------- ---------- ------- ----------<br>was --------- --- ----------- ------- ----- ------- ---<br>--------- ---- -- --- ---- -- --------- -- ---- -------<br>-- --------- ------ --- ----- ------ ---- --- --------- --<br>------ - ---- -- --- ----------- ------- ---- ----- -----<br>--- -------- - ------ ---- -- ----- ---- --- --- -----------<br>-- -------,441649.39999985695,441648.09999990463,441199.217,441206.09999990463,441215.923,441667.055,,8,was
screen,html.Screen,2_3_1_0_1_9,2022-02-03T14:41:13.975Z,,,,,,,,,,,,,,,,,2,,,,,,,,,,,,,,466.24499995232327,,response,,,,1,A,,,,,,Space,keypress(Space),,,,silence,,,,--- ---- ------ --- ------- ---------- ------- ----------<br>--- observing --- ----------- ------- ----- ------- ---<br>--------- ---- -- --- ---- -- --------- -- ---- -------<br>-- --------- ------ --- ----- ------ ---- --- --------- --<br>------ - ---- -- --- ----------- ------- ---- ----- -----<br>--- -------- - ------ ---- -- ----- ---- --- --- -----------<br>-- -------,442134.59999990463,442133.2999999523,441650.347,441649.69999980927,441667.055,442151.426,,9,observing
screen,html.Screen,2_3_1_0_1_10,2022-02-03T14:41:14.407Z,,,,,,,,,,,,,,,,,2,,,,,,,,,,,,,,413.07400000002235,,response,,,,1,A,,,,,,Space,keypress(Space),,,,silence,,,,--- ---- ------ --- ------- ---------- ------- ----------<br>--- --------- the ----------- ------- ----- ------- ---<br>--------- ---- -- --- ---- -- --------- -- ---- -------<br>-- --------- ------ --- ----- ------ ---- --- --------- --<br>------ - ---- -- --- ----------- ------- ---- ----- -----<br>--- -------- - ------ ---- -- ----- ---- --- --- -----------<br>-- -------,442565.89999985695,442564.5,442134.722,442135,442151.426,442569.173,,10,the
screen,html.Screen,2_3_1_0_1_11,2022-02-03T14:41:14.812Z,,,,,,,,,,,,,,,,,2,,,,,,,,,,,,,,400.2269998569391,,response,,,,1,A,,,,,,Space,keypress(Space),,,,silence,,,,--- ---- ------ --- ------- ---------- ------- ----------<br>--- --------- --- interesting ------- ----- ------- ---<br>--------- ---- -- --- ---- -- --------- -- ---- -------<br>-- --------- ------ --- ----- ------ ---- --- --------- --<br>------ - ---- -- --- ----------- ------- ---- ----- -----<br>--- -------- - ------ ---- -- ----- ---- --- --- -----------<br>-- -------,442970.89999985695,442969.39999985695,442552.467,442566.09999990463,442569.173,442986.81,,11,interesting
screen,html.Screen,2_3_1_0_1_12,2022-02-03T14:41:15.229Z,,,,,,,,,,,,,,,,,2,,,,,,,,,,,,,,400.4899999523186,,response,,,,1,A,,,,,,Space,keypress(Space),,,,silence,,,,--- ---- ------ --- ------- ---------- ------- ----------<br>--- --------- --- ----------- sunspot ----- ------- ---<br>--------- ---- -- --- ---- -- --------- -- ---- -------<br>-- --------- ------ --- ----- ------ ---- --- --------- --<br>------ - ---- -- --- ----------- ------- ---- ----- -----<br>--- -------- - ------ ---- -- ----- ---- --- --- -----------<br>-- -------,443388.5,443387.2999999523,442970.105,442971.19999980927,442986.81,443404.343,,12,sunspot
screen,html.Screen,2_3_1_0_1_13,2022-02-03T14:41:15.650Z,,,,,,,,,,,,,,,,,2,,,,,,,,,,,,,,404.1570000000065,,response,,,,1,A,,,,,,Space,keypress(Space),,,,silence,,,,--- ---- ------ --- ------- ---------- ------- ----------<br>--- --------- --- ----------- ------- group ------- ---<br>--------- ---- -- --- ---- -- --------- -- ---- -------<br>-- --------- ------ --- ----- ------ ---- --- --------- --<br>------ - ---- -- --- ----------- ------- ---- ----- -----<br>--- -------- - ------ ---- -- ----- ---- --- --- -----------<br>-- -------,443809.7999999523,443808.5,443387.64,443388.89999985695,443404.343,443822.128,,13,group
screen,html.Screen,2_3_1_0_1_14,2022-02-03T14:41:16.071Z,,,,,,,,,,,,,,,,,2,,,,,,,,,,,,,,406.4719999046065,,response,,,,1,A,,,,,,Space,keypress(Space),,,,silence,,,,--- ---- ------ --- ------- ---------- ------- ----------<br>--- --------- --- ----------- ------- ----- through ---<br>--------- ---- -- --- ---- -- --------- -- ---- -------<br>-- --------- ------ --- ----- ------ ---- --- --------- --<br>------ - ---- -- --- ----------- ------- ---- ----- -----<br>--- -------- - ------ ---- -- ----- ---- --- --- -----------<br>-- -------,444229.89999985695,444228.59999990463,443805.423,443810.09999990463,443822.128,444239.821,,14,through
screen,html.Screen,2_3_1_0_1_15,2022-02-03T14:41:16.463Z,,,,,,,,,,,,,,,,,2,,,,,,,,,,,,,,381.5789998569526,,response,,,,1,A,,,,,,Space,keypress(Space),,,,silence,,,,--- ---- ------ --- ------- ---------- ------- ----------<br>--- --------- --- ----------- ------- ----- ------- his<br>--------- ---- -- --- ---- -- --------- -- ---- -------<br>-- --------- ------ --- ----- ------ ---- --- --------- --<br>------ - ---- -- --- ----------- ------- ---- ----- -----<br>--- -------- - ------ ---- -- ----- ---- --- --- -----------<br>-- -------,444622.69999980927,444621.39999985695,444223.115,444230.2999999523,444239.821,444640.747,,15,his
screen,html.Screen,2_3_1_0_1_16,2022-02-03T14:41:16.938Z,,,,,,,,,,,,,,,,,2,,,,,,,,,,,,,,454.85299990465865,,response,,,,1,A,,,,,,Space,keypress(Space),,,,silence,,,,--- ---- ------ --- ------- ---------- ------- ----------<br>--- --------- --- ----------- ------- ----- ------- ---<br>telescope ---- -- --- ---- -- --------- -- ---- -------<br>-- --------- ------ --- ----- ------ ---- --- --------- --<br>------ - ---- -- --- ----------- ------- ---- ----- -----<br>--- -------- - ------ ---- -- ----- ---- --- --- -----------<br>-- -------,445097,445095.59999990463,444624.042,444623,444640.747,445108.576,,16,telescope
screen,html.Screen,2_3_1_0_1_17,2022-02-03T14:41:17.383Z,,,,,,,,,,,,,,,,,2,,,,,,,,,,,,,,431.92399999999907,,response,,,,1,A,,,,,,Space,keypress(Space),,,,silence,,,,--- ---- ------ --- ------- ---------- ------- ----------<br>--- --------- --- ----------- ------- ----- ------- ---<br>--------- when -- --- ---- -- --------- -- ---- -------<br>-- --------- ------ --- ----- ------ ---- --- --------- --<br>------ - ---- -- --- ----------- ------- ---- ----- -----<br>--- -------- - ------ ---- -- ----- ---- --- --- -----------<br>-- -------,445541.7999999523,445540.5,445091.869,445097.2999999523,445108.576,445559.594,,17,when
screen,html.Screen,2_3_1_0_1_18,2022-02-03T14:41:17.790Z,,,,,,,,,,,,,,,,,2,,,,,,,,,,,,,,388.10599980928237,,response,,,,1,A,,,,,,Space,keypress(Space),,,,silence,,,,--- ---- ------ --- ------- ---------- ------- ----------<br>--- --------- --- ----------- ------- ----- ------- ---<br>--------- ---- he --- ---- -- --------- -- ---- -------<br>-- --------- ------ --- ----- ------ ---- --- --------- --<br>------ - ---- -- --- ----------- ------- ---- ----- -----<br>--- -------- - ------ ---- -- ----- ---- --- --- -----------<br>-- -------,445948.7999999523,445947.69999980927,445542.889,445542.09999990463,445559.594,445960.528,,18,he
screen,html.Screen,2_3_1_0_1_19,2022-02-03T14:41:18.134Z,,,,,,,,,,,,,,,,,2,,,,,,,,,,,,,,331.27199995232513,,response,,,,1,A,,,,,,Space,keypress(Space),,,,silence,,,,--- ---- ------ --- ------- ---------- ------- ----------<br>--- --------- --- ----------- ------- ----- ------- ---<br>--------- ---- -- saw ---- -- --------- -- ---- -------<br>-- --------- ------ --- ----- ------ ---- --- --------- --<br>------ - ---- -- --- ----------- ------- ---- ----- -----<br>--- -------- - ------ ---- -- ----- ---- --- --- -----------<br>-- -------,446293.19999980927,446291.7999999523,445943.823,445949.09999990463,445960.528,446311.348,,19,saw
screen,html.Screen,2_3_1_0_1_20,2022-02-03T14:41:18.521Z,,,,,,,,,,,,,,,,,2,,,,,,,,,,,,,,367.25199990463443,,response,,,,1,A,,,,,,Space,keypress(Space),,,,silence,,,,--- ---- ------ --- ------- ---------- ------- ----------<br>--- --------- --- ----------- ------- ----- ------- ---<br>--------- ---- -- --- what -- --------- -- ---- -------<br>-- --------- ------ --- ----- ------ ---- --- --------- --<br>------ - ---- -- --- ----------- ------- ---- ----- -----<br>--- -------- - ------ ---- -- ----- ---- --- --- -----------<br>-- -------,446679.89999985695,446678.59999990463,446294.642,446293.5,446311.348,446695.717,,20,what
screen,html.Screen,2_3_1_0_1_21,2022-02-03T14:41:18.942Z,,,,,,,,,,,,,,,,,2,,,,,,,,,,,,,,404.2829999999958,,response,,,,1,A,,,,,,Space,keypress(Space),,,,silence,,,,--- ---- ------ --- ------- ---------- ------- ----------<br>--- --------- --- ----------- ------- ----- ------- ---<br>--------- ---- -- --- ---- he --------- -- ---- -------<br>-- --------- ------ --- ----- ------ ---- --- --------- --<br>------ - ---- -- --- ----------- ------- ---- ----- -----<br>--- -------- - ------ ---- -- ----- ---- --- --- -----------<br>-- -------,447101.19999980927,447100,446679.004,446680.2999999523,446695.717,447113.148,,21,he
screen,html.Screen,2_3_1_0_1_22,2022-02-03T14:41:19.368Z,,,,,,,,,,,,,,,,,2,,,,,,,,,,,,,,412.75199985696236,,response,,,,1,A,,,,,,Space,keypress(Space),,,,silence,,,,--- ---- ------ --- ------- ---------- ------- ----------<br>--- --------- --- ----------- ------- ----- ------- ---<br>--------- ---- -- --- ---- -- described -- ---- -------<br>-- --------- ------ --- ----- ------ ---- --- --------- --<br>------ - ---- -- --- ----------- ------- ---- ----- -----<br>--- -------- - ------ ---- -- ----- ---- --- --- -----------<br>-- -------,447527.19999980927,447525.89999985695,447096.446,447101.5,447113.148,447547.664,,22,described
screen,html.Screen,2_3_1_0_1_23,2022-02-03T14:41:19.769Z,,,,,,,,,,,,,,,,,2,,,,,,,,,,,,,,379.83600000001024,,response,,,,1,A,,,,,,Space,keypress(Space),,,,silence,,,,--- ---- ------ --- ------- ---------- ------- ----------<br>--- --------- --- ----------- ------- ----- ------- ---<br>--------- ---- -- --- ---- -- --------- as ---- -------<br>-- --------- ------ --- ----- ------ ---- --- --------- --<br>------ - ---- -- --- ----------- ------- ---- ----- -----<br>--- -------- - ------ ---- -- ----- ---- --- --- -----------<br>-- -------,447928.69999980927,447927.5,447530.959,447529.59999990463,447547.664,447931.972,,23,as
screen,html.Screen,2_3_1_0_1_24,2022-02-03T14:41:20.161Z,,,,,,,,,,,,,,,,,2,,,,,,,,,,,,,,386.82799995230744,,response,,,,1,A,,,,,,Space,keypress(Space),,,,silence,,,,"--- ---- ------ --- ------- ---------- ------- ----------<br>--- --------- --- ----------- ------- ----- ------- ---<br>--------- ---- -- --- ---- -- --------- -- ""two -------<br>-- --------- ------ --- ----- ------ ---- --- --------- --<br>------ - ---- -- --- ----------- ------- ---- ----- -----<br>--- -------- - ------ ---- -- ----- ---- --- --- -----------<br>-- -------",448320,448318.7999999523,447915.264,447929.09999990463,447931.972,448332.861,,24,"""two"
screen,html.Screen,2_3_1_0_1_25,2022-02-03T14:41:20.633Z,,,,,,,,,,,,,,,,,2,,,,,,,,,,,,,,458.03899985697353,,response,,,,1,A,,,,,,Space,keypress(Space),,,,silence,,,,--- ---- ------ --- ------- ---------- ------- ----------<br>--- --------- --- ----------- ------- ----- ------- ---<br>--------- ---- -- --- ---- -- --------- -- ---- patches<br>-- --------- ------ --- ----- ------ ---- --- --------- --<br>------ - ---- -- --- ----------- ------- ---- ----- -----<br>--- -------- - ------ ---- -- ----- ---- --- --- -----------<br>-- -------,448792.19999980927,448790.89999985695,448316.156,448320.39999985695,448332.861,448817.436,,25,patches
screen,html.Screen,2_3_1_0_1_26,2022-02-03T14:41:21.078Z,,,,,,,,,,,,,,,,,2,,,,,,,,,,,,,,418.3639999523293,,response,,,,1,A,,,,,,Space,keypress(Space),,,,silence,,,,--- ---- ------ --- ------- ---------- ------- ----------<br>--- --------- --- ----------- ------- ----- ------- ---<br>--------- ---- -- --- ---- -- --------- -- ---- -------<br>of --------- ------ --- ----- ------ ---- --- --------- --<br>------ - ---- -- --- ----------- ------- ---- ----- -----<br>--- -------- - ------ ---- -- ----- ---- --- --- -----------<br>-- -------,449237,449235.7999999523,448800.724,448792.5,448817.436,449251.756,,26,of
screen,html.Screen,2_3_1_0_1_27,2022-02-03T14:41:21.470Z,,,,,,,,,,,,,,,,,2,,,,,,,,,,,,,,376.3439999046386,,response,,,,1,A,,,,,,Space,keypress(Space),,,,silence,,,,--- ---- ------ --- ------- ---------- ------- ----------<br>--- --------- --- ----------- ------- ----- ------- ---<br>--------- ---- -- --- ---- -- --------- -- ---- -------<br>-- intensely ------ --- ----- ------ ---- --- --------- --<br>------ - ---- -- --- ----------- ------- ---- ----- -----<br>--- -------- - ------ ---- -- ----- ---- --- --- -----------<br>-- -------,449629.39999985695,449628.09999990463,449235.05,449237.39999985695,449251.756,449635.974,,27,intensely
screen,html.Screen,2_3_1_0_1_28,2022-02-03T14:41:21.871Z,,,,,,,,,,,,,,,,,2,,,,,,,,,,,,,,392.82599995232886,,response,,,,1,A,,,,,,Space,keypress(Space),,,,silence,,,,--- ---- ------ --- ------- ---------- ------- ----------<br>--- --------- --- ----------- ------- ----- ------- ---<br>--------- ---- -- --- ---- -- --------- -- ---- -------<br>-- --------- bright --- ----- ------ ---- --- --------- --<br>------ - ---- -- --- ----------- ------- ---- ----- -----<br>--- -------- - ------ ---- -- ----- ---- --- --- -----------<br>-- -------,450030,450028.7999999523,449619.269,449629.7999999523,449635.974,450036.956,,28,bright
screen,html.Screen,2_3_1_0_1_29,2022-02-03T14:41:22.361Z,,,,,,,,,,,,,,,,,2,,,,,,,,,,,,,,482.0439999999944,,response,,,,1,A,,,,,,Space,keypress(Space),,,,silence,,,,--- ---- ------ --- ------- ---------- ------- ----------<br>--- --------- --- ----------- ------- ----- ------- ---<br>--------- ---- -- --- ---- -- --------- -- ---- -------<br>-- --------- ------ and ----- ------ ---- --- --------- --<br>------ - ---- -- --- ----------- ------- ---- ----- -----<br>--- -------- - ------ ---- -- ----- ---- --- --- -----------<br>-- -------,450520.59999990463,450519,450020.25,450030.39999985695,450036.956,450538.172,,29,and
screen,html.Screen,2_3_1_0_1_30,2022-02-03T14:41:22.771Z,,,,,,,,,,,,,,,,,2,,,,,,,,,,,,,,391.22799985692836,,response,,,,1,A,,,,,,Space,keypress(Space),,,,silence,,,,--- ---- ------ --- ------- ---------- ------- ----------<br>--- --------- --- ----------- ------- ----- ------- ---<br>--------- ---- -- --- ---- -- --------- -- ---- -------<br>-- --------- ------ --- white ------ ---- --- --------- --<br>------ - ---- -- --- ----------- ------- ---- ----- -----<br>--- -------- - ------ ---- -- ----- ---- --- --- -----------<br>-- -------,450930.69999980927,450929.39999985695,450521.465,450520.89999985695,450538.172,450939.097,,30,white
screen,html.Screen,2_3_1_0_1_31,2022-02-03T14:41:23.228Z,,,,,,,,,,,,,,,,,2,,,,,,,,,,,,,,447.1029998092563,,response,,,,1,A,,,,,,Space,keypress(Space),,,,silence,,,,"--- ---- ------ --- ------- ---------- ------- ----------<br>--- --------- --- ----------- ------- ----- ------- ---<br>--------- ---- -- --- ---- -- --------- -- ---- -------<br>-- --------- ------ --- ----- light"" ---- --- --------- --<br>------ - ---- -- --- ----------- ------- ---- ----- -----<br>--- -------- - ------ ---- -- ----- ---- --- --- -----------<br>-- -------",451387.5,451386.19999980927,450922.392,450931,450939.097,451390.141,,31,"light"""
screen,html.Screen,2_3_1_0_1_32,2022-02-03T14:41:23.675Z,,,,,,,,,,,,,,,,,2,,,,,,,,,,,,,,442.7589998569456,,response,,,,1,A,,,,,,Space,keypress(Space),,,,silence,,,,--- ---- ------ --- ------- ---------- ------- ----------<br>--- --------- --- ----------- ------- ----- ------- ---<br>--------- ---- -- --- ---- -- --------- -- ---- -------<br>-- --------- ------ --- ----- ------ over --- --------- --<br>------ - ---- -- --- ----------- ------- ---- ----- -----<br>--- -------- - ------ ---- -- ----- ---- --- --- -----------<br>-- -------,451834,451832.89999985695,451373.436,451387.7999999523,451390.141,451841.243,,32,over
screen,html.Screen,2_3_1_0_1_33,2022-02-03T14:41:24.102Z,,,,,,,,,,,,,,,,,2,,,,,,,,,,,,,,418.9569998092484,,response,,,,1,A,,,,,,Space,keypress(Space),,,,silence,,,,--- ---- ------ --- ------- ---------- ------- ----------<br>--- --------- --- ----------- ------- ----- ------- ---<br>--------- ---- -- --- ---- -- --------- -- ---- -------<br>-- --------- ------ --- ----- ------ ---- the --------- --<br>------ - ---- -- --- ----------- ------- ---- ----- -----<br>--- -------- - ------ ---- -- ----- ---- --- --- -----------<br>-- -------,452261.59999990463,452260.19999980927,451824.537,451834.39999985695,451841.243,452275.586,,33,the
screen,html.Screen,2_3_1_0_1_34,2022-02-03T14:41:24.579Z,,,,,,,,,,,,,,,,,2,,,,,,,,,,,,,,461.0139999046223,,response,,,,1,A,,,,,,Space,keypress(Space),,,,silence,,,,--- ---- ------ --- ------- ---------- ------- ----------<br>--- --------- --- ----------- ------- ----- ------- ---<br>--------- ---- -- --- ---- -- --------- -- ---- -------<br>-- --------- ------ --- ----- ------ ---- --- sunspots. --<br>------ - ---- -- --- ----------- ------- ---- ----- -----<br>--- -------- - ------ ---- -- ----- ---- --- --- -----------<br>-- -------,452737.89999985695,452736.59999990463,452258.881,452261.89999985695,452275.586,452743.267,,34,sunspots.
screen,html.Screen,2_3_1_0_1_35,2022-02-03T14:41:25.027Z,,,,,,,,,,,,,,,,,2,,,,,,,,,,,,,,441.73300000000745,,response,,,,1,A,,,,,,Space,keypress(Space),,,,silence,,,,--- ---- ------ --- ------- ---------- ------- ----------<br>--- --------- --- ----------- ------- ----- ------- ---<br>--------- ---- -- --- ---- -- --------- -- ---- -------<br>-- --------- ------ --- ----- ------ ---- --- --------- He<br>------ - ---- -- --- ----------- ------- ---- ----- -----<br>--- -------- - ------ ---- -- ----- ---- --- --- -----------<br>-- -------,453186.19999980927,453185,452726.564,452738.2999999523,452743.267,453194.476,,35,He
screen,html.Screen,2_3_1_0_1_36,2022-02-03T14:41:25.551Z,,,,,,,,,,,,,,,,,2,,,,,,,,,,,,,,514.7239998092409,,response,,,,1,A,,,,,,Space,keypress(Space),,,,silence,,,,--- ---- ------ --- ------- ---------- ------- ----------<br>--- --------- --- ----------- ------- ----- ------- ---<br>--------- ---- -- --- ---- -- --------- -- ---- -------<br>-- --------- ------ --- ----- ------ ---- --- --------- --<br>jotted - ---- -- --- ----------- ------- ---- ----- -----<br>--- -------- - ------ ---- -- ----- ---- --- --- -----------<br>-- -------,453710.69999980927,453709.19999980927,453177.77,453186.59999990463,453194.476,453712.425,,36,jotted
screen,html.Screen,2_3_1_0_1_37,2022-02-03T14:41:26.038Z,,,,,,,,,,,,,,,,,2,,,,,,,,,,,,,,483.4749998569605,,response,,,,1,A,,,,,,Space,keypress(Space),,,,silence,,,,--- ---- ------ --- ------- ---------- ------- ----------<br>--- --------- --- ----------- ------- ----- ------- ---<br>--------- ---- -- --- ---- -- --------- -- ---- -------<br>-- --------- ------ --- ----- ------ ---- --- --------- --<br>------ a ---- -- --- ----------- ------- ---- ----- -----<br>--- -------- - ------ ---- -- ----- ---- --- --- -----------<br>-- -------,454197.19999980927,454195.89999985695,453695.717,453711,453712.425,454213.555,,37,a
