sender,sender_type,sender_id,timestamp,meta,,Blues,Classical,Country,Dance,Electronic,Folk,Gospel,Hip-Hop,Jazz,Latin,Musical/Film,New-age,Pop,Prolific_id,Provo_ID,R&B,Rap,Reggae,Religious,Rock,Soul,Swing,Traditional,age,artist_name,correct,correctResponse,distraction,duration,education,ended_on,familiarity,gender,headphone_check_performance,item,list,music_frequency,offensiveness,pleasantness,position_correct,preference,response,response_action,snippet_file,song_name,song_rating,sound,stimulus_1,stimulus_2,stimulus_3,text,time_commit,time_end,time_render,time_run,time_show,time_switch,url,word,word_ID
Prolific ID,html.Form,0,2022-02-01T14:29:23.210Z,"{""labjs_version"":""20.2.2"",""labjs_build"":{""flavor"":""production"",""commit"":""a25486e0c714a0ae2ce03ff94b7bb6896854dcfa""},""location"":""https://run.pavlovia.org/mvasilev/prolific2_music_f/"",""userAgent"":""Mozilla/5.0 (X11; CrOS x86_64 14324.72.0) AppleWebKit/537.36 (KHTML, like Gecko) Chrome/97.0.4692.91 Safari/537.36"",""platform"":""Linux x86_64"",""language"":""en-GB"",""locale"":""en-GB"",""timeZone"":""Europe/London"",""timezoneOffset"":0,""screen_width"":1536,""screen_height"":864,""scroll_width"":1536,""scroll_height"":816,""window_innerWidth"":1536,""window_innerHeight"":864,""devicePixelRatio"":1.25}",,,,,,,,,,,,,,,609478fa9e5b4d075246cfaf,,,,,,,,,,,,,,,11922.179000000746,,form submission,,,,,,,,,,,,,,,,,,,,,30987.800000000745,30986.300000000745,18964.179,18978.700000001118,19064.121,31058.325,{},,
Introduction,html.Screen,1_0,2022-02-01T14:29:32.219Z,,,,,,,,,,,,,,,,,,,,,,,,,,,,,,,8923.075000000372,,response,,,,,,,,,,,continue,click button,,,,,,,,,39996.70000000112,39981.40000000037,30958.383,30988.800000000745,31058.325,40003.375,,,
Volume calibration,html.Screen,1_1,2022-02-01T14:29:40.149Z,,,,,,,,,,,,,,,,,,,,,,,,,,,,,,,7906.925000000745,,response,,,,,,,,,,,continue,click button,,,,,,,,,47926.20000000112,47910.300000000745,39970.061,39997,40003.375,47932.66,,,
Task instructions,html.Screen,1_2,2022-02-01T14:29:44.985Z,,,,,,,,,,,,,,,,,,,,,,,,,,,,,,,4826.640000000742,,response,,,,,,,,,,,continue,click button,,,,,,,,,52762.90000000037,52759.300000000745,47916.003,47926.5,47932.66,52763.4,,,
Sounds,html.Screen,1_3_0_0,2022-02-01T14:29:49.227Z,,,,,,,,,,,,,,,,,,,,,,,,,,,,,,,4247.862000000001,,timeout,,,,,,,,,3,,,,,,,,I,O,S,,57004.09999999963,56994.605,52746.743,52765.09999999963,52763.4,57011.262,,,
Judgement,html.Screen,1_3_0_1,2022-02-01T14:29:50.038Z,,,,,,,,,,,,,,,,,,,,,,,,,,,,true,3,,797.1380000003701,,response,,,,,,,,,3,,3,click #choice-3,,,,,I,O,S,,57815.300000000745,57808.40000000037,56994.605,57004.90000000037,57011.262,57827.696,,,
Trial,flow.Sequence,1_3_0,2022-02-01T14:29:50.040Z,,,,,,,,,,,,,,,,,,,,,,,,,,,,,,,5045.000000000371,,completion,,,,,,,,,3,,,,,,,,I,O,S,,57817.90000000037,57808.40000000037,52746.743,52764.800000000745,52763.4,57827.696,,,
Sounds,html.Screen,1_3_1_0,2022-02-01T14:29:54.284Z,,,,,,,,,,,,,,,,,,,,,,,,,,,,,,,4247.551999999996,,timeout,,,,,,,,,1,,,,,,,,S,I,O,,62061.90000000037,62058.591,57811.039,57819.20000000112,57827.696,62075.248,,,
Judgement,html.Screen,1_3_1_1,2022-02-01T14:29:54.908Z,,,,,,,,,,,,,,,,,,,,,,,,,,,,true,1,,605.2520000000004,,response,,,,,,,,,1,,1,click #choice-1,,,,,S,I,O,,62685.70000000112,62680.5,62058.591,62063,62075.248,62691.808,,,
Trial,flow.Sequence,1_3_1,2022-02-01T14:29:54.909Z,,,,,,,,,,,,,,,,,,,,,,,,,,,,,,,4852.803999999996,,completion,,,,,,,,,1,,,,,,,,S,I,O,,62686.59999999963,62680.5,57811.039,57818.5,57827.696,62691.808,,,
Sounds,html.Screen,1_3_2_0,2022-02-01T14:29:59.148Z,,,,,,,,,,,,,,,,,,,,,,,,,,,,,,,4247.575000000004,,timeout,,,,,,,,,3,,,,,,,,O,I,S,,66925.70000000112,66922.726,62675.151,62687.300000000745,62691.808,66939.383,,,
Judgement,html.Screen,1_3_2_1,2022-02-01T14:29:59.627Z,,,,,,,,,,,,,,,,,,,,,,,,,,,,true,3,,461.9170000007434,,response,,,,,,,,,3,,3,click #choice-3,,,,,O,I,S,,67404.90000000037,67401.30000000075,66922.726,66926.5,66939.383,67422.698,,,
Trial,flow.Sequence,1_3_2,2022-02-01T14:29:59.628Z,,,,,,,,,,,,,,,,,,,,,,,,,,,,,,,4709.492000000748,,completion,,,,,,,,,3,,,,,,,,O,I,S,,67405.59999999963,67401.30000000075,62675.151,62687.09999999963,62691.808,67422.698,,,
Sounds,html.Screen,1_3_3_0,2022-02-01T14:30:03.879Z,,,,,,,,,,,,,,,,,,,,,,,,,,,,,,,4247.792999999991,,timeout,,,,,,,,,1,,,,,,,,S,O,I,,71657.09999999963,71653.834,67406.041,67406.09999999963,67422.698,71670.491,,,
Judgement,html.Screen,1_3_3_1,2022-02-01T14:30:04.413Z,,,,,,,,,,,,,,,,,,,,,,,,,,,,true,1,,515.8090000007505,,response,,,,,,,,,1,,1,click #choice-1,,,,,S,O,I,,72190.80000000075,72186.30000000075,71653.834,71657.5,71670.491,72203.528,,,
Trial,flow.Sequence,1_3_3,2022-02-01T14:30:04.414Z,,,,,,,,,,,,,,,,,,,,,,,,,,,,,,,4763.602000000741,,completion,,,,,,,,,1,,,,,,,,S,O,I,,72191.90000000037,72186.30000000075,67406.041,67405.90000000037,67422.698,72203.528,,,
Sounds,html.Screen,1_3_4_0,2022-02-01T14:30:08.661Z,,,,,,,,,,,,,,,,,,,,,,,,,,,,,,,4247.572999999989,,timeout,,,,,,,,,2,,,,,,,,O,S,I,,76438.20000000112,76434.444,72186.871,72192.59999999963,72203.528,76451.101,,,
Judgement,html.Screen,1_3_4_1,2022-02-01T14:30:09.108Z,,,,,,,,,,,,,,,,,,,,,,,,,,,,true,2,,431.19900000074995,,response,,,,,,,,,2,,2,click #choice-2,,,,,O,S,I,,76885.59999999963,76882.30000000075,76434.444,76439.09999999963,76451.101,76901.089,,,
Trial,flow.Sequence,1_3_4,2022-02-01T14:30:09.109Z,,,,,,,,,,,,,,,,,,,,,,,,,,,,,,,4678.772000000739,,completion,,,,,,,,,2,,,,,,,,O,S,I,,76886.30000000075,76882.30000000075,72186.871,72192.40000000037,72203.528,76901.089,,,
Sounds,html.Screen,1_3_5_0,2022-02-01T14:30:13.356Z,,,,,,,,,,,,,,,,,,,,,,,,,,,,,,,4247.551999999996,,timeout,,,,,,,,,2,,,,,,,,I,S,O,,81133.59999999963,81131.984,76884.432,76886.90000000037,76901.089,81148.641,,,
Judgement,html.Screen,1_3_5_1,2022-02-01T14:30:13.998Z,,,,,,,,,,,,,,,,,,,,,,,,,,,,true,2,,622.6590000007418,,response,,,,,,,,,2,,2,click #choice-2,,,,,I,S,O,,81775.80000000075,81771.30000000075,81131.984,81133.80000000075,81148.641,81798.529,,,
Trial,flow.Sequence,1_3_5,2022-02-01T14:30:14.000Z,,,,,,,,,,,,,,,,,,,,,,,,,,,,,,,4870.211000000738,,completion,,,,,,,,,2,,,,,,,,I,S,O,,81777.20000000112,81771.30000000075,76884.432,76886.80000000075,76901.089,81798.529,,,
Task,flow.Loop,1_3,2022-02-01T14:30:14.013Z,,,,,,,,,,,,,,,,,,,,,,,,,,,,,,,29007.900000000744,,completion,,,1,,,,,,,,,,,,,,,,,,81790.80000000075,81771.30000000075,52746.743,52764.5,52763.4,81798.529,,,
Trap,html.Screen,1_4,2022-02-01T14:30:14.016Z,,,,,,,,,,,,,,,,,,,,,,,,,,,,,,,NaN,,skipped,,,,,,,,,,,,,,,,,,,,,81794.09999999963,81771.30000000075,,81793.70000000112,,81798.529,,,
Thanks,html.Screen,1_5,2022-02-01T14:30:20.486Z,,,,,,,,,,,,,,,,,,,,,,,,,,,,,,,6460.77100000075,,response,,,,,,,,,,,continue,click button,,,,,,,,,88264.09999999963,88259.30000000075,81765.215,81794.40000000037,81798.529,91143.525,,,
Headphone screening,flow.Sequence,1,2022-02-01T14:30:20.487Z,,,,,,,,,,,,,,,,,,,,,,,,,,,,,,,57200.97500000075,,completion,,,,,,,,,,,,,,,,,,,,,88264.90000000037,88259.30000000075,30958.383,30988.599999999627,31058.325,91143.525,,,
Instructions,html.Page,2_0,2022-02-01T14:30:52.880Z,,,,,,,,,,,,,,,,,,,,,,,,,,,,,,,29512.475000000006,,form submission,,,,,,,,,,,,,,,,,,,,,120658,120656,91126.868,91143.80000000075,91143.525,120660.798,,,
Holding screen,html.Screen,2_1_0_0,2022-02-01T14:31:02.865Z,,,,,,,,,,,,,,,,,,,,,,,,,,,,,,,10045.54800000001,,timeout,,,,,,,,,,,,,,,,,,,,,130643,130639.718,120644.141,120659.30000000075,120660.798,130706.346,,,
screen,html.Screen,2_1_0_1_0,2022-02-01T14:31:03.911Z,,,,,,,,,,,,,,,,,53,,,,,,,,,,,,,,971.8540000011126,,response,,,,99,,,,,,,Space,keypress(Space),,,,,,,,When -- ----- -- ------ - ------- --- ----------<br>------------- ------ ------ ---- ---- ------- ----- -- ----<br>-------- ------- -- ---------- --- - --- ----- ----- ----<br>---- --- --- ----- --- ---- ---- ------- ----- ---- -------<br>--- --- -- ----- -- --- ---- -- --- ---- -- ------ ------<br>--- ----- -- ----,131688.80000000075,131678.20000000112,130639.718,130644.20000000112,130706.346,131705.829,,0,When
screen,html.Screen,2_1_0_1_1,2022-02-01T14:31:04.378Z,,,,,,,,,,,,,,,,,53,,,,,,,,,,,,,,445.3710000011197,,response,,,,99,,,,,,,Space,keypress(Space),,,,,,,,---- it ----- -- ------ - ------- --- ----------<br>------------- ------ ------ ---- ---- ------- ----- -- ----<br>-------- ------- -- ---------- --- - --- ----- ----- ----<br>---- --- --- ----- --- ---- ---- ------- ----- ---- -------<br>--- --- -- ----- -- --- ---- -- --- ---- -- ------ ------<br>--- ----- -- ----,132155.20000000112,132151.20000000112,131689.172,131689.70000000112,131705.829,132172.284,,1,it
screen,html.Screen,2_1_0_1_2,2022-02-01T14:31:04.798Z,,,,,,,,,,,,,,,,,53,,,,,,,,,,,,,,397.01600000073086,,response,,,,99,,,,,,,Space,keypress(Space),,,,,,,,---- -- comes -- ------ - ------- --- ----------<br>------------- ------ ------ ---- ---- ------- ----- -- ----<br>-------- ------- -- ---------- --- - --- ----- ----- ----<br>---- --- --- ----- --- ---- ---- ------- ----- ---- -------<br>--- --- -- ----- -- --- ---- -- --- ---- -- ------ ------<br>--- ----- -- ----,132575.40000000037,132569.30000000075,132155.627,132156.20000000112,132172.284,132588.738,,2,comes
screen,html.Screen,2_1_0_1_3,2022-02-01T14:31:05.189Z,,,,,,,,,,,,,,,,,53,,,,,,,,,,,,,,373.4620000011055,,response,,,,99,,,,,,,Space,keypress(Space),,,,,,,,---- -- ----- to ------ - ------- --- ----------<br>------------- ------ ------ ---- ---- ------- ----- -- ----<br>-------- ------- -- ---------- --- - --- ----- ----- ----<br>---- --- --- ----- --- ---- ---- ------- ----- ---- -------<br>--- --- -- ----- -- --- ---- -- --- ---- -- ------ ------<br>--- ----- -- ----,132967,132962.20000000112,132572.081,132575.90000000037,132588.738,132971.88,,3,to
screen,html.Screen,2_1_0_1_4,2022-02-01T14:31:05.607Z,,,,,,,,,,,,,,,,,53,,,,,,,,,,,,,,409.2199999996228,,response,,,,99,,,,,,,Space,keypress(Space),,,,,,,,---- -- ----- -- having - ------- --- ----------<br>------------- ------ ------ ---- ---- ------- ----- -- ----<br>-------- ------- -- ---------- --- - --- ----- ----- ----<br>---- --- --- ----- --- ---- ---- ------- ----- ---- -------<br>--- --- -- ----- -- --- ---- -- --- ---- -- ------ ------<br>--- ----- -- ----,133384.59999999963,133381.09999999963,132955.223,132967.59999999963,132971.88,133388.326,,4,having
screen,html.Screen,2_1_0_1_5,2022-02-01T14:31:06.023Z,,,,,,,,,,,,,,,,,53,,,,,,,,,,,,,,408.67399999999907,,response,,,,99,,,,,,,Space,keypress(Space),,,,,,,,---- -- ----- -- ------ a ------- --- ----------<br>------------- ------ ------ ---- ---- ------- ----- -- ----<br>-------- ------- -- ---------- --- - --- ----- ----- ----<br>---- --- --- ----- --- ---- ---- ------- ----- ---- -------<br>--- --- -- ----- -- --- ---- -- --- ---- -- ------ ------<br>--- ----- -- ----,133800.09999999963,133797,133371.669,133385,133388.326,133804.772,,5,a
screen,html.Screen,2_1_0_1_6,2022-02-01T14:31:06.454Z,,,,,,,,,,,,,,,,,53,,,,,,,,,,,,,,423.9280000011204,,response,,,,99,,,,,,,Space,keypress(Space),,,,,,,,---- -- ----- -- ------ - lasting --- ----------<br>------------- ------ ------ ---- ---- ------- ----- -- ----<br>-------- ------- -- ---------- --- - --- ----- ----- ----<br>---- --- --- ----- --- ---- ---- ------- ----- ---- -------<br>--- --- -- ----- -- --- ---- -- --- ---- -- ------ ------<br>--- ----- -- ----,134232,134228.70000000112,133788.115,133800.5,133804.772,134237.876,,6,lasting
screen,html.Screen,2_1_0_1_7,2022-02-01T14:31:06.864Z,,,,,,,,,,,,,,,,,53,,,,,,,,,,,,,,399.92400000075577,,response,,,,99,,,,,,,Space,keypress(Space),,,,,,,,---- -- ----- -- ------ - ------- and ----------<br>------------- ------ ------ ---- ---- ------- ----- -- ----<br>-------- ------- -- ---------- --- - --- ----- ----- ----<br>---- --- --- ----- --- ---- ---- ------- ----- ---- -------<br>--- --- -- ----- -- --- ---- -- --- ---- -- ------ ------<br>--- ----- -- ----,134642,134637.80000000075,134221.219,134232.40000000037,134237.876,134654.325,,7,and
screen,html.Screen,2_1_0_1_8,2022-02-01T14:31:07.299Z,,,,,,,,,,,,,,,,,53,,,,,,,,,,,,,,395.27499999961583,,response,,,,99,,,,,,,Space,keypress(Space),,,,,,,,---- -- ----- -- ------ - ------- --- fulfilling<br>------------- ------ ------ ---- ---- ------- ----- -- ----<br>-------- ------- -- ---------- --- - --- ----- ----- ----<br>---- --- --- ----- --- ---- ---- ------- ----- ---- -------<br>--- --- -- ----- -- --- ---- -- --- ---- -- ------ ------<br>--- ----- -- ----,135077.09999999963,135049.59999999963,134637.668,134643.09999999963,134654.325,135087.441,,8,fulfilling
screen,html.Screen,2_1_0_1_9,2022-02-01T14:31:07.727Z,,,,,,,,,,,,,,,,,53,,,,,,,,,,,,,,413.65899999963585,,response,,,,99,,,,,,,Space,keypress(Space),,,,,,,,"---- -- ----- -- ------ - ------- --- ----------<br>relationship, ------ ------ ---- ---- ------- ----- -- ----<br>-------- ------- -- ---------- --- - --- ----- ----- ----<br>---- --- --- ----- --- ---- ---- ------- ----- ---- -------<br>--- --- -- ----- -- --- ---- -- --- ---- -- ------ ------<br>--- ----- -- ----",135504.5,135501.09999999963,135070.784,135077.5,135087.441,135520.54,,9,"relationship,"
screen,html.Screen,2_1_0_1_10,2022-02-01T14:31:08.115Z,,,,,,,,,,,,,,,,,53,,,,,,,,,,,,,,369.45999999999185,,response,,,,99,,,,,,,Space,keypress(Space),,,,,,,,---- -- ----- -- ------ - ------- --- ----------<br>------------- common ------ ---- ---- ------- ----- -- ----<br>-------- ------- -- ---------- --- - --- ----- ----- ----<br>---- --- --- ----- --- ---- ---- ------- ----- ---- -------<br>--- --- -- ----- -- --- ---- -- --- ---- -- ------ ------<br>--- ----- -- ----,135892.20000000112,135890,135503.883,135505.20000000112,135520.54,135903.677,,10,common
screen,html.Screen,2_1_0_1_11,2022-02-01T14:31:08.595Z,,,,,,,,,,,,,,,,,53,,,,,,,,,,,,,,462.2230000003765,,response,,,,99,,,,,,,Space,keypress(Space),,,,,,,,---- -- ----- -- ------ - ------- --- ----------<br>------------- ------ wisdom ---- ---- ------- ----- -- ----<br>-------- ------- -- ---------- --- - --- ----- ----- ----<br>---- --- --- ----- --- ---- ---- ------- ----- ---- -------<br>--- --- -- ----- -- --- ---- -- --- ---- -- ------ ------<br>--- ----- -- ----,136372.09999999963,136365.90000000037,135887.02,135892.59999999963,135903.677,136386.753,,11,wisdom
screen,html.Screen,2_1_0_1_12,2022-02-01T14:31:09.353Z,,,,,,,,,,,,,,,,,53,,,,,,,,,,,,,,740.3469999996305,,response,,,,99,,,,,,,Space,keypress(Space),,,,,,,,---- -- ----- -- ------ - ------- --- ----------<br>------------- ------ ------ says ---- ------- ----- -- ----<br>-------- ------- -- ---------- --- - --- ----- ----- ----<br>---- --- --- ----- --- ---- ---- ------- ----- ---- -------<br>--- --- -- ----- -- --- ---- -- --- ---- -- ------ ------<br>--- ----- -- ----,137130.90000000037,137127.09999999963,136370.096,136373,136386.753,137136.345,,12,says
screen,html.Screen,2_1_0_1_13,2022-02-01T14:31:09.737Z,,,,,,,,,,,,,,,,,53,,,,,,,,,,,,,,372.05500000037136,,response,,,,99,,,,,,,Space,keypress(Space),,,,,,,,---- -- ----- -- ------ - ------- --- ----------<br>------------- ------ ------ ---- that ------- ----- -- ----<br>-------- ------- -- ---------- --- - --- ----- ----- ----<br>---- --- --- ----- --- ---- ---- ------- ----- ---- -------<br>--- --- -- ----- -- --- ---- -- --- ---- -- ------ ------<br>--- ----- -- ----,137515,137508.40000000037,137119.688,137132,137136.345,137519.511,,13,that
screen,html.Screen,2_1_0_1_14,2022-02-01T14:31:10.111Z,,,,,,,,,,,,,,,,,53,,,,,,,,,,,,,,362.3890000003739,,response,,,,99,,,,,,,Space,keypress(Space),,,,,,,,---- -- ----- -- ------ - ------- --- ----------<br>------------- ------ ------ ---- ---- feeling ----- -- ----<br>-------- ------- -- ---------- --- - --- ----- ----- ----<br>---- --- --- ----- --- ---- ---- ------- ----- ---- -------<br>--- --- -- ----- -- --- ---- -- --- ---- -- ------ ------<br>--- ----- -- ----,137888.40000000037,137881.90000000037,137502.854,137515.70000000112,137519.511,137902.639,,14,feeling
screen,html.Screen,2_1_0_1_15,2022-02-01T14:31:10.468Z,,,,,,,,,,,,,,,,,53,,,,,,,,,,,,,,337.76100000037695,,response,,,,99,,,,,,,Space,keypress(Space),,,,,,,,---- -- ----- -- ------ - ------- --- ----------<br>------------- ------ ------ ---- ---- ------- close -- ----<br>-------- ------- -- ---------- --- - --- ----- ----- ----<br>---- --- --- ----- --- ---- ---- ------- ----- ---- -------<br>--- --- -- ----- -- --- ---- -- --- ---- -- ------ ------<br>--- ----- -- ----,138245.90000000037,138240.40000000037,137885.982,137889.30000000075,137902.639,138252.454,,15,close
screen,html.Screen,2_1_0_1_16,2022-02-01T14:31:10.823Z,,,,,,,,,,,,,,,,,53,,,,,,,,,,,,,,344.34600000074715,,response,,,,99,,,,,,,Space,keypress(Space),,,,,,,,---- -- ----- -- ------ - ------- --- ----------<br>------------- ------ ------ ---- ---- ------- ----- to ----<br>-------- ------- -- ---------- --- - --- ----- ----- ----<br>---- --- --- ----- --- ---- ---- ------- ----- ---- -------<br>--- --- -- ----- -- --- ---- -- --- ---- -- ------ ------<br>--- ----- -- ----,138600.59999999963,138596.80000000075,138235.797,138246.80000000075,138252.454,138618.932,,16,to
screen,html.Screen,2_1_0_1_17,2022-02-01T14:31:11.215Z,,,,,,,,,,,,,,,,,53,,,,,,,,,,,,,,363.7680000011169,,response,,,,99,,,,,,,Space,keypress(Space),,,,,,,,---- -- ----- -- ------ - ------- --- ----------<br>------------- ------ ------ ---- ---- ------- ----- -- your<br>-------- ------- -- ---------- --- - --- ----- ----- ----<br>---- --- --- ----- --- ---- ---- ------- ----- ---- -------<br>--- --- -- ----- -- --- ---- -- --- ---- -- ------ ------<br>--- ----- -- ----,138992.09999999963,138982.70000000112,138602.275,138601.20000000112,138618.932,139002.073,,17,your
screen,html.Screen,2_1_0_1_18,2022-02-01T14:31:11.650Z,,,,,,,,,,,,,,,,,53,,,,,,,,,,,,,,417.12700000111363,,response,,,,99,,,,,,,Space,keypress(Space),,,,,,,,---- -- ----- -- ------ - ------- --- ----------<br>------------- ------ ------ ---- ---- ------- ----- -- ----<br>romantic ------- -- ---------- --- - --- ----- ----- ----<br>---- --- --- ----- --- ---- ---- ------- ----- ---- -------<br>--- --- -- ----- -- --- ---- -- --- ---- -- ------ ------<br>--- ----- -- ----,139428.20000000112,139419.20000000112,138985.416,138992.40000000037,139002.073,139435.175,,18,romantic
screen,html.Screen,2_1_0_1_19,2022-02-01T14:31:12.011Z,,,,,,,,,,,,,,,,,53,,,,,,,,,,,,,,348.9249999996391,,response,,,,99,,,,,,,Space,keypress(Space),,,,,,,,---- -- ----- -- ------ - ------- --- ----------<br>------------- ------ ------ ---- ---- ------- ----- -- ----<br>-------- partner -- ---------- --- - --- ----- ----- ----<br>---- --- --- ----- --- ---- ---- ------- ----- ---- -------<br>--- --- -- ----- -- --- ---- -- --- ---- -- ------ ------<br>--- ----- -- ----,139789,139784.09999999963,139418.518,139428.59999999963,139435.175,139801.649,,19,partner
screen,html.Screen,2_1_0_1_20,2022-02-01T14:31:12.375Z,,,,,,,,,,,,,,,,,53,,,,,,,,,,,,,,347.4509999996226,,response,,,,99,,,,,,,Space,keypress(Space),,,,,,,,---- -- ----- -- ------ - ------- --- ----------<br>------------- ------ ------ ---- ---- ------- ----- -- ----<br>-------- ------- is ---------- --- - --- ----- ----- ----<br>---- --- --- ----- --- ---- ---- ------- ----- ---- -------<br>--- --- -- ----- -- --- ---- -- --- ---- -- ------ ------<br>--- ----- -- ----,140152.80000000075,140149.09999999963,139784.992,139789.59999999963,139801.649,140168.132,,20,is
screen,html.Screen,2_1_0_1_21,2022-02-01T14:31:12.699Z,,,,,,,,,,,,,,,,,53,,,,,,,,,,,,,,301.56800000110525,,response,,,,99,,,,,,,Space,keypress(Space),,,,,,,,---- -- ----- -- ------ - ------- --- ----------<br>------------- ------ ------ ---- ---- ------- ----- -- ----<br>-------- ------- -- paramount. --- - --- ----- ----- ----<br>---- --- --- ----- --- ---- ---- ------- ----- ---- -------<br>--- --- -- ----- -- --- ---- -- --- ---- -- ------ ------<br>--- ----- -- ----,140476.40000000037,140469.70000000112,140151.475,140153.40000000037,140168.132,140484.635,,21,paramount.
screen,html.Screen,2_1_0_1_22,2022-02-01T14:31:13.066Z,,,,,,,,,,,,,,,,,53,,,,,,,,,,,,,,347.3649999999907,,response,,,,99,,,,,,,Space,keypress(Space),,,,,,,,---- -- ----- -- ------ - ------- --- ----------<br>------------- ------ ------ ---- ---- ------- ----- -- ----<br>-------- ------- -- ---------- But - --- ----- ----- ----<br>---- --- --- ----- --- ---- ---- ------- ----- ---- -------<br>--- --- -- ----- -- --- ---- -- --- ---- -- ------ ------<br>--- ----- -- ----,140843.40000000037,140832,140467.978,140476.90000000037,140484.635,140851.1,,22,But
screen,html.Screen,2_1_0_1_23,2022-02-01T14:31:13.395Z,,,,,,,,,,,,,,,,,53,,,,,,,,,,,,,,316.8000000003667,,response,,,,99,,,,,,,Space,keypress(Space),,,,,,,,---- -- ----- -- ------ - ------- --- ----------<br>------------- ------ ------ ---- ---- ------- ----- -- ----<br>-------- ------- -- ---------- --- a --- ----- ----- ----<br>---- --- --- ----- --- ---- ---- ------- ----- ---- -------<br>--- --- -- ----- -- --- ---- -- --- ---- -- ------ ------<br>--- ----- -- ----,141172.20000000112,141167.90000000037,140834.443,140844.59999999963,140851.1,141184.268,,23,a
screen,html.Screen,2_1_0_1_24,2022-02-01T14:31:13.779Z,,,,,,,,,,,,,,,,,53,,,,,,,,,,,,,,369.5320000007341,,response,,,,99,,,,,,,Space,keypress(Space),,,,,,,,---- -- ----- -- ------ - ------- --- ----------<br>------------- ------ ------ ---- ---- ------- ----- -- ----<br>-------- ------- -- ---------- --- - new ----- ----- ----<br>---- --- --- ----- --- ---- ---- ------- ----- ---- -------<br>--- --- -- ----- -- --- ---- -- --- ---- -- ------ ------<br>--- ----- -- ----,141556.09999999963,141553.80000000075,141167.611,141173,141184.268,141567.393,,24,new
screen,html.Screen,2_1_0_1_25,2022-02-01T14:31:14.156Z,,,,,,,,,,,,,,,,,53,,,,,,,,,,,,,,362.10699999998906,,response,,,,99,,,,,,,Space,keypress(Space),,,,,,,,---- -- ----- -- ------ - ------- --- ----------<br>------------- ------ ------ ---- ---- ------- ----- -- ----<br>-------- ------- -- ---------- --- - --- study ----- ----<br>---- --- --- ----- --- ---- ---- ------- ----- ---- -------<br>--- --- -- ----- -- --- ---- -- --- ---- -- ------ ------<br>--- ----- -- ----,141933.30000000075,141929.5,141550.736,141556.59999999963,141567.393,141950.53,,25,study
screen,html.Screen,2_1_0_1_26,2022-02-01T14:31:14.501Z,,,,,,,,,,,,,,,,,53,,,,,,,,,,,,,,325.17000000111875,,response,,,,99,,,,,,,Space,keypress(Space),,,,,,,,---- -- ----- -- ------ - ------- --- ----------<br>------------- ------ ------ ---- ---- ------- ----- -- ----<br>-------- ------- -- ---------- --- - --- ----- finds ----<br>---- --- --- ----- --- ---- ---- ------- ----- ---- -------<br>--- --- -- ----- -- --- ---- -- --- ---- -- ------ ------<br>--- ----- -- ----,142279,142275.70000000112,141933.873,141933.59999999963,141950.53,142283.686,,26,finds
screen,html.Screen,2_1_0_1_27,2022-02-01T14:31:14.966Z,,,,,,,,,,,,,,,,,53,,,,,,,,,,,,,,454.1140000007581,,response,,,,99,,,,,,,Space,keypress(Space),,,,,,,,---- -- ----- -- ------ - ------- --- ----------<br>------------- ------ ------ ---- ---- ------- ----- -- ----<br>-------- ------- -- ---------- --- - --- ----- ----- that<br>---- --- --- ----- --- ---- ---- ------- ----- ---- -------<br>--- --- -- ----- -- --- ---- -- --- ---- -- ------ ------<br>--- ----- -- ----,142743.40000000037,142737.80000000075,142267.029,142279.5,142283.686,142750.102,,27,that
screen,html.Screen,2_1_0_1_28,2022-02-01T14:31:15.400Z,,,,,,,,,,,,,,,,,53,,,,,,,,,,,,,,422.5980000011041,,response,,,,99,,,,,,,Space,keypress(Space),,,,,,,,---- -- ----- -- ------ - ------- --- ----------<br>------------- ------ ------ ---- ---- ------- ----- -- ----<br>-------- ------- -- ---------- --- - --- ----- ----- ----<br>it's --- --- ----- --- ---- ---- ------- ----- ---- -------<br>--- --- -- ----- -- --- ---- -- --- ---- -- ------ ------<br>--- ----- -- ----,143177.20000000112,143172.70000000112,142733.445,142744.59999999963,142750.102,143183.223,,28,it's
screen,html.Screen,2_1_0_1_29,2022-02-01T14:31:15.729Z,,,,,,,,,,,,,,,,,53,,,,,,,,,,,,,,317.97700000111945,,response,,,,99,,,,,,,Space,keypress(Space),,,,,,,,---- -- ----- -- ------ - ------- --- ----------<br>------------- ------ ------ ---- ---- ------- ----- -- ----<br>-------- ------- -- ---------- --- - --- ----- ----- ----<br>---- not --- ----- --- ---- ---- ------- ----- ---- -------<br>--- --- -- ----- -- --- ---- -- --- ---- -- ------ ------<br>--- ----- -- ----,143506.30000000075,143501.20000000112,143166.566,143177.90000000037,143183.223,143516.381,,29,not
screen,html.Screen,2_1_0_1_30,2022-02-01T14:31:16.117Z,,,,,,,,,,,,,,,,,53,,,,,,,,,,,,,,367.2189999996335,,response,,,,99,,,,,,,Space,keypress(Space),,,,,,,,---- -- ----- -- ------ - ------- --- ----------<br>------------- ------ ------ ---- ---- ------- ----- -- ----<br>-------- ------- -- ---------- --- - --- ----- ----- ----<br>---- --- how ----- --- ---- ---- ------- ----- ---- -------<br>--- --- -- ----- -- --- ---- -- --- ---- -- ------ ------<br>--- ----- -- ----,143894.5,143883.59999999963,143499.724,143507,143516.381,143899.514,,30,how
screen,html.Screen,2_1_0_1_31,2022-02-01T14:31:16.435Z,,,,,,,,,,,,,,,,,53,,,,,,,,,,,,,,310.186000001122,,response,,,,99,,,,,,,Space,keypress(Space),,,,,,,,---- -- ----- -- ------ - ------- --- ----------<br>------------- ------ ------ ---- ---- ------- ----- -- ----<br>-------- ------- -- ---------- --- - --- ----- ----- ----<br>---- --- --- close --- ---- ---- ------- ----- ---- -------<br>--- --- -- ----- -- --- ---- -- --- ---- -- ------ ------<br>--- ----- -- ----,144212.59999999963,144209.70000000112,143882.857,143895.5,143899.514,144216.018,,31,close
screen,html.Screen,2_1_0_1_32,2022-02-01T14:31:16.793Z,,,,,,,,,,,,,,,,,53,,,,,,,,,,,,,,349.8820000003616,,response,,,,99,,,,,,,Space,keypress(Space),,,,,,,,---- -- ----- -- ------ - ------- --- ----------<br>------------- ------ ------ ---- ---- ------- ----- -- ----<br>-------- ------- -- ---------- --- - --- ----- ----- ----<br>---- --- --- ----- you ---- ---- ------- ----- ---- -------<br>--- --- -- ----- -- --- ---- -- --- ---- -- ------ ------<br>--- ----- -- ----,144570.30000000075,144565.90000000037,144199.361,144212.90000000037,144216.018,144582.494,,32,you
screen,html.Screen,2_1_0_1_33,2022-02-01T14:31:17.092Z,,,,,,,,,,,,,,,,,53,,,,,,,,,,,,,,277.806000000739,,response,,,,99,,,,,,,Space,keypress(Space),,,,,,,,---- -- ----- -- ------ - ------- --- ----------<br>------------- ------ ------ ---- ---- ------- ----- -- ----<br>-------- ------- -- ---------- --- - --- ----- ----- ----<br>---- --- --- ----- --- feel ---- ------- ----- ---- -------<br>--- --- -- ----- -- --- ---- -- --- ---- -- ------ ------<br>--- ----- -- ----,144870,144860.30000000075,144565.837,144570.90000000037,144582.494,144882.336,,33,feel
screen,html.Screen,2_1_0_1_34,2022-02-01T14:31:17.466Z,,,,,,,,,,,,,,,,,53,,,,,,,,,,,,,,356.2639999996172,,response,,,,99,,,,,,,Space,keypress(Space),,,,,,,,---- -- ----- -- ------ - ------- --- ----------<br>------------- ------ ------ ---- ---- ------- ----- -- ----<br>-------- ------- -- ---------- --- - --- ----- ----- ----<br>---- --- --- ----- --- ---- that ------- ----- ---- -------<br>--- --- -- ----- -- --- ---- -- --- ---- -- ------ ------<br>--- ----- -- ----,145243.59999999963,145238.59999999963,144865.679,144870.40000000037,144882.336,145248.817,,34,that
screen,html.Screen,2_1_0_1_35,2022-02-01T14:31:17.781Z,,,,,,,,,,,,,,,,,53,,,,,,,,,,,,,,307.18299999999,,response,,,,99,,,,,,,Space,keypress(Space),,,,,,,,---- -- ----- -- ------ - ------- --- ----------<br>------------- ------ ------ ---- ---- ------- ----- -- ----<br>-------- ------- -- ---------- --- - --- ----- ----- ----<br>---- --- --- ----- --- ---- ---- matters ----- ---- -------<br>--- --- -- ----- -- --- ---- -- --- ---- -- ------ ------<br>--- ----- -- ----,145558.80000000075,145556,145232.16,145244.30000000075,145248.817,145565.31,,35,matters
screen,html.Screen,2_1_0_1_36,2022-02-01T14:31:18.079Z,,,,,,,,,,,,,,,,,53,,,,,,,,,,,,,,279.9900000007474,,response,,,,99,,,,,,,Space,keypress(Space),,,,,,,,"---- -- ----- -- ------ - ------- --- ----------<br>------------- ------ ------ ---- ---- ------- ----- -- ----<br>-------- ------- -- ---------- --- - --- ----- ----- ----<br>---- --- --- ----- --- ---- ---- ------- most, ---- -------<br>--- --- -- ----- -- --- ---- -- --- ---- -- ------ ------<br>--- ----- -- ----",145856.20000000112,145845.30000000075,145548.653,145559.5,145565.31,145865.167,,36,"most,"
screen,html.Screen,2_1_0_1_37,2022-02-01T14:31:18.446Z,,,,,,,,,,,,,,,,,53,,,,,,,,,,,,,,353.7330000003858,,response,,,,99,,,,,,,Space,keypress(Space),,,,,,,,---- -- ----- -- ------ - ------- --- ----------<br>------------- ------ ------ ---- ---- ------- ----- -- ----<br>-------- ------- -- ---------- --- - --- ----- ----- ----<br>---- --- --- ----- --- ---- ---- ------- ----- it's -------<br>--- --- -- ----- -- --- ---- -- --- ---- -- ------ ------<br>--- ----- -- ----,146224,146218.90000000037,145848.51,145857.09999999963,145865.167,146231.632,,37,it's
screen,html.Screen,2_1_0_1_38,2022-02-01T14:31:18.756Z,,,,,,,,,,,,,,,,,53,,,,,,,,,,,,,,298.06800000110525,,response,,,,99,,,,,,,Space,keypress(Space),,,,,,,,---- -- ----- -- ------ - ------- --- ----------<br>------------- ------ ------ ---- ---- ------- ----- -- ----<br>-------- ------- -- ---------- --- - --- ----- ----- ----<br>---- --- --- ----- --- ---- ---- ------- ----- ---- whether<br>--- --- -- ----- -- --- ---- -- --- ---- -- ------ ------<br>--- ----- -- ----,146533.30000000075,146529.70000000112,146214.975,146224.30000000075,146231.632,146548.139,,38,whether
screen,html.Screen,2_1_0_1_39,2022-02-01T14:31:19.122Z,,,,,,,,,,,,,,,,,53,,,,,,,,,,,,,,346.6610000007495,,response,,,,99,,,,,,,Space,keypress(Space),,,,,,,,---- -- ----- -- ------ - ------- --- ----------<br>------------- ------ ------ ---- ---- ------- ----- -- ----<br>-------- ------- -- ---------- --- - --- ----- ----- ----<br>---- --- --- ----- --- ---- ---- ------- ----- ---- -------<br>you --- -- ----- -- --- ---- -- --- ---- -- ------ ------<br>--- ----- -- ----,146899.5,146894.80000000075,146531.482,146533.59999999963,146548.139,146914.616,,39,you
screen,html.Screen,2_1_0_1_40,2022-02-01T14:31:19.571Z,,,,,,,,,,,,,,,,,53,,,,,,,,,,,,,,430.0840000011085,,response,,,,99,,,,,,,Space,keypress(Space),,,,,,,,---- -- ----- -- ------ - ------- --- ----------<br>------------- ------ ------ ---- ---- ------- ----- -- ----<br>-------- ------- -- ---------- --- - --- ----- ----- ----<br>---- --- --- ----- --- ---- ---- ------- ----- ---- -------<br>--- are -- ----- -- --- ---- -- --- ---- -- ------ ------<br>--- ----- -- ----,147348.70000000112,147344.70000000112,146897.959,146900.09999999963,146914.616,147364.37,,40,are
screen,html.Screen,2_1_0_1_41,2022-02-01T14:31:19.915Z,,,,,,,,,,,,,,,,,53,,,,,,,,,,,,,,325.13000000000466,,response,,,,99,,,,,,,Space,keypress(Space),,,,,,,,---- -- ----- -- ------ - ------- --- ----------<br>------------- ------ ------ ---- ---- ------- ----- -- ----<br>-------- ------- -- ---------- --- - --- ----- ----- ----<br>---- --- --- ----- --- ---- ---- ------- ----- ---- -------<br>--- --- as ----- -- --- ---- -- --- ---- -- ------ ------<br>--- ----- -- ----,147692.30000000075,147689.5,147347.713,147349.09999999963,147364.37,147697.536,,41,as
screen,html.Screen,2_1_0_1_42,2022-02-01T14:31:20.256Z,,,,,,,,,,,,,,,,,53,,,,,,,,,,,,,,330.9640000000072,,response,,,,99,,,,,,,Space,keypress(Space),,,,,,,,---- -- ----- -- ------ - ------- --- ----------<br>------------- ------ ------ ---- ---- ------- ----- -- ----<br>-------- ------- -- ---------- --- - --- ----- ----- ----<br>---- --- --- ----- --- ---- ---- ------- ----- ---- -------<br>--- --- -- close -- --- ---- -- --- ---- -- ------ ------<br>--- ----- -- ----,148033.20000000112,148028.5,147680.879,147692.59999999963,147697.536,148047.35,,42,close
screen,html.Screen,2_1_0_1_43,2022-02-01T14:31:20.562Z,,,,,,,,,,,,,,,,,53,,,,,,,,,,,,,,287.6499999999942,,response,,,,99,,,,,,,Space,keypress(Space),,,,,,,,---- -- ----- -- ------ - ------- --- ----------<br>------------- ------ ------ ---- ---- ------- ----- -- ----<br>-------- ------- -- ---------- --- - --- ----- ----- ----<br>---- --- --- ----- --- ---- ---- ------- ----- ---- -------<br>--- --- -- ----- as --- ---- -- --- ---- -- ------ ------<br>--- ----- -- ----,148339.70000000112,148335,148030.693,148033.80000000075,148047.35,148347.198,,43,as
screen,html.Screen,2_1_0_1_44,2022-02-01T14:31:20.862Z,,,,,,,,,,,,,,,,,53,,,,,,,,,,,,,,287.9019999996235,,response,,,,99,,,,,,,Space,keypress(Space),,,,,,,,---- -- ----- -- ------ - ------- --- ----------<br>------------- ------ ------ ---- ---- ------- ----- -- ----<br>-------- ------- -- ---------- --- - --- ----- ----- ----<br>---- --- --- ----- --- ---- ---- ------- ----- ---- -------<br>--- --- -- ----- -- you ---- -- --- ---- -- ------ ------<br>--- ----- -- ----,148639.90000000037,148635.09999999963,148330.541,148340.09999999963,148347.198,148647.051,,44,you
screen,html.Screen,2_1_0_1_45,2022-02-01T14:31:21.156Z,,,,,,,,,,,,,,,,,53,,,,,,,,,,,,,,282.0489999996207,,response,,,,99,,,,,,,Space,keypress(Space),,,,,,,,---- -- ----- -- ------ - ------- --- ----------<br>------------- ------ ------ ---- ---- ------- ----- -- ----<br>-------- ------- -- ---------- --- - --- ----- ----- ----<br>---- --- --- ----- --- ---- ---- ------- ----- ---- -------<br>--- --- -- ----- -- --- want -- --- ---- -- ------ ------<br>--- ----- -- ----,148933.30000000075,148929.09999999963,148630.394,148640.5,148647.051,148946.882,,45,want
screen,html.Screen,2_1_0_1_46,2022-02-01T14:31:21.472Z,,,,,,,,,,,,,,,,,53,,,,,,,,,,,,,,297.61799999998766,,response,,,,99,,,,,,,Space,keypress(Space),,,,,,,,---- -- ----- -- ------ - ------- --- ----------<br>------------- ------ ------ ---- ---- ------- ----- -- ----<br>-------- ------- -- ---------- --- - --- ----- ----- ----<br>---- --- --- ----- --- ---- ---- ------- ----- ---- -------<br>--- --- -- ----- -- --- ---- to --- ---- -- ------ ------<br>--- ----- -- ----,149249.40000000037,149244.5,148930.225,148933.59999999963,148946.882,149263.388,,46,to
screen,html.Screen,2_1_0_1_47,2022-02-01T14:31:21.810Z,,,,,,,,,,,,,,,,,53,,,,,,,,,,,,,,320.3120000011113,,response,,,,99,,,,,,,Space,keypress(Space),,,,,,,,"---- -- ----- -- ------ - ------- --- ----------<br>------------- ------ ------ ---- ---- ------- ----- -- ----<br>-------- ------- -- ---------- --- - --- ----- ----- ----<br>---- --- --- ----- --- ---- ---- ------- ----- ---- -------<br>--- --- -- ----- -- --- ---- -- be, ---- -- ------ ------<br>--- ----- -- ----",149588.09999999963,149583.70000000112,149246.731,149250.5,149263.388,149596.549,,47,"be,"
screen,html.Screen,2_1_0_1_48,2022-02-01T14:31:22.160Z,,,,,,,,,,,,,,,,,53,,,,,,,,,,,,,,337.45100000000093,,response,,,,99,,,,,,,Space,keypress(Space),,,,,,,,---- -- ----- -- ------ - ------- --- ----------<br>------------- ------ ------ ---- ---- ------- ----- -- ----<br>-------- ------- -- ---------- --- - --- ----- ----- ----<br>---- --- --- ----- --- ---- ---- ------- ----- ---- -------<br>--- --- -- ----- -- --- ---- -- --- even -- ------ ------<br>--- ----- -- ----,149938,149934,149579.892,149588.70000000112,149596.549,149946.361,,48,even
screen,html.Screen,2_1_0_1_49,2022-02-01T14:31:22.465Z,,,,,,,,,,,,,,,,,53,,,,,,,,,,,,,,292.83900000111316,,response,,,,99,,,,,,,Space,keypress(Space),,,,,,,,---- -- ----- -- ------ - ------- --- ----------<br>------------- ------ ------ ---- ---- ------- ----- -- ----<br>-------- ------- -- ---------- --- - --- ----- ----- ----<br>---- --- --- ----- --- ---- ---- ------- ----- ---- -------<br>--- --- -- ----- -- --- ---- -- --- ---- if ------ ------<br>--- ----- -- ----,150242.80000000075,150239.20000000112,149929.704,149938.59999999963,149946.361,150246.207,,49,if
screen,html.Screen,2_1_0_1_50,2022-02-01T14:31:22.751Z,,,,,,,,,,,,,,,,,53,,,,,,,,,,,,,,278.19300000037765,,response,,,,99,,,,,,,Space,keypress(Space),,,,,,,,---- -- ----- -- ------ - ------- --- ----------<br>------------- ------ ------ ---- ---- ------- ----- -- ----<br>-------- ------- -- ---------- --- - --- ----- ----- ----<br>---- --- --- ----- --- ---- ---- ------- ----- ---- -------<br>--- --- -- ----- -- --- ---- -- --- ---- -- that's ------<br>--- ----- -- ----,150528.30000000075,150524.40000000037,150229.55,150243.30000000075,150246.207,150546.051,,50,that's
screen,html.Screen,2_1_0_1_51,2022-02-01T14:31:23.057Z,,,,,,,,,,,,,,,,,53,,,,,,,,,,,,,,286.3490000003658,,response,,,,99,,,,,,,Space,keypress(Space),,,,,,,,---- -- ----- -- ------ - ------- --- ----------<br>------------- ------ ------ ---- ---- ------- ----- -- ----<br>-------- ------- -- ---------- --- - --- ----- ----- ----<br>---- --- --- ----- --- ---- ---- ------- ----- ---- -------<br>--- --- -- ----- -- --- ---- -- --- ---- -- ------ really<br>--- ----- -- ----,150834.30000000075,150832.40000000037,150529.394,150528.80000000075,150546.051,150845.906,,51,really
screen,html.Screen,2_1_0_1_52,2022-02-01T14:31:23.424Z,,,,,,,,,,,,,,,,,53,,,,,,,,,,,,,,350.29400000112946,,response,,,,99,,,,,,,Space,keypress(Space),,,,,,,,---- -- ----- -- ------ - ------- --- ----------<br>------------- ------ ------ ---- ---- ------- ----- -- ----<br>-------- ------- -- ---------- --- - --- ----- ----- ----<br>---- --- --- ----- --- ---- ---- ------- ----- ---- -------<br>--- --- -- ----- -- --- ---- -- --- ---- -- ------ ------<br>not ----- -- ----,151201.20000000112,151196.20000000112,150829.249,150834.80000000075,150845.906,151212.366,,52,not
screen,html.Screen,2_1_0_1_53,2022-02-01T14:31:23.718Z,,,,,,,,,,,,,,,,,53,,,,,,,,,,,,,,278.03400000036345,,response,,,,99,,,,,,,Space,keypress(Space),,,,,,,,---- -- ----- -- ------ - ------- --- ----------<br>------------- ------ ------ ---- ---- ------- ----- -- ----<br>-------- ------- -- ---------- --- - --- ----- ----- ----<br>---- --- --- ----- --- ---- ---- ------- ----- ---- -------<br>--- --- -- ----- -- --- ---- -- --- ---- -- ------ ------<br>--- close -- ----,151495.90000000037,151490.40000000037,151195.709,151202.09999999963,151212.366,151512.218,,53,close
screen,html.Screen,2_1_0_1_54,2022-02-01T14:31:24.067Z,,,,,,,,,,,,,,,,,53,,,,,,,,,,,,,,329.68200000037905,,response,,,,99,,,,,,,Space,keypress(Space),,,,,,,,---- -- ----- -- ------ - ------- --- ----------<br>------------- ------ ------ ---- ---- ------- ----- -- ----<br>-------- ------- -- ---------- --- - --- ----- ----- ----<br>---- --- --- ----- --- ---- ---- ------- ----- ---- -------<br>--- --- -- ----- -- --- ---- -- --- ---- -- ------ ------<br>--- ----- at ----,151844.5,151841.90000000037,151495.561,151496.90000000037,151512.218,151862.03,,54,at
screen,html.Screen,2_1_0_1_55,2022-02-01T14:31:24.564Z,,,,,,,,,,,,,,,,,53,,,,,,,,,,,,,,471.97000000000116,,response,,,,99,,,,,,,Space,keypress(Space),,,,,,,,---- -- ----- -- ------ - ------- --- ----------<br>------------- ------ ------ ---- ---- ------- ----- -- ----<br>-------- ------- -- ---------- --- - --- ----- ----- ----<br>---- --- --- ----- --- ---- ---- ------- ----- ---- -------<br>--- --- -- ----- -- --- ---- -- --- ---- -- ------ ------<br>--- ----- -- all.,152341.20000000112,152334,151845.373,151845,151862.03,152361.756,,55,all.
Item 99,flow.Loop,2_1_0_1,2022-02-01T14:31:24.565Z,,,,,,,,,,,,,,,,,,,,,,,,,,,,,,,21627.653999999995,,completion,,,,,F,,,,,,,,,,,silence,,,,,152342.30000000075,152334,130639.718,130643.80000000075,130706.346,152361.756,,,
Question 1,html.Screen,2_1_0_2,2022-02-01T14:31:27.102Z,,,,,,,,,,,,,,,,,,,,,,,,,,,,true,FALSE,,2513.544000000751,,response,,,,99,F,,,,,,FALSE,click #choice-2,,,,silence,,,,,154879.90000000037,154875.30000000075,152345.099,152343,152361.756,154893.792,,,
Question 2,html.Screen,2_1_0_3,2022-02-01T14:31:32.632Z,,,,,,,,,,,,,,,,,,,,,,,,,,,,true,TRUE,,5510.508000000758,,response,,,,99,F,,,,,,TRUE,click #choice-1,,,,silence,,,,,160410,160404.30000000075,154877.135,154880.70000000112,154893.792,160424.241,,,
Item 99,flow.Sequence,2_1_0,2022-02-01T14:31:32.634Z,,,,,,,,,,,,,,,,,,,,,,,,,,,,,,,39743.50200000075,,completion,,,,,,,,,,,,,,,,,,,,,160411.59999999963,160404.30000000075,120644.141,120659.09999999963,120660.798,160424.241,,,
Holding screen,html.Screen,2_1_1_0,2022-02-01T14:31:42.627Z,,,,,,,,,,,,,,,,,,,,,,,,,,,,,,,9994.751999999979,,timeout,,,,,,,,,,,,,,,,,,,,,170404.20000000112,170402.336,160407.584,160413,160424.241,170418.993,,,
screen,html.Screen,2_1_1_1_0,2022-02-01T14:31:43.707Z,,,,,,,,,,,,,,,,,54,,,,,,,,,,,,,,1060.20700000113,,response,,,,100,,,,,,,Space,keypress(Space),,,,,,,,At --- ---- --- ------ ----- ------- ---- -- --- ------- --<br>------- ---------- ------ -- ----- -- ----- -- ---- ------<br>--- ----- --- --- ------ -------- ----- --- ------ ----- --<br>----- ----- ---------- --- --- ------ ------ ---- -- ------<br>------- --- ------ ----- --- ---- ------- -- ---- --- --<br>------- ------,171484.90000000037,171479.20000000112,170402.336,170404.5,170418.993,171485.099,,0,At
screen,html.Screen,2_1_1_1_1,2022-02-01T14:31:44.282Z,,,,,,,,,,,,,,,,,54,,,,,,,,,,,,,,571.7010000007576,,response,,,,100,,,,,,,Space,keypress(Space),,,,,,,,-- the ---- --- ------ ----- ------- ---- -- --- ------- --<br>------- ---------- ------ -- ----- -- ----- -- ---- ------<br>--- ----- --- --- ------ -------- ----- --- ------ ----- --<br>----- ----- ---------- --- --- ------ ------ ---- -- ------<br>------- --- ------ ----- --- ---- ------- -- ---- --- --<br>------- ------,172060.20000000112,172056.80000000075,171468.442,171485.90000000037,171485.099,172068.155,,1,the
screen,html.Screen,2_1_1_1_2,2022-02-01T14:31:44.635Z,,,,,,,,,,,,,,,,,54,,,,,,,,,,,,,,340.34500000000116,,response,,,,100,,,,,,,Space,keypress(Space),,,,,,,,-- --- time --- ------ ----- ------- ---- -- --- ------- --<br>------- ---------- ------ -- ----- -- ----- -- ---- ------<br>--- ----- --- --- ------ -------- ----- --- ------ ----- --<br>----- ----- ---------- --- --- ------ ------ ---- -- ------<br>------- --- ------ ----- --- ---- ------- -- ---- --- --<br>------- ------,172412.40000000037,172408.5,172051.498,172060.80000000075,172068.155,172417.988,,2,time
screen,html.Screen,2_1_1_1_3,2022-02-01T14:31:45.006Z,,,,,,,,,,,,,,,,,54,,,,,,,,,,,,,,362.0119999999879,,response,,,,100,,,,,,,Space,keypress(Space),,,,,,,,-- --- ---- the ------ ----- ------- ---- -- --- ------- --<br>------- ---------- ------ -- ----- -- ----- -- ---- ------<br>--- ----- --- --- ------ -------- ----- --- ------ ----- --<br>----- ----- ---------- --- --- ------ ------ ---- -- ------<br>------- --- ------ ----- --- ---- ------- -- ---- --- --<br>------- ------,172783.90000000037,172780,172401.331,172413,172417.988,172801.118,,3,the
screen,html.Screen,2_1_1_1_4,2022-02-01T14:31:45.352Z,,,,,,,,,,,,,,,,,54,,,,,,,,,,,,,,325.38200000001234,,response,,,,100,,,,,,,Space,keypress(Space),,,,,,,,-- --- ---- --- French ----- ------- ---- -- --- ------- --<br>------- ---------- ------ -- ----- -- ----- -- ---- ------<br>--- ----- --- --- ------ -------- ----- --- ------ ----- --<br>----- ----- ---------- --- --- ------ ------ ---- -- ------<br>------- --- ------ ----- --- ---- ------- -- ---- --- --<br>------- ------,173130,173126.5,172784.461,172784.5,172801.118,173134.286,,4,French
screen,html.Screen,2_1_1_1_5,2022-02-01T14:31:45.790Z,,,,,,,,,,,,,,,,,54,,,,,,,,,,,,,,429.5140000007523,,response,,,,100,,,,,,,Space,keypress(Space),,,,,,,,-- --- ---- --- ------ crown ------- ---- -- --- ------- --<br>------- ---------- ------ -- ----- -- ----- -- ---- ------<br>--- ----- --- --- ------ -------- ----- --- ------ ----- --<br>----- ----- ---------- --- --- ------ ------ ---- -- ------<br>------- --- ------ ----- --- ---- ------- -- ---- --- --<br>------- ------,173567.20000000112,173563.80000000075,173117.629,173131,173134.286,173584.048,,5,crown
screen,html.Screen,2_1_1_1_6,2022-02-01T14:31:46.169Z,,,,,,,,,,,,,,,,,54,,,,,,,,,,,,,,358.9519999999902,,response,,,,100,,,,,,,Space,keypress(Space),,,,,,,,-- --- ---- --- ------ ----- secured ---- -- --- ------- --<br>------- ---------- ------ -- ----- -- ----- -- ---- ------<br>--- ----- --- --- ------ -------- ----- --- ------ ----- --<br>----- ----- ---------- --- --- ------ ------ ---- -- ------<br>------- --- ------ ----- --- ---- ------- -- ---- --- --<br>------- ------,173946.5,173943,173567.391,173567.59999999963,173584.048,173950.528,,6,secured
screen,html.Screen,2_1_1_1_7,2022-02-01T14:31:46.574Z,,,,,,,,,,,,,,,,,54,,,,,,,,,,,,,,396.5719999996363,,response,,,,100,,,,,,,Space,keypress(Space),,,,,,,,-- --- ---- --- ------ ----- ------- much -- --- ------- --<br>------- ---------- ------ -- ----- -- ----- -- ---- ------<br>--- ----- --- --- ------ -------- ----- --- ------ ----- --<br>----- ----- ---------- --- --- ------ ------ ---- -- ------<br>------- --- ------ ----- --- ---- ------- -- ---- --- --<br>------- ------,174351.90000000037,174347.09999999963,173933.871,173947.09999999963,173950.528,174366.968,,7,much
screen,html.Screen,2_1_1_1_8,2022-02-01T14:31:47.046Z,,,,,,,,,,,,,,,,,54,,,,,,,,,,,,,,453.5320000000065,,response,,,,100,,,,,,,Space,keypress(Space),,,,,,,,-- --- ---- --- ------ ----- ------- ---- of --- ------- --<br>------- ---------- ------ -- ----- -- ----- -- ---- ------<br>--- ----- --- --- ------ -------- ----- --- ------ ----- --<br>----- ----- ---------- --- --- ------ ------ ---- -- ------<br>------- --- ------ ----- --- ---- ------- -- ---- --- --<br>------- ------,174824,174820.5,174350.311,174352.80000000075,174366.968,174833.39,,8,of
screen,html.Screen,2_1_1_1_9,2022-02-01T14:31:47.518Z,,,,,,,,,,,,,,,,,54,,,,,,,,,,,,,,458.2099999996135,,response,,,,100,,,,,,,Space,keypress(Space),,,,,,,,-- --- ---- --- ------ ----- ------- ---- -- its ------- --<br>------- ---------- ------ -- ----- -- ----- -- ---- ------<br>--- ----- --- --- ------ -------- ----- --- ------ ----- --<br>----- ----- ---------- --- --- ------ ------ ---- -- ------<br>------- --- ------ ----- --- ---- ------- -- ---- --- --<br>------- ------,175295.90000000037,175291.59999999963,174816.733,174824.70000000112,174833.39,175316.472,,9,its
screen,html.Screen,2_1_1_1_10,2022-02-01T14:31:47.953Z,,,,,,,,,,,,,,,,,54,,,,,,,,,,,,,,411.3280000007362,,response,,,,100,,,,,,,Space,keypress(Space),,,,,,,,-- --- ---- --- ------ ----- ------- ---- -- --- revenue --<br>------- ---------- ------ -- ----- -- ----- -- ---- ------<br>--- ----- --- --- ------ -------- ----- --- ------ ----- --<br>----- ----- ---------- --- --- ------ ------ ---- -- ------<br>------- --- ------ ----- --- ---- ------- -- ---- --- --<br>------- ------,175730.90000000037,175727.80000000075,175299.815,175296.59999999963,175316.472,175749.585,,10,revenue
screen,html.Screen,2_1_1_1_11,2022-02-01T14:31:48.381Z,,,,,,,,,,,,,,,,,54,,,,,,,,,,,,,,405.41500000000815,,response,,,,100,,,,,,,Space,keypress(Space),,,,,,,,-- --- ---- --- ------ ----- ------- ---- -- --- ------- by<br>------- ---------- ------ -- ----- -- ----- -- ---- ------<br>--- ----- --- --- ------ -------- ----- --- ------ ----- --<br>----- ----- ---------- --- --- ------ ------ ---- -- ------<br>------- --- ------ ----- --- ---- ------- -- ---- --- --<br>------- ------,176158.70000000112,176155,175732.928,175731.5,175749.585,176166.036,,11,by
screen,html.Screen,2_1_1_1_12,2022-02-01T14:31:48.755Z,,,,,,,,,,,,,,,,,54,,,,,,,,,,,,,,362.0639999996347,,response,,,,100,,,,,,,Space,keypress(Space),,,,,,,,-- --- ---- --- ------ ----- ------- ---- -- --- ------- --<br>issuing ---------- ------ -- ----- -- ----- -- ---- ------<br>--- ----- --- --- ------ -------- ----- --- ------ ----- --<br>----- ----- ---------- --- --- ------ ------ ---- -- ------<br>------- --- ------ ----- --- ---- ------- -- ---- --- --<br>------- ------,176532.80000000075,176528.09999999963,176149.379,176159.09999999963,176166.036,176549.164,,12,issuing
screen,html.Screen,2_1_1_1_13,2022-02-01T14:31:49.110Z,,,,,,,,,,,,,,,,,54,,,,,,,,,,,,,,335.1360000007553,,response,,,,100,,,,,,,Space,keypress(Space),,,,,,,,-- --- ---- --- ------ ----- ------- ---- -- --- ------- --<br>------- government ------ -- ----- -- ----- -- ---- ------<br>--- ----- --- --- ------ -------- ----- --- ------ ----- --<br>----- ----- ---------- --- --- ------ ------ ---- -- ------<br>------- --- ------ ----- --- ---- ------- -- ---- --- --<br>------- ------,176887.90000000037,176884.30000000075,176532.507,176533.80000000075,176549.164,176898.991,,13,government
screen,html.Screen,2_1_1_1_14,2022-02-01T14:31:49.455Z,,,,,,,,,,,,,,,,,54,,,,,,,,,,,,,,328.0089999999909,,response,,,,100,,,,,,,Space,keypress(Space),,,,,,,,-- --- ---- --- ------ ----- ------- ---- -- --- ------- --<br>------- ---------- bonds. -- ----- -- ----- -- ---- ------<br>--- ----- --- --- ------ -------- ----- --- ------ ----- --<br>----- ----- ---------- --- --- ------ ------ ---- -- ------<br>------- --- ------ ----- --- ---- ------- -- ---- --- --<br>------- ------,177232.5,177227,176882.334,176888.40000000037,176898.991,177248.798,,14,bonds.
screen,html.Screen,2_1_1_1_15,2022-02-01T14:31:49.917Z,,,,,,,,,,,,,,,,,54,,,,,,,,,,,,,,438.0020000007353,,response,,,,100,,,,,,,Space,keypress(Space),,,,,,,,-- --- ---- --- ------ ----- ------- ---- -- --- ------- --<br>------- ---------- ------ In ----- -- ----- -- ---- ------<br>--- ----- --- --- ------ -------- ----- --- ------ ----- --<br>----- ----- ---------- --- --- ------ ------ ---- -- ------<br>------- --- ------ ----- --- ---- ------- -- ---- --- --<br>------- ------,177694.20000000112,177686.80000000075,177232.141,177233.5,177248.798,177698.559,,15,In
screen,html.Screen,2_1_1_1_16,2022-02-01T14:31:50.499Z,,,,,,,,,,,,,,,,,54,,,,,,,,,,,,,,573.6410000011092,,response,,,,100,,,,,,,Space,keypress(Space),,,,,,,,"-- --- ---- --- ------ ----- ------- ---- -- --- ------- --<br>------- ---------- ------ -- 1727, -- ----- -- ---- ------<br>--- ----- --- --- ------ -------- ----- --- ------ ----- --<br>----- ----- ---------- --- --- ------ ------ ---- -- ------<br>------- --- ------ ----- --- ---- ------- -- ---- --- --<br>------- ------",178276.09999999963,178272.20000000112,177681.902,177694.5,177698.559,178298.25,,16,"1727,"
screen,html.Screen,2_1_1_1_17,2022-02-01T14:31:50.881Z,,,,,,,,,,,,,,,,,54,,,,,,,,,,,,,,357.55000000074506,,response,,,,100,,,,,,,Space,keypress(Space),,,,,,,,-- --- ---- --- ------ ----- ------- ---- -- --- ------- --<br>------- ---------- ------ -- ----- in ----- -- ---- ------<br>--- ----- --- --- ------ -------- ----- --- ------ ----- --<br>----- ----- ---------- --- --- ------ ------ ---- -- ------<br>------- --- ------ ----- --- ---- ------- -- ---- --- --<br>------- ------,178658.20000000112,178655.80000000075,178281.593,178277.20000000112,178298.25,178664.741,,17,in
screen,html.Screen,2_1_1_1_18,2022-02-01T14:31:51.317Z,,,,,,,,,,,,,,,,,54,,,,,,,,,,,,,,426.059000000736,,response,,,,100,,,,,,,Space,keypress(Space),,,,,,,,-- --- ---- --- ------ ----- ------- ---- -- --- ------- --<br>------- ---------- ------ -- ----- -- order -- ---- ------<br>--- ----- --- --- ------ -------- ----- --- ------ ----- --<br>----- ----- ---------- --- --- ------ ------ ---- -- ------<br>------- --- ------ ----- --- ---- ------- -- ---- --- --<br>------- ------,179094.59999999963,179090.80000000075,178648.084,178658.5,178664.741,179097.833,,18,order
screen,html.Screen,2_1_1_1_19,2022-02-01T14:31:51.632Z,,,,,,,,,,,,,,,,,54,,,,,,,,,,,,,,308.3670000011043,,response,,,,100,,,,,,,Space,keypress(Space),,,,,,,,-- --- ---- --- ------ ----- ------- ---- -- --- ------- --<br>------- ---------- ------ -- ----- -- ----- to ---- ------<br>--- ----- --- --- ------ -------- ----- --- ------ ----- --<br>----- ----- ---------- --- --- ------ ------ ---- -- ------<br>------- --- ------ ----- --- ---- ------- -- ---- --- --<br>------- ------,179409.20000000112,179406.20000000112,179081.176,179095,179097.833,179414.351,,19,to
screen,html.Screen,2_1_1_1_20,2022-02-01T14:31:52.038Z,,,,,,,,,,,,,,,,,54,,,,,,,,,,,,,,396.74899999963236,,response,,,,100,,,,,,,Space,keypress(Space),,,,,,,,-- --- ---- --- ------ ----- ------- ---- -- --- ------- --<br>------- ---------- ------ -- ----- -- ----- -- save ------<br>--- ----- --- --- ------ -------- ----- --- ------ ----- --<br>----- ----- ---------- --- --- ------ ------ ---- -- ------<br>------- --- ------ ----- --- ---- ------- -- ---- --- --<br>------- ------,179815.40000000037,179811.09999999963,179397.694,179409.80000000075,179414.351,179830.783,,20,save
screen,html.Screen,2_1_1_1_21,2022-02-01T14:31:52.398Z,,,,,,,,,,,,,,,,,54,,,,,,,,,,,,,,341.1170000003767,,response,,,,100,,,,,,,Space,keypress(Space),,,,,,,,"-- --- ---- --- ------ ----- ------- ---- -- --- ------- --<br>------- ---------- ------ -- ----- -- ----- -- ---- money,<br>--- ----- --- --- ------ -------- ----- --- ------ ----- --<br>----- ----- ---------- --- --- ------ ------ ---- -- ------<br>------- --- ------ ----- --- ---- ------- -- ---- --- --<br>------- ------",180175.30000000075,180171.90000000037,179814.126,179816.5,179830.783,180180.604,,21,"money,"
screen,html.Screen,2_1_1_1_22,2022-02-01T14:31:52.735Z,,,,,,,,,,,,,,,,,54,,,,,,,,,,,,,,329.196000000753,,response,,,,100,,,,,,,Space,keypress(Space),,,,,,,,-- --- ---- --- ------ ----- ------- ---- -- --- ------- --<br>------- ---------- ------ -- ----- -- ----- -- ---- ------<br>the ----- --- --- ------ -------- ----- --- ------ ----- --<br>----- ----- ---------- --- --- ------ ------ ---- -- ------<br>------- --- ------ ----- --- ---- ------- -- ---- --- --<br>------- ------,180512.59999999963,180509.80000000075,180163.947,180176,180180.604,180530.424,,22,the
screen,html.Screen,2_1_1_1_23,2022-02-01T14:31:53.070Z,,,,,,,,,,,,,,,,,54,,,,,,,,,,,,,,311.2760000011185,,response,,,,100,,,,,,,Space,keypress(Space),,,,,,,,-- --- ---- --- ------ ----- ------- ---- -- --- ------- --<br>------- ---------- ------ -- ----- -- ----- -- ---- ------<br>--- state --- --- ------ -------- ----- --- ------ ----- --<br>----- ----- ---------- --- --- ------ ------ ---- -- ------<br>------- --- ------ ----- --- ---- ------- -- ---- --- --<br>------- ------,180847.80000000075,180841.70000000112,180513.767,180513.20000000112,180530.424,180863.591,,23,state
screen,html.Screen,2_1_1_1_24,2022-02-01T14:31:53.416Z,,,,,,,,,,,,,,,,,54,,,,,,,,,,,,,,327.20900000075926,,response,,,,100,,,,,,,Space,keypress(Space),,,,,,,,-- --- ---- --- ------ ----- ------- ---- -- --- ------- --<br>------- ---------- ------ -- ----- -- ----- -- ---- ------<br>--- ----- cut --- ------ -------- ----- --- ------ ----- --<br>----- ----- ---------- --- --- ------ ------ ---- -- ------<br>------- --- ------ ----- --- ---- ------- -- ---- --- --<br>------- ------,181194,181190.80000000075,180846.934,180848.80000000075,180863.591,181213.403,,24,cut
screen,html.Screen,2_1_1_1_25,2022-02-01T14:31:53.707Z,,,,,,,,,,,,,,,,,54,,,,,,,,,,,,,,263.9970000003814,,response,,,,100,,,,,,,Space,keypress(Space),,,,,,,,-- --- ---- --- ------ ----- ------- ---- -- --- ------- --<br>------- ---------- ------ -- ----- -- ----- -- ---- ------<br>--- ----- --- the ------ -------- ----- --- ------ ----- --<br>----- ----- ---------- --- --- ------ ------ ---- -- ------<br>------- --- ------ ----- --- ---- ------- -- ---- --- --<br>------- ------,181484.20000000112,181477.40000000037,181196.746,181194.59999999963,181213.403,181496.594,,25,the
screen,html.Screen,2_1_1_1_26,2022-02-01T14:31:53.997Z,,,,,,,,,,,,,,,,,54,,,,,,,,,,,,,,271.5059999996156,,response,,,,100,,,,,,,Space,keypress(Space),,,,,,,,-- --- ---- --- ------ ----- ------- ---- -- --- ------- --<br>------- ---------- ------ -- ----- -- ----- -- ---- ------<br>--- ----- --- --- bonds' -------- ----- --- ------ ----- --<br>----- ----- ---------- --- --- ------ ------ ---- -- ------<br>------- --- ------ ----- --- ---- ------- -- ---- --- --<br>------- ------,181774.09999999963,181768.09999999963,181479.937,181485.80000000075,181496.594,181779.777,,26,bonds'
screen,html.Screen,2_1_1_1_27,2022-02-01T14:31:54.413Z,,,,,,,,,,,,,,,,,54,,,,,,,,,,,,,,405.62300000037067,,response,,,,100,,,,,,,Space,keypress(Space),,,,,,,,-- --- ---- --- ------ ----- ------- ---- -- --- ------- --<br>------- ---------- ------ -- ----- -- ----- -- ---- ------<br>--- ----- --- --- ------ interest ----- --- ------ ----- --<br>----- ----- ---------- --- --- ------ ------ ---- -- ------<br>------- --- ------ ----- --- ---- ------- -- ---- --- --<br>------- ------,182190.70000000112,182185.40000000037,181763.12,181774.70000000112,181779.777,182196.223,,27,interest
screen,html.Screen,2_1_1_1_28,2022-02-01T14:31:54.772Z,,,,,,,,,,,,,,,,,54,,,,,,,,,,,,,,347.37699999962933,,response,,,,100,,,,,,,Space,keypress(Space),,,,,,,,-- --- ---- --- ------ ----- ------- ---- -- --- ------- --<br>------- ---------- ------ -- ----- -- ----- -- ---- ------<br>--- ----- --- --- ------ -------- rate. --- ------ ----- --<br>----- ----- ---------- --- --- ------ ------ ---- -- ------<br>------- --- ------ ----- --- ---- ------- -- ---- --- --<br>------- ------,182549.90000000037,182543.59999999963,182179.566,182191.90000000037,182196.223,182562.704,,28,rate.
screen,html.Screen,2_1_1_1_29,2022-02-01T14:31:55.058Z,,,,,,,,,,,,,,,,,54,,,,,,,,,,,,,,269.39599999962957,,response,,,,100,,,,,,,Space,keypress(Space),,,,,,,,-- --- ---- --- ------ ----- ------- ---- -- --- ------- --<br>------- ---------- ------ -- ----- -- ----- -- ---- ------<br>--- ----- --- --- ------ -------- ----- The ------ ----- --<br>----- ----- ---------- --- --- ------ ------ ---- -- ------<br>------- --- ------ ----- --- ---- ------- -- ---- --- --<br>------- ------,182835.70000000112,182832.09999999963,182546.047,182550.70000000112,182562.704,182845.894,,29,The
screen,html.Screen,2_1_1_1_30,2022-02-01T14:31:55.365Z,,,,,,,,,,,,,,,,,54,,,,,,,,,,,,,,292.60599999999977,,response,,,,100,,,,,,,Space,keypress(Space),,,,,,,,-- --- ---- --- ------ ----- ------- ---- -- --- ------- --<br>------- ---------- ------ -- ----- -- ----- -- ---- ------<br>--- ----- --- --- ------ -------- ----- --- market ----- --<br>----- ----- ---------- --- --- ------ ------ ---- -- ------<br>------- --- ------ ----- --- ---- ------- -- ---- --- --<br>------- ------,183142.20000000112,183138.5,182829.237,182836.20000000112,182845.894,183162.394,,30,market
screen,html.Screen,2_1_1_1_31,2022-02-01T14:31:55.697Z,,,,,,,,,,,,,,,,,54,,,,,,,,,,,,,,306.20599999962724,,response,,,,100,,,,,,,Space,keypress(Space),,,,,,,,-- --- ---- --- ------ ----- ------- ---- -- --- ------- --<br>------- ---------- ------ -- ----- -- ----- -- ---- ------<br>--- ----- --- --- ------ -------- ----- --- ------ value --<br>----- ----- ---------- --- --- ------ ------ ---- -- ------<br>------- --- ------ ----- --- ---- ------- -- ---- --- --<br>------- ------,183474.59999999963,183468.59999999963,183145.737,183143.30000000075,183162.394,183478.895,,31,value
screen,html.Screen,2_1_1_1_32,2022-02-01T14:31:56.030Z,,,,,,,,,,,,,,,,,54,,,,,,,,,,,,,,320.505000000383,,response,,,,100,,,,,,,Space,keypress(Space),,,,,,,,-- --- ---- --- ------ ----- ------- ---- -- --- ------- --<br>------- ---------- ------ -- ----- -- ----- -- ---- ------<br>--- ----- --- --- ------ -------- ----- --- ------ ----- of<br>----- ----- ---------- --- --- ------ ------ ---- -- ------<br>------- --- ------ ----- --- ---- ------- -- ---- --- --<br>------- ------,183807.30000000075,183799.40000000037,183462.238,183475.59999999963,183478.895,183812.057,,32,of
screen,html.Screen,2_1_1_1_33,2022-02-01T14:31:56.372Z,,,,,,,,,,,,,,,,,54,,,,,,,,,,,,,,333.6430000011169,,response,,,,100,,,,,,,Space,keypress(Space),,,,,,,,-- --- ---- --- ------ ----- ------- ---- -- --- ------- --<br>------- ---------- ------ -- ----- -- ----- -- ---- ------<br>--- ----- --- --- ------ -------- ----- --- ------ ----- --<br>these ----- ---------- --- --- ------ ------ ---- -- ------<br>------- --- ------ ----- --- ---- ------- -- ---- --- --<br>------- ------,184149.40000000037,184145.70000000112,183795.4,183807.59999999963,183812.057,184161.868,,33,these
screen,html.Screen,2_1_1_1_34,2022-02-01T14:31:56.464Z,,,,,,,,,,,,,,,,,54,,,,,,,,,,,,,,76.4320000007574,,response,,,,100,,,,,,,Space,keypress(Space),,,,,,,,-- --- ---- --- ------ ----- ------- ---- -- --- ------- --<br>------- ---------- ------ -- ----- -- ----- -- ---- ------<br>--- ----- --- --- ------ -------- ----- --- ------ ----- --<br>----- bonds ---------- --- --- ------ ------ ---- -- ------<br>------- --- ------ ----- --- ---- ------- -- ---- --- --<br>------- ------,184241.30000000075,184238.30000000075,184145.211,184150.40000000037,184161.868,184261.836,,34,bonds
screen,html.Screen,2_1_1_1_35,2022-02-01T14:31:57.213Z,,,,,,,,,,,,,,,,,54,,,,,,,,,,,,,,722.8640000011073,,response,,,,100,,,,,,,Space,keypress(Space),,,,,,,,"-- --- ---- --- ------ ----- ------- ---- -- --- ------- --<br>------- ---------- ------ -- ----- -- ----- -- ---- ------<br>--- ----- --- --- ------ -------- ----- --- ------ ----- --<br>----- ----- plummeted, --- --- ------ ------ ---- -- ------<br>------- --- ------ ----- --- ---- ------- -- ---- --- --<br>------- ------",184990.5,184984.70000000112,184245.179,184242,184261.836,184994.754,,35,"plummeted,"
screen,html.Screen,2_1_1_1_36,2022-02-01T14:31:57.598Z,,,,,,,,,,,,,,,,,54,,,,,,,,,,,,,,375.8459999996412,,response,,,,100,,,,,,,Space,keypress(Space),,,,,,,,-- --- ---- --- ------ ----- ------- ---- -- --- ------- --<br>------- ---------- ------ -- ----- -- ----- -- ---- ------<br>--- ----- --- --- ------ -------- ----- --- ------ ----- --<br>----- ----- ---------- and --- ------ ------ ---- -- ------<br>------- --- ------ ----- --- ---- ------- -- ---- --- --<br>------- ------,185375.20000000112,185370.59999999963,184978.097,184991.20000000112,184994.754,185394.559,,36,and
screen,html.Screen,2_1_1_1_37,2022-02-01T14:31:57.907Z,,,,,,,,,,,,,,,,,54,,,,,,,,,,,,,,287.1410000011092,,response,,,,100,,,,,,,Space,keypress(Space),,,,,,,,-- --- ---- --- ------ ----- ------- ---- -- --- ------- --<br>------- ---------- ------ -- ----- -- ----- -- ---- ------<br>--- ----- --- --- ------ -------- ----- --- ------ ----- --<br>----- ----- ---------- --- the ------ ------ ---- -- ------<br>------- --- ------ ----- --- ---- ------- -- ---- --- --<br>------- ------,185684.90000000037,185681.70000000112,185377.902,185376.40000000037,185394.559,185694.415,,37,the
screen,html.Screen,2_1_1_1_38,2022-02-01T14:31:58.265Z,,,,,,,,,,,,,,,,,54,,,,,,,,,,,,,,345.4850000003644,,response,,,,100,,,,,,,Space,keypress(Space),,,,,,,,-- --- ---- --- ------ ----- ------- ---- -- --- ------- --<br>------- ---------- ------ -- ----- -- ----- -- ---- ------<br>--- ----- --- --- ------ -------- ----- --- ------ ----- --<br>----- ----- ---------- --- --- market ------ ---- -- ------<br>------- --- ------ ----- --- ---- ------- -- ---- --- --<br>------- ------,186042.30000000075,186039.90000000037,185677.758,185685.20000000112,185694.415,186060.876,,38,market
screen,html.Screen,2_1_1_1_39,2022-02-01T14:31:58.582Z,,,,,,,,,,,,,,,,,54,,,,,,,,,,,,,,294.1240000000107,,response,,,,100,,,,,,,Space,keypress(Space),,,,,,,,-- --- ---- --- ------ ----- ------- ---- -- --- ------- --<br>------- ---------- ------ -- ----- -- ----- -- ---- ------<br>--- ----- --- --- ------ -------- ----- --- ------ ----- --<br>----- ----- ---------- --- --- ------ became ---- -- ------<br>------- --- ------ ----- --- ---- ------- -- ---- --- --<br>------- ------,186359.5,186355,186044.219,186042.59999999963,186060.876,186377.388,,39,became
screen,html.Screen,2_1_1_1_40,2022-02-01T14:31:58.879Z,,,,,,,,,,,,,,,,,54,,,,,,,,,,,,,,275.51200000036624,,response,,,,100,,,,,,,Space,keypress(Space),,,,,,,,-- --- ---- --- ------ ----- ------- ---- -- --- ------- --<br>------- ---------- ------ -- ----- -- ----- -- ---- ------<br>--- ----- --- --- ------ -------- ----- --- ------ ----- --<br>----- ----- ---------- --- --- ------ ------ wary -- ------<br>------- --- ------ ----- --- ---- ------- -- ---- --- --<br>------- ------,186656.20000000112,186652.90000000037,186360.731,186360.70000000112,186377.388,186660.571,,40,wary
screen,html.Screen,2_1_1_1_41,2022-02-01T14:31:59.162Z,,,,,,,,,,,,,,,,,54,,,,,,,,,,,,,,276.2290000007488,,response,,,,100,,,,,,,Space,keypress(Space),,,,,,,,-- --- ---- --- ------ ----- ------- ---- -- --- ------- --<br>------- ---------- ------ -- ----- -- ----- -- ---- ------<br>--- ----- --- --- ------ -------- ----- --- ------ ----- --<br>----- ----- ---------- --- --- ------ ------ ---- of ------<br>------- --- ------ ----- --- ---- ------- -- ---- --- --<br>------- ------,186939.80000000075,186936.80000000075,186643.914,186656.80000000075,186660.571,186943.765,,41,of
screen,html.Screen,2_1_1_1_42,2022-02-01T14:31:59.486Z,,,,,,,,,,,,,,,,,54,,,,,,,,,,,,,,315.9350000011036,,response,,,,100,,,,,,,Space,keypress(Space),,,,,,,,-- --- ---- --- ------ ----- ------- ---- -- --- ------- --<br>------- ---------- ------ -- ----- -- ----- -- ---- ------<br>--- ----- --- --- ------ -------- ----- --- ------ ----- --<br>----- ----- ---------- --- --- ------ ------ ---- -- French<br>------- --- ------ ----- --- ---- ------- -- ---- --- --<br>------- ------,187263.90000000037,187259.70000000112,186927.108,186940.30000000075,186943.765,187276.908,,42,French
screen,html.Screen,2_1_1_1_43,2022-02-01T14:31:59.766Z,,,,,,,,,,,,,,,,,54,,,,,,,,,,,,,,262.89200000074925,,response,,,,100,,,,,,,Space,keypress(Space),,,,,,,,-- --- ---- --- ------ ----- ------- ---- -- --- ------- --<br>------- ---------- ------ -- ----- -- ----- -- ---- ------<br>--- ----- --- --- ------ -------- ----- --- ------ ----- --<br>----- ----- ---------- --- --- ------ ------ ---- -- ------<br>credit. --- ------ ----- --- ---- ------- -- ---- --- --<br>------- ------,187543.59999999963,187539.80000000075,187260.251,187264.40000000037,187276.908,187560.11,,43,credit.
screen,html.Screen,2_1_1_1_44,2022-02-01T14:32:00.130Z,,,,,,,,,,,,,,,,,54,,,,,,,,,,,,,,344.7900000003865,,response,,,,100,,,,,,,Space,keypress(Space),,,,,,,,-- --- ---- --- ------ ----- ------- ---- -- --- ------- --<br>------- ---------- ------ -- ----- -- ----- -- ---- ------<br>--- ----- --- --- ------ -------- ----- --- ------ ----- --<br>----- ----- ---------- --- --- ------ ------ ---- -- ------<br>------- The ------ ----- --- ---- ------- -- ---- --- --<br>------- ------,187908.09999999963,187904.90000000037,187543.453,187544.09999999963,187560.11,187926.578,,44,The
screen,html.Screen,2_1_1_1_45,2022-02-01T14:32:00.467Z,,,,,,,,,,,,,,,,,54,,,,,,,,,,,,,,314.52199999961886,,response,,,,100,,,,,,,Space,keypress(Space),,,,,,,,-- --- ---- --- ------ ----- ------- ---- -- --- ------- --<br>------- ---------- ------ -- ----- -- ----- -- ---- ------<br>--- ----- --- --- ------ -------- ----- --- ------ ----- --<br>----- ----- ---------- --- --- ------ ------ ---- -- ------<br>------- --- French ----- --- ---- ------- -- ---- --- --<br>------- ------,188245,188241.09999999963,187909.921,187908.5,187926.578,188259.739,,45,French
screen,html.Screen,2_1_1_1_46,2022-02-01T14:32:00.778Z,,,,,,,,,,,,,,,,,54,,,,,,,,,,,,,,289.66100000037113,,response,,,,100,,,,,,,Space,keypress(Space),,,,,,,,-- --- ---- --- ------ ----- ------- ---- -- --- ------- --<br>------- ---------- ------ -- ----- -- ----- -- ---- ------<br>--- ----- --- --- ------ -------- ----- --- ------ ----- --<br>----- ----- ---------- --- --- ------ ------ ---- -- ------<br>------- --- ------ state --- ---- ------- -- ---- --- --<br>------- ------,188556.09999999963,188549.40000000037,188243.082,188245.5,188259.739,188559.584,,46,state
screen,html.Screen,2_1_1_1_47,2022-02-01T14:32:01.112Z,,,,,,,,,,,,,,,,,54,,,,,,,,,,,,,,327.31600000036997,,response,,,,100,,,,,,,Space,keypress(Space),,,,,,,,-- --- ---- --- ------ ----- ------- ---- -- --- ------- --<br>------- ---------- ------ -- ----- -- ----- -- ---- ------<br>--- ----- --- --- ------ -------- ----- --- ------ ----- --<br>----- ----- ---------- --- --- ------ ------ ---- -- ------<br>------- --- ------ ----- was ---- ------- -- ---- --- --<br>------- ------,188889.20000000112,188886.90000000037,188542.927,188556.5,188559.584,188892.732,,47,was
screen,html.Screen,2_1_1_1_48,2022-02-01T14:32:01.402Z,,,,,,,,,,,,,,,,,54,,,,,,,,,,,,,,283.3679999996384,,response,,,,100,,,,,,,Space,keypress(Space),,,,,,,,-- --- ---- --- ------ ----- ------- ---- -- --- ------- --<br>------- ---------- ------ -- ----- -- ----- -- ---- ------<br>--- ----- --- --- ------ -------- ----- --- ------ ----- --<br>----- ----- ---------- --- --- ------ ------ ---- -- ------<br>------- --- ------ ----- --- left ------- -- ---- --- --<br>------- ------,189179.5,189176.09999999963,188876.075,188889.5,188892.732,189192.583,,48,left
screen,html.Screen,2_1_1_1_49,2022-02-01T14:32:01.647Z,,,,,,,,,,,,,,,,,54,,,,,,,,,,,,,,229.0169999996142,,response,,,,100,,,,,,,Space,keypress(Space),,,,,,,,-- --- ---- --- ------ ----- ------- ---- -- --- ------- --<br>------- ---------- ------ -- ----- -- ----- -- ---- ------<br>--- ----- --- --- ------ -------- ----- --- ------ ----- --<br>----- ----- ---------- --- --- ------ ------ ---- -- ------<br>------- --- ------ ----- --- ---- without -- ---- --- --<br>------- ------,189425,189421.59999999963,189175.926,189179.70000000112,189192.583,189442.452,,49,without
screen,html.Screen,2_1_1_1_50,2022-02-01T14:32:01.907Z,,,,,,,,,,,,,,,,,54,,,,,,,,,,,,,,236.74800000112737,,response,,,,100,,,,,,,Space,keypress(Space),,,,,,,,-- --- ---- --- ------ ----- ------- ---- -- --- ------- --<br>------- ---------- ------ -- ----- -- ----- -- ---- ------<br>--- ----- --- --- ------ -------- ----- --- ------ ----- --<br>----- ----- ---------- --- --- ------ ------ ---- -- ------<br>------- --- ------ ----- --- ---- ------- an ---- --- --<br>------- ------,189685,189679.20000000112,189425.795,189426.09999999963,189442.452,189692.333,,50,an
screen,html.Screen,2_1_1_1_51,2022-02-01T14:32:02.183Z,,,,,,,,,,,,,,,,,54,,,,,,,,,,,,,,260.56700000035926,,response,,,,100,,,,,,,Space,keypress(Space),,,,,,,,-- --- ---- --- ------ ----- ------- ---- -- --- ------- --<br>------- ---------- ------ -- ----- -- ----- -- ---- ------<br>--- ----- --- --- ------ -------- ----- --- ------ ----- --<br>----- ----- ---------- --- --- ------ ------ ---- -- ------<br>------- --- ------ ----- --- ---- ------- -- easy --- --<br>------- ------,189960.09999999963,189952.90000000037,189675.676,189685.80000000075,189692.333,189975.518,,51,easy
screen,html.Screen,2_1_1_1_52,2022-02-01T14:32:02.519Z,,,,,,,,,,,,,,,,,54,,,,,,,,,,,,,,313.7820000007341,,response,,,,100,,,,,,,Space,keypress(Space),,,,,,,,-- --- ---- --- ------ ----- ------- ---- -- --- ------- --<br>------- ---------- ------ -- ----- -- ----- -- ---- ------<br>--- ----- --- --- ------ -------- ----- --- ------ ----- --<br>----- ----- ---------- --- --- ------ ------ ---- -- ------<br>------- --- ------ ----- --- ---- ------- -- ---- way --<br>------- ------,190296.30000000075,190289.30000000075,189958.861,189960.59999999963,189975.518,190308.666,,52,way
screen,html.Screen,2_1_1_1_53,2022-02-01T14:32:02.787Z,,,,,,,,,,,,,,,,,54,,,,,,,,,,,,,,249.93399999963003,,response,,,,100,,,,,,,Space,keypress(Space),,,,,,,,-- --- ---- --- ------ ----- ------- ---- -- --- ------- --<br>------- ---------- ------ -- ----- -- ----- -- ---- ------<br>--- ----- --- --- ------ -------- ----- --- ------ ----- --<br>----- ----- ---------- --- --- ------ ------ ---- -- ------<br>------- --- ------ ----- --- ---- ------- -- ---- --- of<br>------- ------,190564.59999999963,190558.59999999963,190292.009,190297,190308.666,190575.205,,53,of
screen,html.Screen,2_1_1_1_54,2022-02-01T14:32:03.331Z,,,,,,,,,,,,,,,,,54,,,,,,,,,,,,,,514.8949999996403,,response,,,,100,,,,,,,Space,keypress(Space),,,,,,,,-- --- ---- --- ------ ----- ------- ---- -- --- ------- --<br>------- ---------- ------ -- ----- -- ----- -- ---- ------<br>--- ----- --- --- ------ -------- ----- --- ------ ----- --<br>----- ----- ---------- --- --- ------ ------ ---- -- ------<br>------- --- ------ ----- --- ---- ------- -- ---- --- --<br>raising ------,191108.40000000037,191090.09999999963,190558.548,190565.30000000075,190575.205,191124.921,,54,raising
screen,html.Screen,2_1_1_1_55,2022-02-01T14:32:03.885Z,,,,,,,,,,,,,,,,,54,,,,,,,,,,,,,,533.6789999996254,,response,,,,100,,,,,,,Space,keypress(Space),,,,,,,,-- --- ---- --- ------ ----- ------- ---- -- --- ------- --<br>------- ---------- ------ -- ----- -- ----- -- ---- ------<br>--- ----- --- --- ------ -------- ----- --- ------ ----- --<br>----- ----- ---------- --- --- ------ ------ ---- -- ------<br>------- --- ------ ----- --- ---- ------- -- ---- --- --<br>------- money.,191662.70000000112,191658.59999999963,191108.264,191109.30000000075,191124.921,191674.607,,55,money.
Item 100,flow.Loop,2_1_1_1,2022-02-01T14:32:03.886Z,,,,,,,,,,,,,,,,,,,,,,,,,,,,,,,21239.60699999964,,completion,,,,,F,,,,,,,,,,,silence,,,,,191663.90000000037,191658.59999999963,170402.336,170404.40000000037,170418.993,191674.607,,,
Question 1,html.Screen,2_1_1_2,2022-02-01T14:32:05.842Z,,,,,,,,,,,,,,,,,,,,,,,,,,,,true,TRUE,,1941.693000000756,,response,,,,100,F,,,,,,TRUE,click #choice-1,,,,silence,,,,,193619.90000000037,193616.30000000075,191657.95,191664.20000000112,191674.607,193623.607,,,
Question 2,html.Screen,2_1_1_3,2022-02-01T14:32:08.508Z,,,,,,,,,,,,,,,,,,,,,,,,,,,,true,FALSE,,2657.693000000756,,response,,,,100,F,,,,,,FALSE,click #choice-2,,,,silence,,,,,196285.30000000075,196281.30000000075,193606.95,193620.70000000112,193623.607,196288.884,,,
Item 100,flow.Sequence,2_1_1,2022-02-01T14:32:08.509Z,,,,,,,,,,,,,,,,,,,,,,,,,,,,,,,35857.059000000736,,completion,,,,,,,,,,,,,,,,,,,,,196287,196281.30000000075,160407.584,160412.5,160424.241,196288.884,,,
End of Practice,html.Page,2_1_2,2022-02-01T14:32:13.162Z,,,,,,,,,,,,,,,,,,,,,,,,,,,,,,,4649.316000001127,,form submission,,,,,,,,,,,,,,,,,,,,,200940,200938.20000000112,196272.227,196287.90000000037,196288.884,200936.466,,,
Practice,flow.Sequence,2_1,2022-02-01T14:32:13.164Z,,,,,,,,,,,,,,,,,,,,,,,,,,,,,,,80277.40200000112,,completion,,,,,,,,,,,,,,,,,,,,,200941.09999999963,200938.20000000112,120644.141,120658.80000000075,120660.798,200936.466,,,
Trap_instruction,html.Page,2_2_0,2022-02-01T14:32:16.431Z,,,,,,,,,,,,,,,,,,,,,,,,,,,,,,,3271.034000000014,,form submission,,,,,,,,,,,,,,,,,,,,,204209,204207.5,200919.809,200941.5,200936.466,204268.023,,,
trap_trial,html.Screen,2_2_1,2022-02-01T14:32:19.716Z,,,,,,,,,,,,,,,,,,,,,,,,,,,,true,1,,3222.2770000007586,,response,,,,,,,,,,,1,click #choice-1,,,,,,,,,207493.59999999963,207490.30000000075,204201.395,204210,204268.023,207516.263,,,
end of trap trial,html.Page,2_2_2,2022-02-01T14:32:21.384Z,,,,,,,,,,,,,,,,,,,,,,,,,,,,,,,1644.6370000003662,,form submission,,,,,,,,,,,,,,,,,,,,,209162,209160.90000000037,207499.606,207494.09999999963,207516.263,209165.523,,,
Trap 1,flow.Sequence,2_2,2022-02-01T14:32:21.387Z,,,,,,,,,,,,,,,,,,,,,,,,,,,,,,,8224.434000000387,,completion,,,,,,,,,,,,,,,,,,,,,209164.80000000075,209160.90000000037,200919.809,200941.40000000037,200936.466,209165.523,,,
Standby,html.Page,2_3_0,2022-02-01T14:32:29.370Z,,,,,,,,,,,,,,,,,,,,,,,,,,,,,,,7995.394,,timeout,,,,,,,,,,,,,,,,,,,,,217147.20000000112,217144.26,209148.866,209165.59999999963,209165.523,217160.917,,,
Holding screen,html.Screen,2_3_1_0_0,2022-02-01T14:32:36.366Z,,,,,,,,,,,,,,,,,,,,,,,,,,,,,,,6996.784000000014,,timeout,,,,,,,,,,,,,,,,,,,,,224143.80000000075,224141.044,217144.26,217148.80000000075,217160.917,224157.701,,,
screen,html.Screen,2_3_1_0_1_0,2022-02-01T14:32:38.694Z,,,,,,,,,,,,,,,,,11,,,,,,,,,,,,,,2309.9990000011167,,response,,,,4,F,,,,,,Space,keypress(Space),,,,instrumental,,,,Known -- ---- --- -- --- -------- ------------ ---------- --<br>- ------- ------ --------- -- ------------ -- --- ---- -----<br>------ ---- ---- ------ ------ ------- --- ----- ---------<br>---- --- -------- -------- --- --- -- ------- --- --- -----<br>-- --- ------ ------- --- --- -------- ---- --------- --<br>---------- -- -------- ----------------,226471.90000000037,226467.70000000112,224141.044,224145.09999999963,224157.701,226473.176,,0,Known
screen,html.Screen,2_3_1_0_1_1,2022-02-01T14:32:39.215Z,,,,,,,,,,,,,,,,,11,,,,,,,,,,,,,,517.5240000011108,,response,,,,4,F,,,,,,Space,keypress(Space),,,,instrumental,,,,----- as ---- --- -- --- -------- ------------ ---------- --<br>- ------- ------ --------- -- ------------ -- --- ---- -----<br>------ ---- ---- ------ ------ ------- --- ----- ---------<br>---- --- -------- -------- --- --- -- ------- --- --- -----<br>-- --- ------ ------- --- --- -------- ---- --------- --<br>---------- -- -------- ----------------,226992.80000000075,226990.70000000112,226456.519,226472.5,226473.176,227006.203,,1,as
screen,html.Screen,2_3_1_0_1_2,2022-02-01T14:32:40.053Z,,,,,,,,,,,,,,,,,11,,,,,,,,,,,,,,819.3969999996189,,response,,,,4,F,,,,,,Space,keypress(Space),,,,instrumental,,,,----- -- Rapa --- -- --- -------- ------------ ---------- --<br>- ------- ------ --------- -- ------------ -- --- ---- -----<br>------ ---- ---- ------ ------ ------- --- ----- ---------<br>---- --- -------- -------- --- --- -- ------- --- --- -----<br>-- --- ------ ------- --- --- -------- ---- --------- --<br>---------- -- -------- ----------------,227830.5,227825.59999999963,226989.546,226993,227006.203,227839.083,,2,Rapa
screen,html.Screen,2_3_1_0_1_3,2022-02-01T14:32:40.653Z,,,,,,,,,,,,,,,,,11,,,,,,,,,,,,,,588.3170000003593,,response,,,,4,F,,,,,,Space,keypress(Space),,,,instrumental,,,,----- -- ---- Nui -- --- -------- ------------ ---------- --<br>- ------- ------ --------- -- ------------ -- --- ---- -----<br>------ ---- ---- ------ ------ ------- --- ----- ---------<br>---- --- -------- -------- --- --- -- ------- --- --- -----<br>-- --- ------ ------- --- --- -------- ---- --------- --<br>---------- -- -------- ----------------,228430.80000000075,228427.40000000037,227822.426,227832,227839.083,228438.785,,3,Nui
screen,html.Screen,2_3_1_0_1_4,2022-02-01T14:32:41.183Z,,,,,,,,,,,,,,,,,11,,,,,,,,,,,,,,518.0150000007416,,response,,,,4,F,,,,,,Space,keypress(Space),,,,instrumental,,,,----- -- ---- --- to --- -------- ------------ ---------- --<br>- ------- ------ --------- -- ------------ -- --- ---- -----<br>------ ---- ---- ------ ------ ------- --- ----- ---------<br>---- --- -------- -------- --- --- -- ------- --- --- -----<br>-- --- ------ ------- --- --- -------- ---- --------- --<br>---------- -- -------- ----------------,228960.70000000112,228956.80000000075,228422.128,228431.30000000075,228438.785,228971.839,,4,to
screen,html.Screen,2_3_1_0_1_5,2022-02-01T14:32:41.557Z,,,,,,,,,,,,,,,,,11,,,,,,,,,,,,,,358.96100000073784,,response,,,,4,F,,,,,,Space,keypress(Space),,,,instrumental,,,,----- -- ---- --- -- the -------- ------------ ---------- --<br>- ------- ------ --------- -- ------------ -- --- ---- -----<br>------ ---- ---- ------ ------ ------- --- ----- ---------<br>---- --- -------- -------- --- --- -- ------- --- --- -----<br>-- --- ------ ------- --- --- -------- ---- --------- --<br>---------- -- -------- ----------------,229334.70000000112,229330.80000000075,228955.182,228961.59999999963,228971.839,229338.33,,5,the
screen,html.Screen,2_3_1_0_1_6,2022-02-01T14:32:41.962Z,,,,,,,,,,,,,,,,,11,,,,,,,,,,,,,,395.6700000000128,,response,,,,4,F,,,,,,Space,keypress(Space),,,,instrumental,,,,----- -- ---- --- -- --- island's ------------ ---------- --<br>- ------- ------ --------- -- ------------ -- --- ---- -----<br>------ ---- ---- ------ ------ ------- --- ----- ---------<br>---- --- -------- -------- --- --- -- ------- --- --- -----<br>-- --- ------ ------- --- --- -------- ---- --------- --<br>---------- -- -------- ----------------,229739.20000000112,229734,229321.673,229335.20000000112,229338.33,229754.781,,6,island's
screen,html.Screen,2_3_1_0_1_7,2022-02-01T14:32:42.422Z,,,,,,,,,,,,,,,,,11,,,,,,,,,,,,,,442.2190000000119,,response,,,,4,F,,,,,,Space,keypress(Space),,,,instrumental,,,,"----- -- ---- --- -- --- -------- inhabitants, ---------- --<br>- ------- ------ --------- -- ------------ -- --- ---- -----<br>------ ---- ---- ------ ------ ------- --- ----- ---------<br>---- --- -------- -------- --- --- -- ------- --- --- -----<br>-- --- ------ ------- --- --- -------- ---- --------- --<br>---------- -- -------- ----------------",230199.59999999963,230197,229738.124,229740,229754.781,230204.546,,7,"inhabitants,"
screen,html.Screen,2_3_1_0_1_8,2022-02-01T14:32:42.933Z,,,,,,,,,,,,,,,,,11,,,,,,,,,,,,,,502.4539999999979,,response,,,,4,F,,,,,,Space,keypress(Space),,,,instrumental,,,,----- -- ---- --- -- --- -------- ------------ Rongorongo --<br>- ------- ------ --------- -- ------------ -- --- ---- -----<br>------ ---- ---- ------ ------ ------- --- ----- ---------<br>---- --- -------- -------- --- --- -- ------- --- --- -----<br>-- --- ------ ------- --- --- -------- ---- --------- --<br>---------- -- -------- ----------------,230710.80000000075,230707,230187.889,230200,230204.546,230720.939,,8,Rongorongo
screen,html.Screen,2_3_1_0_1_9,2022-02-01T14:32:43.378Z,,,,,,,,,,,,,,,,,11,,,,,,,,,,,,,,428.76100000110455,,response,,,,4,F,,,,,,Space,keypress(Space),,,,instrumental,,,,----- -- ---- --- -- --- -------- ------------ ---------- is<br>- ------- ------ --------- -- ------------ -- --- ---- -----<br>------ ---- ---- ------ ------ ------- --- ----- ---------<br>---- --- -------- -------- --- --- -- ------- --- --- -----<br>-- --- ------ ------- --- --- -------- ---- --------- --<br>---------- -- -------- ----------------,231155.09999999963,231149.70000000112,230704.282,230711.09999999963,230720.939,231170.703,,9,is
screen,html.Screen,2_3_1_0_1_10,2022-02-01T14:32:43.780Z,,,,,,,,,,,,,,,,,11,,,,,,,,,,,,,,380.6970000003639,,response,,,,4,F,,,,,,Space,keypress(Space),,,,instrumental,,,,----- -- ---- --- -- --- -------- ------------ ---------- --<br>a ------- ------ --------- -- ------------ -- --- ---- -----<br>------ ---- ---- ------ ------ ------- --- ----- ---------<br>---- --- -------- -------- --- --- -- ------- --- --- -----<br>-- --- ------ ------- --- --- -------- ---- --------- --<br>---------- -- -------- ----------------,231557.70000000112,231551.40000000037,231154.046,231155.90000000037,231170.703,231570.497,,10,a
screen,html.Screen,2_3_1_0_1_11,2022-02-01T14:32:44.208Z,,,,,,,,,,,,,,,,,11,,,,,,,,,,,,,,411.10299999962444,,response,,,,4,F,,,,,,Space,keypress(Space),,,,instrumental,,,,----- -- ---- --- -- --- -------- ------------ ---------- --<br>- writing ------ --------- -- ------------ -- --- ---- -----<br>------ ---- ---- ------ ------ ------- --- ----- ---------<br>---- --- -------- -------- --- --- -- ------- --- --- -----<br>-- --- ------ ------- --- --- -------- ---- --------- --<br>---------- -- -------- ----------------,231985.90000000037,231981.59999999963,231553.84,231558.30000000075,231570.497,232003.61,,11,writing
screen,html.Screen,2_3_1_0_1_12,2022-02-01T14:32:44.695Z,,,,,,,,,,,,,,,,,11,,,,,,,,,,,,,,465.7900000003865,,response,,,,4,F,,,,,,Space,keypress(Space),,,,instrumental,,,,----- -- ---- --- -- --- -------- ------------ ---------- --<br>- ------- system --------- -- ------------ -- --- ---- -----<br>------ ---- ---- ------ ------ ------- --- ----- ---------<br>---- --- -------- -------- --- --- -- ------- --- --- -----<br>-- --- ------ ------- --- --- -------- ---- --------- --<br>---------- -- -------- ----------------,232472.5,232469.40000000037,231986.953,231986.59999999963,232003.61,232486.681,,12,system
screen,html.Screen,2_3_1_0_1_13,2022-02-01T14:32:45.222Z,,,,,,,,,,,,,,,,,11,,,,,,,,,,,,,,508.0190000011062,,response,,,,4,F,,,,,,Space,keypress(Space),,,,instrumental,,,,----- -- ---- --- -- --- -------- ------------ ---------- --<br>- ------- ------ comprised -- ------------ -- --- ---- -----<br>------ ---- ---- ------ ------ ------- --- ----- ---------<br>---- --- -------- -------- --- --- -- ------- --- --- -----<br>-- --- ------ ------- --- --- -------- ---- --------- --<br>---------- -- -------- ----------------,233000,232994.70000000112,232470.024,232472.90000000037,232486.681,233003.085,,13,comprised
screen,html.Screen,2_3_1_0_1_14,2022-02-01T14:32:45.602Z,,,,,,,,,,,,,,,,,11,,,,,,,,,,,,,,374.11500000112574,,response,,,,4,F,,,,,,Space,keypress(Space),,,,instrumental,,,,----- -- ---- --- -- --- -------- ------------ ---------- --<br>- ------- ------ --------- of ------------ -- --- ---- -----<br>------ ---- ---- ------ ------ ------- --- ----- ---------<br>---- --- -------- -------- --- --- -- ------- --- --- -----<br>-- --- ------ ------- --- --- -------- ---- --------- --<br>---------- -- -------- ----------------,233379.90000000037,233377.20000000112,232986.428,233000.40000000037,233003.085,233386.214,,14,of
screen,html.Screen,2_3_1_0_1_15,2022-02-01T14:32:46.031Z,,,,,,,,,,,,,,,,,11,,,,,,,,,,,,,,417.08600000073784,,response,,,,4,F,,,,,,Space,keypress(Space),,,,instrumental,,,,----- -- ---- --- -- --- -------- ------------ ---------- --<br>- ------- ------ --------- -- pictographs. -- --- ---- -----<br>------ ---- ---- ------ ------ ------- --- ----- ---------<br>---- --- -------- -------- --- --- -- ------- --- --- -----<br>-- --- ------ ------- --- --- -------- ---- --------- --<br>---------- -- -------- ----------------,233808.20000000112,233803.30000000075,233369.557,233380.20000000112,233386.214,233819.331,,15,pictographs.
screen,html.Screen,2_3_1_0_1_16,2022-02-01T14:32:46.462Z,,,,,,,,,,,,,,,,,11,,,,,,,,,,,,,,415.56900000036694,,response,,,,4,F,,,,,,Space,keypress(Space),,,,instrumental,,,,----- -- ---- --- -- --- -------- ------------ ---------- --<br>- ------- ------ --------- -- ------------ It --- ---- -----<br>------ ---- ---- ------ ------ ------- --- ----- ---------<br>---- --- -------- -------- --- --- -- ------- --- --- -----<br>-- --- ------ ------- --- --- -------- ---- --------- --<br>---------- -- -------- ----------------,234239.90000000037,234234.90000000037,233802.674,233808.5,233819.331,234252.437,,16,It
screen,html.Screen,2_3_1_0_1_17,2022-02-01T14:32:46.846Z,,,,,,,,,,,,,,,,,11,,,,,,,,,,,,,,367.1629999996221,,response,,,,4,F,,,,,,Space,keypress(Space),,,,instrumental,,,,----- -- ---- --- -- --- -------- ------------ ---------- --<br>- ------- ------ --------- -- ------------ -- has ---- -----<br>------ ---- ---- ------ ------ ------- --- ----- ---------<br>---- --- -------- -------- --- --- -- ------- --- --- -----<br>-- --- ------ ------- --- --- -------- ---- --------- --<br>---------- -- -------- ----------------,234623.80000000075,234619.59999999963,234235.78,234241,234252.437,234635.574,,17,has
screen,html.Screen,2_3_1_0_1_18,2022-02-01T14:32:47.236Z,,,,,,,,,,,,,,,,,11,,,,,,,,,,,,,,375.5259999996342,,response,,,,4,F,,,,,,Space,keypress(Space),,,,instrumental,,,,----- -- ---- --- -- --- -------- ------------ ---------- --<br>- ------- ------ --------- -- ------------ -- --- been -----<br>------ ---- ---- ------ ------ ------- --- ----- ---------<br>---- --- -------- -------- --- --- -- ------- --- --- -----<br>-- --- ------ ------- --- --- -------- ---- --------- --<br>---------- -- -------- ----------------,235014.09999999963,235011.09999999963,234618.917,234624.40000000037,234635.574,235018.698,,18,been
screen,html.Screen,2_3_1_0_1_19,2022-02-01T14:32:47.675Z,,,,,,,,,,,,,,,,,11,,,,,,,,,,,,,,430.6020000007411,,response,,,,4,F,,,,,,Space,keypress(Space),,,,instrumental,,,,----- -- ---- --- -- --- -------- ------------ ---------- --<br>- ------- ------ --------- -- ------------ -- --- ---- found<br>------ ---- ---- ------ ------ ------- --- ----- ---------<br>---- --- -------- -------- --- --- -- ------- --- --- -----<br>-- --- ------ ------- --- --- -------- ---- --------- --<br>---------- -- -------- ----------------,235452.80000000075,235449.30000000075,235002.041,235014.40000000037,235018.698,235468.468,,19,found
screen,html.Screen,2_3_1_0_1_20,2022-02-01T14:32:48.047Z,,,,,,,,,,,,,,,,,11,,,,,,,,,,,,,,351.2320000011241,,response,,,,4,F,,,,,,Space,keypress(Space),,,,instrumental,,,,----- -- ---- --- -- --- -------- ------------ ---------- --<br>- ------- ------ --------- -- ------------ -- --- ---- -----<br>carved ---- ---- ------ ------ ------- --- ----- ---------<br>---- --- -------- -------- --- --- -- ------- --- --- -----<br>-- --- ------ ------- --- --- -------- ---- --------- --<br>---------- -- -------- ----------------,235824.80000000075,235819.70000000112,235451.811,235453.5,235468.468,235834.951,,20,carved
screen,html.Screen,2_3_1_0_1_21,2022-02-01T14:32:48.460Z,,,,,,,,,,,,,,,,,11,,,,,,,,,,,,,,398.64899999962654,,response,,,,4,F,,,,,,Space,keypress(Space),,,,instrumental,,,,----- -- ---- --- -- --- -------- ------------ ---------- --<br>- ------- ------ --------- -- ------------ -- --- ---- -----<br>------ into ---- ------ ------ ------- --- ----- ---------<br>---- --- -------- -------- --- --- -- ------- --- --- -----<br>-- --- ------ ------- --- --- -------- ---- --------- --<br>---------- -- -------- ----------------,236238,236233.59999999963,235818.294,235825.80000000075,235834.951,236251.392,,21,into
screen,html.Screen,2_3_1_0_1_22,2022-02-01T14:32:48.862Z,,,,,,,,,,,,,,,,,11,,,,,,,,,,,,,,382.9080000007525,,response,,,,4,F,,,,,,Space,keypress(Space),,,,instrumental,,,,----- -- ---- --- -- --- -------- ------------ ---------- --<br>- ------- ------ --------- -- ------------ -- --- ---- -----<br>------ ---- many ------ ------ ------- --- ----- ---------<br>---- --- -------- -------- --- --- -- ------- --- --- -----<br>-- --- ------ ------- --- --- -------- ---- --------- --<br>---------- -- -------- ----------------,236640,236634.30000000075,236234.735,236238.5,236251.392,236651.184,,22,many
screen,html.Screen,2_3_1_0_1_23,2022-02-01T14:32:49.274Z,,,,,,,,,,,,,,,,,11,,,,,,,,,,,,,,395.71600000036415,,response,,,,4,F,,,,,,Space,keypress(Space),,,,instrumental,,,,----- -- ---- --- -- --- -------- ------------ ---------- --<br>- ------- ------ --------- -- ------------ -- --- ---- -----<br>------ ---- ---- oblong ------ ------- --- ----- ---------<br>---- --- -------- -------- --- --- -- ------- --- --- -----<br>-- --- ------ ------- --- --- -------- ---- --------- --<br>---------- -- -------- ----------------,237051.20000000112,237046.90000000037,236634.527,236641.09999999963,236651.184,237067.629,,23,oblong
screen,html.Screen,2_3_1_0_1_24,2022-02-01T14:32:49.653Z,,,,,,,,,,,,,,,,,11,,,,,,,,,,,,,,359.87100000001374,,response,,,,4,F,,,,,,Space,keypress(Space),,,,instrumental,,,,----- -- ---- --- -- --- -------- ------------ ---------- --<br>- ------- ------ --------- -- ------------ -- --- ---- -----<br>------ ---- ---- ------ wooden ------- --- ----- ---------<br>---- --- -------- -------- --- --- -- ------- --- --- -----<br>-- --- ------ ------- --- --- -------- ---- --------- --<br>---------- -- -------- ----------------,237431,237427.5,237050.972,237052.30000000075,237067.629,237450.763,,24,wooden
screen,html.Screen,2_3_1_0_1_25,2022-02-01T14:32:49.954Z,,,,,,,,,,,,,,,,,11,,,,,,,,,,,,,,278.13700000036624,,response,,,,4,F,,,,,,Space,keypress(Space),,,,instrumental,,,,----- -- ---- --- -- --- -------- ------------ ---------- --<br>- ------- ------ --------- -- ------------ -- --- ---- -----<br>------ ---- ---- ------ ------ tablets --- ----- ---------<br>---- --- -------- -------- --- --- -- ------- --- --- -----<br>-- --- ------ ------- --- --- -------- ---- --------- --<br>---------- -- -------- ----------------,237732,237728.90000000037,237434.106,237431.70000000112,237450.763,237750.613,,25,tablets
screen,html.Screen,2_3_1_0_1_26,2022-02-01T14:32:50.396Z,,,,,,,,,,,,,,,,,11,,,,,,,,,,,,,,420.48699999961536,,response,,,,4,F,,,,,,Space,keypress(Space),,,,instrumental,,,,----- -- ---- --- -- --- -------- ------------ ---------- --<br>- ------- ------ --------- -- ------------ -- --- ---- -----<br>------ ---- ---- ------ ------ ------- and ----- ---------<br>---- --- -------- -------- --- --- -- ------- --- --- -----<br>-- --- ------ ------- --- --- -------- ---- --------- --<br>---------- -- -------- ----------------,238173.5,238171.09999999963,237733.956,237732.59999999963,237750.613,238183.721,,26,and
screen,html.Screen,2_3_1_0_1_27,2022-02-01T14:32:50.816Z,,,,,,,,,,,,,,,,,11,,,,,,,,,,,,,,404.47900000112713,,response,,,,4,F,,,,,,Space,keypress(Space),,,,instrumental,,,,----- -- ---- --- -- --- -------- ------------ ---------- --<br>- ------- ------ --------- -- ------------ -- --- ---- -----<br>------ ---- ---- ------ ------ ------- --- other ---------<br>---- --- -------- -------- --- --- -- ------- --- --- -----<br>-- --- ------ ------- --- --- -------- ---- --------- --<br>---------- -- -------- ----------------,238593.40000000037,238588.20000000112,238167.064,238173.90000000037,238183.721,238600.169,,27,other
screen,html.Screen,2_3_1_0_1_28,2022-02-01T14:32:51.252Z,,,,,,,,,,,,,,,,,11,,,,,,,,,,,,,,425.7310000003781,,response,,,,4,F,,,,,,Space,keypress(Space),,,,instrumental,,,,----- -- ---- --- -- --- -------- ------------ ---------- --<br>- ------- ------ --------- -- ------------ -- --- ---- -----<br>------ ---- ---- ------ ------ ------- --- ----- artifacts<br>---- --- -------- -------- --- --- -- ------- --- --- -----<br>-- --- ------ ------- --- --- -------- ---- --------- --<br>---------- -- -------- ----------------,239029.09999999963,239025.90000000037,238583.512,238594.5,238600.169,239033.28,,28,artifacts
screen,html.Screen,2_3_1_0_1_29,2022-02-01T14:32:51.681Z,,,,,,,,,,,,,,,,,11,,,,,,,,,,,,,,421.72000000000116,,response,,,,4,F,,,,,,Space,keypress(Space),,,,instrumental,,,,----- -- ---- --- -- --- -------- ------------ ---------- --<br>- ------- ------ --------- -- ------------ -- --- ---- -----<br>------ ---- ---- ------ ------ ------- --- ----- ---------<br>from --- -------- -------- --- --- -- ------- --- --- -----<br>-- --- ------ ------- --- --- -------- ---- --------- --<br>---------- -- -------- ----------------,239458.20000000112,239455,239016.623,239029.70000000112,239033.28,239466.377,,29,from
screen,html.Screen,2_3_1_0_1_30,2022-02-01T14:32:52.092Z,,,,,,,,,,,,,,,,,11,,,,,,,,,,,,,,397.6229999999923,,response,,,,4,F,,,,,,Space,keypress(Space),,,,instrumental,,,,----- -- ---- --- -- --- -------- ------------ ---------- --<br>- ------- ------ --------- -- ------------ -- --- ---- -----<br>------ ---- ---- ------ ------ ------- --- ----- ---------<br>---- the -------- -------- --- --- -- ------- --- --- -----<br>-- --- ------ ------- --- --- -------- ---- --------- --<br>---------- -- -------- ----------------,239870.09999999963,239864,239449.72,239458.70000000112,239466.377,239882.831,,30,the
screen,html.Screen,2_3_1_0_1_31,2022-02-01T14:32:52.516Z,,,,,,,,,,,,,,,,,11,,,,,,,,,,,,,,405.96900000073947,,response,,,,4,F,,,,,,Space,keypress(Space),,,,instrumental,,,,----- -- ---- --- -- --- -------- ------------ ---------- --<br>- ------- ------ --------- -- ------------ -- --- ---- -----<br>------ ---- ---- ------ ------ ------- --- ----- ---------<br>---- --- island's -------- --- --- -- ------- --- --- -----<br>-- --- ------ ------- --- --- -------- ---- --------- --<br>---------- -- -------- ----------------,240293.70000000112,240288.80000000075,239866.174,239871.09999999963,239882.831,240299.282,,31,island's
screen,html.Screen,2_3_1_0_1_32,2022-02-01T14:32:52.839Z,,,,,,,,,,,,,,,,,11,,,,,,,,,,,,,,313.81799999962095,,response,,,,4,F,,,,,,Space,keypress(Space),,,,instrumental,,,,----- -- ---- --- -- --- -------- ------------ ---------- --<br>- ------- ------ --------- -- ------------ -- --- ---- -----<br>------ ---- ---- ------ ------ ------- --- ----- ---------<br>---- --- -------- history. --- --- -- ------- --- --- -----<br>-- --- ------ ------- --- --- -------- ---- --------- --<br>---------- -- -------- ----------------,240617,240613.09999999963,240282.625,240295.09999999963,240299.282,240632.443,,32,history.
screen,html.Screen,2_3_1_0_1_33,2022-02-01T14:32:53.337Z,,,,,,,,,,,,,,,,,11,,,,,,,,,,,,,,479.65699999962817,,response,,,,4,F,,,,,,Space,keypress(Space),,,,instrumental,,,,----- -- ---- --- -- --- -------- ------------ ---------- --<br>- ------- ------ --------- -- ------------ -- --- ---- -----<br>------ ---- ---- ------ ------ ------- --- ----- ---------<br>---- --- -------- -------- The --- -- ------- --- --- -----<br>-- --- ------ ------- --- --- -------- ---- --------- --<br>---------- -- -------- ----------------,241114.80000000075,241112.09999999963,240615.786,240618.40000000037,240632.443,241132.178,,33,The
screen,html.Screen,2_3_1_0_1_34,2022-02-01T14:32:53.904Z,,,,,,,,,,,,,,,,,11,,,,,,,,,,,,,,544.921999999613,,response,,,,4,F,,,,,,Space,keypress(Space),,,,instrumental,,,,----- -- ---- --- -- --- -------- ------------ ---------- --<br>- ------- ------ --------- -- ------------ -- --- ---- -----<br>------ ---- ---- ------ ------ ------- --- ----- ---------<br>---- --- -------- -------- --- art -- ------- --- --- -----<br>-- --- ------ ------- --- --- -------- ---- --------- --<br>---------- -- -------- ----------------,241681.59999999963,241677.09999999963,241115.521,241115.20000000112,241132.178,241698.536,,34,art
screen,html.Screen,2_3_1_0_1_35,2022-02-01T14:32:54.321Z,,,,,,,,,,,,,,,,,11,,,,,,,,,,,,,,397.0639999996347,,response,,,,4,F,,,,,,Space,keypress(Space),,,,instrumental,,,,----- -- ---- --- -- --- -------- ------------ ---------- --<br>- ------- ------ --------- -- ------------ -- --- ---- -----<br>------ ---- ---- ------ ------ ------- --- ----- ---------<br>---- --- -------- -------- --- --- of ------- --- --- -----<br>-- --- ------ ------- --- --- -------- ---- --------- --<br>---------- -- -------- ----------------,242099,242095.59999999963,241681.879,241682.20000000112,241698.536,242114.995,,35,of
screen,html.Screen,2_3_1_0_1_36,2022-02-01T14:32:54.777Z,,,,,,,,,,,,,,,,,11,,,,,,,,,,,,,,434.4050000003772,,response,,,,4,F,,,,,,Space,keypress(Space),,,,instrumental,,,,----- -- ---- --- -- --- -------- ------------ ---------- --<br>- ------- ------ --------- -- ------------ -- --- ---- -----<br>------ ---- ---- ------ ------ ------- --- ----- ---------<br>---- --- -------- -------- --- --- -- writing --- --- -----<br>-- --- ------ ------- --- --- -------- ---- --------- --<br>---------- -- -------- ----------------,242554.09999999963,242549.40000000037,242098.338,242099.40000000037,242114.995,242564.769,,36,writing
screen,html.Screen,2_3_1_0_1_37,2022-02-01T14:32:55.198Z,,,,,,,,,,,,,,,,,11,,,,,,,,,,,,,,401.5310000007448,,response,,,,4,F,,,,,,Space,keypress(Space),,,,instrumental,,,,----- -- ---- --- -- --- -------- ------------ ---------- --<br>- ------- ------ --------- -- ------------ -- --- ---- -----<br>------ ---- ---- ------ ------ ------- --- ----- ---------<br>---- --- -------- -------- --- --- -- ------- was --- -----<br>-- --- ------ ------- --- --- -------- ---- --------- --<br>---------- -- -------- ----------------,242975.09999999963,242966.30000000075,242548.112,242555.09999999963,242564.769,242981.212,,37,was
screen,html.Screen,2_3_1_0_1_38,2022-02-01T14:32:55.576Z,,,,,,,,,,,,,,,,,11,,,,,,,,,,,,,,368.98800000111805,,response,,,,4,F,,,,,,Space,keypress(Space),,,,instrumental,,,,----- -- ---- --- -- --- -------- ------------ ---------- --<br>- ------- ------ --------- -- ------------ -- --- ---- -----<br>------ ---- ---- ------ ------ ------- --- ----- ---------<br>---- --- -------- -------- --- --- -- ------- --- not -----<br>-- --- ------ ------- --- --- -------- ---- --------- --<br>---------- -- -------- ----------------,243353.59999999963,243350.20000000112,242964.555,242975.80000000075,242981.212,243364.355,,38,not
screen,html.Screen,2_3_1_0_1_39,2022-02-01T14:32:55.954Z,,,,,,,,,,,,,,,,,11,,,,,,,,,,,,,,363.744999999617,,response,,,,4,F,,,,,,Space,keypress(Space),,,,instrumental,,,,----- -- ---- --- -- --- -------- ------------ ---------- --<br>- ------- ------ --------- -- ------------ -- --- ---- -----<br>------ ---- ---- ------ ------ ------- --- ----- ---------<br>---- --- -------- -------- --- --- -- ------- --- --- known<br>-- --- ------ ------- --- --- -------- ---- --------- --<br>---------- -- -------- ----------------,243731.20000000112,243728.09999999963,243347.698,243354.40000000037,243364.355,243747.486,,39,known
