sender,sender_type,sender_id,timestamp,meta,,Blues,Classical,Country,Dance,Electronic,Folk,Gospel,Hip-Hop,Jazz,Latin,Musical/Film,New-age,Pop,Prolific_id,Provo_ID,R&B,Rap,Reggae,Religious,Rock,Soul,Swing,Traditional,age,artist_name,correct,correctResponse,distraction,duration,education,ended_on,familiarity,gender,headphone_check_performance,item,list,music_frequency,offensiveness,pleasantness,position_correct,preference,response,response_action,snippet_file,song_name,song_rating,sound,stimulus_1,stimulus_2,stimulus_3,text,time_commit,time_end,time_render,time_run,time_show,time_switch,url,word,word_ID
Prolific ID,html.Form,0,2022-02-01T13:57:14.952Z,"{""labjs_version"":""20.2.2"",""labjs_build"":{""flavor"":""production"",""commit"":""a25486e0c714a0ae2ce03ff94b7bb6896854dcfa""},""location"":""https://run.pavlovia.org/mvasilev/prolific2_music_e/"",""userAgent"":""Mozilla/5.0 (Windows NT 10.0; Win64; x64) AppleWebKit/537.36 (KHTML, like Gecko) Chrome/97.0.4692.99 Safari/537.36"",""platform"":""Win32"",""language"":""en-US"",""locale"":""en-US"",""timeZone"":""Europe/London"",""timezoneOffset"":0,""screen_width"":1280,""screen_height"":720,""scroll_width"":1600,""scroll_height"":673,""window_innerWidth"":1600,""window_innerHeight"":722,""devicePixelRatio"":1.2000000476837158}",,,,,,,,,,,,,,,5c6c08c5d9c1580001ce9aab,,,,,,,,,,,,,,,16968.629,,form submission,,,,,,,,,,,,,,,,,,,,,28409.69999998808,28408,11389.04,11397.199999988079,11439.371,28442.134,{},,
Introduction,html.Screen,1_0,2022-02-01T13:57:19.401Z,,,,,,,,,,,,,,,,,,,,,,,,,,,,,,,4408.366000000002,,response,,,,,,,,,,,continue,click button,,,,,,,,,32858.39999997616,32850.5,28392.161,28410.79999998212,28442.134,32871.831,,,
Volume calibration,html.Screen,1_1,2022-02-01T13:57:39.516Z,,,,,,,,,,,,,,,,,,,,,,,,,,,,,,,20097.46899998212,,response,,,,,,,,,,,continue,click button,,,,,,,,,52974.29999998212,52969.29999998212,32838.372,32858.69999998808,32871.831,52971.95,,,
Task instructions,html.Screen,1_2,2022-02-01T13:57:45.189Z,,,,,,,,,,,,,,,,,,,,,,,,,,,,,,,5673.449999976161,,response,,,,,,,,,,,continue,click button,,,,,,,,,58647.29999998212,58645.39999997616,52955.186,52974.39999997616,52971.95,58650.61,,,
Sounds,html.Screen,1_3_0_0,2022-02-01T13:57:49.427Z,,,,,,,,,,,,,,,,,,,,,,,,,,,,,,,4246.599000000002,,timeout,,,,,,,,,3,,,,,,,,I,O,S,,62884.5,62880.492,58633.836,58647.59999999404,58650.61,62897.209,,,
Judgement,html.Screen,1_3_0_1,2022-02-01T13:57:51.701Z,,,,,,,,,,,,,,,,,,,,,,,,,,,,true,3,,2260.1909999761556,,response,,,,,,,,,3,,3,click #choice-3,,,,,I,O,S,,65159.29999998212,65157.39999997616,62880.492,62884.69999998808,62897.209,65161.943,,,
Trial,flow.Sequence,1_3_0,2022-02-01T13:57:51.703Z,,,,,,,,,,,,,,,,,,,,,,,,,,,,,,,6506.789999976158,,completion,,,,,,,,,3,,,,,,,,I,O,S,,65161.19999998808,65157.39999997616,58633.836,58647.5,58650.61,65161.943,,,
Sounds,html.Screen,1_3_1_0,2022-02-01T13:57:55.935Z,,,,,,,,,,,,,,,,,,,,,,,,,,,,,,,4246.585999999996,,timeout,,,,,,,,,2,,,,,,,,I,S,O,,69392.59999999404,69391.851,65145.383,65165.69999998808,65161.943,69408.529,,,
Judgement,html.Screen,1_3_1_1,2022-02-01T13:57:56.588Z,,,,,,,,,,,,,,,,,,,,,,,,,,,,true,2,,635.7709999821236,,response,,,,,,,,,2,,2,click #choice-2,,,,,I,S,O,,70046.39999997616,70044.29999998212,69391.851,69392.69999998808,69408.529,70057.938,,,
Trial,flow.Sequence,1_3_1,2022-02-01T13:57:56.593Z,,,,,,,,,,,,,,,,,,,,,,,,,,,,,,,4882.356999982119,,completion,,,,,,,,,2,,,,,,,,I,S,O,,70050.59999999404,70044.29999998212,65145.383,65161.19999998808,65161.943,70057.938,,,
Sounds,html.Screen,1_3_2_0,2022-02-01T13:58:00.831Z,,,,,,,,,,,,,,,,,,,,,,,,,,,,,,,4246.573000000004,,timeout,,,,,,,,,1,,,,,,,,S,I,O,,74288.59999999404,74287.859,70041.283,70050.89999997616,70057.938,74304.511,,,
Judgement,html.Screen,1_3_2_1,2022-02-01T13:58:01.517Z,,,,,,,,,,,,,,,,,,,,,,,,,,,,true,1,,664.8889999761595,,response,,,,,,,,,1,,1,click #choice-1,,,,,S,I,O,,74975,74969.39999997616,74287.859,74288.89999997616,74304.511,74987.296,,,
Trial,flow.Sequence,1_3_2,2022-02-01T13:58:01.517Z,,,,,,,,,,,,,,,,,,,,,,,,,,,,,,,4911.4619999761635,,completion,,,,,,,,,1,,,,,,,,S,I,O,,74975.19999998808,74969.39999997616,70041.283,70050.79999998212,70057.938,74987.296,,,
Sounds,html.Screen,1_3_3_0,2022-02-01T13:58:05.760Z,,,,,,,,,,,,,,,,,,,,,,,,,,,,,,,4246.501999999993,,timeout,,,,,,,,,1,,,,,,,,S,O,I,,79217.89999997616,79217.146,74970.549,74975.29999998212,74987.296,79233.798,,,
Judgement,html.Screen,1_3_3_1,2022-02-01T13:58:06.368Z,,,,,,,,,,,,,,,,,,,,,,,,,,,,true,1,,590.7020000000048,,response,,,,,,,,,1,,1,click #choice-1,,,,,S,O,I,,79826.29999998212,79824.5,79217.146,79218,79233.798,79833.214,,,
Trial,flow.Sequence,1_3_3,2022-02-01T13:58:06.369Z,,,,,,,,,,,,,,,,,,,,,,,,,,,,,,,4837.203999999998,,completion,,,,,,,,,1,,,,,,,,S,O,I,,79826.5,79824.5,74970.549,74975.29999998212,74987.296,79833.214,,,
Sounds,html.Screen,1_3_4_0,2022-02-01T13:58:10.606Z,,,,,,,,,,,,,,,,,,,,,,,,,,,,,,,4246.588999999993,,timeout,,,,,,,,,2,,,,,,,,O,S,I,,84063.79999998212,84063.112,79816.634,79826.59999999404,79833.214,84079.803,,,
Judgement,html.Screen,1_3_4_1,2022-02-01T13:58:11.327Z,,,,,,,,,,,,,,,,,,,,,,,,,,,,false,2,,702.6970000000001,,response,,,,,,,,,2,,1,click #choice-1,,,,,O,S,I,,84785,84782.5,84063.112,84063.89999997616,84079.803,84795.858,,,
Trial,flow.Sequence,1_3_4,2022-02-01T13:58:11.327Z,,,,,,,,,,,,,,,,,,,,,,,,,,,,,,,4949.285999999993,,completion,,,,,,,,,2,,,,,,,,O,S,I,,84785.29999998212,84782.5,79816.634,79826.59999999404,79833.214,84795.858,,,
Sounds,html.Screen,1_3_5_0,2022-02-01T13:58:15.569Z,,,,,,,,,,,,,,,,,,,,,,,,,,,,,,,4246.557000000001,,timeout,,,,,,,,,3,,,,,,,,O,I,S,,89026.69999998808,89025.771,84779.179,84785.39999997616,84795.858,89042.415,,,
Judgement,html.Screen,1_3_5_1,2022-02-01T13:58:16.229Z,,,,,,,,,,,,,,,,,,,,,,,,,,,,true,3,,641.6849999940459,,response,,,,,,,,,3,,3,click #choice-3,,,,,O,I,S,,89686.79999998212,89684.09999999404,89025.771,89026.79999998212,89042.415,89691.823,,,
Trial,flow.Sequence,1_3_5,2022-02-01T13:58:16.229Z,,,,,,,,,,,,,,,,,,,,,,,,,,,,,,,4888.241999994047,,completion,,,,,,,,,3,,,,,,,,O,I,S,,89687,89684.09999999404,84779.179,84785.29999998212,84795.858,89691.823,,,
Task,flow.Loop,1_3,2022-02-01T13:58:16.235Z,,,,,,,,,,,,,,,,,,,,,,,,,,,,,,,31033.48999999404,,completion,,,0.8333333333333334,,,,,,,,,,,,,,,,,,89692.89999997616,89684.09999999404,58633.836,58647.39999997616,58650.61,89691.823,,,
Trap,html.Screen,1_4,2022-02-01T13:58:16.237Z,,,,,,,,,,,,,,,,,,,,,,,,,,,,,,,NaN,,skipped,,,,,,,,,,,,,,,,,,,,,89695,89684.09999999404,,89694.89999997616,,89691.823,,,
Thanks,html.Screen,1_5,2022-02-01T13:58:19.295Z,,,,,,,,,,,,,,,,,,,,,,,,,,,,,,,3059.376999988075,,response,,,,,,,,,,,continue,click button,,,,,,,,,92753.29999998212,92751.19999998808,89675.191,89695.19999998808,89691.823,96769.391,,,
Headphone screening,flow.Sequence,1,2022-02-01T13:58:19.296Z,,,,,,,,,,,,,,,,,,,,,,,,,,,,,,,64309.06599998808,,completion,,,,,,,,,,,,,,,,,,,,,92753.39999997616,92751.19999998808,28392.161,28410.69999998808,28442.134,96769.391,,,
Instructions,html.Page,2_0,2022-02-01T13:58:35.480Z,,,,,,,,,,,,,,,,,,,,,,,,,,,,,,,12168.208999994036,,form submission,,,,,,,,,,,,,,,,,,,,,108938,108937.59999999404,96736.078,96762.19999998808,96769.391,108942.699,,,
Holding screen,html.Screen,2_1_0_0,2022-02-01T13:58:45.461Z,,,,,,,,,,,,,,,,,,,,,,,,,,,,,,,10025.162000000011,,timeout,,,,,,,,,,,,,,,,,,,,,118918.69999998808,118917.921,108926.069,108938.19999998808,108942.699,118967.861,,,
screen,html.Screen,2_1_0_1_0,2022-02-01T13:58:46.339Z,,,,,,,,,,,,,,,,,53,,,,,,,,,,,,,,825.7389999940351,,response,,,,99,,,,,,,Space,keypress(Space),,,,,,,,When -- ----- -- ------ - ------- --- ----------<br>------------- ------ ------ ---- ---- ------- ----- -- ----<br>-------- ------- -- ---------- --- - --- ----- ----- ----<br>---- --- --- ----- --- ---- ---- ------- ----- ---- -------<br>--- --- -- ----- -- --- ---- -- --- ---- -- ------ ------<br>--- ----- -- ----,119796.79999998212,119793.59999999404,118917.921,118918.89999997616,118967.861,119817.144,,0,When
screen,html.Screen,2_1_0_1_1,2022-02-01T13:58:46.955Z,,,,,,,,,,,,,,,,,53,,,,,,,,,,,,,,595.1559999821184,,response,,,,99,,,,,,,Space,keypress(Space),,,,,,,,---- it ----- -- ------ - ------- --- ----------<br>------------- ------ ------ ---- ---- ------- ----- -- ----<br>-------- ------- -- ---------- --- - --- ----- ----- ----<br>---- --- --- ----- --- ---- ---- ------- ----- ---- -------<br>--- --- -- ----- -- --- ---- -- --- ---- -- ------ ------<br>--- ----- -- ----,120413,120412.29999998212,119783.83,119797,119817.144,120416.606,,1,it
screen,html.Screen,2_1_0_1_2,2022-02-01T13:58:47.397Z,,,,,,,,,,,,,,,,,53,,,,,,,,,,,,,,437.39400000000023,,response,,,,99,,,,,,,Space,keypress(Space),,,,,,,,---- -- comes -- ------ - ------- --- ----------<br>------------- ------ ------ ---- ---- ------- ----- -- ----<br>-------- ------- -- ---------- --- - --- ----- ----- ----<br>---- --- --- ----- --- ---- ---- ------- ----- ---- -------<br>--- --- -- ----- -- --- ---- -- --- ---- -- ------ ------<br>--- ----- -- ----,120854.69999998808,120854,120399.989,120413.09999999404,120416.606,120866.268,,2,comes
screen,html.Screen,2_1_0_1_3,2022-02-01T13:58:47.751Z,,,,,,,,,,,,,,,,,53,,,,,,,,,,,,,,342.2320000000036,,response,,,,99,,,,,,,Space,keypress(Space),,,,,,,,---- -- ----- to ------ - ------- --- ----------<br>------------- ------ ------ ---- ---- ------- ----- -- ----<br>-------- ------- -- ---------- --- - --- ----- ----- ----<br>---- --- --- ----- --- ---- ---- ------- ----- ---- -------<br>--- --- -- ----- -- --- ---- -- --- ---- -- ------ ------<br>--- ----- -- ----,121209.29999998212,121208.5,120849.632,120854.79999998212,120866.268,121216.186,,3,to
screen,html.Screen,2_1_0_1_4,2022-02-01T13:58:48.138Z,,,,,,,,,,,,,,,,,53,,,,,,,,,,,,,,378.8139999999985,,response,,,,99,,,,,,,Space,keypress(Space),,,,,,,,---- -- ----- -- having - ------- --- ----------<br>------------- ------ ------ ---- ---- ------- ----- -- ----<br>-------- ------- -- ---------- --- - --- ----- ----- ----<br>---- --- --- ----- --- ---- ---- ------- ----- ---- -------<br>--- --- -- ----- -- --- ---- -- --- ---- -- ------ ------<br>--- ----- -- ----,121595.69999998808,121595,121199.343,121209.39999997616,121216.186,121599.001,,4,having
screen,html.Screen,2_1_0_1_5,2022-02-01T13:58:48.474Z,,,,,,,,,,,,,,,,,53,,,,,,,,,,,,,,331.99899999999616,,response,,,,99,,,,,,,Space,keypress(Space),,,,,,,,---- -- ----- -- ------ a ------- --- ----------<br>------------- ------ ------ ---- ---- ------- ----- -- ----<br>-------- ------- -- ---------- --- - --- ----- ----- ----<br>---- --- --- ----- --- ---- ---- ------- ----- ---- -------<br>--- --- -- ----- -- --- ---- -- --- ---- -- ------ ------<br>--- ----- -- ----,121931.69999998808,121931,121582.361,121595.79999998212,121599.001,121948.717,,5,a
screen,html.Screen,2_1_0_1_6,2022-02-01T13:58:48.796Z,,,,,,,,,,,,,,,,,53,,,,,,,,,,,,,,304.4829999880749,,response,,,,99,,,,,,,Space,keypress(Space),,,,,,,,---- -- ----- -- ------ - lasting --- ----------<br>------------- ------ ------ ---- ---- ------- ----- -- ----<br>-------- ------- -- ---------- --- - --- ----- ----- ----<br>---- --- --- ----- --- ---- ---- ------- ----- ---- -------<br>--- --- -- ----- -- --- ---- -- --- ---- -- ------ ------<br>--- ----- -- ----,122253.89999997616,122253.19999998808,121932.076,121931.89999997616,121948.717,122265.12,,6,lasting
screen,html.Screen,2_1_0_1_7,2022-02-01T13:58:49.128Z,,,,,,,,,,,,,,,,,53,,,,,,,,,,,,,,319.88000000000466,,response,,,,99,,,,,,,Space,keypress(Space),,,,,,,,---- -- ----- -- ------ - ------- and ----------<br>------------- ------ ------ ---- ---- ------- ----- -- ----<br>-------- ------- -- ---------- --- - --- ----- ----- ----<br>---- --- --- ----- --- ---- ---- ------- ----- ---- -------<br>--- --- -- ----- -- --- ---- -- --- ---- -- ------ ------<br>--- ----- -- ----,122585.59999999404,122585,122248.49,122254,122265.12,122598.18,,7,and
screen,html.Screen,2_1_0_1_8,2022-02-01T13:58:49.496Z,,,,,,,,,,,,,,,,,53,,,,,,,,,,,,,,355.6199999821256,,response,,,,99,,,,,,,Space,keypress(Space),,,,,,,,---- -- ----- -- ------ - ------- --- fulfilling<br>------------- ------ ------ ---- ---- ------- ----- -- ----<br>-------- ------- -- ---------- --- - --- ----- ----- ----<br>---- --- --- ----- --- ---- ---- ------- ----- ---- -------<br>--- --- -- ----- -- --- ---- -- --- ---- -- ------ ------<br>--- ----- -- ----,122954.39999997616,122953.79999998212,122581.544,122585.89999997616,122598.18,122964.546,,8,fulfilling
screen,html.Screen,2_1_0_1_9,2022-02-01T13:58:49.840Z,,,,,,,,,,,,,,,,,53,,,,,,,,,,,,,,333.05399999403744,,response,,,,99,,,,,,,Space,keypress(Space),,,,,,,,"---- -- ----- -- ------ - ------- --- ----------<br>relationship, ------ ------ ---- ---- ------- ----- -- ----<br>-------- ------- -- ---------- --- - --- ----- ----- ----<br>---- --- --- ----- --- ---- ---- ------- ----- ---- -------<br>--- --- -- ----- -- --- ---- -- --- ---- -- ------ ------<br>--- ----- -- ----",123298.39999997616,123297.59999999404,122947.904,122954.59999999404,122964.546,123314.265,,9,"relationship,"
screen,html.Screen,2_1_0_1_10,2022-02-01T13:58:50.170Z,,,,,,,,,,,,,,,,,53,,,,,,,,,,,,,,313.5349999821192,,response,,,,99,,,,,,,Space,keypress(Space),,,,,,,,---- -- ----- -- ------ - ------- --- ----------<br>------------- common ------ ---- ---- ------- ----- -- ----<br>-------- ------- -- ---------- --- - --- ----- ----- ----<br>---- --- --- ----- --- ---- ---- ------- ----- ---- -------<br>--- --- -- ----- -- --- ---- -- --- ---- -- ------ ------<br>--- ----- -- ----,123628.59999999404,123627.79999998212,123297.621,123298.59999999404,123314.265,123630.642,,10,common
screen,html.Screen,2_1_0_1_11,2022-02-01T13:58:50.463Z,,,,,,,,,,,,,,,,,53,,,,,,,,,,,,,,290.05799998807197,,response,,,,99,,,,,,,Space,keypress(Space),,,,,,,,---- -- ----- -- ------ - ------- --- ----------<br>------------- ------ wisdom ---- ---- ------- ----- -- ----<br>-------- ------- -- ---------- --- - --- ----- ----- ----<br>---- --- --- ----- --- ---- ---- ------- ----- ---- -------<br>--- --- -- ----- -- --- ---- -- --- ---- -- ------ ------<br>--- ----- -- ----,123921.5,123920.69999998808,123614.03,123628.69999998808,123630.642,123930.421,,11,wisdom
screen,html.Screen,2_1_0_1_12,2022-02-01T13:58:50.831Z,,,,,,,,,,,,,,,,,53,,,,,,,,,,,,,,358.0789999999979,,response,,,,99,,,,,,,Space,keypress(Space),,,,,,,,---- -- ----- -- ------ - ------- --- ----------<br>------------- ------ ------ says ---- ------- ----- -- ----<br>-------- ------- -- ---------- --- - --- ----- ----- ----<br>---- --- --- ----- --- ---- ---- ------- ----- ---- -------<br>--- --- -- ----- -- --- ---- -- --- ---- -- ------ ------<br>--- ----- -- ----,124289.19999998808,124288.5,123913.788,123921.59999999404,123930.421,124296.788,,12,says
screen,html.Screen,2_1_0_1_13,2022-02-01T13:58:51.183Z,,,,,,,,,,,,,,,,,53,,,,,,,,,,,,,,343.9119999880786,,response,,,,99,,,,,,,Space,keypress(Space),,,,,,,,---- -- ----- -- ------ - ------- --- ----------<br>------------- ------ ------ ---- that ------- ----- -- ----<br>-------- ------- -- ---------- --- - --- ----- ----- ----<br>---- --- --- ----- --- ---- ---- ------- ----- ---- -------<br>--- --- -- ----- -- --- ---- -- --- ---- -- ------ ------<br>--- ----- -- ----,124641.39999997616,124640.69999998808,124280.164,124289.29999998212,124296.788,124646.515,,13,that
screen,html.Screen,2_1_0_1_14,2022-02-01T13:58:51.502Z,,,,,,,,,,,,,,,,,53,,,,,,,,,,,,,,312.68499998807965,,response,,,,99,,,,,,,Space,keypress(Space),,,,,,,,---- -- ----- -- ------ - ------- --- ----------<br>------------- ------ ------ ---- ---- feeling ----- -- ----<br>-------- ------- -- ---------- --- - --- ----- ----- ----<br>---- --- --- ----- --- ---- ---- ------- ----- ---- -------<br>--- --- -- ----- -- --- ---- -- --- ---- -- ------ ------<br>--- ----- -- ----,124960,124959.19999998808,124629.867,124641.59999999404,124646.515,124962.846,,14,feeling
screen,html.Screen,2_1_0_1_15,2022-02-01T13:58:51.846Z,,,,,,,,,,,,,,,,,53,,,,,,,,,,,,,,340.35399998807407,,response,,,,99,,,,,,,Space,keypress(Space),,,,,,,,---- -- ----- -- ------ - ------- --- ----------<br>------------- ------ ------ ---- ---- ------- close -- ----<br>-------- ------- -- ---------- --- - --- ----- ----- ----<br>---- --- --- ----- --- ---- ---- ------- ----- ---- -------<br>--- --- -- ----- -- --- ---- -- --- ---- -- ------ ------<br>--- ----- -- ----,125304.09999999404,125303.19999998808,124946.295,124960.09999999404,124962.846,125312.619,,15,close
screen,html.Screen,2_1_0_1_16,2022-02-01T13:58:52.216Z,,,,,,,,,,,,,,,,,53,,,,,,,,,,,,,,361.18099998211255,,response,,,,99,,,,,,,Space,keypress(Space),,,,,,,,---- -- ----- -- ------ - ------- --- ----------<br>------------- ------ ------ ---- ---- ------- ----- to ----<br>-------- ------- -- ---------- --- - --- ----- ----- ----<br>---- --- --- ----- --- ---- ---- ------- ----- ---- -------<br>--- --- -- ----- -- --- ---- -- --- ---- -- ------ ------<br>--- ----- -- ----,125674.59999999404,125673.79999998212,125295.984,125304.09999999404,125312.619,125678.948,,16,to
screen,html.Screen,2_1_0_1_17,2022-02-01T13:58:52.627Z,,,,,,,,,,,,,,,,,53,,,,,,,,,,,,,,405.2519999880751,,response,,,,99,,,,,,,Space,keypress(Space),,,,,,,,---- -- ----- -- ------ - ------- --- ----------<br>------------- ------ ------ ---- ---- ------- ----- -- your<br>-------- ------- -- ---------- --- - --- ----- ----- ----<br>---- --- --- ----- --- ---- ---- ------- ----- ---- -------<br>--- --- -- ----- -- --- ---- -- --- ---- -- ------ ------<br>--- ----- -- ----,126085,126084.19999998808,125662.346,125674.69999998808,125678.948,126095.332,,17,your
screen,html.Screen,2_1_0_1_18,2022-02-01T13:58:53.056Z,,,,,,,,,,,,,,,,,53,,,,,,,,,,,,,,418.26799999404466,,response,,,,99,,,,,,,Space,keypress(Space),,,,,,,,---- -- ----- -- ------ - ------- --- ----------<br>------------- ------ ------ ---- ---- ------- ----- -- ----<br>romantic ------- -- ---------- --- - --- ----- ----- ----<br>---- --- --- ----- --- ---- ---- ------- ----- ---- -------<br>--- --- -- ----- -- --- ---- -- --- ---- -- ------ ------<br>--- ----- -- ----,126514.39999997616,126513.59999999404,126078.672,126085.09999999404,126095.332,126528.289,,18,romantic
screen,html.Screen,2_1_0_1_19,2022-02-01T13:58:53.515Z,,,,,,,,,,,,,,,,,53,,,,,,,,,,,,,,444.5109999821143,,response,,,,99,,,,,,,Space,keypress(Space),,,,,,,,---- -- ----- -- ------ - ------- --- ----------<br>------------- ------ ------ ---- ---- ------- ----- -- ----<br>-------- partner -- ---------- --- - --- ----- ----- ----<br>---- --- --- ----- --- ---- ---- ------- ----- ---- -------<br>--- --- -- ----- -- --- ---- -- --- ---- -- ------ ------<br>--- ----- -- ----,126973.69999998808,126972.79999998212,126511.672,126514.39999997616,126528.289,126977.924,,19,partner
screen,html.Screen,2_1_0_1_20,2022-02-01T13:58:53.929Z,,,,,,,,,,,,,,,,,53,,,,,,,,,,,,,,408.77599998808,,response,,,,99,,,,,,,Space,keypress(Space),,,,,,,,---- -- ----- -- ------ - ------- --- ----------<br>------------- ------ ------ ---- ---- ------- ----- -- ----<br>-------- ------- is ---------- --- - --- ----- ----- ----<br>---- --- --- ----- --- ---- ---- ------- ----- ---- -------<br>--- --- -- ----- -- --- ---- -- --- ---- -- ------ ------<br>--- ----- -- ----,127387.39999997616,127386.69999998808,126961.271,126973.89999997616,126977.924,127394.612,,20,is
screen,html.Screen,2_1_0_1_21,2022-02-01T13:58:54.315Z,,,,,,,,,,,,,,,,,53,,,,,,,,,,,,,,378.08799998808536,,response,,,,99,,,,,,,Space,keypress(Space),,,,,,,,---- -- ----- -- ------ - ------- --- ----------<br>------------- ------ ------ ---- ---- ------- ----- -- ----<br>-------- ------- -- paramount. --- - --- ----- ----- ----<br>---- --- --- ----- --- ---- ---- ------- ----- ---- -------<br>--- --- -- ----- -- --- ---- -- --- ---- -- ------ ------<br>--- ----- -- ----,127773.5,127772.69999998808,127377.551,127387.59999999404,127394.612,127777.22,,21,paramount.
screen,html.Screen,2_1_0_1_22,2022-02-01T13:58:54.957Z,,,,,,,,,,,,,,,,,53,,,,,,,,,,,,,,637.2799999999988,,response,,,,99,,,,,,,Space,keypress(Space),,,,,,,,---- -- ----- -- ------ - ------- --- ----------<br>------------- ------ ------ ---- ---- ------- ----- -- ----<br>-------- ------- -- ---------- But - --- ----- ----- ----<br>---- --- --- ----- --- ---- ---- ------- ----- ---- -------<br>--- --- -- ----- -- --- ---- -- --- ---- -- ------ ------<br>--- ----- -- ----,128415,128414.5,127760.57,127773.79999998212,127777.22,128426.711,,22,But
screen,html.Screen,2_1_0_1_23,2022-02-01T13:58:55.355Z,,,,,,,,,,,,,,,,,53,,,,,,,,,,,,,,385.88899999404384,,response,,,,99,,,,,,,Space,keypress(Space),,,,,,,,---- -- ----- -- ------ - ------- --- ----------<br>------------- ------ ------ ---- ---- ------- ----- -- ----<br>-------- ------- -- ---------- --- a --- ----- ----- ----<br>---- --- --- ----- --- ---- ---- ------- ----- ---- -------<br>--- --- -- ----- -- --- ---- -- --- ---- -- ------ ------<br>--- ----- -- ----,128813.59999999404,128812.59999999404,128410.019,128415.19999998808,128426.711,128826.403,,23,a
screen,html.Screen,2_1_0_1_24,2022-02-01T13:58:55.730Z,,,,,,,,,,,,,,,,,53,,,,,,,,,,,,,,361.3969999821129,,response,,,,99,,,,,,,Space,keypress(Space),,,,,,,,---- -- ----- -- ------ - ------- --- ----------<br>------------- ------ ------ ---- ---- ------- ----- -- ----<br>-------- ------- -- ---------- --- - new ----- ----- ----<br>---- --- --- ----- --- ---- ---- ------- ----- ---- -------<br>--- --- -- ----- -- --- ---- -- --- ---- -- ------ ------<br>--- ----- -- ----,129188.5,129187.79999998212,128809.708,128814,128826.403,129192.753,,24,new
screen,html.Screen,2_1_0_1_25,2022-02-01T13:58:56.213Z,,,,,,,,,,,,,,,,,53,,,,,,,,,,,,,,477.84699999404256,,response,,,,99,,,,,,,Space,keypress(Space),,,,,,,,---- -- ----- -- ------ - ------- --- ----------<br>------------- ------ ------ ---- ---- ------- ----- -- ----<br>-------- ------- -- ---------- --- - --- study ----- ----<br>---- --- --- ----- --- ---- ---- ------- ----- ---- -------<br>--- --- -- ----- -- --- ---- -- --- ---- -- ------ ------<br>--- ----- -- ----,129671.29999998212,129670.59999999404,129176.133,129188.59999999404,129192.753,129675.685,,25,study
screen,html.Screen,2_1_0_1_26,2022-02-01T13:58:56.562Z,,,,,,,,,,,,,,,,,53,,,,,,,,,,,,,,343.71499997616047,,response,,,,99,,,,,,,Space,keypress(Space),,,,,,,,---- -- ----- -- ------ - ------- --- ----------<br>------------- ------ ------ ---- ---- ------- ----- -- ----<br>-------- ------- -- ---------- --- - --- ----- finds ----<br>---- --- --- ----- --- ---- ---- ------- ----- ---- -------<br>--- --- -- ----- -- --- ---- -- --- ---- -- ------ ------<br>--- ----- -- ----,130020.29999998212,130019.39999997616,129659.072,129671.59999999404,129675.685,130025.412,,26,finds
screen,html.Screen,2_1_0_1_27,2022-02-01T13:58:56.920Z,,,,,,,,,,,,,,,,,53,,,,,,,,,,,,,,351.5880000000034,,response,,,,99,,,,,,,Space,keypress(Space),,,,,,,,---- -- ----- -- ------ - ------- --- ----------<br>------------- ------ ------ ---- ---- ------- ----- -- ----<br>-------- ------- -- ---------- --- - --- ----- ----- that<br>---- --- --- ----- --- ---- ---- ------- ----- ---- -------<br>--- --- -- ----- -- --- ---- -- --- ---- -- ------ ------<br>--- ----- -- ----,130378.19999998808,130377,130008.8,130021,130025.412,130391.795,,27,that
screen,html.Screen,2_1_0_1_28,2022-02-01T13:58:57.395Z,,,,,,,,,,,,,,,,,53,,,,,,,,,,,,,,460.8049999940413,,response,,,,99,,,,,,,Space,keypress(Space),,,,,,,,---- -- ----- -- ------ - ------- --- ----------<br>------------- ------ ------ ---- ---- ------- ----- -- ----<br>-------- ------- -- ---------- --- - --- ----- ----- ----<br>it's --- --- ----- --- ---- ---- ------- ----- ---- -------<br>--- --- -- ----- -- --- ---- -- --- ---- -- ------ ------<br>--- ----- -- ----,130853.29999998212,130852.59999999404,130375.146,130378.39999997616,130391.795,130858.443,,28,it's
screen,html.Screen,2_1_0_1_29,2022-02-01T13:58:57.855Z,,,,,,,,,,,,,,,,,53,,,,,,,,,,,,,,453.8569999821193,,response,,,,99,,,,,,,Space,keypress(Space),,,,,,,,---- -- ----- -- ------ - ------- --- ----------<br>------------- ------ ------ ---- ---- ------- ----- -- ----<br>-------- ------- -- ---------- --- - --- ----- ----- ----<br>---- not --- ----- --- ---- ---- ------- ----- ---- -------<br>--- --- -- ----- -- --- ---- -- --- ---- -- ------ ------<br>--- ----- -- ----,131313.09999999404,131312.29999998212,130841.36,130853.39999997616,130858.443,131324.361,,29,not
screen,html.Screen,2_1_0_1_30,2022-02-01T13:58:58.155Z,,,,,,,,,,,,,,,,,53,,,,,,,,,,,,,,288.2389999940351,,response,,,,99,,,,,,,Space,keypress(Space),,,,,,,,---- -- ----- -- ------ - ------- --- ----------<br>------------- ------ ------ ---- ---- ------- ----- -- ----<br>-------- ------- -- ---------- --- - --- ----- ----- ----<br>---- --- how ----- --- ---- ---- ------- ----- ---- -------<br>--- --- -- ----- -- --- ---- -- --- ---- -- ------ ------<br>--- ----- -- ----,131613.5,131612.59999999404,131307.657,131313.29999998212,131324.361,131624.121,,30,how
screen,html.Screen,2_1_0_1_31,2022-02-01T13:58:58.588Z,,,,,,,,,,,,,,,,,53,,,,,,,,,,,,,,421.57899998806533,,response,,,,99,,,,,,,Space,keypress(Space),,,,,,,,---- -- ----- -- ------ - ------- --- ----------<br>------------- ------ ------ ---- ---- ------- ----- -- ----<br>-------- ------- -- ---------- --- - --- ----- ----- ----<br>---- --- --- close --- ---- ---- ------- ----- ---- -------<br>--- --- -- ----- -- --- ---- -- --- ---- -- ------ ------<br>--- ----- -- ----,132046.5,132045.69999998808,131607.49,131613.69999998808,131624.121,132057.084,,31,close
screen,html.Screen,2_1_0_1_32,2022-02-01T13:58:58.954Z,,,,,,,,,,,,,,,,,53,,,,,,,,,,,,,,354.71599998211605,,response,,,,99,,,,,,,Space,keypress(Space),,,,,,,,---- -- ----- -- ------ - ------- --- ----------<br>------------- ------ ------ ---- ---- ------- ----- -- ----<br>-------- ------- -- ---------- --- - --- ----- ----- ----<br>---- --- --- ----- you ---- ---- ------- ----- ---- -------<br>--- --- -- ----- -- --- ---- -- --- ---- -- ------ ------<br>--- ----- -- ----,132412.59999999404,132411.79999998212,132040.461,132046.79999998212,132057.084,132423.46,,32,you
screen,html.Screen,2_1_0_1_33,2022-02-01T13:58:59.267Z,,,,,,,,,,,,,,,,,53,,,,,,,,,,,,,,301.04000000000815,,response,,,,99,,,,,,,Space,keypress(Space),,,,,,,,---- -- ----- -- ------ - ------- --- ----------<br>------------- ------ ------ ---- ---- ------- ----- -- ----<br>-------- ------- -- ---------- --- - --- ----- ----- ----<br>---- --- --- ----- --- feel ---- ------- ----- ---- -------<br>--- --- -- ----- -- --- ---- -- --- ---- -- ------ ------<br>--- ----- -- ----,132725.69999998808,132724.5,132406.785,132412.79999998212,132423.46,132739.864,,33,feel
screen,html.Screen,2_1_0_1_34,2022-02-01T13:58:59.639Z,,,,,,,,,,,,,,,,,53,,,,,,,,,,,,,,357.1359999999986,,response,,,,99,,,,,,,Space,keypress(Space),,,,,,,,---- -- ----- -- ------ - ------- --- ----------<br>------------- ------ ------ ---- ---- ------- ----- -- ----<br>-------- ------- -- ---------- --- - --- ----- ----- ----<br>---- --- --- ----- --- ---- that ------- ----- ---- -------<br>--- --- -- ----- -- --- ---- -- --- ---- -- ------ ------<br>--- ----- -- ----,133097.59999999404,133097,132723.221,132725.89999997616,132739.864,133106.222,,34,that
screen,html.Screen,2_1_0_1_35,2022-02-01T13:58:59.988Z,,,,,,,,,,,,,,,,,53,,,,,,,,,,,,,,338.9779999880702,,response,,,,99,,,,,,,Space,keypress(Space),,,,,,,,---- -- ----- -- ------ - ------- --- ----------<br>------------- ------ ------ ---- ---- ------- ----- -- ----<br>-------- ------- -- ---------- --- - --- ----- ----- ----<br>---- --- --- ----- --- ---- ---- matters ----- ---- -------<br>--- --- -- ----- -- --- ---- -- --- ---- -- ------ ------<br>--- ----- -- ----,133446,133445.19999998808,133089.616,133097.89999997616,133106.222,133455.903,,35,matters
screen,html.Screen,2_1_0_1_36,2022-02-01T13:59:00.458Z,,,,,,,,,,,,,,,,,53,,,,,,,,,,,,,,459.59700000000885,,response,,,,99,,,,,,,Space,keypress(Space),,,,,,,,"---- -- ----- -- ------ - ------- --- ----------<br>------------- ------ ------ ---- ---- ------- ----- -- ----<br>-------- ------- -- ---------- --- - --- ----- ----- ----<br>---- --- --- ----- --- ---- ---- ------- most, ---- -------<br>--- --- -- ----- -- --- ---- -- --- ---- -- ------ ------<br>--- ----- -- ----",133916.39999997616,133915.5,133439.295,133446.29999998212,133455.903,133922.39,,36,"most,"
screen,html.Screen,2_1_0_1_37,2022-02-01T13:59:00.937Z,,,,,,,,,,,,,,,,,53,,,,,,,,,,,,,,472.3099999880651,,response,,,,99,,,,,,,Space,keypress(Space),,,,,,,,---- -- ----- -- ------ - ------- --- ----------<br>------------- ------ ------ ---- ---- ------- ----- -- ----<br>-------- ------- -- ---------- --- - --- ----- ----- ----<br>---- --- --- ----- --- ---- ---- ------- ----- it's -------<br>--- --- -- ----- -- --- ---- -- --- ---- -- ------ ------<br>--- ----- -- ----,134395.5,134394.69999998808,133905.551,133916.5,133922.39,134405.158,,37,it's
screen,html.Screen,2_1_0_1_38,2022-02-01T13:59:01.327Z,,,,,,,,,,,,,,,,,53,,,,,,,,,,,,,,379.6419999821228,,response,,,,99,,,,,,,Space,keypress(Space),,,,,,,,---- -- ----- -- ------ - ------- --- ----------<br>------------- ------ ------ ---- ---- ------- ----- -- ----<br>-------- ------- -- ---------- --- - --- ----- ----- ----<br>---- --- --- ----- --- ---- ---- ------- ----- ---- whether<br>--- --- -- ----- -- --- ---- -- --- ---- -- ------ ------<br>--- ----- -- ----,134785.59999999404,134784.79999998212,134388.51,134395.69999998808,134405.158,134788.171,,38,whether
screen,html.Screen,2_1_0_1_39,2022-02-01T13:59:01.721Z,,,,,,,,,,,,,,,,,53,,,,,,,,,,,,,,389.92899999403744,,response,,,,99,,,,,,,Space,keypress(Space),,,,,,,,---- -- ----- -- ------ - ------- --- ----------<br>------------- ------ ------ ---- ---- ------- ----- -- ----<br>-------- ------- -- ---------- --- - --- ----- ----- ----<br>---- --- --- ----- --- ---- ---- ------- ----- ---- -------<br>you --- -- ----- -- --- ---- -- --- ---- -- ------ ------<br>--- ----- -- ----,135179.19999998808,135178.09999999404,134771.557,134785.69999998808,134788.171,135188.147,,39,you
screen,html.Screen,2_1_0_1_40,2022-02-01T13:59:02.096Z,,,,,,,,,,,,,,,,,53,,,,,,,,,,,,,,365.25299997616094,,response,,,,99,,,,,,,Space,keypress(Space),,,,,,,,---- -- ----- -- ------ - ------- --- ----------<br>------------- ------ ------ ---- ---- ------- ----- -- ----<br>-------- ------- -- ---------- --- - --- ----- ----- ----<br>---- --- --- ----- --- ---- ---- ------- ----- ---- -------<br>--- are -- ----- -- --- ---- -- --- ---- -- ------ ------<br>--- ----- -- ----,135554.29999998212,135553.39999997616,135171.208,135179.5,135188.147,135570.872,,40,are
screen,html.Screen,2_1_0_1_41,2022-02-01T13:59:02.452Z,,,,,,,,,,,,,,,,,53,,,,,,,,,,,,,,338.82799998807604,,response,,,,99,,,,,,,Space,keypress(Space),,,,,,,,---- -- ----- -- ------ - ------- --- ----------<br>------------- ------ ------ ---- ---- ------- ----- -- ----<br>-------- ------- -- ---------- --- - --- ----- ----- ----<br>---- --- --- ----- --- ---- ---- ------- ----- ---- -------<br>--- --- as ----- -- --- ---- -- --- ---- -- ------ ------<br>--- ----- -- ----,135910.5,135909.69999998808,135554.231,135554.5,135570.872,135920.543,,41,as
screen,html.Screen,2_1_0_1_42,2022-02-01T13:59:02.857Z,,,,,,,,,,,,,,,,,53,,,,,,,,,,,,,,393.4569999999949,,response,,,,99,,,,,,,Space,keypress(Space),,,,,,,,---- -- ----- -- ------ - ------- --- ----------<br>------------- ------ ------ ---- ---- ------- ----- -- ----<br>-------- ------- -- ---------- --- - --- ----- ----- ----<br>---- --- --- ----- --- ---- ---- ------- ----- ---- -------<br>--- --- -- close -- --- ---- -- --- ---- -- ------ ------<br>--- ----- -- ----,136314.79999998212,136314,135903.956,135910.69999998808,135920.543,136320.454,,42,close
screen,html.Screen,2_1_0_1_43,2022-02-01T13:59:03.261Z,,,,,,,,,,,,,,,,,53,,,,,,,,,,,,,,398.24599998808117,,response,,,,99,,,,,,,Space,keypress(Space),,,,,,,,---- -- ----- -- ------ - ------- --- ----------<br>------------- ------ ------ ---- ---- ------- ----- -- ----<br>-------- ------- -- ---------- --- - --- ----- ----- ----<br>---- --- --- ----- --- ---- ---- ------- ----- ---- -------<br>--- --- -- ----- as --- ---- -- --- ---- -- ------ ------<br>--- ----- -- ----,136719.5,136718.69999998808,136303.611,136314.89999997616,136320.454,136736.576,,43,as
screen,html.Screen,2_1_0_1_44,2022-02-01T13:59:03.632Z,,,,,,,,,,,,,,,,,53,,,,,,,,,,,,,,352.8239999761572,,response,,,,99,,,,,,,Space,keypress(Space),,,,,,,,---- -- ----- -- ------ - ------- --- ----------<br>------------- ------ ------ ---- ---- ------- ----- -- ----<br>-------- ------- -- ---------- --- - --- ----- ----- ----<br>---- --- --- ----- --- ---- ---- ------- ----- ---- -------<br>--- --- -- ----- -- you ---- -- --- ---- -- ------ ------<br>--- ----- -- ----,137090.19999998808,137089.39999997616,136719.944,136719.69999998808,136736.576,137102.944,,44,you
screen,html.Screen,2_1_0_1_45,2022-02-01T13:59:04.037Z,,,,,,,,,,,,,,,,,53,,,,,,,,,,,,,,391.2559999880905,,response,,,,99,,,,,,,Space,keypress(Space),,,,,,,,---- -- ----- -- ------ - ------- --- ----------<br>------------- ------ ------ ---- ---- ------- ----- -- ----<br>-------- ------- -- ---------- --- - --- ----- ----- ----<br>---- --- --- ----- --- ---- ---- ------- ----- ---- -------<br>--- --- -- ----- -- --- want -- --- ---- -- ------ ------<br>--- ----- -- ----,137495,137494.19999998808,137086.302,137090.29999998212,137102.944,137502.614,,45,want
screen,html.Screen,2_1_0_1_46,2022-02-01T13:59:04.417Z,,,,,,,,,,,,,,,,,53,,,,,,,,,,,,,,371.1859999821172,,response,,,,99,,,,,,,Space,keypress(Space),,,,,,,,---- -- ----- -- ------ - ------- --- ----------<br>------------- ------ ------ ---- ---- ------- ----- -- ----<br>-------- ------- -- ---------- --- - --- ----- ----- ----<br>---- --- --- ----- --- ---- ---- ------- ----- ---- -------<br>--- --- -- ----- -- --- ---- to --- ---- -- ------ ------<br>--- ----- -- ----,137874.69999998808,137873.79999998212,137485.979,137495.09999999404,137502.614,137885.633,,46,to
screen,html.Screen,2_1_0_1_47,2022-02-01T13:59:04.783Z,,,,,,,,,,,,,,,,,53,,,,,,,,,,,,,,354.666999982117,,response,,,,99,,,,,,,Space,keypress(Space),,,,,,,,"---- -- ----- -- ------ - ------- --- ----------<br>------------- ------ ------ ---- ---- ------- ----- -- ----<br>-------- ------- -- ---------- --- - --- ----- ----- ----<br>---- --- --- ----- --- ---- ---- ------- ----- ---- -------<br>--- --- -- ----- -- --- ---- -- be, ---- -- ------ ------<br>--- ----- -- ----",138241,138240.29999998212,137868.994,137875,137885.633,138252.001,,47,"be,"
screen,html.Screen,2_1_0_1_48,2022-02-01T13:59:05.232Z,,,,,,,,,,,,,,,,,53,,,,,,,,,,,,,,437.09899999405025,,response,,,,99,,,,,,,Space,keypress(Space),,,,,,,,---- -- ----- -- ------ - ------- --- ----------<br>------------- ------ ------ ---- ---- ------- ----- -- ----<br>-------- ------- -- ---------- --- - --- ----- ----- ----<br>---- --- --- ----- --- ---- ---- ------- ----- ---- -------<br>--- --- -- ----- -- --- ---- -- --- even -- ------ ------<br>--- ----- -- ----,138689.89999997616,138689.09999999404,138235.361,138241.19999998808,138252.001,138701.632,,48,even
screen,html.Screen,2_1_0_1_49,2022-02-01T13:59:05.589Z,,,,,,,,,,,,,,,,,53,,,,,,,,,,,,,,345.06799998806673,,response,,,,99,,,,,,,Space,keypress(Space),,,,,,,,---- -- ----- -- ------ - ------- --- ----------<br>------------- ------ ------ ---- ---- ------- ----- -- ----<br>-------- ------- -- ---------- --- - --- ----- ----- ----<br>---- --- --- ----- --- ---- ---- ------- ----- ---- -------<br>--- --- -- ----- -- --- ---- -- --- ---- if ------ ------<br>--- ----- -- ----,139047.5,139046.69999998808,138684.987,138690,138701.632,139051.323,,49,if
screen,html.Screen,2_1_0_1_50,2022-02-01T13:59:06.017Z,,,,,,,,,,,,,,,,,53,,,,,,,,,,,,,,423.67699999999604,,response,,,,99,,,,,,,Space,keypress(Space),,,,,,,,---- -- ----- -- ------ - ------- --- ----------<br>------------- ------ ------ ---- ---- ------- ----- -- ----<br>-------- ------- -- ---------- --- - --- ----- ----- ----<br>---- --- --- ----- --- ---- ---- ------- ----- ---- -------<br>--- --- -- ----- -- --- ---- -- --- ---- -- that's ------<br>--- ----- -- ----,139475.69999998808,139475,139034.707,139047.59999999404,139051.323,139484.321,,50,that's
screen,html.Screen,2_1_0_1_51,2022-02-01T13:59:06.425Z,,,,,,,,,,,,,,,,,53,,,,,,,,,,,,,,397.77899999404326,,response,,,,99,,,,,,,Space,keypress(Space),,,,,,,,---- -- ----- -- ------ - ------- --- ----------<br>------------- ------ ------ ---- ---- ------- ----- -- ----<br>-------- ------- -- ---------- --- - --- ----- ----- ----<br>---- --- --- ----- --- ---- ---- ------- ----- ---- -------<br>--- --- -- ----- -- --- ---- -- --- ---- -- ------ really<br>--- ----- -- ----,139883,139882.09999999404,139467.681,139475.79999998212,139484.321,139904.095,,51,really
screen,html.Screen,2_1_0_1_52,2022-02-01T13:59:06.861Z,,,,,,,,,,,,,,,,,53,,,,,,,,,,,,,,414.50499999403837,,response,,,,99,,,,,,,Space,keypress(Space),,,,,,,,---- -- ----- -- ------ - ------- --- ----------<br>------------- ------ ------ ---- ---- ------- ----- -- ----<br>-------- ------- -- ---------- --- - --- ----- ----- ----<br>---- --- --- ----- --- ---- ---- ------- ----- ---- -------<br>--- --- -- ----- -- --- ---- -- --- ---- -- ------ ------<br>not ----- -- ----,140319.29999998212,140318.59999999404,139867.353,139883.09999999404,139904.095,140333.624,,52,not
screen,html.Screen,2_1_0_1_53,2022-02-01T13:59:07.242Z,,,,,,,,,,,,,,,,,53,,,,,,,,,,,,,,365.3759999999893,,response,,,,99,,,,,,,Space,keypress(Space),,,,,,,,---- -- ----- -- ------ - ------- --- ----------<br>------------- ------ ------ ---- ---- ------- ----- -- ----<br>-------- ------- -- ---------- --- - --- ----- ----- ----<br>---- --- --- ----- --- ---- ---- ------- ----- ---- -------<br>--- --- -- ----- -- --- ---- -- --- ---- -- ------ ------<br>--- close -- ----,140699.79999998212,140699,140316.985,140319.5,140333.624,140716.647,,53,close
screen,html.Screen,2_1_0_1_54,2022-02-01T13:59:07.569Z,,,,,,,,,,,,,,,,,53,,,,,,,,,,,,,,310.1529999821214,,response,,,,99,,,,,,,Space,keypress(Space),,,,,,,,---- -- ----- -- ------ - ------- --- ----------<br>------------- ------ ------ ---- ---- ------- ----- -- ----<br>-------- ------- -- ---------- --- - --- ----- ----- ----<br>---- --- --- ----- --- ---- ---- ------- ----- ---- -------<br>--- --- -- ----- -- --- ---- -- --- ---- -- ------ ------<br>--- ----- at ----,141027.59999999404,141026.79999998212,140700.024,140700,140716.647,141033.297,,54,at
screen,html.Screen,2_1_0_1_55,2022-02-01T13:59:07.812Z,,,,,,,,,,,,,,,,,53,,,,,,,,,,,,,,236.10299997616676,,response,,,,99,,,,,,,Space,keypress(Space),,,,,,,,---- -- ----- -- ------ - ------- --- ----------<br>------------- ------ ------ ---- ---- ------- ----- -- ----<br>-------- ------- -- ---------- --- - --- ----- ----- ----<br>---- --- --- ----- --- ---- ---- ------- ----- ---- -------<br>--- --- -- ----- -- --- ---- -- --- ---- -- ------ ------<br>--- ----- -- all.,141270.09999999404,141269.39999997616,141016.419,141027.79999998212,141033.297,141282.8,,55,all.
Item 99,flow.Loop,2_1_0_1,2022-02-01T13:59:07.812Z,,,,,,,,,,,,,,,,,,,,,,,,,,,,,,,22301.538999976154,,completion,,,,,E,,,,,,,,,,,silence,,,,,141270.39999997616,141269.39999997616,118917.921,118918.89999997616,118967.861,141282.8,,,
Question 1,html.Screen,2_1_0_2,2022-02-01T13:59:12.337Z,,,,,,,,,,,,,,,,,,,,,,,,,,,,true,FALSE,,4510.200000000012,,response,,,,99,E,,,,,,FALSE,click #choice-2,,,,silence,,,,,145795.39999997616,145793,141266.216,141270.5,141282.8,145795.821,,,
Question 2,html.Screen,2_1_0_3,2022-02-01T13:59:16.391Z,,,,,,,,,,,,,,,,,,,,,,,,,,,,true,TRUE,,4051.4789999821223,,response,,,,99,E,,,,,,TRUE,click #choice-1,,,,silence,,,,,149849.39999997616,149847.29999998212,145779.167,145795.5,145795.821,149859.269,,,
Item 99,flow.Sequence,2_1_0,2022-02-01T13:59:16.391Z,,,,,,,,,,,,,,,,,,,,,,,,,,,,,,,40904.600999982125,,completion,,,,,,,,,,,,,,,,,,,,,149849.59999999404,149847.29999998212,108926.069,108938.19999998808,108942.699,149859.269,,,
Holding screen,html.Screen,2_1_1_0,2022-02-01T13:59:26.377Z,,,,,,,,,,,,,,,,,,,,,,,,,,,,,,,9991.665999999997,,timeout,,,,,,,,,,,,,,,,,,,,,159834.89999997616,159834.322,149842.481,149849.69999998808,149859.269,159850.935,,,
screen,html.Screen,2_1_1_1_0,2022-02-01T13:59:27.110Z,,,,,,,,,,,,,,,,,54,,,,,,,,,,,,,,716.5650000000023,,response,,,,100,,,,,,,Space,keypress(Space),,,,,,,,At --- ---- --- ------ ----- ------- ---- -- --- ------- --<br>------- ---------- ------ -- ----- -- ----- -- ---- ------<br>--- ----- --- --- ------ -------- ----- --- ------ ----- --<br>----- ----- ---------- --- --- ------ ------ ---- -- ------<br>------- --- ------ ----- --- ---- ------- -- ---- --- --<br>------- ------,160568.29999998212,160567.5,159834.322,159835.19999998808,159850.935,160583.677,,0,At
screen,html.Screen,2_1_1_1_1,2022-02-01T13:59:27.444Z,,,,,,,,,,,,,,,,,54,,,,,,,,,,,,,,317.52299998808303,,response,,,,100,,,,,,,Space,keypress(Space),,,,,,,,-- the ---- --- ------ ----- ------- ---- -- --- ------- --<br>------- ---------- ------ -- ----- -- ----- -- ---- ------<br>--- ----- --- --- ------ -------- ----- --- ------ ----- --<br>----- ----- ---------- --- --- ------ ------ ---- -- ------<br>------- --- ------ ----- --- ---- ------- -- ---- --- --<br>------- ------,160901.89999997616,160901.19999998808,160567.009,160568.39999997616,160583.677,160916.732,,1,the
screen,html.Screen,2_1_1_1_2,2022-02-01T13:59:27.941Z,,,,,,,,,,,,,,,,,54,,,,,,,,,,,,,,482.06799998212955,,response,,,,100,,,,,,,Space,keypress(Space),,,,,,,,-- --- time --- ------ ----- ------- ---- -- --- ------- --<br>------- ---------- ------ -- ----- -- ----- -- ---- ------<br>--- ----- --- --- ------ -------- ----- --- ------ ----- --<br>----- ----- ---------- --- --- ------ ------ ---- -- ------<br>------- --- ------ ----- --- ---- ------- -- ---- --- --<br>------- ------,161399.5,161398.79999998212,160900.098,160902,160916.732,161416.322,,2,time
screen,html.Screen,2_1_1_1_3,2022-02-01T13:59:28.344Z,,,,,,,,,,,,,,,,,54,,,,,,,,,,,,,,385.17800000001444,,response,,,,100,,,,,,,Space,keypress(Space),,,,,,,,-- --- ---- the ------ ----- ------- ---- -- --- ------- --<br>------- ---------- ------ -- ----- -- ----- -- ---- ------<br>--- ----- --- --- ------ -------- ----- --- ------ ----- --<br>----- ----- ---------- --- --- ------ ------ ---- -- ------<br>------- --- ------ ----- --- ---- ------- -- ---- --- --<br>------- ------,161802.09999999404,161801.5,161399.634,161399.69999998808,161416.322,161815.993,,3,the
screen,html.Screen,2_1_1_1_4,2022-02-01T13:59:28.978Z,,,,,,,,,,,,,,,,,54,,,,,,,,,,,,,,619.6069999940519,,response,,,,100,,,,,,,Space,keypress(Space),,,,,,,,-- --- ---- --- French ----- ------- ---- -- --- ------- --<br>------- ---------- ------ -- ----- -- ----- -- ---- ------<br>--- ----- --- --- ------ -------- ----- --- ------ ----- --<br>----- ----- ---------- --- --- ------ ------ ---- -- ------<br>------- --- ------ ----- --- ---- ------- -- ---- --- --<br>------- ------,162436.19999998808,162435.59999999404,161799.354,161802.19999998808,161815.993,162448.808,,4,French
screen,html.Screen,2_1_1_1_5,2022-02-01T13:59:29.355Z,,,,,,,,,,,,,,,,,54,,,,,,,,,,,,,,363.29199999404955,,response,,,,100,,,,,,,Space,keypress(Space),,,,,,,,-- --- ---- --- ------ crown ------- ---- -- --- ------- --<br>------- ---------- ------ -- ----- -- ----- -- ---- ------<br>--- ----- --- --- ------ -------- ----- --- ------ ----- --<br>----- ----- ---------- --- --- ------ ------ ---- -- ------<br>------- --- ------ ----- --- ---- ------- -- ---- --- --<br>------- ------,162812.79999998212,162812.09999999404,162432.152,162436.29999998212,162448.808,162815.133,,5,crown
screen,html.Screen,2_1_1_1_6,2022-02-01T13:59:29.821Z,,,,,,,,,,,,,,,,,54,,,,,,,,,,,,,,462.9669999940379,,response,,,,100,,,,,,,Space,keypress(Space),,,,,,,,-- --- ---- --- ------ ----- secured ---- -- --- ------- --<br>------- ---------- ------ -- ----- -- ----- -- ---- ------<br>--- ----- --- --- ------ -------- ----- --- ------ ----- --<br>----- ----- ---------- --- --- ------ ------ ---- -- ------<br>------- --- ------ ----- --- ---- ------- -- ---- --- --<br>------- ------,163278.79999998212,163278.09999999404,162798.533,162812.89999997616,162815.133,163281.415,,6,secured
screen,html.Screen,2_1_1_1_7,2022-02-01T13:59:30.141Z,,,,,,,,,,,,,,,,,54,,,,,,,,,,,,,,317.1849999940314,,response,,,,100,,,,,,,Space,keypress(Space),,,,,,,,-- --- ---- --- ------ ----- ------- much -- --- ------- --<br>------- ---------- ------ -- ----- -- ----- -- ---- ------<br>--- ----- --- --- ------ -------- ----- --- ------ ----- --<br>----- ----- ---------- --- --- ------ ------ ---- -- ------<br>------- --- ------ ----- --- ---- ------- -- ---- --- --<br>------- ------,163599.19999998808,163598.59999999404,163264.813,163279,163281.415,163614.522,,7,much
screen,html.Screen,2_1_1_1_8,2022-02-01T13:59:30.498Z,,,,,,,,,,,,,,,,,54,,,,,,,,,,,,,,341.2779999821214,,response,,,,100,,,,,,,Space,keypress(Space),,,,,,,,-- --- ---- --- ------ ----- ------- ---- of --- ------- --<br>------- ---------- ------ -- ----- -- ----- -- ---- ------<br>--- ----- --- --- ------ -------- ----- --- ------ ----- --<br>----- ----- ---------- --- --- ------ ------ ---- -- ------<br>------- --- ------ ----- --- ---- ------- -- ---- --- --<br>------- ------,163956.39999997616,163955.79999998212,163597.884,163599.29999998212,163614.522,163964.231,,8,of
screen,html.Screen,2_1_1_1_9,2022-02-01T13:59:30.832Z,,,,,,,,,,,,,,,,,54,,,,,,,,,,,,,,325.36899999403977,,response,,,,100,,,,,,,Space,keypress(Space),,,,,,,,-- --- ---- --- ------ ----- ------- ---- -- its ------- --<br>------- ---------- ------ -- ----- -- ----- -- ---- ------<br>--- ----- --- --- ------ -------- ----- --- ------ ----- --<br>----- ----- ---------- --- --- ------ ------ ---- -- ------<br>------- --- ------ ----- --- ---- ------- -- ---- --- --<br>------- ------,164290.19999998808,164289.59999999404,163947.593,163956.59999999404,163964.231,164297.292,,9,its
screen,html.Screen,2_1_1_1_10,2022-02-01T13:59:31.156Z,,,,,,,,,,,,,,,,,54,,,,,,,,,,,,,,315.8079999940528,,response,,,,100,,,,,,,Space,keypress(Space),,,,,,,,-- --- ---- --- ------ ----- ------- ---- -- --- revenue --<br>------- ---------- ------ -- ----- -- ----- -- ---- ------<br>--- ----- --- --- ------ -------- ----- --- ------ ----- --<br>----- ----- ---------- --- --- ------ ------ ---- -- ------<br>------- --- ------ ----- --- ---- ------- -- ---- --- --<br>------- ------,164613.89999997616,164613.09999999404,164280.656,164290.39999997616,164297.292,164630.351,,10,revenue
screen,html.Screen,2_1_1_1_11,2022-02-01T13:59:31.529Z,,,,,,,,,,,,,,,,,54,,,,,,,,,,,,,,355.84899998808396,,response,,,,100,,,,,,,Space,keypress(Space),,,,,,,,-- --- ---- --- ------ ----- ------- ---- -- --- ------- by<br>------- ---------- ------ -- ----- -- ----- -- ---- ------<br>--- ----- --- --- ------ -------- ----- --- ------ ----- --<br>----- ----- ---------- --- --- ------ ------ ---- -- ------<br>------- --- ------ ----- --- ---- ------- -- ---- --- --<br>------- ------,164987,164986.19999998808,164613.711,164614,164630.351,164996.718,,11,by
screen,html.Screen,2_1_1_1_12,2022-02-01T13:59:31.923Z,,,,,,,,,,,,,,,,,54,,,,,,,,,,,,,,383.68199997616466,,response,,,,100,,,,,,,Space,keypress(Space),,,,,,,,-- --- ---- --- ------ ----- ------- ---- -- --- ------- --<br>issuing ---------- ------ -- ----- -- ----- -- ---- ------<br>--- ----- --- --- ------ -------- ----- --- ------ ----- --<br>----- ----- ---------- --- --- ------ ------ ---- -- ------<br>------- --- ------ ----- --- ---- ------- -- ---- --- --<br>------- ------,165381.09999999404,165380.39999997616,164980.08,164987.19999998808,164996.718,165396.389,,12,issuing
screen,html.Screen,2_1_1_1_13,2022-02-01T13:59:32.279Z,,,,,,,,,,,,,,,,,54,,,,,,,,,,,,,,340.21099999404396,,response,,,,100,,,,,,,Space,keypress(Space),,,,,,,,-- --- ---- --- ------ ----- ------- ---- -- --- ------- --<br>------- government ------ -- ----- -- ----- -- ---- ------<br>--- ----- --- --- ------ -------- ----- --- ------ ----- --<br>----- ----- ---------- --- --- ------ ------ ---- -- ------<br>------- --- ------ ----- --- ---- ------- -- ---- --- --<br>------- ------,165737.29999998212,165736.59999999404,165379.744,165381.19999998808,165396.389,165746.102,,13,government
screen,html.Screen,2_1_1_1_14,2022-02-01T13:59:32.694Z,,,,,,,,,,,,,,,,,54,,,,,,,,,,,,,,404.99799999402603,,response,,,,100,,,,,,,Space,keypress(Space),,,,,,,,-- --- ---- --- ------ ----- ------- ---- -- --- ------- --<br>------- ---------- bonds. -- ----- -- ----- -- ---- ------<br>--- ----- --- --- ------ -------- ----- --- ------ ----- --<br>----- ----- ---------- --- --- ------ ------ ---- -- ------<br>------- --- ------ ----- --- ---- ------- -- ---- --- --<br>------- ------,166152,166151.09999999404,165729.468,165737.39999997616,165746.102,166162.418,,14,bonds.
screen,html.Screen,2_1_1_1_15,2022-02-01T13:59:33.390Z,,,,,,,,,,,,,,,,,54,,,,,,,,,,,,,,684.981999976153,,response,,,,100,,,,,,,Space,keypress(Space),,,,,,,,-- --- ---- --- ------ ----- ------- ---- -- --- ------- --<br>------- ---------- ------ In ----- -- ----- -- ---- ------<br>--- ----- --- --- ------ -------- ----- --- ------ ----- --<br>----- ----- ---------- --- --- ------ ------ ---- -- ------<br>------- --- ------ ----- --- ---- ------- -- ---- --- --<br>------- ------,166848.19999998808,166847.39999997616,166145.728,166152.29999998212,166162.418,166861.853,,15,In
screen,html.Screen,2_1_1_1_16,2022-02-01T13:59:33.692Z,,,,,,,,,,,,,,,,,54,,,,,,,,,,,,,,287.24699999403674,,response,,,,100,,,,,,,Space,keypress(Space),,,,,,,,"-- --- ---- --- ------ ----- ------- ---- -- --- ------- --<br>------- ---------- ------ -- 1727, -- ----- -- ---- ------<br>--- ----- --- --- ------ -------- ----- --- ------ ----- --<br>----- ----- ---------- --- --- ------ ------ ---- -- ------<br>------- --- ------ ----- --- ---- ------- -- ---- --- --<br>------- ------",167150.09999999404,167149.09999999404,166845.182,166848.39999997616,166861.853,167161.61,,16,"1727,"
screen,html.Screen,2_1_1_1_17,2022-02-01T13:59:34.363Z,,,,,,,,,,,,,,,,,54,,,,,,,,,,,,,,658.390000000014,,response,,,,100,,,,,,,Space,keypress(Space),,,,,,,,-- --- ---- --- ------ ----- ------- ---- -- --- ------- --<br>------- ---------- ------ -- ----- in ----- -- ---- ------<br>--- ----- --- --- ------ -------- ----- --- ------ ----- --<br>----- ----- ---------- --- --- ------ ------ ---- -- ------<br>------- --- ------ ----- --- ---- ------- -- ---- --- --<br>------- ------,167820.69999998808,167820,167144.973,167150.29999998212,167161.61,167827.728,,17,in
screen,html.Screen,2_1_1_1_18,2022-02-01T13:59:34.847Z,,,,,,,,,,,,,,,,,54,,,,,,,,,,,,,,476.67199997615535,,response,,,,100,,,,,,,Space,keypress(Space),,,,,,,,-- --- ---- --- ------ ----- ------- ---- -- --- ------- --<br>------- ---------- ------ -- ----- -- order -- ---- ------<br>--- ----- --- --- ------ -------- ----- --- ------ ----- --<br>----- ----- ---------- --- --- ------ ------ ---- -- ------<br>------- --- ------ ----- --- ---- ------- -- ---- --- --<br>------- ------,168305,168304.39999997616,167811.07,167820.89999997616,167827.728,168310.671,,18,order
screen,html.Screen,2_1_1_1_19,2022-02-01T13:59:35.197Z,,,,,,,,,,,,,,,,,54,,,,,,,,,,,,,,344.1289999821165,,response,,,,100,,,,,,,Space,keypress(Space),,,,,,,,-- --- ---- --- ------ ----- ------- ---- -- --- ------- --<br>------- ---------- ------ -- ----- -- ----- to ---- ------<br>--- ----- --- --- ------ -------- ----- --- ------ ----- --<br>----- ----- ---------- --- --- ------ ------ ---- -- ------<br>------- --- ------ ----- --- ---- ------- -- ---- --- --<br>------- ------,168655.39999997616,168654.79999998212,168294.018,168305.09999999404,168310.671,168660.681,,19,to
screen,html.Screen,2_1_1_1_20,2022-02-01T13:59:35.555Z,,,,,,,,,,,,,,,,,54,,,,,,,,,,,,,,351.51899998806766,,response,,,,100,,,,,,,Space,keypress(Space),,,,,,,,-- --- ---- --- ------ ----- ------- ---- -- --- ------- --<br>------- ---------- ------ -- ----- -- ----- -- save ------<br>--- ----- --- --- ------ -------- ----- --- ------ ----- --<br>----- ----- ---------- --- --- ------ ------ ---- -- ------<br>------- --- ------ ----- --- ---- ------- -- ---- --- --<br>------- ------,169012.89999997616,169012.19999998808,168643.739,168655.59999999404,168660.681,169026.743,,20,save
screen,html.Screen,2_1_1_1_21,2022-02-01T13:59:36.034Z,,,,,,,,,,,,,,,,,54,,,,,,,,,,,,,,464.75700000001234,,response,,,,100,,,,,,,Space,keypress(Space),,,,,,,,"-- --- ---- --- ------ ----- ------- ---- -- --- ------- --<br>------- ---------- ------ -- ----- -- ----- -- ---- money,<br>--- ----- --- --- ------ -------- ----- --- ------ ----- --<br>----- ----- ---------- --- --- ------ ------ ---- -- ------<br>------- --- ------ ----- --- ---- ------- -- ---- --- --<br>------- ------",169492.39999997616,169491.5,169010.104,169013.09999999404,169026.743,169509.715,,21,"money,"
screen,html.Screen,2_1_1_1_22,2022-02-01T13:59:36.582Z,,,,,,,,,,,,,,,,,54,,,,,,,,,,,,,,530.2850000000035,,response,,,,100,,,,,,,Space,keypress(Space),,,,,,,,-- --- ---- --- ------ ----- ------- ---- -- --- ------- --<br>------- ---------- ------ -- ----- -- ----- -- ---- ------<br>the ----- --- --- ------ -------- ----- --- ------ ----- --<br>----- ----- ---------- --- --- ------ ------ ---- -- ------<br>------- --- ------ ----- --- ---- ------- -- ---- --- --<br>------- ------,170040.69999998808,170040,169493.034,169492.5,169509.715,170042.574,,22,the
screen,html.Screen,2_1_1_1_23,2022-02-01T13:59:37.000Z,,,,,,,,,,,,,,,,,54,,,,,,,,,,,,,,414.5259999940463,,response,,,,100,,,,,,,Space,keypress(Space),,,,,,,,-- --- ---- --- ------ ----- ------- ---- -- --- ------- --<br>------- ---------- ------ -- ----- -- ----- -- ---- ------<br>--- state --- --- ------ -------- ----- --- ------ ----- --<br>----- ----- ---------- --- --- ------ ------ ---- -- ------<br>------- --- ------ ----- --- ---- ------- -- ---- --- --<br>------- ------,170457.79999998212,170457.09999999404,170025.943,170040.79999998212,170042.574,170488.651,,23,state
screen,html.Screen,2_1_1_1_24,2022-02-01T13:59:37.547Z,,,,,,,,,,,,,,,,,54,,,,,,,,,,,,,,516.0489999880665,,response,,,,100,,,,,,,Space,keypress(Space),,,,,,,,-- --- ---- --- ------ ----- ------- ---- -- --- ------- --<br>------- ---------- ------ -- ----- -- ----- -- ---- ------<br>--- ----- cut --- ------ -------- ----- --- ------ ----- --<br>----- ----- ---------- --- --- ------ ------ ---- -- ------<br>------- --- ------ ----- --- ---- ------- -- ---- --- --<br>------- ------,171005.59999999404,171004.69999998808,170442.262,170458,170488.651,171025.098,,24,cut
screen,html.Screen,2_1_1_1_25,2022-02-01T13:59:37.976Z,,,,,,,,,,,,,,,,,54,,,,,,,,,,,,,,408.70199998212047,,response,,,,100,,,,,,,Space,keypress(Space),,,,,,,,-- --- ---- --- ------ ----- ------- ---- -- --- ------- --<br>------- ---------- ------ -- ----- -- ----- -- ---- ------<br>--- ----- --- the ------ -------- ----- --- ------ ----- --<br>----- ----- ---------- --- --- ------ ------ ---- -- ------<br>------- --- ------ ----- --- ---- ------- -- ---- --- --<br>------- ------,171434.59999999404,171433.79999998212,170991.762,171005.79999998212,171025.098,171441.428,,25,the
screen,html.Screen,2_1_1_1_26,2022-02-01T13:59:38.352Z,,,,,,,,,,,,,,,,,54,,,,,,,,,,,,,,367.6719999940251,,response,,,,100,,,,,,,Space,keypress(Space),,,,,,,,-- --- ---- --- ------ ----- ------- ---- -- --- ------- --<br>------- ---------- ------ -- ----- -- ----- -- ---- ------<br>--- ----- --- --- bonds' -------- ----- --- ------ ----- --<br>----- ----- ---------- --- --- ------ ------ ---- -- ------<br>------- --- ------ ----- --- ---- ------- -- ---- --- --<br>------- ------,171809.89999997616,171809.09999999404,171424.785,171434.79999998212,171441.428,171824.448,,26,bonds'
screen,html.Screen,2_1_1_1_27,2022-02-01T13:59:38.749Z,,,,,,,,,,,,,,,,,54,,,,,,,,,,,,,,381.7519999880751,,response,,,,100,,,,,,,Space,keypress(Space),,,,,,,,-- --- ---- --- ------ ----- ------- ---- -- --- ------- --<br>------- ---------- ------ -- ----- -- ----- -- ---- ------<br>--- ----- --- --- ------ interest ----- --- ------ ----- --<br>----- ----- ---------- --- --- ------ ------ ---- -- ------<br>------- --- ------ ----- --- ---- ------- -- ---- --- --<br>------- ------,172206.79999998212,172206.19999998808,171807.806,171810.09999999404,171824.448,172224.111,,27,interest
screen,html.Screen,2_1_1_1_28,2022-02-01T13:59:39.185Z,,,,,,,,,,,,,,,,,54,,,,,,,,,,,,,,418.3889999999956,,response,,,,100,,,,,,,Space,keypress(Space),,,,,,,,-- --- ---- --- ------ ----- ------- ---- -- --- ------- --<br>------- ---------- ------ -- ----- -- ----- -- ---- ------<br>--- ----- --- --- ------ -------- rate. --- ------ ----- --<br>----- ----- ---------- --- --- ------ ------ ---- -- ------<br>------- --- ------ ----- --- ---- ------- -- ---- --- --<br>------- ------,172643.19999998808,172642.5,172207.476,172207,172224.111,172657.091,,28,rate.
screen,html.Screen,2_1_1_1_29,2022-02-01T13:59:39.659Z,,,,,,,,,,,,,,,,,54,,,,,,,,,,,,,,459.1089999880933,,response,,,,100,,,,,,,Space,keypress(Space),,,,,,,,-- --- ---- --- ------ ----- ------- ---- -- --- ------- --<br>------- ---------- ------ -- ----- -- ----- -- ---- ------<br>--- ----- --- --- ------ -------- ----- The ------ ----- --<br>----- ----- ---------- --- --- ------ ------ ---- -- ------<br>------- --- ------ ----- --- ---- ------- -- ---- --- --<br>------- ------,173117,173116.19999998808,172640.456,172643.29999998212,172657.091,173123.43,,29,The
screen,html.Screen,2_1_1_1_30,2022-02-01T13:59:39.977Z,,,,,,,,,,,,,,,,,54,,,,,,,,,,,,,,311.1699999940465,,response,,,,100,,,,,,,Space,keypress(Space),,,,,,,,-- --- ---- --- ------ ----- ------- ---- -- --- ------- --<br>------- ---------- ------ -- ----- -- ----- -- ---- ------<br>--- ----- --- --- ------ -------- ----- --- market ----- --<br>----- ----- ---------- --- --- ------ ------ ---- -- ------<br>------- --- ------ ----- --- ---- ------- -- ---- --- --<br>------- ------,173435.5,173434.59999999404,173106.733,173117.09999999404,173123.43,173439.765,,30,market
screen,html.Screen,2_1_1_1_31,2022-02-01T13:59:40.414Z,,,,,,,,,,,,,,,,,54,,,,,,,,,,,,,,431.23499999998603,,response,,,,100,,,,,,,Space,keypress(Space),,,,,,,,-- --- ---- --- ------ ----- ------- ---- -- --- ------- --<br>------- ---------- ------ -- ----- -- ----- -- ---- ------<br>--- ----- --- --- ------ -------- ----- --- ------ value --<br>----- ----- ---------- --- --- ------ ------ ---- -- ------<br>------- --- ------ ----- --- ---- ------- -- ---- --- --<br>------- ------,173871.79999998212,173871,173423.154,173435.69999998808,173439.765,173903.275,,31,value
screen,html.Screen,2_1_1_1_32,2022-02-01T13:59:40.787Z,,,,,,,,,,,,,,,,,54,,,,,,,,,,,,,,341.2250000000058,,response,,,,100,,,,,,,Space,keypress(Space),,,,,,,,-- --- ---- --- ------ ----- ------- ---- -- --- ------- --<br>------- ---------- ------ -- ----- -- ----- -- ---- ------<br>--- ----- --- --- ------ -------- ----- --- ------ ----- of<br>----- ----- ---------- --- --- ------ ------ ---- -- ------<br>------- --- ------ ----- --- ---- ------- -- ---- --- --<br>------- ------,174245.29999998212,174244.5,173856.127,173872,173903.275,174255.786,,32,of
screen,html.Screen,2_1_1_1_33,2022-02-01T13:59:41.230Z,,,,,,,,,,,,,,,,,54,,,,,,,,,,,,,,431.4139999880863,,response,,,,100,,,,,,,Space,keypress(Space),,,,,,,,-- --- ---- --- ------ ----- ------- ---- -- --- ------- --<br>------- ---------- ------ -- ----- -- ----- -- ---- ------<br>--- ----- --- --- ------ -------- ----- --- ------ ----- --<br>these ----- ---------- --- --- ------ ------ ---- -- ------<br>------- --- ------ ----- --- ---- ------- -- ---- --- --<br>------- ------,174688,174687.19999998808,174239.148,174245.29999998212,174255.786,174722.103,,33,these
screen,html.Screen,2_1_1_1_34,2022-02-01T13:59:41.651Z,,,,,,,,,,,,,,,,,54,,,,,,,,,,,,,,386.3969999999972,,response,,,,100,,,,,,,Space,keypress(Space),,,,,,,,-- --- ---- --- ------ ----- ------- ---- -- --- ------- --<br>------- ---------- ------ -- ----- -- ----- -- ---- ------<br>--- ----- --- --- ------ -------- ----- --- ------ ----- --<br>----- bonds ---------- --- --- ------ ------ ---- -- ------<br>------- --- ------ ----- --- ---- ------- -- ---- --- --<br>------- ------,175109.19999998808,175108.5,174705.429,174688.29999998212,174722.103,175121.741,,34,bonds
screen,html.Screen,2_1_1_1_35,2022-02-01T13:59:42.105Z,,,,,,,,,,,,,,,,,54,,,,,,,,,,,,,,440.5589999821095,,response,,,,100,,,,,,,Space,keypress(Space),,,,,,,,"-- --- ---- --- ------ ----- ------- ---- -- --- ------- --<br>------- ---------- ------ -- ----- -- ----- -- ---- ------<br>--- ----- --- --- ------ -------- ----- --- ------ ----- --<br>----- ----- plummeted, --- --- ------ ------ ---- -- ------<br>------- --- ------ ----- --- ---- ------- -- ---- --- --<br>------- ------",175563.09999999404,175562.29999998212,175105.099,175109.29999998212,175121.741,175571.372,,35,"plummeted,"
screen,html.Screen,2_1_1_1_36,2022-02-01T13:59:42.554Z,,,,,,,,,,,,,,,,,54,,,,,,,,,,,,,,439.7279999940365,,response,,,,100,,,,,,,Space,keypress(Space),,,,,,,,-- --- ---- --- ------ ----- ------- ---- -- --- ------- --<br>------- ---------- ------ -- ----- -- ----- -- ---- ------<br>--- ----- --- --- ------ -------- ----- --- ------ ----- --<br>----- ----- ---------- and --- ------ ------ ---- -- ------<br>------- --- ------ ----- --- ---- ------- -- ---- --- --<br>------- ------,176011.79999998212,176011.09999999404,175554.725,175563.19999998808,175571.372,176021.003,,36,and
screen,html.Screen,2_1_1_1_37,2022-02-01T13:59:42.893Z,,,,,,,,,,,,,,,,,54,,,,,,,,,,,,,,329.1969999880821,,response,,,,100,,,,,,,Space,keypress(Space),,,,,,,,-- --- ---- --- ------ ----- ------- ---- -- --- ------- --<br>------- ---------- ------ -- ----- -- ----- -- ---- ------<br>--- ----- --- --- ------ -------- ----- --- ------ ----- --<br>----- ----- ---------- --- the ------ ------ ---- -- ------<br>------- --- ------ ----- --- ---- ------- -- ---- --- --<br>------- ------,176351,176350.19999998808,176004.361,176012,176021.003,176354.021,,37,the
screen,html.Screen,2_1_1_1_38,2022-02-01T13:59:43.321Z,,,,,,,,,,,,,,,,,54,,,,,,,,,,,,,,423.8789999761502,,response,,,,100,,,,,,,Space,keypress(Space),,,,,,,,-- --- ---- --- ------ ----- ------- ---- -- --- ------- --<br>------- ---------- ------ -- ----- -- ----- -- ---- ------<br>--- ----- --- --- ------ -------- ----- --- ------ ----- --<br>----- ----- ---------- --- --- market ------ ---- -- ------<br>------- --- ------ ----- --- ---- ------- -- ---- --- --<br>------- ------,176778.69999998808,176777.89999997616,176337.425,176351.19999998808,176354.021,176787.041,,38,market
screen,html.Screen,2_1_1_1_39,2022-02-01T13:59:43.716Z,,,,,,,,,,,,,,,,,54,,,,,,,,,,,,,,386.25899998212117,,response,,,,100,,,,,,,Space,keypress(Space),,,,,,,,-- --- ---- --- ------ ----- ------- ---- -- --- ------- --<br>------- ---------- ------ -- ----- -- ----- -- ---- ------<br>--- ----- --- --- ------ -------- ----- --- ------ ----- --<br>----- ----- ---------- --- --- ------ became ---- -- ------<br>------- --- ------ ----- --- ---- ------- -- ---- --- --<br>------- ------,177174,177173.29999998212,176770.4,176778.89999997616,176787.041,177186.712,,39,became
screen,html.Screen,2_1_1_1_40,2022-02-01T13:59:44.122Z,,,,,,,,,,,,,,,,,54,,,,,,,,,,,,,,392.38799999404,,response,,,,100,,,,,,,Space,keypress(Space),,,,,,,,-- --- ---- --- ------ ----- ------- ---- -- --- ------- --<br>------- ---------- ------ -- ----- -- ----- -- ---- ------<br>--- ----- --- --- ------ -------- ----- --- ------ ----- --<br>----- ----- ---------- --- --- ------ ------ wary -- ------<br>------- --- ------ ----- --- ---- ------- -- ---- --- --<br>------- ------,177579.89999997616,177579.09999999404,177170.071,177174.19999998808,177186.712,177586.384,,40,wary
screen,html.Screen,2_1_1_1_41,2022-02-01T13:59:44.516Z,,,,,,,,,,,,,,,,,54,,,,,,,,,,,,,,386.7159999940486,,response,,,,100,,,,,,,Space,keypress(Space),,,,,,,,-- --- ---- --- ------ ----- ------- ---- -- --- ------- --<br>------- ---------- ------ -- ----- -- ----- -- ---- ------<br>--- ----- --- --- ------ -------- ----- --- ------ ----- --<br>----- ----- ---------- --- --- ------ ------ ---- of ------<br>------- --- ------ ----- --- ---- ------- -- ---- --- --<br>------- ------,177973.89999997616,177973.09999999404,177569.745,177580,177586.384,177986.057,,41,of
screen,html.Screen,2_1_1_1_42,2022-02-01T13:59:44.916Z,,,,,,,,,,,,,,,,,54,,,,,,,,,,,,,,387.54299999403884,,response,,,,100,,,,,,,Space,keypress(Space),,,,,,,,-- --- ---- --- ------ ----- ------- ---- -- --- ------- --<br>------- ---------- ------ -- ----- -- ----- -- ---- ------<br>--- ----- --- --- ------ -------- ----- --- ------ ----- --<br>----- ----- ---------- --- --- ------ ------ ---- -- French<br>------- --- ------ ----- --- ---- ------- -- ---- --- --<br>------- ------,178374.39999997616,178373.59999999404,177969.418,177974,177986.057,178385.729,,42,French
screen,html.Screen,2_1_1_1_43,2022-02-01T13:59:45.829Z,,,,,,,,,,,,,,,,,54,,,,,,,,,,,,,,901.2710000000079,,response,,,,100,,,,,,,Space,keypress(Space),,,,,,,,-- --- ---- --- ------ ----- ------- ---- -- --- ------- --<br>------- ---------- ------ -- ----- -- ----- -- ---- ------<br>--- ----- --- --- ------ -------- ----- --- ------ ----- --<br>----- ----- ---------- --- --- ------ ------ ---- -- ------<br>credit. --- ------ ----- --- ---- ------- -- ---- --- --<br>------- ------,179287.69999998808,179287,178369.088,178374.59999999404,178385.729,179301.644,,43,credit.
screen,html.Screen,2_1_1_1_44,2022-02-01T13:59:46.395Z,,,,,,,,,,,,,,,,,54,,,,,,,,,,,,,,551.0559999880788,,response,,,,100,,,,,,,Space,keypress(Space),,,,,,,,-- --- ---- --- ------ ----- ------- ---- -- --- ------- --<br>------- ---------- ------ -- ----- -- ----- -- ---- ------<br>--- ----- --- --- ------ -------- ----- --- ------ ----- --<br>----- ----- ---------- --- --- ------ ------ ---- -- ------<br>------- The ------ ----- --- ---- ------- -- ---- --- --<br>------- ------,179853.39999997616,179852.69999998808,179284.97,179287.89999997616,179301.644,179867.848,,44,The
screen,html.Screen,2_1_1_1_45,2022-02-01T13:59:46.888Z,,,,,,,,,,,,,,,,,54,,,,,,,,,,,,,,478.05199997616,,response,,,,100,,,,,,,Space,keypress(Space),,,,,,,,-- --- ---- --- ------ ----- ------- ---- -- --- ------- --<br>------- ---------- ------ -- ----- -- ----- -- ---- ------<br>--- ----- --- --- ------ -------- ----- --- ------ ----- --<br>----- ----- ---------- --- --- ------ ------ ---- -- ------<br>------- --- French ----- --- ---- ------- -- ---- --- --<br>------- ------,180346.59999999404,180345.89999997616,179851.145,179853.5,179867.848,180350.727,,45,French
screen,html.Screen,2_1_1_1_46,2022-02-01T13:59:47.574Z,,,,,,,,,,,,,,,,,54,,,,,,,,,,,,,,680.4729999880656,,response,,,,100,,,,,,,Space,keypress(Space),,,,,,,,-- --- ---- --- ------ ----- ------- ---- -- --- ------- --<br>------- ---------- ------ -- ----- -- ----- -- ---- ------<br>--- ----- --- --- ------ -------- ----- --- ------ ----- --<br>----- ----- ---------- --- --- ------ ------ ---- -- ------<br>------- --- ------ state --- ---- ------- -- ---- --- --<br>------- ------,181031.79999998212,181031.19999998808,180334.136,180346.69999998808,180350.727,181033.51,,46,state
screen,html.Screen,2_1_1_1_47,2022-02-01T13:59:48.029Z,,,,,,,,,,,,,,,,,54,,,,,,,,,,,,,,452.5899999940302,,response,,,,100,,,,,,,Space,keypress(Space),,,,,,,,-- --- ---- --- ------ ----- ------- ---- -- --- ------- --<br>------- ---------- ------ -- ----- -- ----- -- ---- ------<br>--- ----- --- --- ------ -------- ----- --- ------ ----- --<br>----- ----- ---------- --- --- ------ ------ ---- -- ------<br>------- --- ------ ----- was ---- ------- -- ---- --- --<br>------- ------,181486.89999997616,181486.09999999404,181016.901,181031.89999997616,181033.51,181499.839,,47,was
screen,html.Screen,2_1_1_1_48,2022-02-01T13:59:48.520Z,,,,,,,,,,,,,,,,,54,,,,,,,,,,,,,,478.0609999761509,,response,,,,100,,,,,,,Space,keypress(Space),,,,,,,,-- --- ---- --- ------ ----- ------- ---- -- --- ------- --<br>------- ---------- ------ -- ----- -- ----- -- ---- ------<br>--- ----- --- --- ------ -------- ----- --- ------ ----- --<br>----- ----- ---------- --- --- ------ ------ ---- -- ------<br>------- --- ------ ----- --- left ------- -- ---- --- --<br>------- ------,181978.59999999404,181977.89999997616,181483.191,181487,181499.839,181982.751,,48,left
screen,html.Screen,2_1_1_1_49,2022-02-01T13:59:48.903Z,,,,,,,,,,,,,,,,,54,,,,,,,,,,,,,,377.5489999821293,,response,,,,100,,,,,,,Space,keypress(Space),,,,,,,,-- --- ---- --- ------ ----- ------- ---- -- --- ------- --<br>------- ---------- ------ -- ----- -- ----- -- ---- ------<br>--- ----- --- --- ------ -------- ----- --- ------ ----- --<br>----- ----- ---------- --- --- ------ ------ ---- -- ------<br>------- --- ------ ----- --- ---- without -- ---- --- --<br>------- ------,182361.09999999404,182360.29999998212,181966.137,181978.69999998808,181982.751,182365.731,,49,without
screen,html.Screen,2_1_1_1_50,2022-02-01T13:59:49.308Z,,,,,,,,,,,,,,,,,54,,,,,,,,,,,,,,399.56899998211884,,response,,,,100,,,,,,,Space,keypress(Space),,,,,,,,-- --- ---- --- ------ ----- ------- ---- -- --- ------- --<br>------- ---------- ------ -- ----- -- ----- -- ---- ------<br>--- ----- --- --- ------ -------- ----- --- ------ ----- --<br>----- ----- ---------- --- --- ------ ------ ---- -- ------<br>------- --- ------ ----- --- ---- ------- an ---- --- --<br>------- ------,182765.89999997616,182765.29999998212,182349.155,182361.09999999404,182365.731,182782.159,,50,an
screen,html.Screen,2_1_1_1_51,2022-02-01T13:59:49.722Z,,,,,,,,,,,,,,,,,54,,,,,,,,,,,,,,397.24099997614394,,response,,,,100,,,,,,,Space,keypress(Space),,,,,,,,-- --- ---- --- ------ ----- ------- ---- -- --- ------- --<br>------- ---------- ------ -- ----- -- ----- -- ---- ------<br>--- ----- --- --- ------ -------- ----- --- ------ ----- --<br>----- ----- ---------- --- --- ------ ------ ---- -- ------<br>------- --- ------ ----- --- ---- ------- -- easy --- --<br>------- ------,183180,183179.39999997616,182765.481,182766,182782.159,183181.787,,51,easy
screen,html.Screen,2_1_1_1_52,2022-02-01T13:59:50.126Z,,,,,,,,,,,,,,,,,54,,,,,,,,,,,,,,401.31299999402836,,response,,,,100,,,,,,,Space,keypress(Space),,,,,,,,-- --- ---- --- ------ ----- ------- ---- -- --- ------- --<br>------- ---------- ------ -- ----- -- ----- -- ---- ------<br>--- ----- --- --- ------ -------- ----- --- ------ ----- --<br>----- ----- ---------- --- --- ------ ------ ---- -- ------<br>------- --- ------ ----- --- ---- ------- -- ---- way --<br>------- ------,183583.79999998212,183583.09999999404,183165.149,183180.29999998212,183181.787,183598.119,,52,way
screen,html.Screen,2_1_1_1_53,2022-02-01T13:59:50.503Z,,,,,,,,,,,,,,,,,54,,,,,,,,,,,,,,362.4809999940335,,response,,,,100,,,,,,,Space,keypress(Space),,,,,,,,-- --- ---- --- ------ ----- ------- ---- -- --- ------- --<br>------- ---------- ------ -- ----- -- ----- -- ---- ------<br>--- ----- --- --- ------ -------- ----- --- ------ ----- --<br>----- ----- ---------- --- --- ------ ------ ---- -- ------<br>------- --- ------ ----- --- ---- ------- -- ---- --- of<br>------- ------,183961.29999998212,183960.59999999404,183581.479,183584,183598.119,183964.432,,53,of
screen,html.Screen,2_1_1_1_54,2022-02-01T13:59:50.921Z,,,,,,,,,,,,,,,,,54,,,,,,,,,,,,,,413.5679999999993,,response,,,,100,,,,,,,Space,keypress(Space),,,,,,,,-- --- ---- --- ------ ----- ------- ---- -- --- ------- --<br>------- ---------- ------ -- ----- -- ----- -- ---- ------<br>--- ----- --- --- ------ -------- ----- --- ------ ----- --<br>----- ----- ---------- --- --- ------ ------ ---- -- ------<br>------- --- ------ ----- --- ---- ------- -- ---- --- --<br>raising ------,184378.69999998808,184378,183947.844,183961.39999997616,183964.432,184380.806,,54,raising
screen,html.Screen,2_1_1_1_55,2022-02-01T13:59:51.597Z,,,,,,,,,,,,,,,,,54,,,,,,,,,,,,,,673.3939999880677,,response,,,,100,,,,,,,Space,keypress(Space),,,,,,,,-- --- ---- --- ------ ----- ------- ---- -- --- ------- --<br>------- ---------- ------ -- ----- -- ----- -- ---- ------<br>--- ----- --- --- ------ -------- ----- --- ------ ----- --<br>----- ----- ---------- --- --- ------ ------ ---- -- ------<br>------- --- ------ ----- --- ---- ------- -- ---- --- --<br>------- money.,185055.09999999404,185054.19999998808,184364.167,184378.89999997616,184380.806,185063.663,,55,money.
Item 100,flow.Loop,2_1_1_1,2022-02-01T13:59:51.597Z,,,,,,,,,,,,,,,,,,,,,,,,,,,,,,,25203.26499998808,,completion,,,,,E,,,,,,,,,,,silence,,,,,185055.19999998808,185054.19999998808,159834.322,159835,159850.935,185063.663,,,
Question 1,html.Screen,2_1_1_2,2022-02-01T13:59:54.050Z,,,,,,,,,,,,,,,,,,,,,,,,,,,,true,TRUE,,2441.3369999999995,,response,,,,100,E,,,,,,TRUE,click #choice-1,,,,silence,,,,,187507.59999999404,187505,185046.933,185055.29999998212,185063.663,187511.605,,,
Question 2,html.Screen,2_1_1_3,2022-02-01T13:59:59.687Z,,,,,,,,,,,,,,,,,,,,,,,,,,,,false,FALSE,,5629.294999976148,,response,,,,100,E,,,,,,TRUE,click #choice-1,,,,silence,,,,,193145,193140.89999997616,187494.917,187507.69999998808,187511.605,193156.981,,,
Item 100,flow.Sequence,2_1_1,2022-02-01T13:59:59.687Z,,,,,,,,,,,,,,,,,,,,,,,,,,,,,,,43281.63099997616,,completion,,,,,,,,,,,,,,,,,,,,,193145.19999998808,193140.89999997616,149842.481,149849.59999999404,149859.269,193156.981,,,
End of Practice,html.Page,2_1_2,2022-02-01T14:00:03.900Z,,,,,,,,,,,,,,,,,,,,,,,,,,,,,,,4201.019,,form submission,,,,,,,,,,,,,,,,,,,,,197358.29999998212,197358,193140.286,193145.29999998212,193156.981,197370.191,,,
Practice,flow.Sequence,2_1,2022-02-01T14:00:03.901Z,,,,,,,,,,,,,,,,,,,,,,,,,,,,,,,88415.301,,completion,,,,,,,,,,,,,,,,,,,,,197358.5,197358,108926.069,108938.19999998808,108942.699,197370.191,,,
Trap_instruction,html.Page,2_2_0,2022-02-01T14:00:08.024Z,,,,,,,,,,,,,,,,,,,,,,,,,,,,,,,4111.908999994048,,form submission,,,,,,,,,,,,,,,,,,,,,201482.39999997616,201482.09999999404,197353.489,197358.69999998808,197370.191,201533.444,,,
trap_trial,html.Screen,2_2_1,2022-02-01T14:00:11.076Z,,,,,,,,,,,,,,,,,,,,,,,,,,,,true,1,,2998.7559999880905,,response,,,,,,,,,,,1,click #choice-1,,,,,,,,,204534.39999997616,204532.19999998808,201466.784,201482.59999999404,201533.444,204547.577,,,
end of trap trial,html.Page,2_2_2,2022-02-01T14:00:12.593Z,,,,,,,,,,,,,,,,,,,,,,,,,,,,,,,1503.5229999940493,,form submission,,,,,,,,,,,,,,,,,,,,,206051.39999997616,206051.09999999404,204530.842,204534.59999999404,204547.577,206063.047,,,
Trap 1,flow.Sequence,2_2,2022-02-01T14:00:12.594Z,,,,,,,,,,,,,,,,,,,,,,,,,,,,,,,8680.908999994048,,completion,,,,,,,,,,,,,,,,,,,,,206051.5,206051.09999999404,197353.489,197358.69999998808,197370.191,206063.047,,,
Standby,html.Page,2_3_0,2022-02-01T14:00:20.582Z,,,,,,,,,,,,,,,,,,,,,,,,,,,,,,,7993.390000000014,,timeout,,,,,,,,,,,,,,,,,,,,,214040.39999997616,214039.837,206046.318,206051.69999998808,206063.047,214056.437,,,
Holding screen,html.Screen,2_3_1_0_0,2022-02-01T14:00:27.577Z,,,,,,,,,,,,,,,,,,,,,,,,,,,,,,,6994.2759999999835,,timeout,,,,,,,,,,,,,,,,,,,,,221034.79999998212,221034.096,214039.837,214040.5,214056.437,221050.713,,,
screen,html.Screen,2_3_1_0_1_0,2022-02-01T14:00:28.267Z,,,,,,,,,,,,,,,,,11,,,,,,,,,,,,,,673.4869999880902,,response,,,,4,E,,,,,,Space,keypress(Space),,,,lyrical,,,,Known -- ---- --- -- --- -------- ------------ ---------- --<br>- ------- ------ --------- -- ------------ -- --- ---- -----<br>------ ---- ---- ------ ------ ------- --- ----- ---------<br>---- --- -------- -------- --- --- -- ------- --- --- -----<br>-- --- ------ ------- --- --- -------- ---- --------- --<br>---------- -- -------- ----------------,221725,221724.19999998808,221034.096,221035.09999999404,221050.713,221733.486,,0,Known
screen,html.Screen,2_3_1_0_1_1,2022-02-01T14:00:28.698Z,,,,,,,,,,,,,,,,,11,,,,,,,,,,,,,,422.21399998807465,,response,,,,4,E,,,,,,Space,keypress(Space),,,,lyrical,,,,----- as ---- --- -- --- -------- ------------ ---------- --<br>- ------- ------ --------- -- ------------ -- --- ---- -----<br>------ ---- ---- ------ ------ ------- --- ----- ---------<br>---- --- -------- -------- --- --- -- ------- --- --- -----<br>-- --- ------ ------- --- --- -------- ---- --------- --<br>---------- -- -------- ----------------,222156.39999997616,222155.69999998808,221716.831,221725.09999999404,221733.486,222166.475,,1,as
screen,html.Screen,2_3_1_0_1_2,2022-02-01T14:00:29.060Z,,,,,,,,,,,,,,,,,11,,,,,,,,,,,,,,351.22499998807325,,response,,,,4,E,,,,,,Space,keypress(Space),,,,lyrical,,,,----- -- Rapa --- -- --- -------- ------------ ---------- --<br>- ------- ------ --------- -- ------------ -- --- ---- -----<br>------ ---- ---- ------ ------ ------- --- ----- ---------<br>---- --- -------- -------- --- --- -- ------- --- --- -----<br>-- --- ------ ------- --- --- -------- ---- --------- --<br>---------- -- -------- ----------------,222518.39999997616,222517.69999998808,222149.792,222156.59999999404,222166.475,222532.887,,2,Rapa
screen,html.Screen,2_3_1_0_1_3,2022-02-01T14:00:29.576Z,,,,,,,,,,,,,,,,,11,,,,,,,,,,,,,,500.01299997617025,,response,,,,4,E,,,,,,Space,keypress(Space),,,,lyrical,,,,----- -- ---- Nui -- --- -------- ------------ ---------- --<br>- ------- ------ --------- -- ------------ -- --- ---- -----<br>------ ---- ---- ------ ------ ------- --- ----- ---------<br>---- --- -------- -------- --- --- -- ------- --- --- -----<br>-- --- ------ ------- --- --- -------- ---- --------- --<br>---------- -- -------- ----------------,223033.59999999404,223032.89999997616,222516.192,222518.59999999404,222532.887,223049.074,,3,Nui
screen,html.Screen,2_3_1_0_1_4,2022-02-01T14:00:30.199Z,,,,,,,,,,,,,,,,,11,,,,,,,,,,,,,,607.3259999761649,,response,,,,4,E,,,,,,Space,keypress(Space),,,,lyrical,,,,----- -- ---- --- to --- -------- ------------ ---------- --<br>- ------- ------ --------- -- ------------ -- --- ---- -----<br>------ ---- ---- ------ ------ ------- --- ----- ---------<br>---- --- -------- -------- --- --- -- ------- --- --- -----<br>-- --- ------ ------- --- --- -------- ---- --------- --<br>---------- -- -------- ----------------,223657.29999998212,223656.39999997616,223032.391,223033.79999998212,223049.074,223665.235,,4,to
screen,html.Screen,2_3_1_0_1_5,2022-02-01T14:00:30.623Z,,,,,,,,,,,,,,,,,11,,,,,,,,,,,,,,415.1649999761721,,response,,,,4,E,,,,,,Space,keypress(Space),,,,lyrical,,,,----- -- ---- --- -- the -------- ------------ ---------- --<br>- ------- ------ --------- -- ------------ -- --- ---- -----<br>------ ---- ---- ------ ------ ------- --- ----- ---------<br>---- --- -------- -------- --- --- -- ------- --- --- -----<br>-- --- ------ ------- --- --- -------- ---- --------- --<br>---------- -- -------- ----------------,224081,224080.39999997616,223648.583,223657.39999997616,223665.235,224098.184,,5,the
screen,html.Screen,2_3_1_0_1_6,2022-02-01T14:00:31.200Z,,,,,,,,,,,,,,,,,11,,,,,,,,,,,,,,559.0159999880707,,response,,,,4,E,,,,,,Space,keypress(Space),,,,lyrical,,,,----- -- ---- --- -- --- island's ------------ ---------- --<br>- ------- ------ --------- -- ------------ -- --- ---- -----<br>------ ---- ---- ------ ------ ------- --- ----- ---------<br>---- --- -------- -------- --- --- -- ------- --- --- -----<br>-- --- ------ ------- --- --- -------- ---- --------- --<br>---------- -- -------- ----------------,224658,224657.19999998808,224081.567,224081.09999999404,224098.184,224664.464,,6,island's
screen,html.Screen,2_3_1_0_1_7,2022-02-01T14:00:32.054Z,,,,,,,,,,,,,,,,,11,,,,,,,,,,,,,,846.6359999940323,,response,,,,4,E,,,,,,Space,keypress(Space),,,,lyrical,,,,"----- -- ---- --- -- --- -------- inhabitants, ---------- --<br>- ------- ------ --------- -- ------------ -- --- ---- -----<br>------ ---- ---- ------ ------ ------- --- ----- ---------<br>---- --- -------- -------- --- --- -- ------- --- --- -----<br>-- --- ------ ------- --- --- -------- ---- --------- --<br>---------- -- -------- ----------------",225511.79999998212,225511.09999999404,224647.767,224658.09999999404,224664.464,225513.678,,7,"inhabitants,"
screen,html.Screen,2_3_1_0_1_8,2022-02-01T14:00:33.108Z,,,,,,,,,,,,,,,,,11,,,,,,,,,,,,,,1051.6219999821042,,response,,,,4,E,,,,,,Space,keypress(Space),,,,lyrical,,,,----- -- ---- --- -- --- -------- ------------ Rongorongo --<br>- ------- ------ --------- -- ------------ -- --- ---- -----<br>------ ---- ---- ------ ------ ------- --- ----- ---------<br>---- --- -------- -------- --- --- -- ------- --- --- -----<br>-- --- ------ ------- --- --- -------- ---- --------- --<br>---------- -- -------- ----------------,226566,226565.29999998212,225497.005,225511.89999997616,225513.678,226579.511,,8,Rongorongo
screen,html.Screen,2_3_1_0_1_9,2022-02-01T14:00:33.534Z,,,,,,,,,,,,,,,,,11,,,,,,,,,,,,,,412.18899998808047,,response,,,,4,E,,,,,,Space,keypress(Space),,,,lyrical,,,,----- -- ---- --- -- --- -------- ------------ ---------- is<br>- ------- ------ --------- -- ------------ -- --- ---- -----<br>------ ---- ---- ------ ------ ------- --- ----- ---------<br>---- --- -------- -------- --- --- -- ------- --- --- -----<br>-- --- ------ ------- --- --- -------- ---- --------- --<br>---------- -- -------- ----------------,226992.29999998212,226991.69999998808,226562.785,226566.09999999404,226579.511,226995.78,,9,is
screen,html.Screen,2_3_1_0_1_10,2022-02-01T14:00:33.948Z,,,,,,,,,,,,,,,,,11,,,,,,,,,,,,,,409.6199999761593,,response,,,,4,E,,,,,,Space,keypress(Space),,,,lyrical,,,,----- -- ---- --- -- --- -------- ------------ ---------- --<br>a ------- ------ --------- -- ------------ -- --- ---- -----<br>------ ---- ---- ------ ------ ------- --- ----- ---------<br>---- --- -------- -------- --- --- -- ------- --- --- -----<br>-- --- ------ ------- --- --- -------- ---- --------- --<br>---------- -- -------- ----------------,227406.39999997616,227405.39999997616,226979.195,226992.29999998212,226995.78,227412.444,,10,a
screen,html.Screen,2_3_1_0_1_11,2022-02-01T14:00:34.401Z,,,,,,,,,,,,,,,,,11,,,,,,,,,,,,,,445.5560000000114,,response,,,,4,E,,,,,,Space,keypress(Space),,,,lyrical,,,,----- -- ---- --- -- --- -------- ------------ ---------- --<br>- writing ------ --------- -- ------------ -- --- ---- -----<br>------ ---- ---- ------ ------ ------- --- ----- ---------<br>---- --- -------- -------- --- --- -- ------- --- --- -----<br>-- --- ------ ------- --- --- -------- ---- --------- --<br>---------- -- -------- ----------------,227858.89999997616,227858,227395.523,227406.5,227412.444,227861.744,,11,writing
screen,html.Screen,2_3_1_0_1_12,2022-02-01T14:00:34.948Z,,,,,,,,,,,,,,,,,11,,,,,,,,,,,,,,543.755999999994,,response,,,,4,E,,,,,,Space,keypress(Space),,,,lyrical,,,,----- -- ---- --- -- --- -------- ------------ ---------- --<br>- ------- system --------- -- ------------ -- --- ---- -----<br>------ ---- ---- ------ ------ ------- --- ----- ---------<br>---- --- -------- -------- --- --- -- ------- --- --- -----<br>-- --- ------ ------- --- --- -------- ---- --------- --<br>---------- -- -------- ----------------,228406.39999997616,228405.5,227845.072,227859.09999999404,227861.744,228411.575,,12,system
screen,html.Screen,2_3_1_0_1_13,2022-02-01T14:00:35.601Z,,,,,,,,,,,,,,,,,11,,,,,,,,,,,,,,646.6249999880674,,response,,,,4,E,,,,,,Space,keypress(Space),,,,lyrical,,,,----- -- ---- --- -- --- -------- ------------ ---------- --<br>- ------- ------ comprised -- ------------ -- --- ---- -----<br>------ ---- ---- ------ ------ ------- --- ----- ---------<br>---- --- -------- -------- --- --- -- ------- --- --- -----<br>-- --- ------ ------- --- --- -------- ---- --------- --<br>---------- -- -------- ----------------,229058.89999997616,229058.19999998808,228394.692,228406.59999999404,228411.575,229060.778,,13,comprised
screen,html.Screen,2_3_1_0_1_14,2022-02-01T14:00:36.004Z,,,,,,,,,,,,,,,,,11,,,,,,,,,,,,,,400.52199998212745,,response,,,,4,E,,,,,,Space,keypress(Space),,,,lyrical,,,,----- -- ---- --- -- --- -------- ------------ ---------- --<br>- ------- ------ --------- of ------------ -- --- ---- -----<br>------ ---- ---- ------ ------ ------- --- ----- ---------<br>---- --- -------- -------- --- --- -- ------- --- --- -----<br>-- --- ------ ------- --- --- -------- ---- --------- --<br>---------- -- -------- ----------------,229461.89999997616,229461.29999998212,229044.119,229059,229060.778,229477.133,,14,of
screen,html.Screen,2_3_1_0_1_15,2022-02-01T14:00:36.777Z,,,,,,,,,,,,,,,,,11,,,,,,,,,,,,,,757.0669999880774,,response,,,,4,E,,,,,,Space,keypress(Space),,,,lyrical,,,,----- -- ---- --- -- --- -------- ------------ ---------- --<br>- ------- ------ --------- -- pictographs. -- --- ---- -----<br>------ ---- ---- ------ ------ ------- --- ----- ---------<br>---- --- -------- -------- --- --- -- ------- --- --- -----<br>-- --- ------ ------- --- --- -------- ---- --------- --<br>---------- -- -------- ----------------,230235.09999999404,230234.19999998808,229460.492,229462.09999999404,229477.133,230243.171,,15,pictographs.
screen,html.Screen,2_3_1_0_1_16,2022-02-01T14:00:37.200Z,,,,,,,,,,,,,,,,,11,,,,,,,,,,,,,,413.8289999999979,,response,,,,4,E,,,,,,Space,keypress(Space),,,,lyrical,,,,----- -- ---- --- -- --- -------- ------------ ---------- --<br>- ------- ------ --------- -- ------------ It --- ---- -----<br>------ ---- ---- ------ ------ ------- --- ----- ---------<br>---- --- -------- -------- --- --- -- ------- --- --- -----<br>-- --- ------ ------- --- --- -------- ---- --------- --<br>---------- -- -------- ----------------,230658,230657,230226.508,230235.19999998808,230243.171,230694.672,,16,It
screen,html.Screen,2_3_1_0_1_17,2022-02-01T14:00:37.646Z,,,,,,,,,,,,,,,,,11,,,,,,,,,,,,,,409.0279999880877,,response,,,,4,E,,,,,,Space,keypress(Space),,,,lyrical,,,,----- -- ---- --- -- --- -------- ------------ ---------- --<br>- ------- ------ --------- -- ------------ -- has ---- -----<br>------ ---- ---- ------ ------ ------- --- ----- ---------<br>---- --- -------- -------- --- --- -- ------- --- --- -----<br>-- --- ------ ------- --- --- -------- ---- --------- --<br>---------- -- -------- ----------------,231104.5,231103.69999998808,230642.835,230658.19999998808,230694.672,231109.065,,17,has
screen,html.Screen,2_3_1_0_1_18,2022-02-01T14:00:38.092Z,,,,,,,,,,,,,,,,,11,,,,,,,,,,,,,,440.63499998807674,,response,,,,4,E,,,,,,Space,keypress(Space),,,,lyrical,,,,----- -- ---- --- -- --- -------- ------------ ---------- --<br>- ------- ------ --------- -- ------------ -- --- been -----<br>------ ---- ---- ------ ------ ------- --- ----- ---------<br>---- --- -------- -------- --- --- -- ------- --- --- -----<br>-- --- ------ ------- --- --- -------- ---- --------- --<br>---------- -- -------- ----------------,231550.39999997616,231549.69999998808,231092.444,231104.5,231109.065,231558.745,,18,been
screen,html.Screen,2_3_1_0_1_19,2022-02-01T14:00:38.511Z,,,,,,,,,,,,,,,,,11,,,,,,,,,,,,,,409.6549999761628,,response,,,,4,E,,,,,,Space,keypress(Space),,,,lyrical,,,,----- -- ---- --- -- --- -------- ------------ ---------- --<br>- ------- ------ --------- -- ------------ -- --- ---- found<br>------ ---- ---- ------ ------ ------- --- ----- ---------<br>---- --- -------- -------- --- --- -- ------- --- --- -----<br>-- --- ------ ------- --- --- -------- ---- --------- --<br>---------- -- -------- ----------------,231969.19999998808,231968.39999997616,231542.133,231550.59999999404,231558.745,231975.15,,19,found
screen,html.Screen,2_3_1_0_1_20,2022-02-01T14:00:39.205Z,,,,,,,,,,,,,,,,,11,,,,,,,,,,,,,,687.5499999880849,,response,,,,4,E,,,,,,Space,keypress(Space),,,,lyrical,,,,----- -- ---- --- -- --- -------- ------------ ---------- --<br>- ------- ------ --------- -- ------------ -- --- ---- -----<br>carved ---- ---- ------ ------ ------- --- ----- ---------<br>---- --- -------- -------- --- --- -- ------- --- --- -----<br>-- --- ------ ------- --- --- -------- ---- --------- --<br>---------- -- -------- ----------------,232663.39999997616,232662.69999998808,231958.445,231969.29999998212,231975.15,232674.509,,20,carved
screen,html.Screen,2_3_1_0_1_21,2022-02-01T14:00:39.632Z,,,,,,,,,,,,,,,,,11,,,,,,,,,,,,,,415.0909999940486,,response,,,,4,E,,,,,,Space,keypress(Space),,,,lyrical,,,,----- -- ---- --- -- --- -------- ------------ ---------- --<br>- ------- ------ --------- -- ------------ -- --- ---- -----<br>------ into ---- ------ ------ ------- --- ----- ---------<br>---- --- -------- -------- --- --- -- ------- --- --- -----<br>-- --- ------ ------- --- --- -------- ---- --------- --<br>---------- -- -------- ----------------,233090.39999997616,233089.59999999404,232657.833,232663.59999999404,232674.509,233107.487,,21,into
screen,html.Screen,2_3_1_0_1_22,2022-02-01T14:00:40.018Z,,,,,,,,,,,,,,,,,11,,,,,,,,,,,,,,368.0130000000063,,response,,,,4,E,,,,,,Space,keypress(Space),,,,lyrical,,,,----- -- ---- --- -- --- -------- ------------ ---------- --<br>- ------- ------ --------- -- ------------ -- --- ---- -----<br>------ ---- many ------ ------ ------- --- ----- ---------<br>---- --- -------- -------- --- --- -- ------- --- --- -----<br>-- --- ------ ------- --- --- -------- ---- --------- --<br>---------- -- -------- ----------------,233476.39999997616,233475.5,233090.799,233090.5,233107.487,233490.505,,22,many
screen,html.Screen,2_3_1_0_1_23,2022-02-01T14:00:40.421Z,,,,,,,,,,,,,,,,,11,,,,,,,,,,,,,,387.99499999999534,,response,,,,4,E,,,,,,Space,keypress(Space),,,,lyrical,,,,----- -- ---- --- -- --- -------- ------------ ---------- --<br>- ------- ------ --------- -- ------------ -- --- ---- -----<br>------ ---- ---- oblong ------ ------- --- ----- ---------<br>---- --- -------- -------- --- --- -- ------- --- --- -----<br>-- --- ------ ------- --- --- -------- ---- --------- --<br>---------- -- -------- ----------------,233879.19999998808,233878.5,233473.861,233476.59999999404,233490.505,233890.224,,23,oblong
screen,html.Screen,2_3_1_0_1_24,2022-02-01T14:00:40.841Z,,,,,,,,,,,,,,,,,11,,,,,,,,,,,,,,407.97599998809164,,response,,,,4,E,,,,,,Space,keypress(Space),,,,lyrical,,,,----- -- ---- --- -- --- -------- ------------ ---------- --<br>- ------- ------ --------- -- ------------ -- --- ---- -----<br>------ ---- ---- ------ wooden ------- --- ----- ---------<br>---- --- -------- -------- --- --- -- ------- --- --- -----<br>-- --- ------ ------- --- --- -------- ---- --------- --<br>---------- -- -------- ----------------,234299.09999999404,234298.19999998808,233873.538,233879.29999998212,233890.224,234306.481,,24,wooden
screen,html.Screen,2_3_1_0_1_25,2022-02-01T14:00:41.465Z,,,,,,,,,,,,,,,,,11,,,,,,,,,,,,,,616.0190000000002,,response,,,,4,E,,,,,,Space,keypress(Space),,,,lyrical,,,,----- -- ---- --- -- --- -------- ------------ ---------- --<br>- ------- ------ --------- -- ------------ -- --- ---- -----<br>------ ---- ---- ------ ------ tablets --- ----- ---------<br>---- --- -------- -------- --- --- -- ------- --- --- -----<br>-- --- ------ ------- --- --- -------- ---- --------- --<br>---------- -- -------- ----------------,234923.29999998212,234922.5,234289.859,234299.29999998212,234306.481,234939.317,,25,tablets
screen,html.Screen,2_3_1_0_1_26,2022-02-01T14:00:41.861Z,,,,,,,,,,,,,,,,,11,,,,,,,,,,,,,,378.68299999999,,response,,,,4,E,,,,,,Space,keypress(Space),,,,lyrical,,,,----- -- ---- --- -- --- -------- ------------ ---------- --<br>- ------- ------ --------- -- ------------ -- --- ---- -----<br>------ ---- ---- ------ ------ ------- and ----- ---------<br>---- --- -------- -------- --- --- -- ------- --- --- -----<br>-- --- ------ ------- --- --- -------- ---- --------- --<br>---------- -- -------- ----------------,235319,235318,234922.604,234923.5,234939.317,235322.288,,26,and
screen,html.Screen,2_3_1_0_1_27,2022-02-01T14:00:42.201Z,,,,,,,,,,,,,,,,,11,,,,,,,,,,,,,,335.51199998211814,,response,,,,4,E,,,,,,Space,keypress(Space),,,,lyrical,,,,----- -- ---- --- -- --- -------- ------------ ---------- --<br>- ------- ------ --------- -- ------------ -- --- ---- -----<br>------ ---- ---- ------ ------ ------- --- other ---------<br>---- --- -------- -------- --- --- -- ------- --- --- -----<br>-- --- ------ ------- --- --- -------- ---- --------- --<br>---------- -- -------- ----------------,235658.79999998212,235657.79999998212,235305.695,235319.09999999404,235322.288,235672.049,,27,other
screen,html.Screen,2_3_1_0_1_28,2022-02-01T14:00:42.634Z,,,,,,,,,,,,,,,,,11,,,,,,,,,,,,,,419.15099998808,,response,,,,4,E,,,,,,Space,keypress(Space),,,,lyrical,,,,----- -- ---- --- -- --- -------- ------------ ---------- --<br>- ------- ------ --------- -- ------------ -- --- ---- -----<br>------ ---- ---- ------ ------ ------- --- ----- artifacts<br>---- --- -------- -------- --- --- -- ------- --- --- -----<br>-- --- ------ ------- --- --- -------- ---- --------- --<br>---------- -- -------- ----------------,236092,236091.19999998808,235655.39,235659,235672.049,236105.025,,28,artifacts
screen,html.Screen,2_3_1_0_1_29,2022-02-01T14:00:43.142Z,,,,,,,,,,,,,,,,,11,,,,,,,,,,,,,,494.6749999880849,,response,,,,4,E,,,,,,Space,keypress(Space),,,,lyrical,,,,----- -- ---- --- -- --- -------- ------------ ---------- --<br>- ------- ------ --------- -- ------------ -- --- ---- -----<br>------ ---- ---- ------ ------ ------- --- ----- ---------<br>from --- -------- -------- --- --- -- ------- --- --- -----<br>-- --- ------ ------- --- --- -------- ---- --------- --<br>---------- -- -------- ----------------,236600.39999997616,236599.69999998808,236088.327,236092.19999998808,236105.025,236604.567,,29,from
screen,html.Screen,2_3_1_0_1_30,2022-02-01T14:00:43.738Z,,,,,,,,,,,,,,,,,11,,,,,,,,,,,,,,590.1329999880691,,response,,,,4,E,,,,,,Space,keypress(Space),,,,lyrical,,,,----- -- ---- --- -- --- -------- ------------ ---------- --<br>- ------- ------ --------- -- ------------ -- --- ---- -----<br>------ ---- ---- ------ ------ ------- --- ----- ---------<br>---- the -------- -------- --- --- -- ------- --- --- -----<br>-- --- ------ ------- --- --- -------- ---- --------- --<br>---------- -- -------- ----------------,237195.69999998808,237194.69999998808,236587.926,236600.59999999404,236604.567,237204.126,,30,the
screen,html.Screen,2_3_1_0_1_31,2022-02-01T14:00:44.125Z,,,,,,,,,,,,,,,,,11,,,,,,,,,,,,,,378.1739999821293,,response,,,,4,E,,,,,,Space,keypress(Space),,,,lyrical,,,,----- -- ---- --- -- --- -------- ------------ ---------- --<br>- ------- ------ --------- -- ------------ -- --- ---- -----<br>------ ---- ---- ------ ------ ------- --- ----- ---------<br>---- --- island's -------- --- --- -- ------- --- --- -----<br>-- --- ------ ------- --- --- -------- ---- --------- --<br>---------- -- -------- ----------------,237583.09999999404,237582.29999998212,237187.419,237195.89999997616,237204.126,237587.139,,31,island's
screen,html.Screen,2_3_1_0_1_32,2022-02-01T14:00:44.732Z,,,,,,,,,,,,,,,,,11,,,,,,,,,,,,,,602.2609999761626,,response,,,,4,E,,,,,,Space,keypress(Space),,,,lyrical,,,,----- -- ---- --- -- --- -------- ------------ ---------- --<br>- ------- ------ --------- -- ------------ -- --- ---- -----<br>------ ---- ---- ------ ------ ------- --- ----- ---------<br>---- --- -------- history. --- --- -- ------- --- --- -----<br>-- --- ------ ------- --- --- -------- ---- --------- --<br>---------- -- -------- ----------------,238190.29999998212,238189.39999997616,237570.457,237583.19999998808,237587.139,238203.305,,32,history.
screen,html.Screen,2_3_1_0_1_33,2022-02-01T14:00:45.310Z,,,,,,,,,,,,,,,,,11,,,,,,,,,,,,,,563.5949999761651,,response,,,,4,E,,,,,,Space,keypress(Space),,,,lyrical,,,,----- -- ---- --- -- --- -------- ------------ ---------- --<br>- ------- ------ --------- -- ------------ -- --- ---- -----<br>------ ---- ---- ------ ------ ------- --- ----- ---------<br>---- --- -------- -------- The --- -- ------- --- --- -----<br>-- --- ------ ------- --- --- -------- ---- --------- --<br>---------- -- -------- ----------------,238767.89999997616,238766.89999997616,238186.65,238190.39999997616,238203.305,238805.002,,33,The
screen,html.Screen,2_3_1_0_1_34,2022-02-01T14:00:45.750Z,,,,,,,,,,,,,,,,,11,,,,,,,,,,,,,,401.4979999999923,,response,,,,4,E,,,,,,Space,keypress(Space),,,,lyrical,,,,----- -- ---- --- -- --- -------- ------------ ---------- --<br>- ------- ------ --------- -- ------------ -- --- ---- -----<br>------ ---- ---- ------ ------ ------- --- ----- ---------<br>---- --- -------- -------- --- art -- ------- --- --- -----<br>-- --- ------ ------- --- --- -------- ---- --------- --<br>---------- -- -------- ----------------,239207.5,239206.5,238752.812,238768,238805.002,239219.144,,34,art
screen,html.Screen,2_3_1_0_1_35,2022-02-01T14:00:46.196Z,,,,,,,,,,,,,,,,,11,,,,,,,,,,,,,,434.2559999761579,,response,,,,4,E,,,,,,Space,keypress(Space),,,,lyrical,,,,----- -- ---- --- -- --- -------- ------------ ---------- --<br>- ------- ------ --------- -- ------------ -- --- ---- -----<br>------ ---- ---- ------ ------ ------- --- ----- ---------<br>---- --- -------- -------- --- --- of ------- --- --- -----<br>-- --- ------ ------- --- --- -------- ---- --------- --<br>---------- -- -------- ----------------,239654.09999999404,239653.39999997616,239202.467,239207.69999998808,239219.144,239668.772,,35,of
screen,html.Screen,2_3_1_0_1_36,2022-02-01T14:00:46.632Z,,,,,,,,,,,,,,,,,11,,,,,,,,,,,,,,420.32799999404233,,response,,,,4,E,,,,,,Space,keypress(Space),,,,lyrical,,,,----- -- ---- --- -- --- -------- ------------ ---------- --<br>- ------- ------ --------- -- ------------ -- --- ---- -----<br>------ ---- ---- ------ ------ ------- --- ----- ---------<br>---- --- -------- -------- --- --- -- writing --- --- -----<br>-- --- ------ ------- --- --- -------- ---- --------- --<br>---------- -- -------- ----------------,240089.79999998212,240089.09999999404,239652.136,239654.09999999404,239668.772,240101.747,,36,writing
screen,html.Screen,2_3_1_0_1_37,2022-02-01T14:00:47.051Z,,,,,,,,,,,,,,,,,11,,,,,,,,,,,,,,406.5529999821156,,response,,,,4,E,,,,,,Space,keypress(Space),,,,lyrical,,,,----- -- ---- --- -- --- -------- ------------ ---------- --<br>- ------- ------ --------- -- ------------ -- --- ---- -----<br>------ ---- ---- ------ ------ ------- --- ----- ---------<br>---- --- -------- -------- --- --- -- ------- was --- -----<br>-- --- ------ ------- --- --- -------- ---- --------- --<br>---------- -- -------- ----------------,240509.19999998808,240508.29999998212,240085.106,240090,240101.747,240518.043,,37,was
screen,html.Screen,2_3_1_0_1_38,2022-02-01T14:00:47.452Z,,,,,,,,,,,,,,,,,11,,,,,,,,,,,,,,391.2569999821135,,response,,,,4,E,,,,,,Space,keypress(Space),,,,lyrical,,,,----- -- ---- --- -- --- -------- ------------ ---------- --<br>- ------- ------ --------- -- ------------ -- --- ---- -----<br>------ ---- ---- ------ ------ ------- --- ----- ---------<br>---- --- -------- -------- --- --- -- ------- --- not -----<br>-- --- ------ ------- --- --- -------- ---- --------- --<br>---------- -- -------- ----------------,240910.09999999404,240909.29999998212,240501.427,240509.39999997616,240518.043,240917.715,,38,not
screen,html.Screen,2_3_1_0_1_39,2022-02-01T14:00:47.874Z,,,,,,,,,,,,,,,,,11,,,,,,,,,,,,,,413.2850000000035,,response,,,,4,E,,,,,,Space,keypress(Space),,,,lyrical,,,,----- -- ---- --- -- --- -------- ------------ ---------- --<br>- ------- ------ --------- -- ------------ -- --- ---- -----<br>------ ---- ---- ------ ------ ------- --- ----- ---------<br>---- --- -------- -------- --- --- -- ------- --- --- known<br>-- --- ------ ------- --- --- -------- ---- --------- --<br>---------- -- -------- ----------------,241331.79999998212,241331,240901.049,240910.29999998212,240917.715,241334.045,,39,known
