sender,sender_type,sender_id,timestamp,meta,,Blues,Classical,Country,Dance,Electronic,Folk,Gospel,Hip-Hop,Jazz,Latin,Musical/Film,New-age,Pop,Prolific_id,Provo_ID,R&B,Rap,Reggae,Religious,Rock,Soul,Swing,Traditional,age,artist_name,correct,correctResponse,distraction,duration,education,ended_on,familiarity,gender,headphone_check_performance,item,list,music_frequency,offensiveness,pleasantness,position_correct,preference,response,response_action,snippet_file,song_name,song_rating,sound,stimulus_1,stimulus_2,stimulus_3,text,time_commit,time_end,time_render,time_run,time_show,time_switch,url,word,word_ID
Prolific ID,html.Form,0,2022-02-03T13:07:40.404Z,"{""labjs_version"":""20.2.2"",""labjs_build"":{""flavor"":""production"",""commit"":""a25486e0c714a0ae2ce03ff94b7bb6896854dcfa""},""location"":""https://run.pavlovia.org/mvasilev/prolific2_music_f/"",""userAgent"":""Mozilla/5.0 (Macintosh; Intel Mac OS X 10_13_6) AppleWebKit/537.36 (KHTML, like Gecko) Chrome/97.0.4692.71 Safari/537.36"",""platform"":""MacIntel"",""language"":""en-US"",""locale"":""en-GB"",""timeZone"":""Europe/London"",""timezoneOffset"":0,""screen_width"":1280,""screen_height"":800,""scroll_width"":1280,""scroll_height"":650,""window_innerWidth"":1280,""window_innerHeight"":698,""devicePixelRatio"":2}",,,,,,,,,,,,,,,5f3e6a07e06e71069f919082,,,,,,,,,,,,,,,86247.83999996424,,form submission,,,,,,,,,,,,,,,,,,,,,96364.39999997616,96363.59999996424,10082.412,10081.5,10115.76,96387.547,{},,
Introduction,html.Screen,1_0,2022-02-03T13:07:45.426Z,,,,,,,,,,,,,,,,,,,,,,,,,,,,,,,4996.452999999994,,response,,,,,,,,,,,continue,click button,,,,,,,,,101387,101384,96370.873,96365.19999998808,96387.547,101406.421,,,
Volume calibration,html.Screen,1_1,2022-02-03T13:07:59.702Z,,,,,,,,,,,,,,,,,,,,,,,,,,,,,,,14250.078999999998,,response,,,,,,,,,,,continue,click button,,,,,,,,,115662.59999996424,115656.5,101389.747,101387.19999998808,101406.421,115668.323,,,
Task instructions,html.Screen,1_2,2022-02-03T13:08:07.601Z,,,,,,,,,,,,,,,,,,,,,,,,,,,,,,,7890.276999964233,,response,,,,,,,,,,,continue,click button,,,,,,,,,123560.79999995232,123558.59999996424,115651.649,115662.79999995232,115668.323,123575.547,,,
Sounds,html.Screen,1_3_0_0,2022-02-03T13:08:11.855Z,,,,,,,,,,,,,,,,,,,,,,,,,,,,,,,4251.869999999995,,timeout,,,,,,,,,1,,,,,,,,S,I,O,,127815.29999995232,127810.743,123558.873,123561.09999996424,123575.547,127827.417,,,
Judgement,html.Screen,1_3_0_1,2022-02-03T13:08:13.304Z,,,,,,,,,,,,,,,,,,,,,,,,,,,,true,1,,1434.382999952315,,response,,,,,,,,,1,,1,click #choice-1,,,,,S,I,O,,129263.59999996424,129261.79999995232,127810.743,127815.59999996424,127827.417,129279.002,,,
Trial,flow.Sequence,1_3_0,2022-02-03T13:08:13.304Z,,,,,,,,,,,,,,,,,,,,,,,,,,,,,,,5686.25299995231,,completion,,,,,,,,,1,,,,,,,,S,I,O,,129263.89999997616,129261.79999995232,123558.873,123561.09999996424,123575.547,129279.002,,,
Sounds,html.Screen,1_3_1_0,2022-02-03T13:08:17.557Z,,,,,,,,,,,,,,,,,,,,,,,,,,,,,,,4251.87000000001,,timeout,,,,,,,,,3,,,,,,,,I,O,S,,133516.39999997616,133514.198,129262.328,129264.19999998808,129279.002,133530.872,,,
Judgement,html.Screen,1_3_1_1,2022-02-03T13:08:18.188Z,,,,,,,,,,,,,,,,,,,,,,,,,,,,true,3,,614.2279999642342,,response,,,,,,,,,3,,3,click #choice-3,,,,,I,O,S,,134147.5,134145.09999996424,133514.198,133516.5,133530.872,134164.484,,,
Trial,flow.Sequence,1_3_1,2022-02-03T13:08:18.188Z,,,,,,,,,,,,,,,,,,,,,,,,,,,,,,,4866.097999964244,,completion,,,,,,,,,3,,,,,,,,I,O,S,,134147.69999998808,134145.09999996424,129262.328,129264,129279.002,134164.484,,,
Sounds,html.Screen,1_3_2_0,2022-02-03T13:08:22.442Z,,,,,,,,,,,,,,,,,,,,,,,,,,,,,,,4251.869999999995,,timeout,,,,,,,,,1,,,,,,,,S,O,I,,138401.5,138399.68,134147.81,134147.89999997616,134164.484,138416.354,,,
Judgement,html.Screen,1_3_2_1,2022-02-03T13:08:23.281Z,,,,,,,,,,,,,,,,,,,,,,,,,,,,true,1,,823.0459999761661,,response,,,,,,,,,1,,1,click #choice-1,,,,,S,O,I,,139240.69999998808,139239.39999997616,138399.68,138401.59999996424,138416.354,139264.72,,,
Trial,flow.Sequence,1_3_2,2022-02-03T13:08:23.281Z,,,,,,,,,,,,,,,,,,,,,,,,,,,,,,,5074.915999976161,,completion,,,,,,,,,1,,,,,,,,S,O,I,,139240.89999997616,139239.39999997616,134147.81,134147.79999995232,134164.484,139264.72,,,
Sounds,html.Screen,1_3_3_0,2022-02-03T13:08:27.542Z,,,,,,,,,,,,,,,,,,,,,,,,,,,,,,,4251.869999999995,,timeout,,,,,,,,,2,,,,,,,,O,S,I,,143501.79999995232,143499.916,139248.046,139241,139264.72,143516.59,,,
Judgement,html.Screen,1_3_3_1,2022-02-03T13:08:28.197Z,,,,,,,,,,,,,,,,,,,,,,,,,,,,true,2,,637.6099999880826,,response,,,,,,,,,2,,2,click #choice-2,,,,,O,S,I,,144156.39999997616,144154.19999998808,143499.916,143501.89999997616,143516.59,144166.876,,,
Trial,flow.Sequence,1_3_3,2022-02-03T13:08:28.197Z,,,,,,,,,,,,,,,,,,,,,,,,,,,,,,,4889.479999988078,,completion,,,,,,,,,2,,,,,,,,O,S,I,,144156.69999998808,144154.19999998808,139248.046,139241,139264.72,144166.876,,,
Sounds,html.Screen,1_3_4_0,2022-02-03T13:08:32.444Z,,,,,,,,,,,,,,,,,,,,,,,,,,,,,,,4251.870000000024,,timeout,,,,,,,,,3,,,,,,,,O,I,S,,148403.5,148402.072,144150.202,144156.89999997616,144166.876,148418.746,,,
Judgement,html.Screen,1_3_4_1,2022-02-03T13:08:34.795Z,,,,,,,,,,,,,,,,,,,,,,,,,,,,true,3,,2333.9539999880653,,response,,,,,,,,,3,,3,click #choice-3,,,,,O,I,S,,150754.19999998808,150752.69999998808,148402.072,148403.69999998808,148418.746,150777.526,,,
Trial,flow.Sequence,1_3_4,2022-02-03T13:08:34.795Z,,,,,,,,,,,,,,,,,,,,,,,,,,,,,,,6585.82399998809,,completion,,,,,,,,,3,,,,,,,,O,I,S,,150754.39999997616,150752.69999998808,144150.202,144156.79999995232,144166.876,150777.526,,,
Sounds,html.Screen,1_3_5_0,2022-02-03T13:08:39.057Z,,,,,,,,,,,,,,,,,,,,,,,,,,,,,,,4251.869999999995,,timeout,,,,,,,,,2,,,,,,,,I,S,O,,155016,155012.722,150760.852,150754.59999996424,150777.526,155029.396,,,
Judgement,html.Screen,1_3_5_1,2022-02-03T13:08:39.748Z,,,,,,,,,,,,,,,,,,,,,,,,,,,,true,2,,675.3039999880712,,response,,,,,,,,,2,,2,click #choice-2,,,,,I,S,O,,155706.89999997616,155704.69999998808,155012.722,155016.29999995232,155029.396,155729.704,,,
Trial,flow.Sequence,1_3_5,2022-02-03T13:08:39.748Z,,,,,,,,,,,,,,,,,,,,,,,,,,,,,,,4927.1739999880665,,completion,,,,,,,,,2,,,,,,,,I,S,O,,155707.19999998808,155704.69999998808,150760.852,150754.5,150777.526,155729.704,,,
Task,flow.Loop,1_3,2022-02-03T13:08:39.763Z,,,,,,,,,,,,,,,,,,,,,,,,,,,,,,,32129.152999988073,,completion,,,1,,,,,,,,,,,,,,,,,,155721.79999995232,155704.69999998808,123558.873,123560.89999997616,123575.547,155729.704,,,
Trap,html.Screen,1_4,2022-02-03T13:08:39.765Z,,,,,,,,,,,,,,,,,,,,,,,,,,,,,,,NaN,,skipped,,,,,,,,,,,,,,,,,,,,,155723.69999998808,155704.69999998808,,155723.5,,155729.704,,,
Thanks,html.Screen,1_5,2022-02-03T13:09:03.353Z,,,,,,,,,,,,,,,,,,,,,,,,,,,,,,,23580.09599995232,,response,,,,,,,,,,,continue,click button,,,,,,,,,179311.09999996424,179309.79999995232,155713.03,155723.79999995232,155729.704,186395.074,,,
Headphone screening,flow.Sequence,1,2022-02-03T13:09:03.353Z,,,,,,,,,,,,,,,,,,,,,,,,,,,,,,,82922.25299995231,,completion,,,,,,,,,,,,,,,,,,,,,179311.19999998808,179309.79999995232,96370.873,96365.19999998808,96387.547,186395.074,,,
Instructions,html.Page,2_0,2022-02-03T13:09:43.028Z,,,,,,,,,,,,,,,,,,,,,,,,,,,,,,,32589.325999976165,,form submission,,,,,,,,,,,,,,,,,,,,,218985.29999995232,218984.39999997616,186328.378,186389.89999997616,186395.074,218992.744,,,
Holding screen,html.Screen,2_1_0_0,2022-02-03T13:09:53.013Z,,,,,,,,,,,,,,,,,,,,,,,,,,,,,,,10008.948000000004,,timeout,,,,,,,,,,,,,,,,,,,,,228970.39999997616,228968.344,218976.07,218986.09999996424,218992.744,229001.692,,,
screen,html.Screen,2_1_0_1_0,2022-02-03T13:09:53.941Z,,,,,,,,,,,,,,,,,53,,,,,,,,,,,,,,881.4079999642272,,response,,,,99,,,,,,,Space,keypress(Space),,,,,,,,When -- ----- -- ------ - ------- --- ----------<br>------------- ------ ------ ---- ---- ------- ----- -- ----<br>-------- ------- -- ---------- --- - --- ----- ----- ----<br>---- --- --- ----- --- ---- ---- ------- ----- ---- -------<br>--- --- -- ----- -- --- ---- -- --- ---- -- ------ ------<br>--- ----- -- ----,229898.5,229883.09999996424,228968.344,228970.69999998808,229001.692,229902.088,,0,When
screen,html.Screen,2_1_0_1_1,2022-02-03T13:09:54.392Z,,,,,,,,,,,,,,,,,53,,,,,,,,,,,,,,444.9120000000112,,response,,,,99,,,,,,,Space,keypress(Space),,,,,,,,---- it ----- -- ------ - ------- --- ----------<br>------------- ------ ------ ---- ---- ------- ----- -- ----<br>-------- ------- -- ---------- --- - --- ----- ----- ----<br>---- --- --- ----- --- ---- ---- ------- ----- ---- -------<br>--- --- -- ----- -- --- ---- -- --- ---- -- ------ ------<br>--- ----- -- ----,230349.39999997616,230347,229885.414,229898.69999998808,229902.088,230365.408,,1,it
screen,html.Screen,2_1_0_1_2,2022-02-03T13:09:54.793Z,,,,,,,,,,,,,,,,,53,,,,,,,,,,,,,,381.6919999642414,,response,,,,99,,,,,,,Space,keypress(Space),,,,,,,,---- -- comes -- ------ - ------- --- ----------<br>------------- ------ ------ ---- ---- ------- ----- -- ----<br>-------- ------- -- ---------- --- - --- ----- ----- ----<br>---- --- --- ----- --- ---- ---- ------- ----- ---- -------<br>--- --- -- ----- -- --- ---- -- --- ---- -- ------ ------<br>--- ----- -- ----,230749.79999995232,230747.09999996424,230348.734,230349.5,230365.408,230765.584,,2,comes
screen,html.Screen,2_1_0_1_3,2022-02-03T13:09:55.201Z,,,,,,,,,,,,,,,,,53,,,,,,,,,,,,,,389.51599996423465,,response,,,,99,,,,,,,Space,keypress(Space),,,,,,,,---- -- ----- to ------ - ------- --- ----------<br>------------- ------ ------ ---- ---- ------- ----- -- ----<br>-------- ------- -- ---------- --- - --- ----- ----- ----<br>---- --- --- ----- --- ---- ---- ------- ----- ---- -------<br>--- --- -- ----- -- --- ---- -- --- ---- -- ------ ------<br>--- ----- -- ----,231157.69999998808,231155.09999996424,230748.91,230749.89999997616,230765.584,231165.76,,3,to
screen,html.Screen,2_1_0_1_4,2022-02-03T13:09:55.601Z,,,,,,,,,,,,,,,,,53,,,,,,,,,,,,,,389.43999998806976,,response,,,,99,,,,,,,Space,keypress(Space),,,,,,,,---- -- ----- -- having - ------- --- ----------<br>------------- ------ ------ ---- ---- ------- ----- -- ----<br>-------- ------- -- ---------- --- - --- ----- ----- ----<br>---- --- --- ----- --- ---- ---- ------- ----- ---- -------<br>--- --- -- ----- -- --- ---- -- --- ---- -- ------ ------<br>--- ----- -- ----,231557.79999995232,231555.19999998808,231149.086,231157.89999997616,231165.76,231565.936,,4,having
screen,html.Screen,2_1_0_1_5,2022-02-03T13:09:55.921Z,,,,,,,,,,,,,,,,,53,,,,,,,,,,,,,,309.16399996425025,,response,,,,99,,,,,,,Space,keypress(Space),,,,,,,,---- -- ----- -- ------ a ------- --- ----------<br>------------- ------ ------ ---- ---- ------- ----- -- ----<br>-------- ------- -- ---------- --- - --- ----- ----- ----<br>---- --- --- ----- --- ---- ---- ------- ----- ---- -------<br>--- --- -- ----- -- --- ---- -- --- ---- -- ------ ------<br>--- ----- -- ----,231877.59999996424,231875.09999996424,231549.262,231557.89999997616,231565.936,231882.742,,5,a
screen,html.Screen,2_1_0_1_6,2022-02-03T13:09:56.361Z,,,,,,,,,,,,,,,,,53,,,,,,,,,,,,,,432.4579999880807,,response,,,,99,,,,,,,Space,keypress(Space),,,,,,,,---- -- ----- -- ------ - lasting --- ----------<br>------------- ------ ------ ---- ---- ------- ----- -- ----<br>-------- ------- -- ---------- --- - --- ----- ----- ----<br>---- --- --- ----- --- ---- ---- ------- ----- ---- -------<br>--- --- -- ----- -- --- ---- -- --- ---- -- ------ ------<br>--- ----- -- ----,232317.69999998808,232315.19999998808,231866.068,231877.69999998808,231882.742,232332.94,,6,lasting
screen,html.Screen,2_1_0_1_7,2022-02-03T13:09:56.841Z,,,,,,,,,,,,,,,,,53,,,,,,,,,,,,,,462.1599999642349,,response,,,,99,,,,,,,Space,keypress(Space),,,,,,,,---- -- ----- -- ------ - ------- and ----------<br>------------- ------ ------ ---- ---- ------- ----- -- ----<br>-------- ------- -- ---------- --- - --- ----- ----- ----<br>---- --- --- ----- --- ---- ---- ------- ----- ---- -------<br>--- --- -- ----- -- --- ---- -- --- ---- -- ------ ------<br>--- ----- -- ----,232797.69999998808,232795.09999996424,232316.266,232317.79999995232,232332.94,232799.812,,7,and
screen,html.Screen,2_1_0_1_8,2022-02-03T13:09:57.289Z,,,,,,,,,,,,,,,,,53,,,,,,,,,,,,,,443.3879999880737,,response,,,,99,,,,,,,Space,keypress(Space),,,,,,,,---- -- ----- -- ------ - ------- --- fulfilling<br>------------- ------ ------ ---- ---- ------- ----- -- ----<br>-------- ------- -- ---------- --- - --- ----- ----- ----<br>---- --- --- ----- --- ---- ---- ------- ----- ---- -------<br>--- --- -- ----- -- --- ---- -- --- ---- -- ------ ------<br>--- ----- -- ----,233245.59999996424,233243.19999998808,232783.138,232797.89999997616,232799.812,233250.01,,8,fulfilling
screen,html.Screen,2_1_0_1_9,2022-02-03T13:09:57.721Z,,,,,,,,,,,,,,,,,53,,,,,,,,,,,,,,425.0899999642279,,response,,,,99,,,,,,,Space,keypress(Space),,,,,,,,"---- -- ----- -- ------ - ------- --- ----------<br>relationship, ------ ------ ---- ---- ------- ----- -- ----<br>-------- ------- -- ---------- --- - --- ----- ----- ----<br>---- --- --- ----- --- ---- ---- ------- ----- ---- -------<br>--- --- -- ----- -- --- ---- -- --- ---- -- ------ ------<br>--- ----- -- ----",233677.59999996424,233675.09999996424,233233.336,233245.79999995232,233250.01,233683.534,,9,"relationship,"
screen,html.Screen,2_1_0_1_10,2022-02-03T13:09:58.289Z,,,,,,,,,,,,,,,,,53,,,,,,,,,,,,,,559.6659999880649,,response,,,,99,,,,,,,Space,keypress(Space),,,,,,,,---- -- ----- -- ------ - ------- --- ----------<br>------------- common ------ ---- ---- ------- ----- -- ----<br>-------- ------- -- ---------- --- - --- ----- ----- ----<br>---- --- --- ----- --- ---- ---- ------- ----- ---- -------<br>--- --- -- ----- -- --- ---- -- --- ---- -- ------ ------<br>--- ----- -- ----,234246.29999995232,234243.19999998808,233666.86,233677.69999998808,233683.534,234250.45,,10,common
screen,html.Screen,2_1_0_1_11,2022-02-03T13:09:58.649Z,,,,,,,,,,,,,,,,,53,,,,,,,,,,,,,,352.74999998806743,,response,,,,99,,,,,,,Space,keypress(Space),,,,,,,,---- -- ----- -- ------ - ------- --- ----------<br>------------- ------ wisdom ---- ---- ------- ----- -- ----<br>-------- ------- -- ---------- --- - --- ----- ----- ----<br>---- --- --- ----- --- ---- ---- ------- ----- ---- -------<br>--- --- -- ----- -- --- ---- -- --- ---- -- ------ ------<br>--- ----- -- ----,234605.69999998808,234603.19999998808,234233.776,234246.39999997616,234250.45,234617.278,,11,wisdom
screen,html.Screen,2_1_0_1_12,2022-02-03T13:09:58.993Z,,,,,,,,,,,,,,,,,53,,,,,,,,,,,,,,329.9219999880879,,response,,,,99,,,,,,,Space,keypress(Space),,,,,,,,---- -- ----- -- ------ - ------- --- ----------<br>------------- ------ ------ says ---- ------- ----- -- ----<br>-------- ------- -- ---------- --- - --- ----- ----- ----<br>---- --- --- ----- --- ---- ---- ------- ----- ---- -------<br>--- --- -- ----- -- --- ---- -- --- ---- -- ------ ------<br>--- ----- -- ----,234949.59999996424,234947.19999998808,234600.604,234605.89999997616,234617.278,234950.758,,12,says
screen,html.Screen,2_1_0_1_13,2022-02-03T13:09:59.393Z,,,,,,,,,,,,,,,,,53,,,,,,,,,,,,,,396.3419999642356,,response,,,,99,,,,,,,Space,keypress(Space),,,,,,,,---- -- ----- -- ------ - ------- --- ----------<br>------------- ------ ------ ---- that ------- ----- -- ----<br>-------- ------- -- ---------- --- - --- ----- ----- ----<br>---- --- --- ----- --- ---- ---- ------- ----- ---- -------<br>--- --- -- ----- -- --- ---- -- --- ---- -- ------ ------<br>--- ----- -- ----,235349.69999998808,235347.09999996424,234934.084,234949.69999998808,234950.758,235350.934,,13,that
screen,html.Screen,2_1_0_1_14,2022-02-03T13:09:59.769Z,,,,,,,,,,,,,,,,,53,,,,,,,,,,,,,,372.16599996422883,,response,,,,99,,,,,,,Space,keypress(Space),,,,,,,,---- -- ----- -- ------ - ------- --- ----------<br>------------- ------ ------ ---- ---- feeling ----- -- ----<br>-------- ------- -- ---------- --- - --- ----- ----- ----<br>---- --- --- ----- --- ---- ---- ------- ----- ---- -------<br>--- --- -- ----- -- --- ---- -- --- ---- -- ------ ------<br>--- ----- -- ----,235725.69999998808,235723.09999996424,235334.26,235350,235350.934,235734.436,,14,feeling
screen,html.Screen,2_1_0_1_15,2022-02-03T13:10:00.193Z,,,,,,,,,,,,,,,,,53,,,,,,,,,,,,,,412.66399996425025,,response,,,,99,,,,,,,Space,keypress(Space),,,,,,,,---- -- ----- -- ------ - ------- --- ----------<br>------------- ------ ------ ---- ---- ------- close -- ----<br>-------- ------- -- ---------- --- - --- ----- ----- ----<br>---- --- --- ----- --- ---- ---- ------- ----- ---- -------<br>--- --- -- ----- -- --- ---- -- --- ---- -- ------ ------<br>--- ----- -- ----,236149.39999997616,236147.09999996424,235717.762,235726,235734.436,236151.286,,15,close
screen,html.Screen,2_1_0_1_16,2022-02-03T13:10:00.553Z,,,,,,,,,,,,,,,,,53,,,,,,,,,,,,,,355.9139999880863,,response,,,,99,,,,,,,Space,keypress(Space),,,,,,,,---- -- ----- -- ------ - ------- --- ----------<br>------------- ------ ------ ---- ---- ------- ----- to ----<br>-------- ------- -- ---------- --- - --- ----- ----- ----<br>---- --- --- ----- --- ---- ---- ------- ----- ---- -------<br>--- --- -- ----- -- --- ---- -- --- ---- -- ------ ------<br>--- ----- -- ----,236509.69999998808,236507.19999998808,236134.612,236149.59999996424,236151.286,236518.114,,16,to
screen,html.Screen,2_1_0_1_17,2022-02-03T13:10:01.073Z,,,,,,,,,,,,,,,,,53,,,,,,,,,,,,,,508.9859999642358,,response,,,,99,,,,,,,Space,keypress(Space),,,,,,,,---- -- ----- -- ------ - ------- --- ----------<br>------------- ------ ------ ---- ---- ------- ----- -- your<br>-------- ------- -- ---------- --- - --- ----- ----- ----<br>---- --- --- ----- --- ---- ---- ------- ----- ---- -------<br>--- --- -- ----- -- --- ---- -- --- ---- -- ------ ------<br>--- ----- -- ----,237029.5,237027.09999996424,236501.44,236509.79999995232,236518.114,237035.008,,17,your
screen,html.Screen,2_1_0_1_18,2022-02-03T13:10:01.425Z,,,,,,,,,,,,,,,,,53,,,,,,,,,,,,,,344.0919999642356,,response,,,,99,,,,,,,Space,keypress(Space),,,,,,,,---- -- ----- -- ------ - ------- --- ----------<br>------------- ------ ------ ---- ---- ------- ----- -- ----<br>romantic ------- -- ---------- --- - --- ----- ----- ----<br>---- --- --- ----- --- ---- ---- ------- ----- ---- -------<br>--- --- -- ----- -- --- ---- -- --- ---- -- ------ ------<br>--- ----- -- ----,237381.59999996424,237379.09999996424,237018.334,237029.69999998808,237035.008,237385.162,,18,romantic
screen,html.Screen,2_1_0_1_19,2022-02-03T13:10:01.881Z,,,,,,,,,,,,,,,,,53,,,,,,,,,,,,,,449.93799996422604,,response,,,,99,,,,,,,Space,keypress(Space),,,,,,,,---- -- ----- -- ------ - ------- --- ----------<br>------------- ------ ------ ---- ---- ------- ----- -- ----<br>-------- partner -- ---------- --- - --- ----- ----- ----<br>---- --- --- ----- --- ---- ---- ------- ----- ---- -------<br>--- --- -- ----- -- --- ---- -- --- ---- -- ------ ------<br>--- ----- -- ----,237837.69999998808,237835.09999996424,237368.488,237381.79999995232,237385.162,237852.034,,19,partner
screen,html.Screen,2_1_0_1_20,2022-02-03T13:10:02.225Z,,,,,,,,,,,,,,,,,53,,,,,,,,,,,,,,326.9659999999858,,response,,,,99,,,,,,,Space,keypress(Space),,,,,,,,---- -- ----- -- ------ - ------- --- ----------<br>------------- ------ ------ ---- ---- ------- ----- -- ----<br>-------- ------- is ---------- --- - --- ----- ----- ----<br>---- --- --- ----- --- ---- ---- ------- ----- ---- -------<br>--- --- -- ----- -- --- ---- -- --- ---- -- ------ ------<br>--- ----- -- ----,238181.89999997616,238179,237835.36,237837.79999995232,237852.034,238185.514,,20,is
screen,html.Screen,2_1_0_1_21,2022-02-03T13:10:02.625Z,,,,,,,,,,,,,,,,,53,,,,,,,,,,,,,,393.6859999880835,,response,,,,99,,,,,,,Space,keypress(Space),,,,,,,,---- -- ----- -- ------ - ------- --- ----------<br>------------- ------ ------ ---- ---- ------- ----- -- ----<br>-------- ------- -- paramount. --- - --- ----- ----- ----<br>---- --- --- ----- --- ---- ---- ------- ----- ---- -------<br>--- --- -- ----- -- --- ---- -- --- ---- -- ------ ------<br>--- ----- -- ----,238581.69999998808,238579.19999998808,238168.84,238182.09999996424,238185.514,238585.69,,21,paramount.
screen,html.Screen,2_1_0_1_22,2022-02-03T13:10:03.313Z,,,,,,,,,,,,,,,,,53,,,,,,,,,,,,,,681.4099999642349,,response,,,,99,,,,,,,Space,keypress(Space),,,,,,,,---- -- ----- -- ------ - ------- --- ----------<br>------------- ------ ------ ---- ---- ------- ----- -- ----<br>-------- ------- -- ---------- But - --- ----- ----- ----<br>---- --- --- ----- --- ---- ---- ------- ----- ---- -------<br>--- --- -- ----- -- --- ---- -- --- ---- -- ------ ------<br>--- ----- -- ----,239269.5,239267.09999996424,238569.016,238581.79999995232,238585.69,239285.998,,22,But
screen,html.Screen,2_1_0_1_23,2022-02-03T13:10:03.681Z,,,,,,,,,,,,,,,,,53,,,,,,,,,,,,,,349.20199998808675,,response,,,,99,,,,,,,Space,keypress(Space),,,,,,,,---- -- ----- -- ------ - ------- --- ----------<br>------------- ------ ------ ---- ---- ------- ----- -- ----<br>-------- ------- -- ---------- --- a --- ----- ----- ----<br>---- --- --- ----- --- ---- ---- ------- ----- ---- -------<br>--- --- -- ----- -- --- ---- -- --- ---- -- ------ ------<br>--- ----- -- ----,239637.59999996424,239635.19999998808,239269.324,239269.69999998808,239285.998,239652.826,,23,a
screen,html.Screen,2_1_0_1_24,2022-02-03T13:10:04.009Z,,,,,,,,,,,,,,,,,53,,,,,,,,,,,,,,310.37399998807814,,response,,,,99,,,,,,,Space,keypress(Space),,,,,,,,---- -- ----- -- ------ - ------- --- ----------<br>------------- ------ ------ ---- ---- ------- ----- -- ----<br>-------- ------- -- ---------- --- - new ----- ----- ----<br>---- --- --- ----- --- ---- ---- ------- ----- ---- -------<br>--- --- -- ----- -- --- ---- -- --- ---- -- ------ ------<br>--- ----- -- ----,239966.09999996424,239963.19999998808,239636.152,239637.69999998808,239652.826,239979.497,,24,new
screen,html.Screen,2_1_0_1_25,2022-02-03T13:10:04.369Z,,,,,,,,,,,,,,,,,53,,,,,,,,,,,,,,343.6029999642342,,response,,,,99,,,,,,,Space,keypress(Space),,,,,,,,---- -- ----- -- ------ - ------- --- ----------<br>------------- ------ ------ ---- ---- ------- ----- -- ----<br>-------- ------- -- ---------- --- - --- study ----- ----<br>---- --- --- ----- --- ---- ---- ------- ----- ---- -------<br>--- --- -- ----- -- --- ---- -- --- ---- -- ------ ------<br>--- ----- -- ----,240325.59999996424,240323.09999996424,239962.823,239966.19999998808,239979.497,240329.651,,25,study
screen,html.Screen,2_1_0_1_26,2022-02-03T13:10:05.017Z,,,,,,,,,,,,,,,,,53,,,,,,,,,,,,,,641.5489999880665,,response,,,,99,,,,,,,Space,keypress(Space),,,,,,,,---- -- ----- -- ------ - ------- --- ----------<br>------------- ------ ------ ---- ---- ------- ----- -- ----<br>-------- ------- -- ---------- --- - --- ----- finds ----<br>---- --- --- ----- --- ---- ---- ------- ----- ---- -------<br>--- --- -- ----- -- --- ---- -- --- ---- -- ------ ------<br>--- ----- -- ----,240973.39999997616,240971.19999998808,240312.977,240325.79999995232,240329.651,240979.937,,26,finds
screen,html.Screen,2_1_0_1_27,2022-02-03T13:10:05.401Z,,,,,,,,,,,,,,,,,53,,,,,,,,,,,,,,375.2629999880737,,response,,,,99,,,,,,,Space,keypress(Space),,,,,,,,---- -- ----- -- ------ - ------- --- ----------<br>------------- ------ ------ ---- ---- ------- ----- -- ----<br>-------- ------- -- ---------- --- - --- ----- ----- that<br>---- --- --- ----- --- ---- ---- ------- ----- ---- -------<br>--- --- -- ----- -- --- ---- -- --- ---- -- ------ ------<br>--- ----- -- ----,241357.89999997616,241355.19999998808,240963.263,240973.69999998808,240979.937,241363.439,,27,that
screen,html.Screen,2_1_0_1_28,2022-02-03T13:10:05.753Z,,,,,,,,,,,,,,,,,53,,,,,,,,,,,,,,343.76099998806603,,response,,,,99,,,,,,,Space,keypress(Space),,,,,,,,---- -- ----- -- ------ - ------- --- ----------<br>------------- ------ ------ ---- ---- ------- ----- -- ----<br>-------- ------- -- ---------- --- - --- ----- ----- ----<br>it's --- --- ----- --- ---- ---- ------- ----- ---- -------<br>--- --- -- ----- -- --- ---- -- --- ---- -- ------ ------<br>--- ----- -- ----,241709.89999997616,241707.19999998808,241346.765,241358,241363.439,241713.593,,28,it's
screen,html.Screen,2_1_0_1_29,2022-02-03T13:10:06.145Z,,,,,,,,,,,,,,,,,53,,,,,,,,,,,,,,385.50699996424373,,response,,,,99,,,,,,,Space,keypress(Space),,,,,,,,---- -- ----- -- ------ - ------- --- ----------<br>------------- ------ ------ ---- ---- ------- ----- -- ----<br>-------- ------- -- ---------- --- - --- ----- ----- ----<br>---- not --- ----- --- ---- ---- ------- ----- ---- -------<br>--- --- -- ----- -- --- ---- -- --- ---- -- ------ ------<br>--- ----- -- ----,242101.79999995232,242099.09999996424,241696.919,241710,241713.593,242113.769,,29,not
screen,html.Screen,2_1_0_1_30,2022-02-03T13:10:06.497Z,,,,,,,,,,,,,,,,,53,,,,,,,,,,,,,,337.43099998807884,,response,,,,99,,,,,,,Space,keypress(Space),,,,,,,,---- -- ----- -- ------ - ------- --- ----------<br>------------- ------ ------ ---- ---- ------- ----- -- ----<br>-------- ------- -- ---------- --- - --- ----- ----- ----<br>---- --- how ----- --- ---- ---- ------- ----- ---- -------<br>--- --- -- ----- -- --- ---- -- --- ---- -- ------ ------<br>--- ----- -- ----,242453.69999998808,242451.19999998808,242097.095,242102,242113.769,242463.923,,30,how
screen,html.Screen,2_1_0_1_31,2022-02-03T13:10:06.889Z,,,,,,,,,,,,,,,,,53,,,,,,,,,,,,,,379.17699996422743,,response,,,,99,,,,,,,Space,keypress(Space),,,,,,,,---- -- ----- -- ------ - ------- --- ----------<br>------------- ------ ------ ---- ---- ------- ----- -- ----<br>-------- ------- -- ---------- --- - --- ----- ----- ----<br>---- --- --- close --- ---- ---- ------- ----- ---- -------<br>--- --- -- ----- -- --- ---- -- --- ---- -- ------ ------<br>--- ----- -- ----,242845.69999998808,242843.09999996424,242447.249,242453.79999995232,242463.923,242847.425,,31,close
screen,html.Screen,2_1_0_1_32,2022-02-03T13:10:07.249Z,,,,,,,,,,,,,,,,,53,,,,,,,,,,,,,,355.7749999880907,,response,,,,99,,,,,,,Space,keypress(Space),,,,,,,,---- -- ----- -- ------ - ------- --- ----------<br>------------- ------ ------ ---- ---- ------- ----- -- ----<br>-------- ------- -- ---------- --- - --- ----- ----- ----<br>---- --- --- ----- you ---- ---- ------- ----- ---- -------<br>--- --- -- ----- -- --- ---- -- --- ---- -- ------ ------<br>--- ----- -- ----,243205.59999996424,243203.19999998808,242830.751,242845.79999995232,242847.425,243214.253,,32,you
screen,html.Screen,2_1_0_1_33,2022-02-03T13:10:07.577Z,,,,,,,,,,,,,,,,,53,,,,,,,,,,,,,,316.9469999880821,,response,,,,99,,,,,,,Space,keypress(Space),,,,,,,,---- -- ----- -- ------ - ------- --- ----------<br>------------- ------ ------ ---- ---- ------- ----- -- ----<br>-------- ------- -- ---------- --- - --- ----- ----- ----<br>---- --- --- ----- --- feel ---- ------- ----- ---- -------<br>--- --- -- ----- -- --- ---- -- --- ---- -- ------ ------<br>--- ----- -- ----,243533.69999998808,243531.19999998808,243197.579,243205.79999995232,243214.253,243547.733,,33,feel
screen,html.Screen,2_1_0_1_34,2022-02-03T13:10:07.913Z,,,,,,,,,,,,,,,,,53,,,,,,,,,,,,,,319.36699996422976,,response,,,,99,,,,,,,Space,keypress(Space),,,,,,,,---- -- ----- -- ------ - ------- --- ----------<br>------------- ------ ------ ---- ---- ------- ----- -- ----<br>-------- ------- -- ---------- --- - --- ----- ----- ----<br>---- --- --- ----- --- ---- that ------- ----- ---- -------<br>--- --- -- ----- -- --- ---- -- --- ---- -- ------ ------<br>--- ----- -- ----,243869.79999995232,243867.09999996424,243531.059,243533.79999995232,243547.733,243881.213,,34,that
screen,html.Screen,2_1_0_1_35,2022-02-03T13:10:08.289Z,,,,,,,,,,,,,,,,,53,,,,,,,,,,,,,,361.8869999642484,,response,,,,99,,,,,,,Space,keypress(Space),,,,,,,,---- -- ----- -- ------ - ------- --- ----------<br>------------- ------ ------ ---- ---- ------- ----- -- ----<br>-------- ------- -- ---------- --- - --- ----- ----- ----<br>---- --- --- ----- --- ---- ---- matters ----- ---- -------<br>--- --- -- ----- -- --- ---- -- --- ---- -- ------ ------<br>--- ----- -- ----,244245.69999998808,244243.09999996424,243864.539,243870,243881.213,244264.715,,35,matters
screen,html.Screen,2_1_0_1_36,2022-02-03T13:10:08.609Z,,,,,,,,,,,,,,,,,53,,,,,,,,,,,,,,298.3849999642407,,response,,,,99,,,,,,,Space,keypress(Space),,,,,,,,"---- -- ----- -- ------ - ------- --- ----------<br>------------- ------ ------ ---- ---- ------- ----- -- ----<br>-------- ------- -- ---------- --- - --- ----- ----- ----<br>---- --- --- ----- --- ---- ---- ------- most, ---- -------<br>--- --- -- ----- -- --- ---- -- --- ---- -- ------ ------<br>--- ----- -- ----",244565.69999998808,244563.09999996424,244248.041,244254.79999995232,244264.715,244581.521,,36,"most,"
screen,html.Screen,2_1_0_1_37,2022-02-03T13:10:09.089Z,,,,,,,,,,,,,,,,,53,,,,,,,,,,,,,,461.5789999642293,,response,,,,99,,,,,,,Space,keypress(Space),,,,,,,,---- -- ----- -- ------ - ------- --- ----------<br>------------- ------ ------ ---- ---- ------- ----- -- ----<br>-------- ------- -- ---------- --- - --- ----- ----- ----<br>---- --- --- ----- --- ---- ---- ------- ----- it's -------<br>--- --- -- ----- -- --- ---- -- --- ---- -- ------ ------<br>--- ----- -- ----,245045.59999996424,245043.09999996424,244564.847,244565.89999997616,244581.521,245048.393,,37,it's
screen,html.Screen,2_1_0_1_38,2022-02-03T13:10:09.513Z,,,,,,,,,,,,,,,,,53,,,,,,,,,,,,,,418.60699999998906,,response,,,,99,,,,,,,Space,keypress(Space),,,,,,,,---- -- ----- -- ------ - ------- --- ----------<br>------------- ------ ------ ---- ---- ------- ----- -- ----<br>-------- ------- -- ---------- --- - --- ----- ----- ----<br>---- --- --- ----- --- ---- ---- ------- ----- ---- whether<br>--- --- -- ----- -- --- ---- -- --- ---- -- ------ ------<br>--- ----- -- ----,245469.69999998808,245467,245031.719,245045.69999998808,245048.393,245481.917,,38,whether
screen,html.Screen,2_1_0_1_39,2022-02-03T13:10:09.873Z,,,,,,,,,,,,,,,,,53,,,,,,,,,,,,,,345.1829999642505,,response,,,,99,,,,,,,Space,keypress(Space),,,,,,,,---- -- ----- -- ------ - ------- --- ----------<br>------------- ------ ------ ---- ---- ------- ----- -- ----<br>-------- ------- -- ---------- --- - --- ----- ----- ----<br>---- --- --- ----- --- ---- ---- ------- ----- ---- -------<br>you --- -- ----- -- --- ---- -- --- ---- -- ------ ------<br>--- ----- -- ----,245829.59999996424,245827.09999996424,245465.243,245469.79999995232,245481.917,245832.071,,39,you
screen,html.Screen,2_1_0_1_40,2022-02-03T13:10:10.225Z,,,,,,,,,,,,,,,,,53,,,,,,,,,,,,,,347.02899996424094,,response,,,,99,,,,,,,Space,keypress(Space),,,,,,,,---- -- ----- -- ------ - ------- --- ----------<br>------------- ------ ------ ---- ---- ------- ----- -- ----<br>-------- ------- -- ---------- --- - --- ----- ----- ----<br>---- --- --- ----- --- ---- ---- ------- ----- ---- -------<br>--- are -- ----- -- --- ---- -- --- ---- -- ------ ------<br>--- ----- -- ----,246181.79999995232,246179.09999996424,245815.397,245829.69999998808,245832.071,246198.899,,40,are
screen,html.Screen,2_1_0_1_41,2022-02-03T13:10:10.657Z,,,,,,,,,,,,,,,,,53,,,,,,,,,,,,,,412.3009999880742,,response,,,,99,,,,,,,Space,keypress(Space),,,,,,,,---- -- ----- -- ------ - ------- --- ----------<br>------------- ------ ------ ---- ---- ------- ----- -- ----<br>-------- ------- -- ---------- --- - --- ----- ----- ----<br>---- --- --- ----- --- ---- ---- ------- ----- ---- -------<br>--- --- as ----- -- --- ---- -- --- ---- -- ------ ------<br>--- ----- -- ----,246613.69999998808,246611.19999998808,246182.225,246182,246198.899,246615.749,,41,as
screen,html.Screen,2_1_0_1_42,2022-02-03T13:10:11.865Z,,,,,,,,,,,,,,,,,53,,,,,,,,,,,,,,1203.3509999642265,,response,,,,99,,,,,,,Space,keypress(Space),,,,,,,,---- -- ----- -- ------ - ------- --- ----------<br>------------- ------ ------ ---- ---- ------- ----- -- ----<br>-------- ------- -- ---------- --- - --- ----- ----- ----<br>---- --- --- ----- --- ---- ---- ------- ----- ---- -------<br>--- --- -- close -- --- ---- -- --- ---- -- ------ ------<br>--- ----- -- ----,247821.59999996424,247819.09999996424,246599.075,246613.89999997616,246615.749,247832.951,,42,close
screen,html.Screen,2_1_0_1_43,2022-02-03T13:10:12.313Z,,,,,,,,,,,,,,,,,53,,,,,,,,,,,,,,434.24899998807814,,response,,,,99,,,,,,,Space,keypress(Space),,,,,,,,---- -- ----- -- ------ - ------- --- ----------<br>------------- ------ ------ ---- ---- ------- ----- -- ----<br>-------- ------- -- ---------- --- - --- ----- ----- ----<br>---- --- --- ----- --- ---- ---- ------- ----- ---- -------<br>--- --- -- ----- as --- ---- -- --- ---- -- ------ ------<br>--- ----- -- ----,248269.79999995232,248267.19999998808,247816.277,247821.69999998808,247832.951,248283.149,,43,as
screen,html.Screen,2_1_0_1_44,2022-02-03T13:10:12.705Z,,,,,,,,,,,,,,,,,53,,,,,,,,,,,,,,375.9509999642323,,response,,,,99,,,,,,,Space,keypress(Space),,,,,,,,---- -- ----- -- ------ - ------- --- ----------<br>------------- ------ ------ ---- ---- ------- ----- -- ----<br>-------- ------- -- ---------- --- - --- ----- ----- ----<br>---- --- --- ----- --- ---- ---- ------- ----- ---- -------<br>--- --- -- ----- -- you ---- -- --- ---- -- ------ ------<br>--- ----- -- ----,248661.69999998808,248659.09999996424,248266.475,248269.89999997616,248283.149,248666.651,,44,you
screen,html.Screen,2_1_0_1_45,2022-02-03T13:10:13.105Z,,,,,,,,,,,,,,,,,53,,,,,,,,,,,,,,392.5489999880665,,response,,,,99,,,,,,,Space,keypress(Space),,,,,,,,---- -- ----- -- ------ - ------- --- ----------<br>------------- ------ ------ ---- ---- ------- ----- -- ----<br>-------- ------- -- ---------- --- - --- ----- ----- ----<br>---- --- --- ----- --- ---- ---- ------- ----- ---- -------<br>--- --- -- ----- -- --- want -- --- ---- -- ------ ------<br>--- ----- -- ----,249061.59999996424,249059.19999998808,248649.977,248661.79999995232,248666.651,249066.827,,45,want
screen,html.Screen,2_1_0_1_46,2022-02-03T13:10:13.497Z,,,,,,,,,,,,,,,,,53,,,,,,,,,,,,,,384.37299998808885,,response,,,,99,,,,,,,Space,keypress(Space),,,,,,,,---- -- ----- -- ------ - ------- --- ----------<br>------------- ------ ------ ---- ---- ------- ----- -- ----<br>-------- ------- -- ---------- --- - --- ----- ----- ----<br>---- --- --- ----- --- ---- ---- ------- ----- ---- -------<br>--- --- -- ----- -- --- ---- to --- ---- -- ------ ------<br>--- ----- -- ----,249453.79999995232,249451.19999998808,249050.153,249061.69999998808,249066.827,249467.003,,46,to
screen,html.Screen,2_1_0_1_47,2022-02-03T13:10:13.809Z,,,,,,,,,,,,,,,,,53,,,,,,,,,,,,,,296.09699996424024,,response,,,,99,,,,,,,Space,keypress(Space),,,,,,,,"---- -- ----- -- ------ - ------- --- ----------<br>------------- ------ ------ ---- ---- ------- ----- -- ----<br>-------- ------- -- ---------- --- - --- ----- ----- ----<br>---- --- --- ----- --- ---- ---- ------- ----- ---- -------<br>--- --- -- ----- -- --- ---- -- be, ---- -- ------ ------<br>--- ----- -- ----",249765.59999996424,249763.09999996424,249450.329,249453.89999997616,249467.003,249767.135,,47,"be,"
screen,html.Screen,2_1_0_1_48,2022-02-03T13:10:14.194Z,,,,,,,,,,,,,,,,,53,,,,,,,,,,,,,,379.9649999642279,,response,,,,99,,,,,,,Space,keypress(Space),,,,,,,,---- -- ----- -- ------ - ------- --- ----------<br>------------- ------ ------ ---- ---- ------- ----- -- ----<br>-------- ------- -- ---------- --- - --- ----- ----- ----<br>---- --- --- ----- --- ---- ---- ------- ----- ---- -------<br>--- --- -- ----- -- --- ---- -- --- even -- ------ ------<br>--- ----- -- ----,250150.09999996424,250147.09999996424,249750.461,249765.69999998808,249767.135,250161.297,,48,even
screen,html.Screen,2_1_0_1_49,2022-02-03T13:10:14.569Z,,,,,,,,,,,,,,,,,53,,,,,,,,,,,,,,361.8029999642458,,response,,,,99,,,,,,,Space,keypress(Space),,,,,,,,---- -- ----- -- ------ - ------- --- ----------<br>------------- ------ ------ ---- ---- ------- ----- -- ----<br>-------- ------- -- ---------- --- - --- ----- ----- ----<br>---- --- --- ----- --- ---- ---- ------- ----- ---- -------<br>--- --- -- ----- -- --- ---- -- --- ---- if ------ ------<br>--- ----- -- ----,250525.5,250523.09999996424,250144.623,250150.29999995232,250161.297,250528.125,,49,if
screen,html.Screen,2_1_0_1_50,2022-02-03T13:10:14.857Z,,,,,,,,,,,,,,,,,53,,,,,,,,,,,,,,282.9749999642372,,response,,,,99,,,,,,,Space,keypress(Space),,,,,,,,---- -- ----- -- ------ - ------- --- ----------<br>------------- ------ ------ ---- ---- ------- ----- -- ----<br>-------- ------- -- ---------- --- - --- ----- ----- ----<br>---- --- --- ----- --- ---- ---- ------- ----- ---- -------<br>--- --- -- ----- -- --- ---- -- --- ---- -- that's ------<br>--- ----- -- ----,250813.5,250811.09999996424,250511.451,250525.69999998808,250528.125,250828.257,,50,that's
screen,html.Screen,2_1_0_1_51,2022-02-03T13:10:15.273Z,,,,,,,,,,,,,,,,,53,,,,,,,,,,,,,,398.8429999642249,,response,,,,99,,,,,,,Space,keypress(Space),,,,,,,,---- -- ----- -- ------ - ------- --- ----------<br>------------- ------ ------ ---- ---- ------- ----- -- ----<br>-------- ------- -- ---------- --- - --- ----- ----- ----<br>---- --- --- ----- --- ---- ---- ------- ----- ---- -------<br>--- --- -- ----- -- --- ---- -- --- ---- -- ------ really<br>--- ----- -- ----,251229.69999998808,251227.09999996424,250811.583,250813.69999998808,250828.257,251245.107,,51,really
screen,html.Screen,2_1_0_1_52,2022-02-03T13:10:15.641Z,,,,,,,,,,,,,,,,,53,,,,,,,,,,,,,,349.99299996424816,,response,,,,99,,,,,,,Space,keypress(Space),,,,,,,,---- -- ----- -- ------ - ------- --- ----------<br>------------- ------ ------ ---- ---- ------- ----- -- ----<br>-------- ------- -- ---------- --- - --- ----- ----- ----<br>---- --- --- ----- --- ---- ---- ------- ----- ---- -------<br>--- --- -- ----- -- --- ---- -- --- ---- -- ------ ------<br>not ----- -- ----,251597.69999998808,251595.09999996424,251228.433,251229.89999997616,251245.107,251611.935,,52,not
screen,html.Screen,2_1_0_1_53,2022-02-03T13:10:15.936Z,,,,,,,,,,,,,,,,,53,,,,,,,,,,,,,,279.0650000000023,,response,,,,99,,,,,,,Space,keypress(Space),,,,,,,,---- -- ----- -- ------ - ------- --- ----------<br>------------- ------ ------ ---- ---- ------- ----- -- ----<br>-------- ------- -- ---------- --- - --- ----- ----- ----<br>---- --- --- ----- --- ---- ---- ------- ----- ---- -------<br>--- --- -- ----- -- --- ---- -- --- ---- -- ------ ------<br>--- close -- ----,251892.79999995232,251891,251595.261,251597.79999995232,251611.935,251895.393,,53,close
screen,html.Screen,2_1_0_1_54,2022-02-03T13:10:16.265Z,,,,,,,,,,,,,,,,,53,,,,,,,,,,,,,,323.8069999880681,,response,,,,99,,,,,,,Space,keypress(Space),,,,,,,,---- -- ----- -- ------ - ------- --- ----------<br>------------- ------ ------ ---- ---- ------- ----- -- ----<br>-------- ------- -- ---------- --- - --- ----- ----- ----<br>---- --- --- ----- --- ---- ---- ------- ----- ---- -------<br>--- --- -- ----- -- --- ---- -- --- ---- -- ------ ------<br>--- ----- at ----,252221.59999996424,252219.19999998808,251878.719,251893,251895.393,252228.873,,54,at
screen,html.Screen,2_1_0_1_55,2022-02-03T13:10:16.617Z,,,,,,,,,,,,,,,,,53,,,,,,,,,,,,,,342.2269999642449,,response,,,,99,,,,,,,Space,keypress(Space),,,,,,,,---- -- ----- -- ------ - ------- --- ----------<br>------------- ------ ------ ---- ---- ------- ----- -- ----<br>-------- ------- -- ---------- --- - --- ----- ----- ----<br>---- --- --- ----- --- ---- ---- ------- ----- ---- -------<br>--- --- -- ----- -- --- ---- -- --- ---- -- ------ ------<br>--- ----- -- all.,252573.59999996424,252571.09999996424,252212.199,252221.69999998808,252228.873,252579.027,,55,all.
Item 99,flow.Loop,2_1_0_1,2022-02-03T13:10:16.617Z,,,,,,,,,,,,,,,,,,,,,,,,,,,,,,,23569.407999964227,,completion,,,,,F,,,,,,,,,,,silence,,,,,252573.69999998808,252571.09999996424,228968.344,228970.59999996424,229001.692,252579.027,,,
Question 1,html.Screen,2_1_0_2,2022-02-03T13:10:20.298Z,,,,,,,,,,,,,,,,,,,,,,,,,,,,true,FALSE,,3673.2729999523144,,response,,,,99,F,,,,,,FALSE,click #choice-2,,,,silence,,,,,256254.39999997616,256252.29999995232,252562.353,252573.89999997616,252579.027,256280.655,,,
Question 2,html.Screen,2_1_0_3,2022-02-03T13:10:26.046Z,,,,,,,,,,,,,,,,,,,,,,,,,,,,true,TRUE,,5719.644999952317,,response,,,,99,F,,,,,,TRUE,click #choice-1,,,,silence,,,,,262002.39999997616,262000.29999995232,256263.981,256254.59999996424,256280.655,262027.465,,,
Item 99,flow.Sequence,2_1_0,2022-02-03T13:10:26.046Z,,,,,,,,,,,,,,,,,,,,,,,,,,,,,,,43007.55599995231,,completion,,,,,,,,,,,,,,,,,,,,,262002.59999996424,262000.29999995232,218976.07,218986,218992.744,262027.465,,,
Holding screen,html.Screen,2_1_1_0,2022-02-03T13:10:36.061Z,,,,,,,,,,,,,,,,,,,,,,,,,,,,,,,10004.399999999994,,timeout,,,,,,,,,,,,,,,,,,,,,272016.6999999881,272015.191,262010.791,262002.79999995232,262027.465,272031.865,,,
screen,html.Screen,2_1_1_1_0,2022-02-03T13:10:36.930Z,,,,,,,,,,,,,,,,,54,,,,,,,,,,,,,,849.4349999523256,,response,,,,100,,,,,,,Space,keypress(Space),,,,,,,,At --- ---- --- ------ ----- ------- ---- -- --- ------- --<br>------- ---------- ------ -- ----- -- ----- -- ---- ------<br>--- ----- --- --- ------ -------- ----- --- ------ ----- --<br>----- ----- ---------- --- --- ------ ------ ---- -- ------<br>------- --- ------ ----- --- ---- ------- -- ---- --- --<br>------- ------,272885.2999999523,272881.2999999523,272015.191,272016.89999997616,272031.865,272901.115,,0,At
screen,html.Screen,2_1_1_1_1,2022-02-03T13:10:37.304Z,,,,,,,,,,,,,,,,,54,,,,,,,,,,,,,,356.1849999523256,,response,,,,100,,,,,,,Space,keypress(Space),,,,,,,,-- the ---- --- ------ ----- ------- ---- -- --- ------- --<br>------- ---------- ------ -- ----- -- ----- -- ---- ------<br>--- ----- --- --- ------ -------- ----- --- ------ ----- --<br>----- ----- ---------- --- --- ------ ------ ---- -- ------<br>------- --- ------ ----- --- ---- ------- -- ---- --- --<br>------- ------,273259.7999999523,273257.2999999523,272884.441,272885.5,272901.115,273267.943,,1,the
screen,html.Screen,2_1_1_1_2,2022-02-03T13:10:37.664Z,,,,,,,,,,,,,,,,,54,,,,,,,,,,,,,,349.25699998805067,,response,,,,100,,,,,,,Space,keypress(Space),,,,,,,,-- --- time --- ------ ----- ------- ---- -- --- ------- --<br>------- ---------- ------ -- ----- -- ----- -- ---- ------<br>--- ----- --- --- ------ -------- ----- --- ------ ----- --<br>----- ----- ---------- --- --- ------ ------ ---- -- ------<br>------- --- ------ ----- --- ---- ------- -- ---- --- --<br>------- ------,273619.6999999881,273617.1999999881,273251.269,273259.7999999523,273267.943,273634.771,,2,time
screen,html.Screen,2_1_1_1_3,2022-02-03T13:10:38.056Z,,,,,,,,,,,,,,,,,54,,,,,,,,,,,,,,374.42899998807115,,response,,,,100,,,,,,,Space,keypress(Space),,,,,,,,-- --- ---- the ------ ----- ------- ---- -- --- ------- --<br>------- ---------- ------ -- ----- -- ----- -- ---- ------<br>--- ----- --- --- ------ -------- ----- --- ------ ----- --<br>----- ----- ---------- --- --- ------ ------ ---- -- ------<br>------- --- ------ ----- --- ---- ------- -- ---- --- --<br>------- ------,274011.6999999881,274009.1999999881,273618.097,273619.7999999523,273634.771,274018.273,,3,the
screen,html.Screen,2_1_1_1_4,2022-02-03T13:10:38.456Z,,,,,,,,,,,,,,,,,54,,,,,,,,,,,,,,390.9269999880926,,response,,,,100,,,,,,,Space,keypress(Space),,,,,,,,-- --- ---- --- French ----- ------- ---- -- --- ------- --<br>------- ---------- ------ -- ----- -- ----- -- ---- ------<br>--- ----- --- --- ------ -------- ----- --- ------ ----- --<br>----- ----- ---------- --- --- ------ ------ ---- -- ------<br>------- --- ------ ----- --- ---- ------- -- ---- --- --<br>------- ------,274411.6999999881,274409.1999999881,274001.599,274011.89999997616,274018.273,274418.449,,4,French
screen,html.Screen,2_1_1_1_5,2022-02-03T13:10:38.808Z,,,,,,,,,,,,,,,,,54,,,,,,,,,,,,,,342.85099995229393,,response,,,,100,,,,,,,Space,keypress(Space),,,,,,,,-- --- ---- --- ------ crown ------- ---- -- --- ------- --<br>------- ---------- ------ -- ----- -- ----- -- ---- ------<br>--- ----- --- --- ------ -------- ----- --- ------ ----- --<br>----- ----- ---------- --- --- ------ ------ ---- -- ------<br>------- --- ------ ----- --- ---- ------- -- ---- --- --<br>------- ------,274764,274761.2999999523,274401.775,274411.6999999881,274418.449,274768.603,,5,crown
screen,html.Screen,2_1_1_1_6,2022-02-03T13:10:39.280Z,,,,,,,,,,,,,,,,,54,,,,,,,,,,,,,,464.5969999880763,,response,,,,100,,,,,,,Space,keypress(Space),,,,,,,,-- --- ---- --- ------ ----- secured ---- -- --- ------- --<br>------- ---------- ------ -- ----- -- ----- -- ---- ------<br>--- ----- --- --- ------ -------- ----- --- ------ ----- --<br>----- ----- ---------- --- --- ------ ------ ---- -- ------<br>------- --- ------ ----- --- ---- ------- -- ---- --- --<br>------- ------,275235.59999996424,275233.1999999881,274751.929,274764.1999999881,274768.603,275252.149,,6,secured
screen,html.Screen,2_1_1_1_7,2022-02-03T13:10:39.656Z,,,,,,,,,,,,,,,,,54,,,,,,,,,,,,,,357.1509999523405,,response,,,,100,,,,,,,Space,keypress(Space),,,,,,,,-- --- ---- --- ------ ----- ------- much -- --- ------- --<br>------- ---------- ------ -- ----- -- ----- -- ---- ------<br>--- ----- --- --- ------ -------- ----- --- ------ ----- --<br>----- ----- ---------- --- --- ------ ------ ---- -- ------<br>------- --- ------ ----- --- ---- ------- -- ---- --- --<br>------- ------,275612.09999996424,275609.2999999523,275235.475,275235.6999999881,275252.149,275618.977,,7,much
screen,html.Screen,2_1_1_1_8,2022-02-03T13:10:40.144Z,,,,,,,,,,,,,,,,,54,,,,,,,,,,,,,,478.22299998806557,,response,,,,100,,,,,,,Space,keypress(Space),,,,,,,,-- --- ---- --- ------ ----- ------- ---- of --- ------- --<br>------- ---------- ------ -- ----- -- ----- -- ---- ------<br>--- ----- --- --- ------ -------- ----- --- ------ ----- --<br>----- ----- ---------- --- --- ------ ------ ---- -- ------<br>------- --- ------ ----- --- ---- ------- -- ---- --- --<br>------- ------,276099.59999996424,276097.1999999881,275602.303,275612.1999999881,275618.977,276102.523,,8,of
screen,html.Screen,2_1_1_1_9,2022-02-03T13:10:40.504Z,,,,,,,,,,,,,,,,,54,,,,,,,,,,,,,,354.7769999523298,,response,,,,100,,,,,,,Space,keypress(Space),,,,,,,,-- --- ---- --- ------ ----- ------- ---- -- its ------- --<br>------- ---------- ------ -- ----- -- ----- -- ---- ------<br>--- ----- --- --- ------ -------- ----- --- ------ ----- --<br>----- ----- ---------- --- --- ------ ------ ---- -- ------<br>------- --- ------ ----- --- ---- ------- -- ---- --- --<br>------- ------,276459.7999999523,276457.2999999523,276085.849,276099.6999999881,276102.523,276469.351,,9,its
screen,html.Screen,2_1_1_1_10,2022-02-03T13:10:40.904Z,,,,,,,,,,,,,,,,,54,,,,,,,,,,,,,,387.94899995229207,,response,,,,100,,,,,,,Space,keypress(Space),,,,,,,,-- --- ---- --- ------ ----- ------- ---- -- --- revenue --<br>------- ---------- ------ -- ----- -- ----- -- ---- ------<br>--- ----- --- --- ------ -------- ----- --- ------ ----- --<br>----- ----- ---------- --- --- ------ ------ ---- -- ------<br>------- --- ------ ----- --- ---- ------- -- ---- --- --<br>------- ------,276859.7999999523,276857.2999999523,276452.677,276460,276469.351,276869.527,,10,revenue
screen,html.Screen,2_1_1_1_11,2022-02-03T13:10:41.376Z,,,,,,,,,,,,,,,,,54,,,,,,,,,,,,,,459.7729999523144,,response,,,,100,,,,,,,Space,keypress(Space),,,,,,,,-- --- ---- --- ------ ----- ------- ---- -- --- ------- by<br>------- ---------- ------ -- ----- -- ----- -- ---- ------<br>--- ----- --- --- ------ -------- ----- --- ------ ----- --<br>----- ----- ---------- --- --- ------ ------ ---- -- ------<br>------- --- ------ ----- --- ---- ------- -- ---- --- --<br>------- ------,277331.7999999523,277329.2999999523,276852.853,276860,276869.527,277336.399,,11,by
screen,html.Screen,2_1_1_1_12,2022-02-03T13:10:41.752Z,,,,,,,,,,,,,,,,,54,,,,,,,,,,,,,,368.8009999881033,,response,,,,100,,,,,,,Space,keypress(Space),,,,,,,,-- --- ---- --- ------ ----- ------- ---- -- --- ------- --<br>issuing ---------- ------ -- ----- -- ----- -- ---- ------<br>--- ----- --- --- ------ -------- ----- --- ------ ----- --<br>----- ----- ---------- --- --- ------ ------ ---- -- ------<br>------- --- ------ ----- --- ---- ------- -- ---- --- --<br>------- ------,277707.6999999881,277705.1999999881,277319.725,277332.09999996424,277336.399,277719.901,,12,issuing
screen,html.Screen,2_1_1_1_13,2022-02-03T13:10:42.096Z,,,,,,,,,,,,,,,,,54,,,,,,,,,,,,,,329.2989999880665,,response,,,,100,,,,,,,Space,keypress(Space),,,,,,,,-- --- ---- --- ------ ----- ------- ---- -- --- ------- --<br>------- government ------ -- ----- -- ----- -- ---- ------<br>--- ----- --- --- ------ -------- ----- --- ------ ----- --<br>----- ----- ---------- --- --- ------ ------ ---- -- ------<br>------- --- ------ ----- --- ---- ------- -- ---- --- --<br>------- ------,278051.59999996424,278049.1999999881,277703.227,277707.89999997616,277719.901,278053.381,,13,government
screen,html.Screen,2_1_1_1_14,2022-02-03T13:10:42.592Z,,,,,,,,,,,,,,,,,54,,,,,,,,,,,,,,491.8189999880851,,response,,,,100,,,,,,,Space,keypress(Space),,,,,,,,-- --- ---- --- ------ ----- ------- ---- -- --- ------- --<br>------- ---------- bonds. -- ----- -- ----- -- ---- ------<br>--- ----- --- --- ------ -------- ----- --- ------ ----- --<br>----- ----- ---------- --- --- ------ ------ ---- -- ------<br>------- --- ------ ----- --- ---- ------- -- ---- --- --<br>------- ------,278547.6999999881,278545.1999999881,278036.707,278051.7999999523,278053.381,278553.601,,14,bonds.
screen,html.Screen,2_1_1_1_15,2022-02-03T13:10:43.104Z,,,,,,,,,,,,,,,,,54,,,,,,,,,,,,,,503.59899998805486,,response,,,,100,,,,,,,Space,keypress(Space),,,,,,,,-- --- ---- --- ------ ----- ------- ---- -- --- ------- --<br>------- ---------- ------ In ----- -- ----- -- ---- ------<br>--- ----- --- --- ------ -------- ----- --- ------ ----- --<br>----- ----- ---------- --- --- ------ ------ ---- -- ------<br>------- --- ------ ----- --- ---- ------- -- ---- --- --<br>------- ------,279059.59999996424,279057.1999999881,278536.927,278547.7999999523,278553.601,279070.495,,15,In
screen,html.Screen,2_1_1_1_16,2022-02-03T13:10:44.040Z,,,,,,,,,,,,,,,,,54,,,,,,,,,,,,,,922.8049999523209,,response,,,,100,,,,,,,Space,keypress(Space),,,,,,,,"-- --- ---- --- ------ ----- ------- ---- -- --- ------- --<br>------- ---------- ------ -- 1727, -- ----- -- ---- ------<br>--- ----- --- --- ------ -------- ----- --- ------ ----- --<br>----- ----- ---------- --- --- ------ ------ ---- -- ------<br>------- --- ------ ----- --- ---- ------- -- ---- --- --<br>------- ------",279995.6999999881,279993.2999999523,279053.821,279059.6999999881,279070.495,280004.239,,16,"1727,"
screen,html.Screen,2_1_1_1_17,2022-02-03T13:10:44.744Z,,,,,,,,,,,,,,,,,54,,,,,,,,,,,,,,692.9609999880777,,response,,,,100,,,,,,,Space,keypress(Space),,,,,,,,-- --- ---- --- ------ ----- ------- ---- -- --- ------- --<br>------- ---------- ------ -- ----- in ----- -- ---- ------<br>--- ----- --- --- ------ -------- ----- --- ------ ----- --<br>----- ----- ---------- --- --- ------ ------ ---- -- ------<br>------- --- ------ ----- --- ---- ------- -- ---- --- --<br>------- ------,280699.6999999881,280697.1999999881,279987.565,279995.7999999523,280004.239,280704.547,,17,in
screen,html.Screen,2_1_1_1_18,2022-02-03T13:10:45.216Z,,,,,,,,,,,,,,,,,54,,,,,,,,,,,,,,464.7529999522958,,response,,,,100,,,,,,,Space,keypress(Space),,,,,,,,-- --- ---- --- ------ ----- ------- ---- -- --- ------- --<br>------- ---------- ------ -- ----- -- order -- ---- ------<br>--- ----- --- --- ------ -------- ----- --- ------ ----- --<br>----- ----- ---------- --- --- ------ ------ ---- -- ------<br>------- --- ------ ----- --- ---- ------- -- ---- --- --<br>------- ------,281171.59999996424,281169.2999999523,280687.873,280699.89999997616,280704.547,281188.093,,18,order
screen,html.Screen,2_1_1_1_19,2022-02-03T13:10:45.808Z,,,,,,,,,,,,,,,,,54,,,,,,,,,,,,,,573.1069999880856,,response,,,,100,,,,,,,Space,keypress(Space),,,,,,,,-- --- ---- --- ------ ----- ------- ---- -- --- ------- --<br>------- ---------- ------ -- ----- -- ----- to ---- ------<br>--- ----- --- --- ------ -------- ----- --- ------ ----- --<br>----- ----- ---------- --- --- ------ ------ ---- -- ------<br>------- --- ------ ----- --- ---- ------- -- ---- --- --<br>------- ------,281763.6999999881,281761.1999999881,281171.419,281171.6999999881,281188.093,281771.683,,19,to
screen,html.Screen,2_1_1_1_20,2022-02-03T13:10:46.368Z,,,,,,,,,,,,,,,,,54,,,,,,,,,,,,,,549.51699998806,,response,,,,100,,,,,,,Space,keypress(Space),,,,,,,,-- --- ---- --- ------ ----- ------- ---- -- --- ------- --<br>------- ---------- ------ -- ----- -- ----- -- save ------<br>--- ----- --- --- ------ -------- ----- --- ------ ----- --<br>----- ----- ---------- --- --- ------ ------ ---- -- ------<br>------- --- ------ ----- --- ---- ------- -- ---- --- --<br>------- ------,282323.59999996424,282321.1999999881,281755.009,281763.7999999523,281771.683,282326.237,,20,save
screen,html.Screen,2_1_1_1_21,2022-02-03T13:10:47.057Z,,,,,,,,,,,,,,,,,54,,,,,,,,,,,,,,683.0629999522935,,response,,,,100,,,,,,,Space,keypress(Space),,,,,,,,"-- --- ---- --- ------ ----- ------- ---- -- --- ------- --<br>------- ---------- ------ -- ----- -- ----- -- ---- money,<br>--- ----- --- --- ------ -------- ----- --- ------ ----- --<br>----- ----- ---------- --- --- ------ ------ ---- -- ------<br>------- --- ------ ----- --- ---- ------- -- ---- --- --<br>------- ------",283012.09999996424,283009.2999999523,282309.563,282323.6999999881,282326.237,283026.545,,21,"money,"
screen,html.Screen,2_1_1_1_22,2022-02-03T13:10:47.912Z,,,,,,,,,,,,,,,,,54,,,,,,,,,,,,,,838.7549999523326,,response,,,,100,,,,,,,Space,keypress(Space),,,,,,,,-- --- ---- --- ------ ----- ------- ---- -- --- ------- --<br>------- ---------- ------ -- ----- -- ----- -- ---- ------<br>the ----- --- --- ------ -------- ----- --- ------ ----- --<br>----- ----- ---------- --- --- ------ ------ ---- -- ------<br>------- --- ------ ----- --- ---- ------- -- ---- --- --<br>------- ------,283867.59999996424,283865.2999999523,283009.871,283012.1999999881,283026.545,283876.919,,22,the
screen,html.Screen,2_1_1_1_23,2022-02-03T13:10:48.584Z,,,,,,,,,,,,,,,,,54,,,,,,,,,,,,,,660.2809999880847,,response,,,,100,,,,,,,Space,keypress(Space),,,,,,,,-- --- ---- --- ------ ----- ------- ---- -- --- ------- --<br>------- ---------- ------ -- ----- -- ----- -- ---- ------<br>--- state --- --- ------ -------- ----- --- ------ ----- --<br>----- ----- ---------- --- --- ------ ------ ---- -- ------<br>------- --- ------ ----- --- ---- ------- -- ---- --- --<br>------- ------,284539.59999996424,284537.1999999881,283860.245,283867.7999999523,283876.919,284543.879,,23,state
screen,html.Screen,2_1_1_1_24,2022-02-03T13:10:48.984Z,,,,,,,,,,,,,,,,,54,,,,,,,,,,,,,,393.4209999523009,,response,,,,100,,,,,,,Space,keypress(Space),,,,,,,,-- --- ---- --- ------ ----- ------- ---- -- --- ------- --<br>------- ---------- ------ -- ----- -- ----- -- ---- ------<br>--- ----- cut --- ------ -------- ----- --- ------ ----- --<br>----- ----- ---------- --- --- ------ ------ ---- -- ------<br>------- --- ------ ----- --- ---- ------- -- ---- --- --<br>------- ------,284939.6999999881,284937.2999999523,284527.205,284539.7999999523,284543.879,284944.055,,24,cut
screen,html.Screen,2_1_1_1_25,2022-02-03T13:10:49.408Z,,,,,,,,,,,,,,,,,54,,,,,,,,,,,,,,417.14499998808606,,response,,,,100,,,,,,,Space,keypress(Space),,,,,,,,-- --- ---- --- ------ ----- ------- ---- -- --- ------- --<br>------- ---------- ------ -- ----- -- ----- -- ---- ------<br>--- ----- --- the ------ -------- ----- --- ------ ----- --<br>----- ----- ---------- --- --- ------ ------ ---- -- ------<br>------- --- ------ ----- --- ---- ------- -- ---- --- --<br>------- ------,285363.7999999523,285361.1999999881,284927.381,284939.7999999523,284944.055,285377.579,,25,the
screen,html.Screen,2_1_1_1_26,2022-02-03T13:10:49.824Z,,,,,,,,,,,,,,,,,54,,,,,,,,,,,,,,399.62099998805206,,response,,,,100,,,,,,,Space,keypress(Space),,,,,,,,-- --- ---- --- ------ ----- ------- ---- -- --- ------- --<br>------- ---------- ------ -- ----- -- ----- -- ---- ------<br>--- ----- --- --- bonds' -------- ----- --- ------ ----- --<br>----- ----- ---------- --- --- ------ ------ ---- -- ------<br>------- --- ------ ----- --- ---- ------- -- ---- --- --<br>------- ------,285779.59999996424,285777.1999999881,285360.905,285363.89999997616,285377.579,285794.429,,26,bonds'
screen,html.Screen,2_1_1_1_27,2022-02-03T13:10:50.312Z,,,,,,,,,,,,,,,,,54,,,,,,,,,,,,,,470.87099995231256,,response,,,,100,,,,,,,Space,keypress(Space),,,,,,,,-- --- ---- --- ------ ----- ------- ---- -- --- ------- --<br>------- ---------- ------ -- ----- -- ----- -- ---- ------<br>--- ----- --- --- ------ interest ----- --- ------ ----- --<br>----- ----- ---------- --- --- ------ ------ ---- -- ------<br>------- --- ------ ----- --- ---- ------- -- ---- --- --<br>------- ------,286267.89999997616,286265.2999999523,285777.755,285779.6999999881,285794.429,286277.975,,27,interest
screen,html.Screen,2_1_1_1_28,2022-02-03T13:10:50.864Z,,,,,,,,,,,,,,,,,54,,,,,,,,,,,,,,539.2249999881024,,response,,,,100,,,,,,,Space,keypress(Space),,,,,,,,-- --- ---- --- ------ ----- ------- ---- -- --- ------- --<br>------- ---------- ------ -- ----- -- ----- -- ---- ------<br>--- ----- --- --- ------ -------- rate. --- ------ ----- --<br>----- ----- ---------- --- --- ------ ------ ---- -- ------<br>------- --- ------ ----- --- ---- ------- -- ---- --- --<br>------- ------,286819.7999999523,286817.1999999881,286261.301,286268,286277.975,286828.217,,28,rate.
screen,html.Screen,2_1_1_1_29,2022-02-03T13:10:51.368Z,,,,,,,,,,,,,,,,,54,,,,,,,,,,,,,,492.9829999880749,,response,,,,100,,,,,,,Space,keypress(Space),,,,,,,,-- --- ---- --- ------ ----- ------- ---- -- --- ------- --<br>------- ---------- ------ -- ----- -- ----- -- ---- ------<br>--- ----- --- --- ------ -------- ----- The ------ ----- --<br>----- ----- ---------- --- --- ------ ------ ---- -- ------<br>------- --- ------ ----- --- ---- ------- -- ---- --- --<br>------- ------,287323.6999999881,287321.1999999881,286811.543,286819.7999999523,286828.217,287328.437,,29,The
screen,html.Screen,2_1_1_1_30,2022-02-03T13:10:51.792Z,,,,,,,,,,,,,,,,,54,,,,,,,,,,,,,,416.7629999881028,,response,,,,100,,,,,,,Space,keypress(Space),,,,,,,,-- --- ---- --- ------ ----- ------- ---- -- --- ------- --<br>------- ---------- ------ -- ----- -- ----- -- ---- ------<br>--- ----- --- --- ------ -------- ----- --- market ----- --<br>----- ----- ---------- --- --- ------ ------ ---- -- ------<br>------- --- ------ ----- --- ---- ------- -- ---- --- --<br>------- ------,287747.6999999881,287745.1999999881,287311.763,287323.7999999523,287328.437,287761.961,,30,market
screen,html.Screen,2_1_1_1_31,2022-02-03T13:10:52.272Z,,,,,,,,,,,,,,,,,54,,,,,,,,,,,,,,463.2389999880688,,response,,,,100,,,,,,,Space,keypress(Space),,,,,,,,-- --- ---- --- ------ ----- ------- ---- -- --- ------- --<br>------- ---------- ------ -- ----- -- ----- -- ---- ------<br>--- ----- --- --- ------ -------- ----- --- ------ value --<br>----- ----- ---------- --- --- ------ ------ ---- -- ------<br>------- --- ------ ----- --- ---- ------- -- ---- --- --<br>------- ------,288227.59999996424,288225.1999999881,287745.287,287747.7999999523,287761.961,288228.833,,31,value
screen,html.Screen,2_1_1_1_32,2022-02-03T13:10:52.648Z,,,,,,,,,,,,,,,,,54,,,,,,,,,,,,,,372.4669999523321,,response,,,,100,,,,,,,Space,keypress(Space),,,,,,,,-- --- ---- --- ------ ----- ------- ---- -- --- ------- --<br>------- ---------- ------ -- ----- -- ----- -- ---- ------<br>--- ----- --- --- ------ -------- ----- --- ------ ----- of<br>----- ----- ---------- --- --- ------ ------ ---- -- ------<br>------- --- ------ ----- --- ---- ------- -- ---- --- --<br>------- ------,288603.6999999881,288601.2999999523,288212.159,288227.6999999881,288228.833,288612.335,,32,of
screen,html.Screen,2_1_1_1_33,2022-02-03T13:10:52.984Z,,,,,,,,,,,,,,,,,54,,,,,,,,,,,,,,324.8649999880581,,response,,,,100,,,,,,,Space,keypress(Space),,,,,,,,-- --- ---- --- ------ ----- ------- ---- -- --- ------- --<br>------- ---------- ------ -- ----- -- ----- -- ---- ------<br>--- ----- --- --- ------ -------- ----- --- ------ ----- --<br>these ----- ---------- --- --- ------ ------ ---- -- ------<br>------- --- ------ ----- --- ---- ------- -- ---- --- --<br>------- ------,288939.7999999523,288937.1999999881,288595.661,288603.89999997616,288612.335,288945.815,,33,these
screen,html.Screen,2_1_1_1_34,2022-02-03T13:10:53.352Z,,,,,,,,,,,,,,,,,54,,,,,,,,,,,,,,359.38499998807674,,response,,,,100,,,,,,,Space,keypress(Space),,,,,,,,-- --- ---- --- ------ ----- ------- ---- -- --- ------- --<br>------- ---------- ------ -- ----- -- ----- -- ---- ------<br>--- ----- --- --- ------ -------- ----- --- ------ ----- --<br>----- bonds ---------- --- --- ------ ------ ---- -- ------<br>------- --- ------ ----- --- ---- ------- -- ---- --- --<br>------- ------,289307.59999996424,289305.1999999881,288929.141,288939.89999997616,288945.815,289312.643,,34,bonds
screen,html.Screen,2_1_1_1_35,2022-02-03T13:10:53.800Z,,,,,,,,,,,,,,,,,54,,,,,,,,,,,,,,440.65699995233444,,response,,,,100,,,,,,,Space,keypress(Space),,,,,,,,"-- --- ---- --- ------ ----- ------- ---- -- --- ------- --<br>------- ---------- ------ -- ----- -- ----- -- ---- ------<br>--- ----- --- --- ------ -------- ----- --- ------ ----- --<br>----- ----- plummeted, --- --- ------ ------ ---- -- ------<br>------- --- ------ ----- --- ---- ------- -- ---- --- --<br>------- ------",289755.59999996424,289753.2999999523,289295.969,289307.6999999881,289312.643,289762.841,,35,"plummeted,"
screen,html.Screen,2_1_1_1_36,2022-02-03T13:10:54.184Z,,,,,,,,,,,,,,,,,54,,,,,,,,,,,,,,374.35899998806417,,response,,,,100,,,,,,,Space,keypress(Space),,,,,,,,-- --- ---- --- ------ ----- ------- ---- -- --- ------- --<br>------- ---------- ------ -- ----- -- ----- -- ---- ------<br>--- ----- --- --- ------ -------- ----- --- ------ ----- --<br>----- ----- ---------- and --- ------ ------ ---- -- ------<br>------- --- ------ ----- --- ---- ------- -- ---- --- --<br>------- ------,290139.6999999881,290137.1999999881,289746.167,289755.6999999881,289762.841,290146.343,,36,and
screen,html.Screen,2_1_1_1_37,2022-02-03T13:10:54.576Z,,,,,,,,,,,,,,,,,54,,,,,,,,,,,,,,382.8569999880856,,response,,,,100,,,,,,,Space,keypress(Space),,,,,,,,-- --- ---- --- ------ ----- ------- ---- -- --- ------- --<br>------- ---------- ------ -- ----- -- ----- -- ---- ------<br>--- ----- --- --- ------ -------- ----- --- ------ ----- --<br>----- ----- ---------- --- the ------ ------ ---- -- ------<br>------- --- ------ ----- --- ---- ------- -- ---- --- --<br>------- ------,290531.6999999881,290529.1999999881,290129.669,290139.7999999523,290146.343,290546.519,,37,the
screen,html.Screen,2_1_1_1_38,2022-02-03T13:10:55.016Z,,,,,,,,,,,,,,,,,54,,,,,,,,,,,,,,422.68099998810794,,response,,,,100,,,,,,,Space,keypress(Space),,,,,,,,-- --- ---- --- ------ ----- ------- ---- -- --- ------- --<br>------- ---------- ------ -- ----- -- ----- -- ---- ------<br>--- ----- --- --- ------ -------- ----- --- ------ ----- --<br>----- ----- ---------- --- --- market ------ ---- -- ------<br>------- --- ------ ----- --- ---- ------- -- ---- --- --<br>------- ------,290971.6999999881,290969.1999999881,290529.845,290531.7999999523,290546.519,290980.043,,38,market
screen,html.Screen,2_1_1_1_39,2022-02-03T13:10:55.456Z,,,,,,,,,,,,,,,,,54,,,,,,,,,,,,,,429.15699998807395,,response,,,,100,,,,,,,Space,keypress(Space),,,,,,,,-- --- ---- --- ------ ----- ------- ---- -- --- ------- --<br>------- ---------- ------ -- ----- -- ----- -- ---- ------<br>--- ----- --- --- ------ -------- ----- --- ------ ----- --<br>----- ----- ---------- --- --- ------ became ---- -- ------<br>------- --- ------ ----- --- ---- ------- -- ---- --- --<br>------- ------,291411.59999996424,291409.1999999881,290963.369,290971.7999999523,290980.043,291413.567,,39,became
screen,html.Screen,2_1_1_1_40,2022-02-03T13:10:55.888Z,,,,,,,,,,,,,,,,,54,,,,,,,,,,,,,,427.63299998809816,,response,,,,100,,,,,,,Space,keypress(Space),,,,,,,,-- --- ---- --- ------ ----- ------- ---- -- --- ------- --<br>------- ---------- ------ -- ----- -- ----- -- ---- ------<br>--- ----- --- --- ------ -------- ----- --- ------ ----- --<br>----- ----- ---------- --- --- ------ ------ wary -- ------<br>------- --- ------ ----- --- ---- ------- -- ---- --- --<br>------- ------,291843.59999996424,291841.1999999881,291396.893,291411.7999999523,291413.567,291847.091,,40,wary
screen,html.Screen,2_1_1_1_41,2022-02-03T13:10:56.224Z,,,,,,,,,,,,,,,,,54,,,,,,,,,,,,,,330.2089999523014,,response,,,,100,,,,,,,Space,keypress(Space),,,,,,,,-- --- ---- --- ------ ----- ------- ---- -- --- ------- --<br>------- ---------- ------ -- ----- -- ----- -- ---- ------<br>--- ----- --- --- ------ -------- ----- --- ------ ----- --<br>----- ----- ---------- --- --- ------ ------ ---- of ------<br>------- --- ------ ----- --- ---- ------- -- ---- --- --<br>------- ------,292179.7999999523,292177.2999999523,291830.417,291843.7999999523,291847.091,292193.849,,41,of
screen,html.Screen,2_1_1_1_42,2022-02-03T13:10:56.689Z,,,,,,,,,,,,,,,,,54,,,,,,,,,,,,,,447.45099995232886,,response,,,,100,,,,,,,Space,keypress(Space),,,,,,,,-- --- ---- --- ------ ----- ------- ---- -- --- ------- --<br>------- ---------- ------ -- ----- -- ----- -- ---- ------<br>--- ----- --- --- ------ -------- ----- --- ------ ----- --<br>----- ----- ---------- --- --- ------ ------ ---- -- French<br>------- --- ------ ----- --- ---- ------- -- ---- --- --<br>------- ------,292643.7999999523,292641.2999999523,292177.175,292179.89999997616,292193.849,292660.721,,42,French
screen,html.Screen,2_1_1_1_43,2022-02-03T13:10:57.048Z,,,,,,,,,,,,,,,,,54,,,,,,,,,,,,,,340.4789999880595,,response,,,,100,,,,,,,Space,keypress(Space),,,,,,,,-- --- ---- --- ------ ----- ------- ---- -- --- ------- --<br>------- ---------- ------ -- ----- -- ----- -- ---- ------<br>--- ----- --- --- ------ -------- ----- --- ------ ----- --<br>----- ----- ---------- --- --- ------ ------ ---- -- ------<br>credit. --- ------ ----- --- ---- ------- -- ---- --- --<br>------- ------,293003.5,293001.1999999881,292644.047,292644,292660.721,293010.875,,43,credit.
screen,html.Screen,2_1_1_1_44,2022-02-03T13:10:57.521Z,,,,,,,,,,,,,,,,,54,,,,,,,,,,,,,,462.32499998807907,,response,,,,100,,,,,,,Space,keypress(Space),,,,,,,,-- --- ---- --- ------ ----- ------- ---- -- --- ------- --<br>------- ---------- ------ -- ----- -- ----- -- ---- ------<br>--- ----- --- --- ------ -------- ----- --- ------ ----- --<br>----- ----- ---------- --- --- ------ ------ ---- -- ------<br>------- The ------ ----- --- ---- ------- -- ---- --- --<br>------- ------,293475.89999997616,293473.1999999881,292994.201,293003.59999996424,293010.875,293477.747,,44,The
screen,html.Screen,2_1_1_1_45,2022-02-03T13:10:57.984Z,,,,,,,,,,,,,,,,,54,,,,,,,,,,,,,,459.55299995234236,,response,,,,100,,,,,,,Space,keypress(Space),,,,,,,,-- --- ---- --- ------ ----- ------- ---- -- --- ------- --<br>------- ---------- ------ -- ----- -- ----- -- ---- ------<br>--- ----- --- --- ------ -------- ----- --- ------ ----- --<br>----- ----- ---------- --- --- ------ ------ ---- -- ------<br>------- --- French ----- --- ---- ------- -- ---- --- --<br>------- ------,293939.6999999881,293937.2999999523,293461.073,293476.09999996424,293477.747,293944.619,,45,French
screen,html.Screen,2_1_1_1_46,2022-02-03T13:10:58.488Z,,,,,,,,,,,,,,,,,54,,,,,,,,,,,,,,496.580999988073,,response,,,,100,,,,,,,Space,keypress(Space),,,,,,,,-- --- ---- --- ------ ----- ------- ---- -- --- ------- --<br>------- ---------- ------ -- ----- -- ----- -- ---- ------<br>--- ----- --- --- ------ -------- ----- --- ------ ----- --<br>----- ----- ---------- --- --- ------ ------ ---- -- ------<br>------- --- ------ state --- ---- ------- -- ---- --- --<br>------- ------,294443.59999996424,294441.1999999881,293927.945,293939.89999997616,293944.619,294444.839,,46,state
screen,html.Screen,2_1_1_1_47,2022-02-03T13:10:58.904Z,,,,,,,,,,,,,,,,,54,,,,,,,,,,,,,,412.46099995233817,,response,,,,100,,,,,,,Space,keypress(Space),,,,,,,,-- --- ---- --- ------ ----- ------- ---- -- --- ------- --<br>------- ---------- ------ -- ----- -- ----- -- ---- ------<br>--- ----- --- --- ------ -------- ----- --- ------ ----- --<br>----- ----- ---------- --- --- ------ ------ ---- -- ------<br>------- --- ------ ----- was ---- ------- -- ---- --- --<br>------- ------,294859.6999999881,294857.2999999523,294428.165,294443.6999999881,294444.839,294861.689,,47,was
screen,html.Screen,2_1_1_1_48,2022-02-03T13:10:59.288Z,,,,,,,,,,,,,,,,,54,,,,,,,,,,,,,,379.51099998806603,,response,,,,100,,,,,,,Space,keypress(Space),,,,,,,,-- --- ---- --- ------ ----- ------- ---- -- --- ------- --<br>------- ---------- ------ -- ----- -- ----- -- ---- ------<br>--- ----- --- --- ------ -------- ----- --- ------ ----- --<br>----- ----- ---------- --- --- ------ ------ ---- -- ------<br>------- --- ------ ----- --- left ------- -- ---- --- --<br>------- ------,295243.6999999881,295241.1999999881,294845.015,294859.7999999523,294861.689,295245.191,,48,left
screen,html.Screen,2_1_1_1_49,2022-02-03T13:10:59.688Z,,,,,,,,,,,,,,,,,54,,,,,,,,,,,,,,396.10899995232467,,response,,,,100,,,,,,,Space,keypress(Space),,,,,,,,-- --- ---- --- ------ ----- ------- ---- -- --- ------- --<br>------- ---------- ------ -- ----- -- ----- -- ---- ------<br>--- ----- --- --- ------ -------- ----- --- ------ ----- --<br>----- ----- ---------- --- --- ------ ------ ---- -- ------<br>------- --- ------ ----- --- ---- without -- ---- --- --<br>------- ------,295643.7999999523,295641.2999999523,295228.517,295243.7999999523,295245.191,295645.367,,49,without
screen,html.Screen,2_1_1_1_50,2022-02-03T13:11:00.089Z,,,,,,,,,,,,,,,,,54,,,,,,,,,,,,,,395.8329999880516,,response,,,,100,,,,,,,Space,keypress(Space),,,,,,,,-- --- ---- --- ------ ----- ------- ---- -- --- ------- --<br>------- ---------- ------ -- ----- -- ----- -- ---- ------<br>--- ----- --- --- ------ -------- ----- --- ------ ----- --<br>----- ----- ---------- --- --- ------ ------ ---- -- ------<br>------- --- ------ ----- --- ---- ------- an ---- --- --<br>------- ------,296044.39999997616,296041.1999999881,295628.693,295643.7999999523,295645.367,296045.543,,50,an
screen,html.Screen,2_1_1_1_51,2022-02-03T13:11:00.520Z,,,,,,,,,,,,,,,,,54,,,,,,,,,,,,,,427.5569999642321,,response,,,,100,,,,,,,Space,keypress(Space),,,,,,,,-- --- ---- --- ------ ----- ------- ---- -- --- ------- --<br>------- ---------- ------ -- ----- -- ----- -- ---- ------<br>--- ----- --- --- ------ -------- ----- --- ------ ----- --<br>----- ----- ---------- --- --- ------ ------ ---- -- ------<br>------- --- ------ ----- --- ---- ------- -- easy --- --<br>------- ------,296475.59999996424,296473.09999996424,296028.869,296044.59999996424,296045.543,296479.067,,51,easy
screen,html.Screen,2_1_1_1_52,2022-02-03T13:11:00.872Z,,,,,,,,,,,,,,,,,54,,,,,,,,,,,,,,346.13299998809816,,response,,,,100,,,,,,,Space,keypress(Space),,,,,,,,-- --- ---- --- ------ ----- ------- ---- -- --- ------- --<br>------- ---------- ------ -- ----- -- ----- -- ---- ------<br>--- ----- --- --- ------ -------- ----- --- ------ ----- --<br>----- ----- ---------- --- --- ------ ------ ---- -- ------<br>------- --- ------ ----- --- ---- ------- -- ---- way --<br>------- ------,296827.59999996424,296825.1999999881,296462.393,296475.6999999881,296479.067,296829.221,,52,way
screen,html.Screen,2_1_1_1_53,2022-02-03T13:11:01.217Z,,,,,,,,,,,,,,,,,54,,,,,,,,,,,,,,339.9789999880595,,response,,,,100,,,,,,,Space,keypress(Space),,,,,,,,-- --- ---- --- ------ ----- ------- ---- -- --- ------- --<br>------- ---------- ------ -- ----- -- ----- -- ---- ------<br>--- ----- --- --- ------ -------- ----- --- ------ ----- --<br>----- ----- ---------- --- --- ------ ------ ---- -- ------<br>------- --- ------ ----- --- ---- ------- -- ---- --- of<br>------- ------,297171.7999999523,297169.1999999881,296812.547,296827.7999999523,296829.221,297179.375,,53,of
screen,html.Screen,2_1_1_1_54,2022-02-03T13:11:01.568Z,,,,,,,,,,,,,,,,,54,,,,,,,,,,,,,,341.82499998807907,,response,,,,100,,,,,,,Space,keypress(Space),,,,,,,,-- --- ---- --- ------ ----- ------- ---- -- --- ------- --<br>------- ---------- ------ -- ----- -- ----- -- ---- ------<br>--- ----- --- --- ------ -------- ----- --- ------ ----- --<br>----- ----- ---------- --- --- ------ ------ ---- -- ------<br>------- --- ------ ----- --- ---- ------- -- ---- --- --<br>raising ------,297523.59999996424,297521.1999999881,297162.701,297171.89999997616,297179.375,297529.529,,54,raising
screen,html.Screen,2_1_1_1_55,2022-02-03T13:11:02.169Z,,,,,,,,,,,,,,,,,54,,,,,,,,,,,,,,591.6709999880986,,response,,,,100,,,,,,,Space,keypress(Space),,,,,,,,-- --- ---- --- ------ ----- ------- ---- -- --- ------- --<br>------- ---------- ------ -- ----- -- ----- -- ---- ------<br>--- ----- --- --- ------ -------- ----- --- ------ ----- --<br>----- ----- ---------- --- --- ------ ------ ---- -- ------<br>------- --- ------ ----- --- ---- ------- -- ---- --- --<br>------- money.,298123.6999999881,298121.1999999881,297512.855,297523.6999999881,297529.529,298129.793,,55,money.
Item 100,flow.Loop,2_1_1_1,2022-02-03T13:11:02.169Z,,,,,,,,,,,,,,,,,,,,,,,,,,,,,,,26089.33499998809,,completion,,,,,F,,,,,,,,,,,silence,,,,,298124,298121.1999999881,272015.191,272016.7999999523,272031.865,298129.793,,,
Question 1,html.Screen,2_1_1_2,2022-02-03T13:11:04.795Z,,,,,,,,,,,,,,,,,,,,,,,,,,,,true,TRUE,,2618.606999976153,,response,,,,100,F,,,,,,TRUE,click #choice-1,,,,silence,,,,,300750.2999999523,300748.39999997616,298113.119,298124,298129.793,300764.285,,,
Question 2,html.Screen,2_1_1_3,2022-02-03T13:11:07.053Z,,,,,,,,,,,,,,,,,,,,,,,,,,,,true,FALSE,,2242.1149999761838,,response,,,,100,F,,,,,,FALSE,click #choice-2,,,,silence,,,,,303008.39999997616,303006.39999997616,300747.611,300750.5,300764.285,303019.052,,,
Item 100,flow.Sequence,2_1_1,2022-02-03T13:11:07.054Z,,,,,,,,,,,,,,,,,,,,,,,,,,,,,,,40978.93499997616,,completion,,,,,,,,,,,,,,,,,,,,,303008.59999996424,303006.39999997616,262010.791,262002.69999998808,262027.465,303019.052,,,
End of Practice,html.Page,2_1_2,2022-02-03T13:11:12.079Z,,,,,,,,,,,,,,,,,,,,,,,,,,,,,,,5014.847999976133,,form submission,,,,,,,,,,,,,,,,,,,,,308034.09999996424,308033.89999997616,303002.378,303008.6999999881,303019.052,308054.6,,,
Practice,flow.Sequence,2_1,2022-02-03T13:11:12.079Z,,,,,,,,,,,,,,,,,,,,,,,,,,,,,,,89041.15599997615,,completion,,,,,,,,,,,,,,,,,,,,,308034.1999999881,308033.89999997616,218976.07,218986,218992.744,308054.6,,,
Trap_instruction,html.Page,2_2_0,2022-02-03T13:11:16.158Z,,,,,,,,,,,,,,,,,,,,,,,,,,,,,,,4057.9999999642605,,form submission,,,,,,,,,,,,,,,,,,,,,312112.89999997616,312112.59999996424,308037.926,308034.2999999523,308054.6,312156.404,,,
trap_trial,html.Screen,2_2_1,2022-02-03T13:11:19.192Z,,,,,,,,,,,,,,,,,,,,,,,,,,,,true,1,,2987.7959999880986,,response,,,,,,,,,,,1,click #choice-1,,,,,,,,,315146.2999999523,315144.1999999881,312106.382,312113,312156.404,315168.845,,,
end of trap trial,html.Page,2_2_2,2022-02-03T13:11:21.048Z,,,,,,,,,,,,,,,,,,,,,,,,,,,,,,,1833.854999988107,,form submission,,,,,,,,,,,,,,,,,,,,,317003,317002.6999999881,315152.171,315146.5,315168.845,317019.659,,,
Trap 1,flow.Sequence,2_2,2022-02-03T13:11:21.049Z,,,,,,,,,,,,,,,,,,,,,,,,,,,,,,,8948.099999988102,,completion,,,,,,,,,,,,,,,,,,,,,317003.2999999523,317002.6999999881,308037.926,308034.2999999523,308054.6,317019.659,,,
Standby,html.Page,2_3_0,2022-02-03T13:11:29.054Z,,,,,,,,,,,,,,,,,,,,,,,,,,,,,,,8003.520000000019,,timeout,,,,,,,,,,,,,,,,,,,,,325008.89999997616,325006.505,317002.985,317003.5,317019.659,325023.179,,,
Holding screen,html.Screen,2_3_1_0_0,2022-02-03T13:11:36.053Z,,,,,,,,,,,,,,,,,,,,,,,,,,,,,,,6999.536000000022,,timeout,,,,,,,,,,,,,,,,,,,,,332007.1999999881,332006.041,325006.505,325009,325023.179,332022.715,,,
screen,html.Screen,2_3_1_0_1_0,2022-02-03T13:11:36.934Z,,,,,,,,,,,,,,,,,2,,,,,,,,,,,,,,862.2849999999744,,response,,,,1,F,,,,,,Space,keypress(Space),,,,instrumental,,,,Two ---- ------ --- ------- ---------- ------- ----------<br>--- --------- --- ----------- ------- ----- ------- ---<br>--------- ---- -- --- ---- -- --------- -- ---- -------<br>-- --------- ------ --- ----- ------ ---- --- --------- --<br>------ - ---- -- --- ----------- ------- ---- ----- -----<br>--- -------- - ------ ---- -- ----- ---- --- --- -----------<br>-- -------,332887.7999999523,332885,332006.041,332007.39999997616,332022.715,332889.763,,0,Two
screen,html.Screen,2_3_1_0_1_1,2022-02-03T13:11:37.405Z,,,,,,,,,,,,,,,,,2,,,,,,,,,,,,,,467.33699996426003,,response,,,,1,F,,,,,,Space,keypress(Space),,,,instrumental,,,,--- days ------ --- ------- ---------- ------- ----------<br>--- --------- --- ----------- ------- ----- ------- ---<br>--------- ---- -- --- ---- -- --------- -- ---- -------<br>-- --------- ------ --- ----- ------ ---- --- --------- --<br>------ - ---- -- --- ----------- ------- ---- ----- -----<br>--- -------- - ------ ---- -- ----- ---- --- --- -----------<br>-- -------,333359.59999996424,333357.09999996424,332873.089,332887.89999997616,332889.763,333373.309,,1,days
screen,html.Screen,2_3_1_0_1_2,2022-02-03T13:11:37.869Z,,,,,,,,,,,,,,,,,2,,,,,,,,,,,,,,447.6909999999916,,response,,,,1,F,,,,,,Space,keypress(Space),,,,instrumental,,,,"--- ---- later, --- ------- ---------- ------- ----------<br>--- --------- --- ----------- ------- ----- ------- ---<br>--------- ---- -- --- ---- -- --------- -- ---- -------<br>-- --------- ------ --- ----- ------ ---- --- --------- --<br>------ - ---- -- --- ----------- ------- ---- ----- -----<br>--- -------- - ------ ---- -- ----- ---- --- --- -----------<br>-- -------",333823.59999996424,333821,333356.635,333359.6999999881,333373.309,333840.181,,2,"later,"
screen,html.Screen,2_3_1_0_1_3,2022-02-03T13:11:38.278Z,,,,,,,,,,,,,,,,,2,,,,,,,,,,,,,,388.9189999642549,,response,,,,1,F,,,,,,Space,keypress(Space),,,,instrumental,,,,--- ---- ------ the ------- ---------- ------- ----------<br>--- --------- --- ----------- ------- ----- ------- ---<br>--------- ---- -- --- ---- -- --------- -- ---- -------<br>-- --------- ------ --- ----- ------ ---- --- --------- --<br>------ - ---- -- --- ----------- ------- ---- ----- -----<br>--- -------- - ------ ---- -- ----- ---- --- --- -----------<br>-- -------,334231.7999999523,334229.09999996424,333823.507,333823.6999999881,333840.181,334240.357,,3,the
screen,html.Screen,2_3_1_0_1_4,2022-02-03T13:11:38.709Z,,,,,,,,,,,,,,,,,2,,,,,,,,,,,,,,420.64299999998184,,response,,,,1,F,,,,,,Space,keypress(Space),,,,instrumental,,,,--- ---- ------ --- British ---------- ------- ----------<br>--- --------- --- ----------- ------- ----- ------- ---<br>--------- ---- -- --- ---- -- --------- -- ---- -------<br>-- --------- ------ --- ----- ------ ---- --- --------- --<br>------ - ---- -- --- ----------- ------- ---- ----- -----<br>--- -------- - ------ ---- -- ----- ---- --- --- -----------<br>-- -------,334663.39999997616,334661,334223.683,334231.89999997616,334240.357,334673.881,,4,British
screen,html.Screen,2_3_1_0_1_5,2022-02-03T13:11:39.221Z,,,,,,,,,,,,,,,,,2,,,,,,,,,,,,,,499.21899996424327,,response,,,,1,F,,,,,,Space,keypress(Space),,,,instrumental,,,,--- ---- ------ --- ------- astronomer ------- ----------<br>--- --------- --- ----------- ------- ----- ------- ---<br>--------- ---- -- --- ---- -- --------- -- ---- -------<br>-- --------- ------ --- ----- ------ ---- --- --------- --<br>------ - ---- -- --- ----------- ------- ---- ----- -----<br>--- -------- - ------ ---- -- ----- ---- --- --- -----------<br>-- -------,335175.5,335173.09999996424,334657.207,334663.59999996424,334673.881,335190.775,,5,astronomer
screen,html.Screen,2_3_1_0_1_6,2022-02-03T13:11:39.717Z,,,,,,,,,,,,,,,,,2,,,,,,,,,,,,,,478.2249999999767,,response,,,,1,F,,,,,,Space,keypress(Space),,,,instrumental,,,,--- ---- ------ --- ------- ---------- Richard ----------<br>--- --------- --- ----------- ------- ----- ------- ---<br>--------- ---- -- --- ---- -- --------- -- ---- -------<br>-- --------- ------ --- ----- ------ ---- --- --------- --<br>------ - ---- -- --- ----------- ------- ---- ----- -----<br>--- -------- - ------ ---- -- ----- ---- --- --- -----------<br>-- -------,335671.59999996424,335669,335174.101,335175.89999997616,335190.775,335674.321,,6,Richard
screen,html.Screen,2_3_1_0_1_7,2022-02-03T13:11:40.093Z,,,,,,,,,,,,,,,,,2,,,,,,,,,,,,,,370.6790000000037,,response,,,,1,F,,,,,,Space,keypress(Space),,,,instrumental,,,,--- ---- ------ --- ------- ---------- ------- Carrington<br>--- --------- --- ----------- ------- ----- ------- ---<br>--------- ---- -- --- ---- -- --------- -- ---- -------<br>-- --------- ------ --- ----- ------ ---- --- --------- --<br>------ - ---- -- --- ----------- ------- ---- ----- -----<br>--- -------- - ------ ---- -- ----- ---- --- --- -----------<br>-- -------,336047.59999996424,336045,335657.647,335671.6999999881,335674.321,336048.522,,7,Carrington
screen,html.Screen,2_3_1_0_1_8,2022-02-03T13:11:40.557Z,,,,,,,,,,,,,,,,,2,,,,,,,,,,,,,,460.4780000000028,,response,,,,1,F,,,,,,Space,keypress(Space),,,,instrumental,,,,--- ---- ------ --- ------- ---------- ------- ----------<br>was --------- --- ----------- ------- ----- ------- ---<br>--------- ---- -- --- ---- -- --------- -- ---- -------<br>-- --------- ------ --- ----- ------ ---- --- --------- --<br>------ - ---- -- --- ----------- ------- ---- ----- -----<br>--- -------- - ------ ---- -- ----- ---- --- --- -----------<br>-- -------,336511.39999997616,336509,336031.848,336047.7999999523,336048.522,336515.394,,8,was
screen,html.Screen,2_3_1_0_1_9,2022-02-03T13:11:40.997Z,,,,,,,,,,,,,,,,,2,,,,,,,,,,,,,,433.7059999642661,,response,,,,1,F,,,,,,Space,keypress(Space),,,,instrumental,,,,--- ---- ------ --- ------- ---------- ------- ----------<br>--- observing --- ----------- ------- ----- ------- ---<br>--------- ---- -- --- ---- -- --------- -- ---- -------<br>-- --------- ------ --- ----- ------ ---- --- --------- --<br>------ - ---- -- --- ----------- ------- ---- ----- -----<br>--- -------- - ------ ---- -- ----- ---- --- --- -----------<br>-- -------,336951.39999997616,336949.09999996424,336498.72,336511.39999997616,336515.394,336965.592,,9,observing
screen,html.Screen,2_3_1_0_1_10,2022-02-03T13:11:41.517Z,,,,,,,,,,,,,,,,,2,,,,,,,,,,,,,,503.4079999999958,,response,,,,1,F,,,,,,Space,keypress(Space),,,,instrumental,,,,--- ---- ------ --- ------- ---------- ------- ----------<br>--- --------- the ----------- ------- ----- ------- ---<br>--------- ---- -- --- ---- -- --------- -- ---- -------<br>-- --------- ------ --- ----- ------ ---- --- --------- --<br>------ - ---- -- --- ----------- ------- ---- ----- -----<br>--- -------- - ------ ---- -- ----- ---- --- --- -----------<br>-- -------,337471.39999997616,337469,336948.918,336951.5,336965.592,337482.486,,10,the
screen,html.Screen,2_3_1_0_1_11,2022-02-03T13:11:41.934Z,,,,,,,,,,,,,,,,,2,,,,,,,,,,,,,,402.5140000000247,,response,,,,1,F,,,,,,Space,keypress(Space),,,,instrumental,,,,--- ---- ------ --- ------- ---------- ------- ----------<br>--- --------- --- interesting ------- ----- ------- ---<br>--------- ---- -- --- ---- -- --------- -- ---- -------<br>-- --------- ------ --- ----- ------ ---- --- --------- --<br>------ - ---- -- --- ----------- ------- ---- ----- -----<br>--- -------- - ------ ---- -- ----- ---- --- --- -----------<br>-- -------,337887.6999999881,337885,337465.812,337471.59999996424,337482.486,337899.336,,11,interesting
screen,html.Screen,2_3_1_0_1_12,2022-02-03T13:11:42.477Z,,,,,,,,,,,,,,,,,2,,,,,,,,,,,,,,529.6639999999898,,response,,,,1,F,,,,,,Space,keypress(Space),,,,instrumental,,,,--- ---- ------ --- ------- ---------- ------- ----------<br>--- --------- --- ----------- sunspot ----- ------- ---<br>--------- ---- -- --- ---- -- --------- -- ---- -------<br>-- --------- ------ --- ----- ------ ---- --- --------- --<br>------ - ---- -- --- ----------- ------- ---- ----- -----<br>--- -------- - ------ ---- -- ----- ---- --- --- -----------<br>-- -------,338431.5,338429,337882.662,337887.89999997616,337899.336,338432.904,,12,sunspot
screen,html.Screen,2_3_1_0_1_13,2022-02-03T13:11:42.918Z,,,,,,,,,,,,,,,,,2,,,,,,,,,,,,,,436.19599996425677,,response,,,,1,F,,,,,,Space,keypress(Space),,,,instrumental,,,,--- ---- ------ --- ------- ---------- ------- ----------<br>--- --------- --- ----------- ------- group ------- ---<br>--------- ---- -- --- ---- -- --------- -- ---- -------<br>-- --------- ------ --- ----- ------ ---- --- --------- --<br>------ - ---- -- --- ----------- ------- ---- ----- -----<br>--- -------- - ------ ---- -- ----- ---- --- --- -----------<br>-- -------,338871.59999996424,338869.09999996424,338416.23,338431.59999996424,338432.904,338883.102,,13,group
screen,html.Screen,2_3_1_0_1_14,2022-02-03T13:11:43.374Z,,,,,,,,,,,,,,,,,2,,,,,,,,,,,,,,441.8979999999865,,response,,,,1,F,,,,,,Space,keypress(Space),,,,instrumental,,,,--- ---- ------ --- ------- ---------- ------- ----------<br>--- --------- --- ----------- ------- ----- through ---<br>--------- ---- -- --- ---- -- --------- -- ---- -------<br>-- --------- ------ --- ----- ------ ---- --- --------- --<br>------ - ---- -- --- ----------- ------- ---- ----- -----<br>--- -------- - ------ ---- -- ----- ---- --- --- -----------<br>-- -------,339327.6999999881,339325,338866.428,338871.6999999881,338883.102,339333.3,,14,through
screen,html.Screen,2_3_1_0_1_15,2022-02-03T13:11:43.813Z,,,,,,,,,,,,,,,,,2,,,,,,,,,,,,,,431.70000000001164,,response,,,,1,F,,,,,,Space,keypress(Space),,,,instrumental,,,,--- ---- ------ --- ------- ---------- ------- ----------<br>--- --------- --- ----------- ------- ----- ------- his<br>--------- ---- -- --- ---- -- --------- -- ---- -------<br>-- --------- ------ --- ----- ------ ---- --- --------- --<br>------ - ---- -- --- ----------- ------- ---- ----- -----<br>--- -------- - ------ ---- -- ----- ---- --- --- -----------<br>-- -------,339767.39999997616,339765,339316.626,339327.7999999523,339333.3,339783.498,,15,his
screen,html.Screen,2_3_1_0_1_16,2022-02-03T13:11:44.437Z,,,,,,,,,,,,,,,,,2,,,,,,,,,,,,,,605.4019999761367,,response,,,,1,F,,,,,,Space,keypress(Space),,,,instrumental,,,,--- ---- ------ --- ------- ---------- ------- ----------<br>--- --------- --- ----------- ------- ----- ------- ---<br>telescope ---- -- --- ---- -- --------- -- ---- -------<br>-- --------- ------ --- ----- ------ ---- --- --------- --<br>------ - ---- -- --- ----------- ------- ---- ----- -----<br>--- -------- - ------ ---- -- ----- ---- --- --- -----------<br>-- -------,340391,340388.89999997616,339766.824,339767.59999996424,339783.498,340400.436,,16,telescope
screen,html.Screen,2_3_1_0_1_17,2022-02-03T13:11:44.925Z,,,,,,,,,,,,,,,,,2,,,,,,,,,,,,,,476.56400000001304,,response,,,,1,F,,,,,,Space,keypress(Space),,,,instrumental,,,,--- ---- ------ --- ------- ---------- ------- ----------<br>--- --------- --- ----------- ------- ----- ------- ---<br>--------- when -- --- ---- -- --------- -- ---- -------<br>-- --------- ------ --- ----- ------ ---- --- --------- --<br>------ - ---- -- --- ----------- ------- ---- ----- -----<br>--- -------- - ------ ---- -- ----- ---- --- --- -----------<br>-- -------,340879.5,340877,340383.762,340391.2999999523,340400.436,340883.982,,17,when
screen,html.Screen,2_3_1_0_1_18,2022-02-03T13:11:45.358Z,,,,,,,,,,,,,,,,,2,,,,,,,,,,,,,,425.01799999998184,,response,,,,1,F,,,,,,Space,keypress(Space),,,,instrumental,,,,--- ---- ------ --- ------- ---------- ------- ----------<br>--- --------- --- ----------- ------- ----- ------- ---<br>--------- ---- he --- ---- -- --------- -- ---- -------<br>-- --------- ------ --- ----- ------ ---- --- --------- --<br>------ - ---- -- --- ----------- ------- ---- ----- -----<br>--- -------- - ------ ---- -- ----- ---- --- --- -----------<br>-- -------,341311.5,341309,340867.308,340879.5,340883.982,341317.506,,18,he
screen,html.Screen,2_3_1_0_1_19,2022-02-03T13:11:45.710Z,,,,,,,,,,,,,,,,,2,,,,,,,,,,,,,,343.49400000000605,,response,,,,1,F,,,,,,Space,keypress(Space),,,,instrumental,,,,--- ---- ------ --- ------- ---------- ------- ----------<br>--- --------- --- ----------- ------- ----- ------- ---<br>--------- ---- -- saw ---- -- --------- -- ---- -------<br>-- --------- ------ --- ----- ------ ---- --- --------- --<br>------ - ---- -- --- ----------- ------- ---- ----- -----<br>--- -------- - ------ ---- -- ----- ---- --- --- -----------<br>-- -------,341663.59999996424,341661,341300.832,341311.7999999523,341317.506,341667.66,,19,saw
screen,html.Screen,2_3_1_0_1_20,2022-02-03T13:11:46.109Z,,,,,,,,,,,,,,,,,2,,,,,,,,,,,,,,393.3400000000256,,response,,,,1,F,,,,,,Space,keypress(Space),,,,instrumental,,,,--- ---- ------ --- ------- ---------- ------- ----------<br>--- --------- --- ----------- ------- ----- ------- ---<br>--------- ---- -- --- what -- --------- -- ---- -------<br>-- --------- ------ --- ----- ------ ---- --- --------- --<br>------ - ---- -- --- ----------- ------- ---- ----- -----<br>--- -------- - ------ ---- -- ----- ---- --- --- -----------<br>-- -------,342063.39999997616,342061,341650.986,341663.89999997616,341667.66,342067.836,,20,what
screen,html.Screen,2_3_1_0_1_21,2022-02-03T13:11:46.709Z,,,,,,,,,,,,,,,,,2,,,,,,,,,,,,,,593.263999964227,,response,,,,1,F,,,,,,Space,keypress(Space),,,,instrumental,,,,--- ---- ------ --- ------- ---------- ------- ----------<br>--- --------- --- ----------- ------- ----- ------- ---<br>--------- ---- -- --- ---- he --------- -- ---- -------<br>-- --------- ------ --- ----- ------ ---- --- --------- --<br>------ - ---- -- --- ----------- ------- ---- ----- -----<br>--- -------- - ------ ---- -- ----- ---- --- --- -----------<br>-- -------,342663.39999997616,342661.09999996424,342051.162,342063.5,342067.836,342668.1,,21,he
screen,html.Screen,2_3_1_0_1_22,2022-02-03T13:11:47.126Z,,,,,,,,,,,,,,,,,2,,,,,,,,,,,,,,408.7999999761814,,response,,,,1,F,,,,,,Space,keypress(Space),,,,instrumental,,,,--- ---- ------ --- ------- ---------- ------- ----------<br>--- --------- --- ----------- ------- ----- ------- ---<br>--------- ---- -- --- ---- -- described -- ---- -------<br>-- --------- ------ --- ----- ------ ---- --- --------- --<br>------ - ---- -- --- ----------- ------- ---- ----- -----<br>--- -------- - ------ ---- -- ----- ---- --- --- -----------<br>-- -------,343079.6999999881,343076.89999997616,342651.426,342663.59999996424,342668.1,343084.95,,22,described
screen,html.Screen,2_3_1_0_1_23,2022-02-03T13:11:47.542Z,,,,,,,,,,,,,,,,,2,,,,,,,,,,,,,,408.1499999642256,,response,,,,1,F,,,,,,Space,keypress(Space),,,,instrumental,,,,--- ---- ------ --- ------- ---------- ------- ----------<br>--- --------- --- ----------- ------- ----- ------- ---<br>--------- ---- -- --- ---- -- --------- as ---- -------<br>-- --------- ------ --- ----- ------ ---- --- --------- --<br>------ - ---- -- --- ----------- ------- ---- ----- -----<br>--- -------- - ------ ---- -- ----- ---- --- --- -----------<br>-- -------,343495.59999996424,343493.09999996424,343068.276,343079.7999999523,343084.95,343501.8,,23,as
screen,html.Screen,2_3_1_0_1_24,2022-02-03T13:11:48.013Z,,,,,,,,,,,,,,,,,2,,,,,,,,,,,,,,463.20000000001164,,response,,,,1,F,,,,,,Space,keypress(Space),,,,instrumental,,,,"--- ---- ------ --- ------- ---------- ------- ----------<br>--- --------- --- ----------- ------- ----- ------- ---<br>--------- ---- -- --- ---- -- --------- -- ""two -------<br>-- --------- ------ --- ----- ------ ---- --- --------- --<br>------ - ---- -- --- ----------- ------- ---- ----- -----<br>--- -------- - ------ ---- -- ----- ---- --- --- -----------<br>-- -------",343967.39999997616,343965,343485.126,343495.6999999881,343501.8,343968.672,,24,"""two"
screen,html.Screen,2_3_1_0_1_25,2022-02-03T13:11:48.398Z,,,,,,,,,,,,,,,,,2,,,,,,,,,,,,,,380.3279999999795,,response,,,,1,F,,,,,,Space,keypress(Space),,,,instrumental,,,,--- ---- ------ --- ------- ---------- ------- ----------<br>--- --------- --- ----------- ------- ----- ------- ---<br>--------- ---- -- --- ---- -- --------- -- ---- patches<br>-- --------- ------ --- ----- ------ ---- --- --------- --<br>------ - ---- -- --- ----------- ------- ---- ----- -----<br>--- -------- - ------ ---- -- ----- ---- --- --- -----------<br>-- -------,344351.5,344349,343951.998,343967.39999997616,343968.672,344368.848,,25,patches
screen,html.Screen,2_3_1_0_1_26,2022-02-03T13:11:48.814Z,,,,,,,,,,,,,,,,,2,,,,,,,,,,,,,,396.2519999642391,,response,,,,1,F,,,,,,Space,keypress(Space),,,,instrumental,,,,--- ---- ------ --- ------- ---------- ------- ----------<br>--- --------- --- ----------- ------- ----- ------- ---<br>--------- ---- -- --- ---- -- --------- -- ---- -------<br>of --------- ------ --- ----- ------ ---- --- --------- --<br>------ - ---- -- --- ----------- ------- ---- ----- -----<br>--- -------- - ------ ---- -- ----- ---- --- --- -----------<br>-- -------,344767.59999996424,344765.09999996424,344352.174,344351.59999996424,344368.848,344769.024,,26,of
screen,html.Screen,2_3_1_0_1_27,2022-02-03T13:11:49.197Z,,,,,,,,,,,,,,,,,2,,,,,,,,,,,,,,379.87599997618236,,response,,,,1,F,,,,,,Space,keypress(Space),,,,instrumental,,,,--- ---- ------ --- ------- ---------- ------- ----------<br>--- --------- --- ----------- ------- ----- ------- ---<br>--------- ---- -- --- ---- -- --------- -- ---- -------<br>-- intensely ------ --- ----- ------ ---- --- --------- --<br>------ - ---- -- --- ----------- ------- ---- ----- -----<br>--- -------- - ------ ---- -- ----- ---- --- --- -----------<br>-- -------,345151.2999999523,345148.89999997616,344752.35,344767.6999999881,344769.024,345152.526,,27,intensely
screen,html.Screen,2_3_1_0_1_28,2022-02-03T13:11:49.550Z,,,,,,,,,,,,,,,,,2,,,,,,,,,,,,,,348.4739999999874,,response,,,,1,F,,,,,,Space,keypress(Space),,,,instrumental,,,,--- ---- ------ --- ------- ---------- ------- ----------<br>--- --------- --- ----------- ------- ----- ------- ---<br>--------- ---- -- --- ---- -- --------- -- ---- -------<br>-- --------- bright --- ----- ------ ---- --- --------- --<br>------ - ---- -- --- ----------- ------- ---- ----- -----<br>--- -------- - ------ ---- -- ----- ---- --- --- -----------<br>-- -------,345503.5,345501,345135.852,345151.5,345152.526,345519.354,,28,bright
screen,html.Screen,2_3_1_0_1_29,2022-02-03T13:11:51.246Z,,,,,,,,,,,,,,,,,2,,,,,,,,,,,,,,1677.646000000008,,response,,,,1,F,,,,,,Space,keypress(Space),,,,instrumental,,,,--- ---- ------ --- ------- ---------- ------- ----------<br>--- --------- --- ----------- ------- ----- ------- ---<br>--------- ---- -- --- ---- -- --------- -- ---- -------<br>-- --------- ------ and ----- ------ ---- --- --------- --<br>------ - ---- -- --- ----------- ------- ---- ----- -----<br>--- -------- - ------ ---- -- ----- ---- --- --- -----------<br>-- -------,347199.59999996424,347197,345502.68,345503.6999999881,345519.354,347203.428,,29,and
screen,html.Screen,2_3_1_0_1_30,2022-02-03T13:11:51.574Z,,,,,,,,,,,,,,,,,2,,,,,,,,,,,,,,321.57199999998556,,response,,,,1,F,,,,,,Space,keypress(Space),,,,instrumental,,,,--- ---- ------ --- ------- ---------- ------- ----------<br>--- --------- --- ----------- ------- ----- ------- ---<br>--------- ---- -- --- ---- -- --------- -- ---- -------<br>-- --------- ------ --- white ------ ---- --- --------- --<br>------ - ---- -- --- ----------- ------- ---- ----- -----<br>--- -------- - ------ ---- -- ----- ---- --- --- -----------<br>-- -------,347527.39999997616,347525,347186.754,347199.59999996424,347203.428,347530.294,,30,white
screen,html.Screen,2_3_1_0_1_31,2022-02-03T13:11:51.950Z,,,,,,,,,,,,,,,,,2,,,,,,,,,,,,,,370.7060000000056,,response,,,,1,F,,,,,,Space,keypress(Space),,,,instrumental,,,,"--- ---- ------ --- ------- ---------- ------- ----------<br>--- --------- --- ----------- ------- ----- ------- ---<br>--------- ---- -- --- ---- -- --------- -- ---- -------<br>-- --------- ------ --- ----- light"" ---- --- --------- --<br>------ - ---- -- --- ----------- ------- ---- ----- -----<br>--- -------- - ------ ---- -- ----- ---- --- --- -----------<br>-- -------",347903.39999997616,347901,347513.62,347527.5,347530.294,347913.796,,31,"light"""
screen,html.Screen,2_3_1_0_1_32,2022-02-03T13:11:52.566Z,,,,,,,,,,,,,,,,,2,,,,,,,,,,,,,,603.3039999642642,,response,,,,1,F,,,,,,Space,keypress(Space),,,,instrumental,,,,--- ---- ------ --- ------- ---------- ------- ----------<br>--- --------- --- ----------- ------- ----- ------- ---<br>--------- ---- -- --- ---- -- --------- -- ---- -------<br>-- --------- ------ --- ----- ------ over --- --------- --<br>------ - ---- -- --- ----------- ------- ---- ----- -----<br>--- -------- - ------ ---- -- ----- ---- --- --- -----------<br>-- -------,348519.59999996424,348517.09999996424,347897.122,347903.59999996424,347913.796,348530.734,,32,over
screen,html.Screen,2_3_1_0_1_33,2022-02-03T13:11:52.990Z,,,,,,,,,,,,,,,,,2,,,,,,,,,,,,,,410.26600000000326,,response,,,,1,F,,,,,,Space,keypress(Space),,,,instrumental,,,,--- ---- ------ --- ------- ---------- ------- ----------<br>--- --------- --- ----------- ------- ----- ------- ---<br>--------- ---- -- --- ---- -- --------- -- ---- -------<br>-- --------- ------ --- ----- ------ ---- the --------- --<br>------ - ---- -- --- ----------- ------- ---- ----- -----<br>--- -------- - ------ ---- -- ----- ---- --- --- -----------<br>-- -------,348943.39999997616,348941,348514.06,348519.59999996424,348530.734,348947.584,,33,the
screen,html.Screen,2_3_1_0_1_34,2022-02-03T13:11:53.669Z,,,,,,,,,,,,,,,,,2,,,,,,,,,,,,,,673.3159999761847,,response,,,,1,F,,,,,,Space,keypress(Space),,,,instrumental,,,,--- ---- ------ --- ------- ---------- ------- ----------<br>--- --------- --- ----------- ------- ----- ------- ---<br>--------- ---- -- --- ---- -- --------- -- ---- -------<br>-- --------- ------ --- ----- ------ ---- --- sunspots. --<br>------ - ---- -- --- ----------- ------- ---- ----- -----<br>--- -------- - ------ ---- -- ----- ---- --- --- -----------<br>-- -------,349622.7999999523,349620.89999997616,348930.91,348943.5,348947.584,349631.218,,34,sunspots.
screen,html.Screen,2_3_1_0_1_35,2022-02-03T13:11:54.518Z,,,,,,,,,,,,,,,,,2,,,,,,,,,,,,,,837.7820000000065,,response,,,,1,F,,,,,,Space,keypress(Space),,,,instrumental,,,,--- ---- ------ --- ------- ---------- ------- ----------<br>--- --------- --- ----------- ------- ----- ------- ---<br>--------- ---- -- --- ---- -- --------- -- ---- -------<br>-- --------- ------ --- ----- ------ ---- --- --------- He<br>------ - ---- -- --- ----------- ------- ---- ----- -----<br>--- -------- - ------ ---- -- ----- ---- --- --- -----------<br>-- -------,350471.39999997616,350469,349614.544,349622.89999997616,349631.218,350481.592,,35,He
screen,html.Screen,2_3_1_0_1_36,2022-02-03T13:11:55.214Z,,,,,,,,,,,,,,,,,2,,,,,,,,,,,,,,683.4079999999958,,response,,,,1,F,,,,,,Space,keypress(Space),,,,instrumental,,,,--- ---- ------ --- ------- ---------- ------- ----------<br>--- --------- --- ----------- ------- ----- ------- ---<br>--------- ---- -- --- ---- -- --------- -- ---- -------<br>-- --------- ------ --- ----- ------ ---- --- --------- --<br>jotted - ---- -- --- ----------- ------- ---- ----- -----<br>--- -------- - ------ ---- -- ----- ---- --- --- -----------<br>-- -------,351167.39999997616,351165,350464.918,350471.59999996424,350481.592,351181.9,,36,jotted
screen,html.Screen,2_3_1_0_1_37,2022-02-03T13:11:55.670Z,,,,,,,,,,,,,,,,,2,,,,,,,,,,,,,,439.0999999999767,,response,,,,1,F,,,,,,Space,keypress(Space),,,,instrumental,,,,--- ---- ------ --- ------- ---------- ------- ----------<br>--- --------- --- ----------- ------- ----- ------- ---<br>--------- ---- -- --- ---- -- --------- -- ---- -------<br>-- --------- ------ --- ----- ------ ---- --- --------- --<br>------ a ---- -- --- ----------- ------- ---- ----- -----<br>--- -------- - ------ ---- -- ----- ---- --- --- -----------<br>-- -------,351623.6999999881,351621,351165.226,351167.5,351181.9,351632.098,,37,a
