sender,sender_type,sender_id,timestamp,meta,,Blues,Classical,Country,Dance,Electronic,Folk,Gospel,Hip-Hop,Jazz,Latin,Musical/Film,New-age,Pop,Prolific_id,Provo_ID,R&B,Rap,Reggae,Religious,Rock,Soul,Swing,Traditional,age,artist_name,correct,correctResponse,distraction,duration,education,ended_on,familiarity,gender,headphone_check_performance,item,list,music_frequency,offensiveness,pleasantness,position_correct,preference,response,response_action,snippet_file,song_name,song_rating,sound,stimulus_1,stimulus_2,stimulus_3,text,time_commit,time_end,time_render,time_run,time_show,time_switch,url,word,word_ID
Prolific ID,html.Form,0,2022-02-17T10:46:27.874Z,"{""labjs_version"":""20.2.2"",""labjs_build"":{""flavor"":""production"",""commit"":""a25486e0c714a0ae2ce03ff94b7bb6896854dcfa""},""location"":""https://run.pavlovia.org/mvasilev/prolific2_music_c/"",""userAgent"":""Mozilla/5.0 (Windows NT 10.0; Win64; x64) AppleWebKit/537.36 (KHTML, like Gecko) Chrome/98.0.4758.102 Safari/537.36"",""platform"":""Win32"",""language"":""en-US"",""locale"":""en-US"",""timeZone"":""Europe/London"",""timezoneOffset"":0,""screen_width"":1920,""screen_height"":1080,""scroll_width"":1920,""scroll_height"":889,""window_innerWidth"":1920,""window_innerHeight"":937,""devicePixelRatio"":1}",,,,,,,,,,,,,,,611cecb5dbc0658aad64bf2d,,,,,,,,,,,,,,,4265.255999999999,,form submission,,,,,,,,,,,,,,,,,,,,,15277.899999999441,15276,10977.348,10989.399999999441,11010.744,15293.508,{},,
Introduction,html.Screen,1_0,2022-02-17T10:46:36.286Z,,,,,,,,,,,,,,,,,,,,,,,,,,,,,,,8394.591999999628,,response,,,,,,,,,,,continue,click button,,,,,,,,,23690.39999999944,23688.099999999627,15260.193,15278.299999999814,15293.508,23692.533,,,
Volume calibration,html.Screen,1_1,2022-02-17T10:46:54.391Z,,,,,,,,,,,,,,,,,,,,,,,,,,,,,,,18097.467,,response,,,,,,,,,,,continue,click button,,,,,,,,,41793.09999999963,41790,23675.882,23690.599999999627,23692.533,41807.121,,,
Task instructions,html.Screen,1_2,2022-02-17T10:47:06.272Z,,,,,,,,,,,,,,,,,,,,,,,,,,,,,,,11866.978999999628,,response,,,,,,,,,,,continue,click button,,,,,,,,,53674.700000000186,53674.09999999963,41790.463,41793.299999999814,41807.121,53705.75,,,
Sounds,html.Screen,1_3_0_0,2022-02-17T10:47:10.538Z,,,,,,,,,,,,,,,,,,,,,,,,,,,,,,,4249.548999999999,,timeout,,,,,,,,,3,,,,,,,,I,O,S,,57940.89999999944,57938.614,53689.096,53674.89999999944,53705.75,57955.299,,,
Judgement,html.Screen,1_3_0_1,2022-02-17T10:47:11.770Z,,,,,,,,,,,,,,,,,,,,,,,,,,,,false,3,,1216.8009999996284,,response,,,,,,,,,3,,2,click #choice-2,,,,,I,O,S,,59173,59172.09999999963,57938.614,57941,57955.299,59188.46,,,
Trial,flow.Sequence,1_3_0,2022-02-17T10:47:11.771Z,,,,,,,,,,,,,,,,,,,,,,,,,,,,,,,5466.3499999996275,,completion,,,,,,,,,3,,,,,,,,I,O,S,,59173.200000000186,59172.09999999963,53689.096,53674.89999999944,53705.75,59188.46,,,
Sounds,html.Screen,1_3_1_0,2022-02-17T10:47:16.019Z,,,,,,,,,,,,,,,,,,,,,,,,,,,,,,,4249.514000000003,,timeout,,,,,,,,,3,,,,,,,,O,I,S,,63421.89999999944,63421.307,59171.801,59173.700000000186,59188.46,63437.974,,,
Judgement,html.Screen,1_3_1_1,2022-02-17T10:47:17.362Z,,,,,,,,,,,,,,,,,,,,,,,,,,,,true,3,,1326.1259999996255,,response,,,,,,,,,3,,3,click #choice-3,,,,,O,I,S,,64764.89999999944,64764.09999999963,63421.307,63422.09999999963,63437.974,64771.141,,,
Trial,flow.Sequence,1_3_1,2022-02-17T10:47:17.363Z,,,,,,,,,,,,,,,,,,,,,,,,,,,,,,,5575.639999999628,,completion,,,,,,,,,3,,,,,,,,O,I,S,,64765.09999999963,64764.09999999963,59171.801,59173.299999999814,59188.46,64771.141,,,
Sounds,html.Screen,1_3_2_0,2022-02-17T10:47:21.602Z,,,,,,,,,,,,,,,,,,,,,,,,,,,,,,,4249.516000000003,,timeout,,,,,,,,,1,,,,,,,,S,O,I,,69004.59999999963,69004.01,64754.491,64765.299999999814,64771.141,69020.657,,,
Judgement,html.Screen,1_3_2_1,2022-02-17T10:47:22.738Z,,,,,,,,,,,,,,,,,,,,,,,,,,,,true,1,,1119.442999999621,,response,,,,,,,,,1,,1,click #choice-1,,,,,S,O,I,,70140.79999999981,70140.09999999963,69004.01,69004.70000000019,69020.657,70153.868,,,
Trial,flow.Sequence,1_3_2,2022-02-17T10:47:22.738Z,,,,,,,,,,,,,,,,,,,,,,,,,,,,,,,5368.958999999624,,completion,,,,,,,,,1,,,,,,,,S,O,I,,70140.89999999944,70140.09999999963,64754.491,64765.299999999814,64771.141,70153.868,,,
Sounds,html.Screen,1_3_3_0,2022-02-17T10:47:26.985Z,,,,,,,,,,,,,,,,,,,,,,,,,,,,,,,4249.514999999999,,timeout,,,,,,,,,2,,,,,,,,I,S,O,,74387.39999999944,74386.734,70137.237,70141.09999999963,70153.868,74403.383,,,
Judgement,html.Screen,1_3_3_1,2022-02-17T10:47:27.692Z,,,,,,,,,,,,,,,,,,,,,,,,,,,,true,2,,690.7169999996258,,response,,,,,,,,,2,,2,click #choice-2,,,,,I,S,O,,75094.70000000019,75094.09999999963,74386.734,74387.5,74403.383,75103.291,,,
Trial,flow.Sequence,1_3_3,2022-02-17T10:47:27.692Z,,,,,,,,,,,,,,,,,,,,,,,,,,,,,,,4940.231999999625,,completion,,,,,,,,,2,,,,,,,,I,S,O,,75094.89999999944,75094.09999999963,70137.237,70141.09999999963,70153.868,75103.291,,,
Sounds,html.Screen,1_3_4_0,2022-02-17T10:47:31.934Z,,,,,,,,,,,,,,,,,,,,,,,,,,,,,,,4249.520000000004,,timeout,,,,,,,,,2,,,,,,,,O,S,I,,79336.79999999981,79336.186,75086.659,75095.09999999963,75103.291,79352.811,,,
Judgement,html.Screen,1_3_4_1,2022-02-17T10:47:32.385Z,,,,,,,,,,,,,,,,,,,,,,,,,,,,true,2,,433.28899999962596,,response,,,,,,,,,2,,2,click #choice-2,,,,,O,S,I,,79787.09999999963,79786.09999999963,79336.186,79336.89999999944,79352.811,79802.755,,,
Trial,flow.Sequence,1_3_4,2022-02-17T10:47:32.385Z,,,,,,,,,,,,,,,,,,,,,,,,,,,,,,,4682.80899999963,,completion,,,,,,,,,2,,,,,,,,O,S,I,,79787.29999999981,79786.09999999963,75086.659,75094.89999999944,75103.291,79802.755,,,
Sounds,html.Screen,1_3_5_0,2022-02-17T10:47:36.634Z,,,,,,,,,,,,,,,,,,,,,,,,,,,,,,,4249.5199999999895,,timeout,,,,,,,,,1,,,,,,,,S,I,O,,84036.39999999944,84035.611,79786.124,79787.39999999944,79802.755,84052.275,,,
Judgement,html.Screen,1_3_5_1,2022-02-17T10:47:37.151Z,,,,,,,,,,,,,,,,,,,,,,,,,,,,true,1,,499.8249999996333,,response,,,,,,,,,1,,1,click #choice-1,,,,,S,I,O,,84553.29999999981,84552.09999999963,84035.611,84036.5,84052.275,84568.873,,,
Trial,flow.Sequence,1_3_5,2022-02-17T10:47:37.151Z,,,,,,,,,,,,,,,,,,,,,,,,,,,,,,,4749.344999999623,,completion,,,,,,,,,1,,,,,,,,S,I,O,,84553.39999999944,84552.09999999963,79786.124,79787.29999999981,79802.755,84568.873,,,
Task,flow.Loop,1_3,2022-02-17T10:47:37.155Z,,,,,,,,,,,,,,,,,,,,,,,,,,,,,,,30846.349999999627,,completion,,,0.8333333333333334,,,,,,,,,,,,,,,,,,84557.09999999963,84552.09999999963,53689.096,53674.799999999814,53705.75,84568.873,,,
Trap,html.Screen,1_4,2022-02-17T10:47:37.156Z,,,,,,,,,,,,,,,,,,,,,,,,,,,,,,,NaN,,skipped,,,,,,,,,,,,,,,,,,,,,84558.20000000019,84552.09999999963,,84558.20000000019,,84568.873,,,
Thanks,html.Screen,1_5,2022-02-17T10:47:40.498Z,,,,,,,,,,,,,,,,,,,,,,,,,,,,,,,3331.126999999993,,response,,,,,,,,,,,continue,click button,,,,,,,,,87900.79999999981,87900,84552.225,84558.29999999981,84568.873,90384.887,,,
Headphone screening,flow.Sequence,1,2022-02-17T10:47:40.498Z,,,,,,,,,,,,,,,,,,,,,,,,,,,,,,,72606.492,,completion,,,,,,,,,,,,,,,,,,,,,87901,87900,15260.193,15278.200000000186,15293.508,90384.887,,,
Instructions,html.Page,2_0,2022-02-17T10:48:05.483Z,,,,,,,,,,,,,,,,,,,,,,,,,,,,,,,22500.212999999625,,form submission,,,,,,,,,,,,,,,,,,,,,112885.39999999944,112885.09999999963,90368.212,90381.59999999963,90384.887,112898.974,,,
Holding screen,html.Screen,2_1_0_0,2022-02-17T10:48:15.480Z,,,,,,,,,,,,,,,,,,,,,,,,,,,,,,,9998.846000000005,,timeout,,,,,,,,,,,,,,,,,,,,,122881.79999999981,122881.151,112882.309,112885.5,112898.974,122897.82,,,
screen,html.Screen,2_1_0_1_0,2022-02-17T10:48:16.313Z,,,,,,,,,,,,,,,,,53,,,,,,,,,,,,,,814.7799999996205,,response,,,,99,,,,,,,Space,keypress(Space),,,,,,,,When -- ----- -- ------ - ------- --- ----------<br>------------- ------ ------ ---- ---- ------- ----- -- ----<br>-------- ------- -- ---------- --- - --- ----- ----- ----<br>---- --- --- ----- --- ---- ---- ------- ----- ---- -------<br>--- --- -- ----- -- --- ---- -- --- ---- -- ------ ------<br>--- ----- -- ----,123715,123712.59999999963,122881.151,122881.89999999944,122897.82,123731.056,,0,When
screen,html.Screen,2_1_0_1_1,2022-02-17T10:48:16.807Z,,,,,,,,,,,,,,,,,53,,,,,,,,,,,,,,477.2439999998169,,response,,,,99,,,,,,,Space,keypress(Space),,,,,,,,---- it ----- -- ------ - ------- --- ----------<br>------------- ------ ------ ---- ---- ------- ----- -- ----<br>-------- ------- -- ---------- --- - --- ----- ----- ----<br>---- --- --- ----- --- ---- ---- ------- ----- ---- -------<br>--- --- -- ----- -- --- ---- -- --- ---- -- ------ ------<br>--- ----- -- ----,124208.79999999981,124208.29999999981,123714.465,123715.20000000019,123731.056,124214.319,,1,it
screen,html.Screen,2_1_0_1_2,2022-02-17T10:48:17.303Z,,,,,,,,,,,,,,,,,53,,,,,,,,,,,,,,490.18099999999686,,response,,,,99,,,,,,,Space,keypress(Space),,,,,,,,---- -- comes -- ------ - ------- --- ----------<br>------------- ------ ------ ---- ---- ------- ----- -- ----<br>-------- ------- -- ---------- --- - --- ----- ----- ----<br>---- --- --- ----- --- ---- ---- ------- ----- ---- -------<br>--- --- -- ----- -- --- ---- -- --- ---- -- ------ ------<br>--- ----- -- ----,124705.09999999963,124704.5,124197.697,124209,124214.319,124714.282,,2,comes
screen,html.Screen,2_1_0_1_3,2022-02-17T10:48:17.759Z,,,,,,,,,,,,,,,,,53,,,,,,,,,,,,,,446.1179999994347,,response,,,,99,,,,,,,Space,keypress(Space),,,,,,,,---- -- ----- to ------ - ------- --- ----------<br>------------- ------ ------ ---- ---- ------- ----- -- ----<br>-------- ------- -- ---------- --- - --- ----- ----- ----<br>---- --- --- ----- --- ---- ---- ------- ----- ---- -------<br>--- --- -- ----- -- --- ---- -- --- ---- -- ------ ------<br>--- ----- -- ----,125160.89999999944,125160.39999999944,124697.642,124705.09999999963,124714.282,125164.222,,3,to
screen,html.Screen,2_1_0_1_4,2022-02-17T10:48:18.319Z,,,,,,,,,,,,,,,,,53,,,,,,,,,,,,,,556.2780000000057,,response,,,,99,,,,,,,Space,keypress(Space),,,,,,,,---- -- ----- -- having - ------- --- ----------<br>------------- ------ ------ ---- ---- ------- ----- -- ----<br>-------- ------- -- ---------- --- - --- ----- ----- ----<br>---- --- --- ----- --- ---- ---- ------- ----- ---- -------<br>--- --- -- ----- -- --- ---- -- --- ---- -- ------ ------<br>--- ----- -- ----,125720.89999999944,125720.5,125147.587,125161,125164.222,125730.821,,4,having
screen,html.Screen,2_1_0_1_5,2022-02-17T10:48:18.783Z,,,,,,,,,,,,,,,,,53,,,,,,,,,,,,,,453.57899999944493,,response,,,,99,,,,,,,Space,keypress(Space),,,,,,,,---- -- ----- -- ------ a ------- --- ----------<br>------------- ------ ------ ---- ---- ------- ----- -- ----<br>-------- ------- -- ---------- --- - --- ----- ----- ----<br>---- --- --- ----- --- ---- ---- ------- ----- ---- -------<br>--- --- -- ----- -- --- ---- -- --- ---- -- ------ ------<br>--- ----- -- ----,126185,126184.39999999944,125714.222,125721.09999999963,125730.821,126197.451,,5,a
screen,html.Screen,2_1_0_1_6,2022-02-17T10:48:19.215Z,,,,,,,,,,,,,,,,,53,,,,,,,,,,,,,,418.9489999994403,,response,,,,99,,,,,,,Space,keypress(Space),,,,,,,,---- -- ----- -- ------ - lasting --- ----------<br>------------- ------ ------ ---- ---- ------- ----- -- ----<br>-------- ------- -- ---------- --- - --- ----- ----- ----<br>---- --- --- ----- --- ---- ---- ------- ----- ---- -------<br>--- --- -- ----- -- --- ---- -- --- ---- -- ------ ------<br>--- ----- -- ----,126616.79999999981,126616.39999999944,126180.805,126185,126197.451,126630.719,,6,lasting
screen,html.Screen,2_1_0_1_7,2022-02-17T10:48:19.679Z,,,,,,,,,,,,,,,,,53,,,,,,,,,,,,,,449.6809999994439,,response,,,,99,,,,,,,Space,keypress(Space),,,,,,,,---- -- ----- -- ------ - ------- and ----------<br>------------- ------ ------ ---- ---- ------- ----- -- ----<br>-------- ------- -- ---------- --- - --- ----- ----- ----<br>---- --- --- ----- --- ---- ---- ------- ----- ---- -------<br>--- --- -- ----- -- --- ---- -- --- ---- -- ------ ------<br>--- ----- -- ----,127081.09999999963,127080.39999999944,126614.097,126616.89999999944,126630.719,127097.337,,7,and
screen,html.Screen,2_1_0_1_8,2022-02-17T10:48:20.143Z,,,,,,,,,,,,,,,,,53,,,,,,,,,,,,,,446.9629999998142,,response,,,,99,,,,,,,Space,keypress(Space),,,,,,,,---- -- ----- -- ------ - ------- --- fulfilling<br>------------- ------ ------ ---- ---- ------- ----- -- ----<br>-------- ------- -- ---------- --- - --- ----- ----- ----<br>---- --- --- ----- --- ---- ---- ------- ----- ---- -------<br>--- --- -- ----- -- --- ---- -- --- ---- -- ------ ------<br>--- ----- -- ----,127544.70000000019,127544.29999999981,127080.702,127081.29999999981,127097.337,127547.286,,8,fulfilling
screen,html.Screen,2_1_0_1_9,2022-02-17T10:48:20.607Z,,,,,,,,,,,,,,,,,53,,,,,,,,,,,,,,461.1139999994484,,response,,,,99,,,,,,,Space,keypress(Space),,,,,,,,"---- -- ----- -- ------ - ------- --- ----------<br>relationship, ------ ------ ---- ---- ------- ----- -- ----<br>-------- ------- -- ---------- --- - --- ----- ----- ----<br>---- --- --- ----- --- ---- ---- ------- ----- ---- -------<br>--- --- -- ----- -- --- ---- -- --- ---- -- ------ ------<br>--- ----- -- ----",128008.89999999944,128008.39999999944,127530.647,127544.79999999981,127547.286,128013.882,,9,"relationship,"
screen,html.Screen,2_1_0_1_10,2022-02-17T10:48:21.063Z,,,,,,,,,,,,,,,,,53,,,,,,,,,,,,,,450.6180000000022,,response,,,,99,,,,,,,Space,keypress(Space),,,,,,,,---- -- ----- -- ------ - ------- --- ----------<br>------------- common ------ ---- ---- ------- ----- -- ----<br>-------- ------- -- ---------- --- - --- ----- ----- ----<br>---- --- --- ----- --- ---- ---- ------- ----- ---- -------<br>--- --- -- ----- -- --- ---- -- --- ---- -- ------ ------<br>--- ----- -- ----,128464.89999999944,128464.5,127997.282,128009,128013.882,128480.497,,10,common
screen,html.Screen,2_1_0_1_11,2022-02-17T10:48:21.544Z,,,,,,,,,,,,,,,,,53,,,,,,,,,,,,,,464.4029999994382,,response,,,,99,,,,,,,Space,keypress(Space),,,,,,,,---- -- ----- -- ------ - ------- --- ----------<br>------------- ------ wisdom ---- ---- ------- ----- -- ----<br>-------- ------- -- ---------- --- - --- ----- ----- ----<br>---- --- --- ----- --- ---- ---- ------- ----- ---- -------<br>--- --- -- ----- -- --- ---- -- --- ---- -- ------ ------<br>--- ----- -- ----,128945.59999999963,128944.89999999944,128463.891,128465,128480.497,128973.136,,11,wisdom
screen,html.Screen,2_1_0_1_12,2022-02-17T10:48:21.975Z,,,,,,,,,,,,,,,,,53,,,,,,,,,,,,,,403.3640000000014,,response,,,,99,,,,,,,Space,keypress(Space),,,,,,,,---- -- ----- -- ------ - ------- --- ----------<br>------------- ------ ------ says ---- ------- ----- -- ----<br>-------- ------- -- ---------- --- - --- ----- ----- ----<br>---- --- --- ----- --- ---- ---- ------- ----- ---- -------<br>--- --- -- ----- -- --- ---- -- --- ---- -- ------ ------<br>--- ----- -- ----,129377,129376.5,128930.513,128945.89999999944,128973.136,129380.398,,12,says
screen,html.Screen,2_1_0_1_13,2022-02-17T10:48:22.407Z,,,,,,,,,,,,,,,,,53,,,,,,,,,,,,,,428.4019999998127,,response,,,,99,,,,,,,Space,keypress(Space),,,,,,,,---- -- ----- -- ------ - ------- --- ----------<br>------------- ------ ------ ---- that ------- ----- -- ----<br>-------- ------- -- ---------- --- - --- ----- ----- ----<br>---- --- --- ----- --- ---- ---- ------- ----- ---- -------<br>--- --- -- ----- -- --- ---- -- --- ---- -- ------ ------<br>--- ----- -- ----,129809.20000000019,129808.79999999981,129363.791,129377.20000000019,129380.398,129813.678,,13,that
screen,html.Screen,2_1_0_1_14,2022-02-17T10:48:22.855Z,,,,,,,,,,,,,,,,,53,,,,,,,,,,,,,,442.7219999994413,,response,,,,99,,,,,,,Space,keypress(Space),,,,,,,,---- -- ----- -- ------ - ------- --- ----------<br>------------- ------ ------ ---- ---- feeling ----- -- ----<br>-------- ------- -- ---------- --- - --- ----- ----- ----<br>---- --- --- ----- --- ---- ---- ------- ----- ---- -------<br>--- --- -- ----- -- --- ---- -- --- ---- -- ------ ------<br>--- ----- -- ----,130256.89999999944,130256.39999999944,129797.088,129809.20000000019,129813.678,130263.625,,14,feeling
screen,html.Screen,2_1_0_1_15,2022-02-17T10:48:23.287Z,,,,,,,,,,,,,,,,,53,,,,,,,,,,,,,,424.875,,response,,,,99,,,,,,,Space,keypress(Space),,,,,,,,---- -- ----- -- ------ - ------- --- ----------<br>------------- ------ ------ ---- ---- ------- close -- ----<br>-------- ------- -- ---------- --- - --- ----- ----- ----<br>---- --- --- ----- --- ---- ---- ------- ----- ---- -------<br>--- --- -- ----- -- --- ---- -- --- ---- -- ------ ------<br>--- ----- -- ----,130688.89999999944,130688.5,130247.028,130257,130263.625,130696.916,,15,close
screen,html.Screen,2_1_0_1_16,2022-02-17T10:48:23.671Z,,,,,,,,,,,,,,,,,53,,,,,,,,,,,,,,375.58400000000256,,response,,,,99,,,,,,,Space,keypress(Space),,,,,,,,---- -- ----- -- ------ - ------- --- ----------<br>------------- ------ ------ ---- ---- ------- ----- to ----<br>-------- ------- -- ---------- --- - --- ----- ----- ----<br>---- --- --- ----- --- ---- ---- ------- ----- ---- -------<br>--- --- -- ----- -- --- ---- -- --- ---- -- ------ ------<br>--- ----- -- ----,131073,131072.5,130680.288,130689,130696.916,131080.217,,16,to
screen,html.Screen,2_1_0_1_17,2022-02-17T10:48:24.063Z,,,,,,,,,,,,,,,,,53,,,,,,,,,,,,,,384.2829999999958,,response,,,,99,,,,,,,Space,keypress(Space),,,,,,,,---- -- ----- -- ------ - ------- --- ----------<br>------------- ------ ------ ---- ---- ------- ----- -- your<br>-------- ------- -- ---------- --- - --- ----- ----- ----<br>---- --- --- ----- --- ---- ---- ------- ----- ---- -------<br>--- --- -- ----- -- --- ---- -- --- ---- -- ------ ------<br>--- ----- -- ----,131465,131464.5,131063.541,131073.2000000002,131080.217,131480.181,,17,your
screen,html.Screen,2_1_0_1_18,2022-02-17T10:48:24.471Z,,,,,,,,,,,,,,,,,53,,,,,,,,,,,,,,392.3189999999886,,response,,,,99,,,,,,,Space,keypress(Space),,,,,,,,---- -- ----- -- ------ - ------- --- ----------<br>------------- ------ ------ ---- ---- ------- ----- -- ----<br>romantic ------- -- ---------- --- - --- ----- ----- ----<br>---- --- --- ----- --- ---- ---- ------- ----- ---- -------<br>--- --- -- ----- -- --- ---- -- --- ---- -- ------ ------<br>--- ----- -- ----,131873,131872.5,131463.522,131465,131480.181,131880.128,,18,romantic
screen,html.Screen,2_1_0_1_19,2022-02-17T10:48:24.911Z,,,,,,,,,,,,,,,,,53,,,,,,,,,,,,,,432.67199999981676,,response,,,,99,,,,,,,Space,keypress(Space),,,,,,,,---- -- ----- -- ------ - ------- --- ----------<br>------------- ------ ------ ---- ---- ------- ----- -- ----<br>-------- partner -- ---------- --- - --- ----- ----- ----<br>---- --- --- ----- --- ---- ---- ------- ----- ---- -------<br>--- --- -- ----- -- --- ---- -- --- ---- -- ------ ------<br>--- ----- -- ----,132313.2000000002,132312.7999999998,131863.48,131873.09999999963,131880.128,132330.146,,19,partner
screen,html.Screen,2_1_0_1_20,2022-02-17T10:48:25.367Z,,,,,,,,,,,,,,,,,53,,,,,,,,,,,,,,438.3539999999921,,response,,,,99,,,,,,,Space,keypress(Space),,,,,,,,---- -- ----- -- ------ - ------- --- ----------<br>------------- ------ ------ ---- ---- ------- ----- -- ----<br>-------- ------- is ---------- --- - --- ----- ----- ----<br>---- --- --- ----- --- ---- ---- ------- ----- ---- -------<br>--- --- -- ----- -- --- ---- -- --- ---- -- ------ ------<br>--- ----- -- ----,132769.09999999963,132768.5,132313.447,132313.2999999998,132330.146,132780.044,,20,is
screen,html.Screen,2_1_0_1_21,2022-02-17T10:48:25.815Z,,,,,,,,,,,,,,,,,53,,,,,,,,,,,,,,436.3559999994468,,response,,,,99,,,,,,,Space,keypress(Space),,,,,,,,---- -- ----- -- ------ - ------- --- ----------<br>------------- ------ ------ ---- ---- ------- ----- -- ----<br>-------- ------- -- paramount. --- - --- ----- ----- ----<br>---- --- --- ----- --- ---- ---- ------- ----- ---- -------<br>--- --- -- ----- -- --- ---- -- --- ---- -- ------ ------<br>--- ----- -- ----,133216.7999999998,133216.39999999944,132763.426,132769.2000000002,132780.044,133229.954,,21,paramount.
screen,html.Screen,2_1_0_1_22,2022-02-17T10:48:26.231Z,,,,,,,,,,,,,,,,,53,,,,,,,,,,,,,,402.4459999994433,,response,,,,99,,,,,,,Space,keypress(Space),,,,,,,,---- -- ----- -- ------ - ------- --- ----------<br>------------- ------ ------ ---- ---- ------- ----- -- ----<br>-------- ------- -- ---------- But - --- ----- ----- ----<br>---- --- --- ----- --- ---- ---- ------- ----- ---- -------<br>--- --- -- ----- -- --- ---- -- --- ---- -- ------ ------<br>--- ----- -- ----,133632.7000000002,133632.39999999944,133213.324,133216.89999999944,133229.954,133646.574,,22,But
screen,html.Screen,2_1_0_1_23,2022-02-17T10:48:26.631Z,,,,,,,,,,,,,,,,,53,,,,,,,,,,,,,,386.0259999996342,,response,,,,99,,,,,,,Space,keypress(Space),,,,,,,,---- -- ----- -- ------ - ------- --- ----------<br>------------- ------ ------ ---- ---- ------- ----- -- ----<br>-------- ------- -- ---------- --- a --- ----- ----- ----<br>---- --- --- ----- --- ---- ---- ------- ----- ---- -------<br>--- --- -- ----- -- --- ---- -- --- ---- -- ------ ------<br>--- ----- -- ----,134033.09999999963,134032.59999999963,133629.961,133632.89999999944,133646.574,134046.531,,23,a
screen,html.Screen,2_1_0_1_24,2022-02-17T10:48:27.047Z,,,,,,,,,,,,,,,,,53,,,,,,,,,,,,,,401.7689999998256,,response,,,,99,,,,,,,Space,keypress(Space),,,,,,,,---- -- ----- -- ------ - ------- --- ----------<br>------------- ------ ------ ---- ---- ------- ----- -- ----<br>-------- ------- -- ---------- --- - new ----- ----- ----<br>---- --- --- ----- --- ---- ---- ------- ----- ---- -------<br>--- --- -- ----- -- --- ---- -- --- ---- -- ------ ------<br>--- ----- -- ----,134448.7999999998,134448.2999999998,134029.893,134033.2000000002,134046.531,134463.148,,24,new
screen,html.Screen,2_1_0_1_25,2022-02-17T10:48:27.471Z,,,,,,,,,,,,,,,,,53,,,,,,,,,,,,,,409.2519999994547,,response,,,,99,,,,,,,Space,keypress(Space),,,,,,,,---- -- ----- -- ------ - ------- --- ----------<br>------------- ------ ------ ---- ---- ------- ----- -- ----<br>-------- ------- -- ---------- --- - --- study ----- ----<br>---- --- --- ----- --- ---- ---- ------- ----- ---- -------<br>--- --- -- ----- -- --- ---- -- --- ---- -- ------ ------<br>--- ----- -- ----,134873.09999999963,134872.39999999944,134446.515,134448.89999999944,134463.148,134879.777,,25,study
screen,html.Screen,2_1_0_1_26,2022-02-17T10:48:27.871Z,,,,,,,,,,,,,,,,,53,,,,,,,,,,,,,,392.8229999996256,,response,,,,99,,,,,,,Space,keypress(Space),,,,,,,,---- -- ----- -- ------ - ------- --- ----------<br>------------- ------ ------ ---- ---- ------- ----- -- ----<br>-------- ------- -- ---------- --- - --- ----- finds ----<br>---- --- --- ----- --- ---- ---- ------- ----- ---- -------<br>--- --- -- ----- -- --- ---- -- --- ---- -- ------ ------<br>--- ----- -- ----,135272.7999999998,135272.59999999963,134863.155,134873.2000000002,134879.777,135279.728,,26,finds
screen,html.Screen,2_1_0_1_27,2022-02-17T10:48:28.279Z,,,,,,,,,,,,,,,,,53,,,,,,,,,,,,,,400.6719999994384,,response,,,,99,,,,,,,Space,keypress(Space),,,,,,,,---- -- ----- -- ------ - ------- --- ----------<br>------------- ------ ------ ---- ---- ------- ----- -- ----<br>-------- ------- -- ---------- --- - --- ----- ----- that<br>---- --- --- ----- --- ---- ---- ------- ----- ---- -------<br>--- --- -- ----- -- --- ---- -- --- ---- -- ------ ------<br>--- ----- -- ----,135680.7999999998,135680.39999999944,135263.121,135273,135279.728,135696.375,,27,that
screen,html.Screen,2_1_0_1_28,2022-02-17T10:48:28.695Z,,,,,,,,,,,,,,,,,53,,,,,,,,,,,,,,400.0249999994412,,response,,,,99,,,,,,,Space,keypress(Space),,,,,,,,---- -- ----- -- ------ - ------- --- ----------<br>------------- ------ ------ ---- ---- ------- ----- -- ----<br>-------- ------- -- ---------- --- - --- ----- ----- ----<br>it's --- --- ----- --- ---- ---- ------- ----- ---- -------<br>--- --- -- ----- -- --- ---- -- --- ---- -- ------ ------<br>--- ----- -- ----,136097,136096.39999999944,135679.712,135680.7999999998,135696.375,136112.984,,28,it's
screen,html.Screen,2_1_0_1_29,2022-02-17T10:48:29.111Z,,,,,,,,,,,,,,,,,53,,,,,,,,,,,,,,399.41599999944447,,response,,,,99,,,,,,,Space,keypress(Space),,,,,,,,---- -- ----- -- ------ - ------- --- ----------<br>------------- ------ ------ ---- ---- ------- ----- -- ----<br>-------- ------- -- ---------- --- - --- ----- ----- ----<br>---- not --- ----- --- ---- ---- ------- ----- ---- -------<br>--- --- -- ----- -- --- ---- -- --- ---- -- ------ ------<br>--- ----- -- ----,136512.7999999998,136512.39999999944,136096.327,136097,136112.984,136529.574,,29,not
screen,html.Screen,2_1_0_1_30,2022-02-17T10:48:29.543Z,,,,,,,,,,,,,,,,,53,,,,,,,,,,,,,,414.82599999944796,,response,,,,99,,,,,,,Space,keypress(Space),,,,,,,,---- -- ----- -- ------ - ------- --- ----------<br>------------- ------ ------ ---- ---- ------- ----- -- ----<br>-------- ------- -- ---------- --- - --- ----- ----- ----<br>---- --- how ----- --- ---- ---- ------- ----- ---- -------<br>--- --- -- ----- -- --- ---- -- --- ---- -- ------ ------<br>--- ----- -- ----,136945,136944.39999999944,136512.945,136513,136529.574,136975.236,,30,how
screen,html.Screen,2_1_0_1_31,2022-02-17T10:48:29.927Z,,,,,,,,,,,,,,,,,53,,,,,,,,,,,,,,353.1639999994368,,response,,,,99,,,,,,,Space,keypress(Space),,,,,,,,---- -- ----- -- ------ - ------- --- ----------<br>------------- ------ ------ ---- ---- ------- ----- -- ----<br>-------- ------- -- ---------- --- - --- ----- ----- ----<br>---- --- --- close --- ---- ---- ------- ----- ---- -------<br>--- --- -- ----- -- --- ---- -- --- ---- -- ------ ------<br>--- ----- -- ----,137328.7999999998,137328.39999999944,136929.588,136945.09999999963,136975.236,137353.602,,31,close
screen,html.Screen,2_1_0_1_32,2022-02-17T10:48:30.375Z,,,,,,,,,,,,,,,,,53,,,,,,,,,,,,,,422.7979999994277,,response,,,,99,,,,,,,Space,keypress(Space),,,,,,,,---- -- ----- -- ------ - ------- --- ----------<br>------------- ------ ------ ---- ---- ------- ----- -- ----<br>-------- ------- -- ---------- --- - --- ----- ----- ----<br>---- --- --- ----- you ---- ---- ------- ----- ---- -------<br>--- --- -- ----- -- --- ---- -- --- ---- -- ------ ------<br>--- ----- -- ----,137776.7999999998,137776.39999999944,137312.863,137328.89999999944,137353.602,137779.44,,32,you
screen,html.Screen,2_1_0_1_33,2022-02-17T10:48:30.767Z,,,,,,,,,,,,,,,,,53,,,,,,,,,,,,,,388.8599999998114,,response,,,,99,,,,,,,Space,keypress(Space),,,,,,,,---- -- ----- -- ------ - ------- --- ----------<br>------------- ------ ------ ---- ---- ------- ----- -- ----<br>-------- ------- -- ---------- --- - --- ----- ----- ----<br>---- --- --- ----- --- feel ---- ------- ----- ---- -------<br>--- --- -- ----- -- --- ---- -- --- ---- -- ------ ------<br>--- ----- -- ----,138168.7000000002,138168.2999999998,137762.817,137776.89999999944,137779.44,138179.387,,33,feel
screen,html.Screen,2_1_0_1_34,2022-02-17T10:48:31.151Z,,,,,,,,,,,,,,,,,53,,,,,,,,,,,,,,373.0129999994533,,response,,,,99,,,,,,,Space,keypress(Space),,,,,,,,---- -- ----- -- ------ - ------- --- ----------<br>------------- ------ ------ ---- ---- ------- ----- -- ----<br>-------- ------- -- ---------- --- - --- ----- ----- ----<br>---- --- --- ----- --- ---- that ------- ----- ---- -------<br>--- --- -- ----- -- --- ---- -- --- ---- -- ------ ------<br>--- ----- -- ----,138552.89999999944,138552.39999999944,138162.774,138168.7999999998,138179.387,138562.673,,34,that
screen,html.Screen,2_1_0_1_35,2022-02-17T10:48:31.551Z,,,,,,,,,,,,,,,,,53,,,,,,,,,,,,,,389.8269999999902,,response,,,,99,,,,,,,Space,keypress(Space),,,,,,,,---- -- ----- -- ------ - ------- --- ----------<br>------------- ------ ------ ---- ---- ------- ----- -- ----<br>-------- ------- -- ---------- --- - --- ----- ----- ----<br>---- --- --- ----- --- ---- ---- matters ----- ---- -------<br>--- --- -- ----- -- --- ---- -- --- ---- -- ------ ------<br>--- ----- -- ----,138952.89999999944,138952.5,138546.037,138552.89999999944,138562.673,138962.633,,35,matters
screen,html.Screen,2_1_0_1_36,2022-02-17T10:48:31.927Z,,,,,,,,,,,,,,,,,53,,,,,,,,,,,,,,365.7669999994396,,response,,,,99,,,,,,,Space,keypress(Space),,,,,,,,"---- -- ----- -- ------ - ------- --- ----------<br>------------- ------ ------ ---- ---- ------- ----- -- ----<br>-------- ------- -- ---------- --- - --- ----- ----- ----<br>---- --- --- ----- --- ---- ---- ------- most, ---- -------<br>--- --- -- ----- -- --- ---- -- --- ---- -- ------ ------<br>--- ----- -- ----",139328.89999999944,139328.39999999944,138946.01,138953.09999999963,138962.633,139345.932,,36,"most,"
screen,html.Screen,2_1_0_1_37,2022-02-17T10:48:32.311Z,,,,,,,,,,,,,,,,,53,,,,,,,,,,,,,,366.4679999994405,,response,,,,99,,,,,,,Space,keypress(Space),,,,,,,,---- -- ----- -- ------ - ------- --- ----------<br>------------- ------ ------ ---- ---- ------- ----- -- ----<br>-------- ------- -- ---------- --- - --- ----- ----- ----<br>---- --- --- ----- --- ---- ---- ------- ----- it's -------<br>--- --- -- ----- -- --- ---- -- --- ---- -- ------ ------<br>--- ----- -- ----,139713.09999999963,139712.39999999944,139329.301,139329.09999999963,139345.932,139729.218,,37,it's
screen,html.Screen,2_1_0_1_38,2022-02-17T10:48:32.727Z,,,,,,,,,,,,,,,,,53,,,,,,,,,,,,,,399.1819999994477,,response,,,,99,,,,,,,Space,keypress(Space),,,,,,,,---- -- ----- -- ------ - ------- --- ----------<br>------------- ------ ------ ---- ---- ------- ----- -- ----<br>-------- ------- -- ---------- --- - --- ----- ----- ----<br>---- --- --- ----- --- ---- ---- ------- ----- ---- whether<br>--- --- -- ----- -- --- ---- -- --- ---- -- ------ ------<br>--- ----- -- ----,140128.7999999998,140128.39999999944,139712.588,139713.2999999998,139729.218,140162.495,,38,whether
screen,html.Screen,2_1_0_1_39,2022-02-17T10:48:33.127Z,,,,,,,,,,,,,,,,,53,,,,,,,,,,,,,,366.00500000000466,,response,,,,99,,,,,,,Space,keypress(Space),,,,,,,,---- -- ----- -- ------ - ------- --- ----------<br>------------- ------ ------ ---- ---- ------- ----- -- ----<br>-------- ------- -- ---------- --- - --- ----- ----- ----<br>---- --- --- ----- --- ---- ---- ------- ----- ---- -------<br>you --- -- ----- -- --- ---- -- --- ---- -- ------ ------<br>--- ----- -- ----,140529,140528.5,140145.833,140128.89999999944,140162.495,140545.781,,39,you
screen,html.Screen,2_1_0_1_40,2022-02-17T10:48:33.495Z,,,,,,,,,,,,,,,,,53,,,,,,,,,,,,,,350.81899999963935,,response,,,,99,,,,,,,Space,keypress(Space),,,,,,,,---- -- ----- -- ------ - ------- --- ----------<br>------------- ------ ------ ---- ---- ------- ----- -- ----<br>-------- ------- -- ---------- --- - --- ----- ----- ----<br>---- --- --- ----- --- ---- ---- ------- ----- ---- -------<br>--- are -- ----- -- --- ---- -- --- ---- -- ------ ------<br>--- ----- -- ----,140897,140896.59999999963,140529.166,140529.09999999963,140545.781,140912.418,,40,are
screen,html.Screen,2_1_0_1_41,2022-02-17T10:48:33.991Z,,,,,,,,,,,,,,,,,53,,,,,,,,,,,,,,480.0819999999949,,response,,,,99,,,,,,,Space,keypress(Space),,,,,,,,---- -- ----- -- ------ - ------- --- ----------<br>------------- ------ ------ ---- ---- ------- ----- -- ----<br>-------- ------- -- ---------- --- - --- ----- ----- ----<br>---- --- --- ----- --- ---- ---- ------- ----- ---- -------<br>--- --- as ----- -- --- ---- -- --- ---- -- ------ ------<br>--- ----- -- ----,141392.89999999944,141392.5,140895.77,140897.09999999963,140912.418,141395.69,,41,as
screen,html.Screen,2_1_0_1_42,2022-02-17T10:48:34.431Z,,,,,,,,,,,,,,,,,53,,,,,,,,,,,,,,436.7099999994389,,response,,,,99,,,,,,,Space,keypress(Space),,,,,,,,---- -- ----- -- ------ - ------- --- ----------<br>------------- ------ ------ ---- ---- ------- ----- -- ----<br>-------- ------- -- ---------- --- - --- ----- ----- ----<br>---- --- --- ----- --- ---- ---- ------- ----- ---- -------<br>--- --- -- close -- --- ---- -- --- ---- -- ------ ------<br>--- ----- -- ----,141833,141832.39999999944,141379.06,141393.09999999963,141395.69,141845.651,,42,close
screen,html.Screen,2_1_0_1_43,2022-02-17T10:48:35.079Z,,,,,,,,,,,,,,,,,53,,,,,,,,,,,,,,634.7489999994286,,response,,,,99,,,,,,,Space,keypress(Space),,,,,,,,---- -- ----- -- ------ - ------- --- ----------<br>------------- ------ ------ ---- ---- ------- ----- -- ----<br>-------- ------- -- ---------- --- - --- ----- ----- ----<br>---- --- --- ----- --- ---- ---- ------- ----- ---- -------<br>--- --- -- ----- as --- ---- -- --- ---- -- ------ ------<br>--- ----- -- ----,142480.89999999944,142480.39999999944,141829.03,141833,141845.651,142495.575,,43,as
screen,html.Screen,2_1_0_1_44,2022-02-17T10:48:35.479Z,,,,,,,,,,,,,,,,,53,,,,,,,,,,,,,,384.7249999998021,,response,,,,99,,,,,,,Space,keypress(Space),,,,,,,,---- -- ----- -- ------ - ------- --- ----------<br>------------- ------ ------ ---- ---- ------- ----- -- ----<br>-------- ------- -- ---------- --- - --- ----- ----- ----<br>---- --- --- ----- --- ---- ---- ------- ----- ---- -------<br>--- --- -- ----- -- you ---- -- --- ---- -- ------ ------<br>--- ----- -- ----,142880.7000000002,142880.2999999998,142478.962,142481,142495.575,142895.551,,44,you
screen,html.Screen,2_1_0_1_45,2022-02-17T10:48:35.847Z,,,,,,,,,,,,,,,,,53,,,,,,,,,,,,,,352.94899999999325,,response,,,,99,,,,,,,Space,keypress(Space),,,,,,,,---- -- ----- -- ------ - ------- --- ----------<br>------------- ------ ------ ---- ---- ------- ----- -- ----<br>-------- ------- -- ---------- --- - --- ----- ----- ----<br>---- --- --- ----- --- ---- ---- ------- ----- ---- -------<br>--- --- -- ----- -- --- want -- --- ---- -- ------ ------<br>--- ----- -- ----,143248.89999999944,143248.5,142878.922,142880.7999999998,142895.551,143262.136,,45,want
screen,html.Screen,2_1_0_1_46,2022-02-17T10:48:36.207Z,,,,,,,,,,,,,,,,,53,,,,,,,,,,,,,,346.16399999981513,,response,,,,99,,,,,,,Space,keypress(Space),,,,,,,,---- -- ----- -- ------ - ------- --- ----------<br>------------- ------ ------ ---- ---- ------- ----- -- ----<br>-------- ------- -- ---------- --- - --- ----- ----- ----<br>---- --- --- ----- --- ---- ---- ------- ----- ---- -------<br>--- --- -- ----- -- --- ---- to --- ---- -- ------ ------<br>--- ----- -- ----,143608.7000000002,143608.2999999998,143245.517,143249,143262.136,143612.097,,46,to
screen,html.Screen,2_1_0_1_47,2022-02-17T10:48:36.711Z,,,,,,,,,,,,,,,,,53,,,,,,,,,,,,,,500.6030000001774,,response,,,,99,,,,,,,Space,keypress(Space),,,,,,,,"---- -- ----- -- ------ - ------- --- ----------<br>------------- ------ ------ ---- ---- ------- ----- -- ----<br>-------- ------- -- ---------- --- - --- ----- ----- ----<br>---- --- --- ----- --- ---- ---- ------- ----- ---- -------<br>--- --- -- ----- -- --- ---- -- be, ---- -- ------ ------<br>--- ----- -- ----",144113.2000000002,144112.7000000002,143595.463,143608.7999999998,143612.097,144128.715,,47,"be,"
screen,html.Screen,2_1_0_1_48,2022-02-17T10:48:37.055Z,,,,,,,,,,,,,,,,,53,,,,,,,,,,,,,,327.6849999994447,,response,,,,99,,,,,,,Space,keypress(Space),,,,,,,,---- -- ----- -- ------ - ------- --- ----------<br>------------- ------ ------ ---- ---- ------- ----- -- ----<br>-------- ------- -- ---------- --- - --- ----- ----- ----<br>---- --- --- ----- --- ---- ---- ------- ----- ---- -------<br>--- --- -- ----- -- --- ---- -- --- even -- ------ ------<br>--- ----- -- ----,144456.7000000002,144456.39999999944,144112.102,144113.39999999944,144128.715,144461.998,,48,even
screen,html.Screen,2_1_0_1_49,2022-02-17T10:48:37.399Z,,,,,,,,,,,,,,,,,53,,,,,,,,,,,,,,338.4019999994489,,response,,,,99,,,,,,,Space,keypress(Space),,,,,,,,---- -- ----- -- ------ - ------- --- ----------<br>------------- ------ ------ ---- ---- ------- ----- -- ----<br>-------- ------- -- ---------- --- - --- ----- ----- ----<br>---- --- --- ----- --- ---- ---- ------- ----- ---- -------<br>--- --- -- ----- -- --- ---- -- --- ---- if ------ ------<br>--- ----- -- ----,144800.7999999998,144800.39999999944,144445.393,144456.7999999998,144461.998,144811.968,,49,if
screen,html.Screen,2_1_0_1_50,2022-02-17T10:48:37.735Z,,,,,,,,,,,,,,,,,53,,,,,,,,,,,,,,324.4319999994477,,response,,,,99,,,,,,,Space,keypress(Space),,,,,,,,---- -- ----- -- ------ - ------- --- ----------<br>------------- ------ ------ ---- ---- ------- ----- -- ----<br>-------- ------- -- ---------- --- - --- ----- ----- ----<br>---- --- --- ----- --- ---- ---- ------- ----- ---- -------<br>--- --- -- ----- -- --- ---- -- --- ---- -- that's ------<br>--- ----- -- ----,145136.7000000002,145136.39999999944,144795.319,144800.89999999944,144811.968,145145.268,,50,that's
screen,html.Screen,2_1_0_1_51,2022-02-17T10:48:38.063Z,,,,,,,,,,,,,,,,,53,,,,,,,,,,,,,,319.0319999998028,,response,,,,99,,,,,,,Space,keypress(Space),,,,,,,,---- -- ----- -- ------ - ------- --- ----------<br>------------- ------ ------ ---- ---- ------- ----- -- ----<br>-------- ------- -- ---------- --- - --- ----- ----- ----<br>---- --- --- ----- --- ---- ---- ------- ----- ---- -------<br>--- --- -- ----- -- --- ---- -- --- ---- -- ------ really<br>--- ----- -- ----,145464.7000000002,145464.2999999998,145128.634,145136.7999999998,145145.268,145478.554,,51,really
screen,html.Screen,2_1_0_1_52,2022-02-17T10:48:38.431Z,,,,,,,,,,,,,,,,,53,,,,,,,,,,,,,,353.8459999994375,,response,,,,99,,,,,,,Space,keypress(Space),,,,,,,,---- -- ----- -- ------ - ------- --- ----------<br>------------- ------ ------ ---- ---- ------- ----- -- ----<br>-------- ------- -- ---------- --- - --- ----- ----- ----<br>---- --- --- ----- --- ---- ---- ------- ----- ---- -------<br>--- --- -- ----- -- --- ---- -- --- ---- -- ------ ------<br>not ----- -- ----,145832.7999999998,145832.39999999944,145461.924,145464.89999999944,145478.554,145845.19,,52,not
screen,html.Screen,2_1_0_1_53,2022-02-17T10:48:38.775Z,,,,,,,,,,,,,,,,,53,,,,,,,,,,,,,,331.3099999999977,,response,,,,99,,,,,,,Space,keypress(Space),,,,,,,,---- -- ----- -- ------ - ------- --- ----------<br>------------- ------ ------ ---- ---- ------- ----- -- ----<br>-------- ------- -- ---------- --- - --- ----- ----- ----<br>---- --- --- ----- --- ---- ---- ------- ----- ---- -------<br>--- --- -- ----- -- --- ---- -- --- ---- -- ------ ------<br>--- close -- ----,146176.89999999944,146176.5,145828.564,145833,145845.19,146178.501,,53,close
screen,html.Screen,2_1_0_1_54,2022-02-17T10:48:39.119Z,,,,,,,,,,,,,,,,,53,,,,,,,,,,,,,,341.79899999982445,,response,,,,99,,,,,,,Space,keypress(Space),,,,,,,,---- -- ----- -- ------ - ------- --- ----------<br>------------- ------ ------ ---- ---- ------- ----- -- ----<br>-------- ------- -- ---------- --- - --- ----- ----- ----<br>---- --- --- ----- --- ---- ---- ------- ----- ---- -------<br>--- --- -- ----- -- --- ---- -- --- ---- -- ------ ------<br>--- ----- at ----,146520.7999999998,146520.2999999998,146161.86,146177,146178.501,146528.423,,54,at
screen,html.Screen,2_1_0_1_55,2022-02-17T10:48:39.439Z,,,,,,,,,,,,,,,,,53,,,,,,,,,,,,,,311.87699999980396,,response,,,,99,,,,,,,Space,keypress(Space),,,,,,,,---- -- ----- -- ------ - ------- --- ----------<br>------------- ------ ------ ---- ---- ------- ----- -- ----<br>-------- ------- -- ---------- --- - --- ----- ----- ----<br>---- --- --- ----- --- ---- ---- ------- ----- ---- -------<br>--- --- -- ----- -- --- ---- -- --- ---- -- ------ ------<br>--- ----- -- all.,146840.7000000002,146840.2999999998,146511.82,146520.89999999944,146528.423,146845.066,,55,all.
Item 99,flow.Loop,2_1_0_1,2022-02-17T10:48:39.439Z,,,,,,,,,,,,,,,,,,,,,,,,,,,,,,,23942.479999999807,,completion,,,,,C,,,,,,,,,,,silence,,,,,146840.89999999944,146840.2999999998,122881.151,122881.89999999944,122897.82,146845.066,,,
Question 1,html.Screen,2_1_0_2,2022-02-17T10:48:43.895Z,,,,,,,,,,,,,,,,,,,,,,,,,,,,true,FALSE,,4451.033999999636,,response,,,,99,C,,,,,,FALSE,click #choice-2,,,,silence,,,,,151296.7999999998,151296.09999999963,146828.425,146841,146845.066,151311.216,,,
Question 2,html.Screen,2_1_0_3,2022-02-17T10:48:48.853Z,,,,,,,,,,,,,,,,,,,,,,,,,,,,true,TRUE,,4942.883999999642,,response,,,,99,C,,,,,,TRUE,click #choice-1,,,,silence,,,,,156254.7000000002,156254.09999999963,151294.576,151296.89999999944,151311.216,156260.715,,,
Item 99,flow.Sequence,2_1_0,2022-02-17T10:48:48.853Z,,,,,,,,,,,,,,,,,,,,,,,,,,,,,,,43355.125999999625,,completion,,,,,,,,,,,,,,,,,,,,,156255,156254.09999999963,112882.309,112885.5,112898.974,156260.715,,,
Holding screen,html.Screen,2_1_1_0,2022-02-17T10:48:58.842Z,,,,,,,,,,,,,,,,,,,,,,,,,,,,,,,9998.800000000017,,timeout,,,,,,,,,,,,,,,,,,,,,166243.39999999944,166242.844,156243.997,156255.09999999963,156260.715,166259.515,,,
screen,html.Screen,2_1_1_1_0,2022-02-17T10:48:59.583Z,,,,,,,,,,,,,,,,,54,,,,,,,,,,,,,,725.0849999996135,,response,,,,100,,,,,,,Space,keypress(Space),,,,,,,,At --- ---- --- ------ ----- ------- ---- -- --- ------- --<br>------- ---------- ------ -- ----- -- ----- -- ---- ------<br>--- ----- --- --- ------ -------- ----- --- ------ ----- --<br>----- ----- ---------- --- --- ------ ------ ---- -- ------<br>------- --- ------ ----- --- ---- ------- -- ---- --- --<br>------- ------,166984.89999999944,166984.59999999963,166242.844,166243.59999999963,166259.515,166992.745,,0,At
screen,html.Screen,2_1_1_1_1,2022-02-17T10:49:00.071Z,,,,,,,,,,,,,,,,,54,,,,,,,,,,,,,,479.65499999944586,,response,,,,100,,,,,,,Space,keypress(Space),,,,,,,,-- the ---- --- ------ ----- ------- ---- -- --- ------- --<br>------- ---------- ------ -- ----- -- ----- -- ---- ------<br>--- ----- --- --- ------ -------- ----- --- ------ ----- --<br>----- ----- ---------- --- --- ------ ------ ---- -- ------<br>------- --- ------ ----- --- ---- ------- -- ---- --- --<br>------- ------,167472.59999999963,167472.39999999944,166976.144,166985,166992.745,167476.065,,1,the
screen,html.Screen,2_1_1_1_2,2022-02-17T10:49:00.423Z,,,,,,,,,,,,,,,,,54,,,,,,,,,,,,,,348.4349999999977,,response,,,,100,,,,,,,Space,keypress(Space),,,,,,,,-- --- time --- ------ ----- ------- ---- -- --- ------- --<br>------- ---------- ------ -- ----- -- ----- -- ---- ------<br>--- ----- --- --- ------ -------- ----- --- ------ ----- --<br>----- ----- ---------- --- --- ------ ------ ---- -- ------<br>------- --- ------ ----- --- ---- ------- -- ---- --- --<br>------- ------,167824.89999999944,167824.5,167459.395,167472.7999999998,167476.065,167857.281,,2,time
screen,html.Screen,2_1_1_1_3,2022-02-17T10:49:00.839Z,,,,,,,,,,,,,,,,,54,,,,,,,,,,,,,,383.0189999998256,,response,,,,100,,,,,,,Space,keypress(Space),,,,,,,,-- --- ---- the ------ ----- ------- ---- -- --- ------- --<br>------- ---------- ------ -- ----- -- ----- -- ---- ------<br>--- ----- --- --- ------ -------- ----- --- ------ ----- --<br>----- ----- ---------- --- --- ------ ------ ---- -- ------<br>------- --- ------ ----- --- ---- ------- -- ---- --- --<br>------- ------,168240.7999999998,168240.2999999998,167809.372,167825.09999999963,167857.281,168242.61,,3,the
screen,html.Screen,2_1_1_1_4,2022-02-17T10:49:01.199Z,,,,,,,,,,,,,,,,,54,,,,,,,,,,,,,,357.7899999994552,,response,,,,100,,,,,,,Space,keypress(Space),,,,,,,,-- --- ---- --- French ----- ------- ---- -- --- ------- --<br>------- ---------- ------ -- ----- -- ----- -- ---- ------<br>--- ----- --- --- ------ -------- ----- --- ------ ----- --<br>----- ----- ---------- --- --- ------ ------ ---- -- ------<br>------- --- ------ ----- --- ---- ------- -- ---- --- --<br>------- ------,168600.7999999998,168600.39999999944,168225.983,168240.7999999998,168242.61,168609.228,,4,French
screen,html.Screen,2_1_1_1_5,2022-02-17T10:49:01.559Z,,,,,,,,,,,,,,,,,54,,,,,,,,,,,,,,351.1719999994384,,response,,,,100,,,,,,,Space,keypress(Space),,,,,,,,-- --- ---- --- ------ crown ------- ---- -- --- ------- --<br>------- ---------- ------ -- ----- -- ----- -- ---- ------<br>--- ----- --- --- ------ -------- ----- --- ------ ----- --<br>----- ----- ---------- --- --- ------ ------ ---- -- ------<br>------- --- ------ ----- --- ---- ------- -- ---- --- --<br>------- ------,168960.89999999944,168960.39999999944,168592.623,168600.89999999944,168609.228,168975.856,,5,crown
screen,html.Screen,2_1_1_1_6,2022-02-17T10:49:01.871Z,,,,,,,,,,,,,,,,,54,,,,,,,,,,,,,,296.64400000000023,,response,,,,100,,,,,,,Space,keypress(Space),,,,,,,,-- --- ---- --- ------ ----- secured ---- -- --- ------- --<br>------- ---------- ------ -- ----- -- ----- -- ---- ------<br>--- ----- --- --- ------ -------- ----- --- ------ ----- --<br>----- ----- ---------- --- --- ------ ------ ---- -- ------<br>------- --- ------ ----- --- ---- ------- -- ---- --- --<br>------- ------,169273,169272.5,168959.235,168961,168975.856,169275.847,,6,secured
screen,html.Screen,2_1_1_1_7,2022-02-17T10:49:02.223Z,,,,,,,,,,,,,,,,,54,,,,,,,,,,,,,,348.55299999943236,,response,,,,100,,,,,,,Space,keypress(Space),,,,,,,,-- --- ---- --- ------ ----- ------- much -- --- ------- --<br>------- ---------- ------ -- ----- -- ----- -- ---- ------<br>--- ----- --- --- ------ -------- ----- --- ------ ----- --<br>----- ----- ---------- --- --- ------ ------ ---- -- ------<br>------- --- ------ ----- --- ---- ------- -- ---- --- --<br>------- ------,169624.7999999998,169624.39999999944,169259.198,169273.09999999963,169275.847,169649.281,,7,much
screen,html.Screen,2_1_1_1_8,2022-02-17T10:49:02.567Z,,,,,,,,,,,,,,,,,54,,,,,,,,,,,,,,319.1189999994531,,response,,,,100,,,,,,,Space,keypress(Space),,,,,,,,-- --- ---- --- ------ ----- ------- ---- of --- ------- --<br>------- ---------- ------ -- ----- -- ----- -- ---- ------<br>--- ----- --- --- ------ -------- ----- --- ------ ----- --<br>----- ----- ---------- --- --- ------ ------ ---- -- ------<br>------- --- ------ ----- --- ---- ------- -- ---- --- --<br>------- ------,169968.7999999998,169968.39999999944,169609.162,169624.89999999944,169649.281,169975.734,,8,of
screen,html.Screen,2_1_1_1_9,2022-02-17T10:49:02.895Z,,,,,,,,,,,,,,,,,54,,,,,,,,,,,,,,320.66599999944447,,response,,,,100,,,,,,,Space,keypress(Space),,,,,,,,-- --- ---- --- ------ ----- ------- ---- -- its ------- --<br>------- ---------- ------ -- ----- -- ----- -- ---- ------<br>--- ----- --- --- ------ -------- ----- --- ------ ----- --<br>----- ----- ---------- --- --- ------ ------ ---- -- ------<br>------- --- ------ ----- --- ---- ------- -- ---- --- --<br>------- ------,170296.89999999944,170296.39999999944,169959.125,169968.89999999944,169975.734,170309.053,,9,its
screen,html.Screen,2_1_1_1_10,2022-02-17T10:49:03.207Z,,,,,,,,,,,,,,,,,54,,,,,,,,,,,,,,299.34699999942677,,response,,,,100,,,,,,,Space,keypress(Space),,,,,,,,-- --- ---- --- ------ ----- ------- ---- -- --- revenue --<br>------- ---------- ------ -- ----- -- ----- -- ---- ------<br>--- ----- --- --- ------ -------- ----- --- ------ ----- --<br>----- ----- ---------- --- --- ------ ------ ---- -- ------<br>------- --- ------ ----- --- ---- ------- -- ---- --- --<br>------- ------,170608.89999999944,170608.39999999944,170292.42,170297,170309.053,170625.663,,10,revenue
screen,html.Screen,2_1_1_1_11,2022-02-17T10:49:03.551Z,,,,,,,,,,,,,,,,,54,,,,,,,,,,,,,,326.73699999944074,,response,,,,100,,,,,,,Space,keypress(Space),,,,,,,,-- --- ---- --- ------ ----- ------- ---- -- --- ------- by<br>------- ---------- ------ -- ----- -- ----- -- ---- ------<br>--- ----- --- --- ------ -------- ----- --- ------ ----- --<br>----- ----- ---------- --- --- ------ ------ ---- -- ------<br>------- --- ------ ----- --- ---- ------- -- ---- --- --<br>------- ------,170952.7999999998,170952.39999999944,170609.021,170608.89999999944,170625.663,170958.954,,11,by
screen,html.Screen,2_1_1_1_12,2022-02-17T10:49:03.959Z,,,,,,,,,,,,,,,,,54,,,,,,,,,,,,,,401.5460000000021,,response,,,,100,,,,,,,Space,keypress(Space),,,,,,,,-- --- ---- --- ------ ----- ------- ---- -- --- ------- --<br>issuing ---------- ------ -- ----- -- ----- -- ---- ------<br>--- ----- --- --- ------ -------- ----- --- ------ ----- --<br>----- ----- ---------- --- --- ------ ------ ---- -- ------<br>------- --- ------ ----- --- ---- ------- -- ---- --- --<br>------- ------,171360.89999999944,171360.5,170942.325,170952.7999999998,170958.954,171375.603,,12,issuing
screen,html.Screen,2_1_1_1_13,2022-02-17T10:49:04.271Z,,,,,,,,,,,,,,,,,54,,,,,,,,,,,,,,296.7969999994384,,response,,,,100,,,,,,,Space,keypress(Space),,,,,,,,-- --- ---- --- ------ ----- ------- ---- -- --- ------- --<br>------- government ------ -- ----- -- ----- -- ---- ------<br>--- ----- --- --- ------ -------- ----- --- ------ ----- --<br>----- ----- ---------- --- --- ------ ------ ---- -- ------<br>------- --- ------ ----- --- ---- ------- -- ---- --- --<br>------- ------,171672.7999999998,171672.39999999944,171358.97,171361,171375.603,171675.54,,13,government
screen,html.Screen,2_1_1_1_14,2022-02-17T10:49:04.695Z,,,,,,,,,,,,,,,,,54,,,,,,,,,,,,,,420.95999999999185,,response,,,,100,,,,,,,Space,keypress(Space),,,,,,,,-- --- ---- --- ------ ----- ------- ---- -- --- ------- --<br>------- ---------- bonds. -- ----- -- ----- -- ---- ------<br>--- ----- --- --- ------ -------- ----- --- ------ ----- --<br>----- ----- ---------- --- --- ------ ------ ---- -- ------<br>------- --- ------ ----- --- ---- ------- -- ---- --- --<br>------- ------,172096.89999999944,172096.5,171658.924,171672.89999999944,171675.54,172108.835,,14,bonds.
screen,html.Screen,2_1_1_1_15,2022-02-17T10:49:05.175Z,,,,,,,,,,,,,,,,,54,,,,,,,,,,,,,,467.56499999944936,,response,,,,100,,,,,,,Space,keypress(Space),,,,,,,,-- --- ---- --- ------ ----- ------- ---- -- --- ------- --<br>------- ---------- ------ In ----- -- ----- -- ---- ------<br>--- ----- --- --- ------ -------- ----- --- ------ ----- --<br>----- ----- ---------- --- --- ------ ------ ---- -- ------<br>------- --- ------ ----- --- ---- ------- -- ---- --- --<br>------- ------,172576.7999999998,172576.39999999944,172092.228,172097,172108.835,172592.111,,15,In
screen,html.Screen,2_1_1_1_16,2022-02-17T10:49:05.487Z,,,,,,,,,,,,,,,,,54,,,,,,,,,,,,,,296.1889999998093,,response,,,,100,,,,,,,Space,keypress(Space),,,,,,,,"-- --- ---- --- ------ ----- ------- ---- -- --- ------- --<br>------- ---------- ------ -- 1727, -- ----- -- ---- ------<br>--- ----- --- --- ------ -------- ----- --- ------ ----- --<br>----- ----- ---------- --- --- ------ ------ ---- -- ------<br>------- --- ------ ----- --- ---- ------- -- ---- --- --<br>------- ------",172888.7000000002,172888.2999999998,172575.47,172577,172592.111,172892.126,,16,"1727,"
screen,html.Screen,2_1_1_1_17,2022-02-17T10:49:06.063Z,,,,,,,,,,,,,,,,,54,,,,,,,,,,,,,,572.3740000000107,,response,,,,100,,,,,,,Space,keypress(Space),,,,,,,,-- --- ---- --- ------ ----- ------- ---- -- --- ------- --<br>------- ---------- ------ -- ----- in ----- -- ---- ------<br>--- ----- --- --- ------ -------- ----- --- ------ ----- --<br>----- ----- ---------- --- --- ------ ------ ---- -- ------<br>------- --- ------ ----- --- ---- ------- -- ---- --- --<br>------- ------,173465,173464.5,172875.445,172888.7000000002,172892.126,173475.356,,17,in
screen,html.Screen,2_1_1_1_18,2022-02-17T10:49:06.375Z,,,,,,,,,,,,,,,,,54,,,,,,,,,,,,,,300.94399999981397,,response,,,,100,,,,,,,Space,keypress(Space),,,,,,,,-- --- ---- --- ------ ----- ------- ---- -- --- ------- --<br>------- ---------- ------ -- ----- -- order -- ---- ------<br>--- ----- --- --- ------ -------- ----- --- ------ ----- --<br>----- ----- ---------- --- --- ------ ------ ---- -- ------<br>------- --- ------ ----- --- ---- ------- -- ---- --- --<br>------- ------,173776.7999999998,173776.2999999998,173458.741,173465.09999999963,173475.356,173791.969,,18,order
screen,html.Screen,2_1_1_1_19,2022-02-17T10:49:06.759Z,,,,,,,,,,,,,,,,,54,,,,,,,,,,,,,,368.43099999942933,,response,,,,100,,,,,,,Space,keypress(Space),,,,,,,,-- --- ---- --- ------ ----- ------- ---- -- --- ------- --<br>------- ---------- ------ -- ----- -- ----- to ---- ------<br>--- ----- --- --- ------ -------- ----- --- ------ ----- --<br>----- ----- ---------- --- --- ------ ------ ---- -- ------<br>------- --- ------ ----- --- ---- ------- -- ---- --- --<br>------- ------,174160.7000000002,174160.39999999944,173775.364,173776.7999999998,173791.969,174175.254,,19,to
screen,html.Screen,2_1_1_1_20,2022-02-17T10:49:07.071Z,,,,,,,,,,,,,,,,,54,,,,,,,,,,,,,,297.14599999945494,,response,,,,100,,,,,,,Space,keypress(Space),,,,,,,,-- --- ---- --- ------ ----- ------- ---- -- --- ------- --<br>------- ---------- ------ -- ----- -- ----- -- save ------<br>--- ----- --- --- ------ -------- ----- --- ------ ----- --<br>----- ----- ---------- --- --- ------ ------ ---- -- ------<br>------- --- ------ ----- --- ---- ------- -- ---- --- --<br>------- ------,174472.7999999998,174472.39999999944,174158.624,174160.7999999998,174175.254,174475.225,,20,save
screen,html.Screen,2_1_1_1_21,2022-02-17T10:49:07.383Z,,,,,,,,,,,,,,,,,54,,,,,,,,,,,,,,309.1749999994354,,response,,,,100,,,,,,,Space,keypress(Space),,,,,,,,"-- --- ---- --- ------ ----- ------- ---- -- --- ------- --<br>------- ---------- ------ -- ----- -- ----- -- ---- money,<br>--- ----- --- --- ------ -------- ----- --- ------ ----- --<br>----- ----- ---------- --- --- ------ ------ ---- -- ------<br>------- --- ------ ----- --- ---- ------- -- ---- --- --<br>------- ------",174784.7999999998,174784.39999999944,174458.581,174473,174475.225,174791.848,,21,"money,"
screen,html.Screen,2_1_1_1_22,2022-02-17T10:49:07.879Z,,,,,,,,,,,,,,,,,54,,,,,,,,,,,,,,488.65200000000186,,response,,,,100,,,,,,,Space,keypress(Space),,,,,,,,-- --- ---- --- ------ ----- ------- ---- -- --- ------- --<br>------- ---------- ------ -- ----- -- ----- -- ---- ------<br>the ----- --- --- ------ -------- ----- --- ------ ----- --<br>----- ----- ---------- --- --- ------ ------ ---- -- ------<br>------- --- ------ ----- --- ---- ------- -- ---- --- --<br>------- ------,175280.89999999944,175280.5,174775.225,174784.7999999998,174791.848,175291.803,,22,the
screen,html.Screen,2_1_1_1_23,2022-02-17T10:49:08.175Z,,,,,,,,,,,,,,,,,54,,,,,,,,,,,,,,284.59699999942677,,response,,,,100,,,,,,,Space,keypress(Space),,,,,,,,-- --- ---- --- ------ ----- ------- ---- -- --- ------- --<br>------- ---------- ------ -- ----- -- ----- -- ---- ------<br>--- state --- --- ------ -------- ----- --- ------ ----- --<br>----- ----- ---------- --- --- ------ ------ ---- -- ------<br>------- --- ------ ----- --- ---- ------- -- ---- --- --<br>------- ------,175577,175576.39999999944,175275.168,175281,175291.803,175591.777,,23,state
screen,html.Screen,2_1_1_1_24,2022-02-17T10:49:08.599Z,,,,,,,,,,,,,,,,,54,,,,,,,,,,,,,,408.5229999998119,,response,,,,100,,,,,,,Space,keypress(Space),,,,,,,,-- --- ---- --- ------ ----- ------- ---- -- --- ------- --<br>------- ---------- ------ -- ----- -- ----- -- ---- ------<br>--- ----- cut --- ------ -------- ----- --- ------ ----- --<br>----- ----- ---------- --- --- ------ ------ ---- -- ------<br>------- --- ------ ----- --- ---- ------- -- ---- --- --<br>------- ------,176000.7000000002,176000.2999999998,175575.123,175577.09999999963,175591.777,176008.388,,24,cut
screen,html.Screen,2_1_1_1_25,2022-02-17T10:49:09.063Z,,,,,,,,,,,,,,,,,54,,,,,,,,,,,,,,456.1119999999937,,response,,,,100,,,,,,,Space,keypress(Space),,,,,,,,-- --- ---- --- ------ ----- ------- ---- -- --- ------- --<br>------- ---------- ------ -- ----- -- ----- -- ---- ------<br>--- ----- --- the ------ -------- ----- --- ------ ----- --<br>----- ----- ---------- --- --- ------ ------ ---- -- ------<br>------- --- ------ ----- --- ---- ------- -- ---- --- --<br>------- ------,176464.89999999944,176464.5,175991.749,176000.7999999998,176008.388,176475.009,,25,the
screen,html.Screen,2_1_1_1_26,2022-02-17T10:49:09.407Z,,,,,,,,,,,,,,,,,54,,,,,,,,,,,,,,333.59099999963655,,response,,,,100,,,,,,,Space,keypress(Space),,,,,,,,-- --- ---- --- ------ ----- ------- ---- -- --- ------- --<br>------- ---------- ------ -- ----- -- ----- -- ---- ------<br>--- ----- --- --- bonds' -------- ----- --- ------ ----- --<br>----- ----- ---------- --- --- ------ ------ ---- -- ------<br>------- --- ------ ----- --- ---- ------- -- ---- --- --<br>------- ------,176809.09999999963,176808.59999999963,176458.366,176464.89999999944,176475.009,176824.973,,26,bonds'
screen,html.Screen,2_1_1_1_27,2022-02-17T10:49:09.896Z,,,,,,,,,,,,,,,,,54,,,,,,,,,,,,,,472.2270000001881,,response,,,,100,,,,,,,Space,keypress(Space),,,,,,,,-- --- ---- --- ------ ----- ------- ---- -- --- ------- --<br>------- ---------- ------ -- ----- -- ----- -- ---- ------<br>--- ----- --- --- ------ interest ----- --- ------ ----- --<br>----- ----- ---------- --- --- ------ ------ ---- -- ------<br>------- --- ------ ----- --- ---- ------- -- ---- --- --<br>------- ------,177297.59999999963,177297.2000000002,176808.316,176809.2000000002,176824.973,177308.232,,27,interest
screen,html.Screen,2_1_1_1_28,2022-02-17T10:49:10.271Z,,,,,,,,,,,,,,,,,54,,,,,,,,,,,,,,364.16799999945215,,response,,,,100,,,,,,,Space,keypress(Space),,,,,,,,-- --- ---- --- ------ ----- ------- ---- -- --- ------- --<br>------- ---------- ------ -- ----- -- ----- -- ---- ------<br>--- ----- --- --- ------ -------- rate. --- ------ ----- --<br>----- ----- ---------- --- --- ------ ------ ---- -- ------<br>------- --- ------ ----- --- ---- ------- -- ---- --- --<br>------- ------,177672.7000000002,177672.39999999944,177291.601,177297.7000000002,177308.232,177674.862,,28,rate.
screen,html.Screen,2_1_1_1_29,2022-02-17T10:49:10.671Z,,,,,,,,,,,,,,,,,54,,,,,,,,,,,,,,397.5379999994475,,response,,,,100,,,,,,,Space,keypress(Space),,,,,,,,-- --- ---- --- ------ ----- ------- ---- -- --- ------- --<br>------- ---------- ------ -- ----- -- ----- -- ---- ------<br>--- ----- --- --- ------ -------- ----- The ------ ----- --<br>----- ----- ---------- --- --- ------ ------ ---- -- ------<br>------- --- ------ ----- --- ---- ------- -- ---- --- --<br>------- ------,178072.7999999998,178072.39999999944,177658.222,177672.89999999944,177674.862,178074.818,,29,The
screen,html.Screen,2_1_1_1_30,2022-02-17T10:49:11.071Z,,,,,,,,,,,,,,,,,54,,,,,,,,,,,,,,397.5819999994419,,response,,,,100,,,,,,,Space,keypress(Space),,,,,,,,-- --- ---- --- ------ ----- ------- ---- -- --- ------- --<br>------- ---------- ------ -- ----- -- ----- -- ---- ------<br>--- ----- --- --- ------ -------- ----- --- market ----- --<br>----- ----- ---------- --- --- ------ ------ ---- -- ------<br>------- --- ------ ----- --- ---- ------- -- ---- --- --<br>------- ------,178472.7999999998,178472.39999999944,178058.197,178072.89999999944,178074.818,178474.768,,30,market
screen,html.Screen,2_1_1_1_31,2022-02-17T10:49:11.463Z,,,,,,,,,,,,,,,,,54,,,,,,,,,,,,,,389.5319999998028,,response,,,,100,,,,,,,Space,keypress(Space),,,,,,,,-- --- ---- --- ------ ----- ------- ---- -- --- ------- --<br>------- ---------- ------ -- ----- -- ----- -- ---- ------<br>--- ----- --- --- ------ -------- ----- --- ------ value --<br>----- ----- ---------- --- --- ------ ------ ---- -- ------<br>------- --- ------ ----- --- ---- ------- -- ---- --- --<br>------- ------,178864.7000000002,178864.2999999998,178458.148,178472.89999999944,178474.768,178874.727,,31,value
screen,html.Screen,2_1_1_1_32,2022-02-17T10:49:11.807Z,,,,,,,,,,,,,,,,,54,,,,,,,,,,,,,,333.6729999994277,,response,,,,100,,,,,,,Space,keypress(Space),,,,,,,,-- --- ---- --- ------ ----- ------- ---- -- --- ------- --<br>------- ---------- ------ -- ----- -- ----- -- ---- ------<br>--- ----- --- --- ------ -------- ----- --- ------ ----- of<br>----- ----- ---------- --- --- ------ ------ ---- -- ------<br>------- --- ------ ----- --- ---- ------- -- ---- --- --<br>------- ------,179208.89999999944,179208.39999999944,178858.107,178864.7999999998,178874.727,179224.68,,32,of
screen,html.Screen,2_1_1_1_33,2022-02-17T10:49:12.207Z,,,,,,,,,,,,,,,,,54,,,,,,,,,,,,,,383.7199999994482,,response,,,,100,,,,,,,Space,keypress(Space),,,,,,,,-- --- ---- --- ------ ----- ------- ---- -- --- ------- --<br>------- ---------- ------ -- ----- -- ----- -- ---- ------<br>--- ----- --- --- ------ -------- ----- --- ------ ----- --<br>these ----- ---------- --- --- ------ ------ ---- -- ------<br>------- --- ------ ----- --- ---- ------- -- ---- --- --<br>------- ------,179608.7999999998,179608.39999999944,179208.039,179209,179224.68,179624.637,,33,these
screen,html.Screen,2_1_1_1_34,2022-02-17T10:49:12.519Z,,,,,,,,,,,,,,,,,54,,,,,,,,,,,,,,295.8630000000121,,response,,,,100,,,,,,,Space,keypress(Space),,,,,,,,-- --- ---- --- ------ ----- ------- ---- -- --- ------- --<br>------- ---------- ------ -- ----- -- ----- -- ---- ------<br>--- ----- --- --- ------ -------- ----- --- ------ ----- --<br>----- bonds ---------- --- --- ------ ------ ---- -- ------<br>------- --- ------ ----- --- ---- ------- -- ---- --- --<br>------- ------,179920.89999999944,179920.5,179608.002,179608.89999999944,179624.637,179924.589,,34,bonds
screen,html.Screen,2_1_1_1_35,2022-02-17T10:49:12.943Z,,,,,,,,,,,,,,,,,54,,,,,,,,,,,,,,419.810999999434,,response,,,,100,,,,,,,Space,keypress(Space),,,,,,,,"-- --- ---- --- ------ ----- ------- ---- -- --- ------- --<br>------- ---------- ------ -- ----- -- ----- -- ---- ------<br>--- ----- --- --- ------ -------- ----- --- ------ ----- --<br>----- ----- plummeted, --- --- ------ ------ ---- -- ------<br>------- --- ------ ----- --- ---- ------- -- ---- --- --<br>------- ------",180345,180344.39999999944,179907.953,179920.89999999944,179924.589,180357.882,,35,"plummeted,"
screen,html.Screen,2_1_1_1_36,2022-02-17T10:49:13.375Z,,,,,,,,,,,,,,,,,54,,,,,,,,,,,,,,418.51799999942887,,response,,,,100,,,,,,,Space,keypress(Space),,,,,,,,-- --- ---- --- ------ ----- ------- ---- -- --- ------- --<br>------- ---------- ------ -- ----- -- ----- -- ---- ------<br>--- ----- --- --- ------ -------- ----- --- ------ ----- --<br>----- ----- ---------- and --- ------ ------ ---- -- ------<br>------- --- ------ ----- --- ---- ------- -- ---- --- --<br>------- ------,180776.7999999998,180776.39999999944,180341.249,180345.09999999963,180357.882,180791.164,,36,and
screen,html.Screen,2_1_1_1_37,2022-02-17T10:49:13.703Z,,,,,,,,,,,,,,,,,54,,,,,,,,,,,,,,313.33600000001024,,response,,,,100,,,,,,,Space,keypress(Space),,,,,,,,-- --- ---- --- ------ ----- ------- ---- -- --- ------- --<br>------- ---------- ------ -- ----- -- ----- -- ---- ------<br>--- ----- --- --- ------ -------- ----- --- ------ ----- --<br>----- ----- ---------- --- the ------ ------ ---- -- ------<br>------- --- ------ ----- --- ---- ------- -- ---- --- --<br>------- ------,181104.89999999944,181104.5,180774.534,180776.89999999944,180791.164,181107.796,,37,the
screen,html.Screen,2_1_1_1_38,2022-02-17T10:49:14.023Z,,,,,,,,,,,,,,,,,54,,,,,,,,,,,,,,316.6039999994391,,response,,,,100,,,,,,,Space,keypress(Space),,,,,,,,-- --- ---- --- ------ ----- ------- ---- -- --- ------- --<br>------- ---------- ------ -- ----- -- ----- -- ---- ------<br>--- ----- --- --- ------ -------- ----- --- ------ ----- --<br>----- ----- ---------- --- --- market ------ ---- -- ------<br>------- --- ------ ----- --- ---- ------- -- ---- --- --<br>------- ------,181425.09999999963,181424.39999999944,181091.154,181105,181107.796,181441.093,,38,market
screen,html.Screen,2_1_1_1_39,2022-02-17T10:49:14.415Z,,,,,,,,,,,,,,,,,54,,,,,,,,,,,,,,375.3069999994477,,response,,,,100,,,,,,,Space,keypress(Space),,,,,,,,-- --- ---- --- ------ ----- ------- ---- -- --- ------- --<br>------- ---------- ------ -- ----- -- ----- -- ---- ------<br>--- ----- --- --- ------ -------- ----- --- ------ ----- --<br>----- ----- ---------- --- --- ------ became ---- -- ------<br>------- --- ------ ----- --- ---- ------- -- ---- --- --<br>------- ------,181816.7000000002,181816.39999999944,181424.471,181425.2000000002,181441.093,181824.377,,39,became
screen,html.Screen,2_1_1_1_40,2022-02-17T10:49:14.703Z,,,,,,,,,,,,,,,,,54,,,,,,,,,,,,,,280.0229999994335,,response,,,,100,,,,,,,Space,keypress(Space),,,,,,,,-- --- ---- --- ------ ----- ------- ---- -- --- ------- --<br>------- ---------- ------ -- ----- -- ----- -- ---- ------<br>--- ----- --- --- ------ -------- ----- --- ------ ----- --<br>----- ----- ---------- --- --- ------ ------ wary -- ------<br>------- --- ------ ----- --- ---- ------- -- ---- --- --<br>------- ------,182104.7999999998,182104.39999999944,181807.774,181816.7999999998,181824.377,182107.681,,40,wary
screen,html.Screen,2_1_1_1_41,2022-02-17T10:49:15.079Z,,,,,,,,,,,,,,,,,54,,,,,,,,,,,,,,372.7189999994298,,response,,,,100,,,,,,,Space,keypress(Space),,,,,,,,-- --- ---- --- ------ ----- ------- ---- -- --- ------- --<br>------- ---------- ------ -- ----- -- ----- -- ---- ------<br>--- ----- --- --- ------ -------- ----- --- ------ ----- --<br>----- ----- ---------- --- --- ------ ------ ---- of ------<br>------- --- ------ ----- --- ---- ------- -- ---- --- --<br>------- ------,182480.7000000002,182480.39999999944,182091.035,182104.89999999944,182107.681,182490.975,,41,of
screen,html.Screen,2_1_1_1_42,2022-02-17T10:49:15.463Z,,,,,,,,,,,,,,,,,54,,,,,,,,,,,,,,373.5249999999942,,response,,,,100,,,,,,,Space,keypress(Space),,,,,,,,-- --- ---- --- ------ ----- ------- ---- -- --- ------- --<br>------- ---------- ------ -- ----- -- ----- -- ---- ------<br>--- ----- --- --- ------ -------- ----- --- ------ ----- --<br>----- ----- ---------- --- --- ------ ------ ---- -- French<br>------- --- ------ ----- --- ---- ------- -- ---- --- --<br>------- ------,182865,182864.5,182474.358,182480.7999999998,182490.975,182874.27,,42,French
screen,html.Screen,2_1_1_1_43,2022-02-17T10:49:15.847Z,,,,,,,,,,,,,,,,,54,,,,,,,,,,,,,,374.2300000000105,,response,,,,100,,,,,,,Space,keypress(Space),,,,,,,,-- --- ---- --- ------ ----- ------- ---- -- --- ------- --<br>------- ---------- ------ -- ----- -- ----- -- ---- ------<br>--- ----- --- --- ------ -------- ----- --- ------ ----- --<br>----- ----- ---------- --- --- ------ ------ ---- -- ------<br>credit. --- ------ ----- --- ---- ------- -- ---- --- --<br>------- ------,183248.89999999944,183248.5,182857.628,182865.09999999963,182874.27,183257.552,,43,credit.
screen,html.Screen,2_1_1_1_44,2022-02-17T10:49:16.271Z,,,,,,,,,,,,,,,,,54,,,,,,,,,,,,,,414.94800000000396,,response,,,,100,,,,,,,Space,keypress(Space),,,,,,,,-- --- ---- --- ------ ----- ------- ---- -- --- ------- --<br>------- ---------- ------ -- ----- -- ----- -- ---- ------<br>--- ----- --- --- ------ -------- ----- --- ------ ----- --<br>----- ----- ---------- --- --- ------ ------ ---- -- ------<br>------- The ------ ----- --- ---- ------- -- ---- --- --<br>------- ------,183672.89999999944,183672.5,183240.931,183249,183257.552,183696.919,,44,The
screen,html.Screen,2_1_1_1_45,2022-02-17T10:49:16.615Z,,,,,,,,,,,,,,,,,54,,,,,,,,,,,,,,319.4809999994468,,response,,,,100,,,,,,,Space,keypress(Space),,,,,,,,-- --- ---- --- ------ ----- ------- ---- -- --- ------- --<br>------- ---------- ------ -- ----- -- ----- -- ---- ------<br>--- ----- --- --- ------ -------- ----- --- ------ ----- --<br>----- ----- ---------- --- --- ------ ------ ---- -- ------<br>------- --- French ----- --- ---- ------- -- ---- --- --<br>------- ------,184016.7999999998,184016.39999999944,183657.536,183673,183696.919,184024.131,,45,French
screen,html.Screen,2_1_1_1_46,2022-02-17T10:49:16.967Z,,,,,,,,,,,,,,,,,54,,,,,,,,,,,,,,344.1689999998198,,response,,,,100,,,,,,,Space,keypress(Space),,,,,,,,-- --- ---- --- ------ ----- ------- ---- -- --- ------- --<br>------- ---------- ------ -- ----- -- ----- -- ---- ------<br>--- ----- --- --- ------ -------- ----- --- ------ ----- --<br>----- ----- ---------- --- --- ------ ------ ---- -- ------<br>------- --- ------ state --- ---- ------- -- ---- --- --<br>------- ------,184368.7000000002,184368.2999999998,184007.515,184016.89999999944,184024.131,184374.095,,46,state
screen,html.Screen,2_1_1_1_47,2022-02-17T10:49:17.375Z,,,,,,,,,,,,,,,,,54,,,,,,,,,,,,,,402.30499999944004,,response,,,,100,,,,,,,Space,keypress(Space),,,,,,,,-- --- ---- --- ------ ----- ------- ---- -- --- ------- --<br>------- ---------- ------ -- ----- -- ----- -- ---- ------<br>--- ----- --- --- ------ -------- ----- --- ------ ----- --<br>----- ----- ---------- --- --- ------ ------ ---- -- ------<br>------- --- ------ ----- was ---- ------- -- ---- --- --<br>------- ------,184776.7000000002,184776.39999999944,184357.456,184368.89999999944,184374.095,184790.711,,47,was
screen,html.Screen,2_1_1_1_48,2022-02-17T10:49:17.695Z,,,,,,,,,,,,,,,,,54,,,,,,,,,,,,,,305.5889999998035,,response,,,,100,,,,,,,Space,keypress(Space),,,,,,,,-- --- ---- --- ------ ----- ------- ---- -- --- ------- --<br>------- ---------- ------ -- ----- -- ----- -- ---- ------<br>--- ----- --- --- ------ -------- ----- --- ------ ----- --<br>----- ----- ---------- --- --- ------ ------ ---- -- ------<br>------- --- ------ ----- --- left ------- -- ---- --- --<br>------- ------,185096.7999999998,185096.2999999998,184774.075,184776.7999999998,184790.711,185107.343,,48,left
screen,html.Screen,2_1_1_1_49,2022-02-17T10:49:18.063Z,,,,,,,,,,,,,,,,,54,,,,,,,,,,,,,,357.1570000000065,,response,,,,100,,,,,,,Space,keypress(Space),,,,,,,,-- --- ---- --- ------ ----- ------- ---- -- --- ------- --<br>------- ---------- ------ -- ----- -- ----- -- ---- ------<br>--- ----- --- --- ------ -------- ----- --- ------ ----- --<br>----- ----- ---------- --- --- ------ ------ ---- -- ------<br>------- --- ------ ----- --- ---- without -- ---- --- --<br>------- ------,185465,185464.5,185090.703,185096.7999999998,185107.343,185473.96,,49,without
screen,html.Screen,2_1_1_1_50,2022-02-17T10:49:18.407Z,,,,,,,,,,,,,,,,,54,,,,,,,,,,,,,,334.43999999944936,,response,,,,100,,,,,,,Space,keypress(Space),,,,,,,,-- --- ---- --- ------ ----- ------- ---- -- --- ------- --<br>------- ---------- ------ -- ----- -- ----- -- ---- ------<br>--- ----- --- --- ------ -------- ----- --- ------ ----- --<br>----- ----- ---------- --- --- ------ ------ ---- -- ------<br>------- --- ------ ----- --- ---- ------- an ---- --- --<br>------- ------,185808.7000000002,185808.39999999944,185457.326,185465.09999999963,185473.96,185823.956,,50,an
screen,html.Screen,2_1_1_1_51,2022-02-17T10:49:18.767Z,,,,,,,,,,,,,,,,,54,,,,,,,,,,,,,,344.5439999999944,,response,,,,100,,,,,,,Space,keypress(Space),,,,,,,,-- --- ---- --- ------ ----- ------- ---- -- --- ------- --<br>------- ---------- ------ -- ----- -- ----- -- ---- ------<br>--- ----- --- --- ------ -------- ----- --- ------ ----- --<br>----- ----- ---------- --- --- ------ ------ ---- -- ------<br>------- --- ------ ----- --- ---- ------- -- easy --- --<br>------- ------,186168.89999999944,186168.5,185807.305,185808.7999999998,185823.956,186173.876,,51,easy
screen,html.Screen,2_1_1_1_52,2022-02-17T10:49:19.047Z,,,,,,,,,,,,,,,,,54,,,,,,,,,,,,,,274.5239999994519,,response,,,,100,,,,,,,Space,keypress(Space),,,,,,,,-- --- ---- --- ------ ----- ------- ---- -- --- ------- --<br>------- ---------- ------ -- ----- -- ----- -- ---- ------<br>--- ----- --- --- ------ -------- ----- --- ------ ----- --<br>----- ----- ---------- --- --- ------ ------ ---- -- ------<br>------- --- ------ ----- --- ---- ------- -- ---- way --<br>------- ------,186448.7999999998,186448.39999999944,186157.252,186169.09999999963,186173.876,186457.186,,52,way
screen,html.Screen,2_1_1_1_53,2022-02-17T10:49:19.415Z,,,,,,,,,,,,,,,,,54,,,,,,,,,,,,,,359.21399999945424,,response,,,,100,,,,,,,Space,keypress(Space),,,,,,,,-- --- ---- --- ------ ----- ------- ---- -- --- ------- --<br>------- ---------- ------ -- ----- -- ----- -- ---- ------<br>--- ----- --- --- ------ -------- ----- --- ------ ----- --<br>----- ----- ---------- --- --- ------ ------ ---- -- ------<br>------- --- ------ ----- --- ---- ------- -- ---- --- of<br>------- ------,186816.7999999998,186816.39999999944,186440.538,186448.7999999998,186457.186,186823.809,,53,of
screen,html.Screen,2_1_1_1_54,2022-02-17T10:49:19.791Z,,,,,,,,,,,,,,,,,54,,,,,,,,,,,,,,368.6909999999916,,response,,,,100,,,,,,,Space,keypress(Space),,,,,,,,-- --- ---- --- ------ ----- ------- ---- -- --- ------- --<br>------- ---------- ------ -- ----- -- ----- -- ---- ------<br>--- ----- --- --- ------ -------- ----- --- ------ ----- --<br>----- ----- ---------- --- --- ------ ------ ---- -- ------<br>------- --- ------ ----- --- ---- ------- -- ---- --- --<br>raising ------,187192.89999999944,187192.5,186807.175,186816.89999999944,186823.809,187207.103,,54,raising
screen,html.Screen,2_1_1_1_55,2022-02-17T10:49:20.103Z,,,,,,,,,,,,,,,,,54,,,,,,,,,,,,,,297.59700000018347,,response,,,,100,,,,,,,Space,keypress(Space),,,,,,,,-- --- ---- --- ------ ----- ------- ---- -- --- ------- --<br>------- ---------- ------ -- ----- -- ----- -- ---- ------<br>--- ----- --- --- ------ -------- ----- --- ------ ----- --<br>----- ----- ---------- --- --- ------ ------ ---- -- ------<br>------- --- ------ ----- --- ---- ------- -- ---- --- --<br>------- money.,187505.2000000002,187504.7000000002,187190.461,187193,187207.103,187507.069,,55,money.
Item 100,flow.Loop,2_1_1_1,2022-02-17T10:49:20.104Z,,,,,,,,,,,,,,,,,,,,,,,,,,,,,,,21245.185000000172,,completion,,,,,C,,,,,,,,,,,silence,,,,,187505.39999999944,187504.7000000002,166242.844,166243.5,166259.515,187507.069,,,
Question 1,html.Screen,2_1_1_2,2022-02-17T10:49:23.353Z,,,,,,,,,,,,,,,,,,,,,,,,,,,,true,TRUE,,3247.030999999639,,response,,,,100,C,,,,,,TRUE,click #choice-1,,,,silence,,,,,190754.7000000002,190754.09999999963,187490.42,187505.59999999963,187507.069,190756.697,,,
Question 2,html.Screen,2_1_1_3,2022-02-17T10:49:25.447Z,,,,,,,,,,,,,,,,,,,,,,,,,,,,true,FALSE,,2091.602999999828,,response,,,,100,C,,,,,,FALSE,click #choice-2,,,,silence,,,,,192848.7999999998,192848.2999999998,190740.052,190754.7999999998,190756.697,192856.456,,,
Item 100,flow.Sequence,2_1_1,2022-02-17T10:49:25.447Z,,,,,,,,,,,,,,,,,,,,,,,,,,,,,,,36587.58499999982,,completion,,,,,,,,,,,,,,,,,,,,,192849,192848.2999999998,156243.997,156255,156260.715,192856.456,,,
End of Practice,html.Page,2_1_2,2022-02-17T10:49:29.567Z,,,,,,,,,,,,,,,,,,,,,,,,,,,,,,,4112.143999999622,,form submission,,,,,,,,,,,,,,,,,,,,,196968.89999999944,196968.59999999963,192839.831,192849.09999999963,192856.456,196972.644,,,
Practice,flow.Sequence,2_1,2022-02-17T10:49:29.567Z,,,,,,,,,,,,,,,,,,,,,,,,,,,,,,,84069.62599999963,,completion,,,,,,,,,,,,,,,,,,,,,196969,196968.59999999963,112882.309,112885.5,112898.974,196972.644,,,
Trap_instruction,html.Page,2_2_0,2022-02-17T10:49:34.153Z,,,,,,,,,,,,,,,,,,,,,,,,,,,,,,,4582.356,,form submission,,,,,,,,,,,,,,,,,,,,,201555.2000000002,201555,196956.011,196969.09999999963,196972.644,201572.123,,,
trap_trial,html.Screen,2_2_1,2022-02-17T10:49:37.295Z,,,,,,,,,,,,,,,,,,,,,,,,,,,,true,1,,3124.1769999998214,,response,,,,,,,,,,,1,click #choice-1,,,,,,,,,204697.09999999963,204696.2999999998,201555.482,201555.2999999998,201572.123,204705.099,,,
end of trap trial,html.Page,2_2_2,2022-02-17T10:49:38.930Z,,,,,,,,,,,,,,,,,,,,,,,,,,,,,,,1626.1010000001988,,form submission,,,,,,,,,,,,,,,,,,,,,206331.5,206331.2000000002,204688.444,204697.2000000002,204705.099,206338.269,,,
Trap 1,flow.Sequence,2_2,2022-02-17T10:49:38.930Z,,,,,,,,,,,,,,,,,,,,,,,,,,,,,,,9358.556000000186,,completion,,,,,,,,,,,,,,,,,,,,,206331.59999999963,206331.2000000002,196956.011,196969,196972.644,206338.269,,,
Standby,html.Page,2_3_0,2022-02-17T10:49:46.919Z,,,,,,,,,,,,,,,,,,,,,,,,,,,,,,,7999.05799999999,,timeout,,,,,,,,,,,,,,,,,,,,,214321.2000000002,214320.661,206321.575,206331.7000000002,206338.269,214337.327,,,
Holding screen,html.Screen,2_3_1_0_0,2022-02-17T10:49:53.919Z,,,,,,,,,,,,,,,,,,,,,,,,,,,,,,,6999.208000000013,,timeout,,,,,,,,,,,,,,,,,,,,,221320.39999999944,221319.851,214320.661,214321.2999999998,214337.327,221336.535,,,
screen,html.Screen,2_3_1_0_1_0,2022-02-17T10:49:54.663Z,,,,,,,,,,,,,,,,,51,,,,,,,,,,,,,,728.1650000001828,,response,,,,13,C,,,,,,Space,keypress(Space),,,,instrumental,,,,American -------- --- --- ---- --- --- ------ -- --------<br>---- --------- --- ------- ------------ ---------- ---------<br>--- ---------- ------- ---------- ------- -- -------- ----<br>---- --- ------ ----- ------ -- ---- --- ----- -- - -------<br>-------- -- --- --- -- ----- ----------- ----- -----------<br>---- --- ---------- --- ---- --- -- ----------,222065.2000000002,222064.7000000002,221319.851,221320.59999999963,221336.535,222069.775,,0,American
screen,html.Screen,2_3_1_0_1_1,2022-02-17T10:49:55.159Z,,,,,,,,,,,,,,,,,51,,,,,,,,,,,,,,490.7250000000058,,response,,,,13,C,,,,,,Space,keypress(Space),,,,instrumental,,,,-------- industry --- --- ---- --- --- ------ -- --------<br>---- --------- --- ------- ------------ ---------- ---------<br>--- ---------- ------- ---------- ------- -- -------- ----<br>---- --- ------ ----- ------ -- ---- --- ----- -- - -------<br>-------- -- --- --- -- ----- ----------- ----- -----------<br>---- --- ---------- --- ---- --- -- ----------,222560.89999999944,222560.5,222053.149,222065.2999999998,222069.775,222569.741,,1,industry
screen,html.Screen,2_3_1_0_1_2,2022-02-17T10:49:55.639Z,,,,,,,,,,,,,,,,,51,,,,,,,,,,,,,,470.6589999994321,,response,,,,13,C,,,,,,Space,keypress(Space),,,,instrumental,,,,-------- -------- may --- ---- --- --- ------ -- --------<br>---- --------- --- ------- ------------ ---------- ---------<br>--- ---------- ------- ---------- ------- -- -------- ----<br>---- --- ------ ----- ------ -- ---- --- ----- -- - -------<br>-------- -- --- --- -- ----- ----------- ----- -----------<br>---- --- ---------- --- ---- --- -- ----------,223040.7999999998,223040.39999999944,222553.081,222561,222569.741,223052.992,,2,may
screen,html.Screen,2_3_1_0_1_3,2022-02-17T10:49:56.255Z,,,,,,,,,,,,,,,,,51,,,,,,,,,,,,,,603.5080000000016,,response,,,,13,C,,,,,,Space,keypress(Space),,,,instrumental,,,,-------- -------- --- not ---- --- --- ------ -- --------<br>---- --------- --- ------- ------------ ---------- ---------<br>--- ---------- ------- ---------- ------- -- -------- ----<br>---- --- ------ ----- ------ -- ---- --- ----- -- - -------<br>-------- -- --- --- -- ----- ----------- ----- -----------<br>---- --- ---------- --- ---- --- -- ----------,223656.89999999944,223656.5,223036.354,223040.89999999944,223052.992,223669.584,,3,not
screen,html.Screen,2_3_1_0_1_4,2022-02-17T10:49:56.735Z,,,,,,,,,,,,,,,,,51,,,,,,,,,,,,,,466.91599999999744,,response,,,,13,C,,,,,,Space,keypress(Space),,,,instrumental,,,,-------- -------- --- --- know --- --- ------ -- --------<br>---- --------- --- ------- ------------ ---------- ---------<br>--- ---------- ------- ---------- ------- -- -------- ----<br>---- --- ------ ----- ------ -- ---- --- ----- -- - -------<br>-------- -- --- --- -- ----- ----------- ----- -----------<br>---- --- ---------- --- ---- --- -- ----------,224137,224136.5,223652.958,223657,223669.584,224152.901,,4,know
screen,html.Screen,2_3_1_0_1_5,2022-02-17T10:49:57.079Z,,,,,,,,,,,,,,,,,51,,,,,,,,,,,,,,327.7990000001737,,response,,,,13,C,,,,,,Space,keypress(Space),,,,instrumental,,,,"-------- -------- --- --- ---- it, --- ------ -- --------<br>---- --------- --- ------- ------------ ---------- ---------<br>--- ---------- ------- ---------- ------- -- -------- ----<br>---- --- ------ ----- ------ -- ---- --- ----- -- - -------<br>-------- -- --- --- -- ----- ----------- ----- -----------<br>---- --- ---------- --- ---- --- -- ----------",224481.09999999963,224480.7000000002,224136.246,224137.09999999963,224152.901,224486.207,,5,"it,"
screen,html.Screen,2_3_1_0_1_6,2022-02-17T10:49:57.599Z,,,,,,,,,,,,,,,,,51,,,,,,,,,,,,,,514.5929999998189,,response,,,,13,C,,,,,,Space,keypress(Space),,,,instrumental,,,,-------- -------- --- --- ---- --- but ------ -- --------<br>---- --------- --- ------- ------------ ---------- ---------<br>--- ---------- ------- ---------- ------- -- -------- ----<br>---- --- ------ ----- ------ -- ---- --- ----- -- - -------<br>-------- -- --- --- -- ----- ----------- ----- -----------<br>---- --- ---------- --- ---- --- -- ----------,225001.2000000002,225000.7999999998,224469.51,224481.09999999963,224486.207,225002.764,,6,but
screen,html.Screen,2_3_1_0_1_7,2022-02-17T10:49:57.959Z,,,,,,,,,,,,,,,,,51,,,,,,,,,,,,,,357.63599999944563,,response,,,,13,C,,,,,,Space,keypress(Space),,,,instrumental,,,,-------- -------- --- --- ---- --- --- debate -- --------<br>---- --------- --- ------- ------------ ---------- ---------<br>--- ---------- ------- ---------- ------- -- -------- ----<br>---- --- ------ ----- ------ -- ---- --- ----- -- - -------<br>-------- -- --- --- -- ----- ----------- ----- -----------<br>---- --- ---------- --- ---- --- -- ----------,225360.7999999998,225360.39999999944,224986.162,225001.2000000002,225002.764,225369.394,,7,debate
screen,html.Screen,2_3_1_0_1_8,2022-02-17T10:49:58.327Z,,,,,,,,,,,,,,,,,51,,,,,,,,,,,,,,359.10599999999977,,response,,,,13,C,,,,,,Space,keypress(Space),,,,instrumental,,,,-------- -------- --- --- ---- --- --- ------ in --------<br>---- --------- --- ------- ------------ ---------- ---------<br>--- ---------- ------- ---------- ------- -- -------- ----<br>---- --- ------ ----- ------ -- ---- --- ----- -- - -------<br>-------- -- --- --- -- ----- ----------- ----- -----------<br>---- --- ---------- --- ---- --- -- ----------,225729,225728.5,225352.75,225360.89999999944,225369.394,225736.043,,8,in
screen,html.Screen,2_3_1_0_1_9,2022-02-17T10:49:58.752Z,,,,,,,,,,,,,,,,,51,,,,,,,,,,,,,,416.55699999962235,,response,,,,13,C,,,,,,Space,keypress(Space),,,,instrumental,,,,-------- -------- --- --- ---- --- --- ------ -- Congress<br>---- --------- --- ------- ------------ ---------- ---------<br>--- ---------- ------- ---------- ------- -- -------- ----<br>---- --- ------ ----- ------ -- ---- --- ----- -- - -------<br>-------- -- --- --- -- ----- ----------- ----- -----------<br>---- --- ---------- --- ---- --- -- ----------,226153.39999999944,226152.59999999963,225719.371,225729.09999999963,225736.043,226169.349,,9,Congress
screen,html.Screen,2_3_1_0_1_10,2022-02-17T10:49:59.095Z,,,,,,,,,,,,,,,,,51,,,,,,,,,,,,,,327.0509999994538,,response,,,,13,C,,,,,,Space,keypress(Space),,,,instrumental,,,,-------- -------- --- --- ---- --- --- ------ -- --------<br>over --------- --- ------- ------------ ---------- ---------<br>--- ---------- ------- ---------- ------- -- -------- ----<br>---- --- ------ ----- ------ -- ---- --- ----- -- - -------<br>-------- -- --- --- -- ----- ----------- ----- -----------<br>---- --- ---------- --- ---- --- -- ----------,226496.89999999944,226496.39999999944,226152.656,226153.59999999963,226169.349,226502.607,,10,over
screen,html.Screen,2_3_1_0_1_11,2022-02-17T10:49:59.415Z,,,,,,,,,,,,,,,,,51,,,,,,,,,,,,,,313.9929999996384,,response,,,,13,C,,,,,,Space,keypress(Space),,,,instrumental,,,,-------- -------- --- --- ---- --- --- ------ -- --------<br>---- reforming --- ------- ------------ ---------- ---------<br>--- ---------- ------- ---------- ------- -- -------- ----<br>---- --- ------ ----- ------ -- ---- --- ----- -- - -------<br>-------- -- --- --- -- ----- ----------- ----- -----------<br>---- --- ---------- --- ---- --- -- ----------,226817.09999999963,226816.59999999963,226485.95,226497.09999999963,226502.607,226819.224,,11,reforming
screen,html.Screen,2_3_1_0_1_12,2022-02-17T10:49:59.775Z,,,,,,,,,,,,,,,,,51,,,,,,,,,,,,,,357.1759999994538,,response,,,,13,C,,,,,,Space,keypress(Space),,,,instrumental,,,,-------- -------- --- --- ---- --- --- ------ -- --------<br>---- --------- the ------- ------------ ---------- ---------<br>--- ---------- ------- ---------- ------- -- -------- ----<br>---- --- ------ ----- ------ -- ---- --- ----- -- - -------<br>-------- -- --- --- -- ----- ----------- ----- -----------<br>---- --- ---------- --- ---- --- -- ----------,227176.7999999998,227176.39999999944,226802.571,226817.2999999998,226819.224,227185.868,,12,the
screen,html.Screen,2_3_1_0_1_13,2022-02-17T10:50:00.111Z,,,,,,,,,,,,,,,,,51,,,,,,,,,,,,,,326.53199999945355,,response,,,,13,C,,,,,,Space,keypress(Space),,,,instrumental,,,,-------- -------- --- --- ---- --- --- ------ -- --------<br>---- --------- --- federal ------------ ---------- ---------<br>--- ---------- ------- ---------- ------- -- -------- ----<br>---- --- ------ ----- ------ -- ---- --- ----- -- - -------<br>-------- -- --- --- -- ----- ----------- ----- -----------<br>---- --- ---------- --- ---- --- -- ----------,227512.7999999998,227512.39999999944,227169.199,227176.89999999944,227185.868,227519.146,,13,federal
screen,html.Screen,2_3_1_0_1_14,2022-02-17T10:50:00.559Z,,,,,,,,,,,,,,,,,51,,,,,,,,,,,,,,441.2539999994333,,response,,,,13,C,,,,,,Space,keypress(Space),,,,instrumental,,,,-------- -------- --- --- ---- --- --- ------ -- --------<br>---- --------- --- ------- government's ---------- ---------<br>--- ---------- ------- ---------- ------- -- -------- ----<br>---- --- ------ ----- ------ -- ---- --- ----- -- - -------<br>-------- -- --- --- -- ----- ----------- ----- -----------<br>---- --- ---------- --- ---- --- -- ----------,227960.7000000002,227960.39999999944,227502.524,227512.89999999944,227519.146,227969.117,,14,government's
screen,html.Screen,2_3_1_0_1_15,2022-02-17T10:50:00.983Z,,,,,,,,,,,,,,,,,51,,,,,,,,,,,,,,415.28299999944284,,response,,,,13,C,,,,,,Space,keypress(Space),,,,instrumental,,,,-------- -------- --- --- ---- --- --- ------ -- --------<br>---- --------- --- ------- ------------ regulatory ---------<br>--- ---------- ------- ---------- ------- -- -------- ----<br>---- --- ------ ----- ------ -- ---- --- ----- -- - -------<br>-------- -- --- --- -- ----- ----------- ----- -----------<br>---- --- ---------- --- ---- --- -- ----------,228385,228384.39999999944,227952.456,227960.7999999998,227969.117,228402.959,,15,regulatory
screen,html.Screen,2_3_1_0_1_16,2022-02-17T10:50:01.439Z,,,,,,,,,,,,,,,,,51,,,,,,,,,,,,,,437.44099999943865,,response,,,,13,C,,,,,,Space,keypress(Space),,,,instrumental,,,,-------- -------- --- --- ---- --- --- ------ -- --------<br>---- --------- --- ------- ------------ ---------- apparatus<br>--- ---------- ------- ---------- ------- -- -------- ----<br>---- --- ------ ----- ------ -- ---- --- ----- -- - -------<br>-------- -- --- --- -- ----- ----------- ----- -----------<br>---- --- ---------- --- ---- --- -- ----------,228840.7999999998,228840.39999999944,228369.074,228385.09999999963,228402.959,228852.343,,16,apparatus
screen,html.Screen,2_3_1_0_1_17,2022-02-17T10:50:01.951Z,,,,,,,,,,,,,,,,,51,,,,,,,,,,,,,,500.256999999634,,response,,,,13,C,,,,,,Space,keypress(Space),,,,instrumental,,,,-------- -------- --- --- ---- --- --- ------ -- --------<br>---- --------- --- ------- ------------ ---------- ---------<br>may ---------- ------- ---------- ------- -- -------- ----<br>---- --- ------ ----- ------ -- ---- --- ----- -- - -------<br>-------- -- --- --- -- ----- ----------- ----- -----------<br>---- --- ---------- --- ---- --- -- ----------,229353.09999999963,229352.59999999963,228835.726,228840.89999999944,228852.343,229368.942,,17,may
screen,html.Screen,2_3_1_0_1_18,2022-02-17T10:50:02.399Z,,,,,,,,,,,,,,,,,51,,,,,,,,,,,,,,431.4579999994312,,response,,,,13,C,,,,,,Space,keypress(Space),,,,instrumental,,,,-------- -------- --- --- ---- --- --- ------ -- --------<br>---- --------- --- ------- ------------ ---------- ---------<br>--- profoundly ------- ---------- ------- -- -------- ----<br>---- --- ------ ----- ------ -- ---- --- ----- -- - -------<br>-------- -- --- --- -- ----- ----------- ----- -----------<br>---- --- ---------- --- ---- --- -- ----------,229800.7999999998,229800.39999999944,229352.32,229353.2000000002,229368.942,229802.211,,18,profoundly
screen,html.Screen,2_3_1_0_1_19,2022-02-17T10:50:02.743Z,,,,,,,,,,,,,,,,,51,,,,,,,,,,,,,,342.18899999943096,,response,,,,13,C,,,,,,Space,keypress(Space),,,,instrumental,,,,-------- -------- --- --- ---- --- --- ------ -- --------<br>---- --------- --- ------- ------------ ---------- ---------<br>--- ---------- improve ---------- ------- -- -------- ----<br>---- --- ------ ----- ------ -- ---- --- ----- -- - -------<br>-------- -- --- --- -- ----- ----------- ----- -----------<br>---- --- ---------- --- ---- --- -- ----------,230144.7999999998,230144.39999999944,229785.593,229800.89999999944,229802.211,230152.188,,19,improve
screen,html.Screen,2_3_1_0_1_20,2022-02-17T10:50:03.239Z,,,,,,,,,,,,,,,,,51,,,,,,,,,,,,,,488.4119999996328,,response,,,,13,C,,,,,,Space,keypress(Space),,,,instrumental,,,,-------- -------- --- --- ---- --- --- ------ -- --------<br>---- --------- --- ------- ------------ ---------- ---------<br>--- ---------- ------- companies' ------- -- -------- ----<br>---- --- ------ ----- ------ -- ---- --- ----- -- - -------<br>-------- -- --- --- -- ----- ----------- ----- -----------<br>---- --- ---------- --- ---- --- -- ----------,230641.09999999963,230640.59999999963,230135.542,230144.89999999944,230152.188,230652.143,,20,companies'
screen,html.Screen,2_3_1_0_1_21,2022-02-17T10:50:03.567Z,,,,,,,,,,,,,,,,,51,,,,,,,,,,,,,,316.25699999943026,,response,,,,13,C,,,,,,Space,keypress(Space),,,,instrumental,,,,-------- -------- --- --- ---- --- --- ------ -- --------<br>---- --------- --- ------- ------------ ---------- ---------<br>--- ---------- ------- ---------- ability -- -------- ----<br>---- --- ------ ----- ------ -- ---- --- ----- -- - -------<br>-------- -- --- --- -- ----- ----------- ----- -----------<br>---- --- ---------- --- ---- --- -- ----------,230969,230968.39999999944,230635.492,230641.39999999944,230652.143,230985.425,,21,ability
screen,html.Screen,2_3_1_0_1_22,2022-02-17T10:50:03.895Z,,,,,,,,,,,,,,,,,51,,,,,,,,,,,,,,311.1749999996391,,response,,,,13,C,,,,,,Space,keypress(Space),,,,instrumental,,,,-------- -------- --- --- ---- --- --- ------ -- --------<br>---- --------- --- ------- ------------ ---------- ---------<br>--- ---------- ------- ---------- ------- to -------- ----<br>---- --- ------ ----- ------ -- ---- --- ----- -- - -------<br>-------- -- --- --- -- ----- ----------- ----- -----------<br>---- --- ---------- --- ---- --- -- ----------,231297.09999999963,231296.59999999963,230968.768,230969.09999999963,230985.425,231302.073,,22,to
screen,html.Screen,2_3_1_0_1_23,2022-02-17T10:50:04.247Z,,,,,,,,,,,,,,,,,51,,,,,,,,,,,,,,346.32699999943725,,response,,,,13,C,,,,,,Space,keypress(Space),,,,instrumental,,,,-------- -------- --- --- ---- --- --- ------ -- --------<br>---- --------- --- ------- ------------ ---------- ---------<br>--- ---------- ------- ---------- ------- -- survive. ----<br>---- --- ------ ----- ------ -- ---- --- ----- -- - -------<br>-------- -- --- --- -- ----- ----------- ----- -----------<br>---- --- ---------- --- ---- --- -- ----------,231648.7999999998,231648.39999999944,231285.401,231297.2000000002,231302.073,231652.021,,23,survive.
screen,html.Screen,2_3_1_0_1_24,2022-02-17T10:50:04.688Z,,,,,,,,,,,,,,,,,51,,,,,,,,,,,,,,437.07899999961955,,response,,,,13,C,,,,,,Space,keypress(Space),,,,instrumental,,,,-------- -------- --- --- ---- --- --- ------ -- --------<br>---- --------- --- ------- ------------ ---------- ---------<br>--- ---------- ------- ---------- ------- -- -------- This<br>---- --- ------ ----- ------ -- ---- --- ----- -- - -------<br>-------- -- --- --- -- ----- ----------- ----- -----------<br>---- --- ---------- --- ---- --- -- ----------,232089.7000000002,232089.09999999963,231635.394,231648.7999999998,231652.021,232101.975,,24,This
screen,html.Screen,2_3_1_0_1_25,2022-02-17T10:50:05.111Z,,,,,,,,,,,,,,,,,51,,,,,,,,,,,,,,410.3249999998079,,response,,,,13,C,,,,,,Space,keypress(Space),,,,instrumental,,,,-------- -------- --- --- ---- --- --- ------ -- --------<br>---- --------- --- ------- ------------ ---------- ---------<br>--- ---------- ------- ---------- ------- -- -------- ----<br>week --- ------ ----- ------ -- ---- --- ----- -- - -------<br>-------- -- --- --- -- ----- ----------- ----- -----------<br>---- --- ---------- --- ---- --- -- ----------,232512.7000000002,232512.2999999998,232085.309,232089.7999999998,232101.975,232518.569,,25,week
screen,html.Screen,2_3_1_0_1_26,2022-02-17T10:50:05.743Z,,,,,,,,,,,,,,,,,51,,,,,,,,,,,,,,625.8309999994526,,response,,,,13,C,,,,,,Space,keypress(Space),,,,instrumental,,,,-------- -------- --- --- ---- --- --- ------ -- --------<br>---- --------- --- ------- ------------ ---------- ---------<br>--- ---------- ------- ---------- ------- -- -------- ----<br>---- the ------ ----- ------ -- ---- --- ----- -- - -------<br>-------- -- --- --- -- ----- ----------- ----- -----------<br>---- --- ---------- --- ---- --- -- ----------,233144.89999999944,233144.39999999944,232501.93,232512.7999999998,232518.569,233151.847,,26,the
screen,html.Screen,2_3_1_0_1_27,2022-02-17T10:50:06.296Z,,,,,,,,,,,,,,,,,51,,,,,,,,,,,,,,544.6529999999912,,response,,,,13,C,,,,,,Space,keypress(Space),,,,instrumental,,,,-------- -------- --- --- ---- --- --- ------ -- --------<br>---- --------- --- ------- ------------ ---------- ---------<br>--- ---------- ------- ---------- ------- -- -------- ----<br>---- --- Senate ----- ------ -- ---- --- ----- -- - -------<br>-------- -- --- --- -- ----- ----------- ----- -----------<br>---- --- ---------- --- ---- --- -- ----------,233697,233696.5,233135.206,233145,233151.847,233701.768,,27,Senate
screen,html.Screen,2_3_1_0_1_28,2022-02-17T10:50:06.728Z,,,,,,,,,,,,,,,,,51,,,,,,,,,,,,,,426.8319999996165,,response,,,,13,C,,,,,,Space,keypress(Space),,,,instrumental,,,,-------- -------- --- --- ---- --- --- ------ -- --------<br>---- --------- --- ------- ------------ ---------- ---------<br>--- ---------- ------- ---------- ------- -- -------- ----<br>---- --- ------ seems ------ -- ---- --- ----- -- - -------<br>-------- -- --- --- -- ----- ----------- ----- -----------<br>---- --- ---------- --- ---- --- -- ----------,234129,234128.59999999963,233685.175,233697.09999999963,233701.768,234135.062,,28,seems
screen,html.Screen,2_3_1_0_1_29,2022-02-17T10:50:07.280Z,,,,,,,,,,,,,,,,,51,,,,,,,,,,,,,,545.3379999994359,,response,,,,13,C,,,,,,Space,keypress(Space),,,,instrumental,,,,-------- -------- --- --- ---- --- --- ------ -- --------<br>---- --------- --- ------- ------------ ---------- ---------<br>--- ---------- ------- ---------- ------- -- -------- ----<br>---- --- ------ ----- poised -- ---- --- ----- -- - -------<br>-------- -- --- --- -- ----- ----------- ----- -----------<br>---- --- ---------- --- ---- --- -- ----------,234680.89999999944,234680.39999999944,234118.428,234129.2000000002,234135.062,234685.105,,29,poised
screen,html.Screen,2_3_1_0_1_30,2022-02-17T10:50:07.687Z,,,,,,,,,,,,,,,,,51,,,,,,,,,,,,,,403.29499999943073,,response,,,,13,C,,,,,,Space,keypress(Space),,,,instrumental,,,,-------- -------- --- --- ---- --- --- ------ -- --------<br>---- --------- --- ------- ------------ ---------- ---------<br>--- ---------- ------- ---------- ------- -- -------- ----<br>---- --- ------ ----- ------ to ---- --- ----- -- - -------<br>-------- -- --- --- -- ----- ----------- ----- -----------<br>---- --- ---------- --- ---- --- -- ----------,235088.7000000002,235088.39999999944,234668.378,234681.09999999963,234685.105,235101.628,,30,to
screen,html.Screen,2_3_1_0_1_31,2022-02-17T10:50:08.112Z,,,,,,,,,,,,,,,,,51,,,,,,,,,,,,,,410.9719999996305,,response,,,,13,C,,,,,,Space,keypress(Space),,,,instrumental,,,,-------- -------- --- --- ---- --- --- ------ -- --------<br>---- --------- --- ------- ------------ ---------- ---------<br>--- ---------- ------- ---------- ------- -- -------- ----<br>---- --- ------ ----- ------ -- join --- ----- -- - -------<br>-------- -- --- --- -- ----- ----------- ----- -----------<br>---- --- ---------- --- ---- --- -- ----------,235513,235512.59999999963,235084.968,235088.7999999998,235101.628,235518.281,,31,join
screen,html.Screen,2_3_1_0_1_32,2022-02-17T10:50:08.472Z,,,,,,,,,,,,,,,,,51,,,,,,,,,,,,,,354.31899999963935,,response,,,,13,C,,,,,,Space,keypress(Space),,,,instrumental,,,,-------- -------- --- --- ---- --- --- ------ -- --------<br>---- --------- --- ------- ------------ ---------- ---------<br>--- ---------- ------- ---------- ------- -- -------- ----<br>---- --- ------ ----- ------ -- ---- the ----- -- - -------<br>-------- -- --- --- -- ----- ----------- ----- -----------<br>---- --- ---------- --- ---- --- -- ----------,235873.09999999963,235872.59999999963,235501.584,235513.09999999963,235518.281,235884.871,,32,the
screen,html.Screen,2_3_1_0_1_33,2022-02-17T10:50:08.808Z,,,,,,,,,,,,,,,,,51,,,,,,,,,,,,,,323.72899999961373,,response,,,,13,C,,,,,,Space,keypress(Space),,,,instrumental,,,,-------- -------- --- --- ---- --- --- ------ -- --------<br>---- --------- --- ------- ------------ ---------- ---------<br>--- ---------- ------- ---------- ------- -- -------- ----<br>---- --- ------ ----- ------ -- ---- --- House -- - -------<br>-------- -- --- --- -- ----- ----------- ----- -----------<br>---- --- ---------- --- ---- --- -- ----------,236209,236208.59999999963,235868.213,235873.2999999998,235884.871,236218.15,,33,House
screen,html.Screen,2_3_1_0_1_34,2022-02-17T10:50:09.167Z,,,,,,,,,,,,,,,,,51,,,,,,,,,,,,,,350.3500000000058,,response,,,,13,C,,,,,,Space,keypress(Space),,,,instrumental,,,,-------- -------- --- --- ---- --- --- ------ -- --------<br>---- --------- --- ------- ------------ ---------- ---------<br>--- ---------- ------- ---------- ------- -- -------- ----<br>---- --- ------ ----- ------ -- ---- --- ----- in - -------<br>-------- -- --- --- -- ----- ----------- ----- -----------<br>---- --- ---------- --- ---- --- -- ----------,236568.89999999944,236568.5,236201.499,236209.09999999963,236218.15,236584.775,,34,in
screen,html.Screen,2_3_1_0_1_35,2022-02-17T10:50:09.511Z,,,,,,,,,,,,,,,,,51,,,,,,,,,,,,,,327.624999999447,,response,,,,13,C,,,,,,Space,keypress(Space),,,,instrumental,,,,-------- -------- --- --- ---- --- --- ------ -- --------<br>---- --------- --- ------- ------------ ---------- ---------<br>--- ---------- ------- ---------- ------- -- -------- ----<br>---- --- ------ ----- ------ -- ---- --- ----- -- a -------<br>-------- -- --- --- -- ----- ----------- ----- -----------<br>---- --- ---------- --- ---- --- -- ----------,236912.89999999944,236912.39999999944,236568.124,236569,236584.775,236918.068,,35,a
screen,html.Screen,2_3_1_0_1_36,2022-02-17T10:50:09.903Z,,,,,,,,,,,,,,,,,51,,,,,,,,,,,,,,386.3319999994419,,response,,,,13,C,,,,,,Space,keypress(Space),,,,instrumental,,,,-------- -------- --- --- ---- --- --- ------ -- --------<br>---- --------- --- ------- ------------ ---------- ---------<br>--- ---------- ------- ---------- ------- -- -------- ----<br>---- --- ------ ----- ------ -- ---- --- ----- -- - massive<br>-------- -- --- --- -- ----- ----------- ----- -----------<br>---- --- ---------- --- ---- --- -- ----------,237304.7999999998,237304.39999999944,236901.42,236913,236918.068,237318.032,,36,massive
screen,html.Screen,2_3_1_0_1_37,2022-02-17T10:50:10.320Z,,,,,,,,,,,,,,,,,51,,,,,,,,,,,,,,402.56799999962095,,response,,,,13,C,,,,,,Space,keypress(Space),,,,instrumental,,,,-------- -------- --- --- ---- --- --- ------ -- --------<br>---- --------- --- ------- ------------ ---------- ---------<br>--- ---------- ------- ---------- ------- -- -------- ----<br>---- --- ------ ----- ------ -- ---- --- ----- -- - -------<br>overhaul -- --- --- -- ----- ----------- ----- -----------<br>---- --- ---------- --- ---- --- -- ----------,237721,237720.59999999963,237301.376,237304.89999999944,237318.032,237734.659,,37,overhaul
screen,html.Screen,2_3_1_0_1_38,2022-02-17T10:50:10.679Z,,,,,,,,,,,,,,,,,51,,,,,,,,,,,,,,345.740999999427,,response,,,,13,C,,,,,,Space,keypress(Space),,,,instrumental,,,,-------- -------- --- --- ---- --- --- ------ -- --------<br>---- --------- --- ------- ------------ ---------- ---------<br>--- ---------- ------- ---------- ------- -- -------- ----<br>---- --- ------ ----- ------ -- ---- --- ----- -- - -------<br>-------- of --- --- -- ----- ----------- ----- -----------<br>---- --- ---------- --- ---- --- -- ----------,238080.89999999944,238080.39999999944,237718.019,237721.09999999963,237734.659,238084.625,,38,of
