sender,sender_type,sender_id,timestamp,meta,,Blues,Classical,Country,Dance,Electronic,Folk,Gospel,Hip-Hop,Jazz,Latin,Musical/Film,New-age,Pop,Prolific_id,Provo_ID,R&B,Rap,Reggae,Religious,Rock,Soul,Swing,Traditional,age,artist_name,correct,correctResponse,distraction,duration,education,ended_on,familiarity,gender,headphone_check_performance,item,list,music_frequency,offensiveness,pleasantness,position_correct,preference,response,response_action,snippet_file,song_name,song_rating,sound,stimulus_1,stimulus_2,stimulus_3,text,time_commit,time_end,time_render,time_run,time_show,time_switch,url,word,word_ID
Prolific ID,html.Form,0,2022-05-11T13:11:32.396Z,"{""labjs_version"":""20.2.2"",""labjs_build"":{""flavor"":""production"",""commit"":""a25486e0c714a0ae2ce03ff94b7bb6896854dcfa""},""location"":""https://run.pavlovia.org/mvasilev/prolific2_music_e/"",""userAgent"":""Mozilla/5.0 (Macintosh; Intel Mac OS X 10.15; rv:100.0) Gecko/20100101 Firefox/100.0"",""platform"":""MacIntel"",""language"":""en-US"",""locale"":""en-GB"",""timeZone"":""Europe/London"",""timezoneOffset"":-60,""screen_width"":1440,""screen_height"":900,""scroll_width"":1440,""scroll_height"":767,""window_innerWidth"":1440,""window_innerHeight"":815,""devicePixelRatio"":2}",,,,,,,,,,,,,,,607da171f464f9e638d62de2,,,,,,,,,,,,,,,4173.82,,form submission,,,,,,,,,,,,,,,,,,,,,12087,12086,7911.56,7912,7912.18,12097.6,{},,
Introduction,html.Screen,1_0,2022-05-11T13:11:44.484Z,,,,,,,,,,,,,,,,,,,,,,,,,,,,,,,12074.4,,response,,,,,,,,,,,continue,click button,,,,,,,,,24175,24172,12082.32,12088,12097.6,24174.64,,,
Volume calibration,html.Screen,1_1,2022-05-11T13:11:56.600Z,,,,,,,,,,,,,,,,,,,,,,,,,,,,,,,12113.36,,response,,,,,,,,,,,continue,click button,,,,,,,,,36291,36288,24174.22,24176,24174.64,36290.46,,,
Task instructions,html.Screen,1_2,2022-05-11T13:11:59.156Z,,,,,,,,,,,,,,,,,,,,,,,,,,,,,,,2554.540000000001,,response,,,,,,,,,,,continue,click button,,,,,,,,,38847,38845,36290.08,36291,36290.46,38851.4,,,
Sounds,html.Screen,1_3_0_0,2022-05-11T13:12:03.392Z,,,,,,,,,,,,,,,,,,,,,,,,,,,,,,,4247.659999999996,,timeout,,,,,,,,,3,,,,,,,,O,I,S,,43084,43082.4,38846.06,38847,38851.4,43099.06,,,
Judgement,html.Screen,1_3_0_1,2022-05-11T13:12:04.610Z,,,,,,,,,,,,,,,,,,,,,,,,,,,,true,3,,1198.9400000000023,,response,,,,,,,,,3,,3,click #choice-3,,,,,O,I,S,,44301,44298,43082.4,43084,43099.06,44300.68,,,
Trial,flow.Sequence,1_3_0,2022-05-11T13:12:04.610Z,,,,,,,,,,,,,,,,,,,,,,,,,,,,,,,5446.5999999999985,,completion,,,,,,,,,3,,,,,,,,O,I,S,,44302,44298,38846.06,38847,38851.4,44300.68,,,
Sounds,html.Screen,1_3_1_0,2022-05-11T13:12:08.843Z,,,,,,,,,,,,,,,,,,,,,,,,,,,,,,,4249.5,,timeout,,,,,,,,,1,,,,,,,,S,O,I,,48535,48533.48,44300.3,44302,44300.68,48550.18,,,
Judgement,html.Screen,1_3_1_1,2022-05-11T13:12:09.688Z,,,,,,,,,,,,,,,,,,,,,,,,,,,,false,1,,825.8199999999997,,response,,,,,,,,,1,,3,click #choice-3,,,,,S,O,I,,49379,49376,48533.48,48535,48550.18,49378.78,,,
Trial,flow.Sequence,1_3_1,2022-05-11T13:12:09.688Z,,,,,,,,,,,,,,,,,,,,,,,,,,,,,,,5075.32,,completion,,,,,,,,,1,,,,,,,,S,O,I,,49379,49376,44300.3,44302,44300.68,49378.78,,,
Sounds,html.Screen,1_3_2_0,2022-05-11T13:12:13.926Z,,,,,,,,,,,,,,,,,,,,,,,,,,,,,,,4254.540000000001,,timeout,,,,,,,,,2,,,,,,,,O,S,I,,53618,53616.38,49378.36,49379,49378.78,53633.32,,,
Judgement,html.Screen,1_3_2_1,2022-05-11T13:12:14.411Z,,,,,,,,,,,,,,,,,,,,,,,,,,,,true,2,,466.6800000000003,,response,,,,,,,,,2,,2,click #choice-2,,,,,O,S,I,,54102,54100,53616.38,53618,53633.32,54102.58,,,
Trial,flow.Sequence,1_3_2,2022-05-11T13:12:14.412Z,,,,,,,,,,,,,,,,,,,,,,,,,,,,,,,4721.220000000001,,completion,,,,,,,,,2,,,,,,,,O,S,I,,54103,54100,49378.36,49379,49378.78,54102.58,,,
Sounds,html.Screen,1_3_3_0,2022-05-11T13:12:18.641Z,,,,,,,,,,,,,,,,,,,,,,,,,,,,,,,4244.979999999996,,timeout,,,,,,,,,2,,,,,,,,I,S,O,,58333,58331.78,54102.14,54103,54102.58,58347.56,,,
Judgement,html.Screen,1_3_3_1,2022-05-11T13:12:19.034Z,,,,,,,,,,,,,,,,,,,,,,,,,,,,true,2,,374.4400000000023,,response,,,,,,,,,2,,2,click #choice-2,,,,,I,S,O,,58725,58722,58331.78,58333,58347.56,58720.52,,,
Trial,flow.Sequence,1_3_3,2022-05-11T13:12:19.034Z,,,,,,,,,,,,,,,,,,,,,,,,,,,,,,,4619.419999999998,,completion,,,,,,,,,2,,,,,,,,I,S,O,,58725,58722,54102.14,54103,54102.58,58720.52,,,
Sounds,html.Screen,1_3_4_0,2022-05-11T13:12:23.256Z,,,,,,,,,,,,,,,,,,,,,,,,,,,,,,,4242.18,,timeout,,,,,,,,,1,,,,,,,,S,I,O,,62947,62946.38,58719.88,58725,58720.52,62962.7,,,
Judgement,html.Screen,1_3_4_1,2022-05-11T13:12:23.718Z,,,,,,,,,,,,,,,,,,,,,,,,,,,,true,1,,444.3000000000029,,response,,,,,,,,,1,,1,click #choice-1,,,,,S,I,O,,63409,63407,62946.38,62948,62962.7,63413.88,,,
Trial,flow.Sequence,1_3_4,2022-05-11T13:12:23.718Z,,,,,,,,,,,,,,,,,,,,,,,,,,,,,,,4686.480000000003,,completion,,,,,,,,,1,,,,,,,,S,I,O,,63409,63407,58719.88,58725,58720.52,63413.88,,,
Sounds,html.Screen,1_3_5_0,2022-05-11T13:12:27.954Z,,,,,,,,,,,,,,,,,,,,,,,,,,,,,,,4246.980000000003,,timeout,,,,,,,,,3,,,,,,,,I,O,S,,67645,67644.34,63398.16,63409,63413.88,67660.86,,,
Judgement,html.Screen,1_3_5_1,2022-05-11T13:12:28.803Z,,,,,,,,,,,,,,,,,,,,,,,,,,,,true,3,,832.1399999999994,,response,,,,,,,,,3,,3,click #choice-3,,,,,I,O,S,,68495,68493,67644.34,67646,67660.86,68494.62,,,
Trial,flow.Sequence,1_3_5,2022-05-11T13:12:28.804Z,,,,,,,,,,,,,,,,,,,,,,,,,,,,,,,5079.120000000003,,completion,,,,,,,,,3,,,,,,,,I,O,S,,68495,68493,63398.16,63409,63413.88,68494.62,,,
Task,flow.Loop,1_3,2022-05-11T13:12:28.804Z,,,,,,,,,,,,,,,,,,,,,,,,,,,,,,,29641.6,,completion,,,0.8333333333333334,,,,,,,,,,,,,,,,,,68496,68493,38846.06,38847,38851.4,68494.62,,,
Trap,html.Screen,1_4,2022-05-11T13:12:28.806Z,,,,,,,,,,,,,,,,,,,,,,,,,,,,,,,NaN,,skipped,,,,,,,,,,,,,,,,,,,,,68497,68493,,68497,,68494.62,,,
Thanks,html.Screen,1_5,2022-05-11T13:12:31.416Z,,,,,,,,,,,,,,,,,,,,,,,,,,,,,,,2611.3800000000047,,response,,,,,,,,,,,continue,click button,,,,,,,,,71109,71106,68494.22,68498,68494.62,73380.38,,,
Headphone screening,flow.Sequence,1,2022-05-11T13:12:31.417Z,,,,,,,,,,,,,,,,,,,,,,,,,,,,,,,59008.4,,completion,,,,,,,,,,,,,,,,,,,,,71109,71106,12082.32,12088,12097.6,73380.38,,,
Instructions,html.Page,2_0,2022-05-11T13:12:41.320Z,,,,,,,,,,,,,,,,,,,,,,,,,,,,,,,7630.619999999995,,form submission,,,,,,,,,,,,,,,,,,,,,81012,81011,73363.88,73359,73380.38,81037.92,,,
Holding screen,html.Screen,2_1_0_0,2022-05-11T13:12:51.329Z,,,,,,,,,,,,,,,,,,,,,,,,,,,,,,,9999.680000000008,,timeout,,,,,,,,,,,,,,,,,,,,,91022,91020.7,81000.56,81012,81037.92,91037.6,,,
screen,html.Screen,2_1_0_1_0,2022-05-11T13:12:52.166Z,,,,,,,,,,,,,,,,,53,,,,,,,,,,,,,,817.3999999999942,,response,,,,99,,,,,,,Space,keypress(Space),,,,,,,,When -- ----- -- ------ - ------- --- ----------<br>------------- ------ ------ ---- ---- ------- ----- -- ----<br>-------- ------- -- ---------- --- - --- ----- ----- ----<br>---- --- --- ----- --- ---- ---- ------- ----- ---- -------<br>--- --- -- ----- -- --- ---- -- --- ---- -- ------ ------<br>--- ----- -- ----,91858,91855,91020.7,91022,91037.6,91859.32,,0,When
screen,html.Screen,2_1_0_1_1,2022-05-11T13:12:52.463Z,,,,,,,,,,,,,,,,,53,,,,,,,,,,,,,,291.679999999993,,response,,,,99,,,,,,,Space,keypress(Space),,,,,,,,---- it ----- -- ------ - ------- --- ----------<br>------------- ------ ------ ---- ---- ------- ----- -- ----<br>-------- ------- -- ---------- --- - --- ----- ----- ----<br>---- --- --- ----- --- ---- ---- ------- ----- ---- -------<br>--- --- -- ----- -- --- ---- -- --- ---- -- ------ ------<br>--- ----- -- ----,92156,92151,91858.66,91859,91859.32,92156.8,,1,it
screen,html.Screen,2_1_0_1_2,2022-05-11T13:12:52.733Z,,,,,,,,,,,,,,,,,53,,,,,,,,,,,,,,266.1999999999971,,response,,,,99,,,,,,,Space,keypress(Space),,,,,,,,---- -- comes -- ------ - ------- --- ----------<br>------------- ------ ------ ---- ---- ------- ----- -- ----<br>-------- ------- -- ---------- --- - --- ----- ----- ----<br>---- --- --- ----- --- ---- ---- ------- ----- ---- -------<br>--- --- -- ----- -- --- ---- -- --- ---- -- ------ ------<br>--- ----- -- ----,92425,92423,92156.18,92156,92156.8,92426.26,,2,comes
screen,html.Screen,2_1_0_1_3,2022-05-11T13:12:53.248Z,,,,,,,,,,,,,,,,,53,,,,,,,,,,,,,,508.74000000000524,,response,,,,99,,,,,,,Space,keypress(Space),,,,,,,,---- -- ----- to ------ - ------- --- ----------<br>------------- ------ ------ ---- ---- ------- ----- -- ----<br>-------- ------- -- ---------- --- - --- ----- ----- ----<br>---- --- --- ----- --- ---- ---- ------- ----- ---- -------<br>--- --- -- ----- -- --- ---- -- --- ---- -- ------ ------<br>--- ----- -- ----,92939,92935,92425.66,92426,92426.26,92940.88,,3,to
screen,html.Screen,2_1_0_1_4,2022-05-11T13:12:53.494Z,,,,,,,,,,,,,,,,,53,,,,,,,,,,,,,,242.11999999999534,,response,,,,99,,,,,,,Space,keypress(Space),,,,,,,,---- -- ----- -- having - ------- --- ----------<br>------------- ------ ------ ---- ---- ------- ----- -- ----<br>-------- ------- -- ---------- --- - --- ----- ----- ----<br>---- --- --- ----- --- ---- ---- ------- ----- ---- -------<br>--- --- -- ----- -- --- ---- -- --- ---- -- ------ ------<br>--- ----- -- ----,93185,93183,92940.24,92940,92940.88,93186.78,,4,having
screen,html.Screen,2_1_0_1_5,2022-05-11T13:12:53.776Z,,,,,,,,,,,,,,,,,53,,,,,,,,,,,,,,276.22000000000116,,response,,,,99,,,,,,,Space,keypress(Space),,,,,,,,---- -- ----- -- ------ a ------- --- ----------<br>------------- ------ ------ ---- ---- ------- ----- -- ----<br>-------- ------- -- ---------- --- - --- ----- ----- ----<br>---- --- --- ----- --- ---- ---- ------- ----- ---- -------<br>--- --- -- ----- -- --- ---- -- --- ---- -- ------ ------<br>--- ----- -- ----,93468,93463,93186.16,93186,93186.78,93468.5,,5,a
screen,html.Screen,2_1_0_1_6,2022-05-11T13:12:54.030Z,,,,,,,,,,,,,,,,,53,,,,,,,,,,,,,,250.5,,response,,,,99,,,,,,,Space,keypress(Space),,,,,,,,---- -- ----- -- ------ - lasting --- ----------<br>------------- ------ ------ ---- ---- ------- ----- -- ----<br>-------- ------- -- ---------- --- - --- ----- ----- ----<br>---- --- --- ----- --- ---- ---- ------- ----- ---- -------<br>--- --- -- ----- -- --- ---- -- --- ---- -- ------ ------<br>--- ----- -- ----,93722,93719,93467.92,93468,93468.5,93722.76,,6,lasting
screen,html.Screen,2_1_0_1_7,2022-05-11T13:12:54.312Z,,,,,,,,,,,,,,,,,53,,,,,,,,,,,,,,276.24000000000524,,response,,,,99,,,,,,,Space,keypress(Space),,,,,,,,---- -- ----- -- ------ - ------- and ----------<br>------------- ------ ------ ---- ---- ------- ----- -- ----<br>-------- ------- -- ---------- --- - --- ----- ----- ----<br>---- --- --- ----- --- ---- ---- ------- ----- ---- -------<br>--- --- -- ----- -- --- ---- -- --- ---- -- ------ ------<br>--- ----- -- ----,94004,93999,93722.14,93722,93722.76,94004.54,,7,and
screen,html.Screen,2_1_0_1_8,2022-05-11T13:12:54.590Z,,,,,,,,,,,,,,,,,53,,,,,,,,,,,,,,274.4600000000064,,response,,,,99,,,,,,,Space,keypress(Space),,,,,,,,---- -- ----- -- ------ - ------- --- fulfilling<br>------------- ------ ------ ---- ---- ------- ----- -- ----<br>-------- ------- -- ---------- --- - --- ----- ----- ----<br>---- --- --- ----- --- ---- ---- ------- ----- ---- -------<br>--- --- -- ----- -- --- ---- -- --- ---- -- ------ ------<br>--- ----- -- ----,94281,94279,94003.96,94004,94004.54,94282.7,,8,fulfilling
screen,html.Screen,2_1_0_1_9,2022-05-11T13:12:54.863Z,,,,,,,,,,,,,,,,,53,,,,,,,,,,,,,,268.3000000000029,,response,,,,99,,,,,,,Space,keypress(Space),,,,,,,,"---- -- ----- -- ------ - ------- --- ----------<br>relationship, ------ ------ ---- ---- ------- ----- -- ----<br>-------- ------- -- ---------- --- - --- ----- ----- ----<br>---- --- --- ----- --- ---- ---- ------- ----- ---- -------<br>--- --- -- ----- -- --- ---- -- --- ---- -- ------ ------<br>--- ----- -- ----",94556,94551,94282.08,94282,94282.7,94556.32,,9,"relationship,"
screen,html.Screen,2_1_0_1_10,2022-05-11T13:12:55.141Z,,,,,,,,,,,,,,,,,53,,,,,,,,,,,,,,274.679999999993,,response,,,,99,,,,,,,Space,keypress(Space),,,,,,,,---- -- ----- -- ------ - ------- --- ----------<br>------------- common ------ ---- ---- ------- ----- -- ----<br>-------- ------- -- ---------- --- - --- ----- ----- ----<br>---- --- --- ----- --- ---- ---- ------- ----- ---- -------<br>--- --- -- ----- -- --- ---- -- --- ---- -- ------ ------<br>--- ----- -- ----,94833,94831,94555.72,94556,94556.32,94834.4,,10,common
screen,html.Screen,2_1_0_1_11,2022-05-11T13:12:55.360Z,,,,,,,,,,,,,,,,,53,,,,,,,,,,,,,,212.60000000000582,,response,,,,99,,,,,,,Space,keypress(Space),,,,,,,,---- -- ----- -- ------ - ------- --- ----------<br>------------- ------ wisdom ---- ---- ------- ----- -- ----<br>-------- ------- -- ---------- --- - --- ----- ----- ----<br>---- --- --- ----- --- ---- ---- ------- ----- ---- -------<br>--- --- -- ----- -- --- ---- -- --- ---- -- ------ ------<br>--- ----- -- ----,95051,95047,94833.8,94833,94834.4,95052.16,,11,wisdom
screen,html.Screen,2_1_0_1_12,2022-05-11T13:12:55.541Z,,,,,,,,,,,,,,,,,53,,,,,,,,,,,,,,178.8399999999965,,response,,,,99,,,,,,,Space,keypress(Space),,,,,,,,---- -- ----- -- ------ - ------- --- ----------<br>------------- ------ ------ says ---- ------- ----- -- ----<br>-------- ------- -- ---------- --- - --- ----- ----- ----<br>---- --- --- ----- --- ---- ---- ------- ----- ---- -------<br>--- --- -- ----- -- --- ---- -- --- ---- -- ------ ------<br>--- ----- -- ----,95234,95231,95051.56,95051,95052.16,95234.5,,12,says
screen,html.Screen,2_1_0_1_13,2022-05-11T13:12:55.959Z,,,,,,,,,,,,,,,,,53,,,,,,,,,,,,,,412.5,,response,,,,99,,,,,,,Space,keypress(Space),,,,,,,,---- -- ----- -- ------ - ------- --- ----------<br>------------- ------ ------ ---- that ------- ----- -- ----<br>-------- ------- -- ---------- --- - --- ----- ----- ----<br>---- --- --- ----- --- ---- ---- ------- ----- ---- -------<br>--- --- -- ----- -- --- ---- -- --- ---- -- ------ ------<br>--- ----- -- ----,95652,95647,95233.9,95234,95234.5,95652.68,,13,that
screen,html.Screen,2_1_0_1_14,2022-05-11T13:12:56.270Z,,,,,,,,,,,,,,,,,53,,,,,,,,,,,,,,306.320000000007,,response,,,,99,,,,,,,Space,keypress(Space),,,,,,,,---- -- ----- -- ------ - ------- --- ----------<br>------------- ------ ------ ---- ---- feeling ----- -- ----<br>-------- ------- -- ---------- --- - --- ----- ----- ----<br>---- --- --- ----- --- ---- ---- ------- ----- ---- -------<br>--- --- -- ----- -- --- ---- -- --- ---- -- ------ ------<br>--- ----- -- ----,95961,95959,95652.06,95652,95652.68,95962.3,,14,feeling
screen,html.Screen,2_1_0_1_15,2022-05-11T13:12:56.584Z,,,,,,,,,,,,,,,,,53,,,,,,,,,,,,,,307.6999999999971,,response,,,,99,,,,,,,Space,keypress(Space),,,,,,,,---- -- ----- -- ------ - ------- --- ----------<br>------------- ------ ------ ---- ---- ------- close -- ----<br>-------- ------- -- ---------- --- - --- ----- ----- ----<br>---- --- --- ----- --- ---- ---- ------- ----- ---- -------<br>--- --- -- ----- -- --- ---- -- --- ---- -- ------ ------<br>--- ----- -- ----,96276,96270,95961.7,95961,95962.3,96276.44,,15,close
screen,html.Screen,2_1_0_1_16,2022-05-11T13:12:56.877Z,,,,,,,,,,,,,,,,,53,,,,,,,,,,,,,,290.5599999999977,,response,,,,99,,,,,,,Space,keypress(Space),,,,,,,,---- -- ----- -- ------ - ------- --- ----------<br>------------- ------ ------ ---- ---- ------- ----- to ----<br>-------- ------- -- ---------- --- - --- ----- ----- ----<br>---- --- --- ----- --- ---- ---- ------- ----- ---- -------<br>--- --- -- ----- -- --- ---- -- --- ---- -- ------ ------<br>--- ----- -- ----,96569,96567,96275.88,96276,96276.44,96570.28,,16,to
screen,html.Screen,2_1_0_1_17,2022-05-11T13:12:57.135Z,,,,,,,,,,,,,,,,,53,,,,,,,,,,,,,,252.72000000000116,,response,,,,99,,,,,,,Space,keypress(Space),,,,,,,,---- -- ----- -- ------ - ------- --- ----------<br>------------- ------ ------ ---- ---- ------- ----- -- your<br>-------- ------- -- ---------- --- - --- ----- ----- ----<br>---- --- --- ----- --- ---- ---- ------- ----- ---- -------<br>--- --- -- ----- -- --- ---- -- --- ---- -- ------ ------<br>--- ----- -- ----,96828,96823,96569.64,96569,96570.28,96828.52,,17,your
screen,html.Screen,2_1_0_1_18,2022-05-11T13:12:57.429Z,,,,,,,,,,,,,,,,,53,,,,,,,,,,,,,,290.4799999999959,,response,,,,99,,,,,,,Space,keypress(Space),,,,,,,,---- -- ----- -- ------ - ------- --- ----------<br>------------- ------ ------ ---- ---- ------- ----- -- ----<br>romantic ------- -- ---------- --- - --- ----- ----- ----<br>---- --- --- ----- --- ---- ---- ------- ----- ---- -------<br>--- --- -- ----- -- --- ---- -- --- ---- -- ------ ------<br>--- ----- -- ----,97121,97119,96827.9,96828,96828.52,97122.1,,18,romantic
screen,html.Screen,2_1_0_1_19,2022-05-11T13:12:57.720Z,,,,,,,,,,,,,,,,,53,,,,,,,,,,,,,,284.8999999999942,,response,,,,99,,,,,,,Space,keypress(Space),,,,,,,,---- -- ----- -- ------ - ------- --- ----------<br>------------- ------ ------ ---- ---- ------- ----- -- ----<br>-------- partner -- ---------- --- - --- ----- ----- ----<br>---- --- --- ----- --- ---- ---- ------- ----- ---- -------<br>--- --- -- ----- -- --- ---- -- --- ---- -- ------ ------<br>--- ----- -- ----,97411,97407,97121.44,97121,97122.1,97412.76,,19,partner
screen,html.Screen,2_1_0_1_20,2022-05-11T13:12:57.982Z,,,,,,,,,,,,,,,,,53,,,,,,,,,,,,,,258.24000000000524,,response,,,,99,,,,,,,Space,keypress(Space),,,,,,,,---- -- ----- -- ------ - ------- --- ----------<br>------------- ------ ------ ---- ---- ------- ----- -- ----<br>-------- ------- is ---------- --- - --- ----- ----- ----<br>---- --- --- ----- --- ---- ---- ------- ----- ---- -------<br>--- --- -- ----- -- --- ---- -- --- ---- -- ------ ------<br>--- ----- -- ----,97673,97671,97412.14,97412,97412.76,97674.1,,20,is
screen,html.Screen,2_1_0_1_21,2022-05-11T13:12:58.240Z,,,,,,,,,,,,,,,,,53,,,,,,,,,,,,,,251.89999999999418,,response,,,,99,,,,,,,Space,keypress(Space),,,,,,,,---- -- ----- -- ------ - ------- --- ----------<br>------------- ------ ------ ---- ---- ------- ----- -- ----<br>-------- ------- -- paramount. --- - --- ----- ----- ----<br>---- --- --- ----- --- ---- ---- ------- ----- ---- -------<br>--- --- -- ----- -- --- ---- -- --- ---- -- ------ ------<br>--- ----- -- ----,97932,97926,97673.48,97674,97674.1,97932.64,,21,paramount.
screen,html.Screen,2_1_0_1_22,2022-05-11T13:12:58.517Z,,,,,,,,,,,,,,,,,53,,,,,,,,,,,,,,274.3600000000006,,response,,,,99,,,,,,,Space,keypress(Space),,,,,,,,---- -- ----- -- ------ - ------- --- ----------<br>------------- ------ ------ ---- ---- ------- ----- -- ----<br>-------- ------- -- ---------- But - --- ----- ----- ----<br>---- --- --- ----- --- ---- ---- ------- ----- ---- -------<br>--- --- -- ----- -- --- ---- -- --- ---- -- ------ ------<br>--- ----- -- ----,98210,98207,97932.04,97932,97932.64,98210.34,,22,But
screen,html.Screen,2_1_0_1_23,2022-05-11T13:12:58.824Z,,,,,,,,,,,,,,,,,53,,,,,,,,,,,,,,300.6600000000035,,response,,,,99,,,,,,,Space,keypress(Space),,,,,,,,---- -- ----- -- ------ - ------- --- ----------<br>------------- ------ ------ ---- ---- ------- ----- -- ----<br>-------- ------- -- ---------- --- a --- ----- ----- ----<br>---- --- --- ----- --- ---- ---- ------- ----- ---- -------<br>--- --- -- ----- -- --- ---- -- --- ---- -- ------ ------<br>--- ----- -- ----,98516,98511,98209.74,98210,98210.34,98516.82,,23,a
screen,html.Screen,2_1_0_1_24,2022-05-11T13:12:59.053Z,,,,,,,,,,,,,,,,,53,,,,,,,,,,,,,,226.17999999999302,,response,,,,99,,,,,,,Space,keypress(Space),,,,,,,,---- -- ----- -- ------ - ------- --- ----------<br>------------- ------ ------ ---- ---- ------- ----- -- ----<br>-------- ------- -- ---------- --- - new ----- ----- ----<br>---- --- --- ----- --- ---- ---- ------- ----- ---- -------<br>--- --- -- ----- -- --- ---- -- --- ---- -- ------ ------<br>--- ----- -- ----,98745,98743,98516.24,98516,98516.82,98746.54,,24,new
screen,html.Screen,2_1_0_1_25,2022-05-11T13:12:59.297Z,,,,,,,,,,,,,,,,,53,,,,,,,,,,,,,,235.4600000000064,,response,,,,99,,,,,,,Space,keypress(Space),,,,,,,,---- -- ----- -- ------ - ------- --- ----------<br>------------- ------ ------ ---- ---- ------- ----- -- ----<br>-------- ------- -- ---------- --- - --- study ----- ----<br>---- --- --- ----- --- ---- ---- ------- ----- ---- -------<br>--- --- -- ----- -- --- ---- -- --- ---- -- ------ ------<br>--- ----- -- ----,98988,98982,98745.92,98745,98746.54,98989.4,,25,study
screen,html.Screen,2_1_0_1_26,2022-05-11T13:12:59.566Z,,,,,,,,,,,,,,,,,53,,,,,,,,,,,,,,265.6000000000058,,response,,,,99,,,,,,,Space,keypress(Space),,,,,,,,---- -- ----- -- ------ - ------- --- ----------<br>------------- ------ ------ ---- ---- ------- ----- -- ----<br>-------- ------- -- ---------- --- - --- ----- finds ----<br>---- --- --- ----- --- ---- ---- ------- ----- ---- -------<br>--- --- -- ----- -- --- ---- -- --- ---- -- ------ ------<br>--- ----- -- ----,99258,99255,98988.8,98988,98989.4,99258.12,,26,finds
screen,html.Screen,2_1_0_1_27,2022-05-11T13:12:59.831Z,,,,,,,,,,,,,,,,,53,,,,,,,,,,,,,,259.88000000000466,,response,,,,99,,,,,,,Space,keypress(Space),,,,,,,,---- -- ----- -- ------ - ------- --- ----------<br>------------- ------ ------ ---- ---- ------- ----- -- ----<br>-------- ------- -- ---------- --- - --- ----- ----- that<br>---- --- --- ----- --- ---- ---- ------- ----- ---- -------<br>--- --- -- ----- -- --- ---- -- --- ---- -- ------ ------<br>--- ----- -- ----,99524,99518,99257.52,99258,99258.12,99524.46,,27,that
screen,html.Screen,2_1_0_1_28,2022-05-11T13:13:00.102Z,,,,,,,,,,,,,,,,,53,,,,,,,,,,,,,,266.5399999999936,,response,,,,99,,,,,,,Space,keypress(Space),,,,,,,,---- -- ----- -- ------ - ------- --- ----------<br>------------- ------ ------ ---- ---- ------- ----- -- ----<br>-------- ------- -- ---------- --- - --- ----- ----- ----<br>it's --- --- ----- --- ---- ---- ------- ----- ---- -------<br>--- --- -- ----- -- --- ---- -- --- ---- -- ------ ------<br>--- ----- -- ----,99794,99791,99523.88,99524,99524.46,99794.62,,28,it's
screen,html.Screen,2_1_0_1_29,2022-05-11T13:13:00.344Z,,,,,,,,,,,,,,,,,53,,,,,,,,,,,,,,235.38000000000466,,response,,,,99,,,,,,,Space,keypress(Space),,,,,,,,---- -- ----- -- ------ - ------- --- ----------<br>------------- ------ ------ ---- ---- ------- ----- -- ----<br>-------- ------- -- ---------- --- - --- ----- ----- ----<br>---- not --- ----- --- ---- ---- ------- ----- ---- -------<br>--- --- -- ----- -- --- ---- -- --- ---- -- ------ ------<br>--- ----- -- ----,100036,100030,99794.02,99794,99794.62,100036.7,,29,not
screen,html.Screen,2_1_0_1_30,2022-05-11T13:13:00.573Z,,,,,,,,,,,,,,,,,53,,,,,,,,,,,,,,225.3000000000029,,response,,,,99,,,,,,,Space,keypress(Space),,,,,,,,---- -- ----- -- ------ - ------- --- ----------<br>------------- ------ ------ ---- ---- ------- ----- -- ----<br>-------- ------- -- ---------- --- - --- ----- ----- ----<br>---- --- how ----- --- ---- ---- ------- ----- ---- -------<br>--- --- -- ----- -- --- ---- -- --- ---- -- ------ ------<br>--- ----- -- ----,100266,100262,100036.08,100037,100036.7,100266.18,,30,how
screen,html.Screen,2_1_0_1_31,2022-05-11T13:13:00.783Z,,,,,,,,,,,,,,,,,53,,,,,,,,,,,,,,204.82000000000698,,response,,,,99,,,,,,,Space,keypress(Space),,,,,,,,---- -- ----- -- ------ - ------- --- ----------<br>------------- ------ ------ ---- ---- ------- ----- -- ----<br>-------- ------- -- ---------- --- - --- ----- ----- ----<br>---- --- --- close --- ---- ---- ------- ----- ---- -------<br>--- --- -- ----- -- --- ---- -- --- ---- -- ------ ------<br>--- ----- -- ----,100476,100471,100265.58,100266,100266.18,100484.9,,31,close
screen,html.Screen,2_1_0_1_32,2022-05-11T13:13:01.021Z,,,,,,,,,,,,,,,,,53,,,,,,,,,,,,,,225.10000000000582,,response,,,,99,,,,,,,Space,keypress(Space),,,,,,,,---- -- ----- -- ------ - ------- --- ----------<br>------------- ------ ------ ---- ---- ------- ----- -- ----<br>-------- ------- -- ---------- --- - --- ----- ----- ----<br>---- --- --- ----- you ---- ---- ------- ----- ---- -------<br>--- --- -- ----- -- --- ---- -- --- ---- -- ------ ------<br>--- ----- -- ----,100714,100710,100476.02,100476,100484.9,100714.16,,32,you
screen,html.Screen,2_1_0_1_33,2022-05-11T13:13:01.297Z,,,,,,,,,,,,,,,,,53,,,,,,,,,,,,,,268.8399999999965,,response,,,,99,,,,,,,Space,keypress(Space),,,,,,,,---- -- ----- -- ------ - ------- --- ----------<br>------------- ------ ------ ---- ---- ------- ----- -- ----<br>-------- ------- -- ---------- --- - --- ----- ----- ----<br>---- --- --- ----- --- feel ---- ------- ----- ---- -------<br>--- --- -- ----- -- --- ---- -- --- ---- -- ------ ------<br>--- ----- -- ----,100989,100983,100713.58,100714,100714.16,100989.06,,33,feel
screen,html.Screen,2_1_0_1_34,2022-05-11T13:13:01.558Z,,,,,,,,,,,,,,,,,53,,,,,,,,,,,,,,257.9400000000023,,response,,,,99,,,,,,,Space,keypress(Space),,,,,,,,---- -- ----- -- ------ - ------- --- ----------<br>------------- ------ ------ ---- ---- ------- ----- -- ----<br>-------- ------- -- ---------- --- - --- ----- ----- ----<br>---- --- --- ----- --- ---- that ------- ----- ---- -------<br>--- --- -- ----- -- --- ---- -- --- ---- -- ------ ------<br>--- ----- -- ----,101250,101247,100988.46,100989,100989.06,101250.68,,34,that
screen,html.Screen,2_1_0_1_35,2022-05-11T13:13:01.984Z,,,,,,,,,,,,,,,,,53,,,,,,,,,,,,,,420.320000000007,,response,,,,99,,,,,,,Space,keypress(Space),,,,,,,,---- -- ----- -- ------ - ------- --- ----------<br>------------- ------ ------ ---- ---- ------- ----- -- ----<br>-------- ------- -- ---------- --- - --- ----- ----- ----<br>---- --- --- ----- --- ---- ---- matters ----- ---- -------<br>--- --- -- ----- -- --- ---- -- --- ---- -- ------ ------<br>--- ----- -- ----,101676,101671,101250.1,101250,101250.68,101676.72,,35,matters
screen,html.Screen,2_1_0_1_36,2022-05-11T13:13:02.254Z,,,,,,,,,,,,,,,,,53,,,,,,,,,,,,,,266.27999999999884,,response,,,,99,,,,,,,Space,keypress(Space),,,,,,,,"---- -- ----- -- ------ - ------- --- ----------<br>------------- ------ ------ ---- ---- ------- ----- -- ----<br>-------- ------- -- ---------- --- - --- ----- ----- ----<br>---- --- --- ----- --- ---- ---- ------- most, ---- -------<br>--- --- -- ----- -- --- ---- -- --- ---- -- ------ ------<br>--- ----- -- ----",101946,101943,101676.14,101676,101676.72,101946.32,,36,"most,"
screen,html.Screen,2_1_0_1_37,2022-05-11T13:13:02.752Z,,,,,,,,,,,,,,,,,53,,,,,,,,,,,,,,492.679999999993,,response,,,,99,,,,,,,Space,keypress(Space),,,,,,,,---- -- ----- -- ------ - ------- --- ----------<br>------------- ------ ------ ---- ---- ------- ----- -- ----<br>-------- ------- -- ---------- --- - --- ----- ----- ----<br>---- --- --- ----- --- ---- ---- ------- ----- it's -------<br>--- --- -- ----- -- --- ---- -- --- ---- -- ------ ------<br>--- ----- -- ----,102444,102439,101945.68,101946,101946.32,102445.32,,37,it's
screen,html.Screen,2_1_0_1_38,2022-05-11T13:13:03.069Z,,,,,,,,,,,,,,,,,53,,,,,,,,,,,,,,313.679999999993,,response,,,,99,,,,,,,Space,keypress(Space),,,,,,,,---- -- ----- -- ------ - ------- --- ----------<br>------------- ------ ------ ---- ---- ------- ----- -- ----<br>-------- ------- -- ---------- --- - --- ----- ----- ----<br>---- --- --- ----- --- ---- ---- ------- ----- ---- whether<br>--- --- -- ----- -- --- ---- -- --- ---- -- ------ ------<br>--- ----- -- ----,102761,102759,102444.6,102445,102445.32,102762.36,,38,whether
screen,html.Screen,2_1_0_1_39,2022-05-11T13:13:03.432Z,,,,,,,,,,,,,,,,,53,,,,,,,,,,,,,,356.6399999999994,,response,,,,99,,,,,,,Space,keypress(Space),,,,,,,,---- -- ----- -- ------ - ------- --- ----------<br>------------- ------ ------ ---- ---- ------- ----- -- ----<br>-------- ------- -- ---------- --- - --- ----- ----- ----<br>---- --- --- ----- --- ---- ---- ------- ----- ---- -------<br>you --- -- ----- -- --- ---- -- --- ---- -- ------ ------<br>--- ----- -- ----,103124,103119,102761.76,102762,102762.36,103124.98,,39,you
screen,html.Screen,2_1_0_1_40,2022-05-11T13:13:03.749Z,,,,,,,,,,,,,,,,,53,,,,,,,,,,,,,,314.0200000000041,,response,,,,99,,,,,,,Space,keypress(Space),,,,,,,,---- -- ----- -- ------ - ------- --- ----------<br>------------- ------ ------ ---- ---- ------- ----- -- ----<br>-------- ------- -- ---------- --- - --- ----- ----- ----<br>---- --- --- ----- --- ---- ---- ------- ----- ---- -------<br>--- are -- ----- -- --- ---- -- --- ---- -- ------ ------<br>--- ----- -- ----,103441,103439,103124.38,103124,103124.98,103441.84,,40,are
screen,html.Screen,2_1_0_1_41,2022-05-11T13:13:04.015Z,,,,,,,,,,,,,,,,,53,,,,,,,,,,,,,,261.1600000000035,,response,,,,99,,,,,,,Space,keypress(Space),,,,,,,,---- -- ----- -- ------ - ------- --- ----------<br>------------- ------ ------ ---- ---- ------- ----- -- ----<br>-------- ------- -- ---------- --- - --- ----- ----- ----<br>---- --- --- ----- --- ---- ---- ------- ----- ---- -------<br>--- --- as ----- -- --- ---- -- --- ---- -- ------ ------<br>--- ----- -- ----,103708,103703,103441.22,103442,103441.84,103708.58,,41,as
screen,html.Screen,2_1_0_1_42,2022-05-11T13:13:04.269Z,,,,,,,,,,,,,,,,,53,,,,,,,,,,,,,,249.41999999999825,,response,,,,99,,,,,,,Space,keypress(Space),,,,,,,,---- -- ----- -- ------ - ------- --- ----------<br>------------- ------ ------ ---- ---- ------- ----- -- ----<br>-------- ------- -- ---------- --- - --- ----- ----- ----<br>---- --- --- ----- --- ---- ---- ------- ----- ---- -------<br>--- --- -- close -- --- ---- -- --- ---- -- ------ ------<br>--- ----- -- ----,103962,103958,103707.96,103708,103708.58,103962.2,,42,close
screen,html.Screen,2_1_0_1_43,2022-05-11T13:13:04.560Z,,,,,,,,,,,,,,,,,53,,,,,,,,,,,,,,284.8000000000029,,response,,,,99,,,,,,,Space,keypress(Space),,,,,,,,---- -- ----- -- ------ - ------- --- ----------<br>------------- ------ ------ ---- ---- ------- ----- -- ----<br>-------- ------- -- ---------- --- - --- ----- ----- ----<br>---- --- --- ----- --- ---- ---- ------- ----- ---- -------<br>--- --- -- ----- as --- ---- -- --- ---- -- ------ ------<br>--- ----- -- ----,104252,104247,103961.62,103962,103962.2,104252.7,,43,as
screen,html.Screen,2_1_0_1_44,2022-05-11T13:13:04.893Z,,,,,,,,,,,,,,,,,53,,,,,,,,,,,,,,330.3000000000029,,response,,,,99,,,,,,,Space,keypress(Space),,,,,,,,---- -- ----- -- ------ - ------- --- ----------<br>------------- ------ ------ ---- ---- ------- ----- -- ----<br>-------- ------- -- ---------- --- - --- ----- ----- ----<br>---- --- --- ----- --- ---- ---- ------- ----- ---- -------<br>--- --- -- ----- -- you ---- -- --- ---- -- ------ ------<br>--- ----- -- ----,104585,104583,104252.08,104252,104252.7,104586.02,,44,you
screen,html.Screen,2_1_0_1_45,2022-05-11T13:13:05.208Z,,,,,,,,,,,,,,,,,53,,,,,,,,,,,,,,308.9799999999959,,response,,,,99,,,,,,,Space,keypress(Space),,,,,,,,---- -- ----- -- ------ - ------- --- ----------<br>------------- ------ ------ ---- ---- ------- ----- -- ----<br>-------- ------- -- ---------- --- - --- ----- ----- ----<br>---- --- --- ----- --- ---- ---- ------- ----- ---- -------<br>--- --- -- ----- -- --- want -- --- ---- -- ------ ------<br>--- ----- -- ----,104900,104895,104585.4,104585,104586.02,104900.66,,45,want
screen,html.Screen,2_1_0_1_46,2022-05-11T13:13:05.509Z,,,,,,,,,,,,,,,,,53,,,,,,,,,,,,,,297.3399999999965,,response,,,,99,,,,,,,Space,keypress(Space),,,,,,,,---- -- ----- -- ------ - ------- --- ----------<br>------------- ------ ------ ---- ---- ------- ----- -- ----<br>-------- ------- -- ---------- --- - --- ----- ----- ----<br>---- --- --- ----- --- ---- ---- ------- ----- ---- -------<br>--- --- -- ----- -- --- ---- to --- ---- -- ------ ------<br>--- ----- -- ----,105201,105198,104899.98,104900,104900.66,105202.48,,46,to
screen,html.Screen,2_1_0_1_47,2022-05-11T13:13:05.809Z,,,,,,,,,,,,,,,,,53,,,,,,,,,,,,,,292.5200000000041,,response,,,,99,,,,,,,Space,keypress(Space),,,,,,,,"---- -- ----- -- ------ - ------- --- ----------<br>------------- ------ ------ ---- ---- ------- ----- -- ----<br>-------- ------- -- ---------- --- - --- ----- ----- ----<br>---- --- --- ----- --- ---- ---- ------- ----- ---- -------<br>--- --- -- ----- -- --- ---- -- be, ---- -- ------ ------<br>--- ----- -- ----",105501,105495,105201.9,105202,105202.48,105501.5,,47,"be,"
screen,html.Screen,2_1_0_1_48,2022-05-11T13:13:06.188Z,,,,,,,,,,,,,,,,,53,,,,,,,,,,,,,,377.5,,response,,,,99,,,,,,,Space,keypress(Space),,,,,,,,---- -- ----- -- ------ - ------- --- ----------<br>------------- ------ ------ ---- ---- ------- ----- -- ----<br>-------- ------- -- ---------- --- - --- ----- ----- ----<br>---- --- --- ----- --- ---- ---- ------- ----- ---- -------<br>--- --- -- ----- -- --- ---- -- --- even -- ------ ------<br>--- ----- -- ----,105881,105879,105500.92,105501,105501.5,105881.82,,48,even
screen,html.Screen,2_1_0_1_49,2022-05-11T13:13:06.472Z,,,,,,,,,,,,,,,,,53,,,,,,,,,,,,,,277.179999999993,,response,,,,99,,,,,,,Space,keypress(Space),,,,,,,,---- -- ----- -- ------ - ------- --- ----------<br>------------- ------ ------ ---- ---- ------- ----- -- ----<br>-------- ------- -- ---------- --- - --- ----- ----- ----<br>---- --- --- ----- --- ---- ---- ------- ----- ---- -------<br>--- --- -- ----- -- --- ---- -- --- ---- if ------ ------<br>--- ----- -- ----,106164,106159,105881.22,105881,105881.82,106164.74,,49,if
screen,html.Screen,2_1_0_1_50,2022-05-11T13:13:06.717Z,,,,,,,,,,,,,,,,,53,,,,,,,,,,,,,,242.25999999999476,,response,,,,99,,,,,,,Space,keypress(Space),,,,,,,,---- -- ----- -- ------ - ------- --- ----------<br>------------- ------ ------ ---- ---- ------- ----- -- ----<br>-------- ------- -- ---------- --- - --- ----- ----- ----<br>---- --- --- ----- --- ---- ---- ------- ----- ---- -------<br>--- --- -- ----- -- --- ---- -- --- ---- -- that's ------<br>--- ----- -- ----,106410,106407,106164.12,106164,106164.74,106410.58,,50,that's
screen,html.Screen,2_1_0_1_51,2022-05-11T13:13:06.911Z,,,,,,,,,,,,,,,,,53,,,,,,,,,,,,,,187.41999999999825,,response,,,,99,,,,,,,Space,keypress(Space),,,,,,,,---- -- ----- -- ------ - ------- --- ----------<br>------------- ------ ------ ---- ---- ------- ----- -- ----<br>-------- ------- -- ---------- --- - --- ----- ----- ----<br>---- --- --- ----- --- ---- ---- ------- ----- ---- -------<br>--- --- -- ----- -- --- ---- -- --- ---- -- ------ really<br>--- ----- -- ----,106604,106598,106409.96,106410,106410.58,106603.66,,51,really
screen,html.Screen,2_1_0_1_52,2022-05-11T13:13:07.246Z,,,,,,,,,,,,,,,,,53,,,,,,,,,,,,,,331.3399999999965,,response,,,,99,,,,,,,Space,keypress(Space),,,,,,,,---- -- ----- -- ------ - ------- --- ----------<br>------------- ------ ------ ---- ---- ------- ----- -- ----<br>-------- ------- -- ---------- --- - --- ----- ----- ----<br>---- --- --- ----- --- ---- ---- ------- ----- ---- -------<br>--- --- -- ----- -- --- ---- -- --- ---- -- ------ ------<br>not ----- -- ----,106938,106935,106603.56,106604,106603.66,106938.6,,52,not
screen,html.Screen,2_1_0_1_53,2022-05-11T13:13:07.552Z,,,,,,,,,,,,,,,,,53,,,,,,,,,,,,,,300.3999999999942,,response,,,,99,,,,,,,Space,keypress(Space),,,,,,,,---- -- ----- -- ------ - ------- --- ----------<br>------------- ------ ------ ---- ---- ------- ----- -- ----<br>-------- ------- -- ---------- --- - --- ----- ----- ----<br>---- --- --- ----- --- ---- ---- ------- ----- ---- -------<br>--- --- -- ----- -- --- ---- -- --- ---- -- ------ ------<br>--- close -- ----,107244,107239,106937.98,106938,106938.6,107244.46,,53,close
screen,html.Screen,2_1_0_1_54,2022-05-11T13:13:07.837Z,,,,,,,,,,,,,,,,,53,,,,,,,,,,,,,,282.5399999999936,,response,,,,99,,,,,,,Space,keypress(Space),,,,,,,,---- -- ----- -- ------ - ------- --- ----------<br>------------- ------ ------ ---- ---- ------- ----- -- ----<br>-------- ------- -- ---------- --- - --- ----- ----- ----<br>---- --- --- ----- --- ---- ---- ------- ----- ---- -------<br>--- --- -- ----- -- --- ---- -- --- ---- -- ------ ------<br>--- ----- at ----,107529,107527,107243.86,107244,107244.46,107530.04,,54,at
screen,html.Screen,2_1_0_1_55,2022-05-11T13:13:08.272Z,,,,,,,,,,,,,,,,,53,,,,,,,,,,,,,,428.9600000000064,,response,,,,99,,,,,,,Space,keypress(Space),,,,,,,,---- -- ----- -- ------ - ------- --- ----------<br>------------- ------ ------ ---- ---- ------- ----- -- ----<br>-------- ------- -- ---------- --- - --- ----- ----- ----<br>---- --- --- ----- --- ---- ---- ------- ----- ---- -------<br>--- --- -- ----- -- --- ---- -- --- ---- -- ------ ------<br>--- ----- -- all.,107964,107959,107529.4,107529,107530.04,107965.54,,55,all.
Item 99,flow.Loop,2_1_0_1,2022-05-11T13:13:08.273Z,,,,,,,,,,,,,,,,,,,,,,,,,,,,,,,16921.399999999994,,completion,,,,,E,,,,,,,,,,,silence,,,,,107964,107959,91020.7,91022,91037.6,107965.54,,,
Question 1,html.Screen,2_1_0_2,2022-05-11T13:13:12.756Z,,,,,,,,,,,,,,,,,,,,,,,,,,,,false,FALSE,,4481.460000000006,,response,,,,99,E,,,,,,TRUE,click #choice-1,,,,silence,,,,,112449,112447,107964.94,107965,107965.54,112448.44,,,
Question 2,html.Screen,2_1_0_3,2022-05-11T13:13:17.619Z,,,,,,,,,,,,,,,,,,,,,,,,,,,,true,TRUE,,4860.559999999998,,response,,,,99,E,,,,,,TRUE,click #choice-1,,,,silence,,,,,117310,117309,112448.04,112449,112448.44,117310.66,,,
Item 99,flow.Sequence,2_1_0,2022-05-11T13:13:17.619Z,,,,,,,,,,,,,,,,,,,,,,,,,,,,,,,36271.08,,completion,,,,,,,,,,,,,,,,,,,,,117311,117309,81000.56,81012,81037.92,117310.66,,,
Holding screen,html.Screen,2_1_1_0,2022-05-11T13:13:27.596Z,,,,,,,,,,,,,,,,,,,,,,,,,,,,,,,9994.220000000001,,timeout,,,,,,,,,,,,,,,,,,,,,127288,127287.52,117310.26,117311,117310.66,127304.88,,,
screen,html.Screen,2_1_1_1_0,2022-05-11T13:13:43.556Z,,,,,,,,,,,,,,,,,54,,,,,,,,,,,,,,15942.119999999995,,response,,,,100,,,,,,,Space,keypress(Space),,,,,,,,At --- ---- --- ------ ----- ------- ---- -- --- ------- --<br>------- ---------- ------ -- ----- -- ----- -- ---- ------<br>--- ----- --- --- ------ -------- ----- --- ------ ----- --<br>----- ----- ---------- --- --- ------ ------ ---- -- ------<br>------- --- ------ ----- --- ---- ------- -- ---- --- --<br>------- ------,143249,143247,127287.52,127289,127304.88,143250.34,,0,At
screen,html.Screen,2_1_1_1_1,2022-05-11T13:13:43.686Z,,,,,,,,,,,,,,,,,54,,,,,,,,,,,,,,124.66000000000349,,response,,,,100,,,,,,,Space,keypress(Space),,,,,,,,-- the ---- --- ------ ----- ------- ---- -- --- ------- --<br>------- ---------- ------ -- ----- -- ----- -- ---- ------<br>--- ----- --- --- ------ -------- ----- --- ------ ----- --<br>----- ----- ---------- --- --- ------ ------ ---- -- ------<br>------- --- ------ ----- --- ---- ------- -- ---- --- --<br>------- ------,143379,143375,143249.78,143249,143250.34,143390.56,,1,the
screen,html.Screen,2_1_1_1_2,2022-05-11T13:13:43.900Z,,,,,,,,,,,,,,,,,54,,,,,,,,,,,,,,199.44000000000233,,response,,,,100,,,,,,,Space,keypress(Space),,,,,,,,-- --- time --- ------ ----- ------- ---- -- --- ------- --<br>------- ---------- ------ -- ----- -- ----- -- ---- ------<br>--- ----- --- --- ------ -------- ----- --- ------ ----- --<br>----- ----- ---------- --- --- ------ ------ ---- -- ------<br>------- --- ------ ----- --- ---- ------- -- ---- --- --<br>------- ------,143593,143590,143379.22,143380,143390.56,143593.92,,2,time
screen,html.Screen,2_1_1_1_3,2022-05-11T13:13:44.102Z,,,,,,,,,,,,,,,,,54,,,,,,,,,,,,,,196.0799999999872,,response,,,,100,,,,,,,Space,keypress(Space),,,,,,,,-- --- ---- the ------ ----- ------- ---- -- --- ------- --<br>------- ---------- ------ -- ----- -- ----- -- ---- ------<br>--- ----- --- --- ------ -------- ----- --- ------ ----- --<br>----- ----- ---------- --- --- ------ ------ ---- -- ------<br>------- --- ------ ----- --- ---- ------- -- ---- --- --<br>------- ------,143795,143790,143593.3,143593,143593.92,143808.58,,3,the
screen,html.Screen,2_1_1_1_4,2022-05-11T13:13:44.300Z,,,,,,,,,,,,,,,,,54,,,,,,,,,,,,,,181.4200000000128,,response,,,,100,,,,,,,Space,keypress(Space),,,,,,,,-- --- ---- --- French ----- ------- ---- -- --- ------- --<br>------- ---------- ------ -- ----- -- ----- -- ---- ------<br>--- ----- --- --- ------ -------- ----- --- ------ ----- --<br>----- ----- ---------- --- --- ------ ------ ---- -- ------<br>------- --- ------ ----- --- ---- ------- -- ---- --- --<br>------- ------,143993,143990,143795.34,143796,143808.58,144008.6,,4,French
screen,html.Screen,2_1_1_1_5,2022-05-11T13:13:44.510Z,,,,,,,,,,,,,,,,,54,,,,,,,,,,,,,,189.39999999999418,,response,,,,100,,,,,,,Space,keypress(Space),,,,,,,,-- --- ---- --- ------ crown ------- ---- -- --- ------- --<br>------- ---------- ------ -- ----- -- ----- -- ---- ------<br>--- ----- --- --- ------ -------- ----- --- ------ ----- --<br>----- ----- ---------- --- --- ------ ------ ---- -- ------<br>------- --- ------ ----- --- ---- ------- -- ---- --- --<br>------- ------,144203,144198,143992.98,143993,144008.6,144203.92,,5,crown
screen,html.Screen,2_1_1_1_6,2022-05-11T13:13:44.724Z,,,,,,,,,,,,,,,,,54,,,,,,,,,,,,,,210.0799999999872,,response,,,,100,,,,,,,Space,keypress(Space),,,,,,,,-- --- ---- --- ------ ----- secured ---- -- --- ------- --<br>------- ---------- ------ -- ----- -- ----- -- ---- ------<br>--- ----- --- --- ------ -------- ----- --- ------ ----- --<br>----- ----- ---------- --- --- ------ ------ ---- -- ------<br>------- --- ------ ----- --- ---- ------- -- ---- --- --<br>------- ------,144417,144414,144203.32,144203,144203.92,144426.58,,6,secured
screen,html.Screen,2_1_1_1_7,2022-05-11T13:13:44.934Z,,,,,,,,,,,,,,,,,54,,,,,,,,,,,,,,196.4200000000128,,response,,,,100,,,,,,,Space,keypress(Space),,,,,,,,-- --- ---- --- ------ ----- ------- much -- --- ------- --<br>------- ---------- ------ -- ----- -- ----- -- ---- ------<br>--- ----- --- --- ------ -------- ----- --- ------ ----- --<br>----- ----- ---------- --- --- ------ ------ ---- -- ------<br>------- --- ------ ----- --- ---- ------- -- ---- --- --<br>------- ------,144627,144623,144417.22,144417,144426.58,144627.9,,7,much
screen,html.Screen,2_1_1_1_8,2022-05-11T13:13:45.108Z,,,,,,,,,,,,,,,,,54,,,,,,,,,,,,,,170.10000000000582,,response,,,,100,,,,,,,Space,keypress(Space),,,,,,,,-- --- ---- --- ------ ----- ------- ---- of --- ------- --<br>------- ---------- ------ -- ----- -- ----- -- ---- ------<br>--- ----- --- --- ------ -------- ----- --- ------ ----- --<br>----- ----- ---------- --- --- ------ ------ ---- -- ------<br>------- --- ------ ----- --- ---- ------- -- ---- --- --<br>------- ------,144801,144798,144627.28,144628,144627.9,144801.38,,8,of
screen,html.Screen,2_1_1_1_9,2022-05-11T13:13:45.518Z,,,,,,,,,,,,,,,,,54,,,,,,,,,,,,,,405.61999999999534,,response,,,,100,,,,,,,Space,keypress(Space),,,,,,,,-- --- ---- --- ------ ----- ------- ---- -- its ------- --<br>------- ---------- ------ -- ----- -- ----- -- ---- ------<br>--- ----- --- --- ------ -------- ----- --- ------ ----- --<br>----- ----- ---------- --- --- ------ ------ ---- -- ------<br>------- --- ------ ----- --- ---- ------- -- ---- --- --<br>------- ------,145211,145207,144800.76,144801,144801.38,145211.94,,9,its
screen,html.Screen,2_1_1_1_10,2022-05-11T13:13:45.748Z,,,,,,,,,,,,,,,,,54,,,,,,,,,,,,,,226.05999999999767,,response,,,,100,,,,,,,Space,keypress(Space),,,,,,,,-- --- ---- --- ------ ----- ------- ---- -- --- revenue --<br>------- ---------- ------ -- ----- -- ----- -- ---- ------<br>--- ----- --- --- ------ -------- ----- --- ------ ----- --<br>----- ----- ---------- --- --- ------ ------ ---- -- ------<br>------- --- ------ ----- --- ---- ------- -- ---- --- --<br>------- ------,145441,145438,145211.4,145212,145211.94,145441.64,,10,revenue
screen,html.Screen,2_1_1_1_11,2022-05-11T13:13:46.046Z,,,,,,,,,,,,,,,,,54,,,,,,,,,,,,,,292.35999999998603,,response,,,,100,,,,,,,Space,keypress(Space),,,,,,,,-- --- ---- --- ------ ----- ------- ---- -- --- ------- by<br>------- ---------- ------ -- ----- -- ----- -- ---- ------<br>--- ----- --- --- ------ -------- ----- --- ------ ----- --<br>----- ----- ---------- --- --- ------ ------ ---- -- ------<br>------- --- ------ ----- --- ---- ------- -- ---- --- --<br>------- ------,145739,145734,145441.02,145441,145441.64,145739.96,,11,by
screen,html.Screen,2_1_1_1_12,2022-05-11T13:13:46.324Z,,,,,,,,,,,,,,,,,54,,,,,,,,,,,,,,274.04000000000815,,response,,,,100,,,,,,,Space,keypress(Space),,,,,,,,-- --- ---- --- ------ ----- ------- ---- -- --- ------- --<br>issuing ---------- ------ -- ----- -- ----- -- ---- ------<br>--- ----- --- --- ------ -------- ----- --- ------ ----- --<br>----- ----- ---------- --- --- ------ ------ ---- -- ------<br>------- --- ------ ----- --- ---- ------- -- ---- --- --<br>------- ------,146018,146014,145739.38,145739,145739.96,146018.04,,12,issuing
screen,html.Screen,2_1_1_1_13,2022-05-11T13:13:46.600Z,,,,,,,,,,,,,,,,,54,,,,,,,,,,,,,,267.95999999999185,,response,,,,100,,,,,,,Space,keypress(Space),,,,,,,,-- --- ---- --- ------ ----- ------- ---- -- --- ------- --<br>------- government ------ -- ----- -- ----- -- ---- ------<br>--- ----- --- --- ------ -------- ----- --- ------ ----- --<br>----- ----- ---------- --- --- ------ ------ ---- -- ------<br>------- --- ------ ----- --- ---- ------- -- ---- --- --<br>------- ------,146292,146286,146017.44,146018,146018.04,146293.48,,13,government
screen,html.Screen,2_1_1_1_14,2022-05-11T13:13:46.828Z,,,,,,,,,,,,,,,,,54,,,,,,,,,,,,,,224.51999999998952,,response,,,,100,,,,,,,Space,keypress(Space),,,,,,,,-- --- ---- --- ------ ----- ------- ---- -- --- ------- --<br>------- ---------- bonds. -- ----- -- ----- -- ---- ------<br>--- ----- --- --- ------ -------- ----- --- ------ ----- --<br>----- ----- ---------- --- --- ------ ------ ---- -- ------<br>------- --- ------ ----- --- ---- ------- -- ---- --- --<br>------- ------,146520,146518,146292.9,146293,146293.48,146533.9,,14,bonds.
screen,html.Screen,2_1_1_1_15,2022-05-11T13:13:47.118Z,,,,,,,,,,,,,,,,,54,,,,,,,,,,,,,,273.1000000000058,,response,,,,100,,,,,,,Space,keypress(Space),,,,,,,,-- --- ---- --- ------ ----- ------- ---- -- --- ------- --<br>------- ---------- ------ In ----- -- ----- -- ---- ------<br>--- ----- --- --- ------ -------- ----- --- ------ ----- --<br>----- ----- ---------- --- --- ------ ------ ---- -- ------<br>------- --- ------ ----- --- ---- ------- -- ---- --- --<br>------- ------,146811,146807,146516.46,146521,146533.9,146818.24,,15,In
screen,html.Screen,2_1_1_1_16,2022-05-11T13:13:47.452Z,,,,,,,,,,,,,,,,,54,,,,,,,,,,,,,,323.7600000000093,,response,,,,100,,,,,,,Space,keypress(Space),,,,,,,,"-- --- ---- --- ------ ----- ------- ---- -- --- ------- --<br>------- ---------- ------ -- 1727, -- ----- -- ---- ------<br>--- ----- --- --- ------ -------- ----- --- ------ ----- --<br>----- ----- ---------- --- --- ------ ------ ---- -- ------<br>------- --- ------ ----- --- ---- ------- -- ---- --- --<br>------- ------",147146,147142,146801.56,146811,146818.24,147152.14,,16,"1727,"
screen,html.Screen,2_1_1_1_17,2022-05-11T13:13:47.758Z,,,,,,,,,,,,,,,,,54,,,,,,,,,,,,,,293.85999999998603,,response,,,,100,,,,,,,Space,keypress(Space),,,,,,,,-- --- ---- --- ------ ----- ------- ---- -- --- ------- --<br>------- ---------- ------ -- ----- in ----- -- ---- ------<br>--- ----- --- --- ------ -------- ----- --- ------ ----- --<br>----- ----- ---------- --- --- ------ ------ ---- -- ------<br>------- --- ------ ----- --- ---- ------- -- ---- --- --<br>------- ------,147451,147446,147135.42,147146,147152.14,147470.38,,17,in
screen,html.Screen,2_1_1_1_18,2022-05-11T13:13:48.276Z,,,,,,,,,,,,,,,,,54,,,,,,,,,,,,,,496.61999999999534,,response,,,,100,,,,,,,Space,keypress(Space),,,,,,,,-- --- ---- --- ------ ----- ------- ---- -- --- ------- --<br>------- ---------- ------ -- ----- -- order -- ---- ------<br>--- ----- --- --- ------ -------- ----- --- ------ ----- --<br>----- ----- ---------- --- --- ------ ------ ---- -- ------<br>------- --- ------ ----- --- ---- ------- -- ---- --- --<br>------- ------,147969,147967,147453.64,147452,147470.38,147987.76,,18,order
screen,html.Screen,2_1_1_1_19,2022-05-11T13:13:48.518Z,,,,,,,,,,,,,,,,,54,,,,,,,,,,,,,,218.2399999999907,,response,,,,100,,,,,,,Space,keypress(Space),,,,,,,,-- --- ---- --- ------ ----- ------- ---- -- --- ------- --<br>------- ---------- ------ -- ----- -- ----- to ---- ------<br>--- ----- --- --- ------ -------- ----- --- ------ ----- --<br>----- ----- ---------- --- --- ------ ------ ---- -- ------<br>------- --- ------ ----- --- ---- ------- -- ---- --- --<br>------- ------,148211,148206,147971.98,147969,147987.76,148222.14,,19,to
screen,html.Screen,2_1_1_1_20,2022-05-11T13:13:48.844Z,,,,,,,,,,,,,,,,,54,,,,,,,,,,,,,,311.85999999998603,,response,,,,100,,,,,,,Space,keypress(Space),,,,,,,,-- --- ---- --- ------ ----- ------- ---- -- --- ------- --<br>------- ---------- ------ -- ----- -- ----- -- save ------<br>--- ----- --- --- ------ -------- ----- --- ------ ----- --<br>----- ----- ---------- --- --- ------ ------ ---- -- ------<br>------- --- ------ ----- --- ---- ------- -- ---- --- --<br>------- ------,148537,148534,148205.32,148211,148222.14,148557.3,,20,save
screen,html.Screen,2_1_1_1_21,2022-05-11T13:13:49.150Z,,,,,,,,,,,,,,,,,54,,,,,,,,,,,,,,280.70000000001164,,response,,,,100,,,,,,,Space,keypress(Space),,,,,,,,"-- --- ---- --- ------ ----- ------- ---- -- --- ------- --<br>------- ---------- ------ -- ----- -- ----- -- ---- money,<br>--- ----- --- --- ------ -------- ----- --- ------ ----- --<br>----- ----- ---------- --- --- ------ ------ ---- -- ------<br>------- --- ------ ----- --- ---- ------- -- ---- --- --<br>------- ------",148843,148838,148540.06,148538,148557.3,148839.4,,21,"money,"
screen,html.Screen,2_1_1_1_22,2022-05-11T13:13:49.452Z,,,,,,,,,,,,,,,,,54,,,,,,,,,,,,,,303.6000000000058,,response,,,,100,,,,,,,Space,keypress(Space),,,,,,,,-- --- ---- --- ------ ----- ------- ---- -- --- ------- --<br>------- ---------- ------ -- ----- -- ----- -- ---- ------<br>the ----- --- --- ------ -------- ----- --- ------ ----- --<br>----- ----- ---------- --- --- ------ ------ ---- -- ------<br>------- --- ------ ----- --- ---- ------- -- ---- --- --<br>------- ------,149146,149143,148838.7,148843,148839.4,149146.08,,22,the
screen,html.Screen,2_1_1_1_23,2022-05-11T13:13:49.886Z,,,,,,,,,,,,,,,,,54,,,,,,,,,,,,,,428.9200000000128,,response,,,,100,,,,,,,Space,keypress(Space),,,,,,,,-- --- ---- --- ------ ----- ------- ---- -- --- ------- --<br>------- ---------- ------ -- ----- -- ----- -- ---- ------<br>--- state --- --- ------ -------- ----- --- ------ ----- --<br>----- ----- ---------- --- --- ------ ------ ---- -- ------<br>------- --- ------ ----- --- ---- ------- -- ---- --- --<br>------- ------,149580,149575,149145.44,149146,149146.08,149580.36,,23,state
screen,html.Screen,2_1_1_1_24,2022-05-11T13:13:50.132Z,,,,,,,,,,,,,,,,,54,,,,,,,,,,,,,,242.64000000001397,,response,,,,100,,,,,,,Space,keypress(Space),,,,,,,,-- --- ---- --- ------ ----- ------- ---- -- --- ------- --<br>------- ---------- ------ -- ----- -- ----- -- ---- ------<br>--- ----- cut --- ------ -------- ----- --- ------ ----- --<br>----- ----- ---------- --- --- ------ ------ ---- -- ------<br>------- --- ------ ----- --- ---- ------- -- ---- --- --<br>------- ------,149824,149823,149579.74,149580,149580.36,149825.6,,24,cut
screen,html.Screen,2_1_1_1_25,2022-05-11T13:13:50.375Z,,,,,,,,,,,,,,,,,54,,,,,,,,,,,,,,237.39999999999418,,response,,,,100,,,,,,,Space,keypress(Space),,,,,,,,-- --- ---- --- ------ ----- ------- ---- -- --- ------- --<br>------- ---------- ------ -- ----- -- ----- -- ---- ------<br>--- ----- --- the ------ -------- ----- --- ------ ----- --<br>----- ----- ---------- --- --- ------ ------ ---- -- ------<br>------- --- ------ ----- --- ---- ------- -- ---- --- --<br>------- ------,150068,150063,149824.98,149824,149825.6,150068.44,,25,the
screen,html.Screen,2_1_1_1_26,2022-05-11T13:13:50.612Z,,,,,,,,,,,,,,,,,54,,,,,,,,,,,,,,233.55999999999767,,response,,,,100,,,,,,,Space,keypress(Space),,,,,,,,-- --- ---- --- ------ ----- ------- ---- -- --- ------- --<br>------- ---------- ------ -- ----- -- ----- -- ---- ------<br>--- ----- --- --- bonds' -------- ----- --- ------ ----- --<br>----- ----- ---------- --- --- ------ ------ ---- -- ------<br>------- --- ------ ----- --- ---- ------- -- ---- --- --<br>------- ------,150305,150302,150067.82,150068,150068.44,150305.8,,26,bonds'
screen,html.Screen,2_1_1_1_27,2022-05-11T13:13:50.831Z,,,,,,,,,,,,,,,,,54,,,,,,,,,,,,,,212.20000000001164,,response,,,,100,,,,,,,Space,keypress(Space),,,,,,,,-- --- ---- --- ------ ----- ------- ---- -- --- ------- --<br>------- ---------- ------ -- ----- -- ----- -- ---- ------<br>--- ----- --- --- ------ interest ----- --- ------ ----- --<br>----- ----- ---------- --- --- ------ ------ ---- -- ------<br>------- --- ------ ----- --- ---- ------- -- ---- --- --<br>------- ------,150525,150518,150305.24,150305,150305.8,150530.32,,27,interest
screen,html.Screen,2_1_1_1_28,2022-05-11T13:13:51.076Z,,,,,,,,,,,,,,,,,54,,,,,,,,,,,,,,236.67999999999302,,response,,,,100,,,,,,,Space,keypress(Space),,,,,,,,-- --- ---- --- ------ ----- ------- ---- -- --- ------- --<br>------- ---------- ------ -- ----- -- ----- -- ---- ------<br>--- ----- --- --- ------ -------- rate. --- ------ ----- --<br>----- ----- ---------- --- --- ------ ------ ---- -- ------<br>------- --- ------ ----- --- ---- ------- -- ---- --- --<br>------- ------,150770,150767,150524.92,150525,150530.32,150770.34,,28,rate.
screen,html.Screen,2_1_1_1_29,2022-05-11T13:13:51.302Z,,,,,,,,,,,,,,,,,54,,,,,,,,,,,,,,219.6600000000035,,response,,,,100,,,,,,,Space,keypress(Space),,,,,,,,-- --- ---- --- ------ ----- ------- ---- -- --- ------- --<br>------- ---------- ------ -- ----- -- ----- -- ---- ------<br>--- ----- --- --- ------ -------- ----- The ------ ----- --<br>----- ----- ---------- --- --- ------ ------ ---- -- ------<br>------- --- ------ ----- --- ---- ------- -- ---- --- --<br>------- ------,150995,150990,150769.74,150770,150770.34,150995.94,,29,The
screen,html.Screen,2_1_1_1_30,2022-05-11T13:13:51.587Z,,,,,,,,,,,,,,,,,54,,,,,,,,,,,,,,282.0599999999977,,response,,,,100,,,,,,,Space,keypress(Space),,,,,,,,-- --- ---- --- ------ ----- ------- ---- -- --- ------- --<br>------- ---------- ------ -- ----- -- ----- -- ---- ------<br>--- ----- --- --- ------ -------- ----- --- market ----- --<br>----- ----- ---------- --- --- ------ ------ ---- -- ------<br>------- --- ------ ----- --- ---- ------- -- ---- --- --<br>------- ------,151281,151278,150995.3,150996,150995.94,151281.86,,30,market
screen,html.Screen,2_1_1_1_31,2022-05-11T13:13:51.878Z,,,,,,,,,,,,,,,,,54,,,,,,,,,,,,,,284.14000000001397,,response,,,,100,,,,,,,Space,keypress(Space),,,,,,,,-- --- ---- --- ------ ----- ------- ---- -- --- ------- --<br>------- ---------- ------ -- ----- -- ----- -- ---- ------<br>--- ----- --- --- ------ -------- ----- --- ------ value --<br>----- ----- ---------- --- --- ------ ------ ---- -- ------<br>------- --- ------ ----- --- ---- ------- -- ---- --- --<br>------- ------,151571,151566,151281.22,151281,151281.86,151571.6,,31,value
screen,html.Screen,2_1_1_1_32,2022-05-11T13:13:52.148Z,,,,,,,,,,,,,,,,,54,,,,,,,,,,,,,,267.3999999999942,,response,,,,100,,,,,,,Space,keypress(Space),,,,,,,,-- --- ---- --- ------ ----- ------- ---- -- --- ------- --<br>------- ---------- ------ -- ----- -- ----- -- ---- ------<br>--- ----- --- --- ------ -------- ----- --- ------ ----- of<br>----- ----- ---------- --- --- ------ ------ ---- -- ------<br>------- --- ------ ----- --- ---- ------- -- ---- --- --<br>------- ------,151841,151839,151571,151571,151571.6,151841.96,,32,of
screen,html.Screen,2_1_1_1_33,2022-05-11T13:13:52.398Z,,,,,,,,,,,,,,,,,54,,,,,,,,,,,,,,245.04000000000815,,response,,,,100,,,,,,,Space,keypress(Space),,,,,,,,-- --- ---- --- ------ ----- ------- ---- -- --- ------- --<br>------- ---------- ------ -- ----- -- ----- -- ---- ------<br>--- ----- --- --- ------ -------- ----- --- ------ ----- --<br>these ----- ---------- --- --- ------ ------ ---- -- ------<br>------- --- ------ ----- --- ---- ------- -- ---- --- --<br>------- ------,152091,152087,151841.36,151841,151841.96,152091.8,,33,these
screen,html.Screen,2_1_1_1_34,2022-05-11T13:13:52.611Z,,,,,,,,,,,,,,,,,54,,,,,,,,,,,,,,210.20000000001164,,response,,,,100,,,,,,,Space,keypress(Space),,,,,,,,-- --- ---- --- ------ ----- ------- ---- -- --- ------- --<br>------- ---------- ------ -- ----- -- ----- -- ---- ------<br>--- ----- --- --- ------ -------- ----- --- ------ ----- --<br>----- bonds ---------- --- --- ------ ------ ---- -- ------<br>------- --- ------ ----- --- ---- ------- -- ---- --- --<br>------- ------,152304,152302,152091.14,152091,152091.8,152305.44,,34,bonds
screen,html.Screen,2_1_1_1_35,2022-05-11T13:13:52.830Z,,,,,,,,,,,,,,,,,54,,,,,,,,,,,,,,213.55999999999767,,response,,,,100,,,,,,,Space,keypress(Space),,,,,,,,"-- --- ---- --- ------ ----- ------- ---- -- --- ------- --<br>------- ---------- ------ -- ----- -- ----- -- ---- ------<br>--- ----- --- --- ------ -------- ----- --- ------ ----- --<br>----- ----- plummeted, --- --- ------ ------ ---- -- ------<br>------- --- ------ ----- --- ---- ------- -- ---- --- --<br>------- ------",152523,152519,152304.84,152305,152305.44,152524.46,,35,"plummeted,"
screen,html.Screen,2_1_1_1_36,2022-05-11T13:13:53.053Z,,,,,,,,,,,,,,,,,54,,,,,,,,,,,,,,217.54000000000815,,response,,,,100,,,,,,,Space,keypress(Space),,,,,,,,-- --- ---- --- ------ ----- ------- ---- -- --- ------- --<br>------- ---------- ------ -- ----- -- ----- -- ---- ------<br>--- ----- --- --- ------ -------- ----- --- ------ ----- --<br>----- ----- ---------- and --- ------ ------ ---- -- ------<br>------- --- ------ ----- --- ---- ------- -- ---- --- --<br>------- ------,152746,152742,152523.9,152524,152524.46,152747.44,,36,and
screen,html.Screen,2_1_1_1_37,2022-05-11T13:13:53.270Z,,,,,,,,,,,,,,,,,54,,,,,,,,,,,,,,210.55999999999767,,response,,,,100,,,,,,,Space,keypress(Space),,,,,,,,-- --- ---- --- ------ ----- ------- ---- -- --- ------- --<br>------- ---------- ------ -- ----- -- ----- -- ---- ------<br>--- ----- --- --- ------ -------- ----- --- ------ ----- --<br>----- ----- ---------- --- the ------ ------ ---- -- ------<br>------- --- ------ ----- --- ---- ------- -- ---- --- --<br>------- ------,152963,152958,152746.76,152746,152747.44,152971.46,,37,the
screen,html.Screen,2_1_1_1_38,2022-05-11T13:13:53.484Z,,,,,,,,,,,,,,,,,54,,,,,,,,,,,,,,203.54000000000815,,response,,,,100,,,,,,,Space,keypress(Space),,,,,,,,-- --- ---- --- ------ ----- ------- ---- -- --- ------- --<br>------- ---------- ------ -- ----- -- ----- -- ---- ------<br>--- ----- --- --- ------ -------- ----- --- ------ ----- --<br>----- ----- ---------- --- --- market ------ ---- -- ------<br>------- --- ------ ----- --- ---- ------- -- ---- --- --<br>------- ------,153177,153175,152957.44,152963,152971.46,153177.94,,38,market
screen,html.Screen,2_1_1_1_39,2022-05-11T13:13:53.710Z,,,,,,,,,,,,,,,,,54,,,,,,,,,,,,,,221.05999999999767,,response,,,,100,,,,,,,Space,keypress(Space),,,,,,,,-- --- ---- --- ------ ----- ------- ---- -- --- ------- --<br>------- ---------- ------ -- ----- -- ----- -- ---- ------<br>--- ----- --- --- ------ -------- ----- --- ------ ----- --<br>----- ----- ---------- --- --- ------ became ---- -- ------<br>------- --- ------ ----- --- ---- ------- -- ---- --- --<br>------- ------,153403,153399,153177.32,153177,153177.94,153403.82,,39,became
screen,html.Screen,2_1_1_1_40,2022-05-11T13:13:53.940Z,,,,,,,,,,,,,,,,,54,,,,,,,,,,,,,,226.17999999999302,,response,,,,100,,,,,,,Space,keypress(Space),,,,,,,,-- --- ---- --- ------ ----- ------- ---- -- --- ------- --<br>------- ---------- ------ -- ----- -- ----- -- ---- ------<br>--- ----- --- --- ------ -------- ----- --- ------ ----- --<br>----- ----- ---------- --- --- ------ ------ wary -- ------<br>------- --- ------ ----- --- ---- ------- -- ---- --- --<br>------- ------,153633,153630,153403.22,153403,153403.82,153633.62,,40,wary
screen,html.Screen,2_1_1_1_41,2022-05-11T13:13:54.158Z,,,,,,,,,,,,,,,,,54,,,,,,,,,,,,,,212.38000000000466,,response,,,,100,,,,,,,Space,keypress(Space),,,,,,,,-- --- ---- --- ------ ----- ------- ---- -- --- ------- --<br>------- ---------- ------ -- ----- -- ----- -- ---- ------<br>--- ----- --- --- ------ -------- ----- --- ------ ----- --<br>----- ----- ---------- --- --- ------ ------ ---- of ------<br>------- --- ------ ----- --- ---- ------- -- ---- --- --<br>------- ------,153851,153846,153632.96,153633,153633.62,153857.9,,41,of
screen,html.Screen,2_1_1_1_42,2022-05-11T13:13:54.395Z,,,,,,,,,,,,,,,,,54,,,,,,,,,,,,,,229.10000000000582,,response,,,,100,,,,,,,Space,keypress(Space),,,,,,,,-- --- ---- --- ------ ----- ------- ---- -- --- ------- --<br>------- ---------- ------ -- ----- -- ----- -- ---- ------<br>--- ----- --- --- ------ -------- ----- --- ------ ----- --<br>----- ----- ---------- --- --- ------ ------ ---- -- French<br>------- --- ------ ----- --- ---- ------- -- ---- --- --<br>------- ------,154089,154087,153851.34,153852,153857.9,154089.38,,42,French
screen,html.Screen,2_1_1_1_43,2022-05-11T13:13:54.646Z,,,,,,,,,,,,,,,,,54,,,,,,,,,,,,,,245.61999999999534,,response,,,,100,,,,,,,Space,keypress(Space),,,,,,,,-- --- ---- --- ------ ----- ------- ---- -- --- ------- --<br>------- ---------- ------ -- ----- -- ----- -- ---- ------<br>--- ----- --- --- ------ -------- ----- --- ------ ----- --<br>----- ----- ---------- --- --- ------ ------ ---- -- ------<br>credit. --- ------ ----- --- ---- ------- -- ---- --- --<br>------- ------,154340,154335,154088.7,154089,154089.38,154340.08,,43,credit.
screen,html.Screen,2_1_1_1_44,2022-05-11T13:13:54.884Z,,,,,,,,,,,,,,,,,54,,,,,,,,,,,,,,233.9200000000128,,response,,,,100,,,,,,,Space,keypress(Space),,,,,,,,-- --- ---- --- ------ ----- ------- ---- -- --- ------- --<br>------- ---------- ------ -- ----- -- ----- -- ---- ------<br>--- ----- --- --- ------ -------- ----- --- ------ ----- --<br>----- ----- ---------- --- --- ------ ------ ---- -- ------<br>------- The ------ ----- --- ---- ------- -- ---- --- --<br>------- ------,154577,154574,154339.48,154340,154340.08,154578.16,,44,The
screen,html.Screen,2_1_1_1_45,2022-05-11T13:13:55.126Z,,,,,,,,,,,,,,,,,54,,,,,,,,,,,,,,235.8399999999965,,response,,,,100,,,,,,,Space,keypress(Space),,,,,,,,-- --- ---- --- ------ ----- ------- ---- -- --- ------- --<br>------- ---------- ------ -- ----- -- ----- -- ---- ------<br>--- ----- --- --- ------ -------- ----- --- ------ ----- --<br>----- ----- ---------- --- --- ------ ------ ---- -- ------<br>------- --- French ----- --- ---- ------- -- ---- --- --<br>------- ------,154819,154814,154577.54,154577,154578.16,154819.98,,45,French
screen,html.Screen,2_1_1_1_46,2022-05-11T13:13:55.364Z,,,,,,,,,,,,,,,,,54,,,,,,,,,,,,,,234.01999999998952,,response,,,,100,,,,,,,Space,keypress(Space),,,,,,,,-- --- ---- --- ------ ----- ------- ---- -- --- ------- --<br>------- ---------- ------ -- ----- -- ----- -- ---- ------<br>--- ----- --- --- ------ -------- ----- --- ------ ----- --<br>----- ----- ---------- --- --- ------ ------ ---- -- ------<br>------- --- ------ state --- ---- ------- -- ---- --- --<br>------- ------,155057,155054,154819.38,154819,154819.98,155057.88,,46,state
screen,html.Screen,2_1_1_1_47,2022-05-11T13:13:55.630Z,,,,,,,,,,,,,,,,,54,,,,,,,,,,,,,,261.11999999999534,,response,,,,100,,,,,,,Space,keypress(Space),,,,,,,,-- --- ---- --- ------ ----- ------- ---- -- --- ------- --<br>------- ---------- ------ -- ----- -- ----- -- ---- ------<br>--- ----- --- --- ------ -------- ----- --- ------ ----- --<br>----- ----- ---------- --- --- ------ ------ ---- -- ------<br>------- --- ------ ----- was ---- ------- -- ---- --- --<br>------- ------,155323,155319,155057.14,155057,155057.88,155323.86,,47,was
screen,html.Screen,2_1_1_1_48,2022-05-11T13:13:55.883Z,,,,,,,,,,,,,,,,,54,,,,,,,,,,,,,,250.14000000001397,,response,,,,100,,,,,,,Space,keypress(Space),,,,,,,,-- --- ---- --- ------ ----- ------- ---- -- --- ------- --<br>------- ---------- ------ -- ----- -- ----- -- ---- ------<br>--- ----- --- --- ------ -------- ----- --- ------ ----- --<br>----- ----- ---------- --- --- ------ ------ ---- -- ------<br>------- --- ------ ----- --- left ------- -- ---- --- --<br>------- ------,155577,155574,155323.24,155323,155323.86,155577.94,,48,left
screen,html.Screen,2_1_1_1_49,2022-05-11T13:13:56.142Z,,,,,,,,,,,,,,,,,54,,,,,,,,,,,,,,252.05999999999767,,response,,,,100,,,,,,,Space,keypress(Space),,,,,,,,-- --- ---- --- ------ ----- ------- ---- -- --- ------- --<br>------- ---------- ------ -- ----- -- ----- -- ---- ------<br>--- ----- --- --- ------ -------- ----- --- ------ ----- --<br>----- ----- ---------- --- --- ------ ------ ---- -- ------<br>------- --- ------ ----- --- ---- without -- ---- --- --<br>------- ------,155835,155830,155577.3,155577,155577.94,155835.68,,49,without
screen,html.Screen,2_1_1_1_50,2022-05-11T13:13:56.387Z,,,,,,,,,,,,,,,,,54,,,,,,,,,,,,,,242.32000000000698,,response,,,,100,,,,,,,Space,keypress(Space),,,,,,,,-- --- ---- --- ------ ----- ------- ---- -- --- ------- --<br>------- ---------- ------ -- ----- -- ----- -- ---- ------<br>--- ----- --- --- ------ -------- ----- --- ------ ----- --<br>----- ----- ---------- --- --- ------ ------ ---- -- ------<br>------- --- ------ ----- --- ---- ------- an ---- --- --<br>------- ------,156081,156078,155835.08,155835,155835.68,156081.74,,50,an
screen,html.Screen,2_1_1_1_51,2022-05-11T13:13:56.655Z,,,,,,,,,,,,,,,,,54,,,,,,,,,,,,,,261.2600000000093,,response,,,,100,,,,,,,Space,keypress(Space),,,,,,,,-- --- ---- --- ------ ----- ------- ---- -- --- ------- --<br>------- ---------- ------ -- ----- -- ----- -- ---- ------<br>--- ----- --- --- ------ -------- ----- --- ------ ----- --<br>----- ----- ---------- --- --- ------ ------ ---- -- ------<br>------- --- ------ ----- --- ---- ------- -- easy --- --<br>------- ------,156348,156343,156081.06,156081,156081.74,156348.82,,51,easy
screen,html.Screen,2_1_1_1_52,2022-05-11T13:13:56.908Z,,,,,,,,,,,,,,,,,54,,,,,,,,,,,,,,249.17999999999302,,response,,,,100,,,,,,,Space,keypress(Space),,,,,,,,-- --- ---- --- ------ ----- ------- ---- -- --- ------- --<br>------- ---------- ------ -- ----- -- ----- -- ---- ------<br>--- ----- --- --- ------ -------- ----- --- ------ ----- --<br>----- ----- ---------- --- --- ------ ------ ---- -- ------<br>------- --- ------ ----- --- ---- ------- -- ---- way --<br>------- ------,156602,156598,156348.24,156348,156348.82,156601.9,,52,way
screen,html.Screen,2_1_1_1_53,2022-05-11T13:13:57.246Z,,,,,,,,,,,,,,,,,54,,,,,,,,,,,,,,333.1000000000058,,response,,,,100,,,,,,,Space,keypress(Space),,,,,,,,-- --- ---- --- ------ ----- ------- ---- -- --- ------- --<br>------- ---------- ------ -- ----- -- ----- -- ---- ------<br>--- ----- --- --- ------ -------- ----- --- ------ ----- --<br>----- ----- ---------- --- --- ------ ------ ---- -- ------<br>------- --- ------ ----- --- ---- ------- -- ---- --- of<br>------- ------,156939,156935,156601.24,156602,156601.9,156939.96,,53,of
screen,html.Screen,2_1_1_1_54,2022-05-11T13:13:57.572Z,,,,,,,,,,,,,,,,,54,,,,,,,,,,,,,,322.04000000000815,,response,,,,100,,,,,,,Space,keypress(Space),,,,,,,,-- --- ---- --- ------ ----- ------- ---- -- --- ------- --<br>------- ---------- ------ -- ----- -- ----- -- ---- ------<br>--- ----- --- --- ------ -------- ----- --- ------ ----- --<br>----- ----- ---------- --- --- ------ ------ ---- -- ------<br>------- --- ------ ----- --- ---- ------- -- ---- --- --<br>raising ------,157265,157262,156939.36,156939,156939.96,157265.84,,54,raising
screen,html.Screen,2_1_1_1_55,2022-05-11T13:13:57.942Z,,,,,,,,,,,,,,,,,54,,,,,,,,,,,,,,364.1600000000035,,response,,,,100,,,,,,,Space,keypress(Space),,,,,,,,-- --- ---- --- ------ ----- ------- ---- -- --- ------- --<br>------- ---------- ------ -- ----- -- ----- -- ---- ------<br>--- ----- --- --- ------ -------- ----- --- ------ ----- --<br>----- ----- ---------- --- --- ------ ------ ---- -- ------<br>------- --- ------ ----- --- ---- ------- -- ---- --- --<br>------- money.,157635,157630,157265.26,157266,157265.84,157636.14,,55,money.
Item 100,flow.Loop,2_1_1_1,2022-05-11T13:13:57.942Z,,,,,,,,,,,,,,,,,,,,,,,,,,,,,,,30325.119999999995,,completion,,,,,E,,,,,,,,,,,silence,,,,,157636,157630,127287.52,127288,127304.88,157636.14,,,
Question 1,html.Screen,2_1_1_2,2022-05-11T13:13:59.789Z,,,,,,,,,,,,,,,,,,,,,,,,,,,,true,TRUE,,1843.859999999986,,response,,,,100,E,,,,,,TRUE,click #choice-1,,,,silence,,,,,159483,159480,157635.52,157636,157636.14,159482.54,,,
Question 2,html.Screen,2_1_1_3,2022-05-11T13:14:01.530Z,,,,,,,,,,,,,,,,,,,,,,,,,,,,true,FALSE,,1737.4599999999919,,response,,,,100,E,,,,,,FALSE,click #choice-2,,,,silence,,,,,161223,161220,159482.14,159483,159482.54,161231.6,,,
Item 100,flow.Sequence,2_1_1,2022-05-11T13:14:01.530Z,,,,,,,,,,,,,,,,,,,,,,,,,,,,,,,43909.34,,completion,,,,,,,,,,,,,,,,,,,,,161223,161220,117310.26,117311,117310.66,161231.6,,,
End of Practice,html.Page,2_1_2,2022-05-11T13:14:04.740Z,,,,,,,,,,,,,,,,,,,,,,,,,,,,,,,3202.399999999994,,form submission,,,,,,,,,,,,,,,,,,,,,164434,164434,161214.8,161223,161231.6,164430.7,,,
Practice,flow.Sequence,2_1,2022-05-11T13:14:04.740Z,,,,,,,,,,,,,,,,,,,,,,,,,,,,,,,83396.08,,completion,,,,,,,,,,,,,,,,,,,,,164434,164434,81000.56,81012,81037.92,164430.7,,,
Trap_instruction,html.Page,2_2_0,2022-05-11T13:14:06.097Z,,,,,,,,,,,,,,,,,,,,,,,,,,,,,,,1359.2999999999884,,form submission,,,,,,,,,,,,,,,,,,,,,165790,165790,164430.24,164435,164430.7,165788.22,,,
trap_trial,html.Screen,2_2_1,2022-05-11T13:14:08.669Z,,,,,,,,,,,,,,,,,,,,,,,,,,,,true,1,,2571.779999999999,,response,,,,,,,,,,,1,click #choice-1,,,,,,,,,168363,168360,165787.84,165790,165788.22,168362.48,,,
end of trap trial,html.Page,2_2_2,2022-05-11T13:14:10.163Z,,,,,,,,,,,,,,,,,,,,,,,,,,,,,,,1493.5199999999895,,form submission,,,,,,,,,,,,,,,,,,,,,169856,169856,168362.12,168363,168362.48,169859.08,,,
Trap 1,flow.Sequence,2_2,2022-05-11T13:14:10.163Z,,,,,,,,,,,,,,,,,,,,,,,,,,,,,,,5425.299999999988,,completion,,,,,,,,,,,,,,,,,,,,,169856,169856,164430.24,164435,164430.7,169859.08,,,
Standby,html.Page,2_3_0,2022-05-11T13:14:18.159Z,,,,,,,,,,,,,,,,,,,,,,,,,,,,,,,8009.760000000009,,timeout,,,,,,,,,,,,,,,,,,,,,177852,177852.06,169854.02,169857,169859.08,177868.84,,,
Holding screen,html.Screen,2_3_1_0_0,2022-05-11T13:14:25.165Z,,,,,,,,,,,,,,,,,,,,,,,,,,,,,,,7005.279999999999,,timeout,,,,,,,,,,,,,,,,,,,,,184859,184858.24,177852.06,177852,177868.84,184874.12,,,
screen,html.Screen,2_3_1_0_1_0,2022-05-11T13:14:32.170Z,,,,,,,,,,,,,,,,,2,,,,,,,,,,,,,,7006.8000000000175,,timeout,,,,1,E,,,,,,,,,,,lyrical,,,,Two ---- ------ --- ------- ---------- ------- ----------<br>--- --------- --- ----------- ------- ----- ------- ---<br>--------- ---- -- --- ---- -- --------- -- ---- -------<br>-- --------- ------ --- ----- ------ ---- --- --------- --<br>------ - ---- -- --- ----------- ------- ---- ----- -----<br>--- -------- - ------ ---- -- ----- ---- --- --- -----------<br>-- -------,191865,191864.18,184858.24,184860,184874.12,191880.92,,0,Two
screen,html.Screen,2_3_1_0_1_1,2022-05-11T13:14:34.162Z,,,,,,,,,,,,,,,,,2,,,,,,,,,,,,,,1969.0799999999872,,response,,,,1,E,,,,,,Space,keypress(Space),,,,lyrical,,,,--- days ------ --- ------- ---------- ------- ----------<br>--- --------- --- ----------- ------- ----- ------- ---<br>--------- ---- -- --- ---- -- --------- -- ---- -------<br>-- --------- ------ --- ----- ------ ---- --- --------- --<br>------ - ---- -- --- ----------- ------- ---- ----- -----<br>--- -------- - ------ ---- -- ----- ---- --- --- -----------<br>-- -------,193856,193850,191864.18,191865,191880.92,193870.38,,1,days
screen,html.Screen,2_3_1_0_1_2,2022-05-11T13:14:34.454Z,,,,,,,,,,,,,,,,,2,,,,,,,,,,,,,,274.61999999999534,,response,,,,1,E,,,,,,Space,keypress(Space),,,,lyrical,,,,"--- ---- later, --- ------- ---------- ------- ----------<br>--- --------- --- ----------- ------- ----- ------- ---<br>--------- ---- -- --- ---- -- --------- -- ---- -------<br>-- --------- ------ --- ----- ------ ---- --- --------- --<br>------ - ---- -- --- ----------- ------- ---- ----- -----<br>--- -------- - ------ ---- -- ----- ---- --- --- -----------<br>-- -------",194148,194145,193853.2,193856,193870.38,194154.22,,2,"later,"
screen,html.Screen,2_3_1_0_1_3,2022-05-11T13:14:34.688Z,,,,,,,,,,,,,,,,,2,,,,,,,,,,,,,,222.77999999999884,,response,,,,1,E,,,,,,Space,keypress(Space),,,,lyrical,,,,--- ---- ------ the ------- ---------- ------- ----------<br>--- --------- --- ----------- ------- ----- ------- ---<br>--------- ---- -- --- ---- -- --------- -- ---- -------<br>-- --------- ------ --- ----- ------ ---- --- --------- --<br>------ - ---- -- --- ----------- ------- ---- ----- -----<br>--- -------- - ------ ---- -- ----- ---- --- --- -----------<br>-- -------,194382,194377,194137.56,194148,194154.22,194405.86,,3,the
screen,html.Screen,2_3_1_0_1_4,2022-05-11T13:14:34.959Z,,,,,,,,,,,,,,,,,2,,,,,,,,,,,,,,244.14000000001397,,response,,,,1,E,,,,,,Space,keypress(Space),,,,lyrical,,,,--- ---- ------ --- British ---------- ------- ----------<br>--- --------- --- ----------- ------- ----- ------- ---<br>--------- ---- -- --- ---- -- --------- -- ---- -------<br>-- --------- ------ --- ----- ------ ---- --- --------- --<br>------ - ---- -- --- ----------- ------- ---- ----- -----<br>--- -------- - ------ ---- -- ----- ---- --- --- -----------<br>-- -------,194653,194650,194388.4,194382,194405.86,194653.74,,4,British
screen,html.Screen,2_3_1_0_1_5,2022-05-11T13:14:35.193Z,,,,,,,,,,,,,,,,,2,,,,,,,,,,,,,,227.2600000000093,,response,,,,1,E,,,,,,Space,keypress(Space),,,,lyrical,,,,--- ---- ------ --- ------- astronomer ------- ----------<br>--- --------- --- ----------- ------- ----- ------- ---<br>--------- ---- -- --- ---- -- --------- -- ---- -------<br>-- --------- ------ --- ----- ------ ---- --- --------- --<br>------ - ---- -- --- ----------- ------- ---- ----- -----<br>--- -------- - ------ ---- -- ----- ---- --- --- -----------<br>-- -------,194887,194881,194653.1,194653,194653.74,194887.92,,5,astronomer
screen,html.Screen,2_3_1_0_1_6,2022-05-11T13:14:35.407Z,,,,,,,,,,,,,,,,,2,,,,,,,,,,,,,,210.0799999999872,,response,,,,1,E,,,,,,Space,keypress(Space),,,,lyrical,,,,--- ---- ------ --- ------- ---------- Richard ----------<br>--- --------- --- ----------- ------- ----- ------- ---<br>--------- ---- -- --- ---- -- --------- -- ---- -------<br>-- --------- ------ --- ----- ------ ---- --- --------- --<br>------ - ---- -- --- ----------- ------- ---- ----- -----<br>--- -------- - ------ ---- -- ----- ---- --- --- -----------<br>-- -------,195101,195098,194887.36,194887,194887.92,195107.22,,6,Richard
screen,html.Screen,2_3_1_0_1_7,2022-05-11T13:14:35.682Z,,,,,,,,,,,,,,,,,2,,,,,,,,,,,,,,262.77999999999884,,response,,,,1,E,,,,,,Space,keypress(Space),,,,lyrical,,,,--- ---- ------ --- ------- ---------- ------- Carrington<br>--- --------- --- ----------- ------- ----- ------- ---<br>--------- ---- -- --- ---- -- --------- -- ---- -------<br>-- --------- ------ --- ----- ------ ---- --- --------- --<br>------ - ---- -- --- ----------- ------- ---- ----- -----<br>--- -------- - ------ ---- -- ----- ---- --- --- -----------<br>-- -------,195375,195370,195091.38,195101,195107.22,195375.84,,7,Carrington
screen,html.Screen,2_3_1_0_1_8,2022-05-11T13:14:35.959Z,,,,,,,,,,,,,,,,,2,,,,,,,,,,,,,,274.1600000000035,,response,,,,1,E,,,,,,Space,keypress(Space),,,,lyrical,,,,--- ---- ------ --- ------- ---------- ------- ----------<br>was --------- --- ----------- ------- ----- ------- ---<br>--------- ---- -- --- ---- -- --------- -- ---- -------<br>-- --------- ------ --- ----- ------ ---- --- --------- --<br>------ - ---- -- --- ----------- ------- ---- ----- -----<br>--- -------- - ------ ---- -- ----- ---- --- --- -----------<br>-- -------,195653,195650,195375.3,195375,195375.84,195644.62,,8,was
screen,html.Screen,2_3_1_0_1_9,2022-05-11T13:14:36.257Z,,,,,,,,,,,,,,,,,2,,,,,,,,,,,,,,301.38000000000466,,response,,,,1,E,,,,,,Space,keypress(Space),,,,lyrical,,,,--- ---- ------ --- ------- ---------- ------- ----------<br>--- observing --- ----------- ------- ----- ------- ---<br>--------- ---- -- --- ---- -- --------- -- ---- -------<br>-- --------- ------ --- ----- ------ ---- --- --------- --<br>------ - ---- -- --- ----------- ------- ---- ----- -----<br>--- -------- - ------ ---- -- ----- ---- --- --- -----------<br>-- -------,195952,195946,195644.02,195653,195644.62,195952,,9,observing
screen,html.Screen,2_3_1_0_1_10,2022-05-11T13:14:36.526Z,,,,,,,,,,,,,,,,,2,,,,,,,,,,,,,,266,,response,,,,1,E,,,,,,Space,keypress(Space),,,,lyrical,,,,--- ---- ------ --- ------- ---------- ------- ----------<br>--- --------- the ----------- ------- ----- ------- ---<br>--------- ---- -- --- ---- -- --------- -- ---- -------<br>-- --------- ------ --- ----- ------ ---- --- --------- --<br>------ - ---- -- --- ----------- ------- ---- ----- -----<br>--- -------- - ------ ---- -- ----- ---- --- --- -----------<br>-- -------,196221,196218,195951.36,195952,195952,196221.28,,10,the
screen,html.Screen,2_3_1_0_1_11,2022-05-11T13:14:36.801Z,,,,,,,,,,,,,,,,,2,,,,,,,,,,,,,,268.72000000000116,,response,,,,1,E,,,,,,Space,keypress(Space),,,,lyrical,,,,--- ---- ------ --- ------- ---------- ------- ----------<br>--- --------- --- interesting ------- ----- ------- ---<br>--------- ---- -- --- ---- -- --------- -- ---- -------<br>-- --------- ------ --- ----- ------ ---- --- --------- --<br>------ - ---- -- --- ----------- ------- ---- ----- -----<br>--- -------- - ------ ---- -- ----- ---- --- --- -----------<br>-- -------,196495,196490,196220.64,196221,196221.28,196495.92,,11,interesting
screen,html.Screen,2_3_1_0_1_12,2022-05-11T13:14:37.103Z,,,,,,,,,,,,,,,,,2,,,,,,,,,,,,,,298.0799999999872,,response,,,,1,E,,,,,,Space,keypress(Space),,,,lyrical,,,,--- ---- ------ --- ------- ---------- ------- ----------<br>--- --------- --- ----------- sunspot ----- ------- ---<br>--------- ---- -- --- ---- -- --------- -- ---- -------<br>-- --------- ------ --- ----- ------ ---- --- --------- --<br>------ - ---- -- --- ----------- ------- ---- ----- -----<br>--- -------- - ------ ---- -- ----- ---- --- --- -----------<br>-- -------,196796,196794,196495.26,196495,196495.92,196797.24,,12,sunspot
screen,html.Screen,2_3_1_0_1_13,2022-05-11T13:14:37.401Z,,,,,,,,,,,,,,,,,2,,,,,,,,,,,,,,291.7600000000093,,response,,,,1,E,,,,,,Space,keypress(Space),,,,lyrical,,,,--- ---- ------ --- ------- ---------- ------- ----------<br>--- --------- --- ----------- ------- group ------- ---<br>--------- ---- -- --- ---- -- --------- -- ---- -------<br>-- --------- ------ --- ----- ------ ---- --- --------- --<br>------ - ---- -- --- ----------- ------- ---- ----- -----<br>--- -------- - ------ ---- -- ----- ---- --- --- -----------<br>-- -------,197095,197089,196796.6,196796,196797.24,197095.76,,13,group
screen,html.Screen,2_3_1_0_1_14,2022-05-11T13:14:37.647Z,,,,,,,,,,,,,,,,,2,,,,,,,,,,,,,,242.2399999999907,,response,,,,1,E,,,,,,Space,keypress(Space),,,,lyrical,,,,--- ---- ------ --- ------- ---------- ------- ----------<br>--- --------- --- ----------- ------- ----- through ---<br>--------- ---- -- --- ---- -- --------- -- ---- -------<br>-- --------- ------ --- ----- ------ ---- --- --------- --<br>------ - ---- -- --- ----------- ------- ---- ----- -----<br>--- -------- - ------ ---- -- ----- ---- --- --- -----------<br>-- -------,197340,197338,197095.1,197095,197095.76,197341.58,,14,through
screen,html.Screen,2_3_1_0_1_15,2022-05-11T13:14:37.928Z,,,,,,,,,,,,,,,,,2,,,,,,,,,,,,,,276.4200000000128,,response,,,,1,E,,,,,,Space,keypress(Space),,,,lyrical,,,,--- ---- ------ --- ------- ---------- ------- ----------<br>--- --------- --- ----------- ------- ----- ------- his<br>--------- ---- -- --- ---- -- --------- -- ---- -------<br>-- --------- ------ --- ----- ------ ---- --- --------- --<br>------ - ---- -- --- ----------- ------- ---- ----- -----<br>--- -------- - ------ ---- -- ----- ---- --- --- -----------<br>-- -------,197622,197618,197341,197341,197341.58,197623.26,,15,his
screen,html.Screen,2_3_1_0_1_16,2022-05-11T13:14:38.222Z,,,,,,,,,,,,,,,,,2,,,,,,,,,,,,,,289.7399999999907,,response,,,,1,E,,,,,,Space,keypress(Space),,,,lyrical,,,,--- ---- ------ --- ------- ---------- ------- ----------<br>--- --------- --- ----------- ------- ----- ------- ---<br>telescope ---- -- --- ---- -- --------- -- ---- -------<br>-- --------- ------ --- ----- ------ ---- --- --------- --<br>------ - ---- -- --- ----------- ------- ---- ----- -----<br>--- -------- - ------ ---- -- ----- ---- --- --- -----------<br>-- -------,197916,197913,197622.66,197623,197623.26,197916.96,,16,telescope
screen,html.Screen,2_3_1_0_1_17,2022-05-11T13:14:38.505Z,,,,,,,,,,,,,,,,,2,,,,,,,,,,,,,,276.04000000000815,,response,,,,1,E,,,,,,Space,keypress(Space),,,,lyrical,,,,--- ---- ------ --- ------- ---------- ------- ----------<br>--- --------- --- ----------- ------- ----- ------- ---<br>--------- when -- --- ---- -- --------- -- ---- -------<br>-- --------- ------ --- ----- ------ ---- --- --------- --<br>------ - ---- -- --- ----------- ------- ---- ----- -----<br>--- -------- - ------ ---- -- ----- ---- --- --- -----------<br>-- -------,198199,198193,197916.36,197916,197916.96,198199.34,,17,when
screen,html.Screen,2_3_1_0_1_18,2022-05-11T13:14:38.791Z,,,,,,,,,,,,,,,,,2,,,,,,,,,,,,,,281.6600000000035,,response,,,,1,E,,,,,,Space,keypress(Space),,,,lyrical,,,,--- ---- ------ --- ------- ---------- ------- ----------<br>--- --------- --- ----------- ------- ----- ------- ---<br>--------- ---- he --- ---- -- --------- -- ---- -------<br>-- --------- ------ --- ----- ------ ---- --- --------- --<br>------ - ---- -- --- ----------- ------- ---- ----- -----<br>--- -------- - ------ ---- -- ----- ---- --- --- -----------<br>-- -------,198485,198481,198198.74,198199,198199.34,198485.76,,18,he
screen,html.Screen,2_3_1_0_1_19,2022-05-11T13:14:39.017Z,,,,,,,,,,,,,,,,,2,,,,,,,,,,,,,,220.2399999999907,,response,,,,1,E,,,,,,Space,keypress(Space),,,,lyrical,,,,--- ---- ------ --- ------- ---------- ------- ----------<br>--- --------- --- ----------- ------- ----- ------- ---<br>--------- ---- -- saw ---- -- --------- -- ---- -------<br>-- --------- ------ --- ----- ------ ---- --- --------- --<br>------ - ---- -- --- ----------- ------- ---- ----- -----<br>--- -------- - ------ ---- -- ----- ---- --- --- -----------<br>-- -------,198710,198706,198485.12,198485,198485.76,198711.4,,19,saw
screen,html.Screen,2_3_1_0_1_20,2022-05-11T13:14:39.270Z,,,,,,,,,,,,,,,,,2,,,,,,,,,,,,,,250.60000000000582,,response,,,,1,E,,,,,,Space,keypress(Space),,,,lyrical,,,,--- ---- ------ --- ------- ---------- ------- ----------<br>--- --------- --- ----------- ------- ----- ------- ---<br>--------- ---- -- --- what -- --------- -- ---- -------<br>-- --------- ------ --- ----- ------ ---- --- --------- --<br>------ - ---- -- --- ----------- ------- ---- ----- -----<br>--- -------- - ------ ---- -- ----- ---- --- --- -----------<br>-- -------,198964,198962,198710.82,198711,198711.4,198964.78,,20,what
screen,html.Screen,2_3_1_0_1_21,2022-05-11T13:14:39.449Z,,,,,,,,,,,,,,,,,2,,,,,,,,,,,,,,173.22000000000116,,response,,,,1,E,,,,,,Space,keypress(Space),,,,lyrical,,,,--- ---- ------ --- ------- ---------- ------- ----------<br>--- --------- --- ----------- ------- ----- ------- ---<br>--------- ---- -- --- ---- he --------- -- ---- -------<br>-- --------- ------ --- ----- ------ ---- --- --------- --<br>------ - ---- -- --- ----------- ------- ---- ----- -----<br>--- -------- - ------ ---- -- ----- ---- --- --- -----------<br>-- -------,199144,199138,198964.1,198964,198964.78,199154.48,,21,he
screen,html.Screen,2_3_1_0_1_22,2022-05-11T13:14:39.598Z,,,,,,,,,,,,,,,,,2,,,,,,,,,,,,,,135.51999999998952,,response,,,,1,E,,,,,,Space,keypress(Space),,,,lyrical,,,,--- ---- ------ --- ------- ---------- ------- ----------<br>--- --------- --- ----------- ------- ----- ------- ---<br>--------- ---- -- --- ---- -- described -- ---- -------<br>-- --------- ------ --- ----- ------ ---- --- --------- --<br>------ - ---- -- --- ----------- ------- ---- ----- -----<br>--- -------- - ------ ---- -- ----- ---- --- --- -----------<br>-- -------,199292,199290,199143.44,199144,199154.48,199304.1,,22,described
screen,html.Screen,2_3_1_0_1_23,2022-05-11T13:14:39.809Z,,,,,,,,,,,,,,,,,2,,,,,,,,,,,,,,193.89999999999418,,response,,,,1,E,,,,,,Space,keypress(Space),,,,lyrical,,,,--- ---- ------ --- ------- ---------- ------- ----------<br>--- --------- --- ----------- ------- ----- ------- ---<br>--------- ---- -- --- ---- -- --------- as ---- -------<br>-- --------- ------ --- ----- ------ ---- --- --------- --<br>------ - ---- -- --- ----------- ------- ---- ----- -----<br>--- -------- - ------ ---- -- ----- ---- --- --- -----------<br>-- -------,199503,199498,199292.64,199292,199304.1,199505.04,,23,as
screen,html.Screen,2_3_1_0_1_24,2022-05-11T13:14:40.015Z,,,,,,,,,,,,,,,,,2,,,,,,,,,,,,,,200.95999999999185,,response,,,,1,E,,,,,,Space,keypress(Space),,,,lyrical,,,,"--- ---- ------ --- ------- ---------- ------- ----------<br>--- --------- --- ----------- ------- ----- ------- ---<br>--------- ---- -- --- ---- -- --------- -- ""two -------<br>-- --------- ------ --- ----- ------ ---- --- --------- --<br>------ - ---- -- --- ----------- ------- ---- ----- -----<br>--- -------- - ------ ---- -- ----- ---- --- --- -----------<br>-- -------",199708,199706,199503.54,199503,199505.04,199709.24,,24,"""two"
screen,html.Screen,2_3_1_0_1_25,2022-05-11T13:14:40.217Z,,,,,,,,,,,,,,,,,2,,,,,,,,,,,,,,196.7600000000093,,response,,,,1,E,,,,,,Space,keypress(Space),,,,lyrical,,,,--- ---- ------ --- ------- ---------- ------- ----------<br>--- --------- --- ----------- ------- ----- ------- ---<br>--------- ---- -- --- ---- -- --------- -- ---- patches<br>-- --------- ------ --- ----- ------ ---- --- --------- --<br>------ - ---- -- --- ----------- ------- ---- ----- -----<br>--- -------- - ------ ---- -- ----- ---- --- --- -----------<br>-- -------,199911,199906,199708.62,199708,199709.24,199923.62,,25,patches
screen,html.Screen,2_3_1_0_1_26,2022-05-11T13:14:40.430Z,,,,,,,,,,,,,,,,,2,,,,,,,,,,,,,,198.38000000000466,,response,,,,1,E,,,,,,Space,keypress(Space),,,,lyrical,,,,--- ---- ------ --- ------- ---------- ------- ----------<br>--- --------- --- ----------- ------- ----- ------- ---<br>--------- ---- -- --- ---- -- --------- -- ---- -------<br>of --------- ------ --- ----- ------ ---- --- --------- --<br>------ - ---- -- --- ----------- ------- ---- ----- -----<br>--- -------- - ------ ---- -- ----- ---- --- --- -----------<br>-- -------,200124,200122,199910.92,199911,199923.62,200125.1,,26,of
screen,html.Screen,2_3_1_0_1_27,2022-05-11T13:14:40.625Z,,,,,,,,,,,,,,,,,2,,,,,,,,,,,,,,187.89999999999418,,response,,,,1,E,,,,,,Space,keypress(Space),,,,lyrical,,,,--- ---- ------ --- ------- ---------- ------- ----------<br>--- --------- --- ----------- ------- ----- ------- ---<br>--------- ---- -- --- ---- -- --------- -- ---- -------<br>-- intensely ------ --- ----- ------ ---- --- --------- --<br>------ - ---- -- --- ----------- ------- ---- ----- -----<br>--- -------- - ------ ---- -- ----- ---- --- --- -----------<br>-- -------,200318,200313,200124.5,200124,200125.1,200319.48,,27,intensely
screen,html.Screen,2_3_1_0_1_28,2022-05-11T13:14:40.822Z,,,,,,,,,,,,,,,,,2,,,,,,,,,,,,,,193.51999999998952,,response,,,,1,E,,,,,,Space,keypress(Space),,,,lyrical,,,,--- ---- ------ --- ------- ---------- ------- ----------<br>--- --------- --- ----------- ------- ----- ------- ---<br>--------- ---- -- --- ---- -- --------- -- ---- -------<br>-- --------- bright --- ----- ------ ---- --- --------- --<br>------ - ---- -- --- ----------- ------- ---- ----- -----<br>--- -------- - ------ ---- -- ----- ---- --- --- -----------<br>-- -------,200516,200513,200318.84,200318,200319.48,200525.54,,28,bright
screen,html.Screen,2_3_1_0_1_29,2022-05-11T13:14:41.041Z,,,,,,,,,,,,,,,,,2,,,,,,,,,,,,,,204.45999999999185,,response,,,,1,E,,,,,,Space,keypress(Space),,,,lyrical,,,,--- ---- ------ --- ------- ---------- ------- ----------<br>--- --------- --- ----------- ------- ----- ------- ---<br>--------- ---- -- --- ---- -- --------- -- ---- -------<br>-- --------- ------ and ----- ------ ---- --- --------- --<br>------ - ---- -- --- ----------- ------- ---- ----- -----<br>--- -------- - ------ ---- -- ----- ---- --- --- -----------<br>-- -------,200735,200730,200516.46,200516,200525.54,200735.42,,29,and
screen,html.Screen,2_3_1_0_1_30,2022-05-11T13:14:41.254Z,,,,,,,,,,,,,,,,,2,,,,,,,,,,,,,,210.5799999999872,,response,,,,1,E,,,,,,Space,keypress(Space),,,,lyrical,,,,--- ---- ------ --- ------- ---------- ------- ----------<br>--- --------- --- ----------- ------- ----- ------- ---<br>--------- ---- -- --- ---- -- --------- -- ---- -------<br>-- --------- ------ --- white ------ ---- --- --------- --<br>------ - ---- -- --- ----------- ------- ---- ----- -----<br>--- -------- - ------ ---- -- ----- ---- --- --- -----------<br>-- -------,200949,200946,200734.76,200735,200735.42,200960.28,,30,white
screen,html.Screen,2_3_1_0_1_31,2022-05-11T13:14:41.472Z,,,,,,,,,,,,,,,,,2,,,,,,,,,,,,,,201.72000000000116,,response,,,,1,E,,,,,,Space,keypress(Space),,,,lyrical,,,,"--- ---- ------ --- ------- ---------- ------- ----------<br>--- --------- --- ----------- ------- ----- ------- ---<br>--------- ---- -- --- ---- -- --------- -- ---- -------<br>-- --------- ------ --- ----- light"" ---- --- --------- --<br>------ - ---- -- --- ----------- ------- ---- ----- -----<br>--- -------- - ------ ---- -- ----- ---- --- --- -----------<br>-- -------",201166,201162,200948.66,200949,200960.28,201167.02,,31,"light"""
screen,html.Screen,2_3_1_0_1_32,2022-05-11T13:14:41.663Z,,,,,,,,,,,,,,,,,2,,,,,,,,,,,,,,186.98000000001048,,response,,,,1,E,,,,,,Space,keypress(Space),,,,lyrical,,,,--- ---- ------ --- ------- ---------- ------- ----------<br>--- --------- --- ----------- ------- ----- ------- ---<br>--------- ---- -- --- ---- -- --------- -- ---- -------<br>-- --------- ------ --- ----- ------ over --- --------- --<br>------ - ---- -- --- ----------- ------- ---- ----- -----<br>--- -------- - ------ ---- -- ----- ---- --- --- -----------<br>-- -------,201356,201354,201166.46,201167,201167.02,201361.56,,32,over
screen,html.Screen,2_3_1_0_1_33,2022-05-11T13:14:41.872Z,,,,,,,,,,,,,,,,,2,,,,,,,,,,,,,,200.44000000000233,,response,,,,1,E,,,,,,Space,keypress(Space),,,,lyrical,,,,--- ---- ------ --- ------- ---------- ------- ----------<br>--- --------- --- ----------- ------- ----- ------- ---<br>--------- ---- -- --- ---- -- --------- -- ---- -------<br>-- --------- ------ --- ----- ------ ---- the --------- --<br>------ - ---- -- --- ----------- ------- ---- ----- -----<br>--- -------- - ------ ---- -- ----- ---- --- --- -----------<br>-- -------,201567,201562,201356.92,201356,201361.56,201567.38,,33,the
screen,html.Screen,2_3_1_0_1_34,2022-05-11T13:14:42.078Z,,,,,,,,,,,,,,,,,2,,,,,,,,,,,,,,202.61999999999534,,response,,,,1,E,,,,,,Space,keypress(Space),,,,lyrical,,,,--- ---- ------ --- ------- ---------- ------- ----------<br>--- --------- --- ----------- ------- ----- ------- ---<br>--------- ---- -- --- ---- -- --------- -- ---- -------<br>-- --------- ------ --- ----- ------ ---- --- sunspots. --<br>------ - ---- -- --- ----------- ------- ---- ----- -----<br>--- -------- - ------ ---- -- ----- ---- --- --- -----------<br>-- -------,201772,201770,201566.8,201567,201567.38,201779.56,,34,sunspots.
screen,html.Screen,2_3_1_0_1_35,2022-05-11T13:14:42.305Z,,,,,,,,,,,,,,,,,2,,,,,,,,,,,,,,213.44000000000233,,response,,,,1,E,,,,,,Space,keypress(Space),,,,lyrical,,,,--- ---- ------ --- ------- ---------- ------- ----------<br>--- --------- --- ----------- ------- ----- ------- ---<br>--------- ---- -- --- ---- -- --------- -- ---- -------<br>-- --------- ------ --- ----- ------ ---- --- --------- He<br>------ - ---- -- --- ----------- ------- ---- ----- -----<br>--- -------- - ------ ---- -- ----- ---- --- --- -----------<br>-- -------,201999,201993,201772.08,201772,201779.56,201999.42,,35,He
screen,html.Screen,2_3_1_0_1_36,2022-05-11T13:14:42.518Z,,,,,,,,,,,,,,,,,2,,,,,,,,,,,,,,210.5799999999872,,response,,,,1,E,,,,,,Space,keypress(Space),,,,lyrical,,,,--- ---- ------ --- ------- ---------- ------- ----------<br>--- --------- --- ----------- ------- ----- ------- ---<br>--------- ---- -- --- ---- -- --------- -- ---- -------<br>-- --------- ------ --- ----- ------ ---- --- --------- --<br>jotted - ---- -- --- ----------- ------- ---- ----- -----<br>--- -------- - ------ ---- -- ----- ---- --- --- -----------<br>-- -------,202213,202210,201998.84,201999,201999.42,202213.66,,36,jotted
screen,html.Screen,2_3_1_0_1_37,2022-05-11T13:14:42.745Z,,,,,,,,,,,,,,,,,2,,,,,,,,,,,,,,220.3399999999965,,response,,,,1,E,,,,,,Space,keypress(Space),,,,lyrical,,,,--- ---- ------ --- ------- ---------- ------- ----------<br>--- --------- --- ----------- ------- ----- ------- ---<br>--------- ---- -- --- ---- -- --------- -- ---- -------<br>-- --------- ------ --- ----- ------ ---- --- --------- --<br>------ a ---- -- --- ----------- ------- ---- ----- -----<br>--- -------- - ------ ---- -- ----- ---- --- --- -----------<br>-- -------,202439,202434,202212.62,202213,202213.66,202439.66,,37,a
screen,html.Screen,2_3_1_0_1_38,2022-05-11T13:14:42.951Z,,,,,,,,,,,,,,,,,2,,,,,,,,,,,,,,202.3399999999965,,response,,,,1,E,,,,,,Space,keypress(Space),,,,lyrical,,,,--- ---- ------ --- ------- ---------- ------- ----------<br>--- --------- --- ----------- ------- ----- ------- ---<br>--------- ---- -- --- ---- -- --------- -- ---- -------<br>-- --------- ------ --- ----- ------ ---- --- --------- --<br>------ - note -- --- ----------- ------- ---- ----- -----<br>--- -------- - ------ ---- -- ----- ---- --- --- -----------<br>-- -------,202644,202642,202439,202439,202439.66,202649,,38,note
screen,html.Screen,2_3_1_0_1_39,2022-05-11T13:14:43.169Z,,,,,,,,,,,,,,,,,2,,,,,,,,,,,,,,208,,response,,,,1,E,,,,,,Space,keypress(Space),,,,lyrical,,,,--- ---- ------ --- ------- ---------- ------- ----------<br>--- --------- --- ----------- ------- ----- ------- ---<br>--------- ---- -- --- ---- -- --------- -- ---- -------<br>-- --------- ------ --- ----- ------ ---- --- --------- --<br>------ - ---- in --- ----------- ------- ---- ----- -----<br>--- -------- - ------ ---- -- ----- ---- --- --- -----------<br>-- -------,202863,202857,202644.92,202645,202649,202864,,39,in
screen,html.Screen,2_3_1_0_1_40,2022-05-11T13:14:43.390Z,,,,,,,,,,,,,,,,,2,,,,,,,,,,,,,,218,,response,,,,1,E,,,,,,Space,keypress(Space),,,,lyrical,,,,--- ---- ------ --- ------- ---------- ------- ----------<br>--- --------- --- ----------- ------- ----- ------- ---<br>--------- ---- -- --- ---- -- --------- -- ---- -------<br>-- --------- ------ --- ----- ------ ---- --- --------- --<br>------ - ---- -- his ----------- ------- ---- ----- -----<br>--- -------- - ------ ---- -- ----- ---- --- --- -----------<br>-- -------,203085,203082,202863.4,202863,202864,203085.18,,40,his
screen,html.Screen,2_3_1_0_1_41,2022-05-11T13:14:43.616Z,,,,,,,,,,,,,,,,,2,,,,,,,,,,,,,,219.82000000000698,,response,,,,1,E,,,,,,Space,keypress(Space),,,,lyrical,,,,--- ---- ------ --- ------- ---------- ------- ----------<br>--- --------- --- ----------- ------- ----- ------- ---<br>--------- ---- -- --- ---- -- --------- -- ---- -------<br>-- --------- ------ --- ----- ------ ---- --- --------- --<br>------ - ---- -- --- painstaking ------- ---- ----- -----<br>--- -------- - ------ ---- -- ----- ---- --- --- -----------<br>-- -------,203311,203305,203084.58,203085,203085.18,203311.48,,41,painstaking
screen,html.Screen,2_3_1_0_1_42,2022-05-11T13:14:43.838Z,,,,,,,,,,,,,,,,,2,,,,,,,,,,,,,,218.51999999998952,,response,,,,1,E,,,,,,Space,keypress(Space),,,,lyrical,,,,--- ---- ------ --- ------- ---------- ------- ----------<br>--- --------- --- ----------- ------- ----- ------- ---<br>--------- ---- -- --- ---- -- --------- -- ---- -------<br>-- --------- ------ --- ----- ------ ---- --- --------- --<br>------ - ---- -- --- ----------- record. ---- ----- -----<br>--- -------- - ------ ---- -- ----- ---- --- --- -----------<br>-- -------,203533,203530,203310.84,203311,203311.48,203534.68,,42,record.
screen,html.Screen,2_3_1_0_1_43,2022-05-11T13:14:44.080Z,,,,,,,,,,,,,,,,,2,,,,,,,,,,,,,,235.32000000000698,,response,,,,1,E,,,,,,Space,keypress(Space),,,,lyrical,,,,--- ---- ------ --- ------- ---------- ------- ----------<br>--- --------- --- ----------- ------- ----- ------- ---<br>--------- ---- -- --- ---- -- --------- -- ---- -------<br>-- --------- ------ --- ----- ------ ---- --- --------- --<br>------ - ---- -- --- ----------- ------- That ----- -----<br>--- -------- - ------ ---- -- ----- ---- --- --- -----------<br>-- -------,203774,203770,203532.46,203533,203534.68,203775.18,,43,That
screen,html.Screen,2_3_1_0_1_44,2022-05-11T13:14:44.303Z,,,,,,,,,,,,,,,,,2,,,,,,,,,,,,,,218.82000000000698,,response,,,,1,E,,,,,,Space,keypress(Space),,,,lyrical,,,,--- ---- ------ --- ------- ---------- ------- ----------<br>--- --------- --- ----------- ------- ----- ------- ---<br>--------- ---- -- --- ---- -- --------- -- ---- -------<br>-- --------- ------ --- ----- ------ ---- --- --------- --<br>------ - ---- -- --- ----------- ------- ---- night -----<br>--- -------- - ------ ---- -- ----- ---- --- --- -----------<br>-- -------,203996,203994,203774.56,203774,203775.18,203997.44,,44,night
screen,html.Screen,2_3_1_0_1_45,2022-05-11T13:14:44.553Z,,,,,,,,,,,,,,,,,2,,,,,,,,,,,,,,243.55999999999767,,response,,,,1,E,,,,,,Space,keypress(Space),,,,lyrical,,,,--- ---- ------ --- ------- ---------- ------- ----------<br>--- --------- --- ----------- ------- ----- ------- ---<br>--------- ---- -- --- ---- -- --------- -- ---- -------<br>-- --------- ------ --- ----- ------ ---- --- --------- --<br>------ - ---- -- --- ----------- ------- ---- ----- there<br>--- -------- - ------ ---- -- ----- ---- --- --- -----------<br>-- -------,204247,204241,203996.82,203997,203997.44,204247.64,,45,there
screen,html.Screen,2_3_1_0_1_46,2022-05-11T13:14:44.990Z,,,,,,,,,,,,,,,,,2,,,,,,,,,,,,,,434.35999999998603,,response,,,,1,E,,,,,,Space,keypress(Space),,,,lyrical,,,,--- ---- ------ --- ------- ---------- ------- ----------<br>--- --------- --- ----------- ------- ----- ------- ---<br>--------- ---- -- --- ---- -- --------- -- ---- -------<br>-- --------- ------ --- ----- ------ ---- --- --------- --<br>------ - ---- -- --- ----------- ------- ---- ----- -----<br>was -------- - ------ ---- -- ----- ---- --- --- -----------<br>-- -------,204684,204682,204246.92,204247,204247.64,204685.24,,46,was
screen,html.Screen,2_3_1_0_1_47,2022-05-11T13:14:45.201Z,,,,,,,,,,,,,,,,,2,,,,,,,,,,,,,,203.7600000000093,,response,,,,1,E,,,,,,Space,keypress(Space),,,,lyrical,,,,--- ---- ------ --- ------- ---------- ------- ----------<br>--- --------- --- ----------- ------- ----- ------- ---<br>--------- ---- -- --- ---- -- --------- -- ---- -------<br>-- --------- ------ --- ----- ------ ---- --- --------- --<br>------ - ---- -- --- ----------- ------- ---- ----- -----<br>--- scarcely - ------ ---- -- ----- ---- --- --- -----------<br>-- -------,204895,204889,204684.58,204685,204685.24,204906.48,,47,scarcely
screen,html.Screen,2_3_1_0_1_48,2022-05-11T13:14:45.406Z,,,,,,,,,,,,,,,,,2,,,,,,,,,,,,,,191.51999999998952,,response,,,,1,E,,,,,,Space,keypress(Space),,,,lyrical,,,,--- ---- ------ --- ------- ---------- ------- ----------<br>--- --------- --- ----------- ------- ----- ------- ---<br>--------- ---- -- --- ---- -- --------- -- ---- -------<br>-- --------- ------ --- ----- ------ ---- --- --------- --<br>------ - ---- -- --- ----------- ------- ---- ----- -----<br>--- -------- a ------ ---- -- ----- ---- --- --- -----------<br>-- -------,205100,205098,204894.9,204895,204906.48,205106.4,,48,a
screen,html.Screen,2_3_1_0_1_49,2022-05-11T13:14:45.584Z,,,,,,,,,,,,,,,,,2,,,,,,,,,,,,,,166.60000000000582,,response,,,,1,E,,,,,,Space,keypress(Space),,,,lyrical,,,,--- ---- ------ --- ------- ---------- ------- ----------<br>--- --------- --- ----------- ------- ----- ------- ---<br>--------- ---- -- --- ---- -- --------- -- ---- -------<br>-- --------- ------ --- ----- ------ ---- --- --------- --<br>------ - ---- -- --- ----------- ------- ---- ----- -----<br>--- -------- - square ---- -- ----- ---- --- --- -----------<br>-- -------,205278,205273,205100.96,205101,205106.4,205291.06,,49,square
