sender,sender_type,sender_id,timestamp,meta,,Blues,Classical,Country,Dance,Electronic,Folk,Gospel,Hip-Hop,Jazz,Latin,Musical/Film,New-age,Pop,Prolific_id,Provo_ID,R&B,Rap,Reggae,Religious,Rock,Soul,Swing,Traditional,age,artist_name,correct,correctResponse,distraction,duration,education,ended_on,familiarity,gender,headphone_check_performance,item,list,music_frequency,offensiveness,pleasantness,position_correct,preference,response,response_action,snippet_file,song_name,song_rating,sound,stimulus_1,stimulus_2,stimulus_3,text,time_commit,time_end,time_render,time_run,time_show,time_switch,url,word,word_ID
Prolific ID,html.Form,0,2022-02-03T14:26:59.896Z,"{""labjs_version"":""20.2.2"",""labjs_build"":{""flavor"":""production"",""commit"":""a25486e0c714a0ae2ce03ff94b7bb6896854dcfa""},""location"":""https://run.pavlovia.org/mvasilev/prolific2_music_a/"",""userAgent"":""Mozilla/5.0 (Windows NT 10.0; Win64; x64) AppleWebKit/537.36 (KHTML, like Gecko) Chrome/97.0.4692.99 Safari/537.36"",""platform"":""Win32"",""language"":""en-GB"",""locale"":""en-GB"",""timeZone"":""Europe/London"",""timezoneOffset"":0,""screen_width"":1920,""screen_height"":1080,""scroll_width"":1920,""scroll_height"":921,""window_innerWidth"":1920,""window_innerHeight"":969,""devicePixelRatio"":1}",,,,,,,,,,,,,,,60d60ba4fd799e149121b85b,,,,,,,,,,,,,,,7533.997000002237,,form submission,,,,,,,,,,,,,,,,,,,,,23965.60000000149,23964.900000002235,16347.108,16355.400000002235,16430.903,24003.418,{},,
Introduction,html.Screen,1_0,2022-02-03T14:27:02.883Z,,,,,,,,,,,,,,,,,,,,,,,,,,,,,,,2947.5819999999985,,response,,,,,,,,,,,continue,click button,,,,,,,,,26952.5,26951,23954.041,23966.300000000745,24003.418,26995.66,,,
Volume calibration,html.Screen,1_1,2022-02-03T14:27:07.107Z,,,,,,,,,,,,,,,,,,,,,,,,,,,,,,,4179.54000000298,,response,,,,,,,,,,,continue,click button,,,,,,,,,31176.70000000298,31175.20000000298,26945.624,26953,26995.66,31191.539,,,
Task instructions,html.Screen,1_2,2022-02-03T14:27:17.938Z,,,,,,,,,,,,,,,,,,,,,,,,,,,,,,,10815.16100000298,,response,,,,,,,,,,,continue,click button,,,,,,,,,42008.10000000149,42006.70000000298,31175.018,31176.900000002235,31191.539,42023.667,,,
Sounds,html.Screen,1_3_0_0,2022-02-03T14:27:22.187Z,,,,,,,,,,,,,,,,,,,,,,,,,,,,,,,4246.1029999999955,,timeout,,,,,,,,,1,,,,,,,,S,O,I,,46257,46252.939,42006.947,42008.400000002235,42023.667,46269.77,,,
Judgement,html.Screen,1_3_0_1,2022-02-03T14:27:23.867Z,,,,,,,,,,,,,,,,,,,,,,,,,,,,true,1,,1665.2300000000032,,response,,,,,,,,,1,,1,click #choice-1,,,,,S,O,I,,47936.5,47935,46252.939,46257.20000000298,46269.77,47941.687,,,
Trial,flow.Sequence,1_3_0,2022-02-03T14:27:23.867Z,,,,,,,,,,,,,,,,,,,,,,,,,,,,,,,5911.332999999999,,completion,,,,,,,,,1,,,,,,,,S,O,I,,47936.800000000745,47935,42006.947,42008.400000002235,42023.667,47941.687,,,
Sounds,html.Screen,1_3_1_0,2022-02-03T14:27:28.102Z,,,,,,,,,,,,,,,,,,,,,,,,,,,,,,,4245.743000000002,,timeout,,,,,,,,,2,,,,,,,,O,S,I,,52172,52170.615,47924.834,47937,47941.687,52187.43,,,
Judgement,html.Screen,1_3_1_1,2022-02-03T14:27:28.643Z,,,,,,,,,,,,,,,,,,,,,,,,,,,,true,2,,523.7700000029799,,response,,,,,,,,,2,,2,click #choice-2,,,,,O,S,I,,52712.800000000745,52711.20000000298,52170.615,52172.10000000149,52187.43,52722.308,,,
Trial,flow.Sequence,1_3_1,2022-02-03T14:27:28.644Z,,,,,,,,,,,,,,,,,,,,,,,,,,,,,,,4769.513000002982,,completion,,,,,,,,,2,,,,,,,,O,S,I,,52713.60000000149,52711.20000000298,47924.834,47936.900000002235,47941.687,52722.308,,,
Sounds,html.Screen,1_3_2_0,2022-02-03T14:27:32.883Z,,,,,,,,,,,,,,,,,,,,,,,,,,,,,,,4246.372000000003,,timeout,,,,,,,,,3,,,,,,,,O,I,S,,56953.300000000745,56951.414,52705.799,52714,52722.308,56968.68,,,
Judgement,html.Screen,1_3_2_1,2022-02-03T14:27:33.355Z,,,,,,,,,,,,,,,,,,,,,,,,,,,,true,3,,454.52000000297994,,response,,,,,,,,,3,,3,click #choice-3,,,,,O,I,S,,57424.70000000298,57423.20000000298,56951.414,56953.400000002235,56968.68,57436.498,,,
Trial,flow.Sequence,1_3_2,2022-02-03T14:27:33.355Z,,,,,,,,,,,,,,,,,,,,,,,,,,,,,,,4700.892000002983,,completion,,,,,,,,,3,,,,,,,,O,I,S,,57425,57423.20000000298,52705.799,52713.900000002235,52722.308,57436.498,,,
Sounds,html.Screen,1_3_3_0,2022-02-03T14:27:37.598Z,,,,,,,,,,,,,,,,,,,,,,,,,,,,,,,4245.663999999997,,timeout,,,,,,,,,2,,,,,,,,I,S,O,,61667.400000002235,61665.711,57419.993,57425.20000000298,57436.498,61682.162,,,
Judgement,html.Screen,1_3_3_1,2022-02-03T14:27:38.091Z,,,,,,,,,,,,,,,,,,,,,,,,,,,,true,2,,477.0380000029836,,response,,,,,,,,,2,,2,click #choice-2,,,,,I,S,O,,62160.900000002235,62159.20000000298,61665.711,61667.60000000149,61682.162,62166.959,,,
Trial,flow.Sequence,1_3_3,2022-02-03T14:27:38.091Z,,,,,,,,,,,,,,,,,,,,,,,,,,,,,,,4722.702000002981,,completion,,,,,,,,,2,,,,,,,,I,S,O,,62161,62159.20000000298,57419.993,57425.10000000149,57436.498,62166.959,,,
Sounds,html.Screen,1_3_4_0,2022-02-03T14:27:42.330Z,,,,,,,,,,,,,,,,,,,,,,,,,,,,,,,4246.099000000002,,timeout,,,,,,,,,3,,,,,,,,I,O,S,,66399.30000000075,66396.43,62150.46,62161.20000000298,62166.959,66413.058,,,
Judgement,html.Screen,1_3_4_1,2022-02-03T14:27:42.827Z,,,,,,,,,,,,,,,,,,,,,,,,,,,,true,3,,482.1420000029757,,response,,,,,,,,,3,,3,click #choice-3,,,,,I,O,S,,66896.60000000149,66895.20000000298,66396.43,66399.40000000224,66413.058,66897.642,,,
Trial,flow.Sequence,1_3_4,2022-02-03T14:27:42.827Z,,,,,,,,,,,,,,,,,,,,,,,,,,,,,,,4728.241000002978,,completion,,,,,,,,,3,,,,,,,,I,O,S,,66896.80000000075,66895.20000000298,62150.46,62161.10000000149,62166.959,66897.642,,,
Sounds,html.Screen,1_3_5_0,2022-02-03T14:27:47.059Z,,,,,,,,,,,,,,,,,,,,,,,,,,,,,,,4245.975999999995,,timeout,,,,,,,,,1,,,,,,,,S,I,O,,71128.40000000224,71127.173,66881.667,66897,66897.642,71143.618,,,
Judgement,html.Screen,1_3_5_1,2022-02-03T14:27:47.651Z,,,,,,,,,,,,,,,,,,,,,,,,,,,,true,1,,575.582000002978,,response,,,,,,,,,1,,1,click #choice-1,,,,,S,I,O,,71720.90000000224,71719.20000000298,71127.173,71128.60000000149,71143.618,71728.679,,,
Trial,flow.Sequence,1_3_5,2022-02-03T14:27:47.651Z,,,,,,,,,,,,,,,,,,,,,,,,,,,,,,,4821.558000002973,,completion,,,,,,,,,1,,,,,,,,S,I,O,,71721.10000000149,71719.20000000298,66881.667,66897,66897.642,71728.679,,,
Task,flow.Loop,1_3,2022-02-03T14:27:47.656Z,,,,,,,,,,,,,,,,,,,,,,,,,,,,,,,29695.53300000298,,completion,,,1,,,,,,,,,,,,,,,,,,71725.80000000075,71719.20000000298,42006.947,42008.300000000745,42023.667,71728.679,,,
Trap,html.Screen,1_4,2022-02-03T14:27:47.659Z,,,,,,,,,,,,,,,,,,,,,,,,,,,,,,,NaN,,skipped,,,,,,,,,,,,,,,,,,,,,71728.30000000075,71719.20000000298,,71728.10000000149,,71728.679,,,
Thanks,html.Screen,1_5,2022-02-03T14:27:50.570Z,,,,,,,,,,,,,,,,,,,,,,,,,,,,,,,2910.0210000029765,,response,,,,,,,,,,,continue,click button,,,,,,,,,74640.20000000298,74638.70000000298,71712.26,71728.5,71728.679,78281.596,,,
Headphone screening,flow.Sequence,1,2022-02-03T14:27:50.571Z,,,,,,,,,,,,,,,,,,,,,,,,,,,,,,,50635.282000002975,,completion,,,,,,,,,,,,,,,,,,,,,74640.40000000224,74638.70000000298,23954.041,23966.10000000149,24003.418,78281.596,,,
Instructions,html.Page,2_0,2022-02-03T14:28:16.222Z,,,,,,,,,,,,,,,,,,,,,,,,,,,,,,,22009.403999999995,,form submission,,,,,,,,,,,,,,,,,,,,,100291.5,100291,78031.082,78125.40000000224,78281.596,100296.931,,,
Holding screen,html.Screen,2_1_0_0,2022-02-03T14:28:26.208Z,,,,,,,,,,,,,,,,,,,,,,,,,,,,,,,9996.555000000008,,timeout,,,,,,,,,,,,,,,,,,,,,110277.60000000149,110276.694,100280.279,100291.70000000298,100296.931,110293.486,,,
screen,html.Screen,2_1_0_1_0,2022-02-03T14:28:27.269Z,,,,,,,,,,,,,,,,,53,,,,,,,,,,,,,,1041.9140000022308,,response,,,,99,,,,,,,Space,keypress(Space),,,,,,,,When -- ----- -- ------ - ------- --- ----------<br>------------- ------ ------ ---- ---- ------- ----- -- ----<br>-------- ------- -- ---------- --- - --- ----- ----- ----<br>---- --- --- ----- --- ---- ---- ------- ----- ---- -------<br>--- --- -- ----- -- --- ---- -- --- ---- -- ------ ------<br>--- ----- -- ----,111338.30000000075,111335.40000000224,110276.694,110277.90000000224,110293.486,111346.509,,0,When
screen,html.Screen,2_1_0_1_1,2022-02-03T14:28:27.842Z,,,,,,,,,,,,,,,,,53,,,,,,,,,,,,,,564.3910000022297,,response,,,,99,,,,,,,Space,keypress(Space),,,,,,,,---- it ----- -- ------ - ------- --- ----------<br>------------- ------ ------ ---- ---- ------- ----- -- ----<br>-------- ------- -- ---------- --- - --- ----- ----- ----<br>---- --- --- ----- --- ---- ---- ------- ----- ---- -------<br>--- --- -- ----- -- --- ---- -- --- ---- -- ------ ------<br>--- ----- -- ----,111911.90000000224,111910.90000000224,111330.063,111338.40000000224,111346.509,111914.813,,1,it
screen,html.Screen,2_1_0_1_2,2022-02-03T14:28:28.331Z,,,,,,,,,,,,,,,,,53,,,,,,,,,,,,,,484.4870000007504,,response,,,,99,,,,,,,Space,keypress(Space),,,,,,,,---- -- comes -- ------ - ------- --- ----------<br>------------- ------ ------ ---- ---- ------- ----- -- ----<br>-------- ------- -- ---------- --- - --- ----- ----- ----<br>---- --- --- ----- --- ---- ---- ------- ----- ---- -------<br>--- --- -- ----- -- --- ---- -- --- ---- -- ------ ------<br>--- ----- -- ----,112400.40000000224,112399.30000000075,111898.407,111912.10000000149,111914.813,112416.456,,2,comes
screen,html.Screen,2_1_0_1_3,2022-02-03T14:28:28.779Z,,,,,,,,,,,,,,,,,53,,,,,,,,,,,,,,430.84400000073947,,response,,,,99,,,,,,,Space,keypress(Space),,,,,,,,---- -- ----- to ------ - ------- --- ----------<br>------------- ------ ------ ---- ---- ------- ----- -- ----<br>-------- ------- -- ---------- --- - --- ----- ----- ----<br>---- --- --- ----- --- ---- ---- ------- ----- ---- -------<br>--- --- -- ----- -- --- ---- -- --- ---- -- ------ ------<br>--- ----- -- ----,112848.40000000224,112847.30000000075,112399.807,112401.60000000149,112416.456,112850.929,,3,to
screen,html.Screen,2_1_0_1_4,2022-02-03T14:28:29.283Z,,,,,,,,,,,,,,,,,53,,,,,,,,,,,,,,500.2710000029765,,response,,,,99,,,,,,,Space,keypress(Space),,,,,,,,---- -- ----- -- having - ------- --- ----------<br>------------- ------ ------ ---- ---- ------- ----- -- ----<br>-------- ------- -- ---------- --- - --- ----- ----- ----<br>---- --- --- ----- --- ---- ---- ------- ----- ---- -------<br>--- --- -- ----- -- --- ---- -- --- ---- -- ------ ------<br>--- ----- -- ----,113352.30000000075,113351.20000000298,112834.481,112848.5,112850.929,113386.151,,4,having
screen,html.Screen,2_1_0_1_5,2022-02-03T14:28:29.770Z,,,,,,,,,,,,,,,,,53,,,,,,,,,,,,,,453.0490000029822,,response,,,,99,,,,,,,Space,keypress(Space),,,,,,,,---- -- ----- -- ------ a ------- --- ----------<br>------------- ------ ------ ---- ---- ------- ----- -- ----<br>-------- ------- -- ---------- --- - --- ----- ----- ----<br>---- --- --- ----- --- ---- ---- ------- ----- ---- -------<br>--- --- -- ----- -- --- ---- -- --- ---- -- ------ ------<br>--- ----- -- ----,113840.30000000075,113839.20000000298,113369.417,113352.5,113386.151,113854.028,,5,a
screen,html.Screen,2_1_0_1_6,2022-02-03T14:28:30.282Z,,,,,,,,,,,,,,,,,53,,,,,,,,,,,,,,497.1720000029745,,response,,,,99,,,,,,,Space,keypress(Space),,,,,,,,---- -- ----- -- ------ - lasting --- ----------<br>------------- ------ ------ ---- ---- ------- ----- -- ----<br>-------- ------- -- ---------- --- - --- ----- ----- ----<br>---- --- --- ----- --- ---- ---- ------- ----- ---- -------<br>--- --- -- ----- -- --- ---- -- --- ---- -- ------ ------<br>--- ----- -- ----,114352.30000000075,114351.20000000298,113837.464,113840.40000000224,113854.028,114355.42,,6,lasting
screen,html.Screen,2_1_0_1_7,2022-02-03T14:28:30.747Z,,,,,,,,,,,,,,,,,53,,,,,,,,,,,,,,459.780000002982,,response,,,,99,,,,,,,Space,keypress(Space),,,,,,,,---- -- ----- -- ------ - ------- and ----------<br>------------- ------ ------ ---- ---- ------- ----- -- ----<br>-------- ------- -- ---------- --- - --- ----- ----- ----<br>---- --- --- ----- --- ---- ---- ------- ----- ---- -------<br>--- --- -- ----- -- --- ---- -- --- ---- -- ------ ------<br>--- ----- -- ----,114816.30000000075,114815.20000000298,114338.942,114352.40000000224,114355.42,114823.556,,7,and
screen,html.Screen,2_1_0_1_8,2022-02-03T14:28:31.274Z,,,,,,,,,,,,,,,,,53,,,,,,,,,,,,,,519.2440000007482,,response,,,,99,,,,,,,Space,keypress(Space),,,,,,,,---- -- ----- -- ------ - ------- --- fulfilling<br>------------- ------ ------ ---- ---- ------- ----- -- ----<br>-------- ------- -- ---------- --- - --- ----- ----- ----<br>---- --- --- ----- --- ---- ---- ------- ----- ---- -------<br>--- --- -- ----- -- --- ---- -- --- ---- -- ------ ------<br>--- ----- -- ----,115343.90000000224,115342.80000000075,114807.082,114816.40000000224,114823.556,115358.548,,8,fulfilling
screen,html.Screen,2_1_0_1_9,2022-02-03T14:28:31.811Z,,,,,,,,,,,,,,,,,53,,,,,,,,,,,,,,520.652000002985,,response,,,,99,,,,,,,Space,keypress(Space),,,,,,,,"---- -- ----- -- ------ - ------- --- ----------<br>relationship, ------ ------ ---- ---- ------- ----- -- ----<br>-------- ------- -- ---------- --- - --- ----- ----- ----<br>---- --- --- ----- --- ---- ---- ------- ----- ---- -------<br>--- --- -- ----- -- --- ---- -- --- ---- -- ------ ------<br>--- ----- -- ----",115880.30000000075,115879.20000000298,115341.982,115344,115358.548,115893.611,,9,"relationship,"
screen,html.Screen,2_1_0_1_10,2022-02-03T14:28:33.186Z,,,,,,,,,,,,,,,,,53,,,,,,,,,,,,,,1361.4890000014857,,response,,,,99,,,,,,,Space,keypress(Space),,,,,,,,---- -- ----- -- ------ - ------- --- ----------<br>------------- common ------ ---- ---- ------- ----- -- ----<br>-------- ------- -- ---------- --- - --- ----- ----- ----<br>---- --- --- ----- --- ---- ---- ------- ----- ---- -------<br>--- --- -- ----- -- --- ---- -- --- ---- -- ------ ------<br>--- ----- -- ----,117256.20000000298,117255.10000000149,115876.894,115880.40000000224,115893.611,117264.08,,10,common
screen,html.Screen,2_1_0_1_11,2022-02-03T14:28:34.106Z,,,,,,,,,,,,,,,,,53,,,,,,,,,,,,,,911.1200000029785,,response,,,,99,,,,,,,Space,keypress(Space),,,,,,,,---- -- ----- -- ------ - ------- --- ----------<br>------------- ------ wisdom ---- ---- ------- ----- -- ----<br>-------- ------- -- ---------- --- - --- ----- ----- ----<br>---- --- --- ----- --- ---- ---- ------- ----- ---- -------<br>--- --- -- ----- -- --- ---- -- --- ---- -- ------ ------<br>--- ----- -- ----,118176.30000000075,118175.20000000298,117247.581,117256.30000000075,117264.08,118183.476,,11,wisdom
screen,html.Screen,2_1_0_1_12,2022-02-03T14:28:34.771Z,,,,,,,,,,,,,,,,,53,,,,,,,,,,,,,,655.7240000029851,,response,,,,99,,,,,,,Space,keypress(Space),,,,,,,,---- -- ----- -- ------ - ------- --- ----------<br>------------- ------ ------ says ---- ------- ----- -- ----<br>-------- ------- -- ---------- --- - --- ----- ----- ----<br>---- --- --- ----- --- ---- ---- ------- ----- ---- -------<br>--- --- -- ----- -- --- ---- -- --- ---- -- ------ ------<br>--- ----- -- ----,118840.5,118839.20000000298,118166.989,118176.40000000224,118183.476,118852.622,,12,says
screen,html.Screen,2_1_0_1_13,2022-02-03T14:28:35.514Z,,,,,,,,,,,,,,,,,53,,,,,,,,,,,,,,730.4780000014871,,response,,,,99,,,,,,,Space,keypress(Space),,,,,,,,---- -- ----- -- ------ - ------- --- ----------<br>------------- ------ ------ ---- that ------- ----- -- ----<br>-------- ------- -- ---------- --- - --- ----- ----- ----<br>---- --- --- ----- --- ---- ---- ------- ----- ---- -------<br>--- --- -- ----- -- --- ---- -- --- ---- -- ------ ------<br>--- ----- -- ----,119584.20000000298,119583.10000000149,118835.7,118840.60000000149,118852.622,119587.607,,13,that
screen,html.Screen,2_1_0_1_14,2022-02-03T14:28:36.323Z,,,,,,,,,,,,,,,,,53,,,,,,,,,,,,,,803.6930000007414,,response,,,,99,,,,,,,Space,keypress(Space),,,,,,,,---- -- ----- -- ------ - ------- --- ----------<br>------------- ------ ------ ---- ---- feeling ----- -- ----<br>-------- ------- -- ---------- --- - --- ----- ----- ----<br>---- --- --- ----- --- ---- ---- ------- ----- ---- -------<br>--- --- -- ----- -- --- ---- -- --- ---- -- ------ ------<br>--- ----- -- ----,120392.5,120391.30000000075,119571.099,119584.30000000075,119587.607,120406.845,,14,feeling
screen,html.Screen,2_1_0_1_15,2022-02-03T14:28:36.883Z,,,,,,,,,,,,,,,,,53,,,,,,,,,,,,,,544.1549999999988,,response,,,,99,,,,,,,Space,keypress(Space),,,,,,,,---- -- ----- -- ------ - ------- --- ----------<br>------------- ------ ------ ---- ---- ------- close -- ----<br>-------- ------- -- ---------- --- - --- ----- ----- ----<br>---- --- --- ----- --- ---- ---- ------- ----- ---- -------<br>--- --- -- ----- -- --- ---- -- --- ---- -- ------ ------<br>--- ----- -- ----,120952.10000000149,120951,120390.371,120392.70000000298,120406.845,120958.348,,15,close
screen,html.Screen,2_1_0_1_16,2022-02-03T14:28:37.540Z,,,,,,,,,,,,,,,,,53,,,,,,,,,,,,,,649.1520000000019,,response,,,,99,,,,,,,Space,keypress(Space),,,,,,,,---- -- ----- -- ------ - ------- --- ----------<br>------------- ------ ------ ---- ---- ------- ----- to ----<br>-------- ------- -- ---------- --- - --- ----- ----- ----<br>---- --- --- ----- --- ---- ---- ------- ----- ---- -------<br>--- --- -- ----- -- --- ---- -- --- ---- -- ------ ------<br>--- ----- -- ----,121608.80000000075,121607.5,120941.919,120952.30000000075,120958.348,121639.074,,16,to
screen,html.Screen,2_1_0_1_17,2022-02-03T14:28:38.027Z,,,,,,,,,,,,,,,,,53,,,,,,,,,,,,,,455.8260000022419,,response,,,,99,,,,,,,Space,keypress(Space),,,,,,,,---- -- ----- -- ------ - ------- --- ----------<br>------------- ------ ------ ---- ---- ------- ----- -- your<br>-------- ------- -- ---------- --- - --- ----- ----- ----<br>---- --- --- ----- --- ---- ---- ------- ----- ---- -------<br>--- --- -- ----- -- --- ---- -- --- ---- -- ------ ------<br>--- ----- -- ----,122095.90000000224,122094.90000000224,121593.94,121609,121639.074,122111.849,,17,your
screen,html.Screen,2_1_0_1_18,2022-02-03T14:28:38.835Z,,,,,,,,,,,,,,,,,53,,,,,,,,,,,,,,791.2510000014881,,response,,,,99,,,,,,,Space,keypress(Space),,,,,,,,---- -- ----- -- ------ - ------- --- ----------<br>------------- ------ ------ ---- ---- ------- ----- -- ----<br>romantic ------- -- ---------- --- - --- ----- ----- ----<br>---- --- --- ----- --- ---- ---- ------- ----- ---- -------<br>--- --- -- ----- -- --- ---- -- --- ---- -- ------ ------<br>--- ----- -- ----,122904.20000000298,122903.10000000149,122095.394,122096,122111.849,122914.441,,18,romantic
screen,html.Screen,2_1_0_1_19,2022-02-03T14:28:39.451Z,,,,,,,,,,,,,,,,,53,,,,,,,,,,,,,,604.8590000007389,,response,,,,99,,,,,,,Space,keypress(Space),,,,,,,,---- -- ----- -- ------ - ------- --- ----------<br>------------- ------ ------ ---- ---- ------- ----- -- ----<br>-------- partner -- ---------- --- - --- ----- ----- ----<br>---- --- --- ----- --- ---- ---- ------- ----- ---- -------<br>--- --- -- ----- -- --- ---- -- --- ---- -- ------ ------<br>--- ----- -- ----,123520.30000000075,123519.30000000075,122897.731,122904.30000000075,122914.441,123532.86,,19,partner
screen,html.Screen,2_1_0_1_20,2022-02-03T14:28:40.203Z,,,,,,,,,,,,,,,,,53,,,,,,,,,,,,,,738.4400000007445,,response,,,,99,,,,,,,Space,keypress(Space),,,,,,,,---- -- ----- -- ------ - ------- --- ----------<br>------------- ------ ------ ---- ---- ------- ----- -- ----<br>-------- ------- is ---------- --- - --- ----- ----- ----<br>---- --- --- ----- --- ---- ---- ------- ----- ---- -------<br>--- --- -- ----- -- --- ---- -- --- ---- -- ------ ------<br>--- ----- -- ----,124272.30000000075,124271.30000000075,123516.049,123520.40000000224,123532.86,124284.991,,20,is
screen,html.Screen,2_1_0_1_21,2022-02-03T14:28:41.699Z,,,,,,,,,,,,,,,,,53,,,,,,,,,,,,,,1482.3090000007505,,response,,,,99,,,,,,,Space,keypress(Space),,,,,,,,---- -- ----- -- ------ - ------- --- ----------<br>------------- ------ ------ ---- ---- ------- ----- -- ----<br>-------- ------- -- paramount. --- - --- ----- ----- ----<br>---- --- --- ----- --- ---- ---- ------- ----- ---- -------<br>--- --- -- ----- -- --- ---- -- --- ---- -- ------ ------<br>--- ----- -- ----,125768.30000000075,125767.30000000075,124268.469,124272.40000000224,124284.991,125772.662,,21,paramount.
screen,html.Screen,2_1_0_1_22,2022-02-03T14:28:42.163Z,,,,,,,,,,,,,,,,,53,,,,,,,,,,,,,,458.5380000029836,,response,,,,99,,,,,,,Space,keypress(Space),,,,,,,,---- -- ----- -- ------ - ------- --- ----------<br>------------- ------ ------ ---- ---- ------- ----- -- ----<br>-------- ------- -- ---------- But - --- ----- ----- ----<br>---- --- --- ----- --- ---- ---- ------- ----- ---- -------<br>--- --- -- ----- -- --- ---- -- --- ---- -- ------ ------<br>--- ----- -- ----,126232.20000000298,126231.20000000298,125756.343,125768.40000000224,125772.662,126240.88,,22,But
screen,html.Screen,2_1_0_1_23,2022-02-03T14:28:42.539Z,,,,,,,,,,,,,,,,,53,,,,,,,,,,,,,,366.3200000029756,,response,,,,99,,,,,,,Space,keypress(Space),,,,,,,,---- -- ----- -- ------ - ------- --- ----------<br>------------- ------ ------ ---- ---- ------- ----- -- ----<br>-------- ------- -- ---------- --- a --- ----- ----- ----<br>---- --- --- ----- --- ---- ---- ------- ----- ---- -------<br>--- --- -- ----- -- --- ---- -- --- ---- -- ------ ------<br>--- ----- -- ----,126608.5,126607.20000000298,126224.335,126232.5,126240.88,126625.543,,23,a
screen,html.Screen,2_1_0_1_24,2022-02-03T14:28:42.957Z,,,,,,,,,,,,,,,,,53,,,,,,,,,,,,,,398.057000001485,,response,,,,99,,,,,,,Space,keypress(Space),,,,,,,,---- -- ----- -- ------ - ------- --- ----------<br>------------- ------ ------ ---- ---- ------- ----- -- ----<br>-------- ------- -- ---------- --- - new ----- ----- ----<br>---- --- --- ----- --- ---- ---- ------- ----- ---- -------<br>--- --- -- ----- -- --- ---- -- --- ---- -- ------ ------<br>--- ----- -- ----,127025.80000000075,127023.60000000149,126608.69,126608.60000000149,126625.543,127043.192,,24,new
screen,html.Screen,2_1_0_1_25,2022-02-03T14:28:43.347Z,,,,,,,,,,,,,,,,,53,,,,,,,,,,,,,,372.2080000022397,,response,,,,99,,,,,,,Space,keypress(Space),,,,,,,,---- -- ----- -- ------ - ------- --- ----------<br>------------- ------ ------ ---- ---- ------- ----- -- ----<br>-------- ------- -- ---------- --- - --- study ----- ----<br>---- --- --- ----- --- ---- ---- ------- ----- ---- -------<br>--- --- -- ----- -- --- ---- -- --- ---- -- ------ ------<br>--- ----- -- ----,127416.5,127415.40000000224,127010.009,127026,127043.192,127427.744,,25,study
screen,html.Screen,2_1_0_1_26,2022-02-03T14:28:44.043Z,,,,,,,,,,,,,,,,,53,,,,,,,,,,,,,,683.3560000014841,,response,,,,99,,,,,,,Space,keypress(Space),,,,,,,,---- -- ----- -- ------ - ------- --- ----------<br>------------- ------ ------ ---- ---- ------- ----- -- ----<br>-------- ------- -- ---------- --- - --- ----- finds ----<br>---- --- --- ----- --- ---- ---- ------- ----- ---- -------<br>--- --- -- ----- -- --- ---- -- --- ---- -- ------ ------<br>--- ----- -- ----,128112.20000000298,128111.10000000149,127411.074,127416.60000000149,127427.744,128137.548,,26,finds
screen,html.Screen,2_1_0_1_27,2022-02-03T14:28:44.731Z,,,,,,,,,,,,,,,,,53,,,,,,,,,,,,,,661.652000002985,,response,,,,99,,,,,,,Space,keypress(Space),,,,,,,,---- -- ----- -- ------ - ------- --- ----------<br>------------- ------ ------ ---- ---- ------- ----- -- ----<br>-------- ------- -- ---------- --- - --- ----- ----- that<br>---- --- --- ----- --- ---- ---- ------- ----- ---- -------<br>--- --- -- ----- -- --- ---- -- --- ---- -- ------ ------<br>--- ----- -- ----,128800.30000000075,128799.20000000298,128096.587,128112.30000000075,128137.548,128815.358,,27,that
screen,html.Screen,2_1_0_1_28,2022-02-03T14:28:45.147Z,,,,,,,,,,,,,,,,,53,,,,,,,,,,,,,,399.7420000014972,,response,,,,99,,,,,,,Space,keypress(Space),,,,,,,,---- -- ----- -- ------ - ------- --- ----------<br>------------- ------ ------ ---- ---- ------- ----- -- ----<br>-------- ------- -- ---------- --- - --- ----- ----- ----<br>it's --- --- ----- --- ---- ---- ------- ----- ---- -------<br>--- --- -- ----- -- --- ---- -- --- ---- -- ------ ------<br>--- ----- -- ----,129216.10000000149,129215.10000000149,128798.842,128800.40000000224,128815.358,129233.318,,28,it's
screen,html.Screen,2_1_0_1_29,2022-02-03T14:28:45.547Z,,,,,,,,,,,,,,,,,53,,,,,,,,,,,,,,381.5820000022359,,response,,,,99,,,,,,,Space,keypress(Space),,,,,,,,---- -- ----- -- ------ - ------- --- ----------<br>------------- ------ ------ ---- ---- ------- ----- -- ----<br>-------- ------- -- ---------- --- - --- ----- ----- ----<br>---- not --- ----- --- ---- ---- ------- ----- ---- -------<br>--- --- -- ----- -- --- ---- -- --- ---- -- ------ ------<br>--- ----- -- ----,129616,129614.90000000224,129216.315,129216.20000000298,129233.318,129634.787,,29,not
screen,html.Screen,2_1_0_1_30,2022-02-03T14:28:45.936Z,,,,,,,,,,,,,,,,,53,,,,,,,,,,,,,,368.9130000029836,,response,,,,99,,,,,,,Space,keypress(Space),,,,,,,,---- -- ----- -- ------ - ------- --- ----------<br>------------- ------ ------ ---- ---- ------- ----- -- ----<br>-------- ------- -- ---------- --- - --- ----- ----- ----<br>---- --- how ----- --- ---- ---- ------- ----- ---- -------<br>--- --- -- ----- -- --- ---- -- --- ---- -- ------ ------<br>--- ----- -- ----,130004.90000000224,130003.70000000298,129601.067,129616.20000000298,129634.787,130018.941,,30,how
screen,html.Screen,2_1_0_1_31,2022-02-03T14:28:46.323Z,,,,,,,,,,,,,,,,,53,,,,,,,,,,,,,,372.3590000007389,,response,,,,99,,,,,,,Space,keypress(Space),,,,,,,,---- -- ----- -- ------ - ------- --- ----------<br>------------- ------ ------ ---- ---- ------- ----- -- ----<br>-------- ------- -- ---------- --- - --- ----- ----- ----<br>---- --- --- close --- ---- ---- ------- ----- ---- -------<br>--- --- -- ----- -- --- ---- -- --- ---- -- ------ ------<br>--- ----- -- ----,130392.40000000224,130391.30000000075,130002.233,130005.20000000298,130018.941,130403.15,,31,close
screen,html.Screen,2_1_0_1_32,2022-02-03T14:28:46.715Z,,,,,,,,,,,,,,,,,53,,,,,,,,,,,,,,380.05000000298605,,response,,,,99,,,,,,,Space,keypress(Space),,,,,,,,---- -- ----- -- ------ - ------- --- ----------<br>------------- ------ ------ ---- ---- ------- ----- -- ----<br>-------- ------- -- ---------- --- - --- ----- ----- ----<br>---- --- --- ----- you ---- ---- ------- ----- ---- -------<br>--- --- -- ----- -- --- ---- -- --- ---- -- ------ ------<br>--- ----- -- ----,130784.20000000298,130783.20000000298,130386.666,130392.5,130403.15,130787.592,,32,you
screen,html.Screen,2_1_0_1_33,2022-02-03T14:28:47.091Z,,,,,,,,,,,,,,,,,53,,,,,,,,,,,,,,371.60800000297604,,response,,,,99,,,,,,,Space,keypress(Space),,,,,,,,---- -- ----- -- ------ - ------- --- ----------<br>------------- ------ ------ ---- ---- ------- ----- -- ----<br>-------- ------- -- ---------- --- - --- ----- ----- ----<br>---- --- --- ----- --- feel ---- ------- ----- ---- -------<br>--- --- -- ----- -- --- ---- -- --- ---- -- ------ ------<br>--- ----- -- ----,131160.20000000298,131159.20000000298,130771.147,130784.40000000224,130787.592,131172.155,,33,feel
screen,html.Screen,2_1_0_1_34,2022-02-03T14:28:47.475Z,,,,,,,,,,,,,,,,,53,,,,,,,,,,,,,,370.9450000014913,,response,,,,99,,,,,,,Space,keypress(Space),,,,,,,,---- -- ----- -- ------ - ------- --- ----------<br>------------- ------ ------ ---- ---- ------- ----- -- ----<br>-------- ------- -- ---------- --- - --- ----- ----- ----<br>---- --- --- ----- --- ---- that ------- ----- ---- -------<br>--- --- -- ----- -- --- ---- -- --- ---- -- ------ ------<br>--- ----- -- ----,131544.20000000298,131543.1000000015,131155.461,131160.30000000075,131172.155,131556.845,,34,that
screen,html.Screen,2_1_0_1_35,2022-02-03T14:28:47.883Z,,,,,,,,,,,,,,,,,53,,,,,,,,,,,,,,394.75500000148895,,response,,,,99,,,,,,,Space,keypress(Space),,,,,,,,---- -- ----- -- ------ - ------- --- ----------<br>------------- ------ ------ ---- ---- ------- ----- -- ----<br>-------- ------- -- ---------- --- - --- ----- ----- ----<br>---- --- --- ----- --- ---- ---- matters ----- ---- -------<br>--- --- -- ----- -- --- ---- -- --- ---- -- ------ ------<br>--- ----- -- ----,131952.6000000015,131951.6000000015,131540.088,131544.30000000075,131556.845,131957.777,,35,matters
screen,html.Screen,2_1_0_1_36,2022-02-03T14:28:48.387Z,,,,,,,,,,,,,,,,,53,,,,,,,,,,,,,,497.1230000022333,,response,,,,99,,,,,,,Space,keypress(Space),,,,,,,,"---- -- ----- -- ------ - ------- --- ----------<br>------------- ------ ------ ---- ---- ------- ----- -- ----<br>-------- ------- -- ---------- --- - --- ----- ----- ----<br>---- --- --- ----- --- ---- ---- ------- most, ---- -------<br>--- --- -- ----- -- --- ---- -- --- ---- -- ------ ------<br>--- ----- -- ----",132455.90000000224,132454.90000000224,131941.279,131952.90000000224,131957.777,132459.483,,36,"most,"
screen,html.Screen,2_1_0_1_37,2022-02-03T14:28:48.907Z,,,,,,,,,,,,,,,,,53,,,,,,,,,,,,,,515.8170000007376,,response,,,,99,,,,,,,Space,keypress(Space),,,,,,,,---- -- ----- -- ------ - ------- --- ----------<br>------------- ------ ------ ---- ---- ------- ----- -- ----<br>-------- ------- -- ---------- --- - --- ----- ----- ----<br>---- --- --- ----- --- ---- ---- ------- ----- it's -------<br>--- --- -- ----- -- --- ---- -- --- ---- -- ------ ------<br>--- ----- -- ----,132976.30000000075,132975.30000000075,132442.575,132456,132459.483,133004.028,,37,it's
screen,html.Screen,2_1_0_1_38,2022-02-03T14:28:49.298Z,,,,,,,,,,,,,,,,,53,,,,,,,,,,,,,,362.6720000029891,,response,,,,99,,,,,,,Space,keypress(Space),,,,,,,,---- -- ----- -- ------ - ------- --- ----------<br>------------- ------ ------ ---- ---- ------- ----- -- ----<br>-------- ------- -- ---------- --- - --- ----- ----- ----<br>---- --- --- ----- --- ---- ---- ------- ----- ---- whether<br>--- --- -- ----- -- --- ---- -- --- ---- -- ------ ------<br>--- ----- -- ----,133367.70000000298,133366.70000000298,132960.863,132976.40000000224,133004.028,133379.132,,38,whether
screen,html.Screen,2_1_0_1_39,2022-02-03T14:28:49.707Z,,,,,,,,,,,,,,,,,53,,,,,,,,,,,,,,395.6680000007327,,response,,,,99,,,,,,,Space,keypress(Space),,,,,,,,---- -- ----- -- ------ - ------- --- ----------<br>------------- ------ ------ ---- ---- ------- ----- -- ----<br>-------- ------- -- ---------- --- - --- ----- ----- ----<br>---- --- --- ----- --- ---- ---- ------- ----- ---- -------<br>you --- -- ----- -- --- ---- -- --- ---- -- ------ ------<br>--- ----- -- ----,133775.90000000224,133774.80000000075,133362.229,133367.90000000224,133379.132,133779.804,,39,you
screen,html.Screen,2_1_0_1_40,2022-02-03T14:28:50.107Z,,,,,,,,,,,,,,,,,53,,,,,,,,,,,,,,395.3960000029765,,response,,,,99,,,,,,,Space,keypress(Space),,,,,,,,---- -- ----- -- ------ - ------- --- ----------<br>------------- ------ ------ ---- ---- ------- ----- -- ----<br>-------- ------- -- ---------- --- - --- ----- ----- ----<br>---- --- --- ----- --- ---- ---- ------- ----- ---- -------<br>--- are -- ----- -- --- ---- -- --- ---- -- ------ ------<br>--- ----- -- ----,134176.30000000075,134175.20000000298,133763.091,133776,133779.804,134181.096,,40,are
screen,html.Screen,2_1_0_1_41,2022-02-03T14:28:50.539Z,,,,,,,,,,,,,,,,,53,,,,,,,,,,,,,,426.1040000029898,,response,,,,99,,,,,,,Space,keypress(Space),,,,,,,,---- -- ----- -- ------ - ------- --- ----------<br>------------- ------ ------ ---- ---- ------- ----- -- ----<br>-------- ------- -- ---------- --- - --- ----- ----- ----<br>---- --- --- ----- --- ---- ---- ------- ----- ---- -------<br>--- --- as ----- -- --- ---- -- --- ---- -- ------ ------<br>--- ----- -- ----,134608.30000000075,134607.20000000298,134164.434,134176.40000000224,134181.096,134615.7,,41,as
screen,html.Screen,2_1_0_1_42,2022-02-03T14:28:50.963Z,,,,,,,,,,,,,,,,,53,,,,,,,,,,,,,,415.5000000029686,,response,,,,99,,,,,,,Space,keypress(Space),,,,,,,,---- -- ----- -- ------ - ------- --- ----------<br>------------- ------ ------ ---- ---- ------- ----- -- ----<br>-------- ------- -- ---------- --- - --- ----- ----- ----<br>---- --- --- ----- --- ---- ---- ------- ----- ---- -------<br>--- --- -- close -- --- ---- -- --- ---- -- ------ ------<br>--- ----- -- ----,135032.40000000224,135031.20000000298,134599.242,134608.40000000224,134615.7,135057.761,,42,close
screen,html.Screen,2_1_0_1_43,2022-02-03T14:28:51.355Z,,,,,,,,,,,,,,,,,53,,,,,,,,,,,,,,364.93900000298163,,response,,,,99,,,,,,,Space,keypress(Space),,,,,,,,---- -- ----- -- ------ - ------- --- ----------<br>------------- ------ ------ ---- ---- ------- ----- -- ----<br>-------- ------- -- ---------- --- - --- ----- ----- ----<br>---- --- --- ----- --- ---- ---- ------- ----- ---- -------<br>--- --- -- ----- as --- ---- -- --- ---- -- ------ ------<br>--- ----- -- ----,135423.80000000075,135422.70000000298,135017.145,135032.6000000015,135057.761,135435.318,,43,as
screen,html.Screen,2_1_0_1_44,2022-02-03T14:28:51.739Z,,,,,,,,,,,,,,,,,53,,,,,,,,,,,,,,371.88200000298093,,response,,,,99,,,,,,,Space,keypress(Space),,,,,,,,---- -- ----- -- ------ - ------- --- ----------<br>------------- ------ ------ ---- ---- ------- ----- -- ----<br>-------- ------- -- ---------- --- - --- ----- ----- ----<br>---- --- --- ----- --- ---- ---- ------- ----- ---- -------<br>--- --- -- ----- -- you ---- -- --- ---- -- ------ ------<br>--- ----- -- ----,135808.20000000298,135807.20000000298,135418.129,135424,135435.318,135819.515,,44,you
screen,html.Screen,2_1_0_1_45,2022-02-03T14:28:52.179Z,,,,,,,,,,,,,,,,,53,,,,,,,,,,,,,,427.68500000296626,,response,,,,99,,,,,,,Space,keypress(Space),,,,,,,,---- -- ----- -- ------ - ------- --- ----------<br>------------- ------ ------ ---- ---- ------- ----- -- ----<br>-------- ------- -- ---------- --- - --- ----- ----- ----<br>---- --- --- ----- --- ---- ---- ------- ----- ---- -------<br>--- --- -- ----- -- --- want -- --- ---- -- ------ ------<br>--- ----- -- ----,136248.20000000298,136247.20000000298,135802.768,135808.40000000224,135819.515,136254.039,,45,want
screen,html.Screen,2_1_0_1_46,2022-02-03T14:28:52.555Z,,,,,,,,,,,,,,,,,53,,,,,,,,,,,,,,369.06100000150036,,response,,,,99,,,,,,,Space,keypress(Space),,,,,,,,---- -- ----- -- ------ - ------- --- ----------<br>------------- ------ ------ ---- ---- ------- ----- -- ----<br>-------- ------- -- ---------- --- - --- ----- ----- ----<br>---- --- --- ----- --- ---- ---- ------- ----- ---- -------<br>--- --- -- ----- -- --- ---- to --- ---- -- ------ ------<br>--- ----- -- ----,136624.20000000298,136623.1000000015,136237.35,136248.30000000075,136254.039,136638.609,,46,to
screen,html.Screen,2_1_0_1_47,2022-02-03T14:28:52.980Z,,,,,,,,,,,,,,,,,53,,,,,,,,,,,,,,408.5910000029835,,response,,,,99,,,,,,,Space,keypress(Space),,,,,,,,"---- -- ----- -- ------ - ------- --- ----------<br>------------- ------ ------ ---- ---- ------- ----- -- ----<br>-------- ------- -- ---------- --- - --- ----- ----- ----<br>---- --- --- ----- --- ---- ---- ------- ----- ---- -------<br>--- --- -- ----- -- --- ---- -- be, ---- -- ------ ------<br>--- ----- -- ----",137049.40000000224,137047.20000000298,136621.919,136624.20000000298,136638.609,137056.248,,47,"be,"
screen,html.Screen,2_1_0_1_48,2022-02-03T14:28:53.427Z,,,,,,,,,,,,,,,,,53,,,,,,,,,,,,,,439.05200000075274,,response,,,,99,,,,,,,Space,keypress(Space),,,,,,,,---- -- ----- -- ------ - ------- --- ----------<br>------------- ------ ------ ---- ---- ------- ----- -- ----<br>-------- ------- -- ---------- --- - --- ----- ----- ----<br>---- --- --- ----- --- ---- ---- ------- ----- ---- -------<br>--- --- -- ----- -- --- ---- -- --- even -- ------ ------<br>--- ----- -- ----,137496.30000000075,137495.30000000075,137039.859,137049.6000000015,137056.248,137507.649,,48,even
screen,html.Screen,2_1_0_1_49,2022-02-03T14:28:53.923Z,,,,,,,,,,,,,,,,,53,,,,,,,,,,,,,,483.65100000074017,,response,,,,99,,,,,,,Space,keypress(Space),,,,,,,,---- -- ----- -- ------ - ------- --- ----------<br>------------- ------ ------ ---- ---- ------- ----- -- ----<br>-------- ------- -- ---------- --- - --- ----- ----- ----<br>---- --- --- ----- --- ---- ---- ------- ----- ---- -------<br>--- --- -- ----- -- --- ---- -- --- ---- if ------ ------<br>--- ----- -- ----,137992.30000000075,137991.30000000075,137491.172,137496.40000000224,137507.649,138009.39,,49,if
screen,html.Screen,2_1_0_1_50,2022-02-03T14:28:54.435Z,,,,,,,,,,,,,,,,,53,,,,,,,,,,,,,,493.4100000007311,,response,,,,99,,,,,,,Space,keypress(Space),,,,,,,,---- -- ----- -- ------ - ------- --- ----------<br>------------- ------ ------ ---- ---- ------- ----- -- ----<br>-------- ------- -- ---------- --- - --- ----- ----- ----<br>---- --- --- ----- --- ---- ---- ------- ----- ---- -------<br>--- --- -- ----- -- --- ---- -- --- ---- -- that's ------<br>--- ----- -- ----,138503.80000000075,138502.80000000075,137992.521,137992.5,138009.39,138510.567,,50,that's
screen,html.Screen,2_1_0_1_51,2022-02-03T14:28:54.803Z,,,,,,,,,,,,,,,,,53,,,,,,,,,,,,,,360.6330000029702,,response,,,,99,,,,,,,Space,keypress(Space),,,,,,,,---- -- ----- -- ------ - ------- --- ----------<br>------------- ------ ------ ---- ---- ------- ----- -- ----<br>-------- ------- -- ---------- --- - --- ----- ----- ----<br>---- --- --- ----- --- ---- ---- ------- ----- ---- -------<br>--- --- -- ----- -- --- ---- -- --- ---- -- ------ really<br>--- ----- -- ----,138872.20000000298,138871.20000000298,138494.158,138503.90000000224,138510.567,138878.317,,51,really
screen,html.Screen,2_1_0_1_52,2022-02-03T14:28:55.259Z,,,,,,,,,,,,,,,,,53,,,,,,,,,,,,,,448.8830000029702,,response,,,,99,,,,,,,Space,keypress(Space),,,,,,,,---- -- ----- -- ------ - ------- --- ----------<br>------------- ------ ------ ---- ---- ------- ----- -- ----<br>-------- ------- -- ---------- --- - --- ----- ----- ----<br>---- --- --- ----- --- ---- ---- ------- ----- ---- -------<br>--- --- -- ----- -- --- ---- -- --- ---- -- ------ ------<br>not ----- -- ----,139328.30000000075,139327.20000000298,138861.958,138872.40000000224,138878.317,139352.845,,52,not
screen,html.Screen,2_1_0_1_53,2022-02-03T14:28:55.659Z,,,,,,,,,,,,,,,,,53,,,,,,,,,,,,,,374.4550000007439,,response,,,,99,,,,,,,Space,keypress(Space),,,,,,,,---- -- ----- -- ------ - ------- --- ----------<br>------------- ------ ------ ---- ---- ------- ----- -- ----<br>-------- ------- -- ---------- --- - --- ----- ----- ----<br>---- --- --- ----- --- ---- ---- ------- ----- ---- -------<br>--- --- -- ----- -- --- ---- -- --- ---- -- ------ ------<br>--- close -- ----,139728.20000000298,139727.30000000075,139313.28,139328.40000000224,139352.845,139730.873,,53,close
screen,html.Screen,2_1_0_1_54,2022-02-03T14:28:56.043Z,,,,,,,,,,,,,,,,,53,,,,,,,,,,,,,,380.3270000029879,,response,,,,99,,,,,,,Space,keypress(Space),,,,,,,,---- -- ----- -- ------ - ------- --- ----------<br>------------- ------ ------ ---- ---- ------- ----- -- ----<br>-------- ------- -- ---------- --- - --- ----- ----- ----<br>---- --- --- ----- --- ---- ---- ------- ----- ---- -------<br>--- --- -- ----- -- --- ---- -- --- ---- -- ------ ------<br>--- ----- at ----,140112.20000000298,140111.20000000298,139714.173,139728.40000000224,139730.873,140115.305,,54,at
screen,html.Screen,2_1_0_1_55,2022-02-03T14:28:56.651Z,,,,,,,,,,,,,,,,,53,,,,,,,,,,,,,,603.8950000029872,,response,,,,99,,,,,,,Space,keypress(Space),,,,,,,,---- -- ----- -- ------ - ------- --- ----------<br>------------- ------ ------ ---- ---- ------- ----- -- ----<br>-------- ------- -- ---------- --- - --- ----- ----- ----<br>---- --- --- ----- --- ---- ---- ------- ----- ---- -------<br>--- --- -- ----- -- --- ---- -- --- ---- -- ------ ------<br>--- ----- -- all.,140720.20000000298,140719.20000000298,140098.928,140112.30000000075,140115.305,140733.849,,55,all.
Item 99,flow.Loop,2_1_0_1,2022-02-03T14:28:56.651Z,,,,,,,,,,,,,,,,,,,,,,,,,,,,,,,30425.714000002976,,completion,,,,,A,,,,,,,,,,,silence,,,,,140720.6000000015,140719.20000000298,110276.694,110277.80000000075,110293.486,140733.849,,,
Question 1,html.Screen,2_1_0_2,2022-02-03T14:29:00.907Z,,,,,,,,,,,,,,,,,,,,,,,,,,,,false,FALSE,,4240.851000002993,,response,,,,99,A,,,,,,TRUE,click #choice-1,,,,silence,,,,,144976.30000000075,144974.70000000298,140717.425,140720.6000000015,140733.849,144979.772,,,
Question 2,html.Screen,2_1_0_3,2022-02-03T14:29:08.819Z,,,,,,,,,,,,,,,,,,,,,,,,,,,,true,TRUE,,7906.828000001493,,response,,,,99,A,,,,,,TRUE,click #choice-1,,,,silence,,,,,152888.30000000075,152886.6000000015,144963.429,144976.40000000224,144979.772,152903.442,,,
Item 99,flow.Sequence,2_1_0,2022-02-03T14:29:08.819Z,,,,,,,,,,,,,,,,,,,,,,,,,,,,,,,52589.66900000149,,completion,,,,,,,,,,,,,,,,,,,,,152888.5,152886.6000000015,100280.279,100291.70000000298,100296.931,152903.442,,,
Holding screen,html.Screen,2_1_1_0,2022-02-03T14:29:18.815Z,,,,,,,,,,,,,,,,,,,,,,,,,,,,,,,9996.542999999976,,timeout,,,,,,,,,,,,,,,,,,,,,162883.90000000224,162883.078,152887.104,152889.6000000015,152903.442,162899.985,,,
screen,html.Screen,2_1_1_1_0,2022-02-03T14:29:19.515Z,,,,,,,,,,,,,,,,,54,,,,,,,,,,,,,,683.515000000014,,response,,,,100,,,,,,,Space,keypress(Space),,,,,,,,At --- ---- --- ------ ----- ------- ---- -- --- ------- --<br>------- ---------- ------ -- ----- -- ----- -- ---- ------<br>--- ----- --- --- ------ -------- ----- --- ------ ----- --<br>----- ----- ---------- --- --- ------ ------ ---- -- ------<br>------- --- ------ ----- --- ---- ------- -- ---- --- --<br>------- ------,163584.70000000298,163583.5,162883.078,162884.1000000015,162899.985,163585.104,,0,At
screen,html.Screen,2_1_1_1_1,2022-02-03T14:29:20.019Z,,,,,,,,,,,,,,,,,54,,,,,,,,,,,,,,501.99600000149803,,response,,,,100,,,,,,,Space,keypress(Space),,,,,,,,-- the ---- --- ------ ----- ------- ---- -- --- ------- --<br>------- ---------- ------ -- ----- -- ----- -- ---- ------<br>--- ----- --- --- ------ -------- ----- --- ------ ----- --<br>----- ----- ---------- --- --- ------ ------ ---- -- ------<br>------- --- ------ ----- --- ---- ------- -- ---- --- --<br>------- ------,164088.1000000015,164087.1000000015,163568.47,163584.90000000224,163585.104,164103.335,,1,the
screen,html.Screen,2_1_1_1_2,2022-02-03T14:29:20.619Z,,,,,,,,,,,,,,,,,54,,,,,,,,,,,,,,583.4650000007532,,response,,,,100,,,,,,,Space,keypress(Space),,,,,,,,-- --- time --- ------ ----- ------- ---- -- --- ------- --<br>------- ---------- ------ -- ----- -- ----- -- ---- ------<br>--- ----- --- --- ------ -------- ----- --- ------ ----- --<br>----- ----- ---------- --- --- ------ ------ ---- -- ------<br>------- --- ------ ----- --- ---- ------- -- ---- --- --<br>------- ------,164687.80000000075,164686.80000000075,164086.882,164088.40000000224,164103.335,164705.387,,2,time
screen,html.Screen,2_1_1_1_3,2022-02-03T14:29:21.507Z,,,,,,,,,,,,,,,,,54,,,,,,,,,,,,,,869.6130000000121,,response,,,,100,,,,,,,Space,keypress(Space),,,,,,,,-- --- ---- the ------ ----- ------- ---- -- --- ------- --<br>------- ---------- ------ -- ----- -- ----- -- ---- ------<br>--- ----- --- --- ------ -------- ----- --- ------ ----- --<br>----- ----- ---------- --- --- ------ ------ ---- -- ------<br>------- --- ------ ----- --- ---- ------- -- ---- --- --<br>------- ------,165576,165575,164671.938,164688,164705.387,165591.363,,3,the
screen,html.Screen,2_1_1_1_4,2022-02-03T14:29:21.907Z,,,,,,,,,,,,,,,,,54,,,,,,,,,,,,,,383.737000001478,,response,,,,100,,,,,,,Space,keypress(Space),,,,,,,,-- --- ---- --- French ----- ------- ---- -- --- ------- --<br>------- ---------- ------ -- ----- -- ----- -- ---- ------<br>--- ----- --- --- ------ -------- ----- --- ------ ----- --<br>----- ----- ---------- --- --- ------ ------ ---- -- ------<br>------- --- ------ ----- --- ---- ------- -- ---- --- --<br>------- ------,165976.1000000015,165975.1000000015,165574.657,165576.1000000015,165591.363,165992.919,,4,French
screen,html.Screen,2_1_1_1_5,2022-02-03T14:29:22.242Z,,,,,,,,,,,,,,,,,54,,,,,,,,,,,,,,317.6810000014957,,response,,,,100,,,,,,,Space,keypress(Space),,,,,,,,-- --- ---- --- ------ crown ------- ---- -- --- ------- --<br>------- ---------- ------ -- ----- -- ----- -- ---- ------<br>--- ----- --- --- ------ -------- ----- --- ------ ----- --<br>----- ----- ---------- --- --- ------ ------ ---- -- ------<br>------- --- ------ ----- --- ---- ------- -- ---- --- --<br>------- ------,166311.5,166310.6000000015,165976.094,165976.20000000298,165992.919,166326.978,,5,crown
screen,html.Screen,2_1_1_1_6,2022-02-03T14:29:22.762Z,,,,,,,,,,,,,,,,,54,,,,,,,,,,,,,,503.6220000014873,,response,,,,100,,,,,,,Space,keypress(Space),,,,,,,,-- --- ---- --- ------ ----- secured ---- -- --- ------- --<br>------- ---------- ------ -- ----- -- ----- -- ---- ------<br>--- ----- --- --- ------ -------- ----- --- ------ ----- --<br>----- ----- ---------- --- --- ------ ------ ---- -- ------<br>------- --- ------ ----- --- ---- ------- -- ---- --- --<br>------- ------,166831.70000000298,166830.6000000015,166309.887,166311.70000000298,166326.978,166844.803,,6,secured
screen,html.Screen,2_1_1_1_7,2022-02-03T14:29:23.307Z,,,,,,,,,,,,,,,,,54,,,,,,,,,,,,,,530.4970000007306,,response,,,,100,,,,,,,Space,keypress(Space),,,,,,,,-- --- ---- --- ------ ----- ------- much -- --- ------- --<br>------- ---------- ------ -- ----- -- ----- -- ---- ------<br>--- ----- --- --- ------ -------- ----- --- ------ ----- --<br>----- ----- ---------- --- --- ------ ------ ---- -- ------<br>------- --- ------ ----- --- ---- ------- -- ---- --- --<br>------- ------,167376.40000000224,167375.30000000075,166828.414,166831.80000000075,166844.803,167379.969,,7,much
screen,html.Screen,2_1_1_1_8,2022-02-03T14:29:23.755Z,,,,,,,,,,,,,,,,,54,,,,,,,,,,,,,,442.8310000007332,,response,,,,100,,,,,,,Space,keypress(Space),,,,,,,,-- --- ---- --- ------ ----- ------- ---- of --- ------- --<br>------- ---------- ------ -- ----- -- ----- -- ---- ------<br>--- ----- --- --- ------ -------- ----- --- ------ ----- --<br>----- ----- ---------- --- --- ------ ------ ---- -- ------<br>------- --- ------ ----- --- ---- ------- -- ---- --- --<br>------- ------,167823.80000000075,167822.80000000075,167363.271,167376.5,167379.969,167831.084,,8,of
screen,html.Screen,2_1_1_1_9,2022-02-03T14:29:24.131Z,,,,,,,,,,,,,,,,,54,,,,,,,,,,,,,,368.3160000022326,,response,,,,100,,,,,,,Space,keypress(Space),,,,,,,,-- --- ---- --- ------ ----- ------- ---- -- its ------- --<br>------- ---------- ------ -- ----- -- ----- -- ---- ------<br>--- ----- --- --- ------ -------- ----- --- ------ ----- --<br>----- ----- ---------- --- --- ------ ------ ---- -- ------<br>------- --- ------ ----- --- ---- ------- -- ---- --- --<br>------- ------,168200.5,168199.40000000224,167814.446,167823.90000000224,167831.084,168215.809,,9,its
screen,html.Screen,2_1_1_1_10,2022-02-03T14:29:24.483Z,,,,,,,,,,,,,,,,,54,,,,,,,,,,,,,,335.29100000148173,,response,,,,100,,,,,,,Space,keypress(Space),,,,,,,,-- --- ---- --- ------ ----- ------- ---- -- --- revenue --<br>------- ---------- ------ -- ----- -- ----- -- ---- ------<br>--- ----- --- --- ------ -------- ----- --- ------ ----- --<br>----- ----- ---------- --- --- ------ ------ ---- -- ------<br>------- --- ------ ----- --- ---- ------- -- ---- --- --<br>------- ------,168552.1000000015,168551.1000000015,168198.846,168200.6000000015,168215.809,168566.882,,10,revenue
screen,html.Screen,2_1_1_1_11,2022-02-03T14:29:24.874Z,,,,,,,,,,,,,,,,,54,,,,,,,,,,,,,,375.61799999998766,,response,,,,100,,,,,,,Space,keypress(Space),,,,,,,,-- --- ---- --- ------ ----- ------- ---- -- --- ------- by<br>------- ---------- ------ -- ----- -- ----- -- ---- ------<br>--- ----- --- --- ------ -------- ----- --- ------ ----- --<br>----- ----- ---------- --- --- ------ ------ ---- -- ------<br>------- --- ------ ----- --- ---- ------- -- ---- --- --<br>------- ------,168943.6000000015,168942.5,168549.996,168552.30000000075,168566.882,168951.03,,11,by
screen,html.Screen,2_1_1_1_12,2022-02-03T14:29:25.315Z,,,,,,,,,,,,,,,,,54,,,,,,,,,,,,,,432.1700000029814,,response,,,,100,,,,,,,Space,keypress(Space),,,,,,,,-- --- ---- --- ------ ----- ------- ---- -- --- ------- --<br>issuing ---------- ------ -- ----- -- ----- -- ---- ------<br>--- ----- --- --- ------ -------- ----- --- ------ ----- --<br>----- ----- ---------- --- --- ------ ------ ---- -- ------<br>------- --- ------ ----- --- ---- ------- -- ---- --- --<br>------- ------,169384.40000000224,169383.20000000298,168934.615,168943.70000000298,168951.03,169415.185,,12,issuing
screen,html.Screen,2_1_1_1_13,2022-02-03T14:29:26.643Z,,,,,,,,,,,,,,,,,54,,,,,,,,,,,,,,1295.5150000029826,,response,,,,100,,,,,,,Space,keypress(Space),,,,,,,,-- --- ---- --- ------ ----- ------- ---- -- --- ------- --<br>------- government ------ -- ----- -- ----- -- ---- ------<br>--- ----- --- --- ------ -------- ----- --- ------ ----- --<br>----- ----- ---------- --- --- ------ ------ ---- -- ------<br>------- --- ------ ----- --- ---- ------- -- ---- --- --<br>------- ------,170711.90000000224,170710.70000000298,169368.965,169384.5,169415.185,170722.971,,13,government
screen,html.Screen,2_1_1_1_14,2022-02-03T14:29:27.067Z,,,,,,,,,,,,,,,,,54,,,,,,,,,,,,,,412.3290000007546,,response,,,,100,,,,,,,Space,keypress(Space),,,,,,,,-- --- ---- --- ------ ----- ------- ---- -- --- ------- --<br>------- ---------- bonds. -- ----- -- ----- -- ---- ------<br>--- ----- --- --- ------ -------- ----- --- ------ ----- --<br>----- ----- ---------- --- --- ------ ------ ---- -- ------<br>------- --- ------ ----- --- ---- ------- -- ---- --- --<br>------- ------,171136.40000000224,171135.30000000075,170706.276,170712,170722.971,171141.158,,14,bonds.
screen,html.Screen,2_1_1_1_15,2022-02-03T14:29:27.651Z,,,,,,,,,,,,,,,,,54,,,,,,,,,,,,,,577.9420000014943,,response,,,,100,,,,,,,Space,keypress(Space),,,,,,,,-- --- ---- --- ------ ----- ------- ---- -- --- ------- --<br>------- ---------- ------ In ----- -- ----- -- ---- ------<br>--- ----- --- --- ------ -------- ----- --- ------ ----- --<br>----- ----- ---------- --- --- ------ ------ ---- -- ------<br>------- --- ------ ----- --- ---- ------- -- ---- --- --<br>------- ------,171720.20000000298,171719.1000000015,171124.447,171136.6000000015,171141.158,171726.944,,15,In
screen,html.Screen,2_1_1_1_16,2022-02-03T14:29:28.083Z,,,,,,,,,,,,,,,,,54,,,,,,,,,,,,,,424.25600000299164,,response,,,,100,,,,,,,Space,keypress(Space),,,,,,,,"-- --- ---- --- ------ ----- ------- ---- -- --- ------- --<br>------- ---------- ------ -- 1727, -- ----- -- ---- ------<br>--- ----- --- --- ------ -------- ----- --- ------ ----- --<br>----- ----- ---------- --- --- ------ ------ ---- -- ------<br>------- --- ------ ----- --- ---- ------- -- ---- --- --<br>------- ------",172152.20000000298,172151.20000000298,171709.603,171720.30000000075,171726.944,172160.633,,16,"1727,"
screen,html.Screen,2_1_1_1_17,2022-02-03T14:29:29.467Z,,,,,,,,,,,,,,,,,54,,,,,,,,,,,,,,1374.2670000022335,,response,,,,100,,,,,,,Space,keypress(Space),,,,,,,,-- --- ---- --- ------ ----- ------- ---- -- --- ------- --<br>------- ---------- ------ -- ----- in ----- -- ---- ------<br>--- ----- --- --- ------ -------- ----- --- ------ ----- --<br>----- ----- ---------- --- --- ------ ------ ---- -- ------<br>------- --- ------ ----- --- ---- ------- -- ---- --- --<br>------- ------,173535.90000000224,173534.90000000224,172144.205,172152.40000000224,172160.633,173548.205,,17,in
screen,html.Screen,2_1_1_1_18,2022-02-03T14:29:29.923Z,,,,,,,,,,,,,,,,,54,,,,,,,,,,,,,,443.195000002248,,response,,,,100,,,,,,,Space,keypress(Space),,,,,,,,-- --- ---- --- ------ ----- ------- ---- -- --- ------- --<br>------- ---------- ------ -- ----- -- order -- ---- ------<br>--- ----- --- --- ------ -------- ----- --- ------ ----- --<br>----- ----- ---------- --- --- ------ ------ ---- -- ------<br>------- --- ------ ----- --- ---- ------- -- ---- --- --<br>------- ------,173992.40000000224,173991.40000000224,173531.455,173536.1000000015,173548.205,173999.465,,18,order
screen,html.Screen,2_1_1_1_19,2022-02-03T14:29:30.299Z,,,,,,,,,,,,,,,,,54,,,,,,,,,,,,,,367.5350000000035,,response,,,,100,,,,,,,Space,keypress(Space),,,,,,,,-- --- ---- --- ------ ----- ------- ---- -- --- ------- --<br>------- ---------- ------ -- ----- -- ----- to ---- ------<br>--- ----- --- --- ------ -------- ----- --- ------ ----- --<br>----- ----- ---------- --- --- ------ ------ ---- -- ------<br>------- --- ------ ----- --- ---- ------- -- ---- --- --<br>------- ------,174368.20000000298,174367,173982.712,173992.6000000015,173999.465,174383.878,,19,to
screen,html.Screen,2_1_1_1_20,2022-02-03T14:29:30.763Z,,,,,,,,,,,,,,,,,54,,,,,,,,,,,,,,447.22200000149314,,response,,,,100,,,,,,,Space,keypress(Space),,,,,,,,-- --- ---- --- ------ ----- ------- ---- -- --- ------- --<br>------- ---------- ------ -- ----- -- ----- -- save ------<br>--- ----- --- --- ------ -------- ----- --- ------ ----- --<br>----- ----- ---------- --- --- ------ ------ ---- -- ------<br>------- --- ------ ----- --- ---- ------- -- ---- --- --<br>------- ------,174832.30000000075,174831.1000000015,174367.425,174368.30000000075,174383.878,174835.225,,20,save
screen,html.Screen,2_1_1_1_21,2022-02-03T14:29:31.299Z,,,,,,,,,,,,,,,,,54,,,,,,,,,,,,,,531.8750000014843,,response,,,,100,,,,,,,Space,keypress(Space),,,,,,,,"-- --- ---- --- ------ ----- ------- ---- -- --- ------- --<br>------- ---------- ------ -- ----- -- ----- -- ---- money,<br>--- ----- --- --- ------ -------- ----- --- ------ ----- --<br>----- ----- ---------- --- --- ------ ------ ---- -- ------<br>------- --- ------ ----- --- ---- ------- -- ---- --- --<br>------- ------",175368.30000000075,175367.1000000015,174818.517,174832.5,174835.225,175370.154,,21,"money,"
screen,html.Screen,2_1_1_1_22,2022-02-03T14:29:32.803Z,,,,,,,,,,,,,,,,,54,,,,,,,,,,,,,,1500.9460000014806,,response,,,,100,,,,,,,Space,keypress(Space),,,,,,,,-- --- ---- --- ------ ----- ------- ---- -- --- ------- --<br>------- ---------- ------ -- ----- -- ----- -- ---- ------<br>the ----- --- --- ------ -------- ----- --- ------ ----- --<br>----- ----- ---------- --- --- ------ ------ ---- -- ------<br>------- --- ------ ----- --- ---- ------- -- ---- --- --<br>------- ------,176872.20000000298,176871.1000000015,175354.004,175368.40000000224,175370.154,176874.6,,22,the
screen,html.Screen,2_1_1_1_23,2022-02-03T14:29:33.259Z,,,,,,,,,,,,,,,,,54,,,,,,,,,,,,,,452.6000000029744,,response,,,,100,,,,,,,Space,keypress(Space),,,,,,,,-- --- ---- --- ------ ----- ------- ---- -- --- ------- --<br>------- ---------- ------ -- ----- -- ----- -- ---- ------<br>--- state --- --- ------ -------- ----- --- ------ ----- --<br>----- ----- ---------- --- --- ------ ------ ---- -- ------<br>------- --- ------ ----- --- ---- ------- -- ---- --- --<br>------- ------,177328.30000000075,177327.20000000298,176857.981,176872.30000000075,176874.6,177343.022,,23,state
screen,html.Screen,2_1_1_1_24,2022-02-03T14:29:33.899Z,,,,,,,,,,,,,,,,,54,,,,,,,,,,,,,,624.178000002983,,response,,,,100,,,,,,,Space,keypress(Space),,,,,,,,-- --- ---- --- ------ ----- ------- ---- -- --- ------- --<br>------- ---------- ------ -- ----- -- ----- -- ---- ------<br>--- ----- cut --- ------ -------- ----- --- ------ ----- --<br>----- ----- ---------- --- --- ------ ------ ---- -- ------<br>------- --- ------ ----- --- ---- ------- -- ---- --- --<br>------- ------,177968.20000000298,177967.20000000298,177326.277,177328.30000000075,177343.022,177978.283,,24,cut
screen,html.Screen,2_1_1_1_25,2022-02-03T14:29:34.387Z,,,,,,,,,,,,,,,,,54,,,,,,,,,,,,,,476.9170000029844,,response,,,,100,,,,,,,Space,keypress(Space),,,,,,,,-- --- ---- --- ------ ----- ------- ---- -- --- ------- --<br>------- ---------- ------ -- ----- -- ----- -- ---- ------<br>--- ----- --- the ------ -------- ----- --- ------ ----- --<br>----- ----- ---------- --- --- ------ ------ ---- -- ------<br>------- --- ------ ----- --- ---- ------- -- ---- --- --<br>------- ------,178456.20000000298,178455.20000000298,177961.45,177968.40000000224,177978.283,178462.73,,25,the
screen,html.Screen,2_1_1_1_26,2022-02-03T14:29:34.859Z,,,,,,,,,,,,,,,,,54,,,,,,,,,,,,,,464.47000000296975,,response,,,,100,,,,,,,Space,keypress(Space),,,,,,,,-- --- ---- --- ------ ----- ------- ---- -- --- ------- --<br>------- ---------- ------ -- ----- -- ----- -- ---- ------<br>--- ----- --- --- bonds' -------- ----- --- ------ ----- --<br>----- ----- ---------- --- --- ------ ------ ---- -- ------<br>------- --- ------ ----- --- ---- ------- -- ---- --- --<br>------- ------,178928.20000000298,178927.20000000298,178446.292,178456.30000000075,178462.73,178930.725,,26,bonds'
screen,html.Screen,2_1_1_1_27,2022-02-03T14:29:36.251Z,,,,,,,,,,,,,,,,,54,,,,,,,,,,,,,,1388.3750000014843,,response,,,,100,,,,,,,Space,keypress(Space),,,,,,,,-- --- ---- --- ------ ----- ------- ---- -- --- ------- --<br>------- ---------- ------ -- ----- -- ----- -- ---- ------<br>--- ----- --- --- ------ interest ----- --- ------ ----- --<br>----- ----- ---------- --- --- ------ ------ ---- -- ------<br>------- --- ------ ----- --- ---- ------- -- ---- --- --<br>------- ------,180320.1000000015,180319.1000000015,178914.356,178928.30000000075,178930.725,180335.284,,27,interest
screen,html.Screen,2_1_1_1_28,2022-02-03T14:29:38.739Z,,,,,,,,,,,,,,,,,54,,,,,,,,,,,,,,2471.916000002966,,response,,,,100,,,,,,,Space,keypress(Space),,,,,,,,-- --- ---- --- ------ ----- ------- ---- -- --- ------- --<br>------- ---------- ------ -- ----- -- ----- -- ---- ------<br>--- ----- --- --- ------ -------- rate. --- ------ ----- --<br>----- ----- ---------- --- --- ------ ------ ---- -- ------<br>------- --- ------ ----- --- ---- ------- -- ---- --- --<br>------- ------,182808.20000000298,182807.20000000298,180318.518,180320.20000000298,180335.284,182832.736,,28,rate.
screen,html.Screen,2_1_1_1_29,2022-02-03T14:29:39.387Z,,,,,,,,,,,,,,,,,54,,,,,,,,,,,,,,622.2639999999956,,response,,,,100,,,,,,,Space,keypress(Space),,,,,,,,-- --- ---- --- ------ ----- ------- ---- -- --- ------- --<br>------- ---------- ------ -- ----- -- ----- -- ---- ------<br>--- ----- --- --- ------ -------- ----- The ------ ----- --<br>----- ----- ---------- --- --- ------ ------ ---- -- ------<br>------- --- ------ ----- --- ---- ------- -- ---- --- --<br>------- ------,183456.1000000015,183455,182792.48,182808.30000000075,182832.736,183460.983,,29,The
screen,html.Screen,2_1_1_1_30,2022-02-03T14:29:40.171Z,,,,,,,,,,,,,,,,,54,,,,,,,,,,,,,,778.5169999999925,,response,,,,100,,,,,,,Space,keypress(Space),,,,,,,,-- --- ---- --- ------ ----- ------- ---- -- --- ------- --<br>------- ---------- ------ -- ----- -- ----- -- ---- ------<br>--- ----- --- --- ------ -------- ----- --- market ----- --<br>----- ----- ---------- --- --- ------ ------ ---- -- ------<br>------- --- ------ ----- --- ---- ------- -- ---- --- --<br>------- ------,184240.40000000224,184239.5,183444.46,183456.20000000298,183460.983,184246.594,,30,market
screen,html.Screen,2_1_1_1_31,2022-02-03T14:29:41.051Z,,,,,,,,,,,,,,,,,54,,,,,,,,,,,,,,872.5060000014782,,response,,,,100,,,,,,,Space,keypress(Space),,,,,,,,-- --- ---- --- ------ ----- ------- ---- -- --- ------- --<br>------- ---------- ------ -- ----- -- ----- -- ---- ------<br>--- ----- --- --- ------ -------- ----- --- ------ value --<br>----- ----- ---------- --- --- ------ ------ ---- -- ------<br>------- --- ------ ----- --- ---- ------- -- ---- --- --<br>------- ------,185120.1000000015,185119.1000000015,184230.225,184240.6000000015,184246.594,185132.803,,31,value
screen,html.Screen,2_1_1_1_32,2022-02-03T14:29:41.619Z,,,,,,,,,,,,,,,,,54,,,,,,,,,,,,,,553.6969999999856,,response,,,,100,,,,,,,Space,keypress(Space),,,,,,,,-- --- ---- --- ------ ----- ------- ---- -- --- ------- --<br>------- ---------- ------ -- ----- -- ----- -- ---- ------<br>--- ----- --- --- ------ -------- ----- --- ------ ----- of<br>----- ----- ---------- --- --- ------ ------ ---- -- ------<br>------- --- ------ ----- --- ---- ------- -- ---- --- --<br>------- ------,185687.6000000015,185686.5,185116.094,185120.20000000298,185132.803,185700.837,,32,of
screen,html.Screen,2_1_1_1_33,2022-02-03T14:29:42.050Z,,,,,,,,,,,,,,,,,54,,,,,,,,,,,,,,417.66300000000047,,response,,,,100,,,,,,,Space,keypress(Space),,,,,,,,-- --- ---- --- ------ ----- ------- ---- -- --- ------- --<br>------- ---------- ------ -- ----- -- ----- -- ---- ------<br>--- ----- --- --- ------ -------- ----- --- ------ ----- --<br>these ----- ---------- --- --- ------ ------ ---- -- ------<br>------- --- ------ ----- --- ---- ------- -- ---- --- --<br>------- ------,186119.40000000224,186118.5,185684.498,185687.70000000298,185700.837,186135.454,,33,these
screen,html.Screen,2_1_1_1_34,2022-02-03T14:29:42.531Z,,,,,,,,,,,,,,,,,54,,,,,,,,,,,,,,463.6460000014922,,response,,,,100,,,,,,,Space,keypress(Space),,,,,,,,-- --- ---- --- ------ ----- ------- ---- -- --- ------- --<br>------- ---------- ------ -- ----- -- ----- -- ---- ------<br>--- ----- --- --- ------ -------- ----- --- ------ ----- --<br>----- bonds ---------- --- --- ------ ------ ---- -- ------<br>------- --- ------ ----- --- ---- ------- -- ---- --- --<br>------- ------,186600.1000000015,186599.1000000015,186118.749,186119.5,186135.454,186603.576,,34,bonds
screen,html.Screen,2_1_1_1_35,2022-02-03T14:29:43.171Z,,,,,,,,,,,,,,,,,54,,,,,,,,,,,,,,635.5240000014892,,response,,,,100,,,,,,,Space,keypress(Space),,,,,,,,"-- --- ---- --- ------ ----- ------- ---- -- --- ------- --<br>------- ---------- ------ -- ----- -- ----- -- ---- ------<br>--- ----- --- --- ------ -------- ----- --- ------ ----- --<br>----- ----- plummeted, --- --- ------ ------ ---- -- ------<br>------- --- ------ ----- --- ---- ------- -- ---- --- --<br>------- ------",187240.1000000015,187239.1000000015,186586.817,186600.30000000075,186603.576,187255.786,,35,"plummeted,"
screen,html.Screen,2_1_1_1_36,2022-02-03T14:29:43.923Z,,,,,,,,,,,,,,,,,54,,,,,,,,,,,,,,735.4140000029874,,response,,,,100,,,,,,,Space,keypress(Space),,,,,,,,-- --- ---- --- ------ ----- ------- ---- -- --- ------- --<br>------- ---------- ------ -- ----- -- ----- -- ---- ------<br>--- ----- --- --- ------ -------- ----- --- ------ ----- --<br>----- ----- ---------- and --- ------ ------ ---- -- ------<br>------- --- ------ ----- --- ---- ------- -- ---- --- --<br>------- ------,187992.20000000298,187991.20000000298,187239.077,187240.20000000298,187255.786,188008.388,,36,and
screen,html.Screen,2_1_1_1_37,2022-02-03T14:29:44.419Z,,,,,,,,,,,,,,,,,54,,,,,,,,,,,,,,478.81200000297395,,response,,,,100,,,,,,,Space,keypress(Space),,,,,,,,-- --- ---- --- ------ ----- ------- ---- -- --- ------- --<br>------- ---------- ------ -- ----- -- ----- -- ---- ------<br>--- ----- --- --- ------ -------- ----- --- ------ ----- --<br>----- ----- ---------- --- the ------ ------ ---- -- ------<br>------- --- ------ ----- --- ---- ------- -- ---- --- --<br>------- ------,188488.20000000298,188487.20000000298,187991.273,187992.40000000224,188008.388,188492.603,,37,the
screen,html.Screen,2_1_1_1_38,2022-02-03T14:29:45.179Z,,,,,,,,,,,,,,,,,54,,,,,,,,,,,,,,754.3969999999972,,response,,,,100,,,,,,,Space,keypress(Space),,,,,,,,-- --- ---- --- ------ ----- ------- ---- -- --- ------- --<br>------- ---------- ------ -- ----- -- ----- -- ---- ------<br>--- ----- --- --- ------ -------- ----- --- ------ ----- --<br>----- ----- ---------- --- --- market ------ ---- -- ------<br>------- --- ------ ----- --- ---- ------- -- ---- --- --<br>------- ------,189248.1000000015,189247,188475.795,188488.30000000075,188492.603,189261.527,,38,market
screen,html.Screen,2_1_1_1_39,2022-02-03T14:29:45.891Z,,,,,,,,,,,,,,,,,54,,,,,,,,,,,,,,697.6730000029784,,response,,,,100,,,,,,,Space,keypress(Space),,,,,,,,-- --- ---- --- ------ ----- ------- ---- -- --- ------- --<br>------- ---------- ------ -- ----- -- ----- -- ---- ------<br>--- ----- --- --- ------ -------- ----- --- ------ ----- --<br>----- ----- ---------- --- --- ------ became ---- -- ------<br>------- --- ------ ----- --- ---- ------- -- ---- --- --<br>------- ------,189960.20000000298,189959.20000000298,189244.903,189248.20000000298,189261.527,189963.518,,39,became
screen,html.Screen,2_1_1_1_40,2022-02-03T14:29:46.451Z,,,,,,,,,,,,,,,,,54,,,,,,,,,,,,,,555.5820000014792,,response,,,,100,,,,,,,Space,keypress(Space),,,,,,,,-- --- ---- --- ------ ----- ------- ---- -- --- ------- --<br>------- ---------- ------ -- ----- -- ----- -- ---- ------<br>--- ----- --- --- ------ -------- ----- --- ------ ----- --<br>----- ----- ---------- --- --- ------ ------ wary -- ------<br>------- --- ------ ----- --- ---- ------- -- ---- --- --<br>------- ------,190520.20000000298,190519.1000000015,189946.99,189960.30000000075,189963.518,190532.248,,40,wary
screen,html.Screen,2_1_1_1_41,2022-02-03T14:29:46.931Z,,,,,,,,,,,,,,,,,54,,,,,,,,,,,,,,466.65200000224286,,response,,,,100,,,,,,,Space,keypress(Space),,,,,,,,-- --- ---- --- ------ ----- ------- ---- -- --- ------- --<br>------- ---------- ------ -- ----- -- ----- -- ---- ------<br>--- ----- --- --- ------ -------- ----- --- ------ ----- --<br>----- ----- ---------- --- --- ------ ------ ---- of ------<br>------- --- ------ ----- --- ---- ------- -- ---- --- --<br>------- ------,190999.90000000224,190998.90000000224,190515.516,190520.30000000075,190532.248,191016.997,,41,of
screen,html.Screen,2_1_1_1_42,2022-02-03T14:29:47.603Z,,,,,,,,,,,,,,,,,54,,,,,,,,,,,,,,654.1030000014871,,response,,,,100,,,,,,,Space,keypress(Space),,,,,,,,-- --- ---- --- ------ ----- ------- ---- -- --- ------- --<br>------- ---------- ------ -- ----- -- ----- -- ---- ------<br>--- ----- --- --- ------ -------- ----- --- ------ ----- --<br>----- ----- ---------- --- --- ------ ------ ---- -- French<br>------- --- ------ ----- --- ---- ------- -- ---- --- --<br>------- ------,191672.20000000298,191671.1000000015,191000.22,191000,191016.997,191685.661,,42,French
screen,html.Screen,2_1_1_1_43,2022-02-03T14:29:48.683Z,,,,,,,,,,,,,,,,,54,,,,,,,,,,,,,,1065.4390000014973,,response,,,,100,,,,,,,Space,keypress(Space),,,,,,,,-- --- ---- --- ------ ----- ------- ---- -- --- ------- --<br>------- ---------- ------ -- ----- -- ----- -- ---- ------<br>--- ----- --- --- ------ -------- ----- --- ------ ----- --<br>----- ----- ---------- --- --- ------ ------ ---- -- ------<br>credit. --- ------ ----- --- ---- ------- -- ---- --- --<br>------- ------,192752.1000000015,192751.1000000015,191668.869,191672.40000000224,191685.661,192755.144,,43,credit.
screen,html.Screen,2_1_1_1_44,2022-02-03T14:29:49.267Z,,,,,,,,,,,,,,,,,54,,,,,,,,,,,,,,579.7560000022349,,response,,,,100,,,,,,,Space,keypress(Space),,,,,,,,-- --- ---- --- ------ ----- ------- ---- -- --- ------- --<br>------- ---------- ------ -- ----- -- ----- -- ---- ------<br>--- ----- --- --- ------ -------- ----- --- ------ ----- --<br>----- ----- ---------- --- --- ------ ------ ---- -- ------<br>------- The ------ ----- --- ---- ------- -- ---- --- --<br>------- ------,193335.80000000075,193334.90000000224,192738.715,192752.30000000075,192755.144,193340.233,,44,The
screen,html.Screen,2_1_1_1_45,2022-02-03T14:29:50.083Z,,,,,,,,,,,,,,,,,54,,,,,,,,,,,,,,810.6670000022277,,response,,,,100,,,,,,,Space,keypress(Space),,,,,,,,-- --- ---- --- ------ ----- ------- ---- -- --- ------- --<br>------- ---------- ------ -- ----- -- ----- -- ---- ------<br>--- ----- --- --- ------ -------- ----- --- ------ ----- --<br>----- ----- ---------- --- --- ------ ------ ---- -- ------<br>------- --- French ----- --- ---- ------- -- ---- --- --<br>------- ------,194152,194150.90000000224,193323.746,193336,193340.233,194159.409,,45,French
screen,html.Screen,2_1_1_1_46,2022-02-03T14:29:50.580Z,,,,,,,,,,,,,,,,,54,,,,,,,,,,,,,,488.0909999999858,,response,,,,100,,,,,,,Space,keypress(Space),,,,,,,,-- --- ---- --- ------ ----- ------- ---- -- --- ------- --<br>------- ---------- ------ -- ----- -- ----- -- ---- ------<br>--- ----- --- --- ------ -------- ----- --- ------ ----- --<br>----- ----- ---------- --- --- ------ ------ ---- -- ------<br>------- --- ------ state --- ---- ------- -- ---- --- --<br>------- ------,194648.6000000015,194647.5,194142.937,194152.20000000298,194159.409,194661.124,,46,state
screen,html.Screen,2_1_1_1_47,2022-02-03T14:29:50.994Z,,,,,,,,,,,,,,,,,54,,,,,,,,,,,,,,401.3759999999893,,response,,,,100,,,,,,,Space,keypress(Space),,,,,,,,-- --- ---- --- ------ ----- ------- ---- -- --- ------- --<br>------- ---------- ------ -- ----- -- ----- -- ---- ------<br>--- ----- --- --- ------ -------- ----- --- ------ ----- --<br>----- ----- ---------- --- --- ------ ------ ---- -- ------<br>------- --- ------ ----- was ---- ------- -- ---- --- --<br>------- ------,195063.5,195062.5,194644.509,194648.70000000298,194661.124,195079.048,,47,was
screen,html.Screen,2_1_1_1_48,2022-02-03T14:29:51.435Z,,,,,,,,,,,,,,,,,54,,,,,,,,,,,,,,423.55200000148034,,response,,,,100,,,,,,,Space,keypress(Space),,,,,,,,-- --- ---- --- ------ ----- ------- ---- -- --- ------- --<br>------- ---------- ------ -- ----- -- ----- -- ---- ------<br>--- ----- --- --- ------ -------- ----- --- ------ ----- --<br>----- ----- ---------- --- --- ------ ------ ---- -- ------<br>------- --- ------ ----- --- left ------- -- ---- --- --<br>------- ------,195503.80000000075,195502.6000000015,195062.114,195063.6000000015,195079.048,195513.696,,48,left
screen,html.Screen,2_1_1_1_49,2022-02-03T14:29:51.859Z,,,,,,,,,,,,,,,,,54,,,,,,,,,,,,,,413.40400000149384,,response,,,,100,,,,,,,Space,keypress(Space),,,,,,,,-- --- ---- --- ------ ----- ------- ---- -- --- ------- --<br>------- ---------- ------ -- ----- -- ----- -- ---- ------<br>--- ----- --- --- ------ -------- ----- --- ------ ----- --<br>----- ----- ---------- --- --- ------ ------ ---- -- ------<br>------- --- ------ ----- --- ---- without -- ---- --- --<br>------- ------,195928.20000000298,195927.1000000015,195497.131,195503.90000000224,195513.696,195931.493,,49,without
screen,html.Screen,2_1_1_1_50,2022-02-03T14:29:52.235Z,,,,,,,,,,,,,,,,,54,,,,,,,,,,,,,,371.60700000150246,,response,,,,100,,,,,,,Space,keypress(Space),,,,,,,,-- --- ---- --- ------ ----- ------- ---- -- --- ------- --<br>------- ---------- ------ -- ----- -- ----- -- ---- ------<br>--- ----- --- --- ------ -------- ----- --- ------ ----- --<br>----- ----- ---------- --- --- ------ ------ ---- -- ------<br>------- --- ------ ----- --- ---- ------- an ---- --- --<br>------- ------,196304.20000000298,196303.1000000015,195914.788,195928.30000000075,195931.493,196315.775,,50,an
screen,html.Screen,2_1_1_1_51,2022-02-03T14:29:52.699Z,,,,,,,,,,,,,,,,,54,,,,,,,,,,,,,,451.42500000298605,,response,,,,100,,,,,,,Space,keypress(Space),,,,,,,,-- --- ---- --- ------ ----- ------- ---- -- --- ------- --<br>------- ---------- ------ -- ----- -- ----- -- ---- ------<br>--- ----- --- --- ------ -------- ----- --- ------ ----- --<br>----- ----- ---------- --- --- ------ ------ ---- -- ------<br>------- --- ------ ----- --- ---- ------- -- easy --- --<br>------- ------,196768.20000000298,196767.20000000298,196299.23,196304.40000000224,196315.775,196784.184,,51,easy
screen,html.Screen,2_1_1_1_52,2022-02-03T14:29:53.123Z,,,,,,,,,,,,,,,,,54,,,,,,,,,,,,,,406.91600000148173,,response,,,,100,,,,,,,Space,keypress(Space),,,,,,,,-- --- ---- --- ------ ----- ------- ---- -- --- ------- --<br>------- ---------- ------ -- ----- -- ----- -- ---- ------<br>--- ----- --- --- ------ -------- ----- --- ------ ----- --<br>----- ----- ---------- --- --- ------ ------ ---- -- ------<br>------- --- ------ ----- --- ---- ------- -- ---- way --<br>------- ------,197192.20000000298,197191.1000000015,196767.365,196768.30000000075,196784.184,197202.02,,52,way
screen,html.Screen,2_1_1_1_53,2022-02-03T14:29:53.587Z,,,,,,,,,,,,,,,,,54,,,,,,,,,,,,,,453.1800000029907,,response,,,,100,,,,,,,Space,keypress(Space),,,,,,,,-- --- ---- --- ------ ----- ------- ---- -- --- ------- --<br>------- ---------- ------ -- ----- -- ----- -- ---- ------<br>--- ----- --- --- ------ -------- ----- --- ------ ----- --<br>----- ----- ---------- --- --- ------ ------ ---- -- ------<br>------- --- ------ ----- --- ---- ------- -- ---- --- of<br>------- ------,197656.30000000075,197655.20000000298,197185.282,197192.30000000075,197202.02,197670.096,,53,of
screen,html.Screen,2_1_1_1_54,2022-02-03T14:29:53.987Z,,,,,,,,,,,,,,,,,54,,,,,,,,,,,,,,384.40400000000955,,response,,,,100,,,,,,,Space,keypress(Space),,,,,,,,-- --- ---- --- ------ ----- ------- ---- -- --- ------- --<br>------- ---------- ------ -- ----- -- ----- -- ---- ------<br>--- ----- --- --- ------ -------- ----- --- ------ ----- --<br>----- ----- ---------- --- --- ------ ------ ---- -- ------<br>------- --- ------ ----- --- ---- ------- -- ---- --- --<br>raising ------,198055.5,198054.5,197653.289,197656.40000000224,197670.096,198070.994,,54,raising
screen,html.Screen,2_1_1_1_55,2022-02-03T14:29:54.723Z,,,,,,,,,,,,,,,,,54,,,,,,,,,,,,,,720.1060000014841,,response,,,,100,,,,,,,Space,keypress(Space),,,,,,,,-- --- ---- --- ------ ----- ------- ---- -- --- ------- --<br>------- ---------- ------ -- ----- -- ----- -- ---- ------<br>--- ----- --- --- ------ -------- ----- --- ------ ----- --<br>----- ----- ---------- --- --- ------ ------ ---- -- ------<br>------- --- ------ ----- --- ---- ------- -- ---- --- --<br>------- money.,198792.40000000224,198791.1000000015,198054.758,198055.70000000298,198070.994,198806.631,,55,money.
Item 100,flow.Loop,2_1_1_1,2022-02-03T14:29:54.724Z,,,,,,,,,,,,,,,,,,,,,,,,,,,,,,,35891.115000001504,,completion,,,,,A,,,,,,,,,,,silence,,,,,198792.6000000015,198791.1000000015,162883.078,162884.1000000015,162899.985,198806.631,,,
Question 1,html.Screen,2_1_1_2,2022-02-03T14:29:57.844Z,,,,,,,,,,,,,,,,,,,,,,,,,,,,true,TRUE,,3104.369000000006,,response,,,,100,A,,,,,,TRUE,click #choice-1,,,,silence,,,,,201912.6000000015,201911,198789.815,198792.6000000015,198806.631,201915.762,,,
Question 2,html.Screen,2_1_1_3,2022-02-03T14:30:00.131Z,,,,,,,,,,,,,,,,,,,,,,,,,,,,true,FALSE,,2283.1380000022473,,response,,,,100,A,,,,,,FALSE,click #choice-2,,,,silence,,,,,204200.40000000224,204198.90000000224,201899.428,201912.70000000298,201915.762,204205.906,,,
Item 100,flow.Sequence,2_1_1,2022-02-03T14:30:00.132Z,,,,,,,,,,,,,,,,,,,,,,,,,,,,,,,51295.458000002225,,completion,,,,,,,,,,,,,,,,,,,,,204200.70000000298,204198.90000000224,152887.104,152889.6000000015,152903.442,204205.906,,,
End of Practice,html.Page,2_1_2,2022-02-03T14:30:04.532Z,,,,,,,,,,,,,,,,,,,,,,,,,,,,,,,4394.294000002992,,form submission,,,,,,,,,,,,,,,,,,,,,208600.6000000015,208600.20000000298,204189.448,204200.70000000298,204205.906,208602.314,,,
Practice,flow.Sequence,2_1,2022-02-03T14:30:04.532Z,,,,,,,,,,,,,,,,,,,,,,,,,,,,,,,108303.26900000298,,completion,,,,,,,,,,,,,,,,,,,,,208600.90000000224,208600.20000000298,100280.279,100291.60000000149,100296.931,208602.314,,,
Trap_instruction,html.Page,2_2_0,2022-02-03T14:30:10.492Z,,,,,,,,,,,,,,,,,,,,,,,,,,,,,,,5958.386000002967,,form submission,,,,,,,,,,,,,,,,,,,,,214561,214560.70000000298,208585.849,208600.90000000224,208602.314,214586.734,,,
trap_trial,html.Screen,2_2_1,2022-02-03T14:30:13.539Z,,,,,,,,,,,,,,,,,,,,,,,,,,,,true,1,,3020.1660000022384,,response,,,,,,,,,,,1,click #choice-1,,,,,,,,,217608.40000000224,217606.90000000224,214553.415,214561.1000000015,214586.734,217612.458,,,
end of trap trial,html.Page,2_2_2,2022-02-03T14:30:15.252Z,,,,,,,,,,,,,,,,,,,,,,,,,,,,,,,1708.242000002967,,form submission,,,,,,,,,,,,,,,,,,,,,219320.90000000224,219320.70000000298,217596.284,217608.6000000015,217612.458,219334.654,,,
Trap 1,flow.Sequence,2_2,2022-02-03T14:30:15.252Z,,,,,,,,,,,,,,,,,,,,,,,,,,,,,,,10718.386000002967,,completion,,,,,,,,,,,,,,,,,,,,,219321.1000000015,219320.70000000298,208585.849,208600.90000000224,208602.314,219334.654,,,
Standby,html.Page,2_3_0,2022-02-03T14:30:23.258Z,,,,,,,,,,,,,,,,,,,,,,,,,,,,,,,8006.666999999987,,timeout,,,,,,,,,,,,,,,,,,,,,227327.1000000015,227324.624,219317.56,219321.30000000075,219334.654,227341.321,,,
Holding screen,html.Screen,2_3_1_0_0,2022-02-03T14:30:30.260Z,,,,,,,,,,,,,,,,,,,,,,,,,,,,,,,7004.6449999999895,,timeout,,,,,,,,,,,,,,,,,,,,,234329.5,234328.812,227324.624,227327.40000000224,227341.321,234345.966,,,
screen,html.Screen,2_3_1_0_1_0,2022-02-03T14:30:31.148Z,,,,,,,,,,,,,,,,,2,,,,,,,,,,,,,,869.4340000022494,,response,,,,1,A,,,,,,Space,keypress(Space),,,,silence,,,,Two ---- ------ --- ------- ---------- ------- ----------<br>--- --------- --- ----------- ------- ----- ------- ---<br>--------- ---- -- --- ---- -- --------- -- ---- -------<br>-- --------- ------ --- ----- ------ ---- --- --------- --<br>------ - ---- -- --- ----------- ------- ---- ----- -----<br>--- -------- - ------ ---- -- ----- ---- --- --- -----------<br>-- -------,235216.90000000224,235215.40000000224,234328.812,234329.70000000298,234345.966,235231.838,,0,Two
screen,html.Screen,2_3_1_0_1_1,2022-02-03T14:30:31.603Z,,,,,,,,,,,,,,,,,2,,,,,,,,,,,,,,439.1620000000112,,response,,,,1,A,,,,,,Space,keypress(Space),,,,silence,,,,--- days ------ --- ------- ---------- ------- ----------<br>--- --------- --- ----------- ------- ----- ------- ---<br>--------- ---- -- --- ---- -- --------- -- ---- -------<br>-- --------- ------ --- ----- ------ ---- --- --------- --<br>------ - ---- -- --- ----------- ------- ---- ----- -----<br>--- -------- - ------ ---- -- ----- ---- --- --- -----------<br>-- -------,235672.1000000015,235671,235215.013,235217,235231.838,235682.942,,1,days
screen,html.Screen,2_3_1_0_1_2,2022-02-03T14:30:32.147Z,,,,,,,,,,,,,,,,,2,,,,,,,,,,,,,,531.7580000029702,,response,,,,1,A,,,,,,Space,keypress(Space),,,,silence,,,,"--- ---- later, --- ------- ---------- ------- ----------<br>--- --------- --- ----------- ------- ----- ------- ---<br>--------- ---- -- --- ---- -- --------- -- ---- -------<br>-- --------- ------ --- ----- ------ ---- --- --------- --<br>------ - ---- -- --- ----------- ------- ---- ----- -----<br>--- -------- - ------ ---- -- ----- ---- --- --- -----------<br>-- -------",236216,236214.70000000298,235666.404,235672.30000000075,235682.942,236217.737,,2,"later,"
screen,html.Screen,2_3_1_0_1_3,2022-02-03T14:30:32.546Z,,,,,,,,,,,,,,,,,2,,,,,,,,,,,,,,396.66300000224146,,response,,,,1,A,,,,,,Space,keypress(Space),,,,silence,,,,--- ---- ------ the ------- ---------- ------- ----------<br>--- --------- --- ----------- ------- ----- ------- ---<br>--------- ---- -- --- ---- -- --------- -- ---- -------<br>-- --------- ------ --- ----- ------ ---- --- --------- --<br>------ - ---- -- --- ----------- ------- ---- ----- -----<br>--- -------- - ------ ---- -- ----- ---- --- --- -----------<br>-- -------,236615.40000000224,236614.40000000224,236201.563,236216.20000000298,236217.737,236618.9,,3,the
screen,html.Screen,2_3_1_0_1_4,2022-02-03T14:30:33.011Z,,,,,,,,,,,,,,,,,2,,,,,,,,,,,,,,460.1000000000058,,response,,,,1,A,,,,,,Space,keypress(Space),,,,silence,,,,--- ---- ------ --- British ---------- ------- ----------<br>--- --------- --- ----------- ------- ----- ------- ---<br>--------- ---- -- --- ---- -- --------- -- ---- -------<br>-- --------- ------ --- ----- ------ ---- --- --------- --<br>------ - ---- -- --- ----------- ------- ---- ----- -----<br>--- -------- - ------ ---- -- ----- ---- --- --- -----------<br>-- -------,237080.1000000015,237079,236602.52,236615.6000000015,236618.9,237086.992,,4,British
screen,html.Screen,2_3_1_0_1_5,2022-02-03T14:30:33.467Z,,,,,,,,,,,,,,,,,2,,,,,,,,,,,,,,447.8080000007467,,response,,,,1,A,,,,,,Space,keypress(Space),,,,silence,,,,--- ---- ------ --- ------- astronomer ------- ----------<br>--- --------- --- ----------- ------- ----- ------- ---<br>--------- ---- -- --- ---- -- --------- -- ---- -------<br>-- --------- ------ --- ----- ------ ---- --- --------- --<br>------ - ---- -- --- ----------- ------- ---- ----- -----<br>--- -------- - ------ ---- -- ----- ---- --- --- -----------<br>-- -------,237535.80000000075,237534.80000000075,237070.422,237080.20000000298,237086.992,237538.333,,5,astronomer
screen,html.Screen,2_3_1_0_1_6,2022-02-03T14:30:34.346Z,,,,,,,,,,,,,,,,,2,,,,,,,,,,,,,,876.0670000022219,,response,,,,1,A,,,,,,Space,keypress(Space),,,,silence,,,,--- ---- ------ --- ------- ---------- Richard ----------<br>--- --------- --- ----------- ------- ----- ------- ---<br>--------- ---- -- --- ---- -- --------- -- ---- -------<br>-- --------- ------ --- ----- ------ ---- --- --------- --<br>------ - ---- -- --- ----------- ------- ---- ----- -----<br>--- -------- - ------ ---- -- ----- ---- --- --- -----------<br>-- -------,238415.5,238414.40000000224,237521.965,237536,237538.333,238424.347,,6,Richard
screen,html.Screen,2_3_1_0_1_7,2022-02-03T14:30:35.619Z,,,,,,,,,,,,,,,,,2,,,,,,,,,,,,,,1262.6529999999912,,response,,,,1,A,,,,,,Space,keypress(Space),,,,silence,,,,--- ---- ------ --- ------- ---------- ------- Carrington<br>--- --------- --- ----------- ------- ----- ------- ---<br>--------- ---- -- --- ---- -- --------- -- ---- -------<br>-- --------- ------ --- ----- ------ ---- --- --------- --<br>------ - ---- -- --- ----------- ------- ---- ----- -----<br>--- -------- - ------ ---- -- ----- ---- --- --- -----------<br>-- -------,239688,239687,238407.682,238415.6000000015,238424.347,239694.881,,7,Carrington
screen,html.Screen,2_3_1_0_1_8,2022-02-03T14:30:36.363Z,,,,,,,,,,,,,,,,,2,,,,,,,,,,,,,,736.0190000022412,,response,,,,1,A,,,,,,Space,keypress(Space),,,,silence,,,,--- ---- ------ --- ------- ---------- ------- ----------<br>was --------- --- ----------- ------- ----- ------- ---<br>--------- ---- -- --- ---- -- --------- -- ---- -------<br>-- --------- ------ --- ----- ------ ---- --- --------- --<br>------ - ---- -- --- ----------- ------- ---- ----- -----<br>--- -------- - ------ ---- -- ----- ---- --- --- -----------<br>-- -------,240432.1000000015,240430.90000000224,239678.312,239688.30000000075,239694.881,240447.277,,8,was
screen,html.Screen,2_3_1_0_1_9,2022-02-03T14:30:37.083Z,,,,,,,,,,,,,,,,,2,,,,,,,,,,,,,,703.6230000022333,,response,,,,1,A,,,,,,Space,keypress(Space),,,,silence,,,,--- ---- ------ --- ------- ---------- ------- ----------<br>--- observing --- ----------- ------- ----- ------- ---<br>--------- ---- -- --- ---- -- --------- -- ---- -------<br>-- --------- ------ --- ----- ------ ---- --- --------- --<br>------ - ---- -- --- ----------- ------- ---- ----- -----<br>--- -------- - ------ ---- -- ----- ---- --- --- -----------<br>-- -------,241151.90000000224,241150.90000000224,240430.568,240432.30000000075,240447.277,241166.077,,9,observing
screen,html.Screen,2_3_1_0_1_10,2022-02-03T14:30:37.754Z,,,,,,,,,,,,,,,,,2,,,,,,,,,,,,,,656.2230000007548,,response,,,,1,A,,,,,,Space,keypress(Space),,,,silence,,,,--- ---- ------ --- ------- ---------- ------- ----------<br>--- --------- the ----------- ------- ----- ------- ---<br>--------- ---- -- --- ---- -- --------- -- ---- -------<br>-- --------- ------ --- ----- ------ ---- --- --------- --<br>------ - ---- -- --- ----------- ------- ---- ----- -----<br>--- -------- - ------ ---- -- ----- ---- --- --- -----------<br>-- -------,241823.30000000075,241822.30000000075,241149.31,241152.1000000015,241166.077,241834.471,,10,the
screen,html.Screen,2_3_1_0_1_11,2022-02-03T14:30:39.763Z,,,,,,,,,,,,,,,,,2,,,,,,,,,,,,,,1996.5290000000095,,response,,,,1,A,,,,,,Space,keypress(Space),,,,silence,,,,--- ---- ------ --- ------- ---------- ------- ----------<br>--- --------- --- interesting ------- ----- ------- ---<br>--------- ---- -- --- ---- -- --------- -- ---- -------<br>-- --------- ------ --- ----- ------ ---- --- --------- --<br>------ - ---- -- --- ----------- ------- ---- ----- -----<br>--- -------- - ------ ---- -- ----- ---- --- --- -----------<br>-- -------,243832.30000000075,243831,241817.99,241823.5,241834.471,243840.455,,11,interesting
screen,html.Screen,2_3_1_0_1_12,2022-02-03T14:30:41.138Z,,,,,,,,,,,,,,,,,2,,,,,,,,,,,,,,1366.445000002248,,response,,,,1,A,,,,,,Space,keypress(Space),,,,silence,,,,--- ---- ------ --- ------- ---------- ------- ----------<br>--- --------- --- ----------- sunspot ----- ------- ---<br>--------- ---- -- --- ---- -- --------- -- ---- -------<br>-- --------- ------ --- ----- ------ ---- --- --------- --<br>------ - ---- -- --- ----------- ------- ---- ----- -----<br>--- -------- - ------ ---- -- ----- ---- --- --- -----------<br>-- -------,245208,245206.90000000224,243823.982,243832.40000000224,243840.455,245211.137,,12,sunspot
screen,html.Screen,2_3_1_0_1_13,2022-02-03T14:30:41.723Z,,,,,,,,,,,,,,,,,2,,,,,,,,,,,,,,580.1630000007572,,response,,,,1,A,,,,,,Space,keypress(Space),,,,silence,,,,--- ---- ------ --- ------- ---------- ------- ----------<br>--- --------- --- ----------- ------- group ------- ---<br>--------- ---- -- --- ---- -- --------- -- ---- -------<br>-- --------- ------ --- ----- ------ ---- --- --------- --<br>------ - ---- -- --- ----------- ------- ---- ----- -----<br>--- -------- - ------ ---- -- ----- ---- --- --- -----------<br>-- -------,245792.5,245791.30000000075,245195.024,245208.1000000015,245211.137,245796.183,,13,group
screen,html.Screen,2_3_1_0_1_14,2022-02-03T14:30:42.570Z,,,,,,,,,,,,,,,,,2,,,,,,,,,,,,,,842.4170000015001,,response,,,,1,A,,,,,,Space,keypress(Space),,,,silence,,,,--- ---- ------ --- ------- ---------- ------- ----------<br>--- --------- --- ----------- ------- ----- through ---<br>--------- ---- -- --- ---- -- --------- -- ---- -------<br>-- --------- ------ --- ----- ------ ---- --- --------- --<br>------ - ---- -- --- ----------- ------- ---- ----- -----<br>--- -------- - ------ ---- -- ----- ---- --- --- -----------<br>-- -------,246639.6000000015,246638.6000000015,245779.687,245792.6000000015,245796.183,246648.851,,14,through
screen,html.Screen,2_3_1_0_1_15,2022-02-03T14:30:43.243Z,,,,,,,,,,,,,,,,,2,,,,,,,,,,,,,,662.1490000000049,,response,,,,1,A,,,,,,Space,keypress(Space),,,,silence,,,,--- ---- ------ --- ------- ---------- ------- ----------<br>--- --------- --- ----------- ------- ----- ------- his<br>--------- ---- -- --- ---- -- --------- -- ---- -------<br>-- --------- ------ --- ----- ------ ---- --- --------- --<br>------ - ---- -- --- ----------- ------- ---- ----- -----<br>--- -------- - ------ ---- -- ----- ---- --- --- -----------<br>-- -------,247312.1000000015,247311,246632.331,246639.70000000298,246648.851,247317.537,,15,his
screen,html.Screen,2_3_1_0_1_16,2022-02-03T14:30:43.955Z,,,,,,,,,,,,,,,,,2,,,,,,,,,,,,,,705.5630000014789,,response,,,,1,A,,,,,,Space,keypress(Space),,,,silence,,,,--- ---- ------ --- ------- ---------- ------- ----------<br>--- --------- --- ----------- ------- ----- ------- ---<br>telescope ---- -- --- ---- -- --------- -- ---- -------<br>-- --------- ------ --- ----- ------ ---- --- --------- --<br>------ - ---- -- --- ----------- ------- ---- ----- -----<br>--- -------- - ------ ---- -- ----- ---- --- --- -----------<br>-- -------,248024.20000000298,248023.1000000015,247300.838,247312.30000000075,247317.537,248036.503,,16,telescope
screen,html.Screen,2_3_1_0_1_17,2022-02-03T14:30:44.763Z,,,,,,,,,,,,,,,,,2,,,,,,,,,,,,,,794.5970000014931,,response,,,,1,A,,,,,,Space,keypress(Space),,,,silence,,,,--- ---- ------ --- ------- ---------- ------- ----------<br>--- --------- --- ----------- ------- ----- ------- ---<br>--------- when -- --- ---- -- --------- -- ---- -------<br>-- --------- ------ --- ----- ------ ---- --- --------- --<br>------ - ---- -- --- ----------- ------- ---- ----- -----<br>--- -------- - ------ ---- -- ----- ---- --- --- -----------<br>-- -------,248832.20000000298,248831.1000000015,248019.797,248024.30000000075,248036.503,248838.645,,17,when
screen,html.Screen,2_3_1_0_1_18,2022-02-03T14:30:45.483Z,,,,,,,,,,,,,,,,,2,,,,,,,,,,,,,,712.3550000000105,,response,,,,1,A,,,,,,Space,keypress(Space),,,,silence,,,,--- ---- ------ --- ------- ---------- ------- ----------<br>--- --------- --- ----------- ------- ----- ------- ---<br>--------- ---- he --- ---- -- --------- -- ---- -------<br>-- --------- ------ --- ----- ------ ---- --- --------- --<br>------ - ---- -- --- ----------- ------- ---- ----- -----<br>--- -------- - ------ ---- -- ----- ---- --- --- -----------<br>-- -------,249552.1000000015,249551,248821.848,248832.40000000224,248838.645,249557.467,,18,he
screen,html.Screen,2_3_1_0_1_19,2022-02-03T14:30:46.226Z,,,,,,,,,,,,,,,,,2,,,,,,,,,,,,,,736.733000002976,,response,,,,1,A,,,,,,Space,keypress(Space),,,,silence,,,,--- ---- ------ --- ------- ---------- ------- ----------<br>--- --------- --- ----------- ------- ----- ------- ---<br>--------- ---- -- saw ---- -- --------- -- ---- -------<br>-- --------- ------ --- ----- ------ ---- --- --------- --<br>------ - ---- -- --- ----------- ------- ---- ----- -----<br>--- -------- - ------ ---- -- ----- ---- --- --- -----------<br>-- -------,250295.30000000075,250294.20000000298,249540.739,249552.20000000298,249557.467,250309.748,,19,saw
screen,html.Screen,2_3_1_0_1_20,2022-02-03T14:30:46.707Z,,,,,,,,,,,,,,,,,2,,,,,,,,,,,,,,465.4520000029879,,response,,,,1,A,,,,,,Space,keypress(Space),,,,silence,,,,--- ---- ------ --- ------- ---------- ------- ----------<br>--- --------- --- ----------- ------- ----- ------- ---<br>--------- ---- -- --- what -- --------- -- ---- -------<br>-- --------- ------ --- ----- ------ ---- --- --------- --<br>------ - ---- -- --- ----------- ------- ---- ----- -----<br>--- -------- - ------ ---- -- ----- ---- --- --- -----------<br>-- -------,250776.40000000224,250775.20000000298,250293.047,250295.40000000224,250309.748,250806.7,,20,what
screen,html.Screen,2_3_1_0_1_21,2022-02-03T14:30:47.275Z,,,,,,,,,,,,,,,,,2,,,,,,,,,,,,,,536.2999999999884,,response,,,,1,A,,,,,,Space,keypress(Space),,,,silence,,,,--- ---- ------ --- ------- ---------- ------- ----------<br>--- --------- --- ----------- ------- ----- ------- ---<br>--------- ---- -- --- ---- he --------- -- ---- -------<br>-- --------- ------ --- ----- ------ ---- --- --------- --<br>------ - ---- -- --- ----------- ------- ---- ----- -----<br>--- -------- - ------ ---- -- ----- ---- --- --- -----------<br>-- -------,251344,251343,250761.084,250776.5,250806.7,251346.049,,21,he
screen,html.Screen,2_3_1_0_1_22,2022-02-03T14:30:47.770Z,,,,,,,,,,,,,,,,,2,,,,,,,,,,,,,,492.95100000000093,,response,,,,1,A,,,,,,Space,keypress(Space),,,,silence,,,,--- ---- ------ --- ------- ---------- ------- ----------<br>--- --------- --- ----------- ------- ----- ------- ---<br>--------- ---- -- --- ---- -- described -- ---- -------<br>-- --------- ------ --- ----- ------ ---- --- --------- --<br>------ - ---- -- --- ----------- ------- ---- ----- -----<br>--- -------- - ------ ---- -- ----- ---- --- --- -----------<br>-- -------,251840,251839,251329.637,251344.20000000298,251346.049,251847.591,,22,described
screen,html.Screen,2_3_1_0_1_23,2022-02-03T14:30:48.274Z,,,,,,,,,,,,,,,,,2,,,,,,,,,,,,,,495.0090000015043,,response,,,,1,A,,,,,,Space,keypress(Space),,,,silence,,,,--- ---- ------ --- ------- ---------- ------- ----------<br>--- --------- --- ----------- ------- ----- ------- ---<br>--------- ---- -- --- ---- -- --------- as ---- -------<br>-- --------- ------ --- ----- ------ ---- --- --------- --<br>------ - ---- -- --- ----------- ------- ---- ----- -----<br>--- -------- - ------ ---- -- ----- ---- --- --- -----------<br>-- -------,252343.6000000015,252342.6000000015,251831.133,251840,251847.591,252349.129,,23,as
screen,html.Screen,2_3_1_0_1_24,2022-02-03T14:30:48.826Z,,,,,,,,,,,,,,,,,2,,,,,,,,,,,,,,545.6710000007588,,response,,,,1,A,,,,,,Space,keypress(Space),,,,silence,,,,"--- ---- ------ --- ------- ---------- ------- ----------<br>--- --------- --- ----------- ------- ----- ------- ---<br>--------- ---- -- --- ---- -- --------- -- ""two -------<br>-- --------- ------ --- ----- ------ ---- --- --------- --<br>------ - ---- -- --- ----------- ------- ---- ----- -----<br>--- -------- - ------ ---- -- ----- ---- --- --- -----------<br>-- -------",252895.80000000075,252894.80000000075,252332.346,252343.80000000075,252349.129,252900.708,,24,"""two"
screen,html.Screen,2_3_1_0_1_25,2022-02-03T14:30:49.242Z,,,,,,,,,,,,,,,,,2,,,,,,,,,,,,,,410.29199999998673,,response,,,,1,A,,,,,,Space,keypress(Space),,,,silence,,,,--- ---- ------ --- ------- ---------- ------- ----------<br>--- --------- --- ----------- ------- ----- ------- ---<br>--------- ---- -- --- ---- -- --------- -- ---- patches<br>-- --------- ------ --- ----- ------ ---- --- --------- --<br>------ - ---- -- --- ----------- ------- ---- ----- -----<br>--- -------- - ------ ---- -- ----- ---- --- --- -----------<br>-- -------,253312,253311,252884.051,252895.90000000224,252900.708,253318.633,,25,patches
screen,html.Screen,2_3_1_0_1_26,2022-02-03T14:30:49.650Z,,,,,,,,,,,,,,,,,2,,,,,,,,,,,,,,400.26700000223354,,response,,,,1,A,,,,,,Space,keypress(Space),,,,silence,,,,--- ---- ------ --- ------- ---------- ------- ----------<br>--- --------- --- ----------- ------- ----- ------- ---<br>--------- ---- -- --- ---- -- --------- -- ---- -------<br>of --------- ------ --- ----- ------ ---- --- --------- --<br>------ - ---- -- --- ----------- ------- ---- ----- -----<br>--- -------- - ------ ---- -- ----- ---- --- --- -----------<br>-- -------,253720,253718.90000000224,253302.175,253312.20000000298,253318.633,253736.792,,26,of
screen,html.Screen,2_3_1_0_1_27,2022-02-03T14:30:50.179Z,,,,,,,,,,,,,,,,,2,,,,,,,,,,,,,,510.3080000015034,,response,,,,1,A,,,,,,Space,keypress(Space),,,,silence,,,,--- ---- ------ --- ------- ---------- ------- ----------<br>--- --------- --- ----------- ------- ----- ------- ---<br>--------- ---- -- --- ---- -- --------- -- ---- -------<br>-- intensely ------ --- ----- ------ ---- --- --------- --<br>------ - ---- -- --- ----------- ------- ---- ----- -----<br>--- -------- - ------ ---- -- ----- ---- --- --- -----------<br>-- -------,254248.20000000298,254247.1000000015,253720.065,253720.20000000298,253736.792,254254.751,,27,intensely
screen,html.Screen,2_3_1_0_1_28,2022-02-03T14:30:50.618Z,,,,,,,,,,,,,,,,,2,,,,,,,,,,,,,,431.6490000022459,,response,,,,1,A,,,,,,Space,keypress(Space),,,,silence,,,,--- ---- ------ --- ------- ---------- ------- ----------<br>--- --------- --- ----------- ------- ----- ------- ---<br>--------- ---- -- --- ---- -- --------- -- ---- -------<br>-- --------- bright --- ----- ------ ---- --- --------- --<br>------ - ---- -- --- ----------- ------- ---- ----- -----<br>--- -------- - ------ ---- -- ----- ---- --- --- -----------<br>-- -------,254687.40000000224,254686.40000000224,254238.03,254248.30000000075,254254.751,254689.319,,28,bright
screen,html.Screen,2_3_1_0_1_29,2022-02-03T14:30:51.035Z,,,,,,,,,,,,,,,,,2,,,,,,,,,,,,,,413.7810000015015,,response,,,,1,A,,,,,,Space,keypress(Space),,,,silence,,,,--- ---- ------ --- ------- ---------- ------- ----------<br>--- --------- --- ----------- ------- ----- ------- ---<br>--------- ---- -- --- ---- -- --------- -- ---- -------<br>-- --------- ------ and ----- ------ ---- --- --------- --<br>------ - ---- -- --- ----------- ------- ---- ----- -----<br>--- -------- - ------ ---- -- ----- ---- --- --- -----------<br>-- -------,255104.1000000015,255103.1000000015,254672.966,254687.6000000015,254689.319,255107.21,,29,and
screen,html.Screen,2_3_1_0_1_30,2022-02-03T14:30:51.410Z,,,,,,,,,,,,,,,,,2,,,,,,,,,,,,,,371.1900000022433,,response,,,,1,A,,,,,,Space,keypress(Space),,,,silence,,,,--- ---- ------ --- ------- ---------- ------- ----------<br>--- --------- --- ----------- ------- ----- ------- ---<br>--------- ---- -- --- ---- -- --------- -- ---- -------<br>-- --------- ------ --- white ------ ---- --- --------- --<br>------ - ---- -- --- ----------- ------- ---- ----- -----<br>--- -------- - ------ ---- -- ----- ---- --- --- -----------<br>-- -------,255479.40000000224,255478.40000000224,255090.682,255104.20000000298,255107.21,255491.997,,30,white
screen,html.Screen,2_3_1_0_1_31,2022-02-03T14:30:51.827Z,,,,,,,,,,,,,,,,,2,,,,,,,,,,,,,,403.30300000074203,,response,,,,1,A,,,,,,Space,keypress(Space),,,,silence,,,,"--- ---- ------ --- ------- ---------- ------- ----------<br>--- --------- --- ----------- ------- ----- ------- ---<br>--------- ---- -- --- ---- -- --------- -- ---- -------<br>-- --------- ------ --- ----- light"" ---- --- --------- --<br>------ - ---- -- --- ----------- ------- ---- ----- -----<br>--- -------- - ------ ---- -- ----- ---- --- --- -----------<br>-- -------",255896.5,255895.30000000075,255475.308,255479.6000000015,255491.997,255909.903,,31,"light"""
screen,html.Screen,2_3_1_0_1_32,2022-02-03T14:30:52.475Z,,,,,,,,,,,,,,,,,2,,,,,,,,,,,,,,633.197000001499,,response,,,,1,A,,,,,,Space,keypress(Space),,,,silence,,,,--- ---- ------ --- ------- ---------- ------- ----------<br>--- --------- --- ----------- ------- ----- ------- ---<br>--------- ---- -- --- ---- -- --------- -- ---- -------<br>-- --------- ------ --- ----- ------ over --- --------- --<br>------ - ---- -- --- ----------- ------- ---- ----- -----<br>--- -------- - ------ ---- -- ----- ---- --- --- -----------<br>-- -------,256544.1000000015,256543.1000000015,255893.165,255896.5,255909.903,256561.718,,32,over
screen,html.Screen,2_3_1_0_1_33,2022-02-03T14:30:52.914Z,,,,,,,,,,,,,,,,,2,,,,,,,,,,,,,,420.98200000298675,,response,,,,1,A,,,,,,Space,keypress(Space),,,,silence,,,,--- ---- ------ --- ------- ---------- ------- ----------<br>--- --------- --- ----------- ------- ----- ------- ---<br>--------- ---- -- --- ---- -- --------- -- ---- -------<br>-- --------- ------ --- ----- ------ ---- the --------- --<br>------ - ---- -- --- ----------- ------- ---- ----- -----<br>--- -------- - ------ ---- -- ----- ---- --- --- -----------<br>-- -------,256983.80000000075,256982.70000000298,256528.309,256544.20000000298,256561.718,256996.273,,33,the
screen,html.Screen,2_3_1_0_1_34,2022-02-03T14:30:53.643Z,,,,,,,,,,,,,,,,,2,,,,,,,,,,,,,,714.9270000029937,,response,,,,1,A,,,,,,Space,keypress(Space),,,,silence,,,,--- ---- ------ --- ------- ---------- ------- ----------<br>--- --------- --- ----------- ------- ----- ------- ---<br>--------- ---- -- --- ---- -- --------- -- ---- -------<br>-- --------- ------ --- ----- ------ ---- --- sunspots. --<br>------ - ---- -- --- ----------- ------- ---- ----- -----<br>--- -------- - ------ ---- -- ----- ---- --- --- -----------<br>-- -------,257712.30000000075,257711.20000000298,256979.625,256983.90000000224,256996.273,257714.992,,34,sunspots.
screen,html.Screen,2_3_1_0_1_35,2022-02-03T14:30:54.346Z,,,,,,,,,,,,,,,,,2,,,,,,,,,,,,,,699.9080000022368,,response,,,,1,A,,,,,,Space,keypress(Space),,,,silence,,,,--- ---- ------ --- ------- ---------- ------- ----------<br>--- --------- --- ----------- ------- ----- ------- ---<br>--------- ---- -- --- ---- -- --------- -- ---- -------<br>-- --------- ------ --- ----- ------ ---- --- --------- He<br>------ - ---- -- --- ----------- ------- ---- ----- -----<br>--- -------- - ------ ---- -- ----- ---- --- --- -----------<br>-- -------,258415.90000000224,258414.90000000224,257698.527,257712.5,257714.992,258447.434,,35,He
screen,html.Screen,2_3_1_0_1_36,2022-02-03T14:30:55.426Z,,,,,,,,,,,,,,,,,2,,,,,,,,,,,,,,1047.4660000022268,,response,,,,1,A,,,,,,Space,keypress(Space),,,,silence,,,,--- ---- ------ --- ------- ---------- ------- ----------<br>--- --------- --- ----------- ------- ----- ------- ---<br>--------- ---- -- --- ---- -- --------- -- ---- -------<br>-- --------- ------ --- ----- ------ ---- --- --------- --<br>jotted - ---- -- --- ----------- ------- ---- ----- -----<br>--- -------- - ------ ---- -- ----- ---- --- --- -----------<br>-- -------,259495.90000000224,259494.90000000224,258400.517,258416,258447.434,259503.736,,36,jotted
screen,html.Screen,2_3_1_0_1_37,2022-02-03T14:30:55.819Z,,,,,,,,,,,,,,,,,2,,,,,,,,,,,,,,383.16400000223075,,response,,,,1,A,,,,,,Space,keypress(Space),,,,silence,,,,--- ---- ------ --- ------- ---------- ------- ----------<br>--- --------- --- ----------- ------- ----- ------- ---<br>--------- ---- -- --- ---- -- --------- -- ---- -------<br>-- --------- ------ --- ----- ------ ---- --- --------- --<br>------ a ---- -- --- ----------- ------- ---- ----- -----<br>--- -------- - ------ ---- -- ----- ---- --- --- -----------<br>-- -------,259888.1000000015,259886.90000000224,259487.256,259496.1000000015,259503.736,259905.35,,37,a
