sender,sender_type,sender_id,timestamp,meta,,Blues,Classical,Country,Dance,Electronic,Folk,Gospel,Hip-Hop,Jazz,Latin,Musical/Film,New-age,Pop,Prolific_id,Provo_ID,R&B,Rap,Reggae,Religious,Rock,Soul,Swing,Traditional,age,artist_name,correct,correctResponse,distraction,duration,education,ended_on,familiarity,gender,headphone_check_performance,item,list,music_frequency,offensiveness,pleasantness,position_correct,preference,response,response_action,snippet_file,song_name,song_rating,sound,stimulus_1,stimulus_2,stimulus_3,text,time_commit,time_end,time_render,time_run,time_show,time_switch,url,word,word_ID
Prolific ID,html.Form,0,2022-02-21T10:06:06.874Z,"{""labjs_version"":""20.2.2"",""labjs_build"":{""flavor"":""production"",""commit"":""a25486e0c714a0ae2ce03ff94b7bb6896854dcfa""},""location"":""https://run.pavlovia.org/mvasilev/prolific2_music_a/"",""userAgent"":""Mozilla/5.0 (Windows NT 10.0; Win64; x64) AppleWebKit/537.36 (KHTML, like Gecko) Chrome/98.0.4758.102 Safari/537.36"",""platform"":""Win32"",""language"":""en-GB"",""locale"":""en-GB"",""timeZone"":""Europe/London"",""timezoneOffset"":0,""screen_width"":1280,""screen_height"":720,""scroll_width"":1280,""scroll_height"":577,""window_innerWidth"":1280,""window_innerHeight"":577,""devicePixelRatio"":1.5}",,,,,,,,,,,,,,,609574b249fc8d5cb3d02413,,,,,,,,,,,,,,,8493.528999904629,,form submission,,,,,,,,,,,,,,,,,,,,,45679.299999952316,45678.59999990463,18786.826,18801.899999976158,37185.071,45699.971,{},,
Introduction,html.Screen,1_0,2022-02-21T10:06:10.364Z,,,,,,,,,,,,,,,,,,,,,,,,,,,,,,,3466.2289999284767,,response,,,,,,,,,,,continue,click button,,,,,,,,,49169.199999928474,49166.199999928474,45666.915,45679.799999952316,45699.971,49182.908,,,
Volume calibration,html.Screen,1_1,2022-02-21T10:06:26.654Z,,,,,,,,,,,,,,,,,,,,,,,,,,,,,,,16266.091999999997,,response,,,,,,,,,,,continue,click button,,,,,,,,,65459,65449,49166.31,49169.59999990463,49182.908,65464.119,,,
Task instructions,html.Screen,1_2,2022-02-21T10:06:40.432Z,,,,,,,,,,,,,,,,,,,,,,,,,,,,,,,13771.180999952318,,response,,,,,,,,,,,continue,click button,,,,,,,,,79237.19999992847,79235.29999995232,65447.524,65459.199999928474,65464.119,79245.486,,,
Sounds,html.Screen,1_3_0_0,2022-02-21T10:06:44.679Z,,,,,,,,,,,,,,,,,,,,,,,,,,,,,,,4249.55799999999,,timeout,,,,,,,,,1,,,,,,,,S,I,O,,83484.09999990463,83478.499,79229.153,79237.5,79245.486,83495.044,,,
Judgement,html.Screen,1_3_0_1,2022-02-21T10:06:46.241Z,,,,,,,,,,,,,,,,,,,,,,,,,,,,true,1,,1548.5559999046382,,response,,,,,,,,,1,,1,click #choice-1,,,,,S,I,O,,85045.79999995232,85043.59999990463,83478.499,83484.5,83495.044,85061.498,,,
Trial,flow.Sequence,1_3_0,2022-02-21T10:06:46.241Z,,,,,,,,,,,,,,,,,,,,,,,,,,,,,,,5798.113999904628,,completion,,,,,,,,,1,,,,,,,,S,I,O,,85046.19999992847,85043.59999990463,79229.153,79237.5,79245.486,85061.498,,,
Sounds,html.Screen,1_3_1_0,2022-02-21T10:06:50.491Z,,,,,,,,,,,,,,,,,,,,,,,,,,,,,,,4249.534999999989,,timeout,,,,,,,,,1,,,,,,,,S,O,I,,89295.89999997616,89294.633,85044.748,85046.79999995232,85061.498,89311.033,,,
Judgement,html.Screen,1_3_1_1,2022-02-21T10:06:51.652Z,,,,,,,,,,,,,,,,,,,,,,,,,,,,true,1,,1143.0669999046368,,response,,,,,,,,,1,,1,click #choice-1,,,,,S,O,I,,90457,90454.09999990463,89294.633,89296.09999990463,89311.033,90460.924,,,
Trial,flow.Sequence,1_3_1,2022-02-21T10:06:51.652Z,,,,,,,,,,,,,,,,,,,,,,,,,,,,,,,5392.601999904626,,completion,,,,,,,,,1,,,,,,,,S,O,I,,90457.5,90454.09999990463,85044.748,85046.39999997616,85061.498,90460.924,,,
Sounds,html.Screen,1_3_2_0,2022-02-21T10:06:55.891Z,,,,,,,,,,,,,,,,,,,,,,,,,,,,,,,4249.3399999999965,,timeout,,,,,,,,,3,,,,,,,,O,I,S,,94696.19999992847,94693.401,90444.202,90458.09999990463,90460.924,94710.264,,,
Judgement,html.Screen,1_3_2_1,2022-02-21T10:06:56.990Z,,,,,,,,,,,,,,,,,,,,,,,,,,,,true,3,,1082.7360000000044,,response,,,,,,,,,3,,3,click #choice-3,,,,,O,I,S,,95795.19999992847,95793,94693.401,94696.29999995232,94710.264,95810.273,,,
Trial,flow.Sequence,1_3_2,2022-02-21T10:06:56.990Z,,,,,,,,,,,,,,,,,,,,,,,,,,,,,,,5332.076000000001,,completion,,,,,,,,,3,,,,,,,,O,I,S,,95795.5,95793,90444.202,90457.79999995232,90460.924,95810.273,,,
Sounds,html.Screen,1_3_3_0,2022-02-21T10:07:01.240Z,,,,,,,,,,,,,,,,,,,,,,,,,,,,,,,4250.334999999992,,timeout,,,,,,,,,3,,,,,,,,I,O,S,,100044.5,100042.879,95793.545,95795.89999997616,95810.273,100060.608,,,
Judgement,html.Screen,1_3_3_1,2022-02-21T10:07:02.122Z,,,,,,,,,,,,,,,,,,,,,,,,,,,,true,3,,863.5919999284815,,response,,,,,,,,,3,,3,click #choice-3,,,,,I,O,S,,100927.29999995232,100924.19999992847,100042.879,100044.79999995232,100060.608,100976.13,,,
Trial,flow.Sequence,1_3_3,2022-02-21T10:07:02.123Z,,,,,,,,,,,,,,,,,,,,,,,,,,,,,,,5113.926999928473,,completion,,,,,,,,,3,,,,,,,,I,O,S,,100927.69999992847,100924.19999992847,95793.545,95795.69999992847,95810.273,100976.13,,,
Sounds,html.Screen,1_3_4_0,2022-02-21T10:07:06.405Z,,,,,,,,,,,,,,,,,,,,,,,,,,,,,,,4249.456999999995,,timeout,,,,,,,,,2,,,,,,,,O,S,I,,105210.19999992847,105209.085,100961.83,100928,100976.13,105225.587,,,
Judgement,html.Screen,1_3_4_1,2022-02-21T10:07:07.252Z,,,,,,,,,,,,,,,,,,,,,,,,,,,,true,2,,828.512999904633,,response,,,,,,,,,2,,2,click #choice-2,,,,,O,S,I,,106056.79999995232,106054.09999990463,105209.085,105210.5,105225.587,106059.072,,,
Trial,flow.Sequence,1_3_4,2022-02-21T10:07:07.253Z,,,,,,,,,,,,,,,,,,,,,,,,,,,,,,,5077.969999904628,,completion,,,,,,,,,2,,,,,,,,O,S,I,,106057.5,106054.09999990463,100961.83,100927.89999997616,100976.13,106059.072,,,
Sounds,html.Screen,1_3_5_0,2022-02-21T10:07:11.488Z,,,,,,,,,,,,,,,,,,,,,,,,,,,,,,,4249.101999999999,,timeout,,,,,,,,,2,,,,,,,,I,S,O,,110293.09999990463,110291.43,106042.293,106057.79999995232,106059.072,110308.174,,,
Judgement,html.Screen,1_3_5_1,2022-02-21T10:07:12.321Z,,,,,,,,,,,,,,,,,,,,,,,,,,,,true,2,,815.0259999284754,,response,,,,,,,,,2,,2,click #choice-2,,,,,I,S,O,,111126.29999995232,111123.19999992847,110291.43,110293.29999995232,110308.174,111141.394,,,
Trial,flow.Sequence,1_3_5,2022-02-21T10:07:12.322Z,,,,,,,,,,,,,,,,,,,,,,,,,,,,,,,5064.127999928474,,completion,,,,,,,,,2,,,,,,,,I,S,O,,111126.79999995232,111123.19999992847,106042.293,106057.69999992847,106059.072,111141.394,,,
Task,flow.Loop,1_3,2022-02-21T10:07:12.332Z,,,,,,,,,,,,,,,,,,,,,,,,,,,,,,,31877.71399992847,,completion,,,1,,,,,,,,,,,,,,,,,,111136.89999997616,111123.19999992847,79229.153,79237.5,79245.486,111141.394,,,
Trap,html.Screen,1_4,2022-02-21T10:07:12.335Z,,,,,,,,,,,,,,,,,,,,,,,,,,,,,,,NaN,,skipped,,,,,,,,,,,,,,,,,,,,,111139.5,111123.19999992847,,111139.19999992847,,111141.394,,,
Thanks,html.Screen,1_5,2022-02-21T10:07:15.973Z,,,,,,,,,,,,,,,,,,,,,,,,,,,,,,,3633.1059999999998,,response,,,,,,,,,,,continue,click button,,,,,,,,,114778.09999990463,114774.5,111124.688,111139.69999992847,111141.394,117457.321,,,
Headphone screening,flow.Sequence,1,2022-02-21T10:07:15.974Z,,,,,,,,,,,,,,,,,,,,,,,,,,,,,,,69074.52900000001,,completion,,,,,,,,,,,,,,,,,,,,,114778.5,114774.5,45666.915,45679.699999928474,45699.971,117457.321,,,
Instructions,html.Page,2_0,2022-02-21T10:07:34.891Z,,,,,,,,,,,,,,,,,,,,,,,,,,,,,,,16237.878999928478,,form submission,,,,,,,,,,,,,,,,,,,,,133695.79999995232,133695.19999992847,117390.688,117480.69999992847,117457.321,133705.182,,,
Holding screen,html.Screen,2_1_0_0,2022-02-21T10:07:44.884Z,,,,,,,,,,,,,,,,,,,,,,,,,,,,,,,10015.285999999993,,timeout,,,,,,,,,,,,,,,,,,,,,143688.59999990463,143687.265,133688.434,133696.09999990463,133705.182,143720.468,,,
screen,html.Screen,2_1_0_1_0,2022-02-21T10:07:46.246Z,,,,,,,,,,,,,,,,,53,,,,,,,,,,,,,,1325.231999928481,,response,,,,99,,,,,,,Space,keypress(Space),,,,,,,,When -- ----- -- ------ - ------- --- ----------<br>------------- ------ ------ ---- ---- ------- ----- -- ----<br>-------- ------- -- ---------- --- - --- ----- ----- ----<br>---- --- --- ----- --- ---- ---- ------- ----- ---- -------<br>--- --- -- ----- -- --- ---- -- --- ---- -- ------ ------<br>--- ----- -- ----,145051.19999992847,145045.69999992847,143687.265,143688.89999997616,143720.468,145079.224,,0,When
screen,html.Screen,2_1_0_1_1,2022-02-21T10:07:46.738Z,,,,,,,,,,,,,,,,,53,,,,,,,,,,,,,,461.475999928487,,response,,,,99,,,,,,,Space,keypress(Space),,,,,,,,---- it ----- -- ------ - ------- --- ----------<br>------------- ------ ------ ---- ---- ------- ----- -- ----<br>-------- ------- -- ---------- --- - --- ----- ----- ----<br>---- --- --- ----- --- ---- ---- ------- ----- ---- -------<br>--- --- -- ----- -- --- ---- -- --- ---- -- ------ ------<br>--- ----- -- ----,145542.59999990463,145540.69999992847,145036.971,145051.5,145079.224,145553.549,,1,it
screen,html.Screen,2_1_0_1_2,2022-02-21T10:07:47.154Z,,,,,,,,,,,,,,,,,53,,,,,,,,,,,,,,402.65099992847536,,response,,,,99,,,,,,,Space,keypress(Space),,,,,,,,---- -- comes -- ------ - ------- --- ----------<br>------------- ------ ------ ---- ---- ------- ----- -- ----<br>-------- ------- -- ---------- --- - --- ----- ----- ----<br>---- --- --- ----- --- ---- ---- ------- ----- ---- -------<br>--- --- -- ----- -- --- ---- -- --- ---- -- ------ ------<br>--- ----- -- ----,145958.69999992847,145956.19999992847,145537.094,145542.79999995232,145553.549,145970.054,,2,comes
screen,html.Screen,2_1_0_1_3,2022-02-21T10:07:47.476Z,,,,,,,,,,,,,,,,,53,,,,,,,,,,,,,,308.8459999761544,,response,,,,99,,,,,,,Space,keypress(Space),,,,,,,,---- -- ----- to ------ - ------- --- ----------<br>------------- ------ ------ ---- ---- ------- ----- -- ----<br>-------- ------- -- ---------- --- - --- ----- ----- ----<br>---- --- --- ----- --- ---- ---- ------- ----- ---- -------<br>--- --- -- ----- -- --- ---- -- --- ---- -- ------ ------<br>--- ----- -- ----,146280.59999990463,146278.89999997616,145953.75,145958.89999997616,145970.054,146286.77,,3,to
screen,html.Screen,2_1_0_1_4,2022-02-21T10:07:47.768Z,,,,,,,,,,,,,,,,,53,,,,,,,,,,,,,,284.1299999761686,,response,,,,99,,,,,,,Space,keypress(Space),,,,,,,,---- -- ----- -- having - ------- --- ----------<br>------------- ------ ------ ---- ---- ------- ----- -- ----<br>-------- ------- -- ---------- --- - --- ----- ----- ----<br>---- --- --- ----- --- ---- ---- ------- ----- ---- -------<br>--- --- -- ----- -- --- ---- -- --- ---- -- ------ ------<br>--- ----- -- ----,146572.59999990463,146570.89999997616,146270.271,146280.79999995232,146286.77,146586.775,,4,having
screen,html.Screen,2_1_0_1_5,2022-02-21T10:07:48.042Z,,,,,,,,,,,,,,,,,53,,,,,,,,,,,,,,258.62499997616396,,response,,,,99,,,,,,,Space,keypress(Space),,,,,,,,---- -- ----- -- ------ a ------- --- ----------<br>------------- ------ ------ ---- ---- ------- ----- -- ----<br>-------- ------- -- ---------- --- - --- ----- ----- ----<br>---- --- --- ----- --- ---- ---- ------- ----- ---- -------<br>--- --- -- ----- -- --- ---- -- --- ---- -- ------ ------<br>--- ----- -- ----,146846.89999997616,146845.39999997616,146570.224,146572.79999995232,146586.775,146853.383,,5,a
screen,html.Screen,2_1_0_1_6,2022-02-21T10:07:48.273Z,,,,,,,,,,,,,,,,,53,,,,,,,,,,,,,,222.91699995231465,,response,,,,99,,,,,,,Space,keypress(Space),,,,,,,,---- -- ----- -- ------ - lasting --- ----------<br>------------- ------ ------ ---- ---- ------- ----- -- ----<br>-------- ------- -- ---------- --- - --- ----- ----- ----<br>---- --- --- ----- --- ---- ---- ------- ----- ---- -------<br>--- --- -- ----- -- --- ---- -- --- ---- -- ------ ------<br>--- ----- -- ----,147078.19999992847,147076.29999995232,146836.723,146847.09999990463,146853.383,147086.617,,6,lasting
screen,html.Screen,2_1_0_1_7,2022-02-21T10:07:48.467Z,,,,,,,,,,,,,,,,,53,,,,,,,,,,,,,,183.88300000000163,,response,,,,99,,,,,,,Space,keypress(Space),,,,,,,,---- -- ----- -- ------ - ------- and ----------<br>------------- ------ ------ ---- ---- ------- ----- -- ----<br>-------- ------- -- ---------- --- - --- ----- ----- ----<br>---- --- --- ----- --- ---- ---- ------- ----- ---- -------<br>--- --- -- ----- -- --- ---- -- --- ---- -- ------ ------<br>--- ----- -- ----,147272,147270.5,147070.184,147078.5,147086.617,147286.73,,7,and
screen,html.Screen,2_1_0_1_8,2022-02-21T10:07:48.942Z,,,,,,,,,,,,,,,,,53,,,,,,,,,,,,,,458.7699999999895,,response,,,,99,,,,,,,Space,keypress(Space),,,,,,,,---- -- ----- -- ------ - ------- --- fulfilling<br>------------- ------ ------ ---- ---- ------- ----- -- ----<br>-------- ------- -- ---------- --- - --- ----- ----- ----<br>---- --- --- ----- --- ---- ---- ------- ----- ---- -------<br>--- --- -- ----- -- --- ---- -- --- ---- -- ------ ------<br>--- ----- -- ----,147747,147745.5,147270.234,147272.29999995232,147286.73,147753.112,,8,fulfilling
screen,html.Screen,2_1_0_1_9,2022-02-21T10:07:49.264Z,,,,,,,,,,,,,,,,,53,,,,,,,,,,,,,,314.68799995232257,,response,,,,99,,,,,,,Space,keypress(Space),,,,,,,,"---- -- ----- -- ------ - ------- --- ----------<br>relationship, ------ ------ ---- ---- ------- ----- -- ----<br>-------- ------- -- ---------- --- - --- ----- ----- ----<br>---- --- --- ----- --- ---- ---- ------- ----- ---- -------<br>--- --- -- ----- -- --- ---- -- --- ---- -- ------ ------<br>--- ----- -- ----",148069.19999992847,148067.79999995232,147736.779,147747.19999992847,147753.112,148086.549,,9,"relationship,"
screen,html.Screen,2_1_0_1_10,2022-02-21T10:07:49.450Z,,,,,,,,,,,,,,,,,53,,,,,,,,,,,,,,166.65099992847536,,response,,,,99,,,,,,,Space,keypress(Space),,,,,,,,---- -- ----- -- ------ - ------- --- ----------<br>------------- common ------ ---- ---- ------- ----- -- ----<br>-------- ------- -- ---------- --- - --- ----- ----- ----<br>---- --- --- ----- --- ---- ---- ------- ----- ---- -------<br>--- --- -- ----- -- --- ---- -- --- ---- -- ------ ------<br>--- ----- -- ----,148254.59999990463,148253.19999992847,148069.9,148069.39999997616,148086.549,148269.73,,10,common
screen,html.Screen,2_1_0_1_11,2022-02-21T10:07:49.928Z,,,,,,,,,,,,,,,,,53,,,,,,,,,,,,,,462.66999997614766,,response,,,,99,,,,,,,Space,keypress(Space),,,,,,,,---- -- ----- -- ------ - ------- --- ----------<br>------------- ------ wisdom ---- ---- ------- ----- -- ----<br>-------- ------- -- ---------- --- - --- ----- ----- ----<br>---- --- --- ----- --- ---- ---- ------- ----- ---- -------<br>--- --- -- ----- -- --- ---- -- --- ---- -- ------ ------<br>--- ----- -- ----,148733.19999992847,148732.39999997616,148253.243,148254.79999995232,148269.73,148736.368,,11,wisdom
screen,html.Screen,2_1_0_1_12,2022-02-21T10:07:50.259Z,,,,,,,,,,,,,,,,,53,,,,,,,,,,,,,,325.5319999761705,,response,,,,99,,,,,,,Space,keypress(Space),,,,,,,,---- -- ----- -- ------ - ------- --- ----------<br>------------- ------ ------ says ---- ------- ----- -- ----<br>-------- ------- -- ---------- --- - --- ----- ----- ----<br>---- --- --- ----- --- ---- ---- ------- ----- ---- -------<br>--- --- -- ----- -- --- ---- -- --- ---- -- ------ ------<br>--- ----- -- ----,149063.79999995232,149061.89999997616,148719.796,148733.39999997616,148736.368,149069.788,,12,says
screen,html.Screen,2_1_0_1_13,2022-02-21T10:07:50.602Z,,,,,,,,,,,,,,,,,53,,,,,,,,,,,,,,335.5119999523158,,response,,,,99,,,,,,,Space,keypress(Space),,,,,,,,---- -- ----- -- ------ - ------- --- ----------<br>------------- ------ ------ ---- that ------- ----- -- ----<br>-------- ------- -- ---------- --- - --- ----- ----- ----<br>---- --- --- ----- --- ---- ---- ------- ----- ---- -------<br>--- --- -- ----- -- --- ---- -- --- ---- -- ------ ------<br>--- ----- -- ----,149406.39999997616,149405.29999995232,149053.023,149064.09999990463,149069.788,149419.749,,13,that
screen,html.Screen,2_1_0_1_14,2022-02-21T10:07:50.884Z,,,,,,,,,,,,,,,,,53,,,,,,,,,,,,,,267.4509999284637,,response,,,,99,,,,,,,Space,keypress(Space),,,,,,,,---- -- ----- -- ------ - ------- --- ----------<br>------------- ------ ------ ---- ---- feeling ----- -- ----<br>-------- ------- -- ---------- --- - --- ----- ----- ----<br>---- --- --- ----- --- ---- ---- ------- ----- ---- -------<br>--- --- -- ----- -- --- ---- -- --- ---- -- ------ ------<br>--- ----- -- ----,149688.5,149687.19999992847,149403.191,149406.59999990463,149419.749,149703.032,,14,feeling
screen,html.Screen,2_1_0_1_15,2022-02-21T10:07:51.230Z,,,,,,,,,,,,,,,,,53,,,,,,,,,,,,,,329.56799990462605,,response,,,,99,,,,,,,Space,keypress(Space),,,,,,,,---- -- ----- -- ------ - ------- --- ----------<br>------------- ------ ------ ---- ---- ------- close -- ----<br>-------- ------- -- ---------- --- - --- ----- ----- ----<br>---- --- --- ----- --- ---- ---- ------- ----- ---- -------<br>--- --- -- ----- -- --- ---- -- --- ---- -- ------ ------<br>--- ----- -- ----,150034.39999997616,150032.59999990463,149686.33,149688.79999995232,149703.032,150069.74,,15,close
screen,html.Screen,2_1_0_1_16,2022-02-21T10:07:51.594Z,,,,,,,,,,,,,,,,,53,,,,,,,,,,,,,,327.95999992848374,,response,,,,99,,,,,,,Space,keypress(Space),,,,,,,,---- -- ----- -- ------ - ------- --- ----------<br>------------- ------ ------ ---- ---- ------- ----- to ----<br>-------- ------- -- ---------- --- - --- ----- ----- ----<br>---- --- --- ----- --- ---- ---- ------- ----- ---- -------<br>--- --- -- ----- -- --- ---- -- --- ---- -- ------ ------<br>--- ----- -- ----,150399.09999990463,150397.69999992847,150053.308,150034.59999990463,150069.74,150402.831,,16,to
screen,html.Screen,2_1_0_1_17,2022-02-21T10:07:51.940Z,,,,,,,,,,,,,,,,,53,,,,,,,,,,,,,,340.268999904627,,response,,,,99,,,,,,,Space,keypress(Space),,,,,,,,---- -- ----- -- ------ - ------- --- ----------<br>------------- ------ ------ ---- ---- ------- ----- -- your<br>-------- ------- -- ---------- --- - --- ----- ----- ----<br>---- --- --- ----- --- ---- ---- ------- ----- ---- -------<br>--- --- -- ----- -- --- ---- -- --- ---- -- ------ ------<br>--- ----- -- ----,150745.09999990463,150743.09999990463,150386.433,150399.39999997616,150402.831,150752.958,,17,your
screen,html.Screen,2_1_0_1_18,2022-02-21T10:07:52.222Z,,,,,,,,,,,,,,,,,53,,,,,,,,,,,,,,271.74199992846115,,response,,,,99,,,,,,,Space,keypress(Space),,,,,,,,---- -- ----- -- ------ - ------- --- ----------<br>------------- ------ ------ ---- ---- ------- ----- -- ----<br>romantic ------- -- ---------- --- - --- ----- ----- ----<br>---- --- --- ----- --- ---- ---- ------- ----- ---- -------<br>--- --- -- ----- -- --- ---- -- --- ---- -- ------ ------<br>--- ----- -- ----,151026.39999997616,151024.69999992847,150736.383,150745.39999997616,150752.958,151036.049,,18,romantic
screen,html.Screen,2_1_0_1_19,2022-02-21T10:07:52.466Z,,,,,,,,,,,,,,,,,53,,,,,,,,,,,,,,233.25099995231722,,response,,,,99,,,,,,,Space,keypress(Space),,,,,,,,---- -- ----- -- ------ - ------- --- ----------<br>------------- ------ ------ ---- ---- ------- ----- -- ----<br>-------- partner -- ---------- --- - --- ----- ----- ----<br>---- --- --- ----- --- ---- ---- ------- ----- ---- -------<br>--- --- -- ----- -- --- ---- -- --- ---- -- ------ ------<br>--- ----- -- ----,151271,151269.29999995232,151019.415,151026.69999992847,151036.049,151286.034,,19,partner
screen,html.Screen,2_1_0_1_20,2022-02-21T10:07:52.746Z,,,,,,,,,,,,,,,,,53,,,,,,,,,,,,,,263.7659999523021,,response,,,,99,,,,,,,Space,keypress(Space),,,,,,,,---- -- ----- -- ------ - ------- --- ----------<br>------------- ------ ------ ---- ---- ------- ----- -- ----<br>-------- ------- is ---------- --- - --- ----- ----- ----<br>---- --- --- ----- --- ---- ---- ------- ----- ---- -------<br>--- --- -- ----- -- --- ---- -- --- ---- -- ------ ------<br>--- ----- -- ----,151550.89999997616,151549.79999995232,151269.498,151271.29999995232,151286.034,151581.301,,20,is
screen,html.Screen,2_1_0_1_21,2022-02-21T10:07:53.020Z,,,,,,,,,,,,,,,,,53,,,,,,,,,,,,,,242.89899992846767,,response,,,,99,,,,,,,Space,keypress(Space),,,,,,,,---- -- ----- -- ------ - ------- --- ----------<br>------------- ------ ------ ---- ---- ------- ----- -- ----<br>-------- ------- -- paramount. --- - --- ----- ----- ----<br>---- --- --- ----- --- ---- ---- ------- ----- ---- -------<br>--- --- -- ----- -- --- ---- -- --- ---- -- ------ ------<br>--- ----- -- ----,151825,151824.19999992847,151536.152,151551,151581.301,151836.059,,21,paramount.
screen,html.Screen,2_1_0_1_22,2022-02-21T10:07:53.363Z,,,,,,,,,,,,,,,,,53,,,,,,,,,,,,,,330.14099992846604,,response,,,,99,,,,,,,Space,keypress(Space),,,,,,,,---- -- ----- -- ------ - ------- --- ----------<br>------------- ------ ------ ---- ---- ------- ----- -- ----<br>-------- ------- -- ---------- But - --- ----- ----- ----<br>---- --- --- ----- --- ---- ---- ------- ----- ---- -------<br>--- --- -- ----- -- --- ---- -- --- ---- -- ------ ------<br>--- ----- -- ----,152167.5,152166.19999992847,151819.432,151825.19999992847,151836.059,152197.158,,22,But
screen,html.Screen,2_1_0_1_23,2022-02-21T10:07:53.657Z,,,,,,,,,,,,,,,,,53,,,,,,,,,,,,,,263.5419999284786,,response,,,,99,,,,,,,Space,keypress(Space),,,,,,,,---- -- ----- -- ------ - ------- --- ----------<br>------------- ------ ------ ---- ---- ------- ----- -- ----<br>-------- ------- -- ---------- --- a --- ----- ----- ----<br>---- --- --- ----- --- ---- ---- ------- ----- ---- -------<br>--- --- -- ----- -- --- ---- -- --- ---- -- ------ ------<br>--- ----- -- ----,152461.59999990463,152460.69999992847,152152.673,152167.69999992847,152197.158,152469.103,,23,a
screen,html.Screen,2_1_0_1_24,2022-02-21T10:07:53.932Z,,,,,,,,,,,,,,,,,53,,,,,,,,,,,,,,266.1969999523135,,response,,,,99,,,,,,,Space,keypress(Space),,,,,,,,---- -- ----- -- ------ - ------- --- ----------<br>------------- ------ ------ ---- ---- ------- ----- -- ----<br>-------- ------- -- ---------- --- - new ----- ----- ----<br>---- --- --- ----- --- ---- ---- ------- ----- ---- -------<br>--- --- -- ----- -- --- ---- -- --- ---- -- ------ ------<br>--- ----- -- ----,152736.59999990463,152735.29999995232,152452.529,152461.89999997616,152469.103,152752.555,,24,new
screen,html.Screen,2_1_0_1_25,2022-02-21T10:07:54.195Z,,,,,,,,,,,,,,,,,53,,,,,,,,,,,,,,246.04499990463955,,response,,,,99,,,,,,,Space,keypress(Space),,,,,,,,---- -- ----- -- ------ - ------- --- ----------<br>------------- ------ ------ ---- ---- ------- ----- -- ----<br>-------- ------- -- ---------- --- - --- study ----- ----<br>---- --- --- ----- --- ---- ---- ------- ----- ---- -------<br>--- --- -- ----- -- --- ---- -- --- ---- -- ------ ------<br>--- ----- -- ----,152999.69999992847,152998.59999990463,152735.821,152736.79999995232,152752.555,153002.553,,25,study
screen,html.Screen,2_1_0_1_26,2022-02-21T10:07:54.479Z,,,,,,,,,,,,,,,,,53,,,,,,,,,,,,,,279.8469999761437,,response,,,,99,,,,,,,Space,keypress(Space),,,,,,,,---- -- ----- -- ------ - ------- --- ----------<br>------------- ------ ------ ---- ---- ------- ----- -- ----<br>-------- ------- -- ---------- --- - --- ----- finds ----<br>---- --- --- ----- --- ---- ---- ------- ----- ---- -------<br>--- --- -- ----- -- --- ---- -- --- ---- -- ------ ------<br>--- ----- -- ----,153283.59999990463,153282.39999997616,152985.744,152999.89999997616,153002.553,153309.961,,26,finds
screen,html.Screen,2_1_0_1_27,2022-02-21T10:07:54.781Z,,,,,,,,,,,,,,,,,53,,,,,,,,,,,,,,274.1389999046223,,response,,,,99,,,,,,,Space,keypress(Space),,,,,,,,---- -- ----- -- ------ - ------- --- ----------<br>------------- ------ ------ ---- ---- ------- ----- -- ----<br>-------- ------- -- ---------- --- - --- ----- ----- that<br>---- --- --- ----- --- ---- ---- ------- ----- ---- -------<br>--- --- -- ----- -- --- ---- -- --- ---- -- ------ ------<br>--- ----- -- ----,153585.5,153584.09999990463,153269.291,153283.89999997616,153309.961,153602.613,,27,that
screen,html.Screen,2_1_0_1_28,2022-02-21T10:07:55.025Z,,,,,,,,,,,,,,,,,53,,,,,,,,,,,,,,226.18699995230418,,response,,,,99,,,,,,,Space,keypress(Space),,,,,,,,---- -- ----- -- ------ - ------- --- ----------<br>------------- ------ ------ ---- ---- ------- ----- -- ----<br>-------- ------- -- ---------- --- - --- ----- ----- ----<br>it's --- --- ----- --- ---- ---- ------- ----- ---- -------<br>--- --- -- ----- -- --- ---- -- --- ---- -- ------ ------<br>--- ----- -- ----,153830.09999990463,153828.79999995232,153585.895,153585.79999995232,153602.613,153835.698,,28,it's
screen,html.Screen,2_1_0_1_29,2022-02-21T10:07:55.277Z,,,,,,,,,,,,,,,,,53,,,,,,,,,,,,,,244.60199995231233,,response,,,,99,,,,,,,Space,keypress(Space),,,,,,,,---- -- ----- -- ------ - ------- --- ----------<br>------------- ------ ------ ---- ---- ------- ----- -- ----<br>-------- ------- -- ---------- --- - --- ----- ----- ----<br>---- not --- ----- --- ---- ---- ------- ----- ---- -------<br>--- --- -- ----- -- --- ---- -- --- ---- -- ------ ------<br>--- ----- -- ----,154082.09999990463,154080.29999995232,153819.236,153830.39999997616,153835.698,154085.674,,29,not
screen,html.Screen,2_1_0_1_30,2022-02-21T10:07:55.493Z,,,,,,,,,,,,,,,,,53,,,,,,,,,,,,,,210.22599997615907,,response,,,,99,,,,,,,Space,keypress(Space),,,,,,,,---- -- ----- -- ------ - ------- --- ----------<br>------------- ------ ------ ---- ---- ------- ----- -- ----<br>-------- ------- -- ---------- --- - --- ----- ----- ----<br>---- --- how ----- --- ---- ---- ------- ----- ---- -------<br>--- --- -- ----- -- --- ---- -- --- ---- -- ------ ------<br>--- ----- -- ----,154297.29999995232,154295.89999997616,154069.307,154082.39999997616,154085.674,154302.309,,30,how
screen,html.Screen,2_1_0_1_31,2022-02-21T10:07:55.673Z,,,,,,,,,,,,,,,,,53,,,,,,,,,,,,,,173.9909999523079,,response,,,,99,,,,,,,Space,keypress(Space),,,,,,,,---- -- ----- -- ------ - ------- --- ----------<br>------------- ------ ------ ---- ---- ------- ----- -- ----<br>-------- ------- -- ---------- --- - --- ----- ----- ----<br>---- --- --- close --- ---- ---- ------- ----- ---- -------<br>--- --- -- ----- -- --- ---- -- --- ---- -- ------ ------<br>--- ----- -- ----,154477.89999997616,154476.29999995232,154285.887,154297.59999990463,154302.309,154485.616,,31,close
screen,html.Screen,2_1_0_1_32,2022-02-21T10:07:55.884Z,,,,,,,,,,,,,,,,,53,,,,,,,,,,,,,,201.9839999046235,,response,,,,99,,,,,,,Space,keypress(Space),,,,,,,,---- -- ----- -- ------ - ------- --- ----------<br>------------- ------ ------ ---- ---- ------- ----- -- ----<br>-------- ------- -- ---------- --- - --- ----- ----- ----<br>---- --- --- ----- you ---- ---- ------- ----- ---- -------<br>--- --- -- ----- -- --- ---- -- --- ---- -- ------ ------<br>--- ----- -- ----,154689.19999992847,154687.59999990463,154468.979,154478.19999992847,154485.616,154702.44,,32,you
screen,html.Screen,2_1_0_1_33,2022-02-21T10:07:56.099Z,,,,,,,,,,,,,,,,,53,,,,,,,,,,,,,,199.85999995231396,,response,,,,99,,,,,,,Space,keypress(Space),,,,,,,,---- -- ----- -- ------ - ------- --- ----------<br>------------- ------ ------ ---- ---- ------- ----- -- ----<br>-------- ------- -- ---------- --- - --- ----- ----- ----<br>---- --- --- ----- --- feel ---- ------- ----- ---- -------<br>--- --- -- ----- -- --- ---- -- --- ---- -- ------ ------<br>--- ----- -- ----,154903.79999995232,154902.29999995232,154685.915,154689.39999997616,154702.44,154918.925,,33,feel
screen,html.Screen,2_1_0_1_34,2022-02-21T10:07:56.291Z,,,,,,,,,,,,,,,,,53,,,,,,,,,,,,,,174.97499997616978,,response,,,,99,,,,,,,Space,keypress(Space),,,,,,,,---- -- ----- -- ------ - ------- --- ----------<br>------------- ------ ------ ---- ---- ------- ----- -- ----<br>-------- ------- -- ---------- --- - --- ----- ----- ----<br>---- --- --- ----- --- ---- that ------- ----- ---- -------<br>--- --- -- ----- -- --- ---- -- --- ---- -- ------ ------<br>--- ----- -- ----,155095.5,155093.89999997616,154902.521,154904.19999992847,154918.925,155102.248,,34,that
screen,html.Screen,2_1_0_1_35,2022-02-21T10:07:56.504Z,,,,,,,,,,,,,,,,,53,,,,,,,,,,,,,,204.75200000000768,,response,,,,99,,,,,,,Space,keypress(Space),,,,,,,,---- -- ----- -- ------ - ------- --- ----------<br>------------- ------ ------ ---- ---- ------- ----- -- ----<br>-------- ------- -- ---------- --- - --- ----- ----- ----<br>---- --- --- ----- --- ---- ---- matters ----- ---- -------<br>--- --- -- ----- -- --- ---- -- --- ---- -- ------ ------<br>--- ----- -- ----,155308.79999995232,155307,155085.716,155095.69999992847,155102.248,155318.907,,35,matters
screen,html.Screen,2_1_0_1_36,2022-02-21T10:07:56.786Z,,,,,,,,,,,,,,,,,53,,,,,,,,,,,,,,270.39299995230976,,response,,,,99,,,,,,,Space,keypress(Space),,,,,,,,"---- -- ----- -- ------ - ------- --- ----------<br>------------- ------ ------ ---- ---- ------- ----- -- ----<br>-------- ------- -- ---------- --- - --- ----- ----- ----<br>---- --- --- ----- --- ---- ---- ------- most, ---- -------<br>--- --- -- ----- -- --- ---- -- --- ---- -- ------ ------<br>--- ----- -- ----",155591,155589.29999995232,155302.222,155309.19999992847,155318.907,155602.27,,36,"most,"
screen,html.Screen,2_1_0_1_37,2022-02-21T10:07:57.010Z,,,,,,,,,,,,,,,,,53,,,,,,,,,,,,,,210.73000000001048,,response,,,,99,,,,,,,Space,keypress(Space),,,,,,,,---- -- ----- -- ------ - ------- --- ----------<br>------------- ------ ------ ---- ---- ------- ----- -- ----<br>-------- ------- -- ---------- --- - --- ----- ----- ----<br>---- --- --- ----- --- ---- ---- ------- ----- it's -------<br>--- --- -- ----- -- --- ---- -- --- ---- -- ------ ------<br>--- ----- -- ----,155814.79999995232,155813,155585.754,155593,155602.27,155818.763,,37,it's
screen,html.Screen,2_1_0_1_38,2022-02-21T10:07:57.243Z,,,,,,,,,,,,,,,,,53,,,,,,,,,,,,,,226.93699992846814,,response,,,,99,,,,,,,Space,keypress(Space),,,,,,,,---- -- ----- -- ------ - ------- --- ----------<br>------------- ------ ------ ---- ---- ------- ----- -- ----<br>-------- ------- -- ---------- --- - --- ----- ----- ----<br>---- --- --- ----- --- ---- ---- ------- ----- ---- whether<br>--- --- -- ----- -- --- ---- -- --- ---- -- ------ ------<br>--- ----- -- ----,156047.69999992847,156045.69999992847,155802.291,155815,155818.763,156052.019,,38,whether
screen,html.Screen,2_1_0_1_39,2022-02-21T10:07:57.476Z,,,,,,,,,,,,,,,,,53,,,,,,,,,,,,,,227.48099999999977,,response,,,,99,,,,,,,Space,keypress(Space),,,,,,,,---- -- ----- -- ------ - ------- --- ----------<br>------------- ------ ------ ---- ---- ------- ----- -- ----<br>-------- ------- -- ---------- --- - --- ----- ----- ----<br>---- --- --- ----- --- ---- ---- ------- ----- ---- -------<br>you --- -- ----- -- --- ---- -- --- ---- -- ------ ------<br>--- ----- -- ----,156281.09999990463,156279.5,156035.719,156047.79999995232,156052.019,156285.452,,39,you
screen,html.Screen,2_1_0_1_40,2022-02-21T10:07:57.656Z,,,,,,,,,,,,,,,,,53,,,,,,,,,,,,,,173.44799997616792,,response,,,,99,,,,,,,Space,keypress(Space),,,,,,,,---- -- ----- -- ------ - ------- --- ----------<br>------------- ------ ------ ---- ---- ------- ----- -- ----<br>-------- ------- -- ---------- --- - --- ----- ----- ----<br>---- --- --- ----- --- ---- ---- ------- ----- ---- -------<br>--- are -- ----- -- --- ---- -- --- ---- -- ------ ------<br>--- ----- -- ----,156460.89999997616,156458.89999997616,156269.061,156281.39999997616,156285.452,156468.675,,40,are
screen,html.Screen,2_1_0_1_41,2022-02-21T10:07:57.887Z,,,,,,,,,,,,,,,,,53,,,,,,,,,,,,,,221.9249999046442,,response,,,,99,,,,,,,Space,keypress(Space),,,,,,,,---- -- ----- -- ------ - ------- --- ----------<br>------------- ------ ------ ---- ---- ------- ----- -- ----<br>-------- ------- -- ---------- --- - --- ----- ----- ----<br>---- --- --- ----- --- ---- ---- ------- ----- ---- -------<br>--- --- as ----- -- --- ---- -- --- ---- -- ------ ------<br>--- ----- -- ----,156691.89999997616,156690.59999990463,156452.296,156461.09999990463,156468.675,156702.046,,41,as
screen,html.Screen,2_1_0_1_42,2022-02-21T10:07:58.083Z,,,,,,,,,,,,,,,,,53,,,,,,,,,,,,,,183.65399992847233,,response,,,,99,,,,,,,Space,keypress(Space),,,,,,,,---- -- ----- -- ------ - ------- --- ----------<br>------------- ------ ------ ---- ---- ------- ----- -- ----<br>-------- ------- -- ---------- --- - --- ----- ----- ----<br>---- --- --- ----- --- ---- ---- ------- ----- ---- -------<br>--- --- -- close -- --- ---- -- --- ---- -- ------ ------<br>--- ----- -- ----,156887.5,156885.69999992847,156685.599,156692.19999992847,156702.046,156902.082,,42,close
screen,html.Screen,2_1_0_1_43,2022-02-21T10:07:58.282Z,,,,,,,,,,,,,,,,,53,,,,,,,,,,,,,,183.41800000000512,,response,,,,99,,,,,,,Space,keypress(Space),,,,,,,,---- -- ----- -- ------ - ------- --- ----------<br>------------- ------ ------ ---- ---- ------- ----- -- ----<br>-------- ------- -- ---------- --- - --- ----- ----- ----<br>---- --- --- ----- --- ---- ---- ------- ----- ---- -------<br>--- --- -- ----- as --- ---- -- --- ---- -- ------ ------<br>--- ----- -- ----,157086.89999997616,157085.5,156885.509,156887.79999995232,156902.082,157102.043,,43,as
screen,html.Screen,2_1_0_1_44,2022-02-21T10:07:58.443Z,,,,,,,,,,,,,,,,,53,,,,,,,,,,,,,,144.75699995231116,,response,,,,99,,,,,,,Space,keypress(Space),,,,,,,,---- -- ----- -- ------ - ------- --- ----------<br>------------- ------ ------ ---- ---- ------- ----- -- ----<br>-------- ------- -- ---------- --- - --- ----- ----- ----<br>---- --- --- ----- --- ---- ---- ------- ----- ---- -------<br>--- --- -- ----- -- you ---- -- --- ---- -- ------ ------<br>--- ----- -- ----,157248.19999992847,157246.79999995232,157085.305,157087.29999995232,157102.043,157251.872,,44,you
screen,html.Screen,2_1_0_1_45,2022-02-21T10:07:58.587Z,,,,,,,,,,,,,,,,,53,,,,,,,,,,,,,,138.52799997615512,,response,,,,99,,,,,,,Space,keypress(Space),,,,,,,,---- -- ----- -- ------ - ------- --- ----------<br>------------- ------ ------ ---- ---- ------- ----- -- ----<br>-------- ------- -- ---------- --- - --- ----- ----- ----<br>---- --- --- ----- --- ---- ---- ------- ----- ---- -------<br>--- --- -- ----- -- --- want -- --- ---- -- ------ ------<br>--- ----- -- ----,157391.89999997616,157390.39999997616,157235.443,157248.39999997616,157251.872,157401.851,,45,want
screen,html.Screen,2_1_0_1_46,2022-02-21T10:07:58.718Z,,,,,,,,,,,,,,,,,53,,,,,,,,,,,,,,119.04899997616303,,response,,,,99,,,,,,,Space,keypress(Space),,,,,,,,---- -- ----- -- ------ - ------- --- ----------<br>------------- ------ ------ ---- ---- ------- ----- -- ----<br>-------- ------- -- ---------- --- - --- ----- ----- ----<br>---- --- --- ----- --- ---- ---- ------- ----- ---- -------<br>--- --- -- ----- -- --- ---- to --- ---- -- ------ ------<br>--- ----- -- ----,157523.19999992847,157520.89999997616,157385.373,157392.19999992847,157401.851,157535.21,,46,to
screen,html.Screen,2_1_0_1_47,2022-02-21T10:07:59.103Z,,,,,,,,,,,,,,,,,53,,,,,,,,,,,,,,371.08999995232443,,response,,,,99,,,,,,,Space,keypress(Space),,,,,,,,"---- -- ----- -- ------ - ------- --- ----------<br>------------- ------ ------ ---- ---- ------- ----- -- ----<br>-------- ------- -- ---------- --- - --- ----- ----- ----<br>---- --- --- ----- --- ---- ---- ------- ----- ---- -------<br>--- --- -- ----- -- --- ---- -- be, ---- -- ------ ------<br>--- ----- -- ----",157908.09999990463,157906.29999995232,157518.775,157523.59999990463,157535.21,157918.589,,47,"be,"
screen,html.Screen,2_1_0_1_48,2022-02-21T10:07:59.304Z,,,,,,,,,,,,,,,,,53,,,,,,,,,,,,,,189.01099990462535,,response,,,,99,,,,,,,Space,keypress(Space),,,,,,,,---- -- ----- -- ------ - ------- --- ----------<br>------------- ------ ------ ---- ---- ------- ----- -- ----<br>-------- ------- -- ---------- --- - --- ----- ----- ----<br>---- --- --- ----- --- ---- ---- ------- ----- ---- -------<br>--- --- -- ----- -- --- ---- -- --- even -- ------ ------<br>--- ----- -- ----,158109,158107.59999990463,157901.925,157908.29999995232,157918.589,158118.384,,48,even
screen,html.Screen,2_1_0_1_49,2022-02-21T10:07:59.519Z,,,,,,,,,,,,,,,,,53,,,,,,,,,,,,,,203.51599997616722,,response,,,,99,,,,,,,Space,keypress(Space),,,,,,,,---- -- ----- -- ------ - ------- --- ----------<br>------------- ------ ------ ---- ---- ------- ----- -- ----<br>-------- ------- -- ---------- --- - --- ----- ----- ----<br>---- --- --- ----- --- ---- ---- ------- ----- ---- -------<br>--- --- -- ----- -- --- ---- -- --- ---- if ------ ------<br>--- ----- -- ----,158323.69999992847,158321.89999997616,158102.105,158109.29999995232,158118.384,158335.177,,49,if
screen,html.Screen,2_1_0_1_50,2022-02-21T10:07:59.740Z,,,,,,,,,,,,,,,,,53,,,,,,,,,,,,,,208.02299992847838,,response,,,,99,,,,,,,Space,keypress(Space),,,,,,,,---- -- ----- -- ------ - ------- --- ----------<br>------------- ------ ------ ---- ---- ------- ----- -- ----<br>-------- ------- -- ---------- --- - --- ----- ----- ----<br>---- --- --- ----- --- ---- ---- ------- ----- ---- -------<br>--- --- -- ----- -- --- ---- -- --- ---- -- that's ------<br>--- ----- -- ----,158544.79999995232,158543.19999992847,158318.53,158323.89999997616,158335.177,158551.727,,50,that's
screen,html.Screen,2_1_0_1_51,2022-02-21T10:07:59.995Z,,,,,,,,,,,,,,,,,53,,,,,,,,,,,,,,245.97299992846092,,response,,,,99,,,,,,,Space,keypress(Space),,,,,,,,---- -- ----- -- ------ - ------- --- ----------<br>------------- ------ ------ ---- ---- ------- ----- -- ----<br>-------- ------- -- ---------- --- - --- ----- ----- ----<br>---- --- --- ----- --- ---- ---- ------- ----- ---- -------<br>--- --- -- ----- -- --- ---- -- --- ---- -- ------ really<br>--- ----- -- ----,158799.39999997616,158797.69999992847,158535.324,158545.09999990463,158551.727,158831.716,,51,really
screen,html.Screen,2_1_0_1_52,2022-02-21T10:08:00.277Z,,,,,,,,,,,,,,,,,53,,,,,,,,,,,,,,248.48399992848863,,response,,,,99,,,,,,,Space,keypress(Space),,,,,,,,---- -- ----- -- ------ - ------- --- ----------<br>------------- ------ ------ ---- ---- ------- ----- -- ----<br>-------- ------- -- ---------- --- - --- ----- ----- ----<br>---- --- --- ----- --- ---- ---- ------- ----- ---- -------<br>--- --- -- ----- -- --- ---- -- --- ---- -- ------ ------<br>not ----- -- ----,159081.79999995232,159080.19999992847,158785.23,158799.59999990463,158831.716,159085.063,,52,not
screen,html.Screen,2_1_0_1_53,2022-02-21T10:08:00.531Z,,,,,,,,,,,,,,,,,53,,,,,,,,,,,,,,248.73699995232164,,response,,,,99,,,,,,,Space,keypress(Space),,,,,,,,---- -- ----- -- ------ - ------- --- ----------<br>------------- ------ ------ ---- ---- ------- ----- -- ----<br>-------- ------- -- ---------- --- - --- ----- ----- ----<br>---- --- --- ----- --- ---- ---- ------- ----- ---- -------<br>--- --- -- ----- -- --- ---- -- --- ---- -- ------ ------<br>--- close -- ----,159335.29999995232,159333.79999995232,159068.433,159082,159085.063,159351.878,,53,close
screen,html.Screen,2_1_0_1_54,2022-02-21T10:08:00.762Z,,,,,,,,,,,,,,,,,53,,,,,,,,,,,,,,213.2219999046356,,response,,,,99,,,,,,,Space,keypress(Space),,,,,,,,---- -- ----- -- ------ - ------- --- ----------<br>------------- ------ ------ ---- ---- ------- ----- -- ----<br>-------- ------- -- ---------- --- - --- ----- ----- ----<br>---- --- --- ----- --- ---- ---- ------- ----- ---- -------<br>--- --- -- ----- -- --- ---- -- --- ---- -- ------ ------<br>--- ----- at ----,159566.5,159565.09999990463,159335.241,159335.59999990463,159351.878,159601.142,,54,at
screen,html.Screen,2_1_0_1_55,2022-02-21T10:08:01.249Z,,,,,,,,,,,,,,,,,53,,,,,,,,,,,,,,449.95799990464,,response,,,,99,,,,,,,Space,keypress(Space),,,,,,,,---- -- ----- -- ------ - ------- --- ----------<br>------------- ------ ------ ---- ---- ------- ----- -- ----<br>-------- ------- -- ---------- --- - --- ----- ----- ----<br>---- --- --- ----- --- ---- ---- ------- ----- ---- -------<br>--- --- -- ----- -- --- ---- -- --- ---- -- ------ ------<br>--- ----- -- all.,160053.89999997616,160051.09999990463,159551.868,159566.69999992847,159601.142,160084.924,,55,all.
Item 99,flow.Loop,2_1_0_1,2022-02-21T10:08:01.250Z,,,,,,,,,,,,,,,,,,,,,,,,,,,,,,,16330.631999904639,,completion,,,,,A,,,,,,,,,,,silence,,,,,160054.89999997616,160051.09999990463,143687.265,143688.89999997616,143720.468,160084.924,,,
Question 1,html.Screen,2_1_0_2,2022-02-21T10:08:05.786Z,,,,,,,,,,,,,,,,,,,,,,,,,,,,true,FALSE,,4503.475999976159,,response,,,,99,A,,,,,,FALSE,click #choice-2,,,,silence,,,,,164591,164588.39999997616,160051.613,160055.19999992847,160084.924,164601.096,,,
Question 2,html.Screen,2_1_0_3,2022-02-21T10:08:09.155Z,,,,,,,,,,,,,,,,,,,,,,,,,,,,true,TRUE,,3355.603999928484,,response,,,,99,A,,,,,,TRUE,click #choice-1,,,,silence,,,,,167960.29999995232,167956.69999992847,164584.284,164591.19999992847,164601.096,167967.295,,,
Item 99,flow.Sequence,2_1_0,2022-02-21T10:08:09.156Z,,,,,,,,,,,,,,,,,,,,,,,,,,,,,,,34251.517999928474,,completion,,,,,,,,,,,,,,,,,,,,,167960.59999990463,167956.69999992847,133688.434,133696.09999990463,133705.182,167967.295,,,
Holding screen,html.Screen,2_1_1_0,2022-02-21T10:08:19.146Z,,,,,,,,,,,,,,,,,,,,,,,,,,,,,,,9998.65399999998,,timeout,,,,,,,,,,,,,,,,,,,,,177950.79999995232,177949.46,167950.626,167960.89999997616,167967.295,177965.949,,,
screen,html.Screen,2_1_1_1_0,2022-02-21T10:08:20.300Z,,,,,,,,,,,,,,,,,54,,,,,,,,,,,,,,1136.450999976165,,response,,,,100,,,,,,,Space,keypress(Space),,,,,,,,At --- ---- --- ------ ----- ------- ---- -- --- ------- --<br>------- ---------- ------ -- ----- -- ----- -- ---- ------<br>--- ----- --- --- ------ -------- ----- --- ------ ----- --<br>----- ----- ---------- --- --- ------ ------ ---- -- ------<br>------- --- ------ ----- --- ---- ------- -- ---- --- --<br>------- ------,179105,179102.39999997616,177949.46,177951.19999992847,177965.949,179115.861,,0,At
screen,html.Screen,2_1_1_1_1,2022-02-21T10:08:20.684Z,,,,,,,,,,,,,,,,,54,,,,,,,,,,,,,,370.93899995231186,,response,,,,100,,,,,,,Space,keypress(Space),,,,,,,,-- the ---- --- ------ ----- ------- ---- -- --- ------- --<br>------- ---------- ------ -- ----- -- ----- -- ---- ------<br>--- ----- --- --- ------ -------- ----- --- ------ ----- --<br>----- ----- ---------- --- --- ------ ------ ---- -- ------<br>------- --- ------ ----- --- ---- ------- -- ---- --- --<br>------- ------,179488.59999990463,179486.79999995232,179099.429,179105.19999992847,179115.861,179499.241,,1,the
screen,html.Screen,2_1_1_1_2,2022-02-21T10:08:20.895Z,,,,,,,,,,,,,,,,,54,,,,,,,,,,,,,,198.8589999046235,,response,,,,100,,,,,,,Space,keypress(Space),,,,,,,,-- --- time --- ------ ----- ------- ---- -- --- ------- --<br>------- ---------- ------ -- ----- -- ----- -- ---- ------<br>--- ----- --- --- ------ -------- ----- --- ------ ----- --<br>----- ----- ---------- --- --- ------ ------ ---- -- ------<br>------- --- ------ ----- --- ---- ------- -- ---- --- --<br>------- ------,179699.5,179698.09999990463,179482.544,179488.89999997616,179499.241,179716.032,,2,time
screen,html.Screen,2_1_1_1_3,2022-02-21T10:08:21.089Z,,,,,,,,,,,,,,,,,54,,,,,,,,,,,,,,176.36799997615162,,response,,,,100,,,,,,,Space,keypress(Space),,,,,,,,-- --- ---- the ------ ----- ------- ---- -- --- ------- --<br>------- ---------- ------ -- ----- -- ----- -- ---- ------<br>--- ----- --- --- ------ -------- ----- --- ------ ----- --<br>----- ----- ---------- --- --- ------ ------ ---- -- ------<br>------- --- ------ ----- --- ---- ------- -- ---- --- --<br>------- ------,179893.79999995232,179892.39999997616,179699.193,179699.89999997616,179716.032,179898.98,,3,the
screen,html.Screen,2_1_1_1_4,2022-02-21T10:08:21.290Z,,,,,,,,,,,,,,,,,54,,,,,,,,,,,,,,194.91999997614766,,response,,,,100,,,,,,,Space,keypress(Space),,,,,,,,-- --- ---- --- French ----- ------- ---- -- --- ------- --<br>------- ---------- ------ -- ----- -- ----- -- ---- ------<br>--- ----- --- --- ------ -------- ----- --- ------ ----- --<br>----- ----- ---------- --- --- ------ ------ ---- -- ------<br>------- --- ------ ----- --- ---- ------- -- ---- --- --<br>------- ------,180095.19999992847,180093.89999997616,179882.402,179894,179898.98,180098.944,,4,French
screen,html.Screen,2_1_1_1_5,2022-02-21T10:08:21.511Z,,,,,,,,,,,,,,,,,54,,,,,,,,,,,,,,215.3559999523277,,response,,,,100,,,,,,,Space,keypress(Space),,,,,,,,-- --- ---- --- ------ crown ------- ---- -- --- ------- --<br>------- ---------- ------ -- ----- -- ----- -- ---- ------<br>--- ----- --- --- ------ -------- ----- --- ------ ----- --<br>----- ----- ---------- --- --- ------ ------ ---- -- ------<br>------- --- ------ ----- --- ---- ------- -- ---- --- --<br>------- ------,180315.59999990463,180314.29999995232,180082.526,180095.39999997616,180098.944,180332.219,,5,crown
screen,html.Screen,2_1_1_1_6,2022-02-21T10:08:21.745Z,,,,,,,,,,,,,,,,,54,,,,,,,,,,,,,,216.5809999523044,,response,,,,100,,,,,,,Space,keypress(Space),,,,,,,,-- --- ---- --- ------ ----- secured ---- -- --- ------- --<br>------- ---------- ------ -- ----- -- ----- -- ---- ------<br>--- ----- --- --- ------ -------- ----- --- ------ ----- --<br>----- ----- ---------- --- --- ------ ------ ---- -- ------<br>------- --- ------ ----- --- ---- ------- -- ---- --- --<br>------- ------,180550.09999990463,180548.79999995232,180315.541,180315.89999997616,180332.219,180565.55,,6,secured
screen,html.Screen,2_1_1_1_7,2022-02-21T10:08:22.047Z,,,,,,,,,,,,,,,,,54,,,,,,,,,,,,,,284.7499999523279,,response,,,,100,,,,,,,Space,keypress(Space),,,,,,,,-- --- ---- --- ------ ----- ------- much -- --- ------- --<br>------- ---------- ------ -- ----- -- ----- -- ---- ------<br>--- ----- --- --- ------ -------- ----- --- ------ ----- --<br>----- ----- ---------- --- --- ------ ------ ---- -- ------<br>------- --- ------ ----- --- ---- ------- -- ---- --- --<br>------- ------,180851.69999992847,180850.29999995232,180549.137,180550.39999997616,180565.55,180865.475,,7,much
screen,html.Screen,2_1_1_1_8,2022-02-21T10:08:22.282Z,,,,,,,,,,,,,,,,,54,,,,,,,,,,,,,,219.52499999999418,,response,,,,100,,,,,,,Space,keypress(Space),,,,,,,,-- --- ---- --- ------ ----- ------- ---- of --- ------- --<br>------- ---------- ------ -- ----- -- ----- -- ---- ------<br>--- ----- --- --- ------ -------- ----- --- ------ ----- --<br>----- ----- ---------- --- --- ------ ------ ---- -- ------<br>------- --- ------ ----- --- ---- ------- -- ---- --- --<br>------- ------,181086.5,181085,180849.114,180851.89999997616,180865.475,181098.939,,8,of
screen,html.Screen,2_1_1_1_9,2022-02-21T10:08:22.503Z,,,,,,,,,,,,,,,,,54,,,,,,,,,,,,,,206.9609999761451,,response,,,,100,,,,,,,Space,keypress(Space),,,,,,,,-- --- ---- --- ------ ----- ------- ---- -- its ------- --<br>------- ---------- ------ -- ----- -- ----- -- ---- ------<br>--- ----- --- --- ------ -------- ----- --- ------ ----- --<br>----- ----- ---------- --- --- ------ ------ ---- -- ------<br>------- --- ------ ----- --- ---- ------- -- ---- --- --<br>------- ------,181307.79999995232,181305.89999997616,181082.32,181086.69999992847,181098.939,181315.418,,9,its
screen,html.Screen,2_1_1_1_10,2022-02-21T10:08:22.738Z,,,,,,,,,,,,,,,,,54,,,,,,,,,,,,,,224.7819999284693,,response,,,,100,,,,,,,Space,keypress(Space),,,,,,,,-- --- ---- --- ------ ----- ------- ---- -- --- revenue --<br>------- ---------- ------ -- ----- -- ----- -- ---- ------<br>--- ----- --- --- ------ -------- ----- --- ------ ----- --<br>----- ----- ---------- --- --- ------ ------ ---- -- ------<br>------- --- ------ ----- --- ---- ------- -- ---- --- --<br>------- ------,181542.89999997616,181540.19999992847,181299.018,181308.09999990463,181315.418,181548.692,,10,revenue
screen,html.Screen,2_1_1_1_11,2022-02-21T10:08:22.938Z,,,,,,,,,,,,,,,,,54,,,,,,,,,,,,,,192.70799997614813,,response,,,,100,,,,,,,Space,keypress(Space),,,,,,,,-- --- ---- --- ------ ----- ------- ---- -- --- ------- by<br>------- ---------- ------ -- ----- -- ----- -- ---- ------<br>--- ----- --- --- ------ -------- ----- --- ------ ----- --<br>----- ----- ---------- --- --- ------ ------ ---- -- ------<br>------- --- ------ ----- --- ---- ------- -- ---- --- --<br>------- ------,181743.19999992847,181741.39999997616,181532.264,181543.09999990463,181548.692,181748.631,,11,by
screen,html.Screen,2_1_1_1_12,2022-02-21T10:08:23.162Z,,,,,,,,,,,,,,,,,54,,,,,,,,,,,,,,217.06899992848048,,response,,,,100,,,,,,,Space,keypress(Space),,,,,,,,-- --- ---- --- ------ ----- ------- ---- -- --- ------- --<br>issuing ---------- ------ -- ----- -- ----- -- ---- ------<br>--- ----- --- --- ------ -------- ----- --- ------ ----- --<br>----- ----- ---------- --- --- ------ ------ ---- -- ------<br>------- --- ------ ----- --- ---- ------- -- ---- --- --<br>------- ------,181967.19999992847,181965.69999992847,181732.381,181743.5,181748.631,181982.304,,12,issuing
screen,html.Screen,2_1_1_1_13,2022-02-21T10:08:23.395Z,,,,,,,,,,,,,,,,,54,,,,,,,,,,,,,,215.49599995231256,,response,,,,100,,,,,,,Space,keypress(Space),,,,,,,,-- --- ---- --- ------ ----- ------- ---- -- --- ------- --<br>------- government ------ -- ----- -- ----- -- ---- ------<br>--- ----- --- --- ------ -------- ----- --- ------ ----- --<br>----- ----- ---------- --- --- ------ ------ ---- -- ------<br>------- --- ------ ----- --- ---- ------- -- ---- --- --<br>------- ------,182200.19999992847,182197.79999995232,181965.421,181967.5,181982.304,182215.485,,13,government
screen,html.Screen,2_1_1_1_14,2022-02-21T10:08:23.819Z,,,,,,,,,,,,,,,,,54,,,,,,,,,,,,,,406.9149999761721,,response,,,,100,,,,,,,Space,keypress(Space),,,,,,,,-- --- ---- --- ------ ----- ------- ---- -- --- ------- --<br>------- ---------- bonds. -- ----- -- ----- -- ---- ------<br>--- ----- --- --- ------ -------- ----- --- ------ ----- --<br>----- ----- ---------- --- --- ------ ------ ---- -- ------<br>------- --- ------ ----- --- ---- ------- -- ---- --- --<br>------- ------,182624.09999990463,182622.39999997616,182198.828,182200.5,182215.485,182631.925,,14,bonds.
screen,html.Screen,2_1_1_1_15,2022-02-21T10:08:24.010Z,,,,,,,,,,,,,,,,,54,,,,,,,,,,,,,,181.57500000001164,,response,,,,100,,,,,,,Space,keypress(Space),,,,,,,,-- --- ---- --- ------ ----- ------- ---- -- --- ------- --<br>------- ---------- ------ In ----- -- ----- -- ---- ------<br>--- ----- --- --- ------ -------- ----- --- ------ ----- --<br>----- ----- ---------- --- --- ------ ------ ---- -- ------<br>------- --- ------ ----- --- ---- ------- -- ---- --- --<br>------- ------,182815.19999992847,182813.5,182615.398,182624.39999997616,182631.925,182832.105,,15,In
screen,html.Screen,2_1_1_1_16,2022-02-21T10:08:24.629Z,,,,,,,,,,,,,,,,,54,,,,,,,,,,,,,,600.7949999761477,,response,,,,100,,,,,,,Space,keypress(Space),,,,,,,,"-- --- ---- --- ------ ----- ------- ---- -- --- ------- --<br>------- ---------- ------ -- 1727, -- ----- -- ---- ------<br>--- ----- --- --- ------ -------- ----- --- ------ ----- --<br>----- ----- ---------- --- --- ------ ------ ---- -- ------<br>------- --- ------ ----- --- ---- ------- -- ---- --- --<br>------- ------",183434.29999995232,183432.89999997616,182815.442,182815.39999997616,182832.105,183448.589,,16,"1727,"
screen,html.Screen,2_1_1_1_17,2022-02-21T10:08:25.631Z,,,,,,,,,,,,,,,,,54,,,,,,,,,,,,,,985.7109999523091,,response,,,,100,,,,,,,Space,keypress(Space),,,,,,,,-- --- ---- --- ------ ----- ------- ---- -- --- ------- --<br>------- ---------- ------ -- ----- in ----- -- ---- ------<br>--- ----- --- --- ------ -------- ----- --- ------ ----- --<br>----- ----- ---------- --- --- ------ ------ ---- -- ------<br>------- --- ------ ----- --- ---- ------- -- ---- --- --<br>------- ------,184435.69999992847,184434.29999995232,183431.976,183434.5,183448.589,184448.345,,17,in
screen,html.Screen,2_1_1_1_18,2022-02-21T10:08:26.006Z,,,,,,,,,,,,,,,,,54,,,,,,,,,,,,,,358.9549999523151,,response,,,,100,,,,,,,Space,keypress(Space),,,,,,,,-- --- ---- --- ------ ----- ------- ---- -- --- ------- --<br>------- ---------- ------ -- ----- -- order -- ---- ------<br>--- ----- --- --- ------ -------- ----- --- ------ ----- --<br>----- ----- ---------- --- --- ------ ------ ---- -- ------<br>------- --- ------ ----- --- ---- ------- -- ---- --- --<br>------- ------,184810.59999990463,184807.29999995232,184431.914,184436,184448.345,184814.937,,18,order
screen,html.Screen,2_1_1_1_19,2022-02-21T10:08:26.238Z,,,,,,,,,,,,,,,,,54,,,,,,,,,,,,,,226.86299995231093,,response,,,,100,,,,,,,Space,keypress(Space),,,,,,,,-- --- ---- --- ------ ----- ------- ---- -- --- ------- --<br>------- ---------- ------ -- ----- -- ----- to ---- ------<br>--- ----- --- --- ------ -------- ----- --- ------ ----- --<br>----- ----- ---------- --- --- ------ ------ ---- -- ------<br>------- --- ------ ----- --- ---- ------- -- ---- --- --<br>------- ------,185043.09999990463,185041.79999995232,184798.43,184810.89999997616,184814.937,185048.341,,19,to
screen,html.Screen,2_1_1_1_20,2022-02-21T10:08:26.470Z,,,,,,,,,,,,,,,,,54,,,,,,,,,,,,,,224.6590000000142,,response,,,,100,,,,,,,Space,keypress(Space),,,,,,,,-- --- ---- --- ------ ----- ------- ---- -- --- ------- --<br>------- ---------- ------ -- ----- -- ----- -- save ------<br>--- ----- --- --- ------ -------- ----- --- ------ ----- --<br>----- ----- ---------- --- --- ------ ------ ---- -- ------<br>------- --- ------ ----- --- ---- ------- -- ---- --- --<br>------- ------,185274.89999997616,185273,185031.855,185043.39999997616,185048.341,185281.596,,20,save
screen,html.Screen,2_1_1_1_21,2022-02-21T10:08:26.784Z,,,,,,,,,,,,,,,,,54,,,,,,,,,,,,,,306.3039999761677,,response,,,,100,,,,,,,Space,keypress(Space),,,,,,,,"-- --- ---- --- ------ ----- ------- ---- -- --- ------- --<br>------- ---------- ------ -- ----- -- ----- -- ---- money,<br>--- ----- --- --- ------ -------- ----- --- ------ ----- --<br>----- ----- ---------- --- --- ------ ------ ---- -- ------<br>------- --- ------ ----- --- ---- ------- -- ---- --- --<br>------- ------",185589.19999992847,185587.89999997616,185265.216,185275.09999990463,185281.596,185598.273,,21,"money,"
screen,html.Screen,2_1_1_1_22,2022-02-21T10:08:27.190Z,,,,,,,,,,,,,,,,,54,,,,,,,,,,,,,,394.7270000000135,,response,,,,100,,,,,,,Space,keypress(Space),,,,,,,,-- --- ---- --- ------ ----- ------- ---- -- --- ------- --<br>------- ---------- ------ -- ----- -- ----- -- ---- ------<br>the ----- --- --- ------ -------- ----- --- ------ ----- --<br>----- ----- ---------- --- --- ------ ------ ---- -- ------<br>------- --- ------ ----- --- ---- ------- -- ---- --- --<br>------- ------,185994.89999997616,185993,185581.743,185589.59999990463,185598.273,185998.124,,22,the
screen,html.Screen,2_1_1_1_23,2022-02-21T10:08:27.401Z,,,,,,,,,,,,,,,,,54,,,,,,,,,,,,,,206.27599997614743,,response,,,,100,,,,,,,Space,keypress(Space),,,,,,,,-- --- ---- --- ------ ----- ------- ---- -- --- ------- --<br>------- ---------- ------ -- ----- -- ----- -- ---- ------<br>--- state --- --- ------ -------- ----- --- ------ ----- --<br>----- ----- ---------- --- --- ------ ------ ---- -- ------<br>------- --- ------ ----- --- ---- ------- -- ---- --- --<br>------- ------,186205.79999995232,186204.39999997616,185981.599,185995.19999992847,185998.124,186214.902,,23,state
screen,html.Screen,2_1_1_1_24,2022-02-21T10:08:27.592Z,,,,,,,,,,,,,,,,,54,,,,,,,,,,,,,,180.49799997615628,,response,,,,100,,,,,,,Space,keypress(Space),,,,,,,,-- --- ---- --- ------ ----- ------- ---- -- --- ------- --<br>------- ---------- ------ -- ----- -- ----- -- ---- ------<br>--- ----- cut --- ------ -------- ----- --- ------ ----- --<br>----- ----- ---------- --- --- ------ ------ ---- -- ------<br>------- --- ------ ----- --- ---- ------- -- ---- --- --<br>------- ------,186397.09999990463,186395.39999997616,186198.26,186206.09999990463,186214.902,186414.838,,24,cut
screen,html.Screen,2_1_1_1_25,2022-02-21T10:08:27.824Z,,,,,,,,,,,,,,,,,54,,,,,,,,,,,,,,212.66200000001118,,response,,,,100,,,,,,,Space,keypress(Space),,,,,,,,-- --- ---- --- ------ ----- ------- ---- -- --- ------- --<br>------- ---------- ------ -- ----- -- ----- -- ---- ------<br>--- ----- --- the ------ -------- ----- --- ------ ----- --<br>----- ----- ---------- --- --- ------ ------ ---- -- ------<br>------- --- ------ ----- --- ---- ------- -- ---- --- --<br>------- ------,186629,186627.5,186398.175,186397.29999995232,186414.838,186653.283,,25,the
screen,html.Screen,2_1_1_1_26,2022-02-21T10:08:28.056Z,,,,,,,,,,,,,,,,,54,,,,,,,,,,,,,,205.7170000000042,,response,,,,100,,,,,,,Space,keypress(Space),,,,,,,,-- --- ---- --- ------ ----- ------- ---- -- --- ------- --<br>------- ---------- ------ -- ----- -- ----- -- ---- ------<br>--- ----- --- --- bonds' -------- ----- --- ------ ----- --<br>----- ----- ---------- --- --- ------ ------ ---- -- ------<br>------- --- ------ ----- --- ---- ------- -- ---- --- --<br>------- ------,186860.5,186859,186614.991,186629.19999992847,186653.283,186864.675,,26,bonds'
screen,html.Screen,2_1_1_1_27,2022-02-21T10:08:28.280Z,,,,,,,,,,,,,,,,,54,,,,,,,,,,,,,,218.4249999046442,,response,,,,100,,,,,,,Space,keypress(Space),,,,,,,,-- --- ---- --- ------ ----- ------- ---- -- --- ------- --<br>------- ---------- ------ -- ----- -- ----- -- ---- ------<br>--- ----- --- --- ------ interest ----- --- ------ ----- --<br>----- ----- ---------- --- --- ------ ------ ---- -- ------<br>------- --- ------ ----- --- ---- ------- -- ---- --- --<br>------- ------,187084.89999997616,187083.09999990463,186848.238,186860.79999995232,186864.675,187097.953,,27,interest
screen,html.Screen,2_1_1_1_28,2022-02-21T10:08:28.531Z,,,,,,,,,,,,,,,,,54,,,,,,,,,,,,,,236.94699997614953,,response,,,,100,,,,,,,Space,keypress(Space),,,,,,,,-- --- ---- --- ------ ----- ------- ---- -- --- ------- --<br>------- ---------- ------ -- ----- -- ----- -- ---- ------<br>--- ----- --- --- ------ -------- rate. --- ------ ----- --<br>----- ----- ---------- --- --- ------ ------ ---- -- ------<br>------- --- ------ ----- --- ---- ------- -- ---- --- --<br>------- ------,187336.29999995232,187334.89999997616,187081.595,187085.19999992847,187097.953,187348.204,,28,rate.
screen,html.Screen,2_1_1_1_29,2022-02-21T10:08:28.806Z,,,,,,,,,,,,,,,,,54,,,,,,,,,,,,,,261.0959999523184,,response,,,,100,,,,,,,Space,keypress(Space),,,,,,,,-- --- ---- --- ------ ----- ------- ---- -- --- ------- --<br>------- ---------- ------ -- ----- -- ----- -- ---- ------<br>--- ----- --- --- ------ -------- ----- The ------ ----- --<br>----- ----- ---------- --- --- ------ ------ ---- -- ------<br>------- --- ------ ----- --- ---- ------- -- ---- --- --<br>------- ------,187611.19999992847,187609.29999995232,187331.678,187336.5,187348.204,187614.697,,29,The
screen,html.Screen,2_1_1_1_30,2022-02-21T10:08:29.133Z,,,,,,,,,,,,,,,,,54,,,,,,,,,,,,,,320.30300000001444,,response,,,,100,,,,,,,Space,keypress(Space),,,,,,,,-- --- ---- --- ------ ----- ------- ---- -- --- ------- --<br>------- ---------- ------ -- ----- -- ----- -- ---- ------<br>--- ----- --- --- ------ -------- ----- --- market ----- --<br>----- ----- ---------- --- --- ------ ------ ---- -- ------<br>------- --- ------ ----- --- ---- ------- -- ---- --- --<br>------- ------,187937.59999990463,187935,187597.991,187611.39999997616,187614.697,187947.829,,30,market
screen,html.Screen,2_1_1_1_31,2022-02-21T10:08:29.373Z,,,,,,,,,,,,,,,,,54,,,,,,,,,,,,,,228.47099995231838,,response,,,,100,,,,,,,Space,keypress(Space),,,,,,,,-- --- ---- --- ------ ----- ------- ---- -- --- ------- --<br>------- ---------- ------ -- ----- -- ----- -- ---- ------<br>--- ----- --- --- ------ -------- ----- --- ------ value --<br>----- ----- ---------- --- --- ------ ------ ---- -- ------<br>------- --- ------ ----- --- ---- ------- -- ---- --- --<br>------- ------,188178.19999992847,188176.29999995232,187931.185,187937.89999997616,187947.829,188181.151,,31,value
screen,html.Screen,2_1_1_1_32,2022-02-21T10:08:29.604Z,,,,,,,,,,,,,,,,,54,,,,,,,,,,,,,,226.34899999998743,,response,,,,100,,,,,,,Space,keypress(Space),,,,,,,,-- --- ---- --- ------ ----- ------- ---- -- --- ------- --<br>------- ---------- ------ -- ----- -- ----- -- ---- ------<br>--- ----- --- --- ------ -------- ----- --- ------ ----- of<br>----- ----- ---------- --- --- ------ ------ ---- -- ------<br>------- --- ------ ----- --- ---- ------- -- ---- --- --<br>------- ------,188408.89999997616,188407.5,188164.533,188178.39999997616,188181.151,188414.499,,32,of
screen,html.Screen,2_1_1_1_33,2022-02-21T10:08:29.848Z,,,,,,,,,,,,,,,,,54,,,,,,,,,,,,,,236.70099992846372,,response,,,,100,,,,,,,Space,keypress(Space),,,,,,,,-- --- ---- --- ------ ----- ------- ---- -- --- ------- --<br>------- ---------- ------ -- ----- -- ----- -- ---- ------<br>--- ----- --- --- ------ -------- ----- --- ------ ----- --<br>these ----- ---------- --- --- ------ ------ ---- -- ------<br>------- --- ------ ----- --- ---- ------- -- ---- --- --<br>------- ------,188653,188651.19999992847,188397.836,188409.19999992847,188414.499,188664.66,,33,these
screen,html.Screen,2_1_1_1_34,2022-02-21T10:08:30.070Z,,,,,,,,,,,,,,,,,54,,,,,,,,,,,,,,208.1399999523128,,response,,,,100,,,,,,,Space,keypress(Space),,,,,,,,-- --- ---- --- ------ ----- ------- ---- -- --- ------- --<br>------- ---------- ------ -- ----- -- ----- -- ---- ------<br>--- ----- --- --- ------ -------- ----- --- ------ ----- --<br>----- bonds ---------- --- --- ------ ------ ---- -- ------<br>------- --- ------ ----- --- ---- ------- -- ---- --- --<br>------- ------,188874.39999997616,188872.79999995232,188647.988,188653.29999995232,188664.66,188881.111,,34,bonds
screen,html.Screen,2_1_1_1_35,2022-02-21T10:08:30.304Z,,,,,,,,,,,,,,,,,54,,,,,,,,,,,,,,225.58899992847,,response,,,,100,,,,,,,Space,keypress(Space),,,,,,,,"-- --- ---- --- ------ ----- ------- ---- -- --- ------- --<br>------- ---------- ------ -- ----- -- ----- -- ---- ------<br>--- ----- --- --- ------ -------- ----- --- ------ ----- --<br>----- ----- plummeted, --- --- ------ ------ ---- -- ------<br>------- --- ------ ----- --- ---- ------- -- ---- --- --<br>------- ------",189108.29999995232,189106.69999992847,188864.794,188874.59999990463,188881.111,189131.351,,35,"plummeted,"
screen,html.Screen,2_1_1_1_36,2022-02-21T10:08:30.506Z,,,,,,,,,,,,,,,,,54,,,,,,,,,,,,,,177.44899995232117,,response,,,,100,,,,,,,Space,keypress(Space),,,,,,,,-- --- ---- --- ------ ----- ------- ---- -- --- ------- --<br>------- ---------- ------ -- ----- -- ----- -- ---- ------<br>--- ----- --- --- ------ -------- ----- --- ------ ----- --<br>----- ----- ---------- and --- ------ ------ ---- -- ------<br>------- --- ------ ----- --- ---- ------- -- ---- --- --<br>------- ------,189311.29999995232,189308.79999995232,189097.907,189108.59999990463,189131.351,189314.32,,36,and
screen,html.Screen,2_1_1_1_37,2022-02-21T10:08:30.689Z,,,,,,,,,,,,,,,,,54,,,,,,,,,,,,,,177.9799999523093,,response,,,,100,,,,,,,Space,keypress(Space),,,,,,,,-- --- ---- --- ------ ----- ------- ---- -- --- ------- --<br>------- ---------- ------ -- ----- -- ----- -- ---- ------<br>--- ----- --- --- ------ -------- ----- --- ------ ----- --<br>----- ----- ---------- --- the ------ ------ ---- -- ------<br>------- --- ------ ----- --- ---- ------- -- ---- --- --<br>------- ------,189493.69999992847,189492.29999995232,189297.782,189311.5,189314.32,189497.711,,37,the
screen,html.Screen,2_1_1_1_38,2022-02-21T10:08:30.870Z,,,,,,,,,,,,,,,,,54,,,,,,,,,,,,,,175.28899999998976,,response,,,,100,,,,,,,Space,keypress(Space),,,,,,,,-- --- ---- --- ------ ----- ------- ---- -- --- ------- --<br>------- ---------- ------ -- ----- -- ----- -- ---- ------<br>--- ----- --- --- ------ -------- ----- --- ------ ----- --<br>----- ----- ---------- --- --- market ------ ---- -- ------<br>------- --- ------ ----- --- ---- ------- -- ---- --- --<br>------- ------,189674.39999997616,189673,189481.341,189493.89999997616,189497.711,189680.987,,38,market
screen,html.Screen,2_1_1_1_39,2022-02-21T10:08:31.121Z,,,,,,,,,,,,,,,,,54,,,,,,,,,,,,,,243.41299997616443,,response,,,,100,,,,,,,Space,keypress(Space),,,,,,,,-- --- ---- --- ------ ----- ------- ---- -- --- ------- --<br>------- ---------- ------ -- ----- -- ----- -- ---- ------<br>--- ----- --- --- ------ -------- ----- --- ------ ----- --<br>----- ----- ---------- --- --- ------ became ---- -- ------<br>------- --- ------ ----- --- ---- ------- -- ---- --- --<br>------- ------,189926.29999995232,189924.39999997616,189664.392,189674.59999990463,189680.987,189930.962,,39,became
screen,html.Screen,2_1_1_1_40,2022-02-21T10:08:31.366Z,,,,,,,,,,,,,,,,,54,,,,,,,,,,,,,,238.2379999284749,,response,,,,100,,,,,,,Space,keypress(Space),,,,,,,,-- --- ---- --- ------ ----- ------- ---- -- --- ------- --<br>------- ---------- ------ -- ----- -- ----- -- ---- ------<br>--- ----- --- --- ------ -------- ----- --- ------ ----- --<br>----- ----- ---------- --- --- ------ ------ wary -- ------<br>------- --- ------ ----- --- ---- ------- -- ---- --- --<br>------- ------,190170.59999990463,190169.19999992847,189914.447,189926.59999990463,189930.962,190180.999,,40,wary
screen,html.Screen,2_1_1_1_41,2022-02-21T10:08:31.577Z,,,,,,,,,,,,,,,,,54,,,,,,,,,,,,,,199.0009999999893,,response,,,,100,,,,,,,Space,keypress(Space),,,,,,,,-- --- ---- --- ------ ----- ------- ---- -- --- ------- --<br>------- ---------- ------ -- ----- -- ----- -- ---- ------<br>--- ----- --- --- ------ -------- ----- --- ------ ----- --<br>----- ----- ---------- --- --- ------ ------ ---- of ------<br>------- --- ------ ----- --- ---- ------- -- ---- --- --<br>------- ------,190381.79999995232,190380,190164.258,190170.89999997616,190180.999,190397.856,,41,of
screen,html.Screen,2_1_1_1_42,2022-02-21T10:08:31.833Z,,,,,,,,,,,,,,,,,54,,,,,,,,,,,,,,238.04399997615837,,response,,,,100,,,,,,,Space,keypress(Space),,,,,,,,-- --- ---- --- ------ ----- ------- ---- -- --- ------- --<br>------- ---------- ------ -- ----- -- ----- -- ---- ------<br>--- ----- --- --- ------ -------- ----- --- ------ ----- --<br>----- ----- ---------- --- --- ------ ------ ---- -- French<br>------- --- ------ ----- --- ---- ------- -- ---- --- --<br>------- ------,190637.39999997616,190635.89999997616,190380.963,190382,190397.856,190647.571,,42,French
screen,html.Screen,2_1_1_1_43,2022-02-21T10:08:32.094Z,,,,,,,,,,,,,,,,,54,,,,,,,,,,,,,,249.42900000000373,,response,,,,100,,,,,,,Space,keypress(Space),,,,,,,,-- --- ---- --- ------ ----- ------- ---- -- --- ------- --<br>------- ---------- ------ -- ----- -- ----- -- ---- ------<br>--- ----- --- --- ------ -------- ----- --- ------ ----- --<br>----- ----- ---------- --- --- ------ ------ ---- -- ------<br>credit. --- ------ ----- --- ---- ------- -- ---- --- --<br>------- ------,190898.59999990463,190897,190631.069,190637.59999990463,190647.571,190914.289,,43,credit.
screen,html.Screen,2_1_1_1_44,2022-02-21T10:08:32.329Z,,,,,,,,,,,,,,,,,54,,,,,,,,,,,,,,217.01099995232653,,response,,,,100,,,,,,,Space,keypress(Space),,,,,,,,-- --- ---- --- ------ ----- ------- ---- -- --- ------- --<br>------- ---------- ------ -- ----- -- ----- -- ---- ------<br>--- ----- --- --- ------ -------- ----- --- ------ ----- --<br>----- ----- ---------- --- --- ------ ------ ---- -- ------<br>------- The ------ ----- --- ---- ------- -- ---- --- --<br>------- ------,191134.19999992847,191131.29999995232,190897.528,190899,190914.289,191147.431,,44,The
screen,html.Screen,2_1_1_1_45,2022-02-21T10:08:32.549Z,,,,,,,,,,,,,,,,,54,,,,,,,,,,,,,,204.96899997614673,,response,,,,100,,,,,,,Space,keypress(Space),,,,,,,,-- --- ---- --- ------ ----- ------- ---- -- --- ------- --<br>------- ---------- ------ -- ----- -- ----- -- ---- ------<br>--- ----- --- --- ------ -------- ----- --- ------ ----- --<br>----- ----- ---------- --- --- ------ ------ ---- -- ------<br>------- --- French ----- --- ---- ------- -- ---- --- --<br>------- ------,191354.19999992847,191352.39999997616,191131.037,191134.79999995232,191147.431,191364.181,,45,French
screen,html.Screen,2_1_1_1_46,2022-02-21T10:08:32.733Z,,,,,,,,,,,,,,,,,54,,,,,,,,,,,,,,172.21899997614673,,response,,,,100,,,,,,,Space,keypress(Space),,,,,,,,-- --- ---- --- ------ ----- ------- ---- -- --- ------- --<br>------- ---------- ------ -- ----- -- ----- -- ---- ------<br>--- ----- --- --- ------ -------- ----- --- ------ ----- --<br>----- ----- ---------- --- --- ------ ------ ---- -- ------<br>------- --- ------ state --- ---- ------- -- ---- --- --<br>------- ------,191537.89999997616,191536.39999997616,191347.508,191354.5,191364.181,191547.791,,46,state
screen,html.Screen,2_1_1_1_47,2022-02-21T10:08:32.985Z,,,,,,,,,,,,,,,,,54,,,,,,,,,,,,,,240.20900000000256,,response,,,,100,,,,,,,Space,keypress(Space),,,,,,,,-- --- ---- --- ------ ----- ------- ---- -- --- ------- --<br>------- ---------- ------ -- ----- -- ----- -- ---- ------<br>--- ----- --- --- ------ -------- ----- --- ------ ----- --<br>----- ----- ---------- --- --- ------ ------ ---- -- ------<br>------- --- ------ ----- was ---- ------- -- ---- --- --<br>------- ------,191790.09999990463,191788,191530.984,191538.19999992847,191547.791,191797.353,,47,was
screen,html.Screen,2_1_1_1_48,2022-02-21T10:08:33.179Z,,,,,,,,,,,,,,,,,54,,,,,,,,,,,,,,184.74699990462977,,response,,,,100,,,,,,,Space,keypress(Space),,,,,,,,-- --- ---- --- ------ ----- ------- ---- -- --- ------- --<br>------- ---------- ------ -- ----- -- ----- -- ---- ------<br>--- ----- --- --- ------ -------- ----- --- ------ ----- --<br>----- ----- ---------- --- --- ------ ------ ---- -- ------<br>------- --- ------ ----- --- left ------- -- ---- --- --<br>------- ------,191983.39999997616,191982.09999990463,191780.951,191790.39999997616,191797.353,191997.469,,48,left
screen,html.Screen,2_1_1_1_49,2022-02-21T10:08:33.551Z,,,,,,,,,,,,,,,,,54,,,,,,,,,,,,,,356.8309999523044,,response,,,,100,,,,,,,Space,keypress(Space),,,,,,,,-- --- ---- --- ------ ----- ------- ---- -- --- ------- --<br>------- ---------- ------ -- ----- -- ----- -- ---- ------<br>--- ----- --- --- ------ -------- ----- --- ------ ----- --<br>----- ----- ---------- --- --- ------ ------ ---- -- ------<br>------- --- ------ ----- --- ---- without -- ---- --- --<br>------- ------,192355.59999990463,192354.29999995232,191980.974,191983.69999992847,191997.469,192364.033,,49,without
screen,html.Screen,2_1_1_1_50,2022-02-21T10:08:33.856Z,,,,,,,,,,,,,,,,,54,,,,,,,,,,,,,,294.86699997616233,,response,,,,100,,,,,,,Space,keypress(Space),,,,,,,,-- --- ---- --- ------ ----- ------- ---- -- --- ------- --<br>------- ---------- ------ -- ----- -- ----- -- ---- ------<br>--- ----- --- --- ------ -------- ----- --- ------ ----- --<br>----- ----- ---------- --- --- ------ ------ ---- -- ------<br>------- --- ------ ----- --- ---- ------- an ---- --- --<br>------- ------,192660.69999992847,192658.89999997616,192347.55,192355.69999992847,192364.033,192663.879,,50,an
screen,html.Screen,2_1_1_1_51,2022-02-21T10:08:34.137Z,,,,,,,,,,,,,,,,,54,,,,,,,,,,,,,,276.82099992848816,,response,,,,100,,,,,,,Space,keypress(Space),,,,,,,,-- --- ---- --- ------ ----- ------- ---- -- --- ------- --<br>------- ---------- ------ -- ----- -- ----- -- ---- ------<br>--- ----- --- --- ------ -------- ----- --- ------ ----- --<br>----- ----- ---------- --- --- ------ ------ ---- -- ------<br>------- --- ------ ----- --- ---- ------- -- easy --- --<br>------- ------,192942.19999992847,192940.69999992847,192647.632,192660.89999997616,192663.879,192947.247,,51,easy
screen,html.Screen,2_1_1_1_52,2022-02-21T10:08:34.402Z,,,,,,,,,,,,,,,,,54,,,,,,,,,,,,,,258.1529999761551,,response,,,,100,,,,,,,Space,keypress(Space),,,,,,,,-- --- ---- --- ------ ----- ------- ---- -- --- ------- --<br>------- ---------- ------ -- ----- -- ----- -- ---- ------<br>--- ----- --- --- ------ -------- ----- --- ------ ----- --<br>----- ----- ---------- --- --- ------ ------ ---- -- ------<br>------- --- ------ ----- --- ---- ------- -- ---- way --<br>------- ------,193206.69999992847,193205.39999997616,192930.587,192942.39999997616,192947.247,193213.881,,52,way
screen,html.Screen,2_1_1_1_53,2022-02-21T10:08:34.687Z,,,,,,,,,,,,,,,,,54,,,,,,,,,,,,,,275.8189999284805,,response,,,,100,,,,,,,Space,keypress(Space),,,,,,,,-- --- ---- --- ------ ----- ------- ---- -- --- ------- --<br>------- ---------- ------ -- ----- -- ----- -- ---- ------<br>--- ----- --- --- ------ -------- ----- --- ------ ----- --<br>----- ----- ---------- --- --- ------ ------ ---- -- ------<br>------- --- ------ ----- --- ---- ------- -- ---- --- of<br>------- ------,193491.5,193489.69999992847,193197.202,193207,193213.881,193497.185,,53,of
screen,html.Screen,2_1_1_1_54,2022-02-21T10:08:34.958Z,,,,,,,,,,,,,,,,,54,,,,,,,,,,,,,,264.4149999046349,,response,,,,100,,,,,,,Space,keypress(Space),,,,,,,,-- --- ---- --- ------ ----- ------- ---- -- --- ------- --<br>------- ---------- ------ -- ----- -- ----- -- ---- ------<br>--- ----- --- --- ------ -------- ----- --- ------ ----- --<br>----- ----- ---------- --- --- ------ ------ ---- -- ------<br>------- --- ------ ----- --- ---- ------- -- ---- --- --<br>raising ------,193763.19999992847,193761.59999990463,193480.71,193491.79999995232,193497.185,193780.707,,54,raising
screen,html.Screen,2_1_1_1_55,2022-02-21T10:08:35.313Z,,,,,,,,,,,,,,,,,54,,,,,,,,,,,,,,335.69299997616326,,response,,,,100,,,,,,,Space,keypress(Space),,,,,,,,-- --- ---- --- ------ ----- ------- ---- -- --- ------- --<br>------- ---------- ------ -- ----- -- ----- -- ---- ------<br>--- ----- --- --- ------ -------- ----- --- ------ ----- --<br>----- ----- ---------- --- --- ------ ------ ---- -- ------<br>------- --- ------ ----- --- ---- ------- -- ---- --- --<br>------- money.,194118.19999992847,194116.39999997616,193764.09,193763.39999997616,193780.707,194130.383,,55,money.
Item 100,flow.Loop,2_1_1_1,2022-02-21T10:08:35.314Z,,,,,,,,,,,,,,,,,,,,,,,,,,,,,,,16150.450999976165,,completion,,,,,A,,,,,,,,,,,silence,,,,,194118.69999992847,194116.39999997616,177949.46,177951,177965.949,194130.383,,,
Question 1,html.Screen,2_1_1_2,2022-02-21T10:08:37.440Z,,,,,,,,,,,,,,,,,,,,,,,,,,,,true,TRUE,,2112.5169999761565,,response,,,,100,A,,,,,,TRUE,click #choice-1,,,,silence,,,,,196245.19999992847,196242.89999997616,194113.859,194118.79999995232,194130.383,196263.602,,,
Question 2,html.Screen,2_1_1_3,2022-02-21T10:08:39.442Z,,,,,,,,,,,,,,,,,,,,,,,,,,,,true,FALSE,,1981.8979999999865,,response,,,,100,A,,,,,,FALSE,click #choice-2,,,,silence,,,,,198247.29999995232,198245.5,196230.169,196245.5,196263.602,198263.179,,,
Item 100,flow.Sequence,2_1_1,2022-02-21T10:08:39.443Z,,,,,,,,,,,,,,,,,,,,,,,,,,,,,,,30278.204999999987,,completion,,,,,,,,,,,,,,,,,,,,,198247.69999992847,198245.5,167950.626,167960.79999995232,167967.295,198263.179,,,
End of Practice,html.Page,2_1_2,2022-02-21T10:08:44.625Z,,,,,,,,,,,,,,,,,,,,,,,,,,,,,,,5165.520999928471,,form submission,,,,,,,,,,,,,,,,,,,,,203429.79999995232,203428.69999992847,198230.238,198247.89999997616,198263.179,203429.188,,,
Practice,flow.Sequence,2_1,2022-02-21T10:08:44.626Z,,,,,,,,,,,,,,,,,,,,,,,,,,,,,,,69723.51799992847,,completion,,,,,,,,,,,,,,,,,,,,,203430.59999990463,203428.69999992847,133688.434,133696,133705.182,203429.188,,,
Trap_instruction,html.Page,2_2_0,2022-02-21T10:08:48.123Z,,,,,,,,,,,,,,,,,,,,,,,,,,,,,,,3497.911999904638,,form submission,,,,,,,,,,,,,,,,,,,,,206927.59999990463,206927.09999990463,203412.764,203431.09999990463,203429.188,206961.957,,,
trap_trial,html.Screen,2_2_1,2022-02-21T10:08:55.208Z,,,,,,,,,,,,,,,,,,,,,,,,,,,,true,1,,7048.74299992848,,response,,,,,,,,,,,1,click #choice-1,,,,,,,,,214012.89999997616,214010.69999992847,206912.244,206927.79999995232,206961.957,214027.814,,,
end of trap trial,html.Page,2_2_2,2022-02-21T10:08:57.930Z,,,,,,,,,,,,,,,,,,,,,,,,,,,,,,,2705.9859999523032,,form submission,,,,,,,,,,,,,,,,,,,,,216734.5,216733.79999995232,214011.126,214013.09999990463,214027.814,216744.006,,,
Trap 1,flow.Sequence,2_2,2022-02-21T10:08:57.930Z,,,,,,,,,,,,,,,,,,,,,,,,,,,,,,,13304.611999952322,,completion,,,,,,,,,,,,,,,,,,,,,216734.89999997616,216733.79999995232,203412.764,203430.89999997616,203429.188,216744.006,,,
Standby,html.Page,2_3_0,2022-02-21T10:09:05.923Z,,,,,,,,,,,,,,,,,,,,,,,,,,,,,,,7999.02900000001,,timeout,,,,,,,,,,,,,,,,,,,,,224728.69999992847,224726.298,216727.409,216735.09999990463,216744.006,224743.035,,,
Holding screen,html.Screen,2_3_1_0_0,2022-02-21T10:09:12.921Z,,,,,,,,,,,,,,,,,,,,,,,,,,,,,,,6999.1449999999895,,timeout,,,,,,,,,,,,,,,,,,,,,231726.79999995232,231725.476,224726.298,224729,224743.035,231742.18,,,
screen,html.Screen,2_3_1_0_1_0,2022-02-21T10:09:13.993Z,,,,,,,,,,,,,,,,,2,,,,,,,,,,,,,,1054.0199999284814,,response,,,,1,A,,,,,,Space,keypress(Space),,,,silence,,,,Two ---- ------ --- ------- ---------- ------- ----------<br>--- --------- --- ----------- ------- ----- ------- ---<br>--------- ---- -- --- ---- -- --------- -- ---- -------<br>-- --------- ------ --- ----- ------ ---- --- --------- --<br>------ - ---- -- --- ----------- ------- ---- ----- -----<br>--- -------- - ------ ---- -- ----- ---- --- --- -----------<br>-- -------,232798.79999995232,232796.19999992847,231725.476,231727.19999992847,231742.18,232809.181,,0,Two
screen,html.Screen,2_3_1_0_1_1,2022-02-21T10:09:14.292Z,,,,,,,,,,,,,,,,,2,,,,,,,,,,,,,,286.6189999523049,,response,,,,1,A,,,,,,Space,keypress(Space),,,,silence,,,,--- days ------ --- ------- ---------- ------- ----------<br>--- --------- --- ----------- ------- ----- ------- ---<br>--------- ---- -- --- ---- -- --------- -- ---- -------<br>-- --------- ------ --- ----- ------ ---- --- --------- --<br>------ - ---- -- --- ----------- ------- ---- ----- -----<br>--- -------- - ------ ---- -- ----- ---- --- --- -----------<br>-- -------,233097.39999997616,233095.79999995232,232792.305,232799.09999990463,232809.181,233108.493,,1,days
screen,html.Screen,2_3_1_0_1_2,2022-02-21T10:09:14.557Z,,,,,,,,,,,,,,,,,2,,,,,,,,,,,,,,252.00700000001234,,response,,,,1,A,,,,,,Space,keypress(Space),,,,silence,,,,"--- ---- later, --- ------- ---------- ------- ----------<br>--- --------- --- ----------- ------- ----- ------- ---<br>--------- ---- -- --- ---- -- --------- -- ---- -------<br>-- --------- ------ --- ----- ------ ---- --- --------- --<br>------ - ---- -- --- ----------- ------- ---- ----- -----<br>--- -------- - ------ ---- -- ----- ---- --- --- -----------<br>-- -------",233362.09999990463,233360.5,233092.125,233097.59999990463,233108.493,233375.166,,2,"later,"
screen,html.Screen,2_3_1_0_1_3,2022-02-21T10:09:14.788Z,,,,,,,,,,,,,,,,,2,,,,,,,,,,,,,,216.93399990463513,,response,,,,1,A,,,,,,Space,keypress(Space),,,,silence,,,,--- ---- ------ the ------- ---------- ------- ----------<br>--- --------- --- ----------- ------- ----- ------- ---<br>--------- ---- -- --- ---- -- --------- -- ---- -------<br>-- --------- ------ --- ----- ------ ---- --- --------- --<br>------ - ---- -- --- ----------- ------- ---- ----- -----<br>--- -------- - ------ ---- -- ----- ---- --- --- -----------<br>-- -------,233593.5,233592.09999990463,233358.887,233362.29999995232,233375.166,233608.735,,3,the
screen,html.Screen,2_3_1_0_1_4,2022-02-21T10:09:15.053Z,,,,,,,,,,,,,,,,,2,,,,,,,,,,,,,,247.76500000001397,,response,,,,1,A,,,,,,Space,keypress(Space),,,,silence,,,,--- ---- ------ --- British ---------- ------- ----------<br>--- --------- --- ----------- ------- ----- ------- ---<br>--------- ---- -- --- ---- -- --------- -- ---- -------<br>-- --------- ------ --- ----- ------ ---- --- --------- --<br>------ - ---- -- --- ----------- ------- ---- ----- -----<br>--- -------- - ------ ---- -- ----- ---- --- --- -----------<br>-- -------,233858.5,233856.5,233592.04,233593.69999992847,233608.735,233875.416,,4,British
screen,html.Screen,2_3_1_0_1_5,2022-02-21T10:09:15.294Z,,,,,,,,,,,,,,,,,2,,,,,,,,,,,,,,221.9839999761607,,response,,,,1,A,,,,,,Space,keypress(Space),,,,silence,,,,--- ---- ------ --- ------- astronomer ------- ----------<br>--- --------- --- ----------- ------- ----- ------- ---<br>--------- ---- -- --- ---- -- --------- -- ---- -------<br>-- --------- ------ --- ----- ------ ---- --- --------- --<br>------ - ---- -- --- ----------- ------- ---- ----- -----<br>--- -------- - ------ ---- -- ----- ---- --- --- -----------<br>-- -------,234099.5,234097.39999997616,233858.681,233858.69999992847,233875.416,234108.794,,5,astronomer
screen,html.Screen,2_3_1_0_1_6,2022-02-21T10:09:15.640Z,,,,,,,,,,,,,,,,,2,,,,,,,,,,,,,,333.7060000000056,,response,,,,1,A,,,,,,Space,keypress(Space),,,,silence,,,,--- ---- ------ --- ------- ---------- Richard ----------<br>--- --------- --- ----------- ------- ----- ------- ---<br>--------- ---- -- --- ---- -- --------- -- ---- -------<br>-- --------- ------ --- ----- ------ ---- --- --------- --<br>------ - ---- -- --- ----------- ------- ---- ----- -----<br>--- -------- - ------ ---- -- ----- ---- --- --- -----------<br>-- -------,234445.29999995232,234442.5,234091.789,234099.79999995232,234108.794,234458.384,,6,Richard
screen,html.Screen,2_3_1_0_1_7,2022-02-21T10:09:15.975Z,,,,,,,,,,,,,,,,,2,,,,,,,,,,,,,,320.0159999761672,,response,,,,1,A,,,,,,Space,keypress(Space),,,,silence,,,,--- ---- ------ --- ------- ---------- ------- Carrington<br>--- --------- --- ----------- ------- ----- ------- ---<br>--------- ---- -- --- ---- -- --------- -- ---- -------<br>-- --------- ------ --- ----- ------ ---- --- --------- --<br>------ - ---- -- --- ----------- ------- ---- ----- -----<br>--- -------- - ------ ---- -- ----- ---- --- --- -----------<br>-- -------,234780.19999992847,234778.39999997616,234442.016,234445.69999992847,234458.384,234791.98,,7,Carrington
screen,html.Screen,2_3_1_0_1_8,2022-02-21T10:09:16.340Z,,,,,,,,,,,,,,,,,2,,,,,,,,,,,,,,350.21999992846395,,response,,,,1,A,,,,,,Space,keypress(Space),,,,silence,,,,--- ---- ------ --- ------- ---------- ------- ----------<br>was --------- --- ----------- ------- ----- ------- ---<br>--------- ---- -- --- ---- -- --------- -- ---- -------<br>-- --------- ------ --- ----- ------ ---- --- --------- --<br>------ - ---- -- --- ----------- ------- ---- ----- -----<br>--- -------- - ------ ---- -- ----- ---- --- --- -----------<br>-- -------,235145.39999997616,235142.19999992847,234775.284,234780.5,234791.98,235158.45,,8,was
screen,html.Screen,2_3_1_0_1_9,2022-02-21T10:09:16.601Z,,,,,,,,,,,,,,,,,2,,,,,,,,,,,,,,246.4499999761465,,response,,,,1,A,,,,,,Space,keypress(Space),,,,silence,,,,--- ---- ------ --- ------- ---------- ------- ----------<br>--- observing --- ----------- ------- ----- ------- ---<br>--------- ---- -- --- ---- -- --------- -- ---- -------<br>-- --------- ------ --- ----- ------ ---- --- --------- --<br>------ - ---- -- --- ----------- ------- ---- ----- -----<br>--- -------- - ------ ---- -- ----- ---- --- --- -----------<br>-- -------,235406.29999995232,235404.89999997616,235141.698,235146,235158.45,235440.035,,9,observing
screen,html.Screen,2_3_1_0_1_10,2022-02-21T10:09:16.854Z,,,,,,,,,,,,,,,,,2,,,,,,,,,,,,,,216.7649999523128,,response,,,,1,A,,,,,,Space,keypress(Space),,,,silence,,,,--- ---- ------ --- ------- ---------- ------- ----------<br>--- --------- the ----------- ------- ----- ------- ---<br>--------- ---- -- --- ---- -- --------- -- ---- -------<br>-- --------- ------ --- ----- ------ ---- --- --------- --<br>------ - ---- -- --- ----------- ------- ---- ----- -----<br>--- -------- - ------ ---- -- ----- ---- --- --- -----------<br>-- -------,235659.09999990463,235656.79999995232,235391.884,235406.59999990463,235440.035,235675.053,,10,the
screen,html.Screen,2_3_1_0_1_11,2022-02-21T10:09:17.106Z,,,,,,,,,,,,,,,,,2,,,,,,,,,,,,,,235.54699990461813,,response,,,,1,A,,,,,,Space,keypress(Space),,,,silence,,,,--- ---- ------ --- ------- ---------- ------- ----------<br>--- --------- --- interesting ------- ----- ------- ---<br>--------- ---- -- --- ---- -- --------- -- ---- -------<br>-- --------- ------ --- ----- ------ ---- --- --------- --<br>------ - ---- -- --- ----------- ------- ---- ----- -----<br>--- -------- - ------ ---- -- ----- ---- --- --- -----------<br>-- -------,235912.09999990463,235910.59999990463,235658.347,235659.29999995232,235675.053,235924.965,,11,interesting
screen,html.Screen,2_3_1_0_1_12,2022-02-21T10:09:17.318Z,,,,,,,,,,,,,,,,,2,,,,,,,,,,,,,,197.33499995231978,,response,,,,1,A,,,,,,Space,keypress(Space),,,,silence,,,,--- ---- ------ --- ------- ---------- ------- ----------<br>--- --------- --- ----------- sunspot ----- ------- ---<br>--------- ---- -- --- ---- -- --------- -- ---- -------<br>-- --------- ------ --- ----- ------ ---- --- --------- --<br>------ - ---- -- --- ----------- ------- ---- ----- -----<br>--- -------- - ------ ---- -- ----- ---- --- --- -----------<br>-- -------,236123.69999992847,236122.29999995232,235908.445,235912.19999992847,235924.965,236158.346,,12,sunspot
screen,html.Screen,2_3_1_0_1_13,2022-02-21T10:09:18.137Z,,,,,,,,,,,,,,,,,2,,,,,,,,,,,,,,782.5539999761677,,response,,,,1,A,,,,,,Space,keypress(Space),,,,silence,,,,--- ---- ------ --- ------- ---------- ------- ----------<br>--- --------- --- ----------- ------- group ------- ---<br>--------- ---- -- --- ---- -- --------- -- ---- -------<br>-- --------- ------ --- ----- ------ ---- --- --------- --<br>------ - ---- -- --- ----------- ------- ---- ----- -----<br>--- -------- - ------ ---- -- ----- ---- --- --- -----------<br>-- -------,236942.69999992847,236940.89999997616,236141.516,236123.89999997616,236158.346,236958.175,,13,group
screen,html.Screen,2_3_1_0_1_14,2022-02-21T10:09:18.632Z,,,,,,,,,,,,,,,,,2,,,,,,,,,,,,,,478.1249999523279,,response,,,,1,A,,,,,,Space,keypress(Space),,,,silence,,,,--- ---- ------ --- ------- ---------- ------- ----------<br>--- --------- --- ----------- ------- ----- through ---<br>--------- ---- -- --- ---- -- --------- -- ---- -------<br>-- --------- ------ --- ----- ------ ---- --- --------- --<br>------ - ---- -- --- ----------- ------- ---- ----- -----<br>--- -------- - ------ ---- -- ----- ---- --- --- -----------<br>-- -------,237437.59999990463,237436.29999995232,236941.621,236943,236958.175,237441.328,,14,through
screen,html.Screen,2_3_1_0_1_15,2022-02-21T10:09:18.918Z,,,,,,,,,,,,,,,,,2,,,,,,,,,,,,,,280.8719999284658,,response,,,,1,A,,,,,,Space,keypress(Space),,,,silence,,,,--- ---- ------ --- ------- ---------- ------- ----------<br>--- --------- --- ----------- ------- ----- ------- his<br>--------- ---- -- --- ---- -- --------- -- ---- -------<br>-- --------- ------ --- ----- ------ ---- --- --------- --<br>------ - ---- -- --- ----------- ------- ---- ----- -----<br>--- -------- - ------ ---- -- ----- ---- --- --- -----------<br>-- -------,237723.89999997616,237722.19999992847,237424.925,237437.79999995232,237441.328,237741.672,,15,his
screen,html.Screen,2_3_1_0_1_16,2022-02-21T10:09:19.330Z,,,,,,,,,,,,,,,,,2,,,,,,,,,,,,,,391.9279999046412,,response,,,,1,A,,,,,,Space,keypress(Space),,,,silence,,,,--- ---- ------ --- ------- ---------- ------- ----------<br>--- --------- --- ----------- ------- ----- ------- ---<br>telescope ---- -- --- ---- -- --------- -- ---- -------<br>-- --------- ------ --- ----- ------ ---- --- --------- --<br>------ - ---- -- --- ----------- ------- ---- ----- -----<br>--- -------- - ------ ---- -- ----- ---- --- --- -----------<br>-- -------,238135.39999997616,238133.59999990463,237724.633,237724.19999992847,237741.672,238141.31,,16,telescope
screen,html.Screen,2_3_1_0_1_17,2022-02-21T10:09:19.665Z,,,,,,,,,,,,,,,,,2,,,,,,,,,,,,,,327.08999997616047,,response,,,,1,A,,,,,,Space,keypress(Space),,,,silence,,,,--- ---- ------ --- ------- ---------- ------- ----------<br>--- --------- --- ----------- ------- ----- ------- ---<br>--------- when -- --- ---- -- --------- -- ---- -------<br>-- --------- ------ --- ----- ------ ---- --- --------- --<br>------ - ---- -- --- ----------- ------- ---- ----- -----<br>--- -------- - ------ ---- -- ----- ---- --- --- -----------<br>-- -------,238470.79999995232,238468.39999997616,238124.727,238135.69999992847,238141.31,238474.449,,17,when
screen,html.Screen,2_3_1_0_1_18,2022-02-21T10:09:19.949Z,,,,,,,,,,,,,,,,,2,,,,,,,,,,,,,,278.55100000000675,,response,,,,1,A,,,,,,Space,keypress(Space),,,,silence,,,,--- ---- ------ --- ------- ---------- ------- ----------<br>--- --------- --- ----------- ------- ----- ------- ---<br>--------- ---- he --- ---- -- --------- -- ---- -------<br>-- --------- ------ --- ----- ------ ---- --- --------- --<br>------ - ---- -- --- ----------- ------- ---- ----- -----<br>--- -------- - ------ ---- -- ----- ---- --- --- -----------<br>-- -------,238754.79999995232,238753,238457.907,238470.89999997616,238474.449,238757.803,,18,he
screen,html.Screen,2_3_1_0_1_19,2022-02-21T10:09:20.241Z,,,,,,,,,,,,,,,,,2,,,,,,,,,,,,,,286.79699990461813,,response,,,,1,A,,,,,,Space,keypress(Space),,,,silence,,,,--- ---- ------ --- ------- ---------- ------- ----------<br>--- --------- --- ----------- ------- ----- ------- ---<br>--------- ---- -- saw ---- -- --------- -- ---- -------<br>-- --------- ------ --- ----- ------ ---- --- --------- --<br>------ - ---- -- --- ----------- ------- ---- ----- -----<br>--- -------- - ------ ---- -- ----- ---- --- --- -----------<br>-- -------,239046.29999995232,239044.59999990463,238741.432,238755.09999990463,238757.803,239057.752,,19,saw
screen,html.Screen,2_3_1_0_1_20,2022-02-21T10:09:20.495Z,,,,,,,,,,,,,,,,,2,,,,,,,,,,,,,,241.34799990462488,,response,,,,1,A,,,,,,Space,keypress(Space),,,,silence,,,,--- ---- ------ --- ------- ---------- ------- ----------<br>--- --------- --- ----------- ------- ----- ------- ---<br>--------- ---- -- --- what -- --------- -- ---- -------<br>-- --------- ------ --- ----- ------ ---- --- --------- --<br>------ - ---- -- --- ----------- ------- ---- ----- -----<br>--- -------- - ------ ---- -- ----- ---- --- --- -----------<br>-- -------,239300.59999990463,239299.09999990463,239041.56,239046.59999990463,239057.752,239307.743,,20,what
screen,html.Screen,2_3_1_0_1_21,2022-02-21T10:09:20.951Z,,,,,,,,,,,,,,,,,2,,,,,,,,,,,,,,446.8569999046449,,response,,,,1,A,,,,,,Space,keypress(Space),,,,silence,,,,--- ---- ------ --- ------- ---------- ------- ----------<br>--- --------- --- ----------- ------- ----- ------- ---<br>--------- ---- -- --- ---- he --------- -- ---- -------<br>-- --------- ------ --- ----- ------ ---- --- --------- --<br>------ - ---- -- --- ----------- ------- ---- ----- -----<br>--- -------- - ------ ---- -- ----- ---- --- --- -----------<br>-- -------,239756.39999997616,239754.59999990463,239291.135,239300.89999997616,239307.743,239791.309,,21,he
screen,html.Screen,2_3_1_0_1_22,2022-02-21T10:09:21.282Z,,,,,,,,,,,,,,,,,2,,,,,,,,,,,,,,294.9909999523079,,response,,,,1,A,,,,,,Space,keypress(Space),,,,silence,,,,--- ---- ------ --- ------- ---------- ------- ----------<br>--- --------- --- ----------- ------- ----- ------- ---<br>--------- ---- -- --- ---- -- described -- ---- -------<br>-- --------- ------ --- ----- ------ ---- --- --------- --<br>------ - ---- -- --- ----------- ------- ---- ----- -----<br>--- -------- - ------ ---- -- ----- ---- --- --- -----------<br>-- -------,240088,240086.29999995232,239774.612,239756.69999992847,239791.309,240090.952,,22,described
screen,html.Screen,2_3_1_0_1_23,2022-02-21T10:09:21.538Z,,,,,,,,,,,,,,,,,2,,,,,,,,,,,,,,249.94799997616792,,response,,,,1,A,,,,,,Space,keypress(Space),,,,silence,,,,--- ---- ------ --- ------- ---------- ------- ----------<br>--- --------- --- ----------- ------- ----- ------- ---<br>--------- ---- -- --- ---- -- --------- as ---- -------<br>-- --------- ------ --- ----- ------ ---- --- --------- --<br>------ - ---- -- --- ----------- ------- ---- ----- -----<br>--- -------- - ------ ---- -- ----- ---- --- --- -----------<br>-- -------,240343.29999995232,240340.89999997616,240074.456,240088.29999995232,240090.952,240357.801,,23,as
screen,html.Screen,2_3_1_0_1_24,2022-02-21T10:09:21.807Z,,,,,,,,,,,,,,,,,2,,,,,,,,,,,,,,253.5989999761514,,response,,,,1,A,,,,,,Space,keypress(Space),,,,silence,,,,"--- ---- ------ --- ------- ---------- ------- ----------<br>--- --------- --- ----------- ------- ----- ------- ---<br>--------- ---- -- --- ---- -- --------- -- ""two -------<br>-- --------- ------ --- ----- ------ ---- --- --------- --<br>------ - ---- -- --- ----------- ------- ---- ----- -----<br>--- -------- - ------ ---- -- ----- ---- --- --- -----------<br>-- -------",240612.5,240611.39999997616,240341.148,240343.59999990463,240357.801,240624.264,,24,"""two"
screen,html.Screen,2_3_1_0_1_25,2022-02-21T10:09:22.154Z,,,,,,,,,,,,,,,,,2,,,,,,,,,,,,,,332.93599992847885,,response,,,,1,A,,,,,,Space,keypress(Space),,,,silence,,,,--- ---- ------ --- ------- ---------- ------- ----------<br>--- --------- --- ----------- ------- ----- ------- ---<br>--------- ---- -- --- ---- -- --------- -- ---- patches<br>-- --------- ------ --- ----- ------ ---- --- --------- --<br>------ - ---- -- --- ----------- ------- ---- ----- -----<br>--- -------- - ------ ---- -- ----- ---- --- --- -----------<br>-- -------,240959.09999990463,240957.19999992847,240607.642,240612.59999990463,240624.264,240974.322,,25,patches
screen,html.Screen,2_3_1_0_1_26,2022-02-21T10:09:22.489Z,,,,,,,,,,,,,,,,,2,,,,,,,,,,,,,,318.0779999761726,,response,,,,1,A,,,,,,Space,keypress(Space),,,,silence,,,,--- ---- ------ --- ------- ---------- ------- ----------<br>--- --------- --- ----------- ------- ----- ------- ---<br>--------- ---- -- --- ---- -- --------- -- ---- -------<br>of --------- ------ --- ----- ------ ---- --- --------- --<br>------ - ---- -- --- ----------- ------- ---- ----- -----<br>--- -------- - ------ ---- -- ----- ---- --- --- -----------<br>-- -------,241294.19999992847,241292.39999997616,240957.513,240959.29999995232,240974.322,241307.543,,26,of
screen,html.Screen,2_3_1_0_1_27,2022-02-21T10:09:22.742Z,,,,,,,,,,,,,,,,,2,,,,,,,,,,,,,,238.05699990462745,,response,,,,1,A,,,,,,Space,keypress(Space),,,,silence,,,,--- ---- ------ --- ------- ---------- ------- ----------<br>--- --------- --- ----------- ------- ----- ------- ---<br>--------- ---- -- --- ---- -- --------- -- ---- -------<br>-- intensely ------ --- ----- ------ ---- --- --------- --<br>------ - ---- -- --- ----------- ------- ---- ----- -----<br>--- -------- - ------ ---- -- ----- ---- --- --- -----------<br>-- -------,241547.39999997616,241545.59999990463,241291.034,241294.39999997616,241307.543,241557.381,,27,intensely
screen,html.Screen,2_3_1_0_1_28,2022-02-21T10:09:23.025Z,,,,,,,,,,,,,,,,,2,,,,,,,,,,,,,,271.8189999284805,,response,,,,1,A,,,,,,Space,keypress(Space),,,,silence,,,,--- ---- ------ --- ------- ---------- ------- ----------<br>--- --------- --- ----------- ------- ----- ------- ---<br>--------- ---- -- --- ---- -- --------- -- ---- -------<br>-- --------- bright --- ----- ------ ---- --- --------- --<br>------ - ---- -- --- ----------- ------- ---- ----- -----<br>--- -------- - ------ ---- -- ----- ---- --- --- -----------<br>-- -------,241830.69999992847,241829.19999992847,241540.953,241547.59999990463,241557.381,241840.883,,28,bright
screen,html.Screen,2_3_1_0_1_29,2022-02-21T10:09:23.320Z,,,,,,,,,,,,,,,,,2,,,,,,,,,,,,,,280.11699999999837,,response,,,,1,A,,,,,,Space,keypress(Space),,,,silence,,,,--- ---- ------ --- ------- ---------- ------- ----------<br>--- --------- --- ----------- ------- ----- ------- ---<br>--------- ---- -- --- ---- -- --------- -- ---- -------<br>-- --------- ------ and ----- ------ ---- --- --------- --<br>------ - ---- -- --- ----------- ------- ---- ----- -----<br>--- -------- - ------ ---- -- ----- ---- --- --- -----------<br>-- -------,242126,242121,241824.378,241830.89999997616,241840.883,242141.11,,29,and
screen,html.Screen,2_3_1_0_1_30,2022-02-21T10:09:23.612Z,,,,,,,,,,,,,,,,,2,,,,,,,,,,,,,,274.7899999761721,,response,,,,1,A,,,,,,Space,keypress(Space),,,,silence,,,,--- ---- ------ --- ------- ---------- ------- ----------<br>--- --------- --- ----------- ------- ----- ------- ---<br>--------- ---- -- --- ---- -- --------- -- ---- -------<br>-- --------- ------ --- white ------ ---- --- --------- --<br>------ - ---- -- --- ----------- ------- ---- ----- -----<br>--- -------- - ------ ---- -- ----- ---- --- --- -----------<br>-- -------,242417.29999995232,242415.89999997616,242124.247,242126.19999992847,242141.11,242424.081,,30,white
screen,html.Screen,2_3_1_0_1_31,2022-02-21T10:09:23.873Z,,,,,,,,,,,,,,,,,2,,,,,,,,,,,,,,252.61899992846884,,response,,,,1,A,,,,,,Space,keypress(Space),,,,silence,,,,"--- ---- ------ --- ------- ---------- ------- ----------<br>--- --------- --- ----------- ------- ----- ------- ---<br>--------- ---- -- --- ---- -- --------- -- ---- -------<br>-- --------- ------ --- ----- light"" ---- --- --------- --<br>------ - ---- -- --- ----------- ------- ---- ----- -----<br>--- -------- - ------ ---- -- ----- ---- --- --- -----------<br>-- -------",242678.19999992847,242676.69999992847,242407.47,242417.5,242424.081,242690.633,,31,"light"""
screen,html.Screen,2_3_1_0_1_32,2022-02-21T10:09:24.138Z,,,,,,,,,,,,,,,,,2,,,,,,,,,,,,,,251.5669999284728,,response,,,,1,A,,,,,,Space,keypress(Space),,,,silence,,,,--- ---- ------ --- ------- ---------- ------- ----------<br>--- --------- --- ----------- ------- ----- ------- ---<br>--------- ---- -- --- ---- -- --------- -- ---- -------<br>-- --------- ------ --- ----- ------ over --- --------- --<br>------ - ---- -- --- ----------- ------- ---- ----- -----<br>--- -------- - ------ ---- -- ----- ---- --- --- -----------<br>-- -------,242943.59999990463,242942.19999992847,242674.183,242678.5,242690.633,242957.354,,32,over
screen,html.Screen,2_3_1_0_1_33,2022-02-21T10:09:24.419Z,,,,,,,,,,,,,,,,,2,,,,,,,,,,,,,,265.54599997616606,,response,,,,1,A,,,,,,Space,keypress(Space),,,,silence,,,,--- ---- ------ --- ------- ---------- ------- ----------<br>--- --------- --- ----------- ------- ----- ------- ---<br>--------- ---- -- --- ---- -- --------- -- ---- -------<br>-- --------- ------ --- ----- ------ ---- the --------- --<br>------ - ---- -- --- ----------- ------- ---- ----- -----<br>--- -------- - ------ ---- -- ----- ---- --- --- -----------<br>-- -------,243224.79999995232,243222.89999997616,242940.723,242943.89999997616,242957.354,243240.733,,33,the
screen,html.Screen,2_3_1_0_1_34,2022-02-21T10:09:24.734Z,,,,,,,,,,,,,,,,,2,,,,,,,,,,,,,,296.8669999046251,,response,,,,1,A,,,,,,Space,keypress(Space),,,,silence,,,,--- ---- ------ --- ------- ---------- ------- ----------<br>--- --------- --- ----------- ------- ----- ------- ---<br>--------- ---- -- --- ---- -- --------- -- ---- -------<br>-- --------- ------ --- ----- ------ ---- --- sunspots. --<br>------ - ---- -- --- ----------- ------- ---- ----- -----<br>--- -------- - ------ ---- -- ----- ---- --- --- -----------<br>-- -------,243539.59999990463,243537.59999990463,243224.064,243225,243240.733,243573.961,,34,sunspots.
screen,html.Screen,2_3_1_0_1_35,2022-02-21T10:09:25.008Z,,,,,,,,,,,,,,,,,2,,,,,,,,,,,,,,238.53899999998976,,response,,,,1,A,,,,,,Space,keypress(Space),,,,silence,,,,--- ---- ------ --- ------- ---------- ------- ----------<br>--- --------- --- ----------- ------- ----- ------- ---<br>--------- ---- -- --- ---- -- --------- -- ---- -------<br>-- --------- ------ --- ----- ------ ---- --- --------- He<br>------ - ---- -- --- ----------- ------- ---- ----- -----<br>--- -------- - ------ ---- -- ----- ---- --- --- -----------<br>-- -------,243814,243812.5,243557.406,243539.89999997616,243573.961,243823.872,,35,He
screen,html.Screen,2_3_1_0_1_36,2022-02-21T10:09:25.300Z,,,,,,,,,,,,,,,,,2,,,,,,,,,,,,,,279.92799995231326,,response,,,,1,A,,,,,,Space,keypress(Space),,,,silence,,,,--- ---- ------ --- ------- ---------- ------- ----------<br>--- --------- --- ----------- ------- ----- ------- ---<br>--------- ---- -- --- ---- -- --------- -- ---- -------<br>-- --------- ------ --- ----- ------ ---- --- --------- --<br>jotted - ---- -- --- ----------- ------- ---- ----- -----<br>--- -------- - ------ ---- -- ----- ---- --- --- -----------<br>-- -------,244105.59999990463,244103.79999995232,243807.162,243814.5,243823.872,244123.875,,36,jotted
screen,html.Screen,2_3_1_0_1_37,2022-02-21T10:09:25.575Z,,,,,,,,,,,,,,,,,2,,,,,,,,,,,,,,254.32499992847443,,response,,,,1,A,,,,,,Space,keypress(Space),,,,silence,,,,--- ---- ------ --- ------- ---------- ------- ----------<br>--- --------- --- ----------- ------- ----- ------- ---<br>--------- ---- -- --- ---- -- --------- -- ---- -------<br>-- --------- ------ --- ----- ------ ---- --- --------- --<br>------ a ---- -- --- ----------- ------- ---- ----- -----<br>--- -------- - ------ ---- -- ----- ---- --- --- -----------<br>-- -------,244380.19999992847,244378.19999992847,244090.685,244105.79999995232,244123.875,244390.373,,37,a
