sender,sender_type,sender_id,timestamp,meta,,Blues,Classical,Country,Dance,Electronic,Folk,Gospel,Hip-Hop,Jazz,Latin,Musical/Film,New-age,Pop,Prolific_id,Provo_ID,R&B,Rap,Reggae,Religious,Rock,Soul,Swing,Traditional,age,artist_name,correct,correctResponse,distraction,duration,education,ended_on,familiarity,gender,headphone_check_performance,item,list,music_frequency,offensiveness,pleasantness,position_correct,preference,response,response_action,snippet_file,song_name,song_rating,sound,stimulus_1,stimulus_2,stimulus_3,text,time_commit,time_end,time_render,time_run,time_show,time_switch,url,word,word_ID
Prolific ID,html.Form,0,2022-02-02T13:26:17.289Z,"{""labjs_version"":""20.2.2"",""labjs_build"":{""flavor"":""production"",""commit"":""a25486e0c714a0ae2ce03ff94b7bb6896854dcfa""},""location"":""https://run.pavlovia.org/mvasilev/prolific2_music_b/"",""userAgent"":""Mozilla/5.0 (Windows NT 10.0; Win64; x64) AppleWebKit/537.36 (KHTML, like Gecko) Chrome/98.0.4758.81 Safari/537.36"",""platform"":""Win32"",""language"":""en-GB"",""locale"":""en-GB"",""timeZone"":""Europe/London"",""timezoneOffset"":0,""screen_width"":1536,""screen_height"":864,""scroll_width"":1536,""scroll_height"":674,""window_innerWidth"":1536,""window_innerHeight"":722,""devicePixelRatio"":1.25}",,,,,,,,,,,,,,,5edcf3276763349d23ae0c5a,,,,,,,,,,,,,,,5026.4349999523165,,form submission,,,,,,,,,,,,,,,,,,,,,16555.600000023842,16555.299999952316,11495.656,11507.200000047684,11528.865,16562.336,{},,
Introduction,html.Screen,1_0,2022-02-02T13:26:20.181Z,,,,,,,,,,,,,,,,,,,,,,,,,,,,,,,2882.6640000000007,,response,,,,,,,,,,,continue,click button,,,,,,,,,19447,19445,16545.453,16555.899999976158,16562.336,19479.076,,,
Volume calibration,html.Screen,1_1,2022-02-02T13:26:31.871Z,,,,,,,,,,,,,,,,,,,,,,,,,,,,,,,11657.923999999999,,response,,,,,,,,,,,continue,click button,,,,,,,,,31137.799999952316,31137,19462.099,19447,19479.076,31145.369,,,
Task instructions,html.Screen,1_2,2022-02-02T13:26:33.615Z,,,,,,,,,,,,,,,,,,,,,,,,,,,,,,,1735.6310000000012,,response,,,,,,,,,,,continue,click button,,,,,,,,,32881.60000002384,32881,31128.624,31137.899999976158,31145.369,32895.622,,,
Sounds,html.Screen,1_3_0_0,2022-02-02T13:26:37.872Z,,,,,,,,,,,,,,,,,,,,,,,,,,,,,,,4249.824999999997,,timeout,,,,,,,,,2,,,,,,,,O,S,I,,37138.60000002384,37128.777,32878.691,32881.799999952316,32895.622,37145.447,,,
Judgement,html.Screen,1_3_0_1,2022-02-02T13:26:38.508Z,,,,,,,,,,,,,,,,,,,,,,,,,,,,true,2,,627.8529999523162,,response,,,,,,,,,2,,2,click #choice-2,,,,,O,S,I,,37774.39999997616,37773.299999952316,37128.777,37138.60000002384,37145.447,37778.826,,,
Trial,flow.Sequence,1_3_0,2022-02-02T13:26:38.508Z,,,,,,,,,,,,,,,,,,,,,,,,,,,,,,,4877.677999952313,,completion,,,,,,,,,2,,,,,,,,O,S,I,,37774.60000002384,37773.299999952316,32878.691,32881.60000002384,32895.622,37778.826,,,
Sounds,html.Screen,1_3_1_0,2022-02-02T13:26:42.748Z,,,,,,,,,,,,,,,,,,,,,,,,,,,,,,,4249.953000000001,,timeout,,,,,,,,,2,,,,,,,,I,S,O,,42014.10000002384,42012.082,37762.54,37774.700000047684,37778.826,42028.779,,,
Judgement,html.Screen,1_3_1_1,2022-02-02T13:26:43.136Z,,,,,,,,,,,,,,,,,,,,,,,,,,,,true,2,,372.520999952314,,response,,,,,,,,,2,,2,click #choice-2,,,,,I,S,O,,42402.39999997616,42401.299999952316,42012.082,42014.39999997616,42028.779,42412.564,,,
Trial,flow.Sequence,1_3_1,2022-02-02T13:26:43.136Z,,,,,,,,,,,,,,,,,,,,,,,,,,,,,,,4622.473999952315,,completion,,,,,,,,,2,,,,,,,,I,S,O,,42402.60000002384,42401.299999952316,37762.54,37774.60000002384,37778.826,42412.564,,,
Sounds,html.Screen,1_3_2_0,2022-02-02T13:26:47.380Z,,,,,,,,,,,,,,,,,,,,,,,,,,,,,,,4249.821000000004,,timeout,,,,,,,,,3,,,,,,,,I,O,S,,46646.200000047684,46645.455,42395.474,42402.799999952316,42412.564,46662.385,,,
Judgement,html.Screen,1_3_2_1,2022-02-02T13:26:47.759Z,,,,,,,,,,,,,,,,,,,,,,,,,,,,true,3,,362.91499995231425,,response,,,,,,,,,3,,3,click #choice-3,,,,,I,O,S,,47025.799999952316,47025.299999952316,46645.455,46646.299999952316,46662.385,47028.631,,,
Trial,flow.Sequence,1_3_2,2022-02-02T13:26:47.760Z,,,,,,,,,,,,,,,,,,,,,,,,,,,,,,,4612.735999952318,,completion,,,,,,,,,3,,,,,,,,I,O,S,,47026,47025.299999952316,42395.474,42402.700000047684,42412.564,47028.631,,,
Sounds,html.Screen,1_3_3_0,2022-02-02T13:26:51.996Z,,,,,,,,,,,,,,,,,,,,,,,,,,,,,,,4250.606,,timeout,,,,,,,,,3,,,,,,,,O,I,S,,51262.700000047684,51262.09,47012.318,47026,47028.631,51279.237,,,
Judgement,html.Screen,1_3_3_1,2022-02-02T13:26:52.436Z,,,,,,,,,,,,,,,,,,,,,,,,,,,,true,3,,422.262999999999,,response,,,,,,,,,3,,3,click #choice-3,,,,,O,I,S,,51702.299999952316,51701.5,51262.09,51262.89999997616,51279.237,51712.06,,,
Trial,flow.Sequence,1_3_3,2022-02-02T13:26:52.436Z,,,,,,,,,,,,,,,,,,,,,,,,,,,,,,,4672.868999999999,,completion,,,,,,,,,3,,,,,,,,O,I,S,,51702.5,51701.5,47012.318,47026,47028.631,51712.06,,,
Sounds,html.Screen,1_3_4_0,2022-02-02T13:26:56.680Z,,,,,,,,,,,,,,,,,,,,,,,,,,,,,,,4250.006000000001,,timeout,,,,,,,,,1,,,,,,,,S,O,I,,55946.200000047684,55945.37,51695.383,51702.60000002384,51712.06,55962.066,,,
Judgement,html.Screen,1_3_4_1,2022-02-02T13:26:57.272Z,,,,,,,,,,,,,,,,,,,,,,,,,,,,true,1,,575.3339999761592,,response,,,,,,,,,1,,1,click #choice-1,,,,,S,O,I,,56538.200000047684,56537.39999997616,55945.37,55946.299999952316,55962.066,56545.65,,,
Trial,flow.Sequence,1_3_4,2022-02-02T13:26:57.272Z,,,,,,,,,,,,,,,,,,,,,,,,,,,,,,,4825.3399999761605,,completion,,,,,,,,,1,,,,,,,,S,O,I,,56538.5,56537.39999997616,51695.383,51702.60000002384,51712.06,56545.65,,,
Sounds,html.Screen,1_3_5_0,2022-02-02T13:27:01.513Z,,,,,,,,,,,,,,,,,,,,,,,,,,,,,,,4249.8499999999985,,timeout,,,,,,,,,1,,,,,,,,S,I,O,,60779.799999952316,60779.155,56528.666,56538.5,56545.65,60795.5,,,
Judgement,html.Screen,1_3_5_1,2022-02-02T13:27:01.920Z,,,,,,,,,,,,,,,,,,,,,,,,,,,,true,1,,389.7999999523163,,response,,,,,,,,,1,,1,click #choice-1,,,,,S,I,O,,61186.5,61185.299999952316,60779.155,60779.89999997616,60795.5,61195.597,,,
Trial,flow.Sequence,1_3_5,2022-02-02T13:27:01.920Z,,,,,,,,,,,,,,,,,,,,,,,,,,,,,,,4639.649999952315,,completion,,,,,,,,,1,,,,,,,,S,I,O,,61186.700000047684,61185.299999952316,56528.666,56538.5,56545.65,61195.597,,,
Task,flow.Loop,1_3,2022-02-02T13:27:01.922Z,,,,,,,,,,,,,,,,,,,,,,,,,,,,,,,28289.677999952313,,completion,,,1,,,,,,,,,,,,,,,,,,61189,61185.299999952316,32878.691,32881.60000002384,32895.622,61195.597,,,
Trap,html.Screen,1_4,2022-02-02T13:27:01.923Z,,,,,,,,,,,,,,,,,,,,,,,,,,,,,,,NaN,,skipped,,,,,,,,,,,,,,,,,,,,,61189.5,61185.299999952316,,61189.5,,61195.597,,,
Thanks,html.Screen,1_5,2022-02-02T13:27:04.028Z,,,,,,,,,,,,,,,,,,,,,,,,,,,,,,,2098.0030000238403,,response,,,,,,,,,,,continue,click button,,,,,,,,,63294.39999997616,63293.60000002384,61178.951,61189.700000047684,61195.597,64928.796,,,
Headphone screening,flow.Sequence,1,2022-02-02T13:27:04.028Z,,,,,,,,,,,,,,,,,,,,,,,,,,,,,,,46731.264000023846,,completion,,,,,,,,,,,,,,,,,,,,,63294.60000002384,63293.60000002384,16545.453,16555.899999976158,16562.336,64928.796,,,
Instructions,html.Page,2_0,2022-02-02T13:27:19.093Z,,,,,,,,,,,,,,,,,,,,,,,,,,,,,,,13430.103999976156,,form submission,,,,,,,,,,,,,,,,,,,,,78359.20000004768,78358.89999997616,64912.029,64932,64928.796,78362.308,,,
Holding screen,html.Screen,2_1_0_0,2022-02-02T13:27:29.080Z,,,,,,,,,,,,,,,,,,,,,,,,,,,,,,,9999.837999999989,,timeout,,,,,,,,,,,,,,,,,,,,,88346.5,88345.693,78345.272,78359.29999995232,78362.308,88362.146,,,
screen,html.Screen,2_1_0_1_0,2022-02-02T13:27:30.430Z,,,,,,,,,,,,,,,,,53,,,,,,,,,,,,,,1332.4540000238485,,response,,,,99,,,,,,,Space,keypress(Space),,,,,,,,When -- ----- -- ------ - ------- --- ----------<br>------------- ------ ------ ---- ---- ------- ----- -- ----<br>-------- ------- -- ---------- --- - --- ----- ----- ----<br>---- --- --- ----- --- ---- ---- ------- ----- ---- -------<br>--- --- -- ----- -- --- ---- -- --- ---- -- ------ ------<br>--- ----- -- ----,89696.5,89694.60000002384,88345.693,88346.70000004768,88362.146,89712.063,,0,When
screen,html.Screen,2_1_0_1_1,2022-02-02T13:27:31.325Z,,,,,,,,,,,,,,,,,53,,,,,,,,,,,,,,878.3369999761635,,response,,,,99,,,,,,,Space,keypress(Space),,,,,,,,---- it ----- -- ------ - ------- --- ----------<br>------------- ------ ------ ---- ---- ------- ----- -- ----<br>-------- ------- -- ---------- --- - --- ----- ----- ----<br>---- --- --- ----- --- ---- ---- ------- ----- ---- -------<br>--- --- -- ----- -- --- ---- -- --- ---- -- ------ ------<br>--- ----- -- ----,90591,90590.39999997616,89695.612,89696.5,89712.063,90595.707,,1,it
screen,html.Screen,2_1_0_1_2,2022-02-02T13:27:32.741Z,,,,,,,,,,,,,,,,,53,,,,,,,,,,,,,,1410.5929999523214,,response,,,,99,,,,,,,Space,keypress(Space),,,,,,,,---- -- comes -- ------ - ------- --- ----------<br>------------- ------ ------ ---- ---- ------- ----- -- ----<br>-------- ------- -- ---------- --- - --- ----- ----- ----<br>---- --- --- ----- --- ---- ---- ------- ----- ---- -------<br>--- --- -- ----- -- --- ---- -- --- ---- -- ------ ------<br>--- ----- -- ----,92007,92006.29999995232,90578.747,90591,90595.707,92012.5,,2,comes
screen,html.Screen,2_1_0_1_3,2022-02-02T13:27:33.221Z,,,,,,,,,,,,,,,,,53,,,,,,,,,,,,,,473.89999997615814,,response,,,,99,,,,,,,Space,keypress(Space),,,,,,,,---- -- ----- to ------ - ------- --- ----------<br>------------- ------ ------ ---- ---- ------- ----- -- ----<br>-------- ------- -- ---------- --- - --- ----- ----- ----<br>---- --- --- ----- --- ---- ---- ------- ----- ---- -------<br>--- --- -- ----- -- --- ---- -- --- ---- -- ------ ------<br>--- ----- -- ----,92487.10000002384,92486.39999997616,91995.277,92007,92012.5,92495.46,,3,to
screen,html.Screen,2_1_0_1_4,2022-02-02T13:27:33.605Z,,,,,,,,,,,,,,,,,53,,,,,,,,,,,,,,375.0399999999936,,response,,,,99,,,,,,,Space,keypress(Space),,,,,,,,---- -- ----- -- having - ------- --- ----------<br>------------- ------ ------ ---- ---- ------- ----- -- ----<br>-------- ------- -- ---------- --- - --- ----- ----- ----<br>---- --- --- ----- --- ---- ---- ------- ----- ---- -------<br>--- --- -- ----- -- --- ---- -- --- ---- -- ------ ------<br>--- ----- -- ----,92871.20000004768,92870.5,92479.211,92487.20000004768,92495.46,92878.862,,4,having
screen,html.Screen,2_1_0_1_5,2022-02-02T13:27:33.996Z,,,,,,,,,,,,,,,,,53,,,,,,,,,,,,,,383.43799995232257,,response,,,,99,,,,,,,Space,keypress(Space),,,,,,,,---- -- ----- -- ------ a ------- --- ----------<br>------------- ------ ------ ---- ---- ------- ----- -- ----<br>-------- ------- -- ---------- --- - --- ----- ----- ----<br>---- --- --- ----- --- ---- ---- ------- ----- ---- -------<br>--- --- -- ----- -- --- ---- -- --- ---- -- ------ ------<br>--- ----- -- ----,93262.89999997616,93262.29999995232,92862.466,92871.20000004768,92878.862,93279.177,,5,a
screen,html.Screen,2_1_0_1_6,2022-02-02T13:27:34.421Z,,,,,,,,,,,,,,,,,53,,,,,,,,,,,,,,407.5230000476877,,response,,,,99,,,,,,,Space,keypress(Space),,,,,,,,---- -- ----- -- ------ - lasting --- ----------<br>------------- ------ ------ ---- ---- ------- ----- -- ----<br>-------- ------- -- ---------- --- - --- ----- ----- ----<br>---- --- --- ----- --- ---- ---- ------- ----- ---- -------<br>--- --- -- ----- -- --- ---- -- --- ---- -- ------ ------<br>--- ----- -- ----,93687.29999995232,93686.70000004768,93262.059,93263,93279.177,93695.659,,6,lasting
screen,html.Screen,2_1_0_1_7,2022-02-02T13:27:34.869Z,,,,,,,,,,,,,,,,,53,,,,,,,,,,,,,,438.7409999761585,,response,,,,99,,,,,,,Space,keypress(Space),,,,,,,,---- -- ----- -- ------ - ------- and ----------<br>------------- ------ ------ ---- ---- ------- ----- -- ----<br>-------- ------- -- ---------- --- - --- ----- ----- ----<br>---- --- --- ----- --- ---- ---- ------- ----- ---- -------<br>--- --- -- ----- -- --- ---- -- --- ---- -- ------ ------<br>--- ----- -- ----,94135.29999995232,94134.39999997616,93678.771,93687.39999997616,93695.659,94145.458,,7,and
screen,html.Screen,2_1_0_1_8,2022-02-02T13:27:35.357Z,,,,,,,,,,,,,,,,,53,,,,,,,,,,,,,,477.14200002384314,,response,,,,99,,,,,,,Space,keypress(Space),,,,,,,,---- -- ----- -- ------ - ------- --- fulfilling<br>------------- ------ ------ ---- ---- ------- ----- -- ----<br>-------- ------- -- ---------- --- - --- ----- ----- ----<br>---- --- --- ----- --- ---- ---- ------- ----- ---- -------<br>--- --- -- ----- -- --- ---- -- --- ---- -- ------ ------<br>--- ----- -- ----,94623.20000004768,94622.60000002384,94128.679,94135.29999995232,94145.458,94645.417,,8,fulfilling
screen,html.Screen,2_1_0_1_9,2022-02-02T13:27:35.741Z,,,,,,,,,,,,,,,,,53,,,,,,,,,,,,,,360.78300004768244,,response,,,,99,,,,,,,Space,keypress(Space),,,,,,,,"---- -- ----- -- ------ - ------- --- ----------<br>relationship, ------ ------ ---- ---- ------- ----- -- ----<br>-------- ------- -- ---------- --- - --- ----- ----- ----<br>---- --- --- ----- --- ---- ---- ------- ----- ---- -------<br>--- --- -- ----- -- --- ---- -- --- ---- -- ------ ------<br>--- ----- -- ----",95007,95006.20000004768,94612.182,94623.29999995232,94645.417,95028.779,,9,"relationship,"
screen,html.Screen,2_1_0_1_10,2022-02-02T13:27:36.261Z,,,,,,,,,,,,,,,,,53,,,,,,,,,,,,,,497.5209999523213,,response,,,,99,,,,,,,Space,keypress(Space),,,,,,,,---- -- ----- -- ------ - ------- --- ----------<br>------------- common ------ ---- ---- ------- ----- -- ----<br>-------- ------- -- ---------- --- - --- ----- ----- ----<br>---- --- --- ----- --- ---- ---- ------- ----- ---- -------<br>--- --- -- ----- -- --- ---- -- --- ---- -- ------ ------<br>--- ----- -- ----,95527,95526.29999995232,94995.471,95007.10000002384,95028.779,95529.261,,10,common
screen,html.Screen,2_1_0_1_11,2022-02-02T13:27:36.669Z,,,,,,,,,,,,,,,,,53,,,,,,,,,,,,,,405.4390000476851,,response,,,,99,,,,,,,Space,keypress(Space),,,,,,,,---- -- ----- -- ------ - ------- --- ----------<br>------------- ------ wisdom ---- ---- ------- ----- -- ----<br>-------- ------- -- ---------- --- - --- ----- ----- ----<br>---- --- --- ----- --- ---- ---- ------- ----- ---- -------<br>--- --- -- ----- -- --- ---- -- --- ---- -- ------ ------<br>--- ----- -- ----,95935.10000002384,95934.70000004768,95512.121,95527.10000002384,95529.261,95945.618,,11,wisdom
screen,html.Screen,2_1_0_1_12,2022-02-02T13:27:37.076Z,,,,,,,,,,,,,,,,,53,,,,,,,,,,,,,,396.48200002383965,,response,,,,99,,,,,,,Space,keypress(Space),,,,,,,,---- -- ----- -- ------ - ------- --- ----------<br>------------- ------ ------ says ---- ------- ----- -- ----<br>-------- ------- -- ---------- --- - --- ----- ----- ----<br>---- --- --- ----- --- ---- ---- ------- ----- ---- -------<br>--- --- -- ----- -- --- ---- -- --- ---- -- ------ ------<br>--- ----- -- ----,96342.70000004768,96342.10000002384,95928.84,95935.20000004768,95945.618,96345.844,,12,says
screen,html.Screen,2_1_0_1_13,2022-02-02T13:27:37.469Z,,,,,,,,,,,,,,,,,53,,,,,,,,,,,,,,388.5559999761608,,response,,,,99,,,,,,,Space,keypress(Space),,,,,,,,---- -- ----- -- ------ - ------- --- ----------<br>------------- ------ ------ ---- that ------- ----- -- ----<br>-------- ------- -- ---------- --- - --- ----- ----- ----<br>---- --- --- ----- --- ---- ---- ------- ----- ---- -------<br>--- --- -- ----- -- --- ---- -- --- ---- -- ------ ------<br>--- ----- -- ----,96735.10000002384,96734.39999997616,96328.857,96342.79999995232,96345.844,96745.598,,13,that
screen,html.Screen,2_1_0_1_14,2022-02-02T13:27:37.820Z,,,,,,,,,,,,,,,,,53,,,,,,,,,,,,,,340.30199997616,,response,,,,99,,,,,,,Space,keypress(Space),,,,,,,,---- -- ----- -- ------ - ------- --- ----------<br>------------- ------ ------ ---- ---- feeling ----- -- ----<br>-------- ------- -- ---------- --- - --- ----- ----- ----<br>---- --- --- ----- --- ---- ---- ------- ----- ---- -------<br>--- --- -- ----- -- --- ---- -- --- ---- -- ------ ------<br>--- ----- -- ----,97086.39999997616,97085.89999997616,96728.859,96735.20000004768,96745.598,97095.847,,14,feeling
screen,html.Screen,2_1_0_1_15,2022-02-02T13:27:38.221Z,,,,,,,,,,,,,,,,,53,,,,,,,,,,,,,,390.452999952322,,response,,,,99,,,,,,,Space,keypress(Space),,,,,,,,---- -- ----- -- ------ - ------- --- ----------<br>------------- ------ ------ ---- ---- ------- close -- ----<br>-------- ------- -- ---------- --- - --- ----- ----- ----<br>---- --- --- ----- --- ---- ---- ------- ----- ---- -------<br>--- --- -- ----- -- --- ---- -- --- ---- -- ------ ------<br>--- ----- -- ----,97487.10000002384,97486.29999995232,97079.183,97086.39999997616,97095.847,97496,,15,close
screen,html.Screen,2_1_0_1_16,2022-02-02T13:27:38.580Z,,,,,,,,,,,,,,,,,53,,,,,,,,,,,,,,350.10000002384186,,response,,,,99,,,,,,,Space,keypress(Space),,,,,,,,---- -- ----- -- ------ - ------- --- ----------<br>------------- ------ ------ ---- ---- ------- ----- to ----<br>-------- ------- -- ---------- --- - --- ----- ----- ----<br>---- --- --- ----- --- ---- ---- ------- ----- ---- -------<br>--- --- -- ----- -- --- ---- -- --- ---- -- ------ ------<br>--- ----- -- ----,97846.89999997616,97846.10000002384,97479.208,97487.10000002384,97496,97862.012,,16,to
screen,html.Screen,2_1_0_1_17,2022-02-02T13:27:38.988Z,,,,,,,,,,,,,,,,,53,,,,,,,,,,,,,,392.18800004768127,,response,,,,99,,,,,,,Space,keypress(Space),,,,,,,,---- -- ----- -- ------ - ------- --- ----------<br>------------- ------ ------ ---- ---- ------- ----- -- your<br>-------- ------- -- ---------- --- - --- ----- ----- ----<br>---- --- --- ----- --- ---- ---- ------- ----- ---- -------<br>--- --- -- ----- -- --- ---- -- --- ---- -- ------ ------<br>--- ----- -- ----,98254.89999997616,98254.20000004768,97845.6,97846.89999997616,97862.012,98262.365,,17,your
screen,html.Screen,2_1_0_1_18,2022-02-02T13:27:39.357Z,,,,,,,,,,,,,,,,,53,,,,,,,,,,,,,,360.13499999999476,,response,,,,99,,,,,,,Space,keypress(Space),,,,,,,,---- -- ----- -- ------ - ------- --- ----------<br>------------- ------ ------ ---- ---- ------- ----- -- ----<br>romantic ------- -- ---------- --- - --- ----- ----- ----<br>---- --- --- ----- --- ---- ---- ------- ----- ---- -------<br>--- --- -- ----- -- --- ---- -- --- ---- -- ------ ------<br>--- ----- -- ----,98623,98622.5,98245.283,98255,98262.365,98629.157,,18,romantic
screen,html.Screen,2_1_0_1_19,2022-02-02T13:27:39.724Z,,,,,,,,,,,,,,,,,53,,,,,,,,,,,,,,361.0430000476772,,response,,,,99,,,,,,,Space,keypress(Space),,,,,,,,---- -- ----- -- ------ - ------- --- ----------<br>------------- ------ ------ ---- ---- ------- ----- -- ----<br>-------- partner -- ---------- --- - --- ----- ----- ----<br>---- --- --- ----- --- ---- ---- ------- ----- ---- -------<br>--- --- -- ----- -- --- ---- -- --- ---- -- ------ ------<br>--- ----- -- ----,98990.89999997616,98990.20000004768,98612.068,98623.10000002384,98629.157,98995.57,,19,partner
screen,html.Screen,2_1_0_1_20,2022-02-02T13:27:40.149Z,,,,,,,,,,,,,,,,,53,,,,,,,,,,,,,,418.82999997615116,,response,,,,99,,,,,,,Space,keypress(Space),,,,,,,,---- -- ----- -- ------ - ------- --- ----------<br>------------- ------ ------ ---- ---- ------- ----- -- ----<br>-------- ------- is ---------- --- - --- ----- ----- ----<br>---- --- --- ----- --- ---- ---- ------- ----- ---- -------<br>--- --- -- ----- -- --- ---- -- --- ---- -- ------ ------<br>--- ----- -- ----,99415.10000002384,99414.39999997616,98978.642,98991,98995.57,99428.793,,20,is
screen,html.Screen,2_1_0_1_21,2022-02-02T13:27:40.597Z,,,,,,,,,,,,,,,,,53,,,,,,,,,,,,,,433.7069999999949,,response,,,,99,,,,,,,Space,keypress(Space),,,,,,,,---- -- ----- -- ------ - ------- --- ----------<br>------------- ------ ------ ---- ---- ------- ----- -- ----<br>-------- ------- -- paramount. --- - --- ----- ----- ----<br>---- --- --- ----- --- ---- ---- ------- ----- ---- -------<br>--- --- -- ----- -- --- ---- -- --- ---- -- ------ ------<br>--- ----- -- ----,99863.20000004768,99862.5,99411.919,99415.20000004768,99428.793,99878.785,,21,paramount.
screen,html.Screen,2_1_0_1_22,2022-02-02T13:27:40.996Z,,,,,,,,,,,,,,,,,53,,,,,,,,,,,,,,383.61499997615465,,response,,,,99,,,,,,,Space,keypress(Space),,,,,,,,---- -- ----- -- ------ - ------- --- ----------<br>------------- ------ ------ ---- ---- ------- ----- -- ----<br>-------- ------- -- ---------- But - --- ----- ----- ----<br>---- --- --- ----- --- ---- ---- ------- ----- ---- -------<br>--- --- -- ----- -- --- ---- -- --- ---- -- ------ ------<br>--- ----- -- ----,100262.89999997616,100262.39999997616,99861.939,99863.20000004768,99878.785,100278.782,,22,But
screen,html.Screen,2_1_0_1_23,2022-02-02T13:27:41.389Z,,,,,,,,,,,,,,,,,53,,,,,,,,,,,,,,375.7179999999935,,response,,,,99,,,,,,,Space,keypress(Space),,,,,,,,---- -- ----- -- ------ - ------- --- ----------<br>------------- ------ ------ ---- ---- ------- ----- -- ----<br>-------- ------- -- ---------- --- a --- ----- ----- ----<br>---- --- --- ----- --- ---- ---- ------- ----- ---- -------<br>--- --- -- ----- -- --- ---- -- --- ---- -- ------ ------<br>--- ----- -- ----,100655.20000004768,100654.5,100262.424,100263,100278.782,100662.358,,23,a
screen,html.Screen,2_1_0_1_24,2022-02-02T13:27:41.693Z,,,,,,,,,,,,,,,,,53,,,,,,,,,,,,,,296.6420000000071,,response,,,,99,,,,,,,Space,keypress(Space),,,,,,,,---- -- ----- -- ------ - ------- --- ----------<br>------------- ------ ------ ---- ---- ------- ----- -- ----<br>-------- ------- -- ---------- --- - new ----- ----- ----<br>---- --- --- ----- --- ---- ---- ------- ----- ---- -------<br>--- --- -- ----- -- --- ---- -- --- ---- -- ------ ------<br>--- ----- -- ----,100959.79999995232,100959,100645.773,100655.29999995232,100662.358,100979.042,,24,new
screen,html.Screen,2_1_0_1_25,2022-02-02T13:27:42.044Z,,,,,,,,,,,,,,,,,53,,,,,,,,,,,,,,330.9579999999987,,response,,,,99,,,,,,,Space,keypress(Space),,,,,,,,---- -- ----- -- ------ - ------- --- ----------<br>------------- ------ ------ ---- ---- ------- ----- -- ----<br>-------- ------- -- ---------- --- - --- study ----- ----<br>---- --- --- ----- --- ---- ---- ------- ----- ---- -------<br>--- --- -- ----- -- --- ---- -- --- ---- -- ------ ------<br>--- ----- -- ----,101310.79999995232,101310,100945.622,100959.79999995232,100979.042,101335.468,,25,study
screen,html.Screen,2_1_0_1_26,2022-02-02T13:27:42.501Z,,,,,,,,,,,,,,,,,53,,,,,,,,,,,,,,431.43199997616466,,response,,,,99,,,,,,,Space,keypress(Space),,,,,,,,---- -- ----- -- ------ - ------- --- ----------<br>------------- ------ ------ ---- ---- ------- ----- -- ----<br>-------- ------- -- ---------- --- - --- ----- finds ----<br>---- --- --- ----- --- ---- ---- ------- ----- ---- -------<br>--- --- -- ----- -- --- ---- -- --- ---- -- ------ ------<br>--- ----- -- ----,101767.60000002384,101766.89999997616,101296.022,101310.79999995232,101335.468,101779.149,,26,finds
screen,html.Screen,2_1_0_1_27,2022-02-02T13:27:42.933Z,,,,,,,,,,,,,,,,,53,,,,,,,,,,,,,,420.0510000476788,,response,,,,99,,,,,,,Space,keypress(Space),,,,,,,,---- -- ----- -- ------ - ------- --- ----------<br>------------- ------ ------ ---- ---- ------- ----- -- ----<br>-------- ------- -- ---------- --- - --- ----- ----- that<br>---- --- --- ----- --- ---- ---- ------- ----- ---- -------<br>--- --- -- ----- -- --- ---- -- --- ---- -- ------ ------<br>--- ----- -- ----,102199.70000004768,102199.20000004768,101762.223,101767.79999995232,101779.149,102212.485,,27,that
screen,html.Screen,2_1_0_1_28,2022-02-02T13:27:43.356Z,,,,,,,,,,,,,,,,,53,,,,,,,,,,,,,,409.71500004768313,,response,,,,99,,,,,,,Space,keypress(Space),,,,,,,,---- -- ----- -- ------ - ------- --- ----------<br>------------- ------ ------ ---- ---- ------- ----- -- ----<br>-------- ------- -- ---------- --- - --- ----- ----- ----<br>it's --- --- ----- --- ---- ---- ------- ----- ---- -------<br>--- --- -- ----- -- --- ---- -- --- ---- -- ------ ------<br>--- ----- -- ----,102622.79999995232,102622.20000004768,102195.373,102199.79999995232,102212.485,102628.955,,28,it's
screen,html.Screen,2_1_0_1_29,2022-02-02T13:27:43.725Z,,,,,,,,,,,,,,,,,53,,,,,,,,,,,,,,361.54499999999825,,response,,,,99,,,,,,,Space,keypress(Space),,,,,,,,---- -- ----- -- ------ - ------- --- ----------<br>------------- ------ ------ ---- ---- ------- ----- -- ----<br>-------- ------- -- ---------- --- - --- ----- ----- ----<br>---- not --- ----- --- ---- ---- ------- ----- ---- -------<br>--- --- -- ----- -- --- ---- -- --- ---- -- ------ ------<br>--- ----- -- ----,102991.10000002384,102990.5,102612.389,102622.89999997616,102628.955,102995.835,,29,not
screen,html.Screen,2_1_0_1_30,2022-02-02T13:27:44.165Z,,,,,,,,,,,,,,,,,53,,,,,,,,,,,,,,435.4649999523099,,response,,,,99,,,,,,,Space,keypress(Space),,,,,,,,---- -- ----- -- ------ - ------- --- ----------<br>------------- ------ ------ ---- ---- ------- ----- -- ----<br>-------- ------- -- ---------- --- - --- ----- ----- ----<br>---- --- how ----- --- ---- ---- ------- ----- ---- -------<br>--- --- -- ----- -- --- ---- -- --- ---- -- ------ ------<br>--- ----- -- ----,103431.79999995232,103431.29999995232,102978.645,102991.10000002384,102995.835,103445.842,,30,how
screen,html.Screen,2_1_0_1_31,2022-02-02T13:27:44.548Z,,,,,,,,,,,,,,,,,53,,,,,,,,,,,,,,368.55799997615395,,response,,,,99,,,,,,,Space,keypress(Space),,,,,,,,---- -- ----- -- ------ - ------- --- ----------<br>------------- ------ ------ ---- ---- ------- ----- -- ----<br>-------- ------- -- ---------- --- - --- ----- ----- ----<br>---- --- --- close --- ---- ---- ------- ----- ---- -------<br>--- --- -- ----- -- --- ---- -- --- ---- -- ------ ------<br>--- ----- -- ----,103814.89999997616,103814.39999997616,103428.684,103431.89999997616,103445.842,103828.75,,31,close
screen,html.Screen,2_1_0_1_32,2022-02-02T13:27:44.973Z,,,,,,,,,,,,,,,,,53,,,,,,,,,,,,,,409.85000002384186,,response,,,,99,,,,,,,Space,keypress(Space),,,,,,,,---- -- ----- -- ------ - ------- --- ----------<br>------------- ------ ------ ---- ---- ------- ----- -- ----<br>-------- ------- -- ---------- --- - --- ----- ----- ----<br>---- --- --- ----- you ---- ---- ------- ----- ---- -------<br>--- --- -- ----- -- --- ---- -- --- ---- -- ------ ------<br>--- ----- -- ----,104239.39999997616,104238.60000002384,103812.349,103815,103828.75,104245.47,,32,you
screen,html.Screen,2_1_0_1_33,2022-02-02T13:27:45.485Z,,,,,,,,,,,,,,,,,53,,,,,,,,,,,,,,504.8299999523151,,response,,,,99,,,,,,,Space,keypress(Space),,,,,,,,---- -- ----- -- ------ - ------- --- ----------<br>------------- ------ ------ ---- ---- ------- ----- -- ----<br>-------- ------- -- ---------- --- - --- ----- ----- ----<br>---- --- --- ----- --- feel ---- ------- ----- ---- -------<br>--- --- -- ----- -- --- ---- -- --- ---- -- ------ ------<br>--- ----- -- ----,104751.20000004768,104750.29999995232,104229.045,104239.39999997616,104245.47,104762.336,,33,feel
screen,html.Screen,2_1_0_1_34,2022-02-02T13:27:45.852Z,,,,,,,,,,,,,,,,,53,,,,,,,,,,,,,,355.9639999523206,,response,,,,99,,,,,,,Space,keypress(Space),,,,,,,,---- -- ----- -- ------ - ------- --- ----------<br>------------- ------ ------ ---- ---- ------- ----- -- ----<br>-------- ------- -- ---------- --- - --- ----- ----- ----<br>---- --- --- ----- --- ---- that ------- ----- ---- -------<br>--- --- -- ----- -- --- ---- -- --- ---- -- ------ ------<br>--- ----- -- ----,105118.89999997616,105118.29999995232,104745.494,104751.20000004768,104762.336,105128.75,,34,that
screen,html.Screen,2_1_0_1_35,2022-02-02T13:27:46.220Z,,,,,,,,,,,,,,,,,53,,,,,,,,,,,,,,357.5499999523163,,response,,,,99,,,,,,,Space,keypress(Space),,,,,,,,---- -- ----- -- ------ - ------- --- ----------<br>------------- ------ ------ ---- ---- ------- ----- -- ----<br>-------- ------- -- ---------- --- - --- ----- ----- ----<br>---- --- --- ----- --- ---- ---- matters ----- ---- -------<br>--- --- -- ----- -- --- ---- -- --- ---- -- ------ ------<br>--- ----- -- ----,105486.89999997616,105486.29999995232,105112.257,105118.89999997616,105128.75,105495.847,,35,matters
screen,html.Screen,2_1_0_1_36,2022-02-02T13:27:46.589Z,,,,,,,,,,,,,,,,,53,,,,,,,,,,,,,,358.8530000476894,,response,,,,99,,,,,,,Space,keypress(Space),,,,,,,,"---- -- ----- -- ------ - ------- --- ----------<br>------------- ------ ------ ---- ---- ------- ----- -- ----<br>-------- ------- -- ---------- --- - --- ----- ----- ----<br>---- --- --- ----- --- ---- ---- ------- most, ---- -------<br>--- --- -- ----- -- --- ---- -- --- ---- -- ------ ------<br>--- ----- -- ----",105855.29999995232,105854.70000004768,105478.947,105487,105495.847,105862.278,,36,"most,"
screen,html.Screen,2_1_0_1_37,2022-02-02T13:27:47.013Z,,,,,,,,,,,,,,,,,53,,,,,,,,,,,,,,416.32200002383615,,response,,,,99,,,,,,,Space,keypress(Space),,,,,,,,---- -- ----- -- ------ - ------- --- ----------<br>------------- ------ ------ ---- ---- ------- ----- -- ----<br>-------- ------- -- ---------- --- - --- ----- ----- ----<br>---- --- --- ----- --- ---- ---- ------- ----- it's -------<br>--- --- -- ----- -- --- ---- -- --- ---- -- ------ ------<br>--- ----- -- ----,106279.20000004768,106278.60000002384,105845.504,105855.29999995232,105862.278,106295.446,,37,it's
screen,html.Screen,2_1_0_1_38,2022-02-02T13:27:47.444Z,,,,,,,,,,,,,,,,,53,,,,,,,,,,,,,,414.85399995232,,response,,,,99,,,,,,,Space,keypress(Space),,,,,,,,---- -- ----- -- ------ - ------- --- ----------<br>------------- ------ ------ ---- ---- ------- ----- -- ----<br>-------- ------- -- ---------- --- - --- ----- ----- ----<br>---- --- --- ----- --- ---- ---- ------- ----- ---- whether<br>--- --- -- ----- -- --- ---- -- --- ---- -- ------ ------<br>--- ----- -- ----,106711,106710.29999995232,106278.737,106279.20000004768,106295.446,106734.117,,38,whether
screen,html.Screen,2_1_0_1_39,2022-02-02T13:27:47.829Z,,,,,,,,,,,,,,,,,53,,,,,,,,,,,,,,360.58300004768535,,response,,,,99,,,,,,,Space,keypress(Space),,,,,,,,---- -- ----- -- ------ - ------- --- ----------<br>------------- ------ ------ ---- ---- ------- ----- -- ----<br>-------- ------- -- ---------- --- - --- ----- ----- ----<br>---- --- --- ----- --- ---- ---- ------- ----- ---- -------<br>you --- -- ----- -- --- ---- -- --- ---- -- ------ ------<br>--- ----- -- ----,107095.5,107094.70000004768,106695.931,106711,106734.117,107112.122,,39,you
screen,html.Screen,2_1_0_1_40,2022-02-02T13:27:48.165Z,,,,,,,,,,,,,,,,,53,,,,,,,,,,,,,,318.5780000476807,,response,,,,99,,,,,,,Space,keypress(Space),,,,,,,,---- -- ----- -- ------ - ------- --- ----------<br>------------- ------ ------ ---- ---- ------- ----- -- ----<br>-------- ------- -- ---------- --- - --- ----- ----- ----<br>---- --- --- ----- --- ---- ---- ------- ----- ---- -------<br>--- are -- ----- -- --- ---- -- --- ---- -- ------ ------<br>--- ----- -- ----,107431.29999995232,107430.70000004768,107095.359,107095.60000002384,107112.122,107445.462,,40,are
screen,html.Screen,2_1_0_1_41,2022-02-02T13:27:48.548Z,,,,,,,,,,,,,,,,,53,,,,,,,,,,,,,,368.53800000000047,,response,,,,99,,,,,,,Space,keypress(Space),,,,,,,,---- -- ----- -- ------ - ------- --- ----------<br>------------- ------ ------ ---- ---- ------- ----- -- ----<br>-------- ------- -- ---------- --- - --- ----- ----- ----<br>---- --- --- ----- --- ---- ---- ------- ----- ---- -------<br>--- --- as ----- -- --- ---- -- --- ---- -- ------ ------<br>--- ----- -- ----,107814.70000004768,107814,107429.158,107431.39999997616,107445.462,107828.688,,41,as
screen,html.Screen,2_1_0_1_42,2022-02-02T13:27:48.885Z,,,,,,,,,,,,,,,,,53,,,,,,,,,,,,,,321.7119999761635,,response,,,,99,,,,,,,Space,keypress(Space),,,,,,,,---- -- ----- -- ------ - ------- --- ----------<br>------------- ------ ------ ---- ---- ------- ----- -- ----<br>-------- ------- -- ---------- --- - --- ----- ----- ----<br>---- --- --- ----- --- ---- ---- ------- ----- ---- -------<br>--- --- -- close -- --- ---- -- --- ---- -- ------ ------<br>--- ----- -- ----,108151.20000004768,108150.39999997616,107812.473,107814.79999995232,107828.688,108162.134,,42,close
screen,html.Screen,2_1_0_1_43,2022-02-02T13:27:49.293Z,,,,,,,,,,,,,,,,,53,,,,,,,,,,,,,,396.1659999523108,,response,,,,99,,,,,,,Space,keypress(Space),,,,,,,,---- -- ----- -- ------ - ------- --- ----------<br>------------- ------ ------ ---- ---- ------- ----- -- ----<br>-------- ------- -- ---------- --- - --- ----- ----- ----<br>---- --- --- ----- --- ---- ---- ------- ----- ---- -------<br>--- --- -- ----- as --- ---- -- --- ---- -- ------ ------<br>--- ----- -- ----,108559,108558.29999995232,108145.641,108151.29999995232,108162.134,108562.068,,43,as
screen,html.Screen,2_1_0_1_44,2022-02-02T13:27:49.645Z,,,,,,,,,,,,,,,,,53,,,,,,,,,,,,,,348.33199997615884,,response,,,,99,,,,,,,Space,keypress(Space),,,,,,,,---- -- ----- -- ------ - ------- --- ----------<br>------------- ------ ------ ---- ---- ------- ----- -- ----<br>-------- ------- -- ---------- --- - --- ----- ----- ----<br>---- --- --- ----- --- ---- ---- ------- ----- ---- -------<br>--- --- -- ----- -- you ---- -- --- ---- -- ------ ------<br>--- ----- -- ----,108911.20000004768,108910.39999997616,108545.563,108559,108562.068,108928.95,,44,you
screen,html.Screen,2_1_0_1_45,2022-02-02T13:27:50.021Z,,,,,,,,,,,,,,,,,53,,,,,,,,,,,,,,357.44999997616105,,response,,,,99,,,,,,,Space,keypress(Space),,,,,,,,---- -- ----- -- ------ - ------- --- ----------<br>------------- ------ ------ ---- ---- ------- ----- -- ----<br>-------- ------- -- ---------- --- - --- ----- ----- ----<br>---- --- --- ----- --- ---- ---- ------- ----- ---- -------<br>--- --- -- ----- -- --- want -- --- ---- -- ------ ------<br>--- ----- -- ----,109287,109286.39999997616,108895.859,108911.29999995232,108928.95,109295.379,,45,want
screen,html.Screen,2_1_0_1_46,2022-02-02T13:27:50.413Z,,,,,,,,,,,,,,,,,53,,,,,,,,,,,,,,382.8210000476829,,response,,,,99,,,,,,,Space,keypress(Space),,,,,,,,---- -- ----- -- ------ - ------- --- ----------<br>------------- ------ ------ ---- ---- ------- ----- -- ----<br>-------- ------- -- ---------- --- - --- ----- ----- ----<br>---- --- --- ----- --- ---- ---- ------- ----- ---- -------<br>--- --- -- ----- -- --- ---- to --- ---- -- ------ ------<br>--- ----- -- ----,109679.10000002384,109678.20000004768,109278.755,109287,109295.379,109695.642,,46,to
screen,html.Screen,2_1_0_1_47,2022-02-02T13:27:50.845Z,,,,,,,,,,,,,,,,,53,,,,,,,,,,,,,,414.75799997615104,,response,,,,99,,,,,,,Space,keypress(Space),,,,,,,,"---- -- ----- -- ------ - ------- --- ----------<br>------------- ------ ------ ---- ---- ------- ----- -- ----<br>-------- ------- -- ---------- --- - --- ----- ----- ----<br>---- --- --- ----- --- ---- ---- ------- ----- ---- -------<br>--- --- -- ----- -- --- ---- -- be, ---- -- ------ ------<br>--- ----- -- ----",110111.10000002384,110110.39999997616,109678.855,109679.20000004768,109695.642,110142.685,,47,"be,"
screen,html.Screen,2_1_0_1_48,2022-02-02T13:27:51.252Z,,,,,,,,,,,,,,,,,53,,,,,,,,,,,,,,375.6149999523186,,response,,,,99,,,,,,,Space,keypress(Space),,,,,,,,---- -- ----- -- ------ - ------- --- ----------<br>------------- ------ ------ ---- ---- ------- ----- -- ----<br>-------- ------- -- ---------- --- - --- ----- ----- ----<br>---- --- --- ----- --- ---- ---- ------- ----- ---- -------<br>--- --- -- ----- -- --- ---- -- --- even -- ------ ------<br>--- ----- -- ----,110518.79999995232,110518.29999995232,110095.566,110111.20000004768,110142.685,110529.013,,48,even
screen,html.Screen,2_1_0_1_49,2022-02-02T13:27:51.661Z,,,,,,,,,,,,,,,,,53,,,,,,,,,,,,,,397.68700004767743,,response,,,,99,,,,,,,Space,keypress(Space),,,,,,,,---- -- ----- -- ------ - ------- --- ----------<br>------------- ------ ------ ---- ---- ------- ----- -- ----<br>-------- ------- -- ---------- --- - --- ----- ----- ----<br>---- --- --- ----- --- ---- ---- ------- ----- ---- -------<br>--- --- -- ----- -- --- ---- -- --- ---- if ------ ------<br>--- ----- -- ----,110927.29999995232,110926.70000004768,110512.058,110518.89999997616,110529.013,110955.634,,49,if
screen,html.Screen,2_1_0_1_50,2022-02-02T13:27:51.997Z,,,,,,,,,,,,,,,,,53,,,,,,,,,,,,,,307.06600004767824,,response,,,,99,,,,,,,Space,keypress(Space),,,,,,,,---- -- ----- -- ------ - ------- --- ----------<br>------------- ------ ------ ---- ---- ------- ----- -- ----<br>-------- ------- -- ---------- --- - --- ----- ----- ----<br>---- --- --- ----- --- ---- ---- ------- ----- ---- -------<br>--- --- -- ----- -- --- ---- -- --- ---- -- that's ------<br>--- ----- -- ----,111263.39999997616,111262.70000004768,110912.452,110927.39999997616,110955.634,111279.2,,50,that's
screen,html.Screen,2_1_0_1_51,2022-02-02T13:27:52.381Z,,,,,,,,,,,,,,,,,53,,,,,,,,,,,,,,367.40000002384477,,response,,,,99,,,,,,,Space,keypress(Space),,,,,,,,---- -- ----- -- ------ - ------- --- ----------<br>------------- ------ ------ ---- ---- ------- ----- -- ----<br>-------- ------- -- ---------- --- - --- ----- ----- ----<br>---- --- --- ----- --- ---- ---- ------- ----- ---- -------<br>--- --- -- ----- -- --- ---- -- --- ---- -- ------ really<br>--- ----- -- ----,111647.5,111646.60000002384,111262.367,111263.5,111279.2,111662.194,,51,really
screen,html.Screen,2_1_0_1_52,2022-02-02T13:27:52.780Z,,,,,,,,,,,,,,,,,53,,,,,,,,,,,,,,383.9060000238387,,response,,,,99,,,,,,,Space,keypress(Space),,,,,,,,---- -- ----- -- ------ - ------- --- ----------<br>------------- ------ ------ ---- ---- ------- ----- -- ----<br>-------- ------- -- ---------- --- - --- ----- ----- ----<br>---- --- --- ----- --- ---- ---- ------- ----- ---- -------<br>--- --- -- ----- -- --- ---- -- --- ---- -- ------ ------<br>not ----- -- ----,112046.60000002384,112046.10000002384,111645.738,111647.60000002384,111662.194,112062.438,,52,not
screen,html.Screen,2_1_0_1_53,2022-02-02T13:27:53.133Z,,,,,,,,,,,,,,,,,53,,,,,,,,,,,,,,336.36199995232164,,response,,,,99,,,,,,,Space,keypress(Space),,,,,,,,---- -- ----- -- ------ - ------- --- ----------<br>------------- ------ ------ ---- ---- ------- ----- -- ----<br>-------- ------- -- ---------- --- - --- ----- ----- ----<br>---- --- --- ----- --- ---- ---- ------- ----- ---- -------<br>--- --- -- ----- -- --- ---- -- --- ---- -- ------ ------<br>--- close -- ----,112399.29999995232,112398.79999995232,112045.261,112046.70000004768,112062.438,112412.037,,53,close
screen,html.Screen,2_1_0_1_54,2022-02-02T13:27:53.517Z,,,,,,,,,,,,,,,,,53,,,,,,,,,,,,,,370.56300002384523,,response,,,,99,,,,,,,Space,keypress(Space),,,,,,,,---- -- ----- -- ------ - ------- --- ----------<br>------------- ------ ------ ---- ---- ------- ----- -- ----<br>-------- ------- -- ---------- --- - --- ----- ----- ----<br>---- --- --- ----- --- ---- ---- ------- ----- ---- -------<br>--- --- -- ----- -- --- ---- -- --- ---- -- ------ ------<br>--- ----- at ----,112783.29999995232,112782.60000002384,112395.415,112399.39999997616,112412.037,112795.515,,54,at
screen,html.Screen,2_1_0_1_55,2022-02-02T13:27:53.981Z,,,,,,,,,,,,,,,,,53,,,,,,,,,,,,,,450.78499995231687,,response,,,,99,,,,,,,Space,keypress(Space),,,,,,,,---- -- ----- -- ------ - ------- --- ----------<br>------------- ------ ------ ---- ---- ------- ----- -- ----<br>-------- ------- -- ---------- --- - --- ----- ----- ----<br>---- --- --- ----- --- ---- ---- ------- ----- ---- -------<br>--- --- -- ----- -- --- ---- -- --- ---- -- ------ ------<br>--- ----- -- all.,113247.10000002384,113246.29999995232,112779.131,112783.29999995232,112795.515,113262.51,,55,all.
Item 99,flow.Loop,2_1_0_1,2022-02-02T13:27:53.981Z,,,,,,,,,,,,,,,,,,,,,,,,,,,,,,,24884.153999952323,,completion,,,,,B,,,,,,,,,,,silence,,,,,113247.20000004768,113246.29999995232,88345.693,88346.60000002384,88362.146,113262.51,,,
Question 1,html.Screen,2_1_0_2,2022-02-02T13:27:59.141Z,,,,,,,,,,,,,,,,,,,,,,,,,,,,true,FALSE,,5143.690000047689,,response,,,,99,B,,,,,,FALSE,click #choice-2,,,,silence,,,,,118407.29999995232,118406.20000004768,113245.75,113247.29999995232,113262.51,118412.346,,,
Question 2,html.Screen,2_1_0_3,2022-02-02T13:28:04.600Z,,,,,,,,,,,,,,,,,,,,,,,,,,,,true,TRUE,,5453.553999976153,,response,,,,99,B,,,,,,TRUE,click #choice-1,,,,silence,,,,,123866.60000002384,123865.89999997616,118395.446,118407.39999997616,118412.346,123879.072,,,
Item 99,flow.Sequence,2_1_0,2022-02-02T13:28:04.600Z,,,,,,,,,,,,,,,,,,,,,,,,,,,,,,,45503.59199997615,,completion,,,,,,,,,,,,,,,,,,,,,123866.70000004768,123865.89999997616,78345.272,78359.29999995232,78362.308,123879.072,,,
Holding screen,html.Screen,2_1_1_0,2022-02-02T13:28:14.596Z,,,,,,,,,,,,,,,,,,,,,,,,,,,,,,,9999.930999999997,,timeout,,,,,,,,,,,,,,,,,,,,,133862.79999995232,133862.167,123862.101,123866.89999997616,123879.072,133879.003,,,
screen,html.Screen,2_1_1_1_0,2022-02-02T13:28:15.348Z,,,,,,,,,,,,,,,,,54,,,,,,,,,,,,,,735.497000000003,,response,,,,100,,,,,,,Space,keypress(Space),,,,,,,,At --- ---- --- ------ ----- ------- ---- -- --- ------- --<br>------- ---------- ------ -- ----- -- ----- -- ---- ------<br>--- ----- --- --- ------ -------- ----- --- ------ ----- --<br>----- ----- ---------- --- --- ------ ------ ---- -- ------<br>------- --- ------ ----- --- ---- ------- -- ---- --- --<br>------- ------,134615.20000004768,134614.5,133862.167,133862.79999995232,133879.003,134628.932,,0,At
screen,html.Screen,2_1_1_1_1,2022-02-02T13:28:15.756Z,,,,,,,,,,,,,,,,,54,,,,,,,,,,,,,,393.5679999999993,,response,,,,100,,,,,,,Space,keypress(Space),,,,,,,,-- the ---- --- ------ ----- ------- ---- -- --- ------- --<br>------- ---------- ------ -- ----- -- ----- -- ---- ------<br>--- ----- --- --- ------ -------- ----- --- ------ ----- --<br>----- ----- ---------- --- --- ------ ------ ---- -- ------<br>------- --- ------ ----- --- ---- ------- -- ---- --- --<br>------- ------,135023.20000004768,135022.5,134612.389,134615.29999995232,134628.932,135028.939,,1,the
screen,html.Screen,2_1_1_1_2,2022-02-02T13:28:16.076Z,,,,,,,,,,,,,,,,,54,,,,,,,,,,,,,,313.4609999761451,,response,,,,100,,,,,,,Space,keypress(Space),,,,,,,,-- --- time --- ------ ----- ------- ---- -- --- ------- --<br>------- ---------- ------ -- ----- -- ----- -- ---- ------<br>--- ----- --- --- ------ -------- ----- --- ------ ----- --<br>----- ----- ---------- --- --- ------ ------ ---- -- ------<br>------- --- ------ ----- --- ---- ------- -- ---- --- --<br>------- ------,135343.10000002384,135342.39999997616,135012.417,135023.29999995232,135028.939,135345.319,,2,time
screen,html.Screen,2_1_1_1_3,2022-02-02T13:28:16.428Z,,,,,,,,,,,,,,,,,54,,,,,,,,,,,,,,349.1810000000114,,response,,,,100,,,,,,,Space,keypress(Space),,,,,,,,-- --- ---- the ------ ----- ------- ---- -- --- ------- --<br>------- ---------- ------ -- ----- -- ----- -- ---- ------<br>--- ----- --- --- ------ -------- ----- --- ------ ----- --<br>----- ----- ---------- --- --- ------ ------ ---- -- ------<br>------- --- ------ ----- --- ---- ------- -- ---- --- --<br>------- ------,135695.20000004768,135694.5,135328.905,135343.20000004768,135345.319,135712.061,,3,the
screen,html.Screen,2_1_1_1_4,2022-02-02T13:28:16.812Z,,,,,,,,,,,,,,,,,54,,,,,,,,,,,,,,366.2389999523293,,response,,,,100,,,,,,,Space,keypress(Space),,,,,,,,-- --- ---- --- French ----- ------- ---- -- --- ------- --<br>------- ---------- ------ -- ----- -- ----- -- ---- ------<br>--- ----- --- --- ------ -------- ----- --- ------ ----- --<br>----- ----- ---------- --- --- ------ ------ ---- -- ------<br>------- --- ------ ----- --- ---- ------- -- ---- --- --<br>------- ------,136078.70000004768,136078.29999995232,135695.452,135695.20000004768,135712.061,136095.712,,4,French
screen,html.Screen,2_1_1_1_5,2022-02-02T13:28:17.117Z,,,,,,,,,,,,,,,,,54,,,,,,,,,,,,,,287.3880000238423,,response,,,,100,,,,,,,Space,keypress(Space),,,,,,,,-- --- ---- --- ------ crown ------- ---- -- --- ------- --<br>------- ---------- ------ -- ----- -- ----- -- ---- ------<br>--- ----- --- --- ------ -------- ----- --- ------ ----- --<br>----- ----- ---------- --- --- ------ ------ ---- -- ------<br>------- --- ------ ----- --- ---- ------- -- ---- --- --<br>------- ------,136384,136383.10000002384,136078.651,136078.79999995232,136095.712,136395.611,,5,crown
screen,html.Screen,2_1_1_1_6,2022-02-02T13:28:17.437Z,,,,,,,,,,,,,,,,,54,,,,,,,,,,,,,,307.2889999761537,,response,,,,100,,,,,,,Space,keypress(Space),,,,,,,,-- --- ---- --- ------ ----- secured ---- -- --- ------- --<br>------- ---------- ------ -- ----- -- ----- -- ---- ------<br>--- ----- --- --- ------ -------- ----- --- ------ ----- --<br>----- ----- ---------- --- --- ------ ------ ---- -- ------<br>------- --- ------ ----- --- ---- ------- -- ---- --- --<br>------- ------,136703.70000004768,136702.89999997616,136378.833,136384,136395.611,136712.083,,6,secured
screen,html.Screen,2_1_1_1_7,2022-02-02T13:28:17.821Z,,,,,,,,,,,,,,,,,54,,,,,,,,,,,,,,374.81699997614487,,response,,,,100,,,,,,,Space,keypress(Space),,,,,,,,-- --- ---- --- ------ ----- ------- much -- --- ------- --<br>------- ---------- ------ -- ----- -- ----- -- ---- ------<br>--- ----- --- --- ------ -------- ----- --- ------ ----- --<br>----- ----- ---------- --- --- ------ ------ ---- -- ------<br>------- --- ------ ----- --- ---- ------- -- ---- --- --<br>------- ------,137087.60000002384,137086.89999997616,136695.702,136703.70000004768,136712.083,137095.836,,7,much
screen,html.Screen,2_1_1_1_8,2022-02-02T13:28:18.189Z,,,,,,,,,,,,,,,,,54,,,,,,,,,,,,,,359.0639999761479,,response,,,,100,,,,,,,Space,keypress(Space),,,,,,,,-- --- ---- --- ------ ----- ------- ---- of --- ------- --<br>------- ---------- ------ -- ----- -- ----- -- ---- ------<br>--- ----- --- --- ------ -------- ----- --- ------ ----- --<br>----- ----- ---------- --- --- ------ ------ ---- -- ------<br>------- --- ------ ----- --- ---- ------- -- ---- --- --<br>------- ------,137455.60000002384,137454.89999997616,137079.107,137087.60000002384,137095.836,137462.39,,8,of
screen,html.Screen,2_1_1_1_9,2022-02-02T13:28:18.541Z,,,,,,,,,,,,,,,,,54,,,,,,,,,,,,,,344.4099999523023,,response,,,,100,,,,,,,Space,keypress(Space),,,,,,,,-- --- ---- --- ------ ----- ------- ---- -- its ------- --<br>------- ---------- ------ -- ----- -- ----- -- ---- ------<br>--- ----- --- --- ------ -------- ----- --- ------ ----- --<br>----- ----- ---------- --- --- ------ ------ ---- -- ------<br>------- --- ------ ----- --- ---- ------- -- ---- --- --<br>------- ------,137807.39999997616,137806.79999995232,137445.652,137455.70000004768,137462.39,137828.773,,9,its
screen,html.Screen,2_1_1_1_10,2022-02-02T13:28:18.924Z,,,,,,,,,,,,,,,,,54,,,,,,,,,,,,,,361.82700002385536,,response,,,,100,,,,,,,Space,keypress(Space),,,,,,,,-- --- ---- --- ------ ----- ------- ---- -- --- revenue --<br>------- ---------- ------ -- ----- -- ----- -- ---- ------<br>--- ----- --- --- ------ -------- ----- --- ------ ----- --<br>----- ----- ---------- --- --- ------ ------ ---- -- ------<br>------- --- ------ ----- --- ---- ------- -- ---- --- --<br>------- ------,138191.20000004768,138190.60000002384,137795.451,137807.39999997616,137828.773,138195.898,,10,revenue
screen,html.Screen,2_1_1_1_11,2022-02-02T13:28:19.356Z,,,,,,,,,,,,,,,,,54,,,,,,,,,,,,,,426.6020000000135,,response,,,,100,,,,,,,Space,keypress(Space),,,,,,,,-- --- ---- --- ------ ----- ------- ---- -- --- ------- by<br>------- ---------- ------ -- ----- -- ----- -- ---- ------<br>--- ----- --- --- ------ -------- ----- --- ------ ----- --<br>----- ----- ---------- --- --- ------ ------ ---- -- ------<br>------- --- ------ ----- --- ---- ------- -- ---- --- --<br>------- ------,138623.10000002384,138622.5,138179.104,138191.29999995232,138195.898,138628.762,,11,by
screen,html.Screen,2_1_1_1_12,2022-02-02T13:28:19.781Z,,,,,,,,,,,,,,,,,54,,,,,,,,,,,,,,418.13799997617025,,response,,,,100,,,,,,,Space,keypress(Space),,,,,,,,-- --- ---- --- ------ ----- ------- ---- -- --- ------- --<br>issuing ---------- ------ -- ----- -- ----- -- ---- ------<br>--- ----- --- --- ------ -------- ----- --- ------ ----- --<br>----- ----- ---------- --- --- ------ ------ ---- -- ------<br>------- --- ------ ----- --- ---- ------- -- ---- --- --<br>------- ------,139047.5,139046.89999997616,138612.555,138623.10000002384,138628.762,139062.051,,12,issuing
screen,html.Screen,2_1_1_1_13,2022-02-02T13:28:21.605Z,,,,,,,,,,,,,,,,,54,,,,,,,,,,,,,,1809.049000023835,,response,,,,100,,,,,,,Space,keypress(Space),,,,,,,,-- --- ---- --- ------ ----- ------- ---- -- --- ------- --<br>------- government ------ -- ----- -- ----- -- ---- ------<br>--- ----- --- --- ------ -------- ----- --- ------ ----- --<br>----- ----- ---------- --- --- ------ ------ ---- -- ------<br>------- --- ------ ----- --- ---- ------- -- ---- --- --<br>------- ------,140871.70000004768,140871.10000002384,139045.602,139047.60000002384,139062.051,140878.937,,13,government
screen,html.Screen,2_1_1_1_14,2022-02-02T13:28:22.261Z,,,,,,,,,,,,,,,,,54,,,,,,,,,,,,,,648.0629999999946,,response,,,,100,,,,,,,Space,keypress(Space),,,,,,,,-- --- ---- --- ------ ----- ------- ---- -- --- ------- --<br>------- ---------- bonds. -- ----- -- ----- -- ---- ------<br>--- ----- --- --- ------ -------- ----- --- ------ ----- --<br>----- ----- ---------- --- --- ------ ------ ---- -- ------<br>------- --- ------ ----- --- ---- ------- -- ---- --- --<br>------- ------,141527.5,141527,140862.491,140871.79999995232,140878.937,141560.914,,14,bonds.
screen,html.Screen,2_1_1_1_15,2022-02-02T13:28:22.717Z,,,,,,,,,,,,,,,,,54,,,,,,,,,,,,,,422.38599995232653,,response,,,,100,,,,,,,Space,keypress(Space),,,,,,,,-- --- ---- --- ------ ----- ------- ---- -- --- ------- --<br>------- ---------- ------ In ----- -- ----- -- ---- ------<br>--- ----- --- --- ------ -------- ----- --- ------ ----- --<br>----- ----- ---------- --- --- ------ ------ ---- -- ------<br>------- --- ------ ----- --- ---- ------- -- ---- --- --<br>------- ------,141983.89999997616,141983.29999995232,141512.361,141527.60000002384,141560.914,141995.492,,15,In
screen,html.Screen,2_1_1_1_16,2022-02-02T13:28:23.485Z,,,,,,,,,,,,,,,,,54,,,,,,,,,,,,,,755.5080000000016,,response,,,,100,,,,,,,Space,keypress(Space),,,,,,,,"-- --- ---- --- ------ ----- ------- ---- -- --- ------- --<br>------- ---------- ------ -- 1727, -- ----- -- ---- ------<br>--- ----- --- --- ------ -------- ----- --- ------ ----- --<br>----- ----- ---------- --- --- ------ ------ ---- -- ------<br>------- --- ------ ----- --- ---- ------- -- ---- --- --<br>------- ------",142751.60000002384,142751,141978.826,141984,141995.492,142762.073,,16,"1727,"
screen,html.Screen,2_1_1_1_17,2022-02-02T13:28:23.805Z,,,,,,,,,,,,,,,,,54,,,,,,,,,,,,,,308.92699999999604,,response,,,,100,,,,,,,Space,keypress(Space),,,,,,,,-- --- ---- --- ------ ----- ------- ---- -- --- ------- --<br>------- ---------- ------ -- ----- in ----- -- ---- ------<br>--- ----- --- --- ------ -------- ----- --- ------ ----- --<br>----- ----- ---------- --- --- ------ ------ ---- -- ------<br>------- --- ------ ----- --- ---- ------- -- ---- --- --<br>------- ------,143071.60000002384,143071,142745.483,142751.70000004768,142762.073,143079.084,,17,in
screen,html.Screen,2_1_1_1_18,2022-02-02T13:28:24.221Z,,,,,,,,,,,,,,,,,54,,,,,,,,,,,,,,407.91599999999744,,response,,,,100,,,,,,,Space,keypress(Space),,,,,,,,-- --- ---- --- ------ ----- ------- ---- -- --- ------- --<br>------- ---------- ------ -- ----- -- order -- ---- ------<br>--- ----- --- --- ------ -------- ----- --- ------ ----- --<br>----- ----- ---------- --- --- ------ ------ ---- -- ------<br>------- --- ------ ----- --- ---- ------- -- ---- --- --<br>------- ------,143487.5,143487,143062.412,143071.60000002384,143079.084,143495.554,,18,order
screen,html.Screen,2_1_1_1_19,2022-02-02T13:28:24.573Z,,,,,,,,,,,,,,,,,54,,,,,,,,,,,,,,343.4459999999963,,response,,,,100,,,,,,,Space,keypress(Space),,,,,,,,-- --- ---- --- ------ ----- ------- ---- -- --- ------- --<br>------- ---------- ------ -- ----- -- ----- to ---- ------<br>--- ----- --- --- ------ -------- ----- --- ------ ----- --<br>----- ----- ---------- --- --- ------ ------ ---- -- ------<br>------- --- ------ ----- --- ---- ------- -- ---- --- --<br>------- ------,143839.60000002384,143839,143478.981,143487.60000002384,143495.554,143845.291,,19,to
screen,html.Screen,2_1_1_1_20,2022-02-02T13:28:24.925Z,,,,,,,,,,,,,,,,,54,,,,,,,,,,,,,,345.70900000000256,,response,,,,100,,,,,,,Space,keypress(Space),,,,,,,,-- --- ---- --- ------ ----- ------- ---- -- --- ------- --<br>------- ---------- ------ -- ----- -- ----- -- save ------<br>--- ----- --- --- ------ -------- ----- --- ------ ----- --<br>----- ----- ---------- --- --- ------ ------ ---- -- ------<br>------- --- ------ ----- --- ---- ------- -- ---- --- --<br>------- ------,144191.79999995232,144191,143828.624,143839.70000004768,143845.291,144195.646,,20,save
screen,html.Screen,2_1_1_1_21,2022-02-02T13:28:25.292Z,,,,,,,,,,,,,,,,,54,,,,,,,,,,,,,,362.45400002383394,,response,,,,100,,,,,,,Space,keypress(Space),,,,,,,,"-- --- ---- --- ------ ----- ------- ---- -- --- ------- --<br>------- ---------- ------ -- ----- -- ----- -- ---- money,<br>--- ----- --- --- ------ -------- ----- --- ------ ----- --<br>----- ----- ---------- --- --- ------ ------ ---- -- ------<br>------- --- ------ ----- --- ---- ------- -- ---- --- --<br>------- ------",144558.39999997616,144558.10000002384,144179.084,144191.79999995232,144195.646,144562.025,,21,"money,"
screen,html.Screen,2_1_1_1_22,2022-02-02T13:28:25.757Z,,,,,,,,,,,,,,,,,54,,,,,,,,,,,,,,460.9750000000058,,response,,,,100,,,,,,,Space,keypress(Space),,,,,,,,-- --- ---- --- ------ ----- ------- ---- -- --- ------- --<br>------- ---------- ------ -- ----- -- ----- -- ---- ------<br>the ----- --- --- ------ -------- ----- --- ------ ----- --<br>----- ----- ---------- --- --- ------ ------ ---- -- ------<br>------- --- ------ ----- --- ---- ------- -- ---- --- --<br>------- ------,145023.5,145023,144545.879,144558.5,144562.025,145028.726,,22,the
screen,html.Screen,2_1_1_1_23,2022-02-02T13:28:26.149Z,,,,,,,,,,,,,,,,,54,,,,,,,,,,,,,,386.0739999523212,,response,,,,100,,,,,,,Space,keypress(Space),,,,,,,,-- --- ---- --- ------ ----- ------- ---- -- --- ------- --<br>------- ---------- ------ -- ----- -- ----- -- ---- ------<br>--- state --- --- ------ -------- ----- --- ------ ----- --<br>----- ----- ---------- --- --- ------ ------ ---- -- ------<br>------- --- ------ ----- --- ---- ------- -- ---- --- --<br>------- ------,145415.5,145414.79999995232,145012.04,145023.60000002384,145028.726,145429.032,,23,state
screen,html.Screen,2_1_1_1_24,2022-02-02T13:28:26.604Z,,,,,,,,,,,,,,,,,54,,,,,,,,,,,,,,441.76799995230976,,response,,,,100,,,,,,,Space,keypress(Space),,,,,,,,-- --- ---- --- ------ ----- ------- ---- -- --- ------- --<br>------- ---------- ------ -- ----- -- ----- -- ---- ------<br>--- ----- cut --- ------ -------- ----- --- ------ ----- --<br>----- ----- ---------- --- --- ------ ------ ---- -- ------<br>------- --- ------ ----- --- ---- ------- -- ---- --- --<br>------- ------,145871.29999995232,145870.79999995232,145412.288,145415.60000002384,145429.032,145879.173,,24,cut
screen,html.Screen,2_1_1_1_25,2022-02-02T13:28:26.973Z,,,,,,,,,,,,,,,,,54,,,,,,,,,,,,,,359.72699997614836,,response,,,,100,,,,,,,Space,keypress(Space),,,,,,,,-- --- ---- --- ------ ----- ------- ---- -- --- ------- --<br>------- ---------- ------ -- ----- -- ----- -- ---- ------<br>--- ----- --- the ------ -------- ----- --- ------ ----- --<br>----- ----- ---------- --- --- ------ ------ ---- -- ------<br>------- --- ------ ----- --- ---- ------- -- ---- --- --<br>------- ------,146239.60000002384,146238.89999997616,145862.319,145871.29999995232,145879.173,146245.521,,25,the
screen,html.Screen,2_1_1_1_26,2022-02-02T13:28:27.397Z,,,,,,,,,,,,,,,,,54,,,,,,,,,,,,,,417.4789999999921,,response,,,,100,,,,,,,Space,keypress(Space),,,,,,,,-- --- ---- --- ------ ----- ------- ---- -- --- ------- --<br>------- ---------- ------ -- ----- -- ----- -- ---- ------<br>--- ----- --- --- bonds' -------- ----- --- ------ ----- --<br>----- ----- ---------- --- --- ------ ------ ---- -- ------<br>------- --- ------ ----- --- ---- ------- -- ---- --- --<br>------- ------,146663.79999995232,146663,146228.701,146239.60000002384,146245.521,146678.875,,26,bonds'
screen,html.Screen,2_1_1_1_27,2022-02-02T13:28:27.765Z,,,,,,,,,,,,,,,,,54,,,,,,,,,,,,,,352.4249999523163,,response,,,,100,,,,,,,Space,keypress(Space),,,,,,,,-- --- ---- --- ------ ----- ------- ---- -- --- ------- --<br>------- ---------- ------ -- ----- -- ----- -- ---- ------<br>--- ----- --- --- ------ interest ----- --- ------ ----- --<br>----- ----- ---------- --- --- ------ ------ ---- -- ------<br>------- --- ------ ----- --- ---- ------- -- ---- --- --<br>------- ------,147031.79999995232,147031.29999995232,146662.182,146663.89999997616,146678.875,147045.769,,27,interest
screen,html.Screen,2_1_1_1_28,2022-02-02T13:28:28.149Z,,,,,,,,,,,,,,,,,54,,,,,,,,,,,,,,369.4310000476835,,response,,,,100,,,,,,,Space,keypress(Space),,,,,,,,-- --- ---- --- ------ ----- ------- ---- -- --- ------- --<br>------- ---------- ------ -- ----- -- ----- -- ---- ------<br>--- ----- --- --- ------ -------- rate. --- ------ ----- --<br>----- ----- ---------- --- --- ------ ------ ---- -- ------<br>------- --- ------ ----- --- ---- ------- -- ---- --- --<br>------- ------,147415.79999995232,147415.20000004768,147028.77,147031.89999997616,147045.769,147429.007,,28,rate.
screen,html.Screen,2_1_1_1_29,2022-02-02T13:28:28.484Z,,,,,,,,,,,,,,,,,54,,,,,,,,,,,,,,321.49299999998766,,response,,,,100,,,,,,,Space,keypress(Space),,,,,,,,-- --- ---- --- ------ ----- ------- ---- -- --- ------- --<br>------- ---------- ------ -- ----- -- ----- -- ---- ------<br>--- ----- --- --- ------ -------- ----- The ------ ----- --<br>----- ----- ---------- --- --- ------ ------ ---- -- ------<br>------- --- ------ ----- --- ---- ------- -- ---- --- --<br>------- ------,147750.89999997616,147750.5,147412.224,147415.89999997616,147429.007,147762.357,,29,The
screen,html.Screen,2_1_1_1_30,2022-02-02T13:28:28.837Z,,,,,,,,,,,,,,,,,54,,,,,,,,,,,,,,340.4429999523272,,response,,,,100,,,,,,,Space,keypress(Space),,,,,,,,-- --- ---- --- ------ ----- ------- ---- -- --- ------- --<br>------- ---------- ------ -- ----- -- ----- -- ---- ------<br>--- ----- --- --- ------ -------- ----- --- market ----- --<br>----- ----- ---------- --- --- ------ ------ ---- -- ------<br>------- --- ------ ----- --- ---- ------- -- ---- --- --<br>------- ------,148103.29999995232,148102.79999995232,147745.398,147750.89999997616,147762.357,148112.285,,30,market
screen,html.Screen,2_1_1_1_31,2022-02-02T13:28:29.156Z,,,,,,,,,,,,,,,,,54,,,,,,,,,,,,,,310.31500002383837,,response,,,,100,,,,,,,Space,keypress(Space),,,,,,,,-- --- ---- --- ------ ----- ------- ---- -- --- ------- --<br>------- ---------- ------ -- ----- -- ----- -- ---- ------<br>--- ----- --- --- ------ -------- ----- --- ------ value --<br>----- ----- ---------- --- --- ------ ------ ---- -- ------<br>------- --- ------ ----- --- ---- ------- -- ---- --- --<br>------- ------,148423.29999995232,148422.60000002384,148095.475,148103.29999995232,148112.285,148429.173,,31,value
screen,html.Screen,2_1_1_1_32,2022-02-02T13:28:29.509Z,,,,,,,,,,,,,,,,,54,,,,,,,,,,,,,,345.9270000238321,,response,,,,100,,,,,,,Space,keypress(Space),,,,,,,,-- --- ---- --- ------ ----- ------- ---- -- --- ------- --<br>------- ---------- ------ -- ----- -- ----- -- ---- ------<br>--- ----- --- --- ------ -------- ----- --- ------ ----- of<br>----- ----- ---------- --- --- ------ ------ ---- -- ------<br>------- --- ------ ----- --- ---- ------- -- ---- --- --<br>------- ------,148775.79999995232,148775.10000002384,148412.529,148423.29999995232,148429.173,148778.664,,32,of
screen,html.Screen,2_1_1_1_33,2022-02-02T13:28:29.860Z,,,,,,,,,,,,,,,,,54,,,,,,,,,,,,,,347.83600000001024,,response,,,,100,,,,,,,Space,keypress(Space),,,,,,,,-- --- ---- --- ------ ----- ------- ---- -- --- ------- --<br>------- ---------- ------ -- ----- -- ----- -- ---- ------<br>--- ----- --- --- ------ -------- ----- --- ------ ----- --<br>these ----- ---------- --- --- ------ ------ ---- -- ------<br>------- --- ------ ----- --- ---- ------- -- ---- --- --<br>------- ------,149127.10000002384,149126.5,148762.064,148775.89999997616,148778.664,149128.978,,33,these
screen,html.Screen,2_1_1_1_34,2022-02-02T13:28:30.165Z,,,,,,,,,,,,,,,,,54,,,,,,,,,,,,,,301.8219999523135,,response,,,,100,,,,,,,Space,keypress(Space),,,,,,,,-- --- ---- --- ------ ----- ------- ---- -- --- ------- --<br>------- ---------- ------ -- ----- -- ----- -- ---- ------<br>--- ----- --- --- ------ -------- ----- --- ------ ----- --<br>----- bonds ---------- --- --- ------ ------ ---- -- ------<br>------- --- ------ ----- --- ---- ------- -- ---- --- --<br>------- ------,149431.5,149430.79999995232,149111.952,149127.20000004768,149128.978,149445.835,,34,bonds
screen,html.Screen,2_1_1_1_35,2022-02-02T13:28:30.485Z,,,,,,,,,,,,,,,,,54,,,,,,,,,,,,,,304.96499995232443,,response,,,,100,,,,,,,Space,keypress(Space),,,,,,,,"-- --- ---- --- ------ ----- ------- ---- -- --- ------- --<br>------- ---------- ------ -- ----- -- ----- -- ---- ------<br>--- ----- --- --- ------ -------- ----- --- ------ ----- --<br>----- ----- plummeted, --- --- ------ ------ ---- -- ------<br>------- --- ------ ----- --- ---- ------- -- ---- --- --<br>------- ------",149751.39999997616,149750.79999995232,149428.888,149431.60000002384,149445.835,149762.349,,35,"plummeted,"
screen,html.Screen,2_1_1_1_36,2022-02-02T13:28:30.853Z,,,,,,,,,,,,,,,,,54,,,,,,,,,,,,,,356.75100002385443,,response,,,,100,,,,,,,Space,keypress(Space),,,,,,,,-- --- ---- --- ------ ----- ------- ---- -- --- ------- --<br>------- ---------- ------ -- ----- -- ----- -- ---- ------<br>--- ----- --- --- ------ -------- ----- --- ------ ----- --<br>----- ----- ---------- and --- ------ ------ ---- -- ------<br>------- --- ------ ----- --- ---- ------- -- ---- --- --<br>------- ------,150119.79999995232,150119.10000002384,149745.449,149751.39999997616,149762.349,150128.958,,36,and
screen,html.Screen,2_1_1_1_37,2022-02-02T13:28:31.156Z,,,,,,,,,,,,,,,,,54,,,,,,,,,,,,,,293.54199999998673,,response,,,,100,,,,,,,Space,keypress(Space),,,,,,,,-- --- ---- --- ------ ----- ------- ---- -- --- ------- --<br>------- ---------- ------ -- ----- -- ----- -- ---- ------<br>--- ----- --- --- ------ -------- ----- --- ------ ----- --<br>----- ----- ---------- --- the ------ ------ ---- -- ------<br>------- --- ------ ----- --- ---- ------- -- ---- --- --<br>------- ------,150423.20000004768,150422.5,150112.11,150120,150128.958,150445.769,,37,the
screen,html.Screen,2_1_1_1_38,2022-02-02T13:28:31.429Z,,,,,,,,,,,,,,,,,54,,,,,,,,,,,,,,249.23099999999977,,response,,,,100,,,,,,,Space,keypress(Space),,,,,,,,-- --- ---- --- ------ ----- ------- ---- -- --- ------- --<br>------- ---------- ------ -- ----- -- ----- -- ---- ------<br>--- ----- --- --- ------ -------- ----- --- ------ ----- --<br>----- ----- ---------- --- --- market ------ ---- -- ------<br>------- --- ------ ----- --- ---- ------- -- ---- --- --<br>------- ------,150695.70000004768,150695,150412.449,150423.29999995232,150445.769,150712.126,,38,market
screen,html.Screen,2_1_1_1_39,2022-02-02T13:28:31.869Z,,,,,,,,,,,,,,,,,54,,,,,,,,,,,,,,422.77399997616885,,response,,,,100,,,,,,,Space,keypress(Space),,,,,,,,-- --- ---- --- ------ ----- ------- ---- -- --- ------- --<br>------- ---------- ------ -- ----- -- ----- -- ---- ------<br>--- ----- --- --- ------ -------- ----- --- ------ ----- --<br>----- ----- ---------- --- --- ------ became ---- -- ------<br>------- --- ------ ----- --- ---- ------- -- ---- --- --<br>------- ------,151135.70000004768,151134.89999997616,150695.73,150695.70000004768,150712.126,151145.647,,39,became
screen,html.Screen,2_1_1_1_40,2022-02-02T13:28:32.204Z,,,,,,,,,,,,,,,,,54,,,,,,,,,,,,,,324.75299997616094,,response,,,,100,,,,,,,Space,keypress(Space),,,,,,,,-- --- ---- --- ------ ----- ------- ---- -- --- ------- --<br>------- ---------- ------ -- ----- -- ----- -- ---- ------<br>--- ----- --- --- ------ -------- ----- --- ------ ----- --<br>----- ----- ---------- --- --- ------ ------ wary -- ------<br>------- --- ------ ----- --- ---- ------- -- ---- --- --<br>------- ------,151471.20000004768,151470.39999997616,151129.094,151135.79999995232,151145.647,151478.943,,40,wary
screen,html.Screen,2_1_1_1_41,2022-02-02T13:28:32.541Z,,,,,,,,,,,,,,,,,54,,,,,,,,,,,,,,327.7570000476844,,response,,,,100,,,,,,,Space,keypress(Space),,,,,,,,-- --- ---- --- ------ ----- ------- ---- -- --- ------- --<br>------- ---------- ------ -- ----- -- ----- -- ---- ------<br>--- ----- --- --- ------ -------- ----- --- ------ ----- --<br>----- ----- ---------- --- --- ------ ------ ---- of ------<br>------- --- ------ ----- --- ---- ------- -- ---- --- --<br>------- ------,151807.5,151806.70000004768,151462.088,151471.29999995232,151478.943,151812.038,,41,of
screen,html.Screen,2_1_1_1_42,2022-02-02T13:28:32.989Z,,,,,,,,,,,,,,,,,54,,,,,,,,,,,,,,442.8619999761577,,response,,,,100,,,,,,,Space,keypress(Space),,,,,,,,-- --- ---- --- ------ ----- ------- ---- -- --- ------- --<br>------- ---------- ------ -- ----- -- ----- -- ---- ------<br>--- ----- --- --- ------ -------- ----- --- ------ ----- --<br>----- ----- ---------- --- --- ------ ------ ---- -- French<br>------- --- ------ ----- --- ---- ------- -- ---- --- --<br>------- ------,152255.60000002384,152254.89999997616,151795.387,151807.5,151812.038,152262.276,,42,French
screen,html.Screen,2_1_1_1_43,2022-02-02T13:28:33.324Z,,,,,,,,,,,,,,,,,54,,,,,,,,,,,,,,328.42400004767114,,response,,,,100,,,,,,,Space,keypress(Space),,,,,,,,-- --- ---- --- ------ ----- ------- ---- -- --- ------- --<br>------- ---------- ------ -- ----- -- ----- -- ---- ------<br>--- ----- --- --- ------ -------- ----- --- ------ ----- --<br>----- ----- ---------- --- --- ------ ------ ---- -- ------<br>credit. --- ------ ----- --- ---- ------- -- ---- --- --<br>------- ------,152591.29999995232,152590.70000004768,152245.485,152255.70000004768,152262.276,152612.219,,43,credit.
screen,html.Screen,2_1_1_1_44,2022-02-02T13:28:33.629Z,,,,,,,,,,,,,,,,,54,,,,,,,,,,,,,,282.68099997614627,,response,,,,100,,,,,,,Space,keypress(Space),,,,,,,,-- --- ---- --- ------ ----- ------- ---- -- --- ------- --<br>------- ---------- ------ -- ----- -- ----- -- ---- ------<br>--- ----- --- --- ------ -------- ----- --- ------ ----- --<br>----- ----- ---------- --- --- ------ ------ ---- -- ------<br>------- The ------ ----- --- ---- ------- -- ---- --- --<br>------- ------,152895.39999997616,152894.89999997616,152578.847,152591.29999995232,152612.219,152912.446,,44,The
screen,html.Screen,2_1_1_1_45,2022-02-02T13:28:33.981Z,,,,,,,,,,,,,,,,,54,,,,,,,,,,,,,,334.6540000238456,,response,,,,100,,,,,,,Space,keypress(Space),,,,,,,,-- --- ---- --- ------ ----- ------- ---- -- --- ------- --<br>------- ---------- ------ -- ----- -- ----- -- ---- ------<br>--- ----- --- --- ------ -------- ----- --- ------ ----- --<br>----- ----- ---------- --- --- ------ ------ ---- -- ------<br>------- --- French ----- --- ---- ------- -- ---- --- --<br>------- ------,153247.60000002384,153247.10000002384,152895.418,152895.5,152912.446,153262.146,,45,French
screen,html.Screen,2_1_1_1_46,2022-02-02T13:28:34.285Z,,,,,,,,,,,,,,,,,54,,,,,,,,,,,,,,288.8539999999921,,response,,,,100,,,,,,,Space,keypress(Space),,,,,,,,-- --- ---- --- ------ ----- ------- ---- -- --- ------- --<br>------- ---------- ------ -- ----- -- ----- -- ---- ------<br>--- ----- --- --- ------ -------- ----- --- ------ ----- --<br>----- ----- ---------- --- --- ------ ------ ---- -- ------<br>------- --- ------ state --- ---- ------- -- ---- --- --<br>------- ------,153551.79999995232,153551,153245.375,153247.70000004768,153262.146,153562.327,,46,state
screen,html.Screen,2_1_1_1_47,2022-02-02T13:28:34.589Z,,,,,,,,,,,,,,,,,54,,,,,,,,,,,,,,292.77300002385164,,response,,,,100,,,,,,,Space,keypress(Space),,,,,,,,-- --- ---- --- ------ ----- ------- ---- -- --- ------- --<br>------- ---------- ------ -- ----- -- ----- -- ---- ------<br>--- ----- --- --- ------ -------- ----- --- ------ ----- --<br>----- ----- ---------- --- --- ------ ------ ---- -- ------<br>------- --- ------ ----- was ---- ------- -- ---- --- --<br>------- ------,153855.70000004768,153855.10000002384,153545.606,153551.79999995232,153562.327,153862.56,,47,was
screen,html.Screen,2_1_1_1_48,2022-02-02T13:28:35.013Z,,,,,,,,,,,,,,,,,54,,,,,,,,,,,,,,416.4400000000023,,response,,,,100,,,,,,,Space,keypress(Space),,,,,,,,-- --- ---- --- ------ ----- ------- ---- -- --- ------- --<br>------- ---------- ------ -- ----- -- ----- -- ---- ------<br>--- ----- --- --- ------ -------- ----- --- ------ ----- --<br>----- ----- ---------- --- --- ------ ------ ---- -- ------<br>------- --- ------ ----- --- left ------- -- ---- --- --<br>------- ------,154279.79999995232,154279,153845.525,153855.79999995232,153862.56,154295.776,,48,left
screen,html.Screen,2_1_1_1_49,2022-02-02T13:28:35.333Z,,,,,,,,,,,,,,,,,54,,,,,,,,,,,,,,303.2239999999874,,response,,,,100,,,,,,,Space,keypress(Space),,,,,,,,-- --- ---- --- ------ ----- ------- ---- -- --- ------- --<br>------- ---------- ------ -- ----- -- ----- -- ---- ------<br>--- ----- --- --- ------ -------- ----- --- ------ ----- --<br>----- ----- ---------- --- --- ------ ------ ---- -- ------<br>------- --- ------ ----- --- ---- without -- ---- --- --<br>------- ------,154599.60000002384,154599,154279.01,154279.89999997616,154295.776,154612.285,,49,without
screen,html.Screen,2_1_1_1_50,2022-02-02T13:28:35.637Z,,,,,,,,,,,,,,,,,54,,,,,,,,,,,,,,291.0149999523128,,response,,,,100,,,,,,,Space,keypress(Space),,,,,,,,-- --- ---- --- ------ ----- ------- ---- -- --- ------- --<br>------- ---------- ------ -- ----- -- ----- -- ---- ------<br>--- ----- --- --- ------ -------- ----- --- ------ ----- --<br>----- ----- ---------- --- --- ------ ------ ---- -- ------<br>------- --- ------ ----- --- ---- ------- an ---- --- --<br>------- ------,154903.89999997616,154903.29999995232,154595.484,154599.70000004768,154612.285,154912.055,,50,an
screen,html.Screen,2_1_1_1_51,2022-02-02T13:28:35.989Z,,,,,,,,,,,,,,,,,54,,,,,,,,,,,,,,343.3449999761651,,response,,,,100,,,,,,,Space,keypress(Space),,,,,,,,-- --- ---- --- ------ ----- ------- ---- -- --- ------- --<br>------- ---------- ------ -- ----- -- ----- -- ---- ------<br>--- ----- --- --- ------ -------- ----- --- ------ ----- --<br>----- ----- ---------- --- --- ------ ------ ---- -- ------<br>------- --- ------ ----- --- ---- ------- -- easy --- --<br>------- ------,155255.89999997616,155255.39999997616,154895.449,154903.89999997616,154912.055,155261.969,,51,easy
screen,html.Screen,2_1_1_1_52,2022-02-02T13:28:36.373Z,,,,,,,,,,,,,,,,,54,,,,,,,,,,,,,,376.8309999523044,,response,,,,100,,,,,,,Space,keypress(Space),,,,,,,,-- --- ---- --- ------ ----- ------- ---- -- --- ------- --<br>------- ---------- ------ -- ----- -- ----- -- ---- ------<br>--- ----- --- --- ------ -------- ----- --- ------ ----- --<br>----- ----- ---------- --- --- ------ ------ ---- -- ------<br>------- --- ------ ----- --- ---- ------- -- ---- way --<br>------- ------,155639.5,155638.79999995232,155245.824,155256,155261.969,155645.482,,52,way
screen,html.Screen,2_1_1_1_53,2022-02-02T13:28:36.709Z,,,,,,,,,,,,,,,,,54,,,,,,,,,,,,,,329.71800004769466,,response,,,,100,,,,,,,Space,keypress(Space),,,,,,,,-- --- ---- --- ------ ----- ------- ---- -- --- ------- --<br>------- ---------- ------ -- ----- -- ----- -- ---- ------<br>--- ----- --- --- ------ -------- ----- --- ------ ----- --<br>----- ----- ---------- --- --- ------ ------ ---- -- ------<br>------- --- ------ ----- --- ---- ------- -- ---- --- of<br>------- ------,155975.70000004768,155975.20000004768,155628.693,155639.5,155645.482,155978.699,,53,of
screen,html.Screen,2_1_1_1_54,2022-02-02T13:28:37.061Z,,,,,,,,,,,,,,,,,54,,,,,,,,,,,,,,348.50100004769047,,response,,,,100,,,,,,,Space,keypress(Space),,,,,,,,-- --- ---- --- ------ ----- ------- ---- -- --- ------- --<br>------- ---------- ------ -- ----- -- ----- -- ---- ------<br>--- ----- --- --- ------ -------- ----- --- ------ ----- --<br>----- ----- ---------- --- --- ------ ------ ---- -- ------<br>------- --- ------ ----- --- ---- ------- -- ---- --- --<br>raising ------,156327.89999997616,156327.20000004768,155962.275,155975.79999995232,155978.699,156346.192,,54,raising
screen,html.Screen,2_1_1_1_55,2022-02-02T13:28:37.565Z,,,,,,,,,,,,,,,,,54,,,,,,,,,,,,,,484.70799997614813,,response,,,,100,,,,,,,Space,keypress(Space),,,,,,,,-- --- ---- --- ------ ----- ------- ---- -- --- ------- --<br>------- ---------- ------ -- ----- -- ----- -- ---- ------<br>--- ----- --- --- ------ -------- ----- --- ------ ----- --<br>----- ----- ---------- --- --- ------ ------ ---- -- ------<br>------- --- ------ ----- --- ---- ------- -- ---- --- --<br>------- money.,156831.70000004768,156830.89999997616,156312.172,156328,156346.192,156845.883,,55,money.
Item 100,flow.Loop,2_1_1_1,2022-02-02T13:28:37.565Z,,,,,,,,,,,,,,,,,,,,,,,,,,,,,,,22951.89699997616,,completion,,,,,B,,,,,,,,,,,silence,,,,,156831.79999995232,156830.89999997616,133862.167,133862.79999995232,133879.003,156845.883,,,
Question 1,html.Screen,2_1_1_2,2022-02-02T13:28:39.296Z,,,,,,,,,,,,,,,,,,,,,,,,,,,,true,TRUE,,1716.5169999761565,,response,,,,100,B,,,,,,TRUE,click #choice-1,,,,silence,,,,,158563.29999995232,158562.39999997616,156828.912,156831.79999995232,156845.883,158578.964,,,
Question 2,html.Screen,2_1_1_3,2022-02-02T13:28:41.409Z,,,,,,,,,,,,,,,,,,,,,,,,,,,,true,FALSE,,2095.535999999993,,response,,,,100,B,,,,,,FALSE,click #choice-2,,,,silence,,,,,160675.5,160674.5,158562.325,158563.5,158578.964,160678.851,,,
Item 100,flow.Sequence,2_1_1,2022-02-02T13:28:41.409Z,,,,,,,,,,,,,,,,,,,,,,,,,,,,,,,36795.428,,completion,,,,,,,,,,,,,,,,,,,,,160675.60000002384,160674.5,123862.101,123866.79999995232,123879.072,160678.851,,,
End of Practice,html.Page,2_1_2,2022-02-02T13:28:46.437Z,,,,,,,,,,,,,,,,,,,,,,,,,,,,,,,5024.448999952321,,form submission,,,,,,,,,,,,,,,,,,,,,165703.60000002384,165703.29999995232,160662.11,160675.70000004768,160678.851,165712.114,,,
Practice,flow.Sequence,2_1,2022-02-02T13:28:46.437Z,,,,,,,,,,,,,,,,,,,,,,,,,,,,,,,87340.99199995231,,completion,,,,,,,,,,,,,,,,,,,,,165703.70000004768,165703.29999995232,78345.272,78359.29999995232,78362.308,165712.114,,,
Trap_instruction,html.Page,2_2_0,2022-02-02T13:28:49.805Z,,,,,,,,,,,,,,,,,,,,,,,,,,,,,,,3359.3859999999986,,form submission,,,,,,,,,,,,,,,,,,,,,169071.79999995232,169071.5,165695.498,165703.70000004768,165712.114,169078.732,,,
trap_trial,html.Screen,2_2_1,2022-02-02T13:28:55.557Z,,,,,,,,,,,,,,,,,,,,,,,,,,,,true,1,,5743.968000047695,,response,,,,,,,,,,,1,click #choice-1,,,,,,,,,174823.5,174822.70000004768,169062.042,169071.79999995232,169078.732,174829.084,,,
end of trap trial,html.Page,2_2_2,2022-02-02T13:28:57.125Z,,,,,,,,,,,,,,,,,,,,,,,,,,,,,,,1562.7159999523137,,form submission,,,,,,,,,,,,,,,,,,,,,176392.20000004768,176391.79999995232,174812.23,174823.5,174829.084,176395.56,,,
Trap 1,flow.Sequence,2_2,2022-02-02T13:28:57.125Z,,,,,,,,,,,,,,,,,,,,,,,,,,,,,,,10679.685999952315,,completion,,,,,,,,,,,,,,,,,,,,,176392.20000004768,176391.79999995232,165695.498,165703.70000004768,165712.114,176395.56,,,
Standby,html.Page,2_3_0,2022-02-02T13:29:05.113Z,,,,,,,,,,,,,,,,,,,,,,,,,,,,,,,7999.877999999997,,timeout,,,,,,,,,,,,,,,,,,,,,184379.89999997616,184379.17,176378.747,176392.29999995232,176395.56,184395.438,,,
Holding screen,html.Screen,2_3_1_0_0,2022-02-02T13:29:12.113Z,,,,,,,,,,,,,,,,,,,,,,,,,,,,,,,7000.489000000001,,timeout,,,,,,,,,,,,,,,,,,,,,191379.5,191378.911,184379.17,184380,184395.438,191395.927,,,
screen,html.Screen,2_3_1_0_1_0,2022-02-02T13:29:12.797Z,,,,,,,,,,,,,,,,,2,,,,,,,,,,,,,,667.3729999523202,,response,,,,1,B,,,,,,Space,keypress(Space),,,,lyrical,,,,Two ---- ------ --- ------- ---------- ------- ----------<br>--- --------- --- ----------- ------- ----- ------- ---<br>--------- ---- -- --- ---- -- --------- -- ---- -------<br>-- --------- ------ --- ----- ------ ---- --- --------- --<br>------ - ---- -- --- ----------- ------- ---- ----- -----<br>--- -------- - ------ ---- -- ----- ---- --- --- -----------<br>-- -------,192064.20000004768,192063.29999995232,191378.911,191379.70000004768,191395.927,192078.927,,0,Two
screen,html.Screen,2_3_1_0_1_1,2022-02-02T13:29:13.229Z,,,,,,,,,,,,,,,,,2,,,,,,,,,,,,,,416.2730000476877,,response,,,,1,B,,,,,,Space,keypress(Space),,,,lyrical,,,,--- days ------ --- ------- ---------- ------- ----------<br>--- --------- --- ----------- ------- ----- ------- ---<br>--------- ---- -- --- ---- -- --------- -- ---- -------<br>-- --------- ------ --- ----- ------ ---- --- --------- --<br>------ - ---- -- --- ----------- ------- ---- ----- -----<br>--- -------- - ------ ---- -- ----- ---- --- --- -----------<br>-- -------,192496,192495.20000004768,192062.251,192064.29999995232,192078.927,192512.176,,1,days
screen,html.Screen,2_3_1_0_1_2,2022-02-02T13:29:13.669Z,,,,,,,,,,,,,,,,,2,,,,,,,,,,,,,,423.02400004767696,,response,,,,1,B,,,,,,Space,keypress(Space),,,,lyrical,,,,"--- ---- later, --- ------- ---------- ------- ----------<br>--- --------- --- ----------- ------- ----- ------- ---<br>--------- ---- -- --- ---- -- --------- -- ---- -------<br>-- --------- ------ --- ----- ------ ---- --- --------- --<br>------ - ---- -- --- ----------- ------- ---- ----- -----<br>--- -------- - ------ ---- -- ----- ---- --- --- -----------<br>-- -------",192936,192935.20000004768,192495.682,192496.10000002384,192512.176,192945.44,,2,"later,"
screen,html.Screen,2_3_1_0_1_3,2022-02-02T13:29:14.061Z,,,,,,,,,,,,,,,,,2,,,,,,,,,,,,,,381.66000002383953,,response,,,,1,B,,,,,,Space,keypress(Space),,,,lyrical,,,,--- ---- ------ the ------- ---------- ------- ----------<br>--- --------- --- ----------- ------- ----- ------- ---<br>--------- ---- -- --- ---- -- --------- -- ---- -------<br>-- --------- ------ --- ----- ------ ---- --- --------- --<br>------ - ---- -- --- ----------- ------- ---- ----- -----<br>--- -------- - ------ ---- -- ----- ---- --- --- -----------<br>-- -------,193327.70000004768,193327.10000002384,192928.829,192936,192945.44,193360.357,,3,the
screen,html.Screen,2_3_1_0_1_4,2022-02-02T13:29:14.509Z,,,,,,,,,,,,,,,,,2,,,,,,,,,,,,,,414.7430000238528,,response,,,,1,B,,,,,,Space,keypress(Space),,,,lyrical,,,,--- ---- ------ --- British ---------- ------- ----------<br>--- --------- --- ----------- ------- ----- ------- ---<br>--------- ---- -- --- ---- -- --------- -- ---- -------<br>-- --------- ------ --- ----- ------ ---- --- --------- --<br>------ - ---- -- --- ----------- ------- ---- ----- -----<br>--- -------- - ------ ---- -- ----- ---- --- --- -----------<br>-- -------,193775.79999995232,193775.10000002384,193312.433,193327.79999995232,193360.357,193779.073,,4,British
screen,html.Screen,2_3_1_0_1_5,2022-02-02T13:29:14.933Z,,,,,,,,,,,,,,,,,2,,,,,,,,,,,,,,420.3269999761542,,response,,,,1,B,,,,,,Space,keypress(Space),,,,lyrical,,,,--- ---- ------ --- ------- astronomer ------- ----------<br>--- --------- --- ----------- ------- ----- ------- ---<br>--------- ---- -- --- ---- -- --------- -- ---- -------<br>-- --------- ------ --- ----- ------ ---- --- --------- --<br>------ - ---- -- --- ----------- ------- ---- ----- -----<br>--- -------- - ------ ---- -- ----- ---- --- --- -----------<br>-- -------,194200,194199.39999997616,193762.094,193775.79999995232,193779.073,194212.483,,5,astronomer
screen,html.Screen,2_3_1_0_1_6,2022-02-02T13:29:15.301Z,,,,,,,,,,,,,,,,,2,,,,,,,,,,,,,,355.01699999999255,,response,,,,1,B,,,,,,Space,keypress(Space),,,,lyrical,,,,--- ---- ------ --- ------- ---------- Richard ----------<br>--- --------- --- ----------- ------- ----- ------- ---<br>--------- ---- -- --- ---- -- --------- -- ---- -------<br>-- --------- ------ --- ----- ------ ---- --- --------- --<br>------ - ---- -- --- ----------- ------- ---- ----- -----<br>--- -------- - ------ ---- -- ----- ---- --- --- -----------<br>-- -------,194568,194567.5,194195.614,194200.10000002384,194212.483,194579.043,,6,Richard
screen,html.Screen,2_3_1_0_1_7,2022-02-02T13:29:15.758Z,,,,,,,,,,,,,,,,,2,,,,,,,,,,,,,,444.6570000476786,,response,,,,1,B,,,,,,Space,keypress(Space),,,,lyrical,,,,--- ---- ------ --- ------- ---------- ------- Carrington<br>--- --------- --- ----------- ------- ----- ------- ---<br>--------- ---- -- --- ---- -- --------- -- ---- -------<br>-- --------- ------ --- ----- ------ ---- --- --------- --<br>------ - ---- -- --- ----------- ------- ---- ----- -----<br>--- -------- - ------ ---- -- ----- ---- --- --- -----------<br>-- -------,195024.60000002384,195023.70000004768,194562.006,194568.20000004768,194579.043,195028.624,,7,Carrington
screen,html.Screen,2_3_1_0_1_8,2022-02-02T13:29:16.126Z,,,,,,,,,,,,,,,,,2,,,,,,,,,,,,,,363.076000047673,,response,,,,1,B,,,,,,Space,keypress(Space),,,,lyrical,,,,--- ---- ------ --- ------- ---------- ------- ----------<br>was --------- --- ----------- ------- ----- ------- ---<br>--------- ---- -- --- ---- -- --------- -- ---- -------<br>-- --------- ------ --- ----- ------ ---- --- --------- --<br>------ - ---- -- --- ----------- ------- ---- ----- -----<br>--- -------- - ------ ---- -- ----- ---- --- --- -----------<br>-- -------,195392.39999997616,195391.70000004768,195012.279,195024.60000002384,195028.624,195395.703,,8,was
screen,html.Screen,2_3_1_0_1_9,2022-02-02T13:29:16.413Z,,,,,,,,,,,,,,,,,2,,,,,,,,,,,,,,283.7969999999914,,response,,,,1,B,,,,,,Space,keypress(Space),,,,lyrical,,,,--- ---- ------ --- ------- ---------- ------- ----------<br>--- observing --- ----------- ------- ----- ------- ---<br>--------- ---- -- --- ---- -- --------- -- ---- -------<br>-- --------- ------ --- ----- ------ ---- --- --------- --<br>------ - ---- -- --- ----------- ------- ---- ----- -----<br>--- -------- - ------ ---- -- ----- ---- --- --- -----------<br>-- -------,195680.10000002384,195679.5,195378.975,195392.5,195395.703,195695.793,,9,observing
screen,html.Screen,2_3_1_0_1_10,2022-02-02T13:29:16.717Z,,,,,,,,,,,,,,,,,2,,,,,,,,,,,,,,287.606999976153,,response,,,,1,B,,,,,,Space,keypress(Space),,,,lyrical,,,,--- ---- ------ --- ------- ---------- ------- ----------<br>--- --------- the ----------- ------- ----- ------- ---<br>--------- ---- -- --- ---- -- --------- -- ---- -------<br>-- --------- ------ --- ----- ------ ---- --- --------- --<br>------ - ---- -- --- ----------- ------- ---- ----- -----<br>--- -------- - ------ ---- -- ----- ---- --- --- -----------<br>-- -------,195984,195983.39999997616,195679.038,195680.20000004768,195695.793,195995.8,,10,the
screen,html.Screen,2_3_1_0_1_11,2022-02-02T13:29:17.149Z,,,,,,,,,,,,,,,,,2,,,,,,,,,,,,,,419.70000000001164,,response,,,,1,B,,,,,,Space,keypress(Space),,,,lyrical,,,,--- ---- ------ --- ------- ---------- ------- ----------<br>--- --------- --- interesting ------- ----- ------- ---<br>--------- ---- -- --- ---- -- --------- -- ---- -------<br>-- --------- ------ --- ----- ------ ---- --- --------- --<br>------ - ---- -- --- ----------- ------- ---- ----- -----<br>--- -------- - ------ ---- -- ----- ---- --- --- -----------<br>-- -------,196416.10000002384,196415.5,195978.742,195984.20000004768,195995.8,196428.972,,11,interesting
screen,html.Screen,2_3_1_0_1_12,2022-02-02T13:29:17.557Z,,,,,,,,,,,,,,,,,2,,,,,,,,,,,,,,394.22800004767487,,response,,,,1,B,,,,,,Space,keypress(Space),,,,lyrical,,,,--- ---- ------ --- ------- ---------- ------- ----------<br>--- --------- --- ----------- sunspot ----- ------- ---<br>--------- ---- -- --- ---- -- --------- -- ---- -------<br>-- --------- ------ --- ----- ------ ---- --- --------- --<br>------ - ---- -- --- ----------- ------- ---- ----- -----<br>--- -------- - ------ ---- -- ----- ---- --- --- -----------<br>-- -------,196824,196823.20000004768,196412.355,196416.20000004768,196428.972,196828.974,,12,sunspot
screen,html.Screen,2_3_1_0_1_13,2022-02-02T13:29:18.917Z,,,,,,,,,,,,,,,,,2,,,,,,,,,,,,,,1354.1260000238544,,response,,,,1,B,,,,,,Space,keypress(Space),,,,lyrical,,,,--- ---- ------ --- ------- ---------- ------- ----------<br>--- --------- --- ----------- ------- group ------- ---<br>--------- ---- -- --- ---- -- --------- -- ---- -------<br>-- --------- ------ --- ----- ------ ---- --- --------- --<br>------ - ---- -- --- ----------- ------- ---- ----- -----<br>--- -------- - ------ ---- -- ----- ---- --- --- -----------<br>-- -------,198183.89999997616,198183.10000002384,196812.39,196824,196828.974,198195.854,,13,group
screen,html.Screen,2_3_1_0_1_14,2022-02-02T13:29:19.302Z,,,,,,,,,,,,,,,,,2,,,,,,,,,,,,,,372.04599997616606,,response,,,,1,B,,,,,,Space,keypress(Space),,,,lyrical,,,,--- ---- ------ --- ------- ---------- ------- ----------<br>--- --------- --- ----------- ------- ----- through ---<br>--------- ---- -- --- ---- -- --------- -- ---- -------<br>-- --------- ------ --- ----- ------ ---- --- --------- --<br>------ - ---- -- --- ----------- ------- ---- ----- -----<br>--- -------- - ------ ---- -- ----- ---- --- --- -----------<br>-- -------,198568.39999997616,198567.89999997616,198178.82,198183.89999997616,198195.854,198579.098,,14,through
screen,html.Screen,2_3_1_0_1_15,2022-02-02T13:29:19.637Z,,,,,,,,,,,,,,,,,2,,,,,,,,,,,,,,324.20199995231815,,response,,,,1,B,,,,,,Space,keypress(Space),,,,lyrical,,,,--- ---- ------ --- ------- ---------- ------- ----------<br>--- --------- --- ----------- ------- ----- ------- his<br>--------- ---- -- --- ---- -- --------- -- ---- -------<br>-- --------- ------ --- ----- ------ ---- --- --------- --<br>------ - ---- -- --- ----------- ------- ---- ----- -----<br>--- -------- - ------ ---- -- ----- ---- --- --- -----------<br>-- -------,198904.10000002384,198903.29999995232,198562.453,198568.5,198579.098,198912.477,,15,his
screen,html.Screen,2_3_1_0_1_16,2022-02-02T13:29:19.989Z,,,,,,,,,,,,,,,,,2,,,,,,,,,,,,,,343.0229999999865,,response,,,,1,B,,,,,,Space,keypress(Space),,,,lyrical,,,,--- ---- ------ --- ------- ---------- ------- ----------<br>--- --------- --- ----------- ------- ----- ------- ---<br>telescope ---- -- --- ---- -- --------- -- ---- -------<br>-- --------- ------ --- ----- ------ ---- --- --------- --<br>------ - ---- -- --- ----------- ------- ---- ----- -----<br>--- -------- - ------ ---- -- ----- ---- --- --- -----------<br>-- -------,199255.89999997616,199255.5,198895.773,198904.20000004768,198912.477,199262.242,,16,telescope
screen,html.Screen,2_3_1_0_1_17,2022-02-02T13:29:20.348Z,,,,,,,,,,,,,,,,,2,,,,,,,,,,,,,,352.5579999523179,,response,,,,1,B,,,,,,Space,keypress(Space),,,,lyrical,,,,--- ---- ------ --- ------- ---------- ------- ----------<br>--- --------- --- ----------- ------- ----- ------- ---<br>--------- when -- --- ---- -- --------- -- ---- -------<br>-- --------- ------ --- ----- ------ ---- --- --------- --<br>------ - ---- -- --- ----------- ------- ---- ----- -----<br>--- -------- - ------ ---- -- ----- ---- --- --- -----------<br>-- -------,199615.10000002384,199614.79999995232,199245.939,199256,199262.242,199629.015,,17,when
screen,html.Screen,2_3_1_0_1_18,2022-02-02T13:29:20.653Z,,,,,,,,,,,,,,,,,2,,,,,,,,,,,,,,290.48499999998603,,response,,,,1,B,,,,,,Space,keypress(Space),,,,lyrical,,,,--- ---- ------ --- ------- ---------- ------- ----------<br>--- --------- --- ----------- ------- ----- ------- ---<br>--------- ---- he --- ---- -- --------- -- ---- -------<br>-- --------- ------ --- ----- ------ ---- --- --------- --<br>------ - ---- -- --- ----------- ------- ---- ----- -----<br>--- -------- - ------ ---- -- ----- ---- --- --- -----------<br>-- -------,199920.29999995232,199919.5,199612.305,199615.20000004768,199629.015,199928.871,,18,he
screen,html.Screen,2_3_1_0_1_19,2022-02-02T13:29:21.005Z,,,,,,,,,,,,,,,,,2,,,,,,,,,,,,,,342.5289999761444,,response,,,,1,B,,,,,,Space,keypress(Space),,,,lyrical,,,,--- ---- ------ --- ------- ---------- ------- ----------<br>--- --------- --- ----------- ------- ----- ------- ---<br>--------- ---- -- saw ---- -- --------- -- ---- -------<br>-- --------- ------ --- ----- ------ ---- --- --------- --<br>------ - ---- -- --- ----------- ------- ---- ----- -----<br>--- -------- - ------ ---- -- ----- ---- --- --- -----------<br>-- -------,200272,200271.39999997616,199912.241,199920.39999997616,199928.871,200278.716,,19,saw
screen,html.Screen,2_3_1_0_1_20,2022-02-02T13:29:21.741Z,,,,,,,,,,,,,,,,,2,,,,,,,,,,,,,,728.0839999523305,,response,,,,1,B,,,,,,Space,keypress(Space),,,,lyrical,,,,--- ---- ------ --- ------- ---------- ------- ----------<br>--- --------- --- ----------- ------- ----- ------- ---<br>--------- ---- -- --- what -- --------- -- ---- -------<br>-- --------- ------ --- ----- ------ ---- --- --------- --<br>------ - ---- -- --- ----------- ------- ---- ----- -----<br>--- -------- - ------ ---- -- ----- ---- --- --- -----------<br>-- -------,201007.5,201006.79999995232,200262.161,200272,200278.716,201012.259,,20,what
screen,html.Screen,2_3_1_0_1_21,2022-02-02T13:29:22.013Z,,,,,,,,,,,,,,,,,2,,,,,,,,,,,,,,267.34100002385094,,response,,,,1,B,,,,,,Space,keypress(Space),,,,lyrical,,,,--- ---- ------ --- ------- ---------- ------- ----------<br>--- --------- --- ----------- ------- ----- ------- ---<br>--------- ---- -- --- ---- he --------- -- ---- -------<br>-- --------- ------ --- ----- ------ ---- --- --------- --<br>------ - ---- -- --- ----------- ------- ---- ----- -----<br>--- -------- - ------ ---- -- ----- ---- --- --- -----------<br>-- -------,201280.20000004768,201279.60000002384,200995.56,201007.5,201012.259,201295.693,,21,he
screen,html.Screen,2_3_1_0_1_22,2022-02-02T13:29:22.381Z,,,,,,,,,,,,,,,,,2,,,,,,,,,,,,,,351.70699997615884,,response,,,,1,B,,,,,,Space,keypress(Space),,,,lyrical,,,,--- ---- ------ --- ------- ---------- ------- ----------<br>--- --------- --- ----------- ------- ----- ------- ---<br>--------- ---- -- --- ---- -- described -- ---- -------<br>-- --------- ------ --- ----- ------ ---- --- --------- --<br>------ - ---- -- --- ----------- ------- ---- ----- -----<br>--- -------- - ------ ---- -- ----- ---- --- --- -----------<br>-- -------,201648.10000002384,201647.39999997616,201279.182,201280.20000004768,201295.693,201662.339,,22,described
screen,html.Screen,2_3_1_0_1_23,2022-02-02T13:29:22.686Z,,,,,,,,,,,,,,,,,2,,,,,,,,,,,,,,289.3610000476765,,response,,,,1,B,,,,,,Space,keypress(Space),,,,lyrical,,,,--- ---- ------ --- ------- ---------- ------- ----------<br>--- --------- --- ----------- ------- ----- ------- ---<br>--------- ---- -- --- ---- -- --------- as ---- -------<br>-- --------- ------ --- ----- ------ ---- --- --------- --<br>------ - ---- -- --- ----------- ------- ---- ----- -----<br>--- -------- - ------ ---- -- ----- ---- --- --- -----------<br>-- -------,201952.39999997616,201951.70000004768,201645.283,201648.10000002384,201662.339,201962.395,,23,as
screen,html.Screen,2_3_1_0_1_24,2022-02-02T13:29:22.989Z,,,,,,,,,,,,,,,,,2,,,,,,,,,,,,,,293.20500002385234,,response,,,,1,B,,,,,,Space,keypress(Space),,,,lyrical,,,,"--- ---- ------ --- ------- ---------- ------- ----------<br>--- --------- --- ----------- ------- ----- ------- ---<br>--------- ---- -- --- ---- -- --------- -- ""two -------<br>-- --------- ------ --- ----- ------ ---- --- --------- --<br>------ - ---- -- --- ----------- ------- ---- ----- -----<br>--- -------- - ------ ---- -- ----- ---- --- --- -----------<br>-- -------",202256.39999997616,202255.60000002384,201945.344,201952.5,201962.395,202262.008,,24,"""two"
screen,html.Screen,2_3_1_0_1_25,2022-02-02T13:29:23.445Z,,,,,,,,,,,,,,,,,2,,,,,,,,,,,,,,449.6920000476821,,response,,,,1,B,,,,,,Space,keypress(Space),,,,lyrical,,,,--- ---- ------ --- ------- ---------- ------- ----------<br>--- --------- --- ----------- ------- ----- ------- ---<br>--------- ---- -- --- ---- -- --------- -- ---- patches<br>-- --------- ------ --- ----- ------ ---- --- --------- --<br>------ - ---- -- --- ----------- ------- ---- ----- -----<br>--- -------- - ------ ---- -- ----- ---- --- --- -----------<br>-- -------,202712.20000004768,202711.70000004768,202245.357,202256.39999997616,202262.008,202729.058,,25,patches
screen,html.Screen,2_3_1_0_1_26,2022-02-02T13:29:23.749Z,,,,,,,,,,,,,,,,,2,,,,,,,,,,,,,,286.44200000001,,response,,,,1,B,,,,,,Space,keypress(Space),,,,lyrical,,,,--- ---- ------ --- ------- ---------- ------- ----------<br>--- --------- --- ----------- ------- ----- ------- ---<br>--------- ---- -- --- ---- -- --------- -- ---- -------<br>of --------- ------ --- ----- ------ ---- --- --------- --<br>------ - ---- -- --- ----------- ------- ---- ----- -----<br>--- -------- - ------ ---- -- ----- ---- --- --- -----------<br>-- -------,203016.10000002384,203015.5,202712.364,202712.29999995232,202729.058,203028.943,,26,of
screen,html.Screen,2_3_1_0_1_27,2022-02-02T13:29:24.053Z,,,,,,,,,,,,,,,,,2,,,,,,,,,,,,,,290.65700002384256,,response,,,,1,B,,,,,,Space,keypress(Space),,,,lyrical,,,,--- ---- ------ --- ------- ---------- ------- ----------<br>--- --------- --- ----------- ------- ----- ------- ---<br>--------- ---- -- --- ---- -- --------- -- ---- -------<br>-- intensely ------ --- ----- ------ ---- --- --------- --<br>------ - ---- -- --- ----------- ------- ---- ----- -----<br>--- -------- - ------ ---- -- ----- ---- --- --- -----------<br>-- -------,203320.29999995232,203319.60000002384,203012.445,203016.20000004768,203028.943,203329.066,,27,intensely
screen,html.Screen,2_3_1_0_1_28,2022-02-02T13:29:24.477Z,,,,,,,,,,,,,,,,,2,,,,,,,,,,,,,,414.53400002385024,,response,,,,1,B,,,,,,Space,keypress(Space),,,,lyrical,,,,--- ---- ------ --- ------- ---------- ------- ----------<br>--- --------- --- ----------- ------- ----- ------- ---<br>--------- ---- -- --- ---- -- --------- -- ---- -------<br>-- --------- bright --- ----- ------ ---- --- --------- --<br>------ - ---- -- --- ----------- ------- ---- ----- -----<br>--- -------- - ------ ---- -- ----- ---- --- --- -----------<br>-- -------,203744.29999995232,203743.60000002384,203312.457,203320.39999997616,203329.066,203776.347,,28,bright
screen,html.Screen,2_3_1_0_1_29,2022-02-02T13:29:25.013Z,,,,,,,,,,,,,,,,,2,,,,,,,,,,,,,,503.253000023833,,response,,,,1,B,,,,,,Space,keypress(Space),,,,lyrical,,,,--- ---- ------ --- ------- ---------- ------- ----------<br>--- --------- --- ----------- ------- ----- ------- ---<br>--------- ---- -- --- ---- -- --------- -- ---- -------<br>-- --------- ------ and ----- ------ ---- --- --------- --<br>------ - ---- -- --- ----------- ------- ---- ----- -----<br>--- -------- - ------ ---- -- ----- ---- --- --- -----------<br>-- -------,204280.29999995232,204279.60000002384,203728.843,203744.39999997616,203776.347,204295.888,,29,and
screen,html.Screen,2_3_1_0_1_30,2022-02-02T13:29:25.397Z,,,,,,,,,,,,,,,,,2,,,,,,,,,,,,,,367.51199997615186,,response,,,,1,B,,,,,,Space,keypress(Space),,,,lyrical,,,,--- ---- ------ --- ------- ---------- ------- ----------<br>--- --------- --- ----------- ------- ----- ------- ---<br>--------- ---- -- --- ---- -- --------- -- ---- -------<br>-- --------- ------ --- white ------ ---- --- --------- --<br>------ - ---- -- --- ----------- ------- ---- ----- -----<br>--- -------- - ------ ---- -- ----- ---- --- --- -----------<br>-- -------,204664.20000004768,204663.39999997616,204278.686,204280.29999995232,204295.888,204679.015,,30,white
screen,html.Screen,2_3_1_0_1_31,2022-02-02T13:29:26.085Z,,,,,,,,,,,,,,,,,2,,,,,,,,,,,,,,672.1850000476697,,response,,,,1,B,,,,,,Space,keypress(Space),,,,lyrical,,,,"--- ---- ------ --- ------- ---------- ------- ----------<br>--- --------- --- ----------- ------- ----- ------- ---<br>--------- ---- -- --- ---- -- --------- -- ---- -------<br>-- --------- ------ --- ----- light"" ---- --- --------- --<br>------ - ---- -- --- ----------- ------- ---- ----- -----<br>--- -------- - ------ ---- -- ----- ---- --- --- -----------<br>-- -------",205351.79999995232,205351.20000004768,204662.455,204664.20000004768,204679.015,205362.413,,31,"light"""
screen,html.Screen,2_3_1_0_1_32,2022-02-02T13:29:26.421Z,,,,,,,,,,,,,,,,,2,,,,,,,,,,,,,,325.08699999999953,,response,,,,1,B,,,,,,Space,keypress(Space),,,,lyrical,,,,--- ---- ------ --- ------- ---------- ------- ----------<br>--- --------- --- ----------- ------- ----- ------- ---<br>--------- ---- -- --- ---- -- --------- -- ---- -------<br>-- --------- ------ --- ----- ------ over --- --------- --<br>------ - ---- -- --- ----------- ------- ---- ----- -----<br>--- -------- - ------ ---- -- ----- ---- --- --- -----------<br>-- -------,205688.10000002384,205687.5,205345.66,205351.89999997616,205362.413,205695.407,,32,over
screen,html.Screen,2_3_1_0_1_33,2022-02-02T13:29:26.710Z,,,,,,,,,,,,,,,,,2,,,,,,,,,,,,,,280.2930000476772,,response,,,,1,B,,,,,,Space,keypress(Space),,,,lyrical,,,,--- ---- ------ --- ------- ---------- ------- ----------<br>--- --------- --- ----------- ------- ----- ------- ---<br>--------- ---- -- --- ---- -- --------- -- ---- -------<br>-- --------- ------ --- ----- ------ ---- the --------- --<br>------ - ---- -- --- ----------- ------- ---- ----- -----<br>--- -------- - ------ ---- -- ----- ---- --- --- -----------<br>-- -------,205976.39999997616,205975.70000004768,205678.902,205688.29999995232,205695.407,205979.026,,33,the
screen,html.Screen,2_3_1_0_1_34,2022-02-02T13:29:27.150Z,,,,,,,,,,,,,,,,,2,,,,,,,,,,,,,,436.67400004767114,,response,,,,1,B,,,,,,Space,keypress(Space),,,,lyrical,,,,--- ---- ------ --- ------- ---------- ------- ----------<br>--- --------- --- ----------- ------- ----- ------- ---<br>--------- ---- -- --- ---- -- --------- -- ---- -------<br>-- --------- ------ --- ----- ------ ---- --- sunspots. --<br>------ - ---- -- --- ----------- ------- ---- ----- -----<br>--- -------- - ------ ---- -- ----- ---- --- --- -----------<br>-- -------,206416.60000002384,206415.70000004768,205962.166,205976.60000002384,205979.026,206429.205,,34,sunspots.
screen,html.Screen,2_3_1_0_1_35,2022-02-02T13:29:27.621Z,,,,,,,,,,,,,,,,,2,,,,,,,,,,,,,,458.19499997617095,,response,,,,1,B,,,,,,Space,keypress(Space),,,,lyrical,,,,--- ---- ------ --- ------- ---------- ------- ----------<br>--- --------- --- ----------- ------- ----- ------- ---<br>--------- ---- -- --- ---- -- --------- -- ---- -------<br>-- --------- ------ --- ----- ------ ---- --- --------- He<br>------ - ---- -- --- ----------- ------- ---- ----- -----<br>--- -------- - ------ ---- -- ----- ---- --- --- -----------<br>-- -------,206888.29999995232,206887.39999997616,206412.034,206416.60000002384,206429.205,206896.009,,35,He
screen,html.Screen,2_3_1_0_1_36,2022-02-02T13:29:28.070Z,,,,,,,,,,,,,,,,,2,,,,,,,,,,,,,,439.59100002385094,,response,,,,1,B,,,,,,Space,keypress(Space),,,,lyrical,,,,--- ---- ------ --- ------- ---------- ------- ----------<br>--- --------- --- ----------- ------- ----- ------- ---<br>--------- ---- -- --- ---- -- --------- -- ---- -------<br>-- --------- ------ --- ----- ------ ---- --- --------- --<br>jotted - ---- -- --- ----------- ------- ---- ----- -----<br>--- -------- - ------ ---- -- ----- ---- --- --- -----------<br>-- -------,207336.29999995232,207335.60000002384,206878.729,206888.29999995232,206896.009,207345.322,,36,jotted
screen,html.Screen,2_3_1_0_1_37,2022-02-02T13:29:28.406Z,,,,,,,,,,,,,,,,,2,,,,,,,,,,,,,,326.2780000238563,,response,,,,1,B,,,,,,Space,keypress(Space),,,,lyrical,,,,--- ---- ------ --- ------- ---------- ------- ----------<br>--- --------- --- ----------- ------- ----- ------- ---<br>--------- ---- -- --- ---- -- --------- -- ---- -------<br>-- --------- ------ --- ----- ------ ---- --- --------- --<br>------ a ---- -- --- ----------- ------- ---- ----- -----<br>--- -------- - ------ ---- -- ----- ---- --- --- -----------<br>-- -------,207672.5,207671.60000002384,207328.722,207336.39999997616,207345.322,207678.924,,37,a
screen,html.Screen,2_3_1_0_1_38,2022-02-02T13:29:28.693Z,,,,,,,,,,,,,,,,,2,,,,,,,,,,,,,,280.6760000238428,,response,,,,1,B,,,,,,Space,keypress(Space),,,,lyrical,,,,--- ---- ------ --- ------- ---------- ------- ----------<br>--- --------- --- ----------- ------- ----- ------- ---<br>--------- ---- -- --- ---- -- --------- -- ---- -------<br>-- --------- ------ --- ----- ------ ---- --- --------- --<br>------ - note -- --- ----------- ------- ---- ----- -----<br>--- -------- - ------ ---- -- ----- ---- --- --- -----------<br>-- -------,207960.10000002384,207959.60000002384,207662.206,207672.5,207678.924,207962.087,,38,note
