sender,sender_type,sender_id,timestamp,meta,,Blues,Classical,Country,Dance,Electronic,Folk,Gospel,Hip-Hop,Jazz,Latin,Musical/Film,New-age,Pop,Prolific_id,Provo_ID,R&B,Rap,Reggae,Religious,Rock,Soul,Swing,Traditional,age,artist_name,correct,correctResponse,distraction,duration,education,ended_on,familiarity,gender,headphone_check_performance,item,list,music_frequency,offensiveness,pleasantness,position_correct,preference,response,response_action,snippet_file,song_name,song_rating,sound,stimulus_1,stimulus_2,stimulus_3,text,time_commit,time_end,time_render,time_run,time_show,time_switch,url,word,word_ID
Prolific ID,html.Form,0,2022-02-01T13:26:52.580Z,"{""labjs_version"":""20.2.2"",""labjs_build"":{""flavor"":""production"",""commit"":""a25486e0c714a0ae2ce03ff94b7bb6896854dcfa""},""location"":""https://run.pavlovia.org/mvasilev/prolific2_music_d/"",""userAgent"":""Mozilla/5.0 (Windows NT 10.0; Win64; x64) AppleWebKit/537.36 (KHTML, like Gecko) Chrome/97.0.4692.99 Safari/537.36"",""platform"":""Win32"",""language"":""en-GB"",""locale"":""en-GB"",""timeZone"":""Europe/London"",""timezoneOffset"":0,""screen_width"":1920,""screen_height"":1080,""scroll_width"":1920,""scroll_height"":889,""window_innerWidth"":1920,""window_innerHeight"":937,""devicePixelRatio"":1}",,,,,,,,,,,,,,,5f2821cb25deb5052ffe1ba9,,,,,,,,,,,,,,,7398.378999952316,,form submission,,,,,,,,,,,,,,,,,,,,,20730.199999928474,20729.799999952316,13298.066,13311.099999904633,13331.421,20731.317,{},,
Introduction,html.Screen,1_0,2022-02-01T13:26:56.640Z,,,,,,,,,,,,,,,,,,,,,,,,,,,,,,,4056.482999952317,,response,,,,,,,,,,,continue,click button,,,,,,,,,24790,24787.799999952316,20714.597,20730.399999976158,20731.317,24797.947,,,
Volume calibration,html.Screen,1_1,2022-02-01T13:27:18.962Z,,,,,,,,,,,,,,,,,,,,,,,,,,,,,,,22311.752999928474,,response,,,,,,,,,,,continue,click button,,,,,,,,,47112.299999952316,47109.699999928474,24781.37,24790.099999904633,24797.947,47114.365,,,
Task instructions,html.Screen,1_2,2022-02-01T13:27:24.433Z,,,,,,,,,,,,,,,,,,,,,,,,,,,,,,,5467.434999952318,,response,,,,,,,,,,,continue,click button,,,,,,,,,52582.89999997616,52581.799999952316,47097.73,47112.299999952316,47114.365,52597.751,,,
Sounds,html.Screen,1_3_0_0,2022-02-01T13:27:28.682Z,,,,,,,,,,,,,,,,,,,,,,,,,,,,,,,4249.906000000003,,timeout,,,,,,,,,3,,,,,,,,I,O,S,,56832.59999990463,56830.988,52581.028,52583.09999990463,52597.751,56847.657,,,
Judgement,html.Screen,1_3_0_1,2022-02-01T13:27:32.039Z,,,,,,,,,,,,,,,,,,,,,,,,,,,,false,3,,3340.542999928475,,response,,,,,,,,,3,,2,click #choice-2,,,,,I,O,S,,60189.09999990463,60188.199999928474,56830.988,56832.59999990463,56847.657,60197.543,,,
Trial,flow.Sequence,1_3_0,2022-02-01T13:27:32.040Z,,,,,,,,,,,,,,,,,,,,,,,,,,,,,,,7590.448999928478,,completion,,,,,,,,,3,,,,,,,,I,O,S,,60190.39999997616,60188.199999928474,52581.028,52583.09999990463,52597.751,60197.543,,,
Sounds,html.Screen,1_3_1_0,2022-02-01T13:27:36.282Z,,,,,,,,,,,,,,,,,,,,,,,,,,,,,,,4250.031999999999,,timeout,,,,,,,,,2,,,,,,,,O,S,I,,64432.59999990463,64430.856,60180.909,60190.59999990463,60197.543,64447.575,,,
Judgement,html.Screen,1_3_1_1,2022-02-01T13:27:38.378Z,,,,,,,,,,,,,,,,,,,,,,,,,,,,true,2,,2080.0249999046355,,response,,,,,,,,,2,,2,click #choice-2,,,,,O,S,I,,66528.5,66527.59999990463,64430.856,64432.59999990463,64447.575,66530.965,,,
Trial,flow.Sequence,1_3_1,2022-02-01T13:27:38.378Z,,,,,,,,,,,,,,,,,,,,,,,,,,,,,,,6330.056999904635,,completion,,,,,,,,,2,,,,,,,,O,S,I,,66528.69999992847,66527.59999990463,60180.909,60190.5,60197.543,66530.965,,,
Sounds,html.Screen,1_3_2_0,2022-02-01T13:27:42.614Z,,,,,,,,,,,,,,,,,,,,,,,,,,,,,,,4249.959000000003,,timeout,,,,,,,,,1,,,,,,,,S,O,I,,70764.69999992847,70764.226,66514.223,66528.79999995232,66530.965,70780.924,,,
Judgement,html.Screen,1_3_2_1,2022-02-01T13:27:47.888Z,,,,,,,,,,,,,,,,,,,,,,,,,,,,true,1,,5255.975999976159,,response,,,,,,,,,1,,1,click #choice-1,,,,,S,O,I,,76038,76036.89999997616,70764.226,70764.89999997616,70780.924,76047.389,,,
Trial,flow.Sequence,1_3_2,2022-02-01T13:27:47.888Z,,,,,,,,,,,,,,,,,,,,,,,,,,,,,,,9505.934999976162,,completion,,,,,,,,,1,,,,,,,,S,O,I,,76038.19999992847,76036.89999997616,66514.223,66528.69999992847,66530.965,76047.389,,,
Sounds,html.Screen,1_3_3_0,2022-02-01T13:27:52.131Z,,,,,,,,,,,,,,,,,,,,,,,,,,,,,,,4250.315000000002,,timeout,,,,,,,,,1,,,,,,,,S,I,O,,80281.39999997616,80280.694,76030.864,76038.19999992847,76047.389,80297.704,,,
Judgement,html.Screen,1_3_3_1,2022-02-01T13:27:55.017Z,,,,,,,,,,,,,,,,,,,,,,,,,,,,true,1,,2868.8959999046347,,response,,,,,,,,,1,,1,click #choice-1,,,,,S,I,O,,83167.79999995232,83166.59999990463,80280.694,80281.39999997616,80297.704,83180.776,,,
Trial,flow.Sequence,1_3_3,2022-02-01T13:27:55.018Z,,,,,,,,,,,,,,,,,,,,,,,,,,,,,,,7119.210999904637,,completion,,,,,,,,,1,,,,,,,,S,I,O,,83167.79999995232,83166.59999990463,76030.864,76038.19999992847,76047.389,83180.776,,,
Sounds,html.Screen,1_3_4_0,2022-02-01T13:27:59.264Z,,,,,,,,,,,,,,,,,,,,,,,,,,,,,,,4249.866999999998,,timeout,,,,,,,,,2,,,,,,,,I,S,O,,87414.39999997616,87413.992,83164.088,83167.89999997616,83180.776,87430.643,,,
Judgement,html.Screen,1_3_4_1,2022-02-01T13:28:02.315Z,,,,,,,,,,,,,,,,,,,,,,,,,,,,true,2,,3033.2569999761618,,response,,,,,,,,,2,,2,click #choice-2,,,,,I,S,O,,90465.79999995232,90463.89999997616,87413.992,87414.5,87430.643,90480.612,,,
Trial,flow.Sequence,1_3_4,2022-02-01T13:28:02.316Z,,,,,,,,,,,,,,,,,,,,,,,,,,,,,,,7283.12399997616,,completion,,,,,,,,,2,,,,,,,,I,S,O,,90465.79999995232,90463.89999997616,83164.088,83167.89999997616,83180.776,90480.612,,,
Sounds,html.Screen,1_3_5_0,2022-02-01T13:28:06.564Z,,,,,,,,,,,,,,,,,,,,,,,,,,,,,,,4250.012000000002,,timeout,,,,,,,,,3,,,,,,,,O,I,S,,94714.39999997616,94713.94,90464.097,90465.89999997616,90480.612,94730.624,,,
Judgement,html.Screen,1_3_5_1,2022-02-01T13:28:07.588Z,,,,,,,,,,,,,,,,,,,,,,,,,,,,true,3,,1006.8760000000038,,response,,,,,,,,,3,,3,click #choice-3,,,,,O,I,S,,95738.5,95737.5,94713.94,94714.5,94730.624,95747.212,,,
Trial,flow.Sequence,1_3_5,2022-02-01T13:28:07.588Z,,,,,,,,,,,,,,,,,,,,,,,,,,,,,,,5256.888000000006,,completion,,,,,,,,,3,,,,,,,,O,I,S,,95738.59999990463,95737.5,90464.097,90465.79999995232,90480.612,95747.212,,,
Task,flow.Loop,1_3,2022-02-01T13:28:07.591Z,,,,,,,,,,,,,,,,,,,,,,,,,,,,,,,43139.749,,completion,,,0.8333333333333334,,,,,,,,,,,,,,,,,,95741.69999992847,95737.5,52581.028,52583,52597.751,95747.212,,,
Trap,html.Screen,1_4,2022-02-01T13:28:07.592Z,,,,,,,,,,,,,,,,,,,,,,,,,,,,,,,NaN,,skipped,,,,,,,,,,,,,,,,,,,,,95742.39999997616,95737.5,,95742.29999995232,,95747.212,,,
Thanks,html.Screen,1_5,2022-02-01T13:28:10.592Z,,,,,,,,,,,,,,,,,,,,,,,,,,,,,,,2993.487999928475,,response,,,,,,,,,,,continue,click button,,,,,,,,,98741.79999995232,98740.69999992847,95730.559,95742.5,95747.212,101630.5,,,
Headphone screening,flow.Sequence,1,2022-02-01T13:28:10.592Z,,,,,,,,,,,,,,,,,,,,,,,,,,,,,,,78009.38299992848,,completion,,,,,,,,,,,,,,,,,,,,,98742,98740.69999992847,20714.597,20730.399999976158,20731.317,101630.5,,,
Instructions,html.Page,2_0,2022-02-01T13:28:40.071Z,,,,,,,,,,,,,,,,,,,,,,,,,,,,,,,26589.599999904633,,form submission,,,,,,,,,,,,,,,,,,,,,128220.69999992847,128220.09999990463,101613.827,101609.09999990463,101630.5,128230.255,,,
Holding screen,html.Screen,2_1_0_0,2022-02-01T13:28:50.064Z,,,,,,,,,,,,,,,,,,,,,,,,,,,,,,,10000.01000000001,,timeout,,,,,,,,,,,,,,,,,,,,,138214.09999990463,138213.625,128213.63,128220.79999995232,128230.255,138230.265,,,
screen,html.Screen,2_1_0_1_0,2022-02-01T13:28:51.274Z,,,,,,,,,,,,,,,,,53,,,,,,,,,,,,,,1192.0349999523023,,response,,,,99,,,,,,,Space,keypress(Space),,,,,,,,When -- ----- -- ------ - ------- --- ----------<br>------------- ------ ------ ---- ---- ------- ----- -- ----<br>-------- ------- -- ---------- --- - --- ----- ----- ----<br>---- --- --- ----- --- ---- ---- ------- ----- ---- -------<br>--- --- -- ----- -- --- ---- -- --- ---- -- ------ ------<br>--- ----- -- ----,139423.79999995232,139422.29999995232,138213.625,138214.19999992847,138230.265,139430.216,,0,When
screen,html.Screen,2_1_0_1_1,2022-02-01T13:28:51.641Z,,,,,,,,,,,,,,,,,53,,,,,,,,,,,,,,360.2840000000142,,response,,,,99,,,,,,,Space,keypress(Space),,,,,,,,---- it ----- -- ------ - ------- --- ----------<br>------------- ------ ------ ---- ---- ------- ----- -- ----<br>-------- ------- -- ---------- --- - --- ----- ----- ----<br>---- --- --- ----- --- ---- ---- ------- ----- ---- -------<br>--- --- -- ----- -- --- ---- -- --- ---- -- ------ ------<br>--- ----- -- ----,139790.79999995232,139790.5,139413.499,139423.89999997616,139430.216,139796.859,,1,it
screen,html.Screen,2_1_0_1_2,2022-02-01T13:28:52.005Z,,,,,,,,,,,,,,,,,53,,,,,,,,,,,,,,357.3409999284777,,response,,,,99,,,,,,,Space,keypress(Space),,,,,,,,---- -- comes -- ------ - ------- --- ----------<br>------------- ------ ------ ---- ---- ------- ----- -- ----<br>-------- ------- -- ---------- --- - --- ----- ----- ----<br>---- --- --- ----- --- ---- ---- ------- ----- ---- -------<br>--- --- -- ----- -- --- ---- -- --- ---- -- ------ ------<br>--- ----- -- ----,140154.69999992847,140154.19999992847,139780.162,139790.89999997616,139796.859,140163.579,,2,comes
screen,html.Screen,2_1_0_1_3,2022-02-01T13:28:52.317Z,,,,,,,,,,,,,,,,,53,,,,,,,,,,,,,,303.02099990463466,,response,,,,99,,,,,,,Space,keypress(Space),,,,,,,,---- -- ----- to ------ - ------- --- ----------<br>------------- ------ ------ ---- ---- ------- ----- -- ----<br>-------- ------- -- ---------- --- - --- ----- ----- ----<br>---- --- --- ----- --- ---- ---- ------- ----- ---- -------<br>--- --- -- ----- -- --- ---- -- --- ---- -- ------ ------<br>--- ----- -- ----,140467,140466.59999990463,140146.863,140154.69999992847,140163.579,140480.157,,3,to
screen,html.Screen,2_1_0_1_4,2022-02-01T13:28:52.585Z,,,,,,,,,,,,,,,,,53,,,,,,,,,,,,,,254.34299999999348,,response,,,,99,,,,,,,Space,keypress(Space),,,,,,,,---- -- ----- -- having - ------- --- ----------<br>------------- ------ ------ ---- ---- ------- ----- -- ----<br>-------- ------- -- ---------- --- - --- ----- ----- ----<br>---- --- --- ----- --- ---- ---- ------- ----- ---- -------<br>--- --- -- ----- -- --- ---- -- --- ---- -- ------ ------<br>--- ----- -- ----,140735,140734.5,140463.523,140467.09999990463,140480.157,140746.819,,4,having
screen,html.Screen,2_1_0_1_5,2022-02-01T13:28:52.879Z,,,,,,,,,,,,,,,,,53,,,,,,,,,,,,,,281.88099992848583,,response,,,,99,,,,,,,Space,keypress(Space),,,,,,,,---- -- ----- -- ------ a ------- --- ----------<br>------------- ------ ------ ---- ---- ------- ----- -- ----<br>-------- ------- -- ---------- --- - --- ----- ----- ----<br>---- --- --- ----- --- ---- ---- ------- ----- ---- -------<br>--- --- -- ----- -- --- ---- -- --- ---- -- ------ ------<br>--- ----- -- ----,141029.09999990463,141028.69999992847,140730.117,140735.09999990463,140746.819,141030.123,,5,a
screen,html.Screen,2_1_0_1_6,2022-02-01T13:28:53.148Z,,,,,,,,,,,,,,,,,53,,,,,,,,,,,,,,267.8770000000077,,response,,,,99,,,,,,,Space,keypress(Space),,,,,,,,---- -- ----- -- ------ - lasting --- ----------<br>------------- ------ ------ ---- ---- ------- ----- -- ----<br>-------- ------- -- ---------- --- - --- ----- ----- ----<br>---- --- --- ----- --- ---- ---- ------- ----- ---- -------<br>--- --- -- ----- -- --- ---- -- --- ---- -- ------ ------<br>--- ----- -- ----,141298.59999990463,141298,141013.572,141029.19999992847,141030.123,141313.574,,6,lasting
screen,html.Screen,2_1_0_1_7,2022-02-01T13:28:53.426Z,,,,,,,,,,,,,,,,,53,,,,,,,,,,,,,,262.5259999046393,,response,,,,99,,,,,,,Space,keypress(Space),,,,,,,,---- -- ----- -- ------ - ------- and ----------<br>------------- ------ ------ ---- ---- ------- ----- -- ----<br>-------- ------- -- ---------- --- - --- ----- ----- ----<br>---- --- --- ----- --- ---- ---- ------- ----- ---- -------<br>--- --- -- ----- -- --- ---- -- --- ---- -- ------ ------<br>--- ----- -- ----,141576.59999990463,141576.09999990463,141296.909,141298.59999990463,141313.574,141580.17,,7,and
screen,html.Screen,2_1_0_1_8,2022-02-01T13:28:53.732Z,,,,,,,,,,,,,,,,,53,,,,,,,,,,,,,,301.3299999999872,,response,,,,99,,,,,,,Space,keypress(Space),,,,,,,,---- -- ----- -- ------ - ------- --- fulfilling<br>------------- ------ ------ ---- ---- ------- ----- -- ----<br>-------- ------- -- ---------- --- - --- ----- ----- ----<br>---- --- --- ----- --- ---- ---- ------- ----- ---- -------<br>--- --- -- ----- -- --- ---- -- --- ---- -- ------ ------<br>--- ----- -- ----,141882.09999990463,141881.5,141563.565,141576.69999992847,141580.17,141896.915,,8,fulfilling
screen,html.Screen,2_1_0_1_9,2022-02-01T13:28:54.040Z,,,,,,,,,,,,,,,,,53,,,,,,,,,,,,,,293.1849999046244,,response,,,,99,,,,,,,Space,keypress(Space),,,,,,,,"---- -- ----- -- ------ - ------- --- ----------<br>relationship, ------ ------ ---- ---- ------- ----- -- ----<br>-------- ------- -- ---------- --- - --- ----- ----- ----<br>---- --- --- ----- --- ---- ---- ------- ----- ---- -------<br>--- --- -- ----- -- --- ---- -- --- ---- -- ------ ------<br>--- ----- -- ----",142190.59999990463,142190.09999990463,141880.161,141882.09999990463,141896.915,142196.792,,9,"relationship,"
screen,html.Screen,2_1_0_1_10,2022-02-01T13:28:54.343Z,,,,,,,,,,,,,,,,,53,,,,,,,,,,,,,,295.70800000001327,,response,,,,99,,,,,,,Space,keypress(Space),,,,,,,,---- -- ----- -- ------ - ------- --- ----------<br>------------- common ------ ---- ---- ------- ----- -- ----<br>-------- ------- -- ---------- --- - --- ----- ----- ----<br>---- --- --- ----- --- ---- ---- ------- ----- ---- -------<br>--- --- -- ----- -- --- ---- -- --- ---- -- ------ ------<br>--- ----- -- ----,142492.79999995232,142492.5,142180.12,142190.69999992847,142196.792,142496.782,,10,common
screen,html.Screen,2_1_0_1_11,2022-02-01T13:28:54.658Z,,,,,,,,,,,,,,,,,53,,,,,,,,,,,,,,310.7179999999935,,response,,,,99,,,,,,,Space,keypress(Space),,,,,,,,---- -- ----- -- ------ - ------- --- ----------<br>------------- ------ wisdom ---- ---- ------- ----- -- ----<br>-------- ------- -- ---------- --- - --- ----- ----- ----<br>---- --- --- ----- --- ---- ---- ------- ----- ---- -------<br>--- --- -- ----- -- --- ---- -- --- ---- -- ------ ------<br>--- ----- -- ----,142807.89999997616,142807.5,142480.086,142492.89999997616,142496.782,142813.524,,11,wisdom
screen,html.Screen,2_1_0_1_12,2022-02-01T13:28:54.974Z,,,,,,,,,,,,,,,,,53,,,,,,,,,,,,,,310.2759999523114,,response,,,,99,,,,,,,Space,keypress(Space),,,,,,,,---- -- ----- -- ------ - ------- --- ----------<br>------------- ------ ------ says ---- ------- ----- -- ----<br>-------- ------- -- ---------- --- - --- ----- ----- ----<br>---- --- --- ----- --- ---- ---- ------- ----- ---- -------<br>--- --- -- ----- -- --- ---- -- --- ---- -- ------ ------<br>--- ----- -- ----,143124.19999992847,143123.79999995232,142796.862,142808,142813.524,143130.15,,12,says
screen,html.Screen,2_1_0_1_13,2022-02-01T13:28:55.287Z,,,,,,,,,,,,,,,,,53,,,,,,,,,,,,,,306.54999992848025,,response,,,,99,,,,,,,Space,keypress(Space),,,,,,,,---- -- ----- -- ------ - ------- --- ----------<br>------------- ------ ------ ---- that ------- ----- -- ----<br>-------- ------- -- ---------- --- - --- ----- ----- ----<br>---- --- --- ----- --- ---- ---- ------- ----- ---- -------<br>--- --- -- ----- -- --- ---- -- --- ---- -- ------ ------<br>--- ----- -- ----,143437,143436.69999992847,143113.501,143124.19999992847,143130.15,143446.816,,13,that
screen,html.Screen,2_1_0_1_14,2022-02-01T13:28:55.568Z,,,,,,,,,,,,,,,,,53,,,,,,,,,,,,,,270.6840000000084,,response,,,,99,,,,,,,Space,keypress(Space),,,,,,,,---- -- ----- -- ------ - ------- --- ----------<br>------------- ------ ------ ---- ---- feeling ----- -- ----<br>-------- ------- -- ---------- --- - --- ----- ----- ----<br>---- --- --- ----- --- ---- ---- ------- ----- ---- -------<br>--- --- -- ----- -- --- ---- -- --- ---- -- ------ ------<br>--- ----- -- ----,143718,143717.5,143430.159,143437.09999990463,143446.816,143730.134,,14,feeling
screen,html.Screen,2_1_0_1_15,2022-02-01T13:28:55.855Z,,,,,,,,,,,,,,,,,53,,,,,,,,,,,,,,274.5659999284835,,response,,,,99,,,,,,,Space,keypress(Space),,,,,,,,---- -- ----- -- ------ - ------- --- ----------<br>------------- ------ ------ ---- ---- ------- close -- ----<br>-------- ------- -- ---------- --- - --- ----- ----- ----<br>---- --- --- ----- --- ---- ---- ------- ----- ---- -------<br>--- --- -- ----- -- --- ---- -- --- ---- -- ------ ------<br>--- ----- -- ----,144005.19999992847,144004.69999992847,143713.519,143718.09999990463,143730.134,144013.479,,15,close
screen,html.Screen,2_1_0_1_16,2022-02-01T13:28:56.196Z,,,,,,,,,,,,,,,,,53,,,,,,,,,,,,,,332.22099992848234,,response,,,,99,,,,,,,Space,keypress(Space),,,,,,,,---- -- ----- -- ------ - ------- --- ----------<br>------------- ------ ------ ---- ---- ------- ----- to ----<br>-------- ------- -- ---------- --- - --- ----- ----- ----<br>---- --- --- ----- --- ---- ---- ------- ----- ---- -------<br>--- --- -- ----- -- --- ---- -- --- ---- -- ------ ------<br>--- ----- -- ----,144346.09999990463,144345.69999992847,143996.801,144005.29999995232,144013.479,144346.741,,16,to
screen,html.Screen,2_1_0_1_17,2022-02-01T13:28:56.488Z,,,,,,,,,,,,,,,,,53,,,,,,,,,,,,,,290.65899997614906,,response,,,,99,,,,,,,Space,keypress(Space),,,,,,,,---- -- ----- -- ------ - ------- --- ----------<br>------------- ------ ------ ---- ---- ------- ----- -- your<br>-------- ------- -- ---------- --- - --- ----- ----- ----<br>---- --- --- ----- --- ---- ---- ------- ----- ---- -------<br>--- --- -- ----- -- --- ---- -- --- ---- -- ------ ------<br>--- ----- -- ----,144637.89999997616,144637.39999997616,144330.131,144346.09999990463,144346.741,144646.781,,17,your
screen,html.Screen,2_1_0_1_18,2022-02-01T13:28:56.804Z,,,,,,,,,,,,,,,,,53,,,,,,,,,,,,,,306.61899997617,,response,,,,99,,,,,,,Space,keypress(Space),,,,,,,,---- -- ----- -- ------ - ------- --- ----------<br>------------- ------ ------ ---- ---- ------- ----- -- ----<br>romantic ------- -- ---------- --- - --- ----- ----- ----<br>---- --- --- ----- --- ---- ---- ------- ----- ---- -------<br>--- --- -- ----- -- --- ---- -- --- ---- -- ------ ------<br>--- ----- -- ----,144953.79999995232,144953.39999997616,144630.066,144638,144646.781,144963.505,,18,romantic
screen,html.Screen,2_1_0_1_19,2022-02-01T13:28:57.082Z,,,,,,,,,,,,,,,,,53,,,,,,,,,,,,,,267.99499999999534,,response,,,,99,,,,,,,Space,keypress(Space),,,,,,,,---- -- ----- -- ------ - ------- --- ----------<br>------------- ------ ------ ---- ---- ------- ----- -- ----<br>-------- partner -- ---------- --- - --- ----- ----- ----<br>---- --- --- ----- --- ---- ---- ------- ----- ---- -------<br>--- --- -- ----- -- --- ---- -- --- ---- -- ------ ------<br>--- ----- -- ----,145232,145231.5,144946.796,144954,144963.505,145246.876,,19,partner
screen,html.Screen,2_1_0_1_20,2022-02-01T13:28:57.347Z,,,,,,,,,,,,,,,,,53,,,,,,,,,,,,,,249.923999952327,,response,,,,99,,,,,,,Space,keypress(Space),,,,,,,,---- -- ----- -- ------ - ------- --- ----------<br>------------- ------ ------ ---- ---- ------- ----- -- ----<br>-------- ------- is ---------- --- - --- ----- ----- ----<br>---- --- --- ----- --- ---- ---- ------- ----- ---- -------<br>--- --- -- ----- -- --- ---- -- --- ---- -- ------ ------<br>--- ----- -- ----,145497.5,145496.79999995232,145230.068,145232.09999990463,145246.876,145513.521,,20,is
screen,html.Screen,2_1_0_1_21,2022-02-01T13:28:57.610Z,,,,,,,,,,,,,,,,,53,,,,,,,,,,,,,,245.77899995230837,,response,,,,99,,,,,,,Space,keypress(Space),,,,,,,,---- -- ----- -- ------ - ------- --- ----------<br>------------- ------ ------ ---- ---- ------- ----- -- ----<br>-------- ------- -- paramount. --- - --- ----- ----- ----<br>---- --- --- ----- --- ---- ---- ------- ----- ---- -------<br>--- --- -- ----- -- --- ---- -- --- ---- -- ------ ------<br>--- ----- -- ----,145759.79999995232,145759.29999995232,145496.741,145497.59999990463,145513.521,145763.439,,21,paramount.
screen,html.Screen,2_1_0_1_22,2022-02-01T13:28:57.919Z,,,,,,,,,,,,,,,,,53,,,,,,,,,,,,,,305.36099995230325,,response,,,,99,,,,,,,Space,keypress(Space),,,,,,,,---- -- ----- -- ------ - ------- --- ----------<br>------------- ------ ------ ---- ---- ------- ----- -- ----<br>-------- ------- -- ---------- But - --- ----- ----- ----<br>---- --- --- ----- --- ---- ---- ------- ----- ---- -------<br>--- --- -- ----- -- --- ---- -- --- ---- -- ------ ------<br>--- ----- -- ----,146069.19999992847,146068.79999995232,145746.797,145759.89999997616,145763.439,146080.193,,22,But
screen,html.Screen,2_1_0_1_23,2022-02-01T13:28:58.186Z,,,,,,,,,,,,,,,,,53,,,,,,,,,,,,,,255.70699997615884,,response,,,,99,,,,,,,Space,keypress(Space),,,,,,,,---- -- ----- -- ------ - ------- --- ----------<br>------------- ------ ------ ---- ---- ------- ----- -- ----<br>-------- ------- -- ---------- --- a --- ----- ----- ----<br>---- --- --- ----- --- ---- ---- ------- ----- ---- -------<br>--- --- -- ----- -- --- ---- -- --- ---- -- ------ ------<br>--- ----- -- ----,146336.19999992847,146335.89999997616,146063.518,146069.89999997616,146080.193,146346.841,,23,a
screen,html.Screen,2_1_0_1_24,2022-02-01T13:28:58.466Z,,,,,,,,,,,,,,,,,53,,,,,,,,,,,,,,268.55899997617234,,response,,,,99,,,,,,,Space,keypress(Space),,,,,,,,---- -- ----- -- ------ - ------- --- ----------<br>------------- ------ ------ ---- ---- ------- ----- -- ----<br>-------- ------- -- ---------- --- - new ----- ----- ----<br>---- --- --- ----- --- ---- ---- ------- ----- ---- -------<br>--- --- -- ----- -- --- ---- -- --- ---- -- ------ ------<br>--- ----- -- ----,146615.89999997616,146615.39999997616,146330.176,146336.29999995232,146346.841,146630.186,,24,new
screen,html.Screen,2_1_0_1_25,2022-02-01T13:28:58.716Z,,,,,,,,,,,,,,,,,53,,,,,,,,,,,,,,235.4139999046456,,response,,,,99,,,,,,,Space,keypress(Space),,,,,,,,---- -- ----- -- ------ - ------- --- ----------<br>------------- ------ ------ ---- ---- ------- ----- -- ----<br>-------- ------- -- ---------- --- - --- study ----- ----<br>---- --- --- ----- --- ---- ---- ------- ----- ---- -------<br>--- --- -- ----- -- --- ---- -- --- ---- -- ------ ------<br>--- ----- -- ----,146865.89999997616,146865.59999990463,146613.504,146615.89999997616,146630.186,146880.186,,25,study
screen,html.Screen,2_1_0_1_26,2022-02-01T13:28:59.011Z,,,,,,,,,,,,,,,,,53,,,,,,,,,,,,,,280.9139999046456,,response,,,,99,,,,,,,Space,keypress(Space),,,,,,,,---- -- ----- -- ------ - ------- --- ----------<br>------------- ------ ------ ---- ---- ------- ----- -- ----<br>-------- ------- -- ---------- --- - --- ----- finds ----<br>---- --- --- ----- --- ---- ---- ------- ----- ---- -------<br>--- --- -- ----- -- --- ---- -- --- ---- -- ------ ------<br>--- ----- -- ----,147161.5,147161.09999990463,146863.533,146866.09999990463,146880.186,147163.499,,26,finds
screen,html.Screen,2_1_0_1_27,2022-02-01T13:28:59.267Z,,,,,,,,,,,,,,,,,53,,,,,,,,,,,,,,253.40099997614743,,response,,,,99,,,,,,,Space,keypress(Space),,,,,,,,---- -- ----- -- ------ - ------- --- ----------<br>------------- ------ ------ ---- ---- ------- ----- -- ----<br>-------- ------- -- ---------- --- - --- ----- ----- that<br>---- --- --- ----- --- ---- ---- ------- ----- ---- -------<br>--- --- -- ----- -- --- ---- -- --- ---- -- ------ ------<br>--- ----- -- ----,147417.5,147416.89999997616,147146.847,147161.59999990463,147163.499,147430.104,,27,that
screen,html.Screen,2_1_0_1_28,2022-02-01T13:28:59.566Z,,,,,,,,,,,,,,,,,53,,,,,,,,,,,,,,285.79599997616606,,response,,,,99,,,,,,,Space,keypress(Space),,,,,,,,---- -- ----- -- ------ - ------- --- ----------<br>------------- ------ ------ ---- ---- ------- ----- -- ----<br>-------- ------- -- ---------- --- - --- ----- ----- ----<br>it's --- --- ----- --- ---- ---- ------- ----- ---- -------<br>--- --- -- ----- -- --- ---- -- --- ---- -- ------ ------<br>--- ----- -- ----,147716.29999995232,147715.89999997616,147413.483,147417.5,147430.104,147730.054,,28,it's
screen,html.Screen,2_1_0_1_29,2022-02-01T13:28:59.840Z,,,,,,,,,,,,,,,,,53,,,,,,,,,,,,,,259.8459999761544,,response,,,,99,,,,,,,Space,keypress(Space),,,,,,,,---- -- ----- -- ------ - ------- --- ----------<br>------------- ------ ------ ---- ---- ------- ----- -- ----<br>-------- ------- -- ---------- --- - --- ----- ----- ----<br>---- not --- ----- --- ---- ---- ------- ----- ---- -------<br>--- --- -- ----- -- --- ---- -- --- ---- -- ------ ------<br>--- ----- -- ----,147990.19999992847,147989.89999997616,147713.526,147716.29999995232,147730.054,147996.791,,29,not
screen,html.Screen,2_1_0_1_30,2022-02-01T13:29:00.095Z,,,,,,,,,,,,,,,,,53,,,,,,,,,,,,,,248.20900000000256,,response,,,,99,,,,,,,Space,keypress(Space),,,,,,,,---- -- ----- -- ------ - ------- --- ----------<br>------------- ------ ------ ---- ---- ------- ----- -- ----<br>-------- ------- -- ---------- --- - --- ----- ----- ----<br>---- --- how ----- --- ---- ---- ------- ----- ---- -------<br>--- --- -- ----- -- --- ---- -- --- ---- -- ------ ------<br>--- ----- -- ----,148245.5,148245,147980.087,147990.29999995232,147996.791,148246.723,,30,how
screen,html.Screen,2_1_0_1_31,2022-02-01T13:29:00.356Z,,,,,,,,,,,,,,,,,53,,,,,,,,,,,,,,258.37699990463443,,response,,,,99,,,,,,,Space,keypress(Space),,,,,,,,---- -- ----- -- ------ - ------- --- ----------<br>------------- ------ ------ ---- ---- ------- ----- -- ----<br>-------- ------- -- ---------- --- - --- ----- ----- ----<br>---- --- --- close --- ---- ---- ------- ----- ---- -------<br>--- --- -- ----- -- --- ---- -- --- ---- -- ------ ------<br>--- ----- -- ----,148505.69999992847,148505.09999990463,148230.051,148245.59999990463,148246.723,148513.506,,31,close
screen,html.Screen,2_1_0_1_32,2022-02-01T13:29:00.594Z,,,,,,,,,,,,,,,,,53,,,,,,,,,,,,,,229.59399990463862,,response,,,,99,,,,,,,Space,keypress(Space),,,,,,,,---- -- ----- -- ------ - ------- --- ----------<br>------------- ------ ------ ---- ---- ------- ----- -- ----<br>-------- ------- -- ---------- --- - --- ----- ----- ----<br>---- --- --- ----- you ---- ---- ------- ----- ---- -------<br>--- --- -- ----- -- --- ---- -- --- ---- -- ------ ------<br>--- ----- -- ----,148743.89999997616,148743.09999990463,148496.844,148505.69999992847,148513.506,148746.747,,32,you
screen,html.Screen,2_1_0_1_33,2022-02-01T13:29:00.847Z,,,,,,,,,,,,,,,,,53,,,,,,,,,,,,,,250.25299999999697,,response,,,,99,,,,,,,Space,keypress(Space),,,,,,,,---- -- ----- -- ------ - ------- --- ----------<br>------------- ------ ------ ---- ---- ------- ----- -- ----<br>-------- ------- -- ---------- --- - --- ----- ----- ----<br>---- --- --- ----- --- feel ---- ------- ----- ---- -------<br>--- --- -- ----- -- --- ---- -- --- ---- -- ------ ------<br>--- ----- -- ----,148997.5,148997,148730.072,148744,148746.747,149013.472,,33,feel
screen,html.Screen,2_1_0_1_34,2022-02-01T13:29:01.106Z,,,,,,,,,,,,,,,,,53,,,,,,,,,,,,,,242.22799992846558,,response,,,,99,,,,,,,Space,keypress(Space),,,,,,,,---- -- ----- -- ------ - ------- --- ----------<br>------------- ------ ------ ---- ---- ------- ----- -- ----<br>-------- ------- -- ---------- --- - --- ----- ----- ----<br>---- --- --- ----- --- ---- that ------- ----- ---- -------<br>--- --- -- ----- -- --- ---- -- --- ---- -- ------ ------<br>--- ----- -- ----,149256.19999992847,149255.69999992847,148996.771,148997.59999990463,149013.472,149263.441,,34,that
screen,html.Screen,2_1_0_1_35,2022-02-01T13:29:01.341Z,,,,,,,,,,,,,,,,,53,,,,,,,,,,,,,,227.45899997616652,,response,,,,99,,,,,,,Space,keypress(Space),,,,,,,,---- -- ----- -- ------ - ------- --- ----------<br>------------- ------ ------ ---- ---- ------- ----- -- ----<br>-------- ------- -- ---------- --- - --- ----- ----- ----<br>---- --- --- ----- --- ---- ---- matters ----- ---- -------<br>--- --- -- ----- -- --- ---- -- --- ---- -- ------ ------<br>--- ----- -- ----,149491.5,149490.89999997616,149246.742,149256.19999992847,149263.441,149496.726,,35,matters
screen,html.Screen,2_1_0_1_36,2022-02-01T13:29:01.656Z,,,,,,,,,,,,,,,,,53,,,,,,,,,,,,,,309.0739999523212,,response,,,,99,,,,,,,Space,keypress(Space),,,,,,,,"---- -- ----- -- ------ - ------- --- ----------<br>------------- ------ ------ ---- ---- ------- ----- -- ----<br>-------- ------- -- ---------- --- - --- ----- ----- ----<br>---- --- --- ----- --- ---- ---- ------- most, ---- -------<br>--- --- -- ----- -- --- ---- -- --- ---- -- ------ ------<br>--- ----- -- ----",149806.39999997616,149805.79999995232,149480.06,149491.59999990463,149496.726,149813.489,,36,"most,"
screen,html.Screen,2_1_0_1_37,2022-02-01T13:29:01.923Z,,,,,,,,,,,,,,,,,53,,,,,,,,,,,,,,259.61099990463117,,response,,,,99,,,,,,,Space,keypress(Space),,,,,,,,---- -- ----- -- ------ - ------- --- ----------<br>------------- ------ ------ ---- ---- ------- ----- -- ----<br>-------- ------- -- ---------- --- - --- ----- ----- ----<br>---- --- --- ----- --- ---- ---- ------- ----- it's -------<br>--- --- -- ----- -- --- ---- -- --- ---- -- ------ ------<br>--- ----- -- ----,150073.59999990463,150073.09999990463,149796.703,149806.39999997616,149813.489,150080.058,,37,it's
screen,html.Screen,2_1_0_1_38,2022-02-01T13:29:02.192Z,,,,,,,,,,,,,,,,,53,,,,,,,,,,,,,,261.44200000001,,response,,,,99,,,,,,,Space,keypress(Space),,,,,,,,---- -- ----- -- ------ - ------- --- ----------<br>------------- ------ ------ ---- ---- ------- ----- -- ----<br>-------- ------- -- ---------- --- - --- ----- ----- ----<br>---- --- --- ----- --- ---- ---- ------- ----- ---- whether<br>--- --- -- ----- -- --- ---- -- --- ---- -- ------ ------<br>--- ----- -- ----,150342,150341.5,150063.485,150073.69999992847,150080.058,150346.751,,38,whether
screen,html.Screen,2_1_0_1_39,2022-02-01T13:29:02.492Z,,,,,,,,,,,,,,,,,53,,,,,,,,,,,,,,294.548999952327,,response,,,,99,,,,,,,Space,keypress(Space),,,,,,,,---- -- ----- -- ------ - ------- --- ----------<br>------------- ------ ------ ---- ---- ------- ----- -- ----<br>-------- ------- -- ---------- --- - --- ----- ----- ----<br>---- --- --- ----- --- ---- ---- ------- ----- ---- -------<br>you --- -- ----- -- --- ---- -- --- ---- -- ------ ------<br>--- ----- -- ----,150641.79999995232,150641.29999995232,150330.06,150342,150346.751,150646.673,,39,you
screen,html.Screen,2_1_0_1_40,2022-02-01T13:29:02.762Z,,,,,,,,,,,,,,,,,53,,,,,,,,,,,,,,265.1269999523065,,response,,,,99,,,,,,,Space,keypress(Space),,,,,,,,---- -- ----- -- ------ - ------- --- ----------<br>------------- ------ ------ ---- ---- ------- ----- -- ----<br>-------- ------- -- ---------- --- - --- ----- ----- ----<br>---- --- --- ----- --- ---- ---- ------- ----- ---- -------<br>--- are -- ----- -- --- ---- -- --- ---- -- ------ ------<br>--- ----- -- ----,150912.29999995232,150911.79999995232,150630.07,150641.89999997616,150646.673,150913.392,,40,are
screen,html.Screen,2_1_0_1_41,2022-02-01T13:29:02.994Z,,,,,,,,,,,,,,,,,53,,,,,,,,,,,,,,229.80799992848188,,response,,,,99,,,,,,,Space,keypress(Space),,,,,,,,---- -- ----- -- ------ - ------- --- ----------<br>------------- ------ ------ ---- ---- ------- ----- -- ----<br>-------- ------- -- ---------- --- - --- ----- ----- ----<br>---- --- --- ----- --- ---- ---- ------- ----- ---- -------<br>--- --- as ----- -- --- ---- -- --- ---- -- ------ ------<br>--- ----- -- ----,151143.69999992847,151143.19999992847,150896.735,150912.39999997616,150913.392,151146.701,,41,as
screen,html.Screen,2_1_0_1_42,2022-02-01T13:29:03.231Z,,,,,,,,,,,,,,,,,53,,,,,,,,,,,,,,234.09899995231535,,response,,,,99,,,,,,,Space,keypress(Space),,,,,,,,---- -- ----- -- ------ - ------- --- ----------<br>------------- ------ ------ ---- ---- ------- ----- -- ----<br>-------- ------- -- ---------- --- - --- ----- ----- ----<br>---- --- --- ----- --- ---- ---- ------- ----- ---- -------<br>--- --- -- close -- --- ---- -- --- ---- -- ------ ------<br>--- ----- -- ----,151381.39999997616,151380.79999995232,151130.057,151143.69999992847,151146.701,151396.67,,42,close
screen,html.Screen,2_1_0_1_43,2022-02-01T13:29:03.452Z,,,,,,,,,,,,,,,,,53,,,,,,,,,,,,,,205.52999992846162,,response,,,,99,,,,,,,Space,keypress(Space),,,,,,,,---- -- ----- -- ------ - ------- --- ----------<br>------------- ------ ------ ---- ---- ------- ----- -- ----<br>-------- ------- -- ---------- --- - --- ----- ----- ----<br>---- --- --- ----- --- ---- ---- ------- ----- ---- -------<br>--- --- -- ----- as --- ---- -- --- ---- -- ------ ------<br>--- ----- -- ----,151602.59999990463,151602.19999992847,151380.045,151381.59999990463,151396.67,151613.472,,43,as
screen,html.Screen,2_1_0_1_44,2022-02-01T13:29:03.706Z,,,,,,,,,,,,,,,,,53,,,,,,,,,,,,,,241.82799995230744,,response,,,,99,,,,,,,Space,keypress(Space),,,,,,,,---- -- ----- -- ------ - ------- --- ----------<br>------------- ------ ------ ---- ---- ------- ----- -- ----<br>-------- ------- -- ---------- --- - --- ----- ----- ----<br>---- --- --- ----- --- ---- ---- ------- ----- ---- -------<br>--- --- -- ----- -- you ---- -- --- ---- -- ------ ------<br>--- ----- -- ----,151855.79999995232,151855.29999995232,151596.761,151602.69999992847,151613.472,151863.459,,44,you
screen,html.Screen,2_1_0_1_45,2022-02-01T13:29:03.944Z,,,,,,,,,,,,,,,,,53,,,,,,,,,,,,,,229.84099995231372,,response,,,,99,,,,,,,Space,keypress(Space),,,,,,,,---- -- ----- -- ------ - ------- --- ----------<br>------------- ------ ------ ---- ---- ------- ----- -- ----<br>-------- ------- -- ---------- --- - --- ----- ----- ----<br>---- --- --- ----- --- ---- ---- ------- ----- ---- -------<br>--- --- -- ----- -- --- want -- --- ---- -- ------ ------<br>--- ----- -- ----,152093.69999992847,152093.29999995232,151846.781,151855.79999995232,151863.459,152096.697,,45,want
screen,html.Screen,2_1_0_1_46,2022-02-01T13:29:04.197Z,,,,,,,,,,,,,,,,,53,,,,,,,,,,,,,,250.402999904647,,response,,,,99,,,,,,,Space,keypress(Space),,,,,,,,---- -- ----- -- ------ - ------- --- ----------<br>------------- ------ ------ ---- ---- ------- ----- -- ----<br>-------- ------- -- ---------- --- - --- ----- ----- ----<br>---- --- --- ----- --- ---- ---- ------- ----- ---- -------<br>--- --- -- ----- -- --- ---- to --- ---- -- ------ ------<br>--- ----- -- ----,152347.59999990463,152347.09999990463,152080.059,152093.79999995232,152096.697,152363.348,,46,to
screen,html.Screen,2_1_0_1_47,2022-02-01T13:29:04.441Z,,,,,,,,,,,,,,,,,53,,,,,,,,,,,,,,227.45199995231815,,response,,,,99,,,,,,,Space,keypress(Space),,,,,,,,"---- -- ----- -- ------ - ------- --- ----------<br>------------- ------ ------ ---- ---- ------- ----- -- ----<br>-------- ------- -- ---------- --- - --- ----- ----- ----<br>---- --- --- ----- --- ---- ---- ------- ----- ---- -------<br>--- --- -- ----- -- --- ---- -- be, ---- -- ------ ------<br>--- ----- -- ----",152591.09999990463,152590.79999995232,152346.708,152347.59999990463,152363.348,152596.748,,47,"be,"
screen,html.Screen,2_1_0_1_48,2022-02-01T13:29:04.737Z,,,,,,,,,,,,,,,,,53,,,,,,,,,,,,,,290.35199990464025,,response,,,,99,,,,,,,Space,keypress(Space),,,,,,,,---- -- ----- -- ------ - ------- --- ----------<br>------------- ------ ------ ---- ---- ------- ----- -- ----<br>-------- ------- -- ---------- --- - --- ----- ----- ----<br>---- --- --- ----- --- ---- ---- ------- ----- ---- -------<br>--- --- -- ----- -- --- ---- -- --- even -- ------ ------<br>--- ----- -- ----,152887.5,152887.09999990463,152580.048,152591.29999995232,152596.748,152896.774,,48,even
screen,html.Screen,2_1_0_1_49,2022-02-01T13:29:05.020Z,,,,,,,,,,,,,,,,,53,,,,,,,,,,,,,,272.92599992846954,,response,,,,99,,,,,,,Space,keypress(Space),,,,,,,,---- -- ----- -- ------ - ------- --- ----------<br>------------- ------ ------ ---- ---- ------- ----- -- ----<br>-------- ------- -- ---------- --- - --- ----- ----- ----<br>---- --- --- ----- --- ---- ---- ------- ----- ---- -------<br>--- --- -- ----- -- --- ---- -- --- ---- if ------ ------<br>--- ----- -- ----,153170.19999992847,153169.69999992847,152880.04,152887.69999992847,152896.774,153180.137,,49,if
screen,html.Screen,2_1_0_1_50,2022-02-01T13:29:05.247Z,,,,,,,,,,,,,,,,,53,,,,,,,,,,,,,,216.96299990464468,,response,,,,99,,,,,,,Space,keypress(Space),,,,,,,,---- -- ----- -- ------ - ------- --- ----------<br>------------- ------ ------ ---- ---- ------- ----- -- ----<br>-------- ------- -- ---------- --- - --- ----- ----- ----<br>---- --- --- ----- --- ---- ---- ------- ----- ---- -------<br>--- --- -- ----- -- --- ---- -- --- ---- -- that's ------<br>--- ----- -- ----,153397.5,153397.09999990463,153163.47,153170.19999992847,153180.137,153413.449,,50,that's
screen,html.Screen,2_1_0_1_51,2022-02-01T13:29:05.527Z,,,,,,,,,,,,,,,,,53,,,,,,,,,,,,,,263.35099995232304,,response,,,,99,,,,,,,Space,keypress(Space),,,,,,,,---- -- ----- -- ------ - ------- --- ----------<br>------------- ------ ------ ---- ---- ------- ----- -- ----<br>-------- ------- -- ---------- --- - --- ----- ----- ----<br>---- --- --- ----- --- ---- ---- ------- ----- ---- -------<br>--- --- -- ----- -- --- ---- -- --- ---- -- ------ really<br>--- ----- -- ----,153677.09999990463,153676.79999995232,153396.683,153397.59999990463,153413.449,153680.007,,51,really
screen,html.Screen,2_1_0_1_52,2022-02-01T13:29:05.805Z,,,,,,,,,,,,,,,,,53,,,,,,,,,,,,,,274.5929999046202,,response,,,,99,,,,,,,Space,keypress(Space),,,,,,,,---- -- ----- -- ------ - ------- --- ----------<br>------------- ------ ------ ---- ---- ------- ----- -- ----<br>-------- ------- -- ---------- --- - --- ----- ----- ----<br>---- --- --- ----- --- ---- ---- ------- ----- ---- -------<br>--- --- -- ----- -- --- ---- -- --- ---- -- ------ ------<br>not ----- -- ----,153955,153954.59999990463,153663.451,153677.29999995232,153680.007,153963.432,,52,not
screen,html.Screen,2_1_0_1_53,2022-02-01T13:29:06.054Z,,,,,,,,,,,,,,,,,53,,,,,,,,,,,,,,240.16799990463187,,response,,,,99,,,,,,,Space,keypress(Space),,,,,,,,---- -- ----- -- ------ - ------- --- ----------<br>------------- ------ ------ ---- ---- ------- ----- -- ----<br>-------- ------- -- ---------- --- - --- ----- ----- ----<br>---- --- --- ----- --- ---- ---- ------- ----- ---- -------<br>--- --- -- ----- -- --- ---- -- --- ---- -- ------ ------<br>--- close -- ----,154204,154203.59999990463,153946.756,153955.09999990463,153963.432,154213.417,,53,close
screen,html.Screen,2_1_0_1_54,2022-02-01T13:29:06.323Z,,,,,,,,,,,,,,,,,53,,,,,,,,,,,,,,258.68299990464584,,response,,,,99,,,,,,,Space,keypress(Space),,,,,,,,---- -- ----- -- ------ - ------- --- ----------<br>------------- ------ ------ ---- ---- ------- ----- -- ----<br>-------- ------- -- ---------- --- - --- ----- ----- ----<br>---- --- --- ----- --- ---- ---- ------- ----- ---- -------<br>--- --- -- ----- -- --- ---- -- --- ---- -- ------ ------<br>--- ----- at ----,154472.69999992847,154472.09999990463,154196.687,154204.09999990463,154213.417,154480.061,,54,at
screen,html.Screen,2_1_0_1_55,2022-02-01T13:29:06.607Z,,,,,,,,,,,,,,,,,53,,,,,,,,,,,,,,277.0389999046456,,response,,,,99,,,,,,,Space,keypress(Space),,,,,,,,---- -- ----- -- ------ - ------- --- ----------<br>------------- ------ ------ ---- ---- ------- ----- -- ----<br>-------- ------- -- ---------- --- - --- ----- ----- ----<br>---- --- --- ----- --- ---- ---- ------- ----- ---- -------<br>--- --- -- ----- -- --- ---- -- --- ---- -- ------ ------<br>--- ----- -- all.,154757.59999990463,154757.09999990463,154463.425,154473.39999997616,154480.061,154763.353,,55,all.
Item 99,flow.Loop,2_1_0_1,2022-02-01T13:29:06.608Z,,,,,,,,,,,,,,,,,,,,,,,,,,,,,,,16526.83499990462,,completion,,,,,D,,,,,,,,,,,silence,,,,,154757.79999995232,154757.09999990463,138213.625,138214.09999990463,138230.265,154763.353,,,
Question 1,html.Screen,2_1_0_2,2022-02-01T13:29:09.724Z,,,,,,,,,,,,,,,,,,,,,,,,,,,,true,FALSE,,3109.5469999761553,,response,,,,99,D,,,,,,FALSE,click #choice-2,,,,silence,,,,,157874,157872.89999997616,154746.695,154757.79999995232,154763.353,157879.978,,,
Question 2,html.Screen,2_1_0_3,2022-02-01T13:29:12.193Z,,,,,,,,,,,,,,,,,,,,,,,,,,,,true,TRUE,,2461.7219999284716,,response,,,,99,D,,,,,,TRUE,click #choice-1,,,,silence,,,,,160342.89999997616,160341.69999992847,157863.385,157874.09999990463,157879.978,160346.641,,,
Item 99,flow.Sequence,2_1_0,2022-02-01T13:29:12.193Z,,,,,,,,,,,,,,,,,,,,,,,,,,,,,,,32111.44499992847,,completion,,,,,,,,,,,,,,,,,,,,,160343,160341.69999992847,128213.63,128220.79999995232,128230.255,160346.641,,,
Holding screen,html.Screen,2_1_1_0,2022-02-01T13:29:22.180Z,,,,,,,,,,,,,,,,,,,,,,,,,,,,,,,9999.967000000004,,timeout,,,,,,,,,,,,,,,,,,,,,170330.29999995232,170329.851,160329.994,160343,160346.641,170346.608,,,
screen,html.Screen,2_1_1_1_0,2022-02-01T13:29:22.740Z,,,,,,,,,,,,,,,,,54,,,,,,,,,,,,,,542.9919999046251,,response,,,,100,,,,,,,Space,keypress(Space),,,,,,,,At --- ---- --- ------ ----- ------- ---- -- --- ------- --<br>------- ---------- ------ -- ----- -- ----- -- ---- ------<br>--- ----- --- --- ------ -------- ----- --- ------ ----- --<br>----- ----- ---------- --- --- ------ ------ ---- -- ------<br>------- --- ------ ----- --- ---- ------- -- ---- --- --<br>------- ------,170890.09999990463,170889.59999990463,170329.851,170330.5,170346.608,170896.564,,0,At
screen,html.Screen,2_1_1_1_1,2022-02-01T13:29:23.035Z,,,,,,,,,,,,,,,,,54,,,,,,,,,,,,,,287.73599995230325,,response,,,,100,,,,,,,Space,keypress(Space),,,,,,,,-- the ---- --- ------ ----- ------- ---- -- --- ------- --<br>------- ---------- ------ -- ----- -- ----- -- ---- ------<br>--- ----- --- --- ------ -------- ----- --- ------ ----- --<br>----- ----- ---------- --- --- ------ ------ ---- -- ------<br>------- --- ------ ----- --- ---- ------- -- ---- --- --<br>------- ------,171184.79999995232,171184.29999995232,170879.869,170890.19999992847,170896.564,171196.543,,1,the
screen,html.Screen,2_1_1_1_2,2022-02-01T13:29:23.264Z,,,,,,,,,,,,,,,,,54,,,,,,,,,,,,,,217.45699999999488,,response,,,,100,,,,,,,Space,keypress(Space),,,,,,,,-- --- time --- ------ ----- ------- ---- -- --- ------- --<br>------- ---------- ------ -- ----- -- ----- -- ---- ------<br>--- ----- --- --- ------ -------- ----- --- ------ ----- --<br>----- ----- ---------- --- --- ------ ------ ---- -- ------<br>------- --- ------ ----- --- ---- ------- -- ---- --- --<br>------- ------,171414.39999997616,171414,171179.857,171184.79999995232,171196.543,171429.826,,2,time
screen,html.Screen,2_1_1_1_3,2022-02-01T13:29:23.527Z,,,,,,,,,,,,,,,,,54,,,,,,,,,,,,,,246.77399990463164,,response,,,,100,,,,,,,Space,keypress(Space),,,,,,,,-- --- ---- the ------ ----- ------- ---- -- --- ------- --<br>------- ---------- ------ -- ----- -- ----- -- ---- ------<br>--- ----- --- --- ------ -------- ----- --- ------ ----- --<br>----- ----- ---------- --- --- ------ ------ ---- -- ------<br>------- --- ------ ----- --- ---- ------- -- ---- --- --<br>------- ------,171677,171676.59999990463,171413.157,171414.5,171429.826,171679.806,,3,the
screen,html.Screen,2_1_1_1_4,2022-02-01T13:29:23.789Z,,,,,,,,,,,,,,,,,54,,,,,,,,,,,,,,258.4939999523049,,response,,,,100,,,,,,,Space,keypress(Space),,,,,,,,-- --- ---- --- French ----- ------- ---- -- --- ------- --<br>------- ---------- ------ -- ----- -- ----- -- ---- ------<br>--- ----- --- --- ------ -------- ----- --- ------ ----- --<br>----- ----- ---------- --- --- ------ ------ ---- -- ------<br>------- --- ------ ----- --- ---- ------- -- ---- --- --<br>------- ------,171938.69999992847,171938.29999995232,171663.251,171677.09999990463,171679.806,171946.493,,4,French
screen,html.Screen,2_1_1_1_5,2022-02-01T13:29:24.038Z,,,,,,,,,,,,,,,,,54,,,,,,,,,,,,,,241.6069999046449,,response,,,,100,,,,,,,Space,keypress(Space),,,,,,,,-- --- ---- --- ------ crown ------- ---- -- --- ------- --<br>------- ---------- ------ -- ----- -- ----- -- ---- ------<br>--- ----- --- --- ------ -------- ----- --- ------ ----- --<br>----- ----- ---------- --- --- ------ ------ ---- -- ------<br>------- --- ------ ----- --- ---- ------- -- ---- --- --<br>------- ------,172188.5,172188.09999990463,171929.933,171938.69999992847,171946.493,172196.602,,5,crown
screen,html.Screen,2_1_1_1_6,2022-02-01T13:29:24.346Z,,,,,,,,,,,,,,,,,54,,,,,,,,,,,,,,299.0979999284609,,response,,,,100,,,,,,,Space,keypress(Space),,,,,,,,-- --- ---- --- ------ ----- secured ---- -- --- ------- --<br>------- ---------- ------ -- ----- -- ----- -- ---- ------<br>--- ----- --- --- ------ -------- ----- --- ------ ----- --<br>----- ----- ---------- --- --- ------ ------ ---- -- ------<br>------- --- ------ ----- --- ---- ------- -- ---- --- --<br>------- ------,172496,172495.69999992847,172179.868,172188.5,172196.602,172496.47,,6,secured
screen,html.Screen,2_1_1_1_7,2022-02-01T13:29:24.617Z,,,,,,,,,,,,,,,,,54,,,,,,,,,,,,,,270.1299999046314,,response,,,,100,,,,,,,Space,keypress(Space),,,,,,,,-- --- ---- --- ------ ----- ------- much -- --- ------- --<br>------- ---------- ------ -- ----- -- ----- -- ---- ------<br>--- ----- --- --- ------ -------- ----- --- ------ ----- --<br>----- ----- ---------- --- --- ------ ------ ---- -- ------<br>------- --- ------ ----- --- ---- ------- -- ---- --- --<br>------- ------,172767,172766.59999990463,172479.871,172496,172496.47,172779.915,,7,much
screen,html.Screen,2_1_1_1_8,2022-02-01T13:29:24.884Z,,,,,,,,,,,,,,,,,54,,,,,,,,,,,,,,254.18499990462442,,response,,,,100,,,,,,,Space,keypress(Space),,,,,,,,-- --- ---- --- ------ ----- ------- ---- of --- ------- --<br>------- ---------- ------ -- ----- -- ----- -- ---- ------<br>--- ----- --- --- ------ -------- ----- --- ------ ----- --<br>----- ----- ---------- --- --- ------ ------ ---- -- ------<br>------- --- ------ ----- --- ---- ------- -- ---- --- --<br>------- ------,173034.5,173034.09999990463,172763.245,172767.09999990463,172779.915,173046.519,,8,of
screen,html.Screen,2_1_1_1_9,2022-02-01T13:29:25.133Z,,,,,,,,,,,,,,,,,54,,,,,,,,,,,,,,236.08099990463234,,response,,,,100,,,,,,,Space,keypress(Space),,,,,,,,-- --- ---- --- ------ ----- ------- ---- -- its ------- --<br>------- ---------- ------ -- ----- -- ----- -- ---- ------<br>--- ----- --- --- ------ -------- ----- --- ------ ----- --<br>----- ----- ---------- --- --- ------ ------ ---- -- ------<br>------- --- ------ ----- --- ---- ------- -- ---- --- --<br>------- ------,173283.19999992847,173282.59999990463,173029.872,173034.59999990463,173046.519,173296.498,,9,its
screen,html.Screen,2_1_1_1_10,2022-02-01T13:29:25.365Z,,,,,,,,,,,,,,,,,54,,,,,,,,,,,,,,217.90199997616583,,response,,,,100,,,,,,,Space,keypress(Space),,,,,,,,-- --- ---- --- ------ ----- ------- ---- -- --- revenue --<br>------- ---------- ------ -- ----- -- ----- -- ---- ------<br>--- ----- --- --- ------ -------- ----- --- ------ ----- --<br>----- ----- ---------- --- --- ------ ------ ---- -- ------<br>------- --- ------ ----- --- ---- ------- -- ---- --- --<br>------- ------,173514.89999997616,173514.39999997616,173279.929,173283.19999992847,173296.498,173529.88,,10,revenue
screen,html.Screen,2_1_1_1_11,2022-02-01T13:29:25.668Z,,,,,,,,,,,,,,,,,54,,,,,,,,,,,,,,287.81999992846977,,response,,,,100,,,,,,,Space,keypress(Space),,,,,,,,-- --- ---- --- ------ ----- ------- ---- -- --- ------- by<br>------- ---------- ------ -- ----- -- ----- -- ---- ------<br>--- ----- --- --- ------ -------- ----- --- ------ ----- --<br>----- ----- ---------- --- --- ------ ------ ---- -- ------<br>------- --- ------ ----- --- ---- ------- -- ---- --- --<br>------- ------,173818.09999990463,173817.69999992847,173513.181,173514.89999997616,173529.88,173829.85,,11,by
screen,html.Screen,2_1_1_1_12,2022-02-01T13:29:25.930Z,,,,,,,,,,,,,,,,,54,,,,,,,,,,,,,,250.04999997615232,,response,,,,100,,,,,,,Space,keypress(Space),,,,,,,,-- --- ---- --- ------ ----- ------- ---- -- --- ------- --<br>issuing ---------- ------ -- ----- -- ----- -- ---- ------<br>--- ----- --- --- ------ -------- ----- --- ------ ----- --<br>----- ----- ---------- --- --- ------ ------ ---- -- ------<br>------- --- ------ ----- --- ---- ------- -- ---- --- --<br>------- ------,174080.5,174079.89999997616,173813.257,173818.19999992847,173829.85,174096.589,,12,issuing
screen,html.Screen,2_1_1_1_13,2022-02-01T13:29:26.198Z,,,,,,,,,,,,,,,,,54,,,,,,,,,,,,,,250.6109999284672,,response,,,,100,,,,,,,Space,keypress(Space),,,,,,,,-- --- ---- --- ------ ----- ------- ---- -- --- ------- --<br>------- government ------ -- ----- -- ----- -- ---- ------<br>--- ----- --- --- ------ -------- ----- --- ------ ----- --<br>----- ----- ---------- --- --- ------ ------ ---- -- ------<br>------- --- ------ ----- --- ---- ------- -- ---- --- --<br>------- ------,174347.69999992847,174347.19999992847,174079.882,174080.59999990463,174096.589,174363.257,,13,government
screen,html.Screen,2_1_1_1_14,2022-02-01T13:29:26.448Z,,,,,,,,,,,,,,,,,54,,,,,,,,,,,,,,234.6429999761458,,response,,,,100,,,,,,,Space,keypress(Space),,,,,,,,-- --- ---- --- ------ ----- ------- ---- -- --- ------- --<br>------- ---------- bonds. -- ----- -- ----- -- ---- ------<br>--- ----- --- --- ------ -------- ----- --- ------ ----- --<br>----- ----- ---------- --- --- ------ ------ ---- -- ------<br>------- --- ------ ----- --- ---- ------- -- ---- --- --<br>------- ------,174598.5,174597.89999997616,174346.529,174347.69999992847,174363.257,174613.23,,14,bonds.
screen,html.Screen,2_1_1_1_15,2022-02-01T13:29:26.653Z,,,,,,,,,,,,,,,,,54,,,,,,,,,,,,,,189.0699999523058,,response,,,,100,,,,,,,Space,keypress(Space),,,,,,,,-- --- ---- --- ------ ----- ------- ---- -- --- ------- --<br>------- ---------- ------ In ----- -- ----- -- ---- ------<br>--- ----- --- --- ------ -------- ----- --- ------ ----- --<br>----- ----- ---------- --- --- ------ ------ ---- -- ------<br>------- --- ------ ----- --- ---- ------- -- ---- --- --<br>------- ------,174802.69999992847,174802.29999995232,174596.582,174598.59999990463,174613.23,174813.246,,15,In
screen,html.Screen,2_1_1_1_16,2022-02-01T13:29:26.899Z,,,,,,,,,,,,,,,,,54,,,,,,,,,,,,,,235.6539999761444,,response,,,,100,,,,,,,Space,keypress(Space),,,,,,,,"-- --- ---- --- ------ ----- ------- ---- -- --- ------- --<br>------- ---------- ------ -- 1727, -- ----- -- ---- ------<br>--- ----- --- --- ------ -------- ----- --- ------ ----- --<br>----- ----- ---------- --- --- ------ ------ ---- -- ------<br>------- --- ------ ----- --- ---- ------- -- ---- --- --<br>------- ------",175049.19999992847,175048.89999997616,174796.563,174802.79999995232,174813.246,175063.249,,16,"1727,"
screen,html.Screen,2_1_1_1_17,2022-02-01T13:29:27.145Z,,,,,,,,,,,,,,,,,54,,,,,,,,,,,,,,231.35099990462186,,response,,,,100,,,,,,,Space,keypress(Space),,,,,,,,-- --- ---- --- ------ ----- ------- ---- -- --- ------- --<br>------- ---------- ------ -- ----- in ----- -- ---- ------<br>--- ----- --- --- ------ -------- ----- --- ------ ----- --<br>----- ----- ---------- --- --- ------ ------ ---- -- ------<br>------- --- ------ ----- --- ---- ------- -- ---- --- --<br>------- ------,175295,175294.59999990463,175046.503,175049.39999997616,175063.249,175296.523,,17,in
screen,html.Screen,2_1_1_1_18,2022-02-01T13:29:27.429Z,,,,,,,,,,,,,,,,,54,,,,,,,,,,,,,,281.7769999523298,,response,,,,100,,,,,,,Space,keypress(Space),,,,,,,,-- --- ---- --- ------ ----- ------- ---- -- --- ------- --<br>------- ---------- ------ -- ----- -- order -- ---- ------<br>--- ----- --- --- ------ -------- ----- --- ------ ----- --<br>----- ----- ---------- --- --- ------ ------ ---- -- ------<br>------- --- ------ ----- --- ---- ------- -- ---- --- --<br>------- ------,175578.69999992847,175578.29999995232,175279.909,175295,175296.523,175579.807,,18,order
screen,html.Screen,2_1_1_1_19,2022-02-01T13:29:27.710Z,,,,,,,,,,,,,,,,,54,,,,,,,,,,,,,,280.09299997615744,,response,,,,100,,,,,,,Space,keypress(Space),,,,,,,,-- --- ---- --- ------ ----- ------- ---- -- --- ------- --<br>------- ---------- ------ -- ----- -- ----- to ---- ------<br>--- ----- --- --- ------ -------- ----- --- ------ ----- --<br>----- ----- ---------- --- --- ------ ------ ---- -- ------<br>------- --- ------ ----- --- ---- ------- -- ---- --- --<br>------- ------,175860.39999997616,175859.89999997616,175563.237,175578.79999995232,175579.807,175863.099,,19,to
screen,html.Screen,2_1_1_1_20,2022-02-01T13:29:28.045Z,,,,,,,,,,,,,,,,,54,,,,,,,,,,,,,,331.50099990464514,,response,,,,100,,,,,,,Space,keypress(Space),,,,,,,,-- --- ---- --- ------ ----- ------- ---- -- --- ------- --<br>------- ---------- ------ -- ----- -- ----- -- save ------<br>--- ----- --- --- ------ -------- ----- --- ------ ----- --<br>----- ----- ---------- --- --- ------ ------ ---- -- ------<br>------- --- ------ ----- --- ---- ------- -- ---- --- --<br>------- ------,176195,176194.59999990463,175846.455,175860.5,175863.099,176196.504,,20,save
screen,html.Screen,2_1_1_1_21,2022-02-01T13:29:28.311Z,,,,,,,,,,,,,,,,,54,,,,,,,,,,,,,,263.99600000001374,,response,,,,100,,,,,,,Space,keypress(Space),,,,,,,,"-- --- ---- --- ------ ----- ------- ---- -- --- ------- --<br>------- ---------- ------ -- ----- -- ----- -- ---- money,<br>--- ----- --- --- ------ -------- ----- --- ------ ----- --<br>----- ----- ---------- --- --- ------ ------ ---- -- ------<br>------- --- ------ ----- --- ---- ------- -- ---- --- --<br>------- ------",176460.89999997616,176460.5,176179.904,176195,176196.504,176463.212,,21,"money,"
screen,html.Screen,2_1_1_1_22,2022-02-01T13:29:28.647Z,,,,,,,,,,,,,,,,,54,,,,,,,,,,,,,,333.4879999284749,,response,,,,100,,,,,,,Space,keypress(Space),,,,,,,,-- --- ---- --- ------ ----- ------- ---- -- --- ------- --<br>------- ---------- ------ -- ----- -- ----- -- ---- ------<br>the ----- --- --- ------ -------- ----- --- ------ ----- --<br>----- ----- ---------- --- --- ------ ------ ---- -- ------<br>------- --- ------ ----- --- ---- ------- -- ---- --- --<br>------- ------,176797.09999990463,176796.69999992847,176446.558,176461.09999990463,176463.212,176813.23,,22,the
screen,html.Screen,2_1_1_1_23,2022-02-01T13:29:28.923Z,,,,,,,,,,,,,,,,,54,,,,,,,,,,,,,,259.7699999999895,,response,,,,100,,,,,,,Space,keypress(Space),,,,,,,,-- --- ---- --- ------ ----- ------- ---- -- --- ------- --<br>------- ---------- ------ -- ----- -- ----- -- ---- ------<br>--- state --- --- ------ -------- ----- --- ------ ----- --<br>----- ----- ---------- --- --- ------ ------ ---- -- ------<br>------- --- ------ ----- --- ---- ------- -- ---- --- --<br>------- ------,177073.29999995232,177073,176796.467,176797.19999992847,176813.23,177079.747,,23,state
screen,html.Screen,2_1_1_1_24,2022-02-01T13:29:29.239Z,,,,,,,,,,,,,,,,,54,,,,,,,,,,,,,,308.55299995231326,,response,,,,100,,,,,,,Space,keypress(Space),,,,,,,,-- --- ---- --- ------ ----- ------- ---- -- --- ------- --<br>------- ---------- ------ -- ----- -- ----- -- ---- ------<br>--- ----- cut --- ------ -------- ----- --- ------ ----- --<br>----- ----- ---------- --- --- ------ ------ ---- -- ------<br>------- --- ------ ----- --- ---- ------- -- ---- --- --<br>------- ------,177388.79999995232,177388.29999995232,177063.193,177073.29999995232,177079.747,177396.548,,24,cut
screen,html.Screen,2_1_1_1_25,2022-02-01T13:29:29.501Z,,,,,,,,,,,,,,,,,54,,,,,,,,,,,,,,253.95199999999022,,response,,,,100,,,,,,,Space,keypress(Space),,,,,,,,-- --- ---- --- ------ ----- ------- ---- -- --- ------- --<br>------- ---------- ------ -- ----- -- ----- -- ---- ------<br>--- ----- --- the ------ -------- ----- --- ------ ----- --<br>----- ----- ---------- --- --- ------ ------ ---- -- ------<br>------- --- ------ ----- --- ---- ------- -- ---- --- --<br>------- ------,177651,177650.5,177379.772,177388.89999997616,177396.548,177663.125,,25,the
screen,html.Screen,2_1_1_1_26,2022-02-01T13:29:29.818Z,,,,,,,,,,,,,,,,,54,,,,,,,,,,,,,,304.47499990463257,,response,,,,100,,,,,,,Space,keypress(Space),,,,,,,,-- --- ---- --- ------ ----- ------- ---- -- --- ------- --<br>------- ---------- ------ -- ----- -- ----- -- ---- ------<br>--- ----- --- --- bonds' -------- ----- --- ------ ----- --<br>----- ----- ---------- --- --- ------ ------ ---- -- ------<br>------- --- ------ ----- --- ---- ------- -- ---- --- --<br>------- ------,177968,177967.59999990463,177646.56,177651.09999990463,177663.125,177979.81,,26,bonds'
screen,html.Screen,2_1_1_1_27,2022-02-01T13:29:30.058Z,,,,,,,,,,,,,,,,,54,,,,,,,,,,,,,,227.7899999046349,,response,,,,100,,,,,,,Space,keypress(Space),,,,,,,,-- --- ---- --- ------ ----- ------- ---- -- --- ------- --<br>------- ---------- ------ -- ----- -- ----- -- ---- ------<br>--- ----- --- --- ------ interest ----- --- ------ ----- --<br>----- ----- ---------- --- --- ------ ------ ---- -- ------<br>------- --- ------ ----- --- ---- ------- -- ---- --- --<br>------- ------,178208,178207.59999990463,177963.117,177968.19999992847,177979.81,178213.174,,27,interest
screen,html.Screen,2_1_1_1_28,2022-02-01T13:29:30.369Z,,,,,,,,,,,,,,,,,54,,,,,,,,,,,,,,305.52599992847536,,response,,,,100,,,,,,,Space,keypress(Space),,,,,,,,-- --- ---- --- ------ ----- ------- ---- -- --- ------- --<br>------- ---------- ------ -- ----- -- ----- -- ---- ------<br>--- ----- --- --- ------ -------- rate. --- ------ ----- --<br>----- ----- ---------- --- --- ------ ------ ---- -- ------<br>------- --- ------ ----- --- ---- ------- -- ---- --- --<br>------- ------,178519.09999990463,178518.69999992847,178196.478,178208.09999990463,178213.174,178529.852,,28,rate.
screen,html.Screen,2_1_1_1_29,2022-02-01T13:29:30.651Z,,,,,,,,,,,,,,,,,54,,,,,,,,,,,,,,270.9479999523028,,response,,,,100,,,,,,,Space,keypress(Space),,,,,,,,-- --- ---- --- ------ ----- ------- ---- -- --- ------- --<br>------- ---------- ------ -- ----- -- ----- -- ---- ------<br>--- ----- --- --- ------ -------- ----- The ------ ----- --<br>----- ----- ---------- --- --- ------ ------ ---- -- ------<br>------- --- ------ ----- --- ---- ------- -- ---- --- --<br>------- ------,178801.39999997616,178800.79999995232,178513.146,178519.09999990463,178529.852,178813.201,,29,The
screen,html.Screen,2_1_1_1_30,2022-02-01T13:29:30.923Z,,,,,,,,,,,,,,,,,54,,,,,,,,,,,,,,259.29899999999907,,response,,,,100,,,,,,,Space,keypress(Space),,,,,,,,-- --- ---- --- ------ ----- ------- ---- -- --- ------- --<br>------- ---------- ------ -- ----- -- ----- -- ---- ------<br>--- ----- --- --- ------ -------- ----- --- market ----- --<br>----- ----- ---------- --- --- ------ ------ ---- -- ------<br>------- --- ------ ----- --- ---- ------- -- ---- --- --<br>------- ------,179072.79999995232,179072.5,178796.515,178801.39999997616,178813.201,179079.786,,30,market
screen,html.Screen,2_1_1_1_31,2022-02-01T13:29:31.194Z,,,,,,,,,,,,,,,,,54,,,,,,,,,,,,,,264.0139999523235,,response,,,,100,,,,,,,Space,keypress(Space),,,,,,,,-- --- ---- --- ------ ----- ------- ---- -- --- ------- --<br>------- ---------- ------ -- ----- -- ----- -- ---- ------<br>--- ----- --- --- ------ -------- ----- --- ------ value --<br>----- ----- ---------- --- --- ------ ------ ---- -- ------<br>------- --- ------ ----- --- ---- ------- -- ---- --- --<br>------- ------,179344.19999992847,179343.79999995232,179063.103,179072.89999997616,179079.786,179346.509,,31,value
screen,html.Screen,2_1_1_1_32,2022-02-01T13:29:31.476Z,,,,,,,,,,,,,,,,,54,,,,,,,,,,,,,,279.29099995232536,,response,,,,100,,,,,,,Space,keypress(Space),,,,,,,,-- --- ---- --- ------ ----- ------- ---- -- --- ------- --<br>------- ---------- ------ -- ----- -- ----- -- ---- ------<br>--- ----- --- --- ------ -------- ----- --- ------ ----- of<br>----- ----- ---------- --- --- ------ ------ ---- -- ------<br>------- --- ------ ----- --- ---- ------- -- ---- --- --<br>------- ------,179626.19999992847,179625.79999995232,179329.872,179344.29999995232,179346.509,179629.749,,32,of
screen,html.Screen,2_1_1_1_33,2022-02-01T13:29:31.740Z,,,,,,,,,,,,,,,,,54,,,,,,,,,,,,,,259.7509999999893,,response,,,,100,,,,,,,Space,keypress(Space),,,,,,,,-- --- ---- --- ------ ----- ------- ---- -- --- ------- --<br>------- ---------- ------ -- ----- -- ----- -- ---- ------<br>--- ----- --- --- ------ -------- ----- --- ------ ----- --<br>these ----- ---------- --- --- ------ ------ ---- -- ------<br>------- --- ------ ----- --- ---- ------- -- ---- --- --<br>------- ------,179889.89999997616,179889.5,179613.206,179626.29999995232,179629.749,179896.533,,33,these
screen,html.Screen,2_1_1_1_34,2022-02-01T13:29:31.994Z,,,,,,,,,,,,,,,,,54,,,,,,,,,,,,,,247.16699992847862,,response,,,,100,,,,,,,Space,keypress(Space),,,,,,,,-- --- ---- --- ------ ----- ------- ---- -- --- ------- --<br>------- ---------- ------ -- ----- -- ----- -- ---- ------<br>--- ----- --- --- ------ -------- ----- --- ------ ----- --<br>----- bonds ---------- --- --- ------ ------ ---- -- ------<br>------- --- ------ ----- --- ---- ------- -- ---- --- --<br>------- ------,180144.19999992847,180143.69999992847,179879.85,179890,179896.533,180146.407,,34,bonds
screen,html.Screen,2_1_1_1_35,2022-02-01T13:29:32.244Z,,,,,,,,,,,,,,,,,54,,,,,,,,,,,,,,246.7929999284679,,response,,,,100,,,,,,,Space,keypress(Space),,,,,,,,"-- --- ---- --- ------ ----- ------- ---- -- --- ------- --<br>------- ---------- ------ -- ----- -- ----- -- ---- ------<br>--- ----- --- --- ------ -------- ----- --- ------ ----- --<br>----- ----- plummeted, --- --- ------ ------ ---- -- ------<br>------- --- ------ ----- --- ---- ------- -- ---- --- --<br>------- ------",180393.59999990463,180393.19999992847,180129.85,180144.29999995232,180146.407,180396.461,,35,"plummeted,"
screen,html.Screen,2_1_1_1_36,2022-02-01T13:29:32.555Z,,,,,,,,,,,,,,,,,54,,,,,,,,,,,,,,308.53899999998976,,response,,,,100,,,,,,,Space,keypress(Space),,,,,,,,-- --- ---- --- ------ ----- ------- ---- -- --- ------- --<br>------- ---------- ------ -- ----- -- ----- -- ---- ------<br>--- ----- --- --- ------ -------- ----- --- ------ ----- --<br>----- ----- ---------- and --- ------ ------ ---- -- ------<br>------- --- ------ ----- --- ---- ------- -- ---- --- --<br>------- ------,180705.5,180705,180379.858,180393.79999995232,180396.461,180713.184,,36,and
screen,html.Screen,2_1_1_1_37,2022-02-01T13:29:32.848Z,,,,,,,,,,,,,,,,,54,,,,,,,,,,,,,,284.4159999046242,,response,,,,100,,,,,,,Space,keypress(Space),,,,,,,,-- --- ---- --- ------ ----- ------- ---- -- --- ------- --<br>------- ---------- ------ -- ----- -- ----- -- ---- ------<br>--- ----- --- --- ------ -------- ----- --- ------ ----- --<br>----- ----- ---------- --- the ------ ------ ---- -- ------<br>------- --- ------ ----- --- ---- ------- -- ---- --- --<br>------- ------,180998,180997.59999990463,180696.504,180705.59999990463,180713.184,181013.21,,37,the
screen,html.Screen,2_1_1_1_38,2022-02-01T13:29:33.116Z,,,,,,,,,,,,,,,,,54,,,,,,,,,,,,,,252.29000000000815,,response,,,,100,,,,,,,Space,keypress(Space),,,,,,,,-- --- ---- --- ------ ----- ------- ---- -- --- ------- --<br>------- ---------- ------ -- ----- -- ----- -- ---- ------<br>--- ----- --- --- ------ -------- ----- --- ------ ----- --<br>----- ----- ---------- --- --- market ------ ---- -- ------<br>------- --- ------ ----- --- ---- ------- -- ---- --- --<br>------- ------,181265.89999997616,181265.5,180996.394,180998.09999990463,181013.21,181279.772,,38,market
screen,html.Screen,2_1_1_1_39,2022-02-01T13:29:33.375Z,,,,,,,,,,,,,,,,,54,,,,,,,,,,,,,,245.2280000000028,,response,,,,100,,,,,,,Space,keypress(Space),,,,,,,,-- --- ---- --- ------ ----- ------- ---- -- --- ------- --<br>------- ---------- ------ -- ----- -- ----- -- ---- ------<br>--- ----- --- --- ------ -------- ----- --- ------ ----- --<br>----- ----- ---------- --- --- ------ became ---- -- ------<br>------- --- ------ ----- --- ---- ------- -- ---- --- --<br>------- ------,181525.5,181525,181263.121,181266.09999990463,181279.772,181529.748,,39,became
screen,html.Screen,2_1_1_1_40,2022-02-01T13:29:33.638Z,,,,,,,,,,,,,,,,,54,,,,,,,,,,,,,,257.7520000000077,,response,,,,100,,,,,,,Space,keypress(Space),,,,,,,,-- --- ---- --- ------ ----- ------- ---- -- --- ------- --<br>------- ---------- ------ -- ----- -- ----- -- ---- ------<br>--- ----- --- --- ------ -------- ----- --- ------ ----- --<br>----- ----- ---------- --- --- ------ ------ wary -- ------<br>------- --- ------ ----- --- ---- ------- -- ---- --- --<br>------- ------,181788.09999990463,181787.5,181513.156,181525.59999990463,181529.748,181796.509,,40,wary
screen,html.Screen,2_1_1_1_41,2022-02-01T13:29:33.926Z,,,,,,,,,,,,,,,,,54,,,,,,,,,,,,,,279.1909999284835,,response,,,,100,,,,,,,Space,keypress(Space),,,,,,,,-- --- ---- --- ------ ----- ------- ---- -- --- ------- --<br>------- ---------- ------ -- ----- -- ----- -- ---- ------<br>--- ----- --- --- ------ -------- ----- --- ------ ----- --<br>----- ----- ---------- --- --- ------ ------ ---- of ------<br>------- --- ------ ----- --- ---- ------- -- ---- --- --<br>------- ------,182076.19999992847,182075.69999992847,181779.84,181788.19999992847,181796.509,182079.725,,41,of
screen,html.Screen,2_1_1_1_42,2022-02-01T13:29:34.201Z,,,,,,,,,,,,,,,,,54,,,,,,,,,,,,,,271.37499990462675,,response,,,,100,,,,,,,Space,keypress(Space),,,,,,,,-- --- ---- --- ------ ----- ------- ---- -- --- ------- --<br>------- ---------- ------ -- ----- -- ----- -- ---- ------<br>--- ----- --- --- ------ -------- ----- --- ------ ----- --<br>----- ----- ---------- --- --- ------ ------ ---- -- French<br>------- --- ------ ----- --- ---- ------- -- ---- --- --<br>------- ------,182351.69999992847,182351.09999990463,182063.148,182076.29999995232,182079.725,182363.133,,42,French
screen,html.Screen,2_1_1_1_43,2022-02-01T13:29:34.495Z,,,,,,,,,,,,,,,,,54,,,,,,,,,,,,,,282.0669999284728,,response,,,,100,,,,,,,Space,keypress(Space),,,,,,,,-- --- ---- --- ------ ----- ------- ---- -- --- ------- --<br>------- ---------- ------ -- ----- -- ----- -- ---- ------<br>--- ----- --- --- ------ -------- ----- --- ------ ----- --<br>----- ----- ---------- --- --- ------ ------ ---- -- ------<br>credit. --- ------ ----- --- ---- ------- -- ---- --- --<br>------- ------,182645.69999992847,182645.19999992847,182346.482,182351.69999992847,182363.133,182646.375,,43,credit.
screen,html.Screen,2_1_1_1_44,2022-02-01T13:29:34.738Z,,,,,,,,,,,,,,,,,54,,,,,,,,,,,,,,241.22499990463257,,response,,,,100,,,,,,,Space,keypress(Space),,,,,,,,-- --- ---- --- ------ ----- ------- ---- -- --- ------- --<br>------- ---------- ------ -- ----- -- ----- -- ---- ------<br>--- ----- --- --- ------ -------- ----- --- ------ ----- --<br>----- ----- ---------- --- --- ------ ------ ---- -- ------<br>------- The ------ ----- --- ---- ------- -- ---- --- --<br>------- ------,182888,182887.59999990463,182629.81,182645.89999997616,182646.375,182896.404,,44,The
screen,html.Screen,2_1_1_1_45,2022-02-01T13:29:34.940Z,,,,,,,,,,,,,,,,,54,,,,,,,,,,,,,,193.19599990462302,,response,,,,100,,,,,,,Space,keypress(Space),,,,,,,,-- --- ---- --- ------ ----- ------- ---- -- --- ------- --<br>------- ---------- ------ -- ----- -- ----- -- ---- ------<br>--- ----- --- --- ------ -------- ----- --- ------ ----- --<br>----- ----- ---------- --- --- ------ ------ ---- -- ------<br>------- --- French ----- --- ---- ------- -- ---- --- --<br>------- ------,183090,183089.59999990463,182879.75,182888.09999990463,182896.404,183096.402,,45,French
screen,html.Screen,2_1_1_1_46,2022-02-01T13:29:35.110Z,,,,,,,,,,,,,,,,,54,,,,,,,,,,,,,,163.1979999046307,,response,,,,100,,,,,,,Space,keypress(Space),,,,,,,,-- --- ---- --- ------ ----- ------- ---- -- --- ------- --<br>------- ---------- ------ -- ----- -- ----- -- ---- ------<br>--- ----- --- --- ------ -------- ----- --- ------ ----- --<br>----- ----- ---------- --- --- ------ ------ ---- -- ------<br>------- --- ------ state --- ---- ------- -- ---- --- --<br>------- ------,183260,183259.59999990463,183079.735,183090.09999990463,183096.402,183263.052,,46,state
screen,html.Screen,2_1_1_1_47,2022-02-01T13:29:35.473Z,,,,,,,,,,,,,,,,,54,,,,,,,,,,,,,,359.74799995232024,,response,,,,100,,,,,,,Space,keypress(Space),,,,,,,,-- --- ---- --- ------ ----- ------- ---- -- --- ------- --<br>------- ---------- ------ -- ----- -- ----- -- ---- ------<br>--- ----- --- --- ------ -------- ----- --- ------ ----- --<br>----- ----- ---------- --- --- ------ ------ ---- -- ------<br>------- --- ------ ----- was ---- ------- -- ---- --- --<br>------- ------,183623.29999995232,183622.79999995232,183246.473,183260,183263.052,183629.824,,47,was
screen,html.Screen,2_1_1_1_48,2022-02-01T13:29:35.700Z,,,,,,,,,,,,,,,,,54,,,,,,,,,,,,,,220.0759999761649,,response,,,,100,,,,,,,Space,keypress(Space),,,,,,,,-- --- ---- --- ------ ----- ------- ---- -- --- ------- --<br>------- ---------- ------ -- ----- -- ----- -- ---- ------<br>--- ----- --- --- ------ -------- ----- --- ------ ----- --<br>----- ----- ---------- --- --- ------ ------ ---- -- ------<br>------- --- ------ ----- --- left ------- -- ---- --- --<br>------- ------,183850.29999995232,183849.89999997616,183613.045,183623.39999997616,183629.824,183863.113,,48,left
screen,html.Screen,2_1_1_1_49,2022-02-01T13:29:35.930Z,,,,,,,,,,,,,,,,,54,,,,,,,,,,,,,,216.48699990462046,,response,,,,100,,,,,,,Space,keypress(Space),,,,,,,,-- --- ---- --- ------ ----- ------- ---- -- --- ------- --<br>------- ---------- ------ -- ----- -- ----- -- ---- ------<br>--- ----- --- --- ------ -------- ----- --- ------ ----- --<br>----- ----- ---------- --- --- ------ ------ ---- -- ------<br>------- --- ------ ----- --- ---- without -- ---- --- --<br>------- ------,184080.19999992847,184079.59999990463,183846.495,183850.39999997616,183863.113,184096.49,,49,without
screen,html.Screen,2_1_1_1_50,2022-02-01T13:29:36.208Z,,,,,,,,,,,,,,,,,54,,,,,,,,,,,,,,261.20999992848374,,response,,,,100,,,,,,,Space,keypress(Space),,,,,,,,-- --- ---- --- ------ ----- ------- ---- -- --- ------- --<br>------- ---------- ------ -- ----- -- ----- -- ---- ------<br>--- ----- --- --- ------ -------- ----- --- ------ ----- --<br>----- ----- ---------- --- --- ------ ------ ---- -- ------<br>------- --- ------ ----- --- ---- ------- an ---- --- --<br>------- ------,184358.09999990463,184357.69999992847,184079.791,184080.29999995232,184096.49,184363.07,,50,an
screen,html.Screen,2_1_1_1_51,2022-02-01T13:29:36.461Z,,,,,,,,,,,,,,,,,54,,,,,,,,,,,,,,248.02999990462558,,response,,,,100,,,,,,,Space,keypress(Space),,,,,,,,-- --- ---- --- ------ ----- ------- ---- -- --- ------- --<br>------- ---------- ------ -- ----- -- ----- -- ---- ------<br>--- ----- --- --- ------ -------- ----- --- ------ ----- --<br>----- ----- ---------- --- --- ------ ------ ---- -- ------<br>------- --- ------ ----- --- ---- ------- -- easy --- --<br>------- ------,184611.5,184611.09999990463,184346.359,184358.19999992847,184363.07,184613.062,,51,easy
screen,html.Screen,2_1_1_1_52,2022-02-01T13:29:36.782Z,,,,,,,,,,,,,,,,,54,,,,,,,,,,,,,,319.0379999046272,,response,,,,100,,,,,,,Space,keypress(Space),,,,,,,,-- --- ---- --- ------ ----- ------- ---- -- --- ------- --<br>------- ---------- ------ -- ----- -- ----- -- ---- ------<br>--- ----- --- --- ------ -------- ----- --- ------ ----- --<br>----- ----- ---------- --- --- ------ ------ ---- -- ------<br>------- --- ------ ----- --- ---- ------- -- ---- way --<br>------- ------,184932.5,184932.09999990463,184596.431,184611.69999992847,184613.062,184946.506,,52,way
screen,html.Screen,2_1_1_1_53,2022-02-01T13:29:37.086Z,,,,,,,,,,,,,,,,,54,,,,,,,,,,,,,,289.3939999761642,,response,,,,100,,,,,,,Space,keypress(Space),,,,,,,,-- --- ---- --- ------ ----- ------- ---- -- --- ------- --<br>------- ---------- ------ -- ----- -- ----- -- ---- ------<br>--- ----- --- --- ------ -------- ----- --- ------ ----- --<br>----- ----- ---------- --- --- ------ ------ ---- -- ------<br>------- --- ------ ----- --- ---- ------- -- ---- --- of<br>------- ------,185236.29999995232,185235.89999997616,184929.81,184932.59999990463,184946.506,185246.464,,53,of
screen,html.Screen,2_1_1_1_54,2022-02-01T13:29:37.372Z,,,,,,,,,,,,,,,,,54,,,,,,,,,,,,,,275.13599990462535,,response,,,,100,,,,,,,Space,keypress(Space),,,,,,,,-- --- ---- --- ------ ----- ------- ---- -- --- ------- --<br>------- ---------- ------ -- ----- -- ----- -- ---- ------<br>--- ----- --- --- ------ -------- ----- --- ------ ----- --<br>----- ----- ---------- --- --- ------ ------ ---- -- ------<br>------- --- ------ ----- --- ---- ------- -- ---- --- --<br>raising ------,185521.89999997616,185521.59999990463,185229.824,185236.39999997616,185246.464,185529.719,,54,raising
screen,html.Screen,2_1_1_1_55,2022-02-01T13:29:37.630Z,,,,,,,,,,,,,,,,,54,,,,,,,,,,,,,,250.18099997614627,,response,,,,100,,,,,,,Space,keypress(Space),,,,,,,,-- --- ---- --- ------ ----- ------- ---- -- --- ------- --<br>------- ---------- ------ -- ----- -- ----- -- ---- ------<br>--- ----- --- --- ------ -------- ----- --- ------ ----- --<br>----- ----- ---------- --- --- ------ ------ ---- -- ------<br>------- --- ------ ----- --- ---- ------- -- ---- --- --<br>------- money.,185780.39999997616,185779.89999997616,185513.081,185521.89999997616,185529.719,185796.446,,55,money.
Item 100,flow.Loop,2_1_1_1,2022-02-01T13:29:37.630Z,,,,,,,,,,,,,,,,,,,,,,,,,,,,,,,15433.29199997615,,completion,,,,,D,,,,,,,,,,,silence,,,,,185780.5,185779.89999997616,170329.851,170330.5,170346.608,185796.446,,,
Question 1,html.Screen,2_1_1_2,2022-02-01T13:29:39.640Z,,,,,,,,,,,,,,,,,,,,,,,,,,,,true,TRUE,,1992.35399995232,,response,,,,100,D,,,,,,TRUE,click #choice-1,,,,silence,,,,,187789.89999997616,187788.79999995232,185779.703,185780.5,185796.446,187813.154,,,
Question 2,html.Screen,2_1_1_3,2022-02-01T13:29:41.366Z,,,,,,,,,,,,,,,,,,,,,,,,,,,,true,FALSE,,1701.6459999523067,,response,,,,100,D,,,,,,FALSE,click #choice-2,,,,silence,,,,,189515.79999995232,189514.79999995232,187796.324,187790,187813.154,189546.448,,,
Item 100,flow.Sequence,2_1_1,2022-02-01T13:29:41.366Z,,,,,,,,,,,,,,,,,,,,,,,,,,,,,,,29168.158999952313,,completion,,,,,,,,,,,,,,,,,,,,,189515.89999997616,189514.79999995232,160329.994,160343,160346.641,189546.448,,,
End of Practice,html.Page,2_1_2,2022-02-01T13:29:47.095Z,,,,,,,,,,,,,,,,,,,,,,,,,,,,,,,5698.651999904629,,form submission,,,,,,,,,,,,,,,,,,,,,195245.59999990463,195245.09999990463,189529.767,189516,189546.448,195246.333,,,
Practice,flow.Sequence,2_1,2022-02-01T13:29:47.096Z,,,,,,,,,,,,,,,,,,,,,,,,,,,,,,,67014.84499990463,,completion,,,,,,,,,,,,,,,,,,,,,195245.79999995232,195245.09999990463,128213.63,128220.79999995232,128230.255,195246.333,,,
Trap_instruction,html.Page,2_2_0,2022-02-01T13:29:49.207Z,,,,,,,,,,,,,,,,,,,,,,,,,,,,,,,2110.6669999999867,,form submission,,,,,,,,,,,,,,,,,,,,,197357.29999995232,197357,195229.733,195245.89999997616,195246.333,197362.943,,,
trap_trial,html.Screen,2_2_1,2022-02-01T13:29:52.071Z,,,,,,,,,,,,,,,,,,,,,,,,,,,,true,1,,2856.856999952317,,response,,,,,,,,,,,1,click #choice-1,,,,,,,,,200220.79999995232,200219.79999995232,197346.294,197357.29999995232,197362.943,200229.727,,,
end of trap trial,html.Page,2_2_2,2022-02-01T13:29:53.510Z,,,,,,,,,,,,,,,,,,,,,,,,,,,,,,,1429.872999904619,,form submission,,,,,,,,,,,,,,,,,,,,,201660,201659.59999990463,200212.914,200220.89999997616,200229.727,201662.864,,,
Trap 1,flow.Sequence,2_2,2022-02-01T13:29:53.510Z,,,,,,,,,,,,,,,,,,,,,,,,,,,,,,,6413.266999904619,,completion,,,,,,,,,,,,,,,,,,,,,201660.09999990463,201659.59999990463,195229.733,195245.89999997616,195246.333,201662.864,,,
Standby,html.Page,2_3_0,2022-02-01T13:30:01.497Z,,,,,,,,,,,,,,,,,,,,,,,,,,,,,,,8000.0229999999865,,timeout,,,,,,,,,,,,,,,,,,,,,209647.69999992847,209646.197,201646.307,201660.19999992847,201662.864,209662.887,,,
Holding screen,html.Screen,2_3_1_0_0,2022-02-01T13:30:08.496Z,,,,,,,,,,,,,,,,,,,,,,,,,,,,,,,6999.9770000000135,,timeout,,,,,,,,,,,,,,,,,,,,,216646.5,216646.121,209646.197,209647.89999997616,209662.887,216662.864,,,
screen,html.Screen,2_3_1_0_1_0,2022-02-01T13:30:09.265Z,,,,,,,,,,,,,,,,,11,,,,,,,,,,,,,,751.835999928473,,response,,,,4,D,,,,,,Space,keypress(Space),,,,silence,,,,Known -- ---- --- -- --- -------- ------------ ---------- --<br>- ------- ------ --------- -- ------------ -- --- ---- -----<br>------ ---- ---- ------ ------ ------- --- ----- ---------<br>---- --- -------- -------- --- --- -- ------- --- --- -----<br>-- --- ------ ------- --- --- -------- ---- --------- --<br>---------- -- -------- ----------------,217415.29999995232,217414.69999992847,216646.121,216646.59999990463,216662.864,217429.514,,0,Known
screen,html.Screen,2_3_1_0_1_1,2022-02-01T13:30:09.517Z,,,,,,,,,,,,,,,,,11,,,,,,,,,,,,,,237.88599997616257,,response,,,,4,D,,,,,,Space,keypress(Space),,,,silence,,,,----- as ---- --- -- --- -------- ------------ ---------- --<br>- ------- ------ --------- -- ------------ -- --- ---- -----<br>------ ---- ---- ------ ------ ------- --- ----- ---------<br>---- --- -------- -------- --- --- -- ------- --- --- -----<br>-- --- ------ ------- --- --- -------- ---- --------- --<br>---------- -- -------- ----------------,217667.79999995232,217667.39999997616,217412.764,217415.29999995232,217429.514,217679.489,,1,as
screen,html.Screen,2_3_1_0_1_2,2022-02-01T13:30:09.752Z,,,,,,,,,,,,,,,,,11,,,,,,,,,,,,,,222.3109999523149,,response,,,,4,D,,,,,,Space,keypress(Space),,,,silence,,,,----- -- Rapa --- -- --- -------- ------------ ---------- --<br>- ------- ------ --------- -- ------------ -- --- ---- -----<br>------ ---- ---- ------ ------ ------- --- ----- ---------<br>---- --- -------- -------- --- --- -- ------- --- --- -----<br>-- --- ------ ------- --- --- -------- ---- --------- --<br>---------- -- -------- ----------------,217902.19999992847,217901.79999995232,217662.721,217667.89999997616,217679.489,217912.789,,2,Rapa
screen,html.Screen,2_3_1_0_1_3,2022-02-01T13:30:09.976Z,,,,,,,,,,,,,,,,,11,,,,,,,,,,,,,,213.1109999761684,,response,,,,4,D,,,,,,Space,keypress(Space),,,,silence,,,,----- -- ---- Nui -- --- -------- ------------ ---------- --<br>- ------- ------ --------- -- ------------ -- --- ---- -----<br>------ ---- ---- ------ ------ ------- --- ----- ---------<br>---- --- -------- -------- --- --- -- ------- --- --- -----<br>-- --- ------ ------- --- --- -------- ---- --------- --<br>---------- -- -------- ----------------,218126.29999995232,218125.89999997616,217896.172,217902.19999992847,217912.789,218129.441,,3,Nui
screen,html.Screen,2_3_1_0_1_4,2022-02-01T13:30:10.209Z,,,,,,,,,,,,,,,,,11,,,,,,,,,,,,,,229.7589999284828,,response,,,,4,D,,,,,,Space,keypress(Space),,,,silence,,,,----- -- ---- --- to --- -------- ------------ ---------- --<br>- ------- ------ --------- -- ------------ -- --- ---- -----<br>------ ---- ---- ------ ------ ------- --- ----- ---------<br>---- --- -------- -------- --- --- -- ------- --- --- -----<br>-- --- ------ ------- --- --- -------- ---- --------- --<br>---------- -- -------- ----------------,218359.69999992847,218359.19999992847,218112.835,218126.39999997616,218129.441,218362.74,,4,to
screen,html.Screen,2_3_1_0_1_5,2022-02-01T13:30:10.448Z,,,,,,,,,,,,,,,,,11,,,,,,,,,,,,,,234.7600000000093,,response,,,,4,D,,,,,,Space,keypress(Space),,,,silence,,,,----- -- ---- --- -- the -------- ------------ ---------- --<br>- ------- ------ --------- -- ------------ -- --- ---- -----<br>------ ---- ---- ------ ------ ------- --- ----- ---------<br>---- --- -------- -------- --- --- -- ------- --- --- -----<br>-- --- ------ ------- --- --- -------- ---- --------- --<br>---------- -- -------- ----------------,218597.89999997616,218597.5,218346.118,218359.79999995232,218362.74,218612.747,,5,the
screen,html.Screen,2_3_1_0_1_6,2022-02-01T13:30:10.663Z,,,,,,,,,,,,,,,,,11,,,,,,,,,,,,,,200.35299990462954,,response,,,,4,D,,,,,,Space,keypress(Space),,,,silence,,,,----- -- ---- --- -- --- island's ------------ ---------- --<br>- ------- ------ --------- -- ------------ -- --- ---- -----<br>------ ---- ---- ------ ------ ------- --- ----- ---------<br>---- --- -------- -------- --- --- -- ------- --- --- -----<br>-- --- ------ ------- --- --- -------- ---- --------- --<br>---------- -- -------- ----------------,218813.59999990463,218813.09999990463,218596.099,218598,218612.747,218829.43,,6,island's
screen,html.Screen,2_3_1_0_1_7,2022-02-01T13:30:10.893Z,,,,,,,,,,,,,,,,,11,,,,,,,,,,,,,,213.46999997616513,,response,,,,4,D,,,,,,Space,keypress(Space),,,,silence,,,,"----- -- ---- --- -- --- -------- inhabitants, ---------- --<br>- ------- ------ --------- -- ------------ -- --- ---- -----<br>------ ---- ---- ------ ------ ------- --- ----- ---------<br>---- --- -------- -------- --- --- -- ------- --- --- -----<br>-- --- ------ ------- --- --- -------- ---- --------- --<br>---------- -- -------- ----------------",219043.29999995232,219042.89999997616,218812.779,218813.59999990463,218829.43,219046.035,,7,"inhabitants,"
screen,html.Screen,2_3_1_0_1_8,2022-02-01T13:30:11.162Z,,,,,,,,,,,,,,,,,11,,,,,,,,,,,,,,265.36499997615465,,response,,,,4,D,,,,,,Space,keypress(Space),,,,silence,,,,----- -- ---- --- -- --- -------- ------------ Rongorongo --<br>- ------- ------ --------- -- ------------ -- --- ---- -----<br>------ ---- ---- ------ ------ ------- --- ----- ---------<br>---- --- -------- -------- --- --- -- ------- --- --- -----<br>-- --- ------ ------- --- --- -------- ---- --------- --<br>---------- -- -------- ----------------,219312,219311.39999997616,219029.466,219043.39999997616,219046.035,219312.702,,8,Rongorongo
screen,html.Screen,2_3_1_0_1_9,2022-02-01T13:30:11.466Z,,,,,,,,,,,,,,,,,11,,,,,,,,,,,,,,303.1979999761679,,response,,,,4,D,,,,,,Space,keypress(Space),,,,silence,,,,----- -- ---- --- -- --- -------- ------------ ---------- is<br>- ------- ------ --------- -- ------------ -- --- ---- -----<br>------ ---- ---- ------ ------ ------- --- ----- ---------<br>---- --- -------- -------- --- --- -- ------- --- --- -----<br>-- --- ------ ------- --- --- -------- ---- --------- --<br>---------- -- -------- ----------------,219616.19999992847,219615.89999997616,219296.149,219312,219312.702,219629.375,,9,is
screen,html.Screen,2_3_1_0_1_10,2022-02-01T13:30:11.735Z,,,,,,,,,,,,,,,,,11,,,,,,,,,,,,,,255.82499992847443,,response,,,,4,D,,,,,,Space,keypress(Space),,,,silence,,,,----- -- ---- --- -- --- -------- ------------ ---------- --<br>a ------- ------ --------- -- ------------ -- --- ---- -----<br>------ ---- ---- ------ ------ ------- --- ----- ---------<br>---- --- -------- -------- --- --- -- ------- --- --- -----<br>-- --- ------ ------- --- --- -------- ---- --------- --<br>---------- -- -------- ----------------,219885.59999990463,219885.19999992847,219612.824,219616.39999997616,219629.375,219896.154,,10,a
screen,html.Screen,2_3_1_0_1_11,2022-02-01T13:30:12.012Z,,,,,,,,,,,,,,,,,11,,,,,,,,,,,,,,265.64599995230674,,response,,,,4,D,,,,,,Space,keypress(Space),,,,silence,,,,----- -- ---- --- -- --- -------- ------------ ---------- --<br>- writing ------ --------- -- ------------ -- --- ---- -----<br>------ ---- ---- ------ ------ ------- --- ----- ---------<br>---- --- -------- -------- --- --- -- ------- --- --- -----<br>-- --- ------ ------- --- --- -------- ---- --------- --<br>---------- -- -------- ----------------,220162.19999992847,220161.79999995232,219879.385,219885.59999990463,219896.154,220162.687,,11,writing
screen,html.Screen,2_3_1_0_1_12,2022-02-01T13:30:12.239Z,,,,,,,,,,,,,,,,,11,,,,,,,,,,,,,,226.11299995231093,,response,,,,4,D,,,,,,Space,keypress(Space),,,,silence,,,,----- -- ---- --- -- --- -------- ------------ ---------- --<br>- ------- system --------- -- ------------ -- --- ---- -----<br>------ ---- ---- ------ ------ ------- --- ----- ---------<br>---- --- -------- -------- --- --- -- ------- --- --- -----<br>-- --- ------ ------- --- --- -------- ---- --------- --<br>---------- -- -------- ----------------,220389.19999992847,220388.79999995232,220146.134,220162.29999995232,220162.687,220396.155,,12,system
screen,html.Screen,2_3_1_0_1_13,2022-02-01T13:30:12.494Z,,,,,,,,,,,,,,,,,11,,,,,,,,,,,,,,247.7449999761593,,response,,,,4,D,,,,,,Space,keypress(Space),,,,silence,,,,----- -- ---- --- -- --- -------- ------------ ---------- --<br>- ------- ------ comprised -- ------------ -- --- ---- -----<br>------ ---- ---- ------ ------ ------- --- ----- ---------<br>---- --- -------- -------- --- --- -- ------- --- --- -----<br>-- --- ------ ------- --- --- -------- ---- --------- --<br>---------- -- -------- ----------------,220644.29999995232,220643.89999997616,220379.482,220389.29999995232,220396.155,220646.083,,13,comprised
screen,html.Screen,2_3_1_0_1_14,2022-02-01T13:30:12.745Z,,,,,,,,,,,,,,,,,11,,,,,,,,,,,,,,248.81699997614487,,response,,,,4,D,,,,,,Space,keypress(Space),,,,silence,,,,----- -- ---- --- -- --- -------- ------------ ---------- --<br>- ------- ------ --------- of ------------ -- --- ---- -----<br>------ ---- ---- ------ ------ ------- --- ----- ---------<br>---- --- -------- -------- --- --- -- ------- --- --- -----<br>-- --- ------ ------- --- --- -------- ---- --------- --<br>---------- -- -------- ----------------,220895.5,220894.89999997616,220629.466,220644.39999997616,220646.083,220896.031,,14,of
screen,html.Screen,2_3_1_0_1_15,2022-02-01T13:30:12.984Z,,,,,,,,,,,,,,,,,11,,,,,,,,,,,,,,237.6689999284863,,response,,,,4,D,,,,,,Space,keypress(Space),,,,silence,,,,----- -- ---- --- -- --- -------- ------------ ---------- --<br>- ------- ------ --------- -- pictographs. -- --- ---- -----<br>------ ---- ---- ------ ------ ------- --- ----- ---------<br>---- --- -------- -------- --- --- -- ------- --- --- -----<br>-- --- ------ ------- --- --- -------- ---- --------- --<br>---------- -- -------- ----------------,221134.09999990463,221133.69999992847,220879.392,220895.69999992847,220896.031,221146.132,,15,pictographs.
screen,html.Screen,2_3_1_0_1_16,2022-02-01T13:30:13.248Z,,,,,,,,,,,,,,,,,11,,,,,,,,,,,,,,251.7679999761458,,response,,,,4,D,,,,,,Space,keypress(Space),,,,silence,,,,----- -- ---- --- -- --- -------- ------------ ---------- --<br>- ------- ------ --------- -- ------------ It --- ---- -----<br>------ ---- ---- ------ ------ ------- --- ----- ---------<br>---- --- -------- -------- --- --- -- ------- --- --- -----<br>-- --- ------ ------- --- --- -------- ---- --------- --<br>---------- -- -------- ----------------,221398.29999995232,221397.89999997616,221129.461,221134.19999992847,221146.132,221412.808,,16,It
screen,html.Screen,2_3_1_0_1_17,2022-02-01T13:30:13.508Z,,,,,,,,,,,,,,,,,11,,,,,,,,,,,,,,244.89199992848444,,response,,,,4,D,,,,,,Space,keypress(Space),,,,silence,,,,----- -- ---- --- -- --- -------- ------------ ---------- --<br>- ------- ------ --------- -- ------------ -- has ---- -----<br>------ ---- ---- ------ ------ ------- --- ----- ---------<br>---- --- -------- -------- --- --- -- ------- --- --- -----<br>-- --- ------ ------- --- --- -------- ---- --------- --<br>---------- -- -------- ----------------,221658.19999992847,221657.69999992847,221396.021,221398.39999997616,221412.808,221662.705,,17,has
screen,html.Screen,2_3_1_0_1_18,2022-02-01T13:30:13.724Z,,,,,,,,,,,,,,,,,11,,,,,,,,,,,,,,211.39499990464537,,response,,,,4,D,,,,,,Space,keypress(Space),,,,silence,,,,----- -- ---- --- -- --- -------- ------------ ---------- --<br>- ------- ------ --------- -- ------------ -- --- been -----<br>------ ---- ---- ------ ------ ------- --- ----- ---------<br>---- --- -------- -------- --- --- -- ------- --- --- -----<br>-- --- ------ ------- --- --- -------- ---- --------- --<br>---------- -- -------- ----------------,221874.59999990463,221874.09999990463,221646.125,221658.19999992847,221662.705,221879.457,,18,been
screen,html.Screen,2_3_1_0_1_19,2022-02-01T13:30:13.962Z,,,,,,,,,,,,,,,,,11,,,,,,,,,,,,,,232.74299992847955,,response,,,,4,D,,,,,,Space,keypress(Space),,,,silence,,,,----- -- ---- --- -- --- -------- ------------ ---------- --<br>- ------- ------ --------- -- ------------ -- --- ---- found<br>------ ---- ---- ------ ------ ------- --- ----- ---------<br>---- --- -------- -------- --- --- -- ------- --- --- -----<br>-- --- ------ ------- --- --- -------- ---- --------- --<br>---------- -- -------- ----------------,222112.69999992847,222112.19999992847,221862.68,221874.69999992847,221879.457,222129.45,,19,found
screen,html.Screen,2_3_1_0_1_20,2022-02-01T13:30:14.195Z,,,,,,,,,,,,,,,,,11,,,,,,,,,,,,,,215.04999999998836,,response,,,,4,D,,,,,,Space,keypress(Space),,,,silence,,,,----- -- ---- --- -- --- -------- ------------ ---------- --<br>- ------- ------ --------- -- ------------ -- --- ---- -----<br>carved ---- ---- ------ ------ ------- --- ----- ---------<br>---- --- -------- -------- --- --- -- ------- --- --- -----<br>-- --- ------ ------- --- --- -------- ---- --------- --<br>---------- -- -------- ----------------,222345,222344.5,222112.686,222112.89999997616,222129.45,222346.034,,20,carved
screen,html.Screen,2_3_1_0_1_21,2022-02-01T13:30:14.410Z,,,,,,,,,,,,,,,,,11,,,,,,,,,,,,,,213.4659999999858,,response,,,,4,D,,,,,,Space,keypress(Space),,,,silence,,,,----- -- ---- --- -- --- -------- ------------ ---------- --<br>- ------- ------ --------- -- ------------ -- --- ---- -----<br>------ into ---- ------ ------ ------- --- ----- ---------<br>---- --- -------- -------- --- --- -- ------- --- --- -----<br>-- --- ------ ------- --- --- -------- ---- --------- --<br>---------- -- -------- ----------------,222559.89999997616,222559.5,222329.431,222345.09999990463,222346.034,222562.662,,21,into
screen,html.Screen,2_3_1_0_1_22,2022-02-01T13:30:14.644Z,,,,,,,,,,,,,,,,,11,,,,,,,,,,,,,,230.83799999998882,,response,,,,4,D,,,,,,Space,keypress(Space),,,,silence,,,,----- -- ---- --- -- --- -------- ------------ ---------- --<br>- ------- ------ --------- -- ------------ -- --- ---- -----<br>------ ---- many ------ ------ ------- --- ----- ---------<br>---- --- -------- -------- --- --- -- ------- --- --- -----<br>-- --- ------ ------- --- --- -------- ---- --------- --<br>---------- -- -------- ----------------,222793.89999997616,222793.5,222546.102,222560,222562.662,222796.001,,22,many
screen,html.Screen,2_3_1_0_1_23,2022-02-01T13:30:14.897Z,,,,,,,,,,,,,,,,,11,,,,,,,,,,,,,,250.9990000000107,,response,,,,4,D,,,,,,Space,keypress(Space),,,,silence,,,,----- -- ---- --- -- --- -------- ------------ ---------- --<br>- ------- ------ --------- -- ------------ -- --- ---- -----<br>------ ---- ---- oblong ------ ------- --- ----- ---------<br>---- --- -------- -------- --- --- -- ------- --- --- -----<br>-- --- ------ ------- --- --- -------- ---- --------- --<br>---------- -- -------- ----------------,223047.5,223047,222779.426,222793.89999997616,222796.001,223062.741,,23,oblong
screen,html.Screen,2_3_1_0_1_24,2022-02-01T13:30:15.131Z,,,,,,,,,,,,,,,,,11,,,,,,,,,,,,,,218.25899999999092,,response,,,,4,D,,,,,,Space,keypress(Space),,,,silence,,,,----- -- ---- --- -- --- -------- ------------ ---------- --<br>- ------- ------ --------- -- ------------ -- --- ---- -----<br>------ ---- ---- ------ wooden ------- --- ----- ---------<br>---- --- -------- -------- --- --- -- ------- --- --- -----<br>-- --- ------ ------- --- --- -------- ---- --------- --<br>---------- -- -------- ----------------,223281.59999990463,223281,223046.022,223047.59999990463,223062.741,223296.026,,24,wooden
screen,html.Screen,2_3_1_0_1_25,2022-02-01T13:30:15.354Z,,,,,,,,,,,,,,,,,11,,,,,,,,,,,,,,207.57399990462,,response,,,,4,D,,,,,,Space,keypress(Space),,,,silence,,,,----- -- ---- --- -- --- -------- ------------ ---------- --<br>- ------- ------ --------- -- ------------ -- --- ---- -----<br>------ ---- ---- ------ ------ tablets --- ----- ---------<br>---- --- -------- -------- --- --- -- ------- --- --- -----<br>-- --- ------ ------- --- --- -------- ---- --------- --<br>---------- -- -------- ----------------,223504.09999990463,223503.59999990463,223279.423,223281.69999992847,223296.026,223512.777,,25,tablets
screen,html.Screen,2_3_1_0_1_26,2022-02-01T13:30:15.626Z,,,,,,,,,,,,,,,,,11,,,,,,,,,,,,,,263.0229999523144,,response,,,,4,D,,,,,,Space,keypress(Space),,,,silence,,,,----- -- ---- --- -- --- -------- ------------ ---------- --<br>- ------- ------ --------- -- ------------ -- --- ---- -----<br>------ ---- ---- ------ ------ ------- and ----- ---------<br>---- --- -------- -------- --- --- -- ------- --- --- -----<br>-- --- ------ ------- --- --- -------- ---- --------- --<br>---------- -- -------- ----------------,223776.29999995232,223775.79999995232,223496.135,223504.19999992847,223512.777,223779.445,,26,and
screen,html.Screen,2_3_1_0_1_27,2022-02-01T13:30:15.858Z,,,,,,,,,,,,,,,,,11,,,,,,,,,,,,,,228.05499999999302,,response,,,,4,D,,,,,,Space,keypress(Space),,,,silence,,,,----- -- ---- --- -- --- -------- ------------ ---------- --<br>- ------- ------ --------- -- ------------ -- --- ---- -----<br>------ ---- ---- ------ ------ ------- --- other ---------<br>---- --- -------- -------- --- --- -- ------- --- --- -----<br>-- --- ------ ------- --- --- -------- ---- --------- --<br>---------- -- -------- ----------------,224008,224007.5,223762.698,223776.29999995232,223779.445,224012.663,,27,other
screen,html.Screen,2_3_1_0_1_28,2022-02-01T13:30:16.108Z,,,,,,,,,,,,,,,,,11,,,,,,,,,,,,,,245.13699995231582,,response,,,,4,D,,,,,,Space,keypress(Space),,,,silence,,,,----- -- ---- --- -- --- -------- ------------ ---------- --<br>- ------- ------ --------- -- ------------ -- --- ---- -----<br>------ ---- ---- ------ ------ ------- --- ----- artifacts<br>---- --- -------- -------- --- --- -- ------- --- --- -----<br>-- --- ------ ------- --- --- -------- ---- --------- --<br>---------- -- -------- ----------------,224258.19999992847,224257.79999995232,223996.101,224008.09999990463,224012.663,224262.671,,28,artifacts
screen,html.Screen,2_3_1_0_1_29,2022-02-01T13:30:16.351Z,,,,,,,,,,,,,,,,,11,,,,,,,,,,,,,,237.72899997615605,,response,,,,4,D,,,,,,Space,keypress(Space),,,,silence,,,,----- -- ---- --- -- --- -------- ------------ ---------- --<br>- ------- ------ --------- -- ------------ -- --- ---- -----<br>------ ---- ---- ------ ------ ------- --- ----- ---------<br>from --- -------- -------- --- --- -- ------- --- --- -----<br>-- --- ------ ------- --- --- -------- ---- --------- --<br>---------- -- -------- ----------------,224500.79999995232,224500.39999997616,224246.022,224258.29999995232,224262.671,224512.777,,29,from
screen,html.Screen,2_3_1_0_1_30,2022-02-01T13:30:16.610Z,,,,,,,,,,,,,,,,,11,,,,,,,,,,,,,,247.22299999999814,,response,,,,4,D,,,,,,Space,keypress(Space),,,,silence,,,,----- -- ---- --- -- --- -------- ------------ ---------- --<br>- ------- ------ --------- -- ------------ -- --- ---- -----<br>------ ---- ---- ------ ------ ------- --- ----- ---------<br>---- the -------- -------- --- --- -- ------- --- --- -----<br>-- --- ------ ------- --- --- -------- ---- --------- --<br>---------- -- -------- ----------------,224760.29999995232,224760,224496.074,224500.89999997616,224512.777,224762.703,,30,the
screen,html.Screen,2_3_1_0_1_31,2022-02-01T13:30:16.818Z,,,,,,,,,,,,,,,,,11,,,,,,,,,,,,,,205.09699995230767,,response,,,,4,D,,,,,,Space,keypress(Space),,,,silence,,,,----- -- ---- --- -- --- -------- ------------ ---------- --<br>- ------- ------ --------- -- ------------ -- --- ---- -----<br>------ ---- ---- ------ ------ ------- --- ----- ---------<br>---- --- island's -------- --- --- -- ------- --- --- -----<br>-- --- ------ ------- --- --- -------- ---- --------- --<br>---------- -- -------- ----------------,224968.09999990463,224967.79999995232,224746.091,224760.39999997616,224762.703,224979.439,,31,island's
screen,html.Screen,2_3_1_0_1_32,2022-02-01T13:30:17.047Z,,,,,,,,,,,,,,,,,11,,,,,,,,,,,,,,217.2609999284614,,response,,,,4,D,,,,,,Space,keypress(Space),,,,silence,,,,----- -- ---- --- -- --- -------- ------------ ---------- --<br>- ------- ------ --------- -- ------------ -- --- ---- -----<br>------ ---- ---- ------ ------ ------- --- ----- ---------<br>---- --- -------- history. --- --- -- ------- --- --- -----<br>-- --- ------ ------- --- --- -------- ---- --------- --<br>---------- -- -------- ----------------,225197.19999992847,225196.69999992847,224962.698,224968.29999995232,224979.439,225212.698,,32,history.
screen,html.Screen,2_3_1_0_1_33,2022-02-01T13:30:17.285Z,,,,,,,,,,,,,,,,,11,,,,,,,,,,,,,,222.30199999999604,,response,,,,4,D,,,,,,Space,keypress(Space),,,,silence,,,,----- -- ---- --- -- --- -------- ------------ ---------- --<br>- ------- ------ --------- -- ------------ -- --- ---- -----<br>------ ---- ---- ------ ------ ------- --- ----- ---------<br>---- --- -------- -------- The --- -- ------- --- --- -----<br>-- --- ------ ------- --- --- -------- ---- --------- --<br>---------- -- -------- ----------------,225435.5,225435,225196.016,225197.39999997616,225212.698,225445.988,,33,The
screen,html.Screen,2_3_1_0_1_34,2022-02-01T13:30:17.528Z,,,,,,,,,,,,,,,,,11,,,,,,,,,,,,,,231.5119999999879,,response,,,,4,D,,,,,,Space,keypress(Space),,,,silence,,,,----- -- ---- --- -- --- -------- ------------ ---------- --<br>- ------- ------ --------- -- ------------ -- --- ---- -----<br>------ ---- ---- ------ ------ ------- --- ----- ---------<br>---- --- -------- -------- --- art -- ------- --- --- -----<br>-- --- ------ ------- --- --- -------- ---- --------- --<br>---------- -- -------- ----------------,225677.89999997616,225677.5,225429.403,225435.5,225445.988,225679.298,,34,art
screen,html.Screen,2_3_1_0_1_35,2022-02-01T13:30:17.748Z,,,,,,,,,,,,,,,,,11,,,,,,,,,,,,,,218.70199999999022,,response,,,,4,D,,,,,,Space,keypress(Space),,,,silence,,,,----- -- ---- --- -- --- -------- ------------ ---------- --<br>- ------- ------ --------- -- ------------ -- --- ---- -----<br>------ ---- ---- ------ ------ ------- --- ----- ---------<br>---- --- -------- -------- --- --- of ------- --- --- -----<br>-- --- ------ ------- --- --- -------- ---- --------- --<br>---------- -- -------- ----------------,225898.59999990463,225898,225662.677,225677.89999997616,225679.298,225912.761,,35,of
screen,html.Screen,2_3_1_0_1_36,2022-02-01T13:30:17.974Z,,,,,,,,,,,,,,,,,11,,,,,,,,,,,,,,211.2390000000014,,response,,,,4,D,,,,,,Space,keypress(Space),,,,silence,,,,----- -- ---- --- -- --- -------- ------------ ---------- --<br>- ------- ------ --------- -- ------------ -- --- ---- -----<br>------ ---- ---- ------ ------ ------- --- ----- ---------<br>---- --- -------- -------- --- --- -- writing --- --- -----<br>-- --- ------ ------- --- --- -------- ---- --------- --<br>---------- -- -------- ----------------,226124.59999990463,226124,225896.082,225898.69999992847,225912.761,226129.409,,36,writing
screen,html.Screen,2_3_1_0_1_37,2022-02-01T13:30:18.227Z,,,,,,,,,,,,,,,,,11,,,,,,,,,,,,,,247.29099992846022,,response,,,,4,D,,,,,,Space,keypress(Space),,,,silence,,,,----- -- ---- --- -- --- -------- ------------ ---------- --<br>- ------- ------ --------- -- ------------ -- --- ---- -----<br>------ ---- ---- ------ ------ ------- --- ----- ---------<br>---- --- -------- -------- --- --- -- ------- was --- -----<br>-- --- ------ ------- --- --- -------- ---- --------- --<br>---------- -- -------- ----------------,226377.19999992847,226376.69999992847,226112.728,226124.59999990463,226129.409,226379.292,,37,was
screen,html.Screen,2_3_1_0_1_38,2022-02-01T13:30:18.482Z,,,,,,,,,,,,,,,,,11,,,,,,,,,,,,,,252.70800000001327,,response,,,,4,D,,,,,,Space,keypress(Space),,,,silence,,,,----- -- ---- --- -- --- -------- ------------ ---------- --<br>- ------- ------ --------- -- ------------ -- --- ---- -----<br>------ ---- ---- ------ ------ ------- --- ----- ---------<br>---- --- -------- -------- --- --- -- ------- --- not -----<br>-- --- ------ ------- --- --- -------- ---- --------- --<br>---------- -- -------- ----------------,226632.5,226632,226362.655,226377.19999992847,226379.292,226646.033,,38,not
screen,html.Screen,2_3_1_0_1_39,2022-02-01T13:30:18.722Z,,,,,,,,,,,,,,,,,11,,,,,,,,,,,,,,226.16699992847862,,response,,,,4,D,,,,,,Space,keypress(Space),,,,silence,,,,----- -- ---- --- -- --- -------- ------------ ---------- --<br>- ------- ------ --------- -- ------------ -- --- ---- -----<br>------ ---- ---- ------ ------ ------- --- ----- ---------<br>---- --- -------- -------- --- --- -- ------- --- --- known<br>-- --- ------ ------- --- --- -------- ---- --------- --<br>---------- -- -------- ----------------,226872.69999992847,226872.19999992847,226629.338,226632.59999990463,226646.033,226879.417,,39,known
