sender,sender_type,sender_id,timestamp,meta,,Blues,Classical,Country,Dance,Electronic,Folk,Gospel,Hip-Hop,Jazz,Latin,Musical/Film,New-age,Pop,Prolific_id,Provo_ID,R&B,Rap,Reggae,Religious,Rock,Soul,Swing,Traditional,age,artist_name,correct,correctResponse,distraction,duration,education,ended_on,familiarity,gender,headphone_check_performance,item,list,music_frequency,offensiveness,pleasantness,position_correct,preference,response,response_action,snippet_file,song_name,song_rating,sound,stimulus_1,stimulus_2,stimulus_3,text,time_commit,time_end,time_render,time_run,time_show,time_switch,url,word,word_ID
Prolific ID,html.Form,0,2022-02-21T10:46:46.976Z,"{""labjs_version"":""20.2.2"",""labjs_build"":{""flavor"":""production"",""commit"":""a25486e0c714a0ae2ce03ff94b7bb6896854dcfa""},""location"":""https://run.pavlovia.org/mvasilev/prolific2_music_b/"",""userAgent"":""Mozilla/5.0 (Windows NT 10.0; Win64; x64) AppleWebKit/537.36 (KHTML, like Gecko) Chrome/98.0.4758.80 Safari/537.36 Edg/98.0.1108.50"",""platform"":""Win32"",""language"":""en-US"",""locale"":""en-US"",""timeZone"":""Europe/London"",""timezoneOffset"":0,""screen_width"":1280,""screen_height"":720,""scroll_width"":1706,""scroll_height"":753,""window_innerWidth"":1706,""window_innerHeight"":801,""devicePixelRatio"":0.75}",,,,,,,,,,,,,,,56a930c711926500056e6eed,,,,,,,,,,,,,,,6104.042000047684,,form submission,,,,,,,,,,,,,,,,,,,,,32641.100000023842,32639.200000047684,26479.241,26493.300000071526,26535.158,32668.078,{},,
Introduction,html.Screen,1_0,2022-02-21T10:46:51.784Z,,,,,,,,,,,,,,,,,,,,,,,,,,,,,,,4771.122000047682,,response,,,,,,,,,,,continue,click button,,,,,,,,,37448.40000009537,37439.200000047684,32618.122,32642.900000095367,32668.078,37484.599,,,
Volume calibration,html.Screen,1_1,2022-02-21T10:47:21.665Z,,,,,,,,,,,,,,,,,,,,,,,,,,,,,,,29833.301000095365,,response,,,,,,,,,,,continue,click button,,,,,,,,,67332.10000002384,67317.90000009537,37434.693,37448.90000009537,37484.599,67333.2,,,
Task instructions,html.Screen,1_2,2022-02-21T10:48:26.643Z,,,,,,,,,,,,,,,,,,,,,,,,,,,,,,,64979.00000004769,,response,,,,,,,,,,,continue,click button,,,,,,,,,132316.10000002384,132312.20000004768,67316.572,67332.80000007153,67333.2,132330.222,,,
Sounds,html.Screen,1_3_0_0,2022-02-21T10:48:30.898Z,,,,,,,,,,,,,,,,,,,,,,,,,,,,,,,4249.861000000004,,timeout,,,,,,,,,1,,,,,,,,S,I,O,,136571.90000009537,136563.46,132313.564,132317.5,132330.222,136580.083,,,
Judgement,html.Screen,1_3_0_1,2022-02-21T10:48:32.447Z,,,,,,,,,,,,,,,,,,,,,,,,,,,,true,1,,1537.0170000238286,,response,,,,,,,,,1,,1,click #choice-1,,,,,S,I,O,,138121,138117.10000002384,136563.46,136572.5,136580.083,138130.625,,,
Trial,flow.Sequence,1_3_0,2022-02-21T10:48:32.448Z,,,,,,,,,,,,,,,,,,,,,,,,,,,,,,,5786.878000023833,,completion,,,,,,,,,1,,,,,,,,S,I,O,,138121.90000009537,138117.10000002384,132313.564,132317.30000007153,132330.222,138130.625,,,
Sounds,html.Screen,1_3_1_0,2022-02-21T10:48:36.692Z,,,,,,,,,,,,,,,,,,,,,,,,,,,,,,,4249.516999999993,,timeout,,,,,,,,,1,,,,,,,,S,O,I,,142365.5,142363.2,138113.432,138123,138130.625,142380.142,,,
Judgement,html.Screen,1_3_1_1,2022-02-21T10:48:37.329Z,,,,,,,,,,,,,,,,,,,,,,,,,,,,true,1,,616.9580000238493,,response,,,,,,,,,1,,1,click #choice-1,,,,,S,O,I,,143002.5,142997.10000002384,142363.2,142365.90000009537,142380.142,143016.98,,,
Trial,flow.Sequence,1_3_1,2022-02-21T10:48:37.330Z,,,,,,,,,,,,,,,,,,,,,,,,,,,,,,,4866.475000023842,,completion,,,,,,,,,1,,,,,,,,S,O,I,,143003.40000009537,142997.10000002384,138113.432,138122.40000009537,138130.625,143016.98,,,
Sounds,html.Screen,1_3_2_0,2022-02-21T10:48:41.575Z,,,,,,,,,,,,,,,,,,,,,,,,,,,,,,,4246.28899999999,,timeout,,,,,,,,,3,,,,,,,,I,O,S,,147248.70000004768,147246.299,142996.56,143004,143016.98,147263.269,,,
Judgement,html.Screen,1_3_2_1,2022-02-21T10:48:42.608Z,,,,,,,,,,,,,,,,,,,,,,,,,,,,true,3,,1013.9310000476835,,response,,,,,,,,,3,,3,click #choice-3,,,,,I,O,S,,148281.80000007153,148277.20000004768,147246.299,147249.20000004768,147263.269,148312.932,,,
Trial,flow.Sequence,1_3_2,2022-02-21T10:48:42.610Z,,,,,,,,,,,,,,,,,,,,,,,,,,,,,,,5260.220000047673,,completion,,,,,,,,,3,,,,,,,,I,O,S,,148283.40000009537,148277.20000004768,142996.56,143003.80000007153,143016.98,148312.932,,,
Sounds,html.Screen,1_3_3_0,2022-02-21T10:48:46.875Z,,,,,,,,,,,,,,,,,,,,,,,,,,,,,,,4249.695999999996,,timeout,,,,,,,,,2,,,,,,,,O,S,I,,152548.20000004768,152545.957,148296.258,148284.10000002384,148312.932,152562.628,,,
Judgement,html.Screen,1_3_3_1,2022-02-21T10:48:47.590Z,,,,,,,,,,,,,,,,,,,,,,,,,,,,true,2,,696.2720000953705,,response,,,,,,,,,2,,2,click #choice-2,,,,,O,S,I,,153263.60000002384,153258.90000009537,152545.957,152548.60000002384,152562.628,153262.563,,,
Trial,flow.Sequence,1_3_3,2022-02-21T10:48:47.591Z,,,,,,,,,,,,,,,,,,,,,,,,,,,,,,,4945.968000095367,,completion,,,,,,,,,2,,,,,,,,O,S,I,,153264.40000009537,153258.90000009537,148296.258,148283.90000009537,148312.932,153262.563,,,
Sounds,html.Screen,1_3_4_0,2022-02-21T10:48:51.824Z,,,,,,,,,,,,,,,,,,,,,,,,,,,,,,,4249.777000000002,,timeout,,,,,,,,,3,,,,,,,,O,I,S,,157498,157495.833,153245.969,153264.90000009537,153262.563,157512.34,,,
Judgement,html.Screen,1_3_4_1,2022-02-21T10:48:52.567Z,,,,,,,,,,,,,,,,,,,,,,,,,,,,true,3,,724.6600000000035,,response,,,,,,,,,3,,3,click #choice-3,,,,,O,I,S,,158240.60000002384,158237,157495.833,157498.40000009537,157512.34,158245.695,,,
Trial,flow.Sequence,1_3_4,2022-02-21T10:48:52.568Z,,,,,,,,,,,,,,,,,,,,,,,,,,,,,,,4974.437000000005,,completion,,,,,,,,,3,,,,,,,,O,I,S,,158241.20000004768,158237,153245.969,153264.70000004768,153262.563,158245.695,,,
Sounds,html.Screen,1_3_5_0,2022-02-21T10:48:56.808Z,,,,,,,,,,,,,,,,,,,,,,,,,,,,,,,4249.706999999995,,timeout,,,,,,,,,2,,,,,,,,I,S,O,,162481.40000009537,162478.979,158229.144,158241.80000007153,158245.695,162495.402,,,
Judgement,html.Screen,1_3_5_1,2022-02-21T10:48:57.478Z,,,,,,,,,,,,,,,,,,,,,,,,,,,,true,2,,651.3980000715237,,response,,,,,,,,,2,,2,click #choice-2,,,,,I,S,O,,163151.90000009537,163146.80000007153,162478.979,162481.80000007153,162495.402,163178.819,,,
Trial,flow.Sequence,1_3_5,2022-02-21T10:48:57.479Z,,,,,,,,,,,,,,,,,,,,,,,,,,,,,,,4901.105000071519,,completion,,,,,,,,,2,,,,,,,,I,S,O,,163152.60000002384,163146.80000007153,158229.144,158241.60000002384,158245.695,163178.819,,,
Task,flow.Loop,1_3,2022-02-21T10:48:57.499Z,,,,,,,,,,,,,,,,,,,,,,,,,,,,,,,30816.578000071517,,completion,,,1,,,,,,,,,,,,,,,,,,163172.30000007153,163146.80000007153,132313.564,132317.10000002384,132330.222,163178.819,,,
Trap,html.Screen,1_4,2022-02-21T10:48:57.503Z,,,,,,,,,,,,,,,,,,,,,,,,,,,,,,,NaN,,skipped,,,,,,,,,,,,,,,,,,,,,163176.80000007153,163146.80000007153,,163176.30000007153,,163178.819,,,
Thanks,html.Screen,1_5,2022-02-21T10:49:01.510Z,,,,,,,,,,,,,,,,,,,,,,,,,,,,,,,3998.481000071537,,response,,,,,,,,,,,continue,click button,,,,,,,,,167183.10000002384,167177.30000007153,163145.529,163177.20000004768,163178.819,173111.645,,,
Headphone screening,flow.Sequence,1,2022-02-21T10:49:01.510Z,,,,,,,,,,,,,,,,,,,,,,,,,,,,,,,134509.22200007152,,completion,,,,,,,,,,,,,,,,,,,,,167183.70000004768,167177.30000007153,32618.122,32642.800000071526,32668.078,173111.645,,,
Instructions,html.Page,2_0,2022-02-21T10:49:32.514Z,,,,,,,,,,,,,,,,,,,,,,,,,,,,,,,25085.955000023852,,form submission,,,,,,,,,,,,,,,,,,,,,198198.80000007153,198197.60000002384,173081.546,173107.30000007153,173111.645,198210.536,,,
Holding screen,html.Screen,2_1_0_0,2022-02-21T10:49:42.511Z,,,,,,,,,,,,,,,,,,,,,,,,,,,,,,,10049.532999999996,,timeout,,,,,,,,,,,,,,,,,,,,,208195.5,208193.507,198177.332,198199.5,198210.536,208260.069,,,
screen,html.Screen,2_1_0_1_0,2022-02-21T10:49:43.879Z,,,,,,,,,,,,,,,,,53,,,,,,,,,,,,,,1300.9310000000114,,response,,,,99,,,,,,,Space,keypress(Space),,,,,,,,When -- ----- -- ------ - ------- --- ----------<br>------------- ------ ------ ---- ---- ------- ----- -- ----<br>-------- ------- -- ---------- --- - --- ----- ----- ----<br>---- --- --- ----- --- ---- ---- ------- ----- ---- -------<br>--- --- -- ----- -- --- ---- -- --- ---- -- ------ ------<br>--- ----- -- ----,209570.30000007153,209561,208193.507,208196.30000007153,208260.069,209576.656,,0,When
screen,html.Screen,2_1_0_1_1,2022-02-21T10:49:44.323Z,,,,,,,,,,,,,,,,,53,,,,,,,,,,,,,,436.5440000476956,,response,,,,99,,,,,,,Space,keypress(Space),,,,,,,,---- it ----- -- ------ - ------- --- ----------<br>------------- ------ ------ ---- ---- ------- ----- -- ----<br>-------- ------- -- ---------- --- - --- ----- ----- ----<br>---- --- --- ----- --- ---- ---- ------- ----- ---- -------<br>--- --- -- ----- -- --- ---- -- --- ---- -- ------ ------<br>--- ----- -- ----,210015.10000002384,210013.20000004768,209560.346,209570.80000007153,209576.656,210026.69,,1,it
screen,html.Screen,2_1_0_1_2,2022-02-21T10:49:44.691Z,,,,,,,,,,,,,,,,,53,,,,,,,,,,,,,,354.5100000476814,,response,,,,99,,,,,,,Space,keypress(Space),,,,,,,,---- -- comes -- ------ - ------- --- ----------<br>------------- ------ ------ ---- ---- ------- ----- -- ----<br>-------- ------- -- ---------- --- - --- ----- ----- ----<br>---- --- --- ----- --- ---- ---- ------- ----- ---- -------<br>--- --- -- ----- -- --- ---- -- --- ---- -- ------ ------<br>--- ----- -- ----,210383,210381.20000004768,210010.167,210015.5,210026.69,210393.355,,2,comes
screen,html.Screen,2_1_0_1_3,2022-02-21T10:49:45.058Z,,,,,,,,,,,,,,,,,53,,,,,,,,,,,,,,354.4450000715151,,response,,,,99,,,,,,,Space,keypress(Space),,,,,,,,---- -- ----- to ------ - ------- --- ----------<br>------------- ------ ------ ---- ---- ------- ----- -- ----<br>-------- ------- -- ---------- --- - --- ----- ----- ----<br>---- --- --- ----- --- ---- ---- ------- ----- ---- -------<br>--- --- -- ----- -- --- ---- -- --- ---- -- ------ ------<br>--- ----- -- ----,210749.90000009537,210747.80000007153,210376.799,210383.40000009537,210393.355,210759.919,,3,to
screen,html.Screen,2_1_0_1_4,2022-02-21T10:49:45.473Z,,,,,,,,,,,,,,,,,53,,,,,,,,,,,,,,402.68100002384745,,response,,,,99,,,,,,,Space,keypress(Space),,,,,,,,---- -- ----- -- having - ------- --- ----------<br>------------- ------ ------ ---- ---- ------- ----- -- ----<br>-------- ------- -- ---------- --- - --- ----- ----- ----<br>---- --- --- ----- --- ---- ---- ------- ----- ---- -------<br>--- --- -- ----- -- --- ---- -- --- ---- -- ------ ------<br>--- ----- -- ----,211164.5,211162.60000002384,210743.453,210750.5,210759.919,211176.542,,4,having
screen,html.Screen,2_1_0_1_5,2022-02-21T10:49:45.903Z,,,,,,,,,,,,,,,,,53,,,,,,,,,,,,,,416.75800007153885,,response,,,,99,,,,,,,Space,keypress(Space),,,,,,,,---- -- ----- -- ------ a ------- --- ----------<br>------------- ------ ------ ---- ---- ------- ----- -- ----<br>-------- ------- -- ---------- --- - --- ----- ----- ----<br>---- --- --- ----- --- ---- ---- ------- ----- ---- -------<br>--- --- -- ----- -- --- ---- -- --- ---- -- ------ ------<br>--- ----- -- ----,211595.10000002384,211593.30000007153,211160.108,211165,211176.542,211609.896,,5,a
screen,html.Screen,2_1_0_1_6,2022-02-21T10:49:46.308Z,,,,,,,,,,,,,,,,,53,,,,,,,,,,,,,,387.5040000953595,,response,,,,99,,,,,,,Space,keypress(Space),,,,,,,,---- -- ----- -- ------ - lasting --- ----------<br>------------- ------ ------ ---- ---- ------- ----- -- ----<br>-------- ------- -- ---------- --- - --- ----- ----- ----<br>---- --- --- ----- --- ---- ---- ------- ----- ---- -------<br>--- --- -- ----- -- --- ---- -- --- ---- -- ------ ------<br>--- ----- -- ----,211999.30000007153,211997.40000009537,211593.425,211595.5,211609.896,212009.876,,6,lasting
screen,html.Screen,2_1_0_1_7,2022-02-21T10:49:46.765Z,,,,,,,,,,,,,,,,,53,,,,,,,,,,,,,,445.4240000715363,,response,,,,99,,,,,,,Space,keypress(Space),,,,,,,,---- -- ----- -- ------ - ------- and ----------<br>------------- ------ ------ ---- ---- ------- ----- -- ----<br>-------- ------- -- ---------- --- - --- ----- ----- ----<br>---- --- --- ----- --- ---- ---- ------- ----- ---- -------<br>--- --- -- ----- -- --- ---- -- --- ---- -- ------ ------<br>--- ----- -- ----,212457.10000002384,212455.30000007153,211993.402,211999.80000007153,212009.876,212477.907,,7,and
screen,html.Screen,2_1_0_1_8,2022-02-21T10:49:47.465Z,,,,,,,,,,,,,,,,,53,,,,,,,,,,,,,,676.893000071519,,response,,,,99,,,,,,,Space,keypress(Space),,,,,,,,---- -- ----- -- ------ - ------- --- fulfilling<br>------------- ------ ------ ---- ---- ------- ----- -- ----<br>-------- ------- -- ---------- --- - --- ----- ----- ----<br>---- --- --- ----- --- ---- ---- ------- ----- ---- -------<br>--- --- -- ----- -- --- ---- -- --- ---- -- ------ ------<br>--- ----- -- ----,213157.10000002384,213154.80000007153,212443.386,212457.5,212477.907,213176.617,,8,fulfilling
screen,html.Screen,2_1_0_1_9,2022-02-21T10:49:47.867Z,,,,,,,,,,,,,,,,,53,,,,,,,,,,,,,,380.4830000238435,,response,,,,99,,,,,,,Space,keypress(Space),,,,,,,,"---- -- ----- -- ------ - ------- --- ----------<br>relationship, ------ ------ ---- ---- ------- ----- -- ----<br>-------- ------- -- ---------- --- - --- ----- ----- ----<br>---- --- --- ----- --- ---- ---- ------- ----- ---- -------<br>--- --- -- ----- -- --- ---- -- --- ---- -- ------ ------<br>--- ----- -- ----",213559,213557.10000002384,213143.498,213157.5,213176.617,213576.449,,9,"relationship,"
screen,html.Screen,2_1_0_1_10,2022-02-21T10:49:48.270Z,,,,,,,,,,,,,,,,,53,,,,,,,,,,,,,,383.8510000715323,,response,,,,99,,,,,,,Space,keypress(Space),,,,,,,,---- -- ----- -- ------ - ------- --- ----------<br>------------- common ------ ---- ---- ------- ----- -- ----<br>-------- ------- -- ---------- --- - --- ----- ----- ----<br>---- --- --- ----- --- ---- ---- ------- ----- ---- -------<br>--- --- -- ----- -- --- ---- -- --- ---- -- ------ ------<br>--- ----- -- ----,213962.10000002384,213960.30000007153,213559.874,213559.40000009537,213576.449,213976.473,,10,common
screen,html.Screen,2_1_0_1_11,2022-02-21T10:49:48.597Z,,,,,,,,,,,,,,,,,53,,,,,,,,,,,,,,310.6270000238437,,response,,,,99,,,,,,,Space,keypress(Space),,,,,,,,---- -- ----- -- ------ - ------- --- ----------<br>------------- ------ wisdom ---- ---- ------- ----- -- ----<br>-------- ------- -- ---------- --- - --- ----- ----- ----<br>---- --- --- ----- --- ---- ---- ------- ----- ---- -------<br>--- --- -- ----- -- --- ---- -- --- ---- -- ------ ------<br>--- ----- -- ----,214289,214287.10000002384,213959.857,213962.70000004768,213976.473,214293.77,,11,wisdom
screen,html.Screen,2_1_0_1_12,2022-02-21T10:49:48.998Z,,,,,,,,,,,,,,,,,53,,,,,,,,,,,,,,393.4300000476942,,response,,,,99,,,,,,,Space,keypress(Space),,,,,,,,---- -- ----- -- ------ - ------- --- ----------<br>------------- ------ ------ says ---- ------- ----- -- ----<br>-------- ------- -- ---------- --- - --- ----- ----- ----<br>---- --- --- ----- --- ---- ---- ------- ----- ---- -------<br>--- --- -- ----- -- --- ---- -- --- ---- -- ------ ------<br>--- ----- -- ----,214689.20000004768,214687.20000004768,214276.612,214289.30000007153,214293.77,214693.078,,12,says
screen,html.Screen,2_1_0_1_13,2022-02-21T10:49:49.330Z,,,,,,,,,,,,,,,,,53,,,,,,,,,,,,,,327.1220000476751,,response,,,,99,,,,,,,Space,keypress(Space),,,,,,,,---- -- ----- -- ------ - ------- --- ----------<br>------------- ------ ------ ---- that ------- ----- -- ----<br>-------- ------- -- ---------- --- - --- ----- ----- ----<br>---- --- --- ----- --- ---- ---- ------- ----- ---- -------<br>--- --- -- ----- -- --- ---- -- --- ---- -- ------ ------<br>--- ----- -- ----,215022,215020.20000004768,214676.61,214689.60000002384,214693.078,215026.42,,13,that
screen,html.Screen,2_1_0_1_14,2022-02-21T10:49:49.652Z,,,,,,,,,,,,,,,,,53,,,,,,,,,,,,,,315.2800000476709,,response,,,,99,,,,,,,Space,keypress(Space),,,,,,,,---- -- ----- -- ------ - ------- --- ----------<br>------------- ------ ------ ---- ---- feeling ----- -- ----<br>-------- ------- -- ---------- --- - --- ----- ----- ----<br>---- --- --- ----- --- ---- ---- ------- ----- ---- -------<br>--- --- -- ----- -- --- ---- -- --- ---- -- ------ ------<br>--- ----- -- ----,215343.60000002384,215341.70000004768,215009.918,215022.40000009537,215026.42,215359.897,,14,feeling
screen,html.Screen,2_1_0_1_15,2022-02-21T10:49:50.006Z,,,,,,,,,,,,,,,,,53,,,,,,,,,,,,,,335.90300007152837,,response,,,,99,,,,,,,Space,keypress(Space),,,,,,,,---- -- ----- -- ------ - ------- --- ----------<br>------------- ------ ------ ---- ---- ------- close -- ----<br>-------- ------- -- ---------- --- - --- ----- ----- ----<br>---- --- --- ----- --- ---- ---- ------- ----- ---- -------<br>--- --- -- ----- -- --- ---- -- --- ---- -- ------ ------<br>--- ----- -- ----,215697.60000002384,215695.80000007153,215343.234,215343.90000009537,215359.897,215710.072,,15,close
screen,html.Screen,2_1_0_1_16,2022-02-21T10:49:50.272Z,,,,,,,,,,,,,,,,,53,,,,,,,,,,,,,,252.22800007154,,response,,,,99,,,,,,,Space,keypress(Space),,,,,,,,---- -- ----- -- ------ - ------- --- ----------<br>------------- ------ ------ ---- ---- ------- ----- to ----<br>-------- ------- -- ---------- --- - --- ----- ----- ----<br>---- --- --- ----- --- ---- ---- ------- ----- ---- -------<br>--- --- -- ----- -- --- ---- -- --- ---- -- ------ ------<br>--- ----- -- ----,215964.20000004768,215962.30000007153,215693.242,215697.90000009537,215710.072,215976.38,,16,to
screen,html.Screen,2_1_0_1_17,2022-02-21T10:49:50.615Z,,,,,,,,,,,,,,,,,53,,,,,,,,,,,,,,328.0200000953628,,response,,,,99,,,,,,,Space,keypress(Space),,,,,,,,---- -- ----- -- ------ - ------- --- ----------<br>------------- ------ ------ ---- ---- ------- ----- -- your<br>-------- ------- -- ---------- --- - --- ----- ----- ----<br>---- --- --- ----- --- ---- ---- ------- ----- ---- -------<br>--- --- -- ----- -- --- ---- -- --- ---- -- ------ ------<br>--- ----- -- ----,216306.20000004768,216304.40000009537,215959.785,215964.60000002384,215976.38,216309.669,,17,your
screen,html.Screen,2_1_0_1_18,2022-02-21T10:49:50.977Z,,,,,,,,,,,,,,,,,53,,,,,,,,,,,,,,356.8310000000056,,response,,,,99,,,,,,,Space,keypress(Space),,,,,,,,---- -- ----- -- ------ - ------- --- ----------<br>------------- ------ ------ ---- ---- ------- ----- -- ----<br>romantic ------- -- ---------- --- - --- ----- ----- ----<br>---- --- --- ----- --- ---- ---- ------- ----- ---- -------<br>--- --- -- ----- -- --- ---- -- --- ---- -- ------ ------<br>--- ----- -- ----,216668.40000009537,216666.5,216293.19,216306.60000002384,216309.669,216682.534,,18,romantic
screen,html.Screen,2_1_0_1_19,2022-02-21T10:49:51.319Z,,,,,,,,,,,,,,,,,53,,,,,,,,,,,,,,326.56600002382766,,response,,,,99,,,,,,,Space,keypress(Space),,,,,,,,---- -- ----- -- ------ - ------- --- ----------<br>------------- ------ ------ ---- ---- ------- ----- -- ----<br>-------- partner -- ---------- --- - --- ----- ----- ----<br>---- --- --- ----- --- ---- ---- ------- ----- ---- -------<br>--- --- -- ----- -- --- ---- -- --- ---- -- ------ ------<br>--- ----- -- ----,217011,217009.10000002384,216659.86,216668.70000004768,216682.534,217026.291,,19,partner
screen,html.Screen,2_1_0_1_20,2022-02-21T10:49:51.672Z,,,,,,,,,,,,,,,,,53,,,,,,,,,,,,,,335.20900000000256,,response,,,,99,,,,,,,Space,keypress(Space),,,,,,,,---- -- ----- -- ------ - ------- --- ----------<br>------------- ------ ------ ---- ---- ------- ----- -- ----<br>-------- ------- is ---------- --- - --- ----- ----- ----<br>---- --- --- ----- --- ---- ---- ------- ----- ---- -------<br>--- --- -- ----- -- --- ---- -- --- ---- -- ------ ------<br>--- ----- -- ----,217363.30000007153,217361.5,217009.827,217011.40000009537,217026.291,217376.713,,20,is
screen,html.Screen,2_1_0_1_21,2022-02-21T10:49:52.008Z,,,,,,,,,,,,,,,,,53,,,,,,,,,,,,,,321.38700002385303,,response,,,,99,,,,,,,Space,keypress(Space),,,,,,,,---- -- ----- -- ------ - ------- --- ----------<br>------------- ------ ------ ---- ---- ------- ----- -- ----<br>-------- ------- -- paramount. --- - --- ----- ----- ----<br>---- --- --- ----- --- ---- ---- ------- ----- ---- -------<br>--- --- -- ----- -- --- ---- -- --- ---- -- ------ ------<br>--- ----- -- ----,217700,217698.10000002384,217359.816,217363.70000004768,217376.713,217710.142,,21,paramount.
screen,html.Screen,2_1_0_1_22,2022-02-21T10:49:52.580Z,,,,,,,,,,,,,,,,,53,,,,,,,,,,,,,,559.4580000238493,,response,,,,99,,,,,,,Space,keypress(Space),,,,,,,,---- -- ----- -- ------ - ------- --- ----------<br>------------- ------ ------ ---- ---- ------- ----- -- ----<br>-------- ------- -- ---------- But - --- ----- ----- ----<br>---- --- --- ----- --- ---- ---- ------- ----- ---- -------<br>--- --- -- ----- -- --- ---- -- --- ---- -- ------ ------<br>--- ----- -- ----,218271.60000002384,218269.60000002384,217693.128,217700.40000009537,217710.142,218276.251,,22,But
screen,html.Screen,2_1_0_1_23,2022-02-21T10:49:52.937Z,,,,,,,,,,,,,,,,,53,,,,,,,,,,,,,,350.4490000476944,,response,,,,99,,,,,,,Space,keypress(Space),,,,,,,,---- -- ----- -- ------ - ------- --- ----------<br>------------- ------ ------ ---- ---- ------- ----- -- ----<br>-------- ------- -- ---------- --- a --- ----- ----- ----<br>---- --- --- ----- --- ---- ---- ------- ----- ---- -------<br>--- --- -- ----- -- --- ---- -- --- ---- -- ------ ------<br>--- ----- -- ----,218628.60000002384,218626.70000004768,218259.7,218272.10000002384,218276.251,218643.074,,23,a
screen,html.Screen,2_1_0_1_24,2022-02-21T10:49:53.267Z,,,,,,,,,,,,,,,,,53,,,,,,,,,,,,,,313.3260000953742,,response,,,,99,,,,,,,Space,keypress(Space),,,,,,,,---- -- ----- -- ------ - ------- --- ----------<br>------------- ------ ------ ---- ---- ------- ----- -- ----<br>-------- ------- -- ---------- --- - new ----- ----- ----<br>---- --- --- ----- --- ---- ---- ------- ----- ---- -------<br>--- --- -- ----- -- --- ---- -- --- ---- -- ------ ------<br>--- ----- -- ----,218958.30000007153,218956.40000009537,218626.424,218629,218643.074,218976.505,,24,new
screen,html.Screen,2_1_0_1_25,2022-02-21T10:49:53.582Z,,,,,,,,,,,,,,,,,53,,,,,,,,,,,,,,295.2950000715209,,response,,,,99,,,,,,,Space,keypress(Space),,,,,,,,---- -- ----- -- ------ - ------- --- ----------<br>------------- ------ ------ ---- ---- ------- ----- -- ----<br>-------- ------- -- ---------- --- - --- study ----- ----<br>---- --- --- ----- --- ---- ---- ------- ----- ---- -------<br>--- --- -- ----- -- --- ---- -- --- ---- -- ------ ------<br>--- ----- -- ----,219273.70000004768,219271.80000007153,218959.734,218958.70000004768,218976.505,219294.948,,25,study
screen,html.Screen,2_1_0_1_26,2022-02-21T10:49:53.923Z,,,,,,,,,,,,,,,,,53,,,,,,,,,,,,,,316.3520000715216,,response,,,,99,,,,,,,Space,keypress(Space),,,,,,,,---- -- ----- -- ------ - ------- --- ----------<br>------------- ------ ------ ---- ---- ------- ----- -- ----<br>-------- ------- -- ---------- --- - --- ----- finds ----<br>---- --- --- ----- --- ---- ---- ------- ----- ---- -------<br>--- --- -- ----- -- --- ---- -- --- ---- -- ------ ------<br>--- ----- -- ----,219614.20000004768,219611.30000007153,219259.605,219274.10000002384,219294.948,219626.197,,26,finds
screen,html.Screen,2_1_0_1_27,2022-02-21T10:49:54.210Z,,,,,,,,,,,,,,,,,53,,,,,,,,,,,,,,273.9030000238563,,response,,,,99,,,,,,,Space,keypress(Space),,,,,,,,---- -- ----- -- ------ - ------- --- ----------<br>------------- ------ ------ ---- ---- ------- ----- -- ----<br>-------- ------- -- ---------- --- - --- ----- ----- that<br>---- --- --- ----- --- ---- ---- ------- ----- ---- -------<br>--- --- -- ----- -- --- ---- -- --- ---- -- ------ ------<br>--- ----- -- ----,219902,219900.10000002384,219609.704,219614.60000002384,219626.197,219909.526,,27,that
screen,html.Screen,2_1_0_1_28,2022-02-21T10:49:54.538Z,,,,,,,,,,,,,,,,,53,,,,,,,,,,,,,,318.0740000238293,,response,,,,99,,,,,,,Space,keypress(Space),,,,,,,,---- -- ----- -- ------ - ------- --- ----------<br>------------- ------ ------ ---- ---- ------- ----- -- ----<br>-------- ------- -- ---------- --- - --- ----- ----- ----<br>it's --- --- ----- --- ---- ---- ------- ----- ---- -------<br>--- --- -- ----- -- --- ---- -- --- ---- -- ------ ------<br>--- ----- -- ----,220229.80000007153,220227.60000002384,219893.015,219902.5,219909.526,220242.851,,28,it's
screen,html.Screen,2_1_0_1_29,2022-02-21T10:49:54.871Z,,,,,,,,,,,,,,,,,53,,,,,,,,,,,,,,317.8490000476886,,response,,,,99,,,,,,,Space,keypress(Space),,,,,,,,---- -- ----- -- ------ - ------- --- ----------<br>------------- ------ ------ ---- ---- ------- ----- -- ----<br>-------- ------- -- ---------- --- - --- ----- ----- ----<br>---- not --- ----- --- ---- ---- ------- ----- ---- -------<br>--- --- -- ----- -- --- ---- -- --- ---- -- ------ ------<br>--- ----- -- ----,220562.5,220560.70000004768,220226.34,220230.20000004768,220242.851,220576.54,,29,not
screen,html.Screen,2_1_0_1_30,2022-02-21T10:49:55.214Z,,,,,,,,,,,,,,,,,53,,,,,,,,,,,,,,326.95999999999185,,response,,,,99,,,,,,,Space,keypress(Space),,,,,,,,---- -- ----- -- ------ - ------- --- ----------<br>------------- ------ ------ ---- ---- ------- ----- -- ----<br>-------- ------- -- ---------- --- - --- ----- ----- ----<br>---- --- how ----- --- ---- ---- ------- ----- ---- -------<br>--- --- -- ----- -- --- ---- -- --- ---- -- ------ ------<br>--- ----- -- ----,220905.5,220903.5,220559.659,220563,220576.54,220909.455,,30,how
screen,html.Screen,2_1_0_1_31,2022-02-21T10:49:55.545Z,,,,,,,,,,,,,,,,,53,,,,,,,,,,,,,,325.5450000000128,,response,,,,99,,,,,,,Space,keypress(Space),,,,,,,,---- -- ----- -- ------ - ------- --- ----------<br>------------- ------ ------ ---- ---- ------- ----- -- ----<br>-------- ------- -- ---------- --- - --- ----- ----- ----<br>---- --- --- close --- ---- ---- ------- ----- ---- -------<br>--- --- -- ----- -- --- ---- -- --- ---- -- ------ ------<br>--- ----- -- ----,221236.90000009537,221235,220892.972,220906,220909.455,221242.813,,31,close
screen,html.Screen,2_1_0_1_32,2022-02-21T10:49:55.887Z,,,,,,,,,,,,,,,,,53,,,,,,,,,,,,,,334.18700000000536,,response,,,,99,,,,,,,Space,keypress(Space),,,,,,,,---- -- ----- -- ------ - ------- --- ----------<br>------------- ------ ------ ---- ---- ------- ----- -- ----<br>-------- ------- -- ---------- --- - --- ----- ----- ----<br>---- --- --- ----- you ---- ---- ------- ----- ---- -------<br>--- --- -- ----- -- --- ---- -- --- ---- -- ------ ------<br>--- ----- -- ----,221578.80000007153,221577,221226.296,221237.20000004768,221242.813,221592.937,,32,you
screen,html.Screen,2_1_0_1_33,2022-02-21T10:49:56.225Z,,,,,,,,,,,,,,,,,53,,,,,,,,,,,,,,321.8630000715202,,response,,,,99,,,,,,,Space,keypress(Space),,,,,,,,---- -- ----- -- ------ - ------- --- ----------<br>------------- ------ ------ ---- ---- ------- ----- -- ----<br>-------- ------- -- ---------- --- - --- ----- ----- ----<br>---- --- --- ----- --- feel ---- ------- ----- ---- -------<br>--- --- -- ----- -- --- ---- -- --- ---- -- ------ ------<br>--- ----- -- ----,221916.60000002384,221914.80000007153,221576.291,221579.20000004768,221592.937,221926.071,,33,feel
screen,html.Screen,2_1_0_1_34,2022-02-21T10:49:56.557Z,,,,,,,,,,,,,,,,,53,,,,,,,,,,,,,,320.32900009537116,,response,,,,99,,,,,,,Space,keypress(Space),,,,,,,,---- -- ----- -- ------ - ------- --- ----------<br>------------- ------ ------ ---- ---- ------- ----- -- ----<br>-------- ------- -- ---------- --- - --- ----- ----- ----<br>---- --- --- ----- --- ---- that ------- ----- ---- -------<br>--- --- -- ----- -- --- ---- -- --- ---- -- ------ ------<br>--- ----- -- ----,222248.80000007153,222246.40000009537,221909.597,221916.90000009537,221926.071,222260.143,,34,that
screen,html.Screen,2_1_0_1_35,2022-02-21T10:49:56.903Z,,,,,,,,,,,,,,,,,53,,,,,,,,,,,,,,333.0570000476728,,response,,,,99,,,,,,,Space,keypress(Space),,,,,,,,---- -- ----- -- ------ - ------- --- ----------<br>------------- ------ ------ ---- ---- ------- ----- -- ----<br>-------- ------- -- ---------- --- - --- ----- ----- ----<br>---- --- --- ----- --- ---- ---- matters ----- ---- -------<br>--- --- -- ----- -- --- ---- -- --- ---- -- ------ ------<br>--- ----- -- ----,222595.10000002384,222593.20000004768,222242.915,222249.20000004768,222260.143,222609.383,,35,matters
screen,html.Screen,2_1_0_1_36,2022-02-21T10:49:57.236Z,,,,,,,,,,,,,,,,,53,,,,,,,,,,,,,,316.61699999999837,,response,,,,99,,,,,,,Space,keypress(Space),,,,,,,,"---- -- ----- -- ------ - ------- --- ----------<br>------------- ------ ------ ---- ---- ------- ----- -- ----<br>-------- ------- -- ---------- --- - --- ----- ----- ----<br>---- --- --- ----- --- ---- ---- ------- most, ---- -------<br>--- --- -- ----- -- --- ---- -- --- ---- -- ------ ------<br>--- ----- -- ----",222927.90000009537,222926,222592.901,222595.70000004768,222609.383,222942.876,,36,"most,"
screen,html.Screen,2_1_0_1_37,2022-02-21T10:49:57.620Z,,,,,,,,,,,,,,,,,53,,,,,,,,,,,,,,366.52400009537814,,response,,,,99,,,,,,,Space,keypress(Space),,,,,,,,---- -- ----- -- ------ - ------- --- ----------<br>------------- ------ ------ ---- ---- ------- ----- -- ----<br>-------- ------- -- ---------- --- - --- ----- ----- ----<br>---- --- --- ----- --- ---- ---- ------- ----- it's -------<br>--- --- -- ----- -- --- ---- -- --- ---- -- ------ ------<br>--- ----- -- ----,223311.20000004768,223309.40000009537,222926.216,222928.30000007153,222942.876,223326.194,,37,it's
screen,html.Screen,2_1_0_1_38,2022-02-21T10:49:57.998Z,,,,,,,,,,,,,,,,,53,,,,,,,,,,,,,,361.3060000000114,,response,,,,99,,,,,,,Space,keypress(Space),,,,,,,,---- -- ----- -- ------ - ------- --- ----------<br>------------- ------ ------ ---- ---- ------- ----- -- ----<br>-------- ------- -- ---------- --- - --- ----- ----- ----<br>---- --- --- ----- --- ---- ---- ------- ----- ---- whether<br>--- --- -- ----- -- --- ---- -- --- ---- -- ------ ------<br>--- ----- -- ----,223689.20000004768,223687.5,223309.546,223311.60000002384,223326.194,223692.662,,38,whether
screen,html.Screen,2_1_0_1_39,2022-02-21T10:49:58.370Z,,,,,,,,,,,,,,,,,53,,,,,,,,,,,,,,367.6380000715144,,response,,,,99,,,,,,,Space,keypress(Space),,,,,,,,---- -- ----- -- ------ - ------- --- ----------<br>------------- ------ ------ ---- ---- ------- ----- -- ----<br>-------- ------- -- ---------- --- - --- ----- ----- ----<br>---- --- --- ----- --- ---- ---- ------- ----- ---- -------<br>you --- -- ----- -- --- ---- -- --- ---- -- ------ ------<br>--- ----- -- ----,224062.10000002384,224060.30000007153,223676.188,223689.5,223692.662,224076.159,,39,you
screen,html.Screen,2_1_0_1_40,2022-02-21T10:49:58.702Z,,,,,,,,,,,,,,,,,53,,,,,,,,,,,,,,316.0410000476695,,response,,,,99,,,,,,,Space,keypress(Space),,,,,,,,---- -- ----- -- ------ - ------- --- ----------<br>------------- ------ ------ ---- ---- ------- ----- -- ----<br>-------- ------- -- ---------- --- - --- ----- ----- ----<br>---- --- --- ----- --- ---- ---- ------- ----- ---- -------<br>--- are -- ----- -- --- ---- -- --- ---- -- ------ ------<br>--- ----- -- ----,224394,224392.20000004768,224059.512,224062.5,224076.159,224409.478,,40,are
screen,html.Screen,2_1_0_1_41,2022-02-21T10:49:59.098Z,,,,,,,,,,,,,,,,,53,,,,,,,,,,,,,,376.12200002383906,,response,,,,99,,,,,,,Space,keypress(Space),,,,,,,,---- -- ----- -- ------ - ------- --- ----------<br>------------- ------ ------ ---- ---- ------- ----- -- ----<br>-------- ------- -- ---------- --- - --- ----- ----- ----<br>---- --- --- ----- --- ---- ---- ------- ----- ---- -------<br>--- --- as ----- -- --- ---- -- --- ---- -- ------ ------<br>--- ----- -- ----,224789.80000007153,224785.60000002384,224392.816,224394.30000007153,224409.478,224792.588,,41,as
screen,html.Screen,2_1_0_1_42,2022-02-21T10:49:59.398Z,,,,,,,,,,,,,,,,,53,,,,,,,,,,,,,,295.6120000476949,,response,,,,99,,,,,,,Space,keypress(Space),,,,,,,,---- -- ----- -- ------ - ------- --- ----------<br>------------- ------ ------ ---- ---- ------- ----- -- ----<br>-------- ------- -- ---------- --- - --- ----- ----- ----<br>---- --- --- ----- --- ---- ---- ------- ----- ---- -------<br>--- --- -- close -- --- ---- -- --- ---- -- ------ ------<br>--- ----- -- ----,225090,225088.20000004768,224776.143,224790.20000004768,224792.588,225114.082,,42,close
screen,html.Screen,2_1_0_1_43,2022-02-21T10:49:59.842Z,,,,,,,,,,,,,,,,,53,,,,,,,,,,,,,,417.4180000000051,,response,,,,99,,,,,,,Space,keypress(Space),,,,,,,,---- -- ----- -- ------ - ------- --- ----------<br>------------- ------ ------ ---- ---- ------- ----- -- ----<br>-------- ------- -- ---------- --- - --- ----- ----- ----<br>---- --- --- ----- --- ---- ---- ------- ----- ---- -------<br>--- --- -- ----- as --- ---- -- --- ---- -- ------ ------<br>--- ----- -- ----,225533.40000009537,225531.5,225076.113,225090.40000009537,225114.082,225544.682,,43,as
screen,html.Screen,2_1_0_1_44,2022-02-21T10:50:00.071Z,,,,,,,,,,,,,,,,,53,,,,,,,,,,,,,,217.01800004768302,,response,,,,99,,,,,,,Space,keypress(Space),,,,,,,,---- -- ----- -- ------ - ------- --- ----------<br>------------- ------ ------ ---- ---- ------- ----- -- ----<br>-------- ------- -- ---------- --- - --- ----- ----- ----<br>---- --- --- ----- --- ---- ---- ------- ----- ---- -------<br>--- --- -- ----- -- you ---- -- --- ---- -- ------ ------<br>--- ----- -- ----,225762.70000004768,225761.70000004768,225526.031,225533.80000007153,225544.682,225776.069,,44,you
screen,html.Screen,2_1_0_1_45,2022-02-21T10:50:00.284Z,,,,,,,,,,,,,,,,,53,,,,,,,,,,,,,,197.03100002385327,,response,,,,99,,,,,,,Space,keypress(Space),,,,,,,,---- -- ----- -- ------ - ------- --- ----------<br>------------- ------ ------ ---- ---- ------- ----- -- ----<br>-------- ------- -- ---------- --- - --- ----- ----- ----<br>---- --- --- ----- --- ---- ---- ------- ----- ---- -------<br>--- --- -- ----- -- --- want -- --- ---- -- ------ ------<br>--- ----- -- ----,225975.20000004768,225973.10000002384,225759.406,225763,225776.069,225992.737,,45,want
screen,html.Screen,2_1_0_1_46,2022-02-21T10:50:00.626Z,,,,,,,,,,,,,,,,,53,,,,,,,,,,,,,,323.06300007153186,,response,,,,99,,,,,,,Space,keypress(Space),,,,,,,,---- -- ----- -- ------ - ------- --- ----------<br>------------- ------ ------ ---- ---- ------- ----- -- ----<br>-------- ------- -- ---------- --- - --- ----- ----- ----<br>---- --- --- ----- --- ---- ---- ------- ----- ---- -------<br>--- --- -- ----- -- --- ---- to --- ---- -- ------ ------<br>--- ----- -- ----,226317.70000004768,226315.80000007153,225976.046,225975.60000002384,225992.737,226327.742,,46,to
screen,html.Screen,2_1_0_1_47,2022-02-21T10:50:00.907Z,,,,,,,,,,,,,,,,,53,,,,,,,,,,,,,,268.65800009536906,,response,,,,99,,,,,,,Space,keypress(Space),,,,,,,,"---- -- ----- -- ------ - ------- --- ----------<br>------------- ------ ------ ---- ---- ------- ----- -- ----<br>-------- ------- -- ---------- --- - --- ----- ----- ----<br>---- --- --- ----- --- ---- ---- ------- ----- ---- -------<br>--- --- -- ----- -- --- ---- -- be, ---- -- ------ ------<br>--- ----- -- ----",226598.20000004768,226596.40000009537,226309.394,226318.10000002384,226327.742,226609.217,,47,"be,"
screen,html.Screen,2_1_0_1_48,2022-02-21T10:50:01.276Z,,,,,,,,,,,,,,,,,53,,,,,,,,,,,,,,356.0830000715214,,response,,,,99,,,,,,,Space,keypress(Space),,,,,,,,---- -- ----- -- ------ - ------- --- ----------<br>------------- ------ ------ ---- ---- ------- ----- -- ----<br>-------- ------- -- ---------- --- - --- ----- ----- ----<br>---- --- --- ----- --- ---- ---- ------- ----- ---- -------<br>--- --- -- ----- -- --- ---- -- --- even -- ------ ------<br>--- ----- -- ----,226967.20000004768,226965.30000007153,226592.655,226598.60000002384,226609.217,226976.492,,48,even
screen,html.Screen,2_1_0_1_49,2022-02-21T10:50:01.608Z,,,,,,,,,,,,,,,,,53,,,,,,,,,,,,,,321.70800004768535,,response,,,,99,,,,,,,Space,keypress(Space),,,,,,,,---- -- ----- -- ------ - ------- --- ----------<br>------------- ------ ------ ---- ---- ------- ----- -- ----<br>-------- ------- -- ---------- --- - --- ----- ----- ----<br>---- --- --- ----- --- ---- ---- ------- ----- ---- -------<br>--- --- -- ----- -- --- ---- -- --- ---- if ------ ------<br>--- ----- -- ----,227300.10000002384,227298.20000004768,226959.372,226967.60000002384,226976.492,227309.183,,49,if
screen,html.Screen,2_1_0_1_50,2022-02-21T10:50:01.834Z,,,,,,,,,,,,,,,,,53,,,,,,,,,,,,,,214.81700000001,,response,,,,99,,,,,,,Space,keypress(Space),,,,,,,,---- -- ----- -- ------ - ------- --- ----------<br>------------- ------ ------ ---- ---- ------- ----- -- ----<br>-------- ------- -- ---------- --- - --- ----- ----- ----<br>---- --- --- ----- --- ---- ---- ------- ----- ---- -------<br>--- --- -- ----- -- --- ---- -- --- ---- -- that's ------<br>--- ----- -- ----,227525.90000009537,227524,227292.684,227300.5,227309.183,227542.67,,50,that's
screen,html.Screen,2_1_0_1_51,2022-02-21T10:50:02.232Z,,,,,,,,,,,,,,,,,53,,,,,,,,,,,,,,379.63000007151277,,response,,,,99,,,,,,,Space,keypress(Space),,,,,,,,---- -- ----- -- ------ - ------- --- ----------<br>------------- ------ ------ ---- ---- ------- ----- -- ----<br>-------- ------- -- ---------- --- - --- ----- ----- ----<br>---- --- --- ----- --- ---- ---- ------- ----- ---- -------<br>--- --- -- ----- -- --- ---- -- --- ---- -- ------ really<br>--- ----- -- ----,227924.10000002384,227922.30000007153,227525.88,227526.30000007153,227542.67,227959.313,,51,really
screen,html.Screen,2_1_0_1_52,2022-02-21T10:50:02.626Z,,,,,,,,,,,,,,,,,53,,,,,,,,,,,,,,356.18700000000536,,response,,,,99,,,,,,,Space,keypress(Space),,,,,,,,---- -- ----- -- ------ - ------- --- ----------<br>------------- ------ ------ ---- ---- ------- ----- -- ----<br>-------- ------- -- ---------- --- - --- ----- ----- ----<br>---- --- --- ----- --- ---- ---- ------- ----- ---- -------<br>--- --- -- ----- -- --- ---- -- --- ---- -- ------ ------<br>not ----- -- ----,228317.30000007153,228315.5,227942.606,227924.5,227959.313,228326.215,,52,not
screen,html.Screen,2_1_0_1_53,2022-02-21T10:50:02.872Z,,,,,,,,,,,,,,,,,53,,,,,,,,,,,,,,235.2850000000035,,response,,,,99,,,,,,,Space,keypress(Space),,,,,,,,---- -- ----- -- ------ - ------- --- ----------<br>------------- ------ ------ ---- ---- ------- ----- -- ----<br>-------- ------- -- ---------- --- - --- ----- ----- ----<br>---- --- --- ----- --- ---- ---- ------- ----- ---- -------<br>--- --- -- ----- -- --- ---- -- --- ---- -- ------ ------<br>--- close -- ----,228563.40000009537,228561.5,228309.199,228317.70000004768,228326.215,228576.064,,53,close
screen,html.Screen,2_1_0_1_54,2022-02-21T10:50:03.213Z,,,,,,,,,,,,,,,,,53,,,,,,,,,,,,,,327.1360000476707,,response,,,,99,,,,,,,Space,keypress(Space),,,,,,,,---- -- ----- -- ------ - ------- --- ----------<br>------------- ------ ------ ---- ---- ------- ----- -- ----<br>-------- ------- -- ---------- --- - --- ----- ----- ----<br>---- --- --- ----- --- ---- ---- ------- ----- ---- -------<br>--- --- -- ----- -- --- ---- -- --- ---- -- ------ ------<br>--- ----- at ----,228905.10000002384,228903.20000004768,228559.279,228563.80000007153,228576.064,228909.086,,54,at
screen,html.Screen,2_1_0_1_55,2022-02-21T10:50:03.587Z,,,,,,,,,,,,,,,,,53,,,,,,,,,,,,,,367.21400007151533,,response,,,,99,,,,,,,Space,keypress(Space),,,,,,,,---- -- ----- -- ------ - ------- --- ----------<br>------------- ------ ------ ---- ---- ------- ----- -- ----<br>-------- ------- -- ---------- --- - --- ----- ----- ----<br>---- --- --- ----- --- ---- ---- ------- ----- ---- -------<br>--- --- -- ----- -- --- ---- -- --- ---- -- ------ ------<br>--- ----- -- all.,229278.20000004768,229276.30000007153,228892.642,228905.5,228909.086,229309.094,,55,all.
Item 99,flow.Loop,2_1_0_1,2022-02-21T10:50:03.587Z,,,,,,,,,,,,,,,,,,,,,,,,,,,,,,,21016.231000071537,,completion,,,,,B,,,,,,,,,,,silence,,,,,229279,229276.30000007153,208193.507,208196.10000002384,208260.069,229309.094,,,
Question 1,html.Screen,2_1_0_2,2022-02-21T10:50:08.658Z,,,,,,,,,,,,,,,,,,,,,,,,,,,,true,FALSE,,5037.206000071514,,response,,,,99,B,,,,,,FALSE,click #choice-2,,,,silence,,,,,234349.20000004768,234346.30000007153,229275.968,229279.40000009537,229309.094,234375.51,,,
Question 2,html.Screen,2_1_0_3,2022-02-21T10:50:14.529Z,,,,,,,,,,,,,,,,,,,,,,,,,,,,true,TRUE,,5843.690000047674,,response,,,,99,B,,,,,,TRUE,click #choice-1,,,,silence,,,,,240220.80000007153,240219.20000004768,234358.868,234349.60000002384,234375.51,240225.194,,,
Item 99,flow.Sequence,2_1_0,2022-02-21T10:50:14.529Z,,,,,,,,,,,,,,,,,,,,,,,,,,,,,,,42008.66400004769,,completion,,,,,,,,,,,,,,,,,,,,,240221,240219.20000004768,198177.332,198199.30000007153,198210.536,240225.194,,,
Holding screen,html.Screen,2_1_1_0,2022-02-21T10:50:24.518Z,,,,,,,,,,,,,,,,,,,,,,,,,,,,,,,9999.59600000002,,timeout,,,,,,,,,,,,,,,,,,,,,250210.20000004768,250208.246,240208.743,240221.20000004768,240225.194,250224.79,,,
screen,html.Screen,2_1_1_1_0,2022-02-21T10:50:25.793Z,,,,,,,,,,,,,,,,,54,,,,,,,,,,,,,,1256.8100000238337,,response,,,,100,,,,,,,Space,keypress(Space),,,,,,,,At --- ---- --- ------ ----- ------- ---- -- --- ------- --<br>------- ---------- ------ -- ----- -- ----- -- ---- ------<br>--- ----- --- --- ------ -------- ----- --- ------ ----- --<br>----- ----- ---------- --- --- ------ ------ ---- -- ------<br>------- --- ------ ----- --- ---- ------- -- ---- --- --<br>------- ------,251484.90000009537,251481.60000002384,250208.246,250211.20000004768,250224.79,251491.442,,0,At
screen,html.Screen,2_1_1_1_1,2022-02-21T10:50:26.175Z,,,,,,,,,,,,,,,,,54,,,,,,,,,,,,,,373.7580000476737,,response,,,,100,,,,,,,Space,keypress(Space),,,,,,,,-- the ---- --- ------ ----- ------- ---- -- --- ------- --<br>------- ---------- ------ -- ----- -- ----- -- ---- ------<br>--- ----- --- --- ------ -------- ----- --- ------ ----- --<br>----- ----- ---------- --- --- ------ ------ ---- -- ------<br>------- --- ------ ----- --- ---- ------- -- ---- --- --<br>------- ------,251867,251865.20000004768,251475.091,251485.30000007153,251491.442,251874.722,,1,the
screen,html.Screen,2_1_1_1_2,2022-02-21T10:50:26.508Z,,,,,,,,,,,,,,,,,54,,,,,,,,,,,,,,322.97800004767487,,response,,,,100,,,,,,,Space,keypress(Space),,,,,,,,-- --- time --- ------ ----- ------- ---- -- --- ------- --<br>------- ---------- ------ -- ----- -- ----- -- ---- ------<br>--- ----- --- --- ------ -------- ----- --- ------ ----- --<br>----- ----- ---------- --- --- ------ ------ ---- -- ------<br>------- --- ------ ----- --- ---- ------- -- ---- --- --<br>------- ------,252199.5,252197.70000004768,251858.233,251867.30000007153,251874.722,252208.81,,2,time
screen,html.Screen,2_1_1_1_3,2022-02-21T10:50:26.922Z,,,,,,,,,,,,,,,,,54,,,,,,,,,,,,,,402.59000009536976,,response,,,,100,,,,,,,Space,keypress(Space),,,,,,,,-- --- ---- the ------ ----- ------- ---- -- --- ------- --<br>------- ---------- ------ -- ----- -- ----- -- ---- ------<br>--- ----- --- --- ------ -------- ----- --- ------ ----- --<br>----- ----- ---------- --- --- ------ ------ ---- -- ------<br>------- --- ------ ----- --- ---- ------- -- ---- --- --<br>------- ------,252613.20000004768,252611.40000009537,252191.521,252199.90000009537,252208.81,252624.671,,3,the
screen,html.Screen,2_1_1_1_4,2022-02-21T10:50:27.350Z,,,,,,,,,,,,,,,,,54,,,,,,,,,,,,,,415.0290000476816,,response,,,,100,,,,,,,Space,keypress(Space),,,,,,,,-- --- ---- --- French ----- ------- ---- -- --- ------- --<br>------- ---------- ------ -- ----- -- ----- -- ---- ------<br>--- ----- --- --- ------ -------- ----- --- ------ ----- --<br>----- ----- ---------- --- --- ------ ------ ---- -- ------<br>------- --- ------ ----- --- ---- ------- -- ---- --- --<br>------- ------,253041.40000009537,253039.70000004768,252608.204,252613.60000002384,252624.671,253058.023,,4,French
screen,html.Screen,2_1_1_1_5,2022-02-21T10:50:27.708Z,,,,,,,,,,,,,,,,,54,,,,,,,,,,,,,,339.57700002385536,,response,,,,100,,,,,,,Space,keypress(Space),,,,,,,,-- --- ---- --- ------ crown ------- ---- -- --- ------- --<br>------- ---------- ------ -- ----- -- ----- -- ---- ------<br>--- ----- --- --- ------ -------- ----- --- ------ ----- --<br>----- ----- ---------- --- --- ------ ------ ---- -- ------<br>------- --- ------ ----- --- ---- ------- -- ---- --- --<br>------- ------,253399.5,253397.60000002384,253041.524,253041.80000007153,253058.023,253409.01,,5,crown
screen,html.Screen,2_1_1_1_6,2022-02-21T10:50:28.131Z,,,,,,,,,,,,,,,,,54,,,,,,,,,,,,,,411.9899999999907,,response,,,,100,,,,,,,Space,keypress(Space),,,,,,,,-- --- ---- --- ------ ----- secured ---- -- --- ------- --<br>------- ---------- ------ -- ----- -- ----- -- ---- ------<br>--- ----- --- --- ------ -------- ----- --- ------ ----- --<br>----- ----- ---------- --- --- ------ ------ ---- -- ------<br>------- --- ------ ----- --- ---- ------- -- ---- --- --<br>------- ------,253823.10000002384,253821,253391.492,253399.90000009537,253409.01,253858.123,,6,secured
screen,html.Screen,2_1_1_1_7,2022-02-21T10:50:28.499Z,,,,,,,,,,,,,,,,,54,,,,,,,,,,,,,,330.5770000476914,,response,,,,100,,,,,,,Space,keypress(Space),,,,,,,,-- --- ---- --- ------ ----- ------- much -- --- ------- --<br>------- ---------- ------ -- ----- -- ----- -- ---- ------<br>--- ----- --- --- ------ -------- ----- --- ------ ----- --<br>----- ----- ---------- --- --- ------ ------ ---- -- ------<br>------- --- ------ ----- --- ---- ------- -- ---- --- --<br>------- ------,254190.60000002384,254188.70000004768,253841.414,253823.5,253858.123,254208.108,,7,much
screen,html.Screen,2_1_1_1_8,2022-02-21T10:50:28.854Z,,,,,,,,,,,,,,,,,54,,,,,,,,,,,,,,335.79200009536,,response,,,,100,,,,,,,Space,keypress(Space),,,,,,,,-- --- ---- --- ------ ----- ------- ---- of --- ------- --<br>------- ---------- ------ -- ----- -- ----- -- ---- ------<br>--- ----- --- --- ------ -------- ----- --- ------ ----- --<br>----- ----- ---------- --- --- ------ ------ ---- -- ------<br>------- --- ------ ----- --- ---- ------- -- ---- --- --<br>------- ------,254545.70000004768,254543.90000009537,254191.453,254191,254208.108,254557.927,,8,of
screen,html.Screen,2_1_1_1_9,2022-02-21T10:50:29.225Z,,,,,,,,,,,,,,,,,54,,,,,,,,,,,,,,356.9730000953714,,response,,,,100,,,,,,,Space,keypress(Space),,,,,,,,-- --- ---- --- ------ ----- ------- ---- -- its ------- --<br>------- ---------- ------ -- ----- -- ----- -- ---- ------<br>--- ----- --- --- ------ -------- ----- --- ------ ----- --<br>----- ----- ---------- --- --- ------ ------ ---- -- ------<br>------- --- ------ ----- --- ---- ------- -- ---- --- --<br>------- ------,254916.80000007153,254914.90000009537,254541.44,254546.10000002384,254557.927,254926.45,,9,its
screen,html.Screen,2_1_1_1_10,2022-02-21T10:50:29.537Z,,,,,,,,,,,,,,,,,54,,,,,,,,,,,,,,300.85000007151393,,response,,,,100,,,,,,,Space,keypress(Space),,,,,,,,-- --- ---- --- ------ ----- ------- ---- -- --- revenue --<br>------- ---------- ------ -- ----- -- ----- -- ---- ------<br>--- ----- --- --- ------ -------- ----- --- ------ ----- --<br>----- ----- ---------- --- --- ------ ------ ---- -- ------<br>------- --- ------ ----- --- ---- ------- -- ---- --- --<br>------- ------,255229.20000004768,255227.30000007153,254908.088,254917.20000004768,254926.45,255241.241,,10,revenue
screen,html.Screen,2_1_1_1_11,2022-02-21T10:50:29.877Z,,,,,,,,,,,,,,,,,54,,,,,,,,,,,,,,324.65900009535835,,response,,,,100,,,,,,,Space,keypress(Space),,,,,,,,-- --- ---- --- ------ ----- ------- ---- -- --- ------- by<br>------- ---------- ------ -- ----- -- ----- -- ---- ------<br>--- ----- --- --- ------ -------- ----- --- ------ ----- --<br>----- ----- ---------- --- --- ------ ------ ---- -- ------<br>------- --- ------ ----- --- ---- ------- -- ---- --- --<br>------- ------,255568.5,255565.90000009537,255224.733,255229.5,255241.241,255574.552,,11,by
screen,html.Screen,2_1_1_1_12,2022-02-21T10:50:30.238Z,,,,,,,,,,,,,,,,,54,,,,,,,,,,,,,,353.5480000238458,,response,,,,100,,,,,,,Space,keypress(Space),,,,,,,,-- --- ---- --- ------ ----- ------- ---- -- --- ------- --<br>issuing ---------- ------ -- ----- -- ----- -- ---- ------<br>--- ----- --- --- ------ -------- ----- --- ------ ----- --<br>----- ----- ---------- --- --- ------ ------ ---- -- ------<br>------- --- ------ ----- --- ---- ------- -- ---- --- --<br>------- ------,255930,255928.10000002384,255558.058,255568.90000009537,255574.552,255941.178,,12,issuing
screen,html.Screen,2_1_1_1_13,2022-02-21T10:50:30.613Z,,,,,,,,,,,,,,,,,54,,,,,,,,,,,,,,362.0220000476693,,response,,,,100,,,,,,,Space,keypress(Space),,,,,,,,-- --- ---- --- ------ ----- ------- ---- -- --- ------- --<br>------- government ------ -- ----- -- ----- -- ---- ------<br>--- ----- --- --- ------ -------- ----- --- ------ ----- --<br>----- ----- ---------- --- --- ------ ------ ---- -- ------<br>------- --- ------ ----- --- ---- ------- -- ---- --- --<br>------- ------,256305,256303.20000004768,255924.714,255930.40000009537,255941.178,256341.197,,13,government
screen,html.Screen,2_1_1_1_14,2022-02-21T10:50:30.991Z,,,,,,,,,,,,,,,,,54,,,,,,,,,,,,,,339.9030000238563,,response,,,,100,,,,,,,Space,keypress(Space),,,,,,,,-- --- ---- --- ------ ----- ------- ---- -- --- ------- --<br>------- ---------- bonds. -- ----- -- ----- -- ---- ------<br>--- ----- --- --- ------ -------- ----- --- ------ ----- --<br>----- ----- ---------- --- --- ------ ------ ---- -- ------<br>------- --- ------ ----- --- ---- ------- -- ---- --- --<br>------- ------,256682.90000009537,256681.10000002384,256291.367,256305.40000009537,256341.197,256691.174,,14,bonds.
screen,html.Screen,2_1_1_1_15,2022-02-21T10:50:31.375Z,,,,,,,,,,,,,,,,,54,,,,,,,,,,,,,,374.02600004768465,,response,,,,100,,,,,,,Space,keypress(Space),,,,,,,,-- --- ---- --- ------ ----- ------- ---- -- --- ------- --<br>------- ---------- ------ In ----- -- ----- -- ---- ------<br>--- ----- --- --- ------ -------- ----- --- ------ ----- --<br>----- ----- ---------- --- --- ------ ------ ---- -- ------<br>------- --- ------ ----- --- ---- ------- -- ---- --- --<br>------- ------,257067,257065.20000004768,256674.67,256683.20000004768,256691.174,257074.498,,15,In
screen,html.Screen,2_1_1_1_16,2022-02-21T10:50:31.646Z,,,,,,,,,,,,,,,,,54,,,,,,,,,,,,,,261.80200007153326,,response,,,,100,,,,,,,Space,keypress(Space),,,,,,,,"-- --- ---- --- ------ ----- ------- ---- -- --- ------- --<br>------- ---------- ------ -- 1727, -- ----- -- ---- ------<br>--- ----- --- --- ------ -------- ----- --- ------ ----- --<br>----- ----- ---------- --- --- ------ ------ ---- -- ------<br>------- --- ------ ----- --- ---- ------- -- ---- --- --<br>------- ------",257338.10000002384,257336.30000007153,257057.994,257067.5,257074.498,257341.1,,16,"1727,"
screen,html.Screen,2_1_1_1_17,2022-02-21T10:50:32.335Z,,,,,,,,,,,,,,,,,54,,,,,,,,,,,,,,684.000000023836,,response,,,,100,,,,,,,Space,keypress(Space),,,,,,,,-- --- ---- --- ------ ----- ------- ---- -- --- ------- --<br>------- ---------- ------ -- ----- in ----- -- ---- ------<br>--- ----- --- --- ------ -------- ----- --- ------ ----- --<br>----- ----- ---------- --- --- ------ ------ ---- -- ------<br>------- --- ------ ----- --- ---- ------- -- ---- --- --<br>------- ------,258027,258025.10000002384,257324.627,257338.60000002384,257341.1,258041.265,,17,in
screen,html.Screen,2_1_1_1_18,2022-02-21T10:50:32.631Z,,,,,,,,,,,,,,,,,54,,,,,,,,,,,,,,279.3350000238279,,response,,,,100,,,,,,,Space,keypress(Space),,,,,,,,-- --- ---- --- ------ ----- ------- ---- -- --- ------- --<br>------- ---------- ------ -- ----- -- order -- ---- ------<br>--- ----- --- --- ------ -------- ----- --- ------ ----- --<br>----- ----- ---------- --- --- ------ ------ ---- -- ------<br>------- --- ------ ----- --- ---- ------- -- ---- --- --<br>------- ------,258322.40000009537,258320.60000002384,258024.694,258027.30000007153,258041.265,258341.212,,18,order
screen,html.Screen,2_1_1_1_19,2022-02-21T10:50:32.948Z,,,,,,,,,,,,,,,,,54,,,,,,,,,,,,,,296.9880000476842,,response,,,,100,,,,,,,Space,keypress(Space),,,,,,,,-- --- ---- --- ------ ----- ------- ---- -- --- ------- --<br>------- ---------- ------ -- ----- -- ----- to ---- ------<br>--- ----- --- --- ------ -------- ----- --- ------ ----- --<br>----- ----- ---------- --- --- ------ ------ ---- -- ------<br>------- --- ------ ----- --- ---- ------- -- ---- --- --<br>------- ------,258640,258638.20000004768,258307.921,258322.80000007153,258341.212,258657.802,,19,to
screen,html.Screen,2_1_1_1_20,2022-02-21T10:50:33.234Z,,,,,,,,,,,,,,,,,54,,,,,,,,,,,,,,265.7980000238458,,response,,,,100,,,,,,,Space,keypress(Space),,,,,,,,-- --- ---- --- ------ ----- ------- ---- -- --- ------- --<br>------- ---------- ------ -- ----- -- ----- -- save ------<br>--- ----- --- --- ------ -------- ----- --- ------ ----- --<br>----- ----- ---------- --- --- ------ ------ ---- -- ------<br>------- --- ------ ----- --- ---- ------- -- ---- --- --<br>------- ------,258925.40000009537,258923.60000002384,258641.269,258640.40000009537,258657.802,258941.228,,20,save
screen,html.Screen,2_1_1_1_21,2022-02-21T10:50:33.622Z,,,,,,,,,,,,,,,,,54,,,,,,,,,,,,,,370.4720000476809,,response,,,,100,,,,,,,Space,keypress(Space),,,,,,,,"-- --- ---- --- ------ ----- ------- ---- -- --- ------- --<br>------- ---------- ------ -- ----- -- ----- -- ---- money,<br>--- ----- --- --- ------ -------- ----- --- ------ ----- --<br>----- ----- ---------- --- --- ------ ------ ---- -- ------<br>------- --- ------ ----- --- ---- ------- -- ---- --- --<br>------- ------",259313.5,259311.70000004768,258924.559,258925.80000007153,258941.228,259324.356,,21,"money,"
screen,html.Screen,2_1_1_1_22,2022-02-21T10:50:34.040Z,,,,,,,,,,,,,,,,,54,,,,,,,,,,,,,,405.64400000000023,,response,,,,100,,,,,,,Space,keypress(Space),,,,,,,,-- --- ---- --- ------ ----- ------- ---- -- --- ------- --<br>------- ---------- ------ -- ----- -- ----- -- ---- ------<br>the ----- --- --- ------ -------- ----- --- ------ ----- --<br>----- ----- ---------- --- --- ------ ------ ---- -- ------<br>------- --- ------ ----- --- ---- ------- -- ---- --- --<br>------- ------,259731.80000007153,259730,259307.893,259313.90000009537,259324.356,259741.551,,22,the
screen,html.Screen,2_1_1_1_23,2022-02-21T10:50:34.364Z,,,,,,,,,,,,,,,,,54,,,,,,,,,,,,,,312.0490000238351,,response,,,,100,,,,,,,Space,keypress(Space),,,,,,,,-- --- ---- --- ------ ----- ------- ---- -- --- ------- --<br>------- ---------- ------ -- ----- -- ----- -- ---- ------<br>--- state --- --- ------ -------- ----- --- ------ ----- --<br>----- ----- ---------- --- --- ------ ------ ---- -- ------<br>------- --- ------ ----- --- ---- ------- -- ---- --- --<br>------- ------,260055.40000009537,260053.60000002384,259724.418,259732.20000004768,259741.551,260081.656,,23,state
screen,html.Screen,2_1_1_1_24,2022-02-21T10:50:34.605Z,,,,,,,,,,,,,,,,,54,,,,,,,,,,,,,,212.94400002385373,,response,,,,100,,,,,,,Space,keypress(Space),,,,,,,,-- --- ---- --- ------ ----- ------- ---- -- --- ------- --<br>------- ---------- ------ -- ----- -- ----- -- ---- ------<br>--- ----- cut --- ------ -------- ----- --- ------ ----- --<br>----- ----- ---------- --- --- ------ ------ ---- -- ------<br>------- --- ------ ----- --- ---- ------- -- ---- --- --<br>------- ------,260296.40000009537,260294.60000002384,260041.178,260055.80000007153,260081.656,260307.816,,24,cut
screen,html.Screen,2_1_1_1_25,2022-02-21T10:50:34.894Z,,,,,,,,,,,,,,,,,54,,,,,,,,,,,,,,276.98400007153396,,response,,,,100,,,,,,,Space,keypress(Space),,,,,,,,-- --- ---- --- ------ ----- ------- ---- -- --- ------- --<br>------- ---------- ------ -- ----- -- ----- -- ---- ------<br>--- ----- --- the ------ -------- ----- --- ------ ----- --<br>----- ----- ---------- --- --- ------ ------ ---- -- ------<br>------- --- ------ ----- --- ---- ------- -- ---- --- --<br>------- ------,260585.70000004768,260584.80000007153,260291.152,260296.80000007153,260307.816,260590.937,,25,the
screen,html.Screen,2_1_1_1_26,2022-02-21T10:50:35.295Z,,,,,,,,,,,,,,,,,54,,,,,,,,,,,,,,394.4630000953621,,response,,,,100,,,,,,,Space,keypress(Space),,,,,,,,-- --- ---- --- ------ ----- ------- ---- -- --- ------- --<br>------- ---------- ------ -- ----- -- ----- -- ---- ------<br>--- ----- --- --- bonds' -------- ----- --- ------ ----- --<br>----- ----- ---------- --- --- ------ ------ ---- -- ------<br>------- --- ------ ----- --- ---- ------- -- ---- --- --<br>------- ------,260987.10000002384,260985.40000009537,260574.486,260585.90000009537,260590.937,260990.974,,26,bonds'
screen,html.Screen,2_1_1_1_27,2022-02-21T10:50:35.651Z,,,,,,,,,,,,,,,,,54,,,,,,,,,,,,,,350.2260000476963,,response,,,,100,,,,,,,Space,keypress(Space),,,,,,,,-- --- ---- --- ------ ----- ------- ---- -- --- ------- --<br>------- ---------- ------ -- ----- -- ----- -- ---- ------<br>--- ----- --- --- ------ interest ----- --- ------ ----- --<br>----- ----- ---------- --- --- ------ ------ ---- -- ------<br>------- --- ------ ----- --- ---- ------- -- ---- --- --<br>------- ------,261343.10000002384,261341.20000004768,260974.484,260987.5,260990.974,261357.603,,27,interest
screen,html.Screen,2_1_1_1_28,2022-02-21T10:50:36.052Z,,,,,,,,,,,,,,,,,54,,,,,,,,,,,,,,382.8969999999972,,response,,,,100,,,,,,,Space,keypress(Space),,,,,,,,-- --- ---- --- ------ ----- ------- ---- -- --- ------- --<br>------- ---------- ------ -- ----- -- ----- -- ---- ------<br>--- ----- --- --- ------ -------- rate. --- ------ ----- --<br>----- ----- ---------- --- --- ------ ------ ---- -- ------<br>------- --- ------ ----- --- ---- ------- -- ---- --- --<br>------- ------,261743.5,261740.5,261341.016,261343.5,261357.603,261757.591,,28,rate.
screen,html.Screen,2_1_1_1_29,2022-02-21T10:50:36.419Z,,,,,,,,,,,,,,,,,54,,,,,,,,,,,,,,350.80900009538163,,response,,,,100,,,,,,,Space,keypress(Space),,,,,,,,-- --- ---- --- ------ ----- ------- ---- -- --- ------- --<br>------- ---------- ------ -- ----- -- ----- -- ---- ------<br>--- ----- --- --- ------ -------- ----- The ------ ----- --<br>----- ----- ---------- --- --- ------ ------ ---- -- ------<br>------- --- ------ ----- --- ---- ------- -- ---- --- --<br>------- ------,262110.20000004768,262108.40000009537,261741.033,261743.80000007153,261757.591,262124.611,,29,The
screen,html.Screen,2_1_1_1_30,2022-02-21T10:50:36.826Z,,,,,,,,,,,,,,,,,54,,,,,,,,,,,,,,391.0890000476793,,response,,,,100,,,,,,,Space,keypress(Space),,,,,,,,-- --- ---- --- ------ ----- ------- ---- -- --- ------- --<br>------- ---------- ------ -- ----- -- ----- -- ---- ------<br>--- ----- --- --- ------ -------- ----- --- market ----- --<br>----- ----- ---------- --- --- ------ ------ ---- -- ------<br>------- --- ------ ----- --- ---- ------- -- ---- --- --<br>------- ------,262517.5,262515.7000000477,262107.758,262110.60000002384,262124.611,262524.25,,30,market
screen,html.Screen,2_1_1_1_31,2022-02-21T10:50:37.167Z,,,,,,,,,,,,,,,,,54,,,,,,,,,,,,,,332.5500000715256,,response,,,,100,,,,,,,Space,keypress(Space),,,,,,,,-- --- ---- --- ------ ----- ------- ---- -- --- ------- --<br>------- ---------- ------ -- ----- -- ----- -- ---- ------<br>--- ----- --- --- ------ -------- ----- --- ------ value --<br>----- ----- ---------- --- --- ------ ------ ---- -- ------<br>------- --- ------ ----- --- ---- ------- -- ---- --- --<br>------- ------,262858.8000000715,262856.8000000715,262507.784,262517.90000009537,262524.25,262874.375,,31,value
screen,html.Screen,2_1_1_1_32,2022-02-21T10:50:37.473Z,,,,,,,,,,,,,,,,,54,,,,,,,,,,,,,,288.625,,response,,,,100,,,,,,,Space,keypress(Space),,,,,,,,-- --- ---- --- ------ ----- ------- ---- -- --- ------- --<br>------- ---------- ------ -- ----- -- ----- -- ---- ------<br>--- ----- --- --- ------ -------- ----- --- ------ ----- of<br>----- ----- ---------- --- --- ------ ------ ---- -- ------<br>------- --- ------ ----- --- ---- ------- -- ---- --- --<br>------- ------,263164.90000009537,263163,262857.72,262859.10000002384,262874.375,263174.977,,32,of
screen,html.Screen,2_1_1_1_33,2022-02-21T10:50:37.877Z,,,,,,,,,,,,,,,,,54,,,,,,,,,,,,,,392.32300007151207,,response,,,,100,,,,,,,Space,keypress(Space),,,,,,,,-- --- ---- --- ------ ----- ------- ---- -- --- ------- --<br>------- ---------- ------ -- ----- -- ----- -- ---- ------<br>--- ----- --- --- ------ -------- ----- --- ------ ----- --<br>these ----- ---------- --- --- ------ ------ ---- -- ------<br>------- --- ------ ----- --- ---- ------- -- ---- --- --<br>------- ------,263569,263567.3000000715,263157.663,263165.3000000715,263174.977,263574.165,,33,these
screen,html.Screen,2_1_1_1_34,2022-02-21T10:50:38.194Z,,,,,,,,,,,,,,,,,54,,,,,,,,,,,,,,309.7350000953884,,response,,,,100,,,,,,,Space,keypress(Space),,,,,,,,-- --- ---- --- ------ ----- ------- ---- -- --- ------- --<br>------- ---------- ------ -- ----- -- ----- -- ---- ------<br>--- ----- --- --- ------ -------- ----- --- ------ ----- --<br>----- bonds ---------- --- --- ------ ------ ---- -- ------<br>------- --- ------ ----- --- ---- ------- -- ---- --- --<br>------- ------,263886,263883.90000009537,263557.587,263569.40000009537,263574.165,263890.825,,34,bonds
screen,html.Screen,2_1_1_1_35,2022-02-21T10:50:38.470Z,,,,,,,,,,,,,,,,,54,,,,,,,,,,,,,,269.2750000238302,,response,,,,100,,,,,,,Space,keypress(Space),,,,,,,,"-- --- ---- --- ------ ----- ------- ---- -- --- ------- --<br>------- ---------- ------ -- ----- -- ----- -- ---- ------<br>--- ----- --- --- ------ -------- ----- --- ------ ----- --<br>----- ----- plummeted, --- --- ------ ------ ---- -- ------<br>------- --- ------ ----- --- ---- ------- -- ---- --- --<br>------- ------",264161.90000009537,264160.10000002384,263874.328,263886.40000009537,263890.825,264174.209,,35,"plummeted,"
screen,html.Screen,2_1_1_1_36,2022-02-21T10:50:38.894Z,,,,,,,,,,,,,,,,,54,,,,,,,,,,,,,,409.29100000002654,,response,,,,100,,,,,,,Space,keypress(Space),,,,,,,,-- --- ---- --- ------ ----- ------- ---- -- --- ------- --<br>------- ---------- ------ -- ----- -- ----- -- ---- ------<br>--- ----- --- --- ------ -------- ----- --- ------ ----- --<br>----- ----- ---------- and --- ------ ------ ---- -- ------<br>------- --- ------ ----- --- ---- ------- -- ---- --- --<br>------- ------,264585.3000000715,264583.5,264157.65,264162.3000000715,264174.209,264590.791,,36,and
screen,html.Screen,2_1_1_1_37,2022-02-21T10:50:39.420Z,,,,,,,,,,,,,,,,,54,,,,,,,,,,,,,,518.2089999999735,,response,,,,100,,,,,,,Space,keypress(Space),,,,,,,,-- --- ---- --- ------ ----- ------- ---- -- --- ------- --<br>------- ---------- ------ -- ----- -- ----- -- ---- ------<br>--- ----- --- --- ------ -------- ----- --- ------ ----- --<br>----- ----- ---------- --- the ------ ------ ---- -- ------<br>------- --- ------ ----- --- ---- ------- -- ---- --- --<br>------- ------,265111.3000000715,265109,264574.316,264585.7000000477,264590.791,265124.157,,37,the
screen,html.Screen,2_1_1_1_38,2022-02-21T10:50:39.689Z,,,,,,,,,,,,,,,,,54,,,,,,,,,,,,,,252.94300002383534,,response,,,,100,,,,,,,Space,keypress(Space),,,,,,,,-- --- ---- --- ------ ----- ------- ---- -- --- ------- --<br>------- ---------- ------ -- ----- -- ----- -- ---- ------<br>--- ----- --- --- ------ -------- ----- --- ------ ----- --<br>----- ----- ---------- --- --- market ------ ---- -- ------<br>------- --- ------ ----- --- ---- ------- -- ---- --- --<br>------- ------,265380.2000000477,265377.10000002384,265107.652,265111.7000000477,265124.157,265390.765,,38,market
screen,html.Screen,2_1_1_1_39,2022-02-21T10:50:39.958Z,,,,,,,,,,,,,,,,,54,,,,,,,,,,,,,,255.13500009535346,,response,,,,100,,,,,,,Space,keypress(Space),,,,,,,,-- --- ---- --- ------ ----- ------- ---- -- --- ------- --<br>------- ---------- ------ -- ----- -- ----- -- ---- ------<br>--- ----- --- --- ------ -------- ----- --- ------ ----- --<br>----- ----- ---------- --- --- ------ became ---- -- ------<br>------- --- ------ ----- --- ---- ------- -- ---- --- --<br>------- ------,265649.2000000477,265645.90000009537,265374.153,265380.60000002384,265390.765,265657.43,,39,became
screen,html.Screen,2_1_1_1_40,2022-02-21T10:50:40.247Z,,,,,,,,,,,,,,,,,54,,,,,,,,,,,,,,279.87000007153256,,response,,,,100,,,,,,,Space,keypress(Space),,,,,,,,-- --- ---- --- ------ ----- ------- ---- -- --- ------- --<br>------- ---------- ------ -- ----- -- ----- -- ---- ------<br>--- ----- --- --- ------ -------- ----- --- ------ ----- --<br>----- ----- ---------- --- --- ------ ------ wary -- ------<br>------- --- ------ ----- --- ---- ------- -- ---- --- --<br>------- ------,265939.10000002384,265937.3000000715,265640.939,265649.7000000477,265657.43,265974.235,,40,wary
screen,html.Screen,2_1_1_1_41,2022-02-21T10:50:40.574Z,,,,,,,,,,,,,,,,,54,,,,,,,,,,,,,,289.8650000238558,,response,,,,100,,,,,,,Space,keypress(Space),,,,,,,,-- --- ---- --- ------ ----- ------- ---- -- --- ------- --<br>------- ---------- ------ -- ----- -- ----- -- ---- ------<br>--- ----- --- --- ------ -------- ----- --- ------ ----- --<br>----- ----- ---------- --- --- ------ ------ ---- of ------<br>------- --- ------ ----- --- ---- ------- -- ---- --- --<br>------- ------,266265.90000009537,266264.10000002384,265957.524,265939.5,265974.235,266275.465,,41,of
screen,html.Screen,2_1_1_1_42,2022-02-21T10:50:40.845Z,,,,,,,,,,,,,,,,,54,,,,,,,,,,,,,,259.0349999999744,,response,,,,100,,,,,,,Space,keypress(Space),,,,,,,,-- --- ---- --- ------ ----- ------- ---- -- --- ------- --<br>------- ---------- ------ -- ----- -- ----- -- ---- ------<br>--- ----- --- --- ------ -------- ----- --- ------ ----- --<br>----- ----- ---------- --- --- ------ ------ ---- -- French<br>------- --- ------ ----- --- ---- ------- -- ---- --- --<br>------- ------,266536.5,266534.5,266257.556,266266.3000000715,266275.465,266540.7,,42,French
screen,html.Screen,2_1_1_1_43,2022-02-21T10:50:41.177Z,,,,,,,,,,,,,,,,,54,,,,,,,,,,,,,,326.2000000953558,,response,,,,100,,,,,,,Space,keypress(Space),,,,,,,,-- --- ---- --- ------ ----- ------- ---- -- --- ------- --<br>------- ---------- ------ -- ----- -- ----- -- ---- ------<br>--- ----- --- --- ------ -------- ----- --- ------ ----- --<br>----- ----- ---------- --- --- ------ ------ ---- -- ------<br>credit. --- ------ ----- --- ---- ------- -- ---- --- --<br>------- ------,266868.8000000715,266866.90000009537,266524.208,266536.90000009537,266540.7,266874.023,,43,credit.
screen,html.Screen,2_1_1_1_44,2022-02-21T10:50:41.729Z,,,,,,,,,,,,,,,,,54,,,,,,,,,,,,,,545.0770000238554,,response,,,,100,,,,,,,Space,keypress(Space),,,,,,,,-- --- ---- --- ------ ----- ------- ---- -- --- ------- --<br>------- ---------- ------ -- ----- -- ----- -- ---- ------<br>--- ----- --- --- ------ -------- ----- --- ------ ----- --<br>----- ----- ---------- --- --- ------ ------ ---- -- ------<br>------- The ------ ----- --- ---- ------- -- ---- --- --<br>------- ------,267420.90000009537,267419.10000002384,266857.533,266869.2000000477,266874.023,267423.968,,44,The
screen,html.Screen,2_1_1_1_45,2022-02-21T10:50:42.070Z,,,,,,,,,,,,,,,,,54,,,,,,,,,,,,,,336.1320000238484,,response,,,,100,,,,,,,Space,keypress(Space),,,,,,,,-- --- ---- --- ------ ----- ------- ---- -- --- ------- --<br>------- ---------- ------ -- ----- -- ----- -- ---- ------<br>--- ----- --- --- ------ -------- ----- --- ------ ----- --<br>----- ----- ---------- --- --- ------ ------ ---- -- ------<br>------- --- French ----- --- ---- ------- -- ---- --- --<br>------- ------,267761.90000009537,267760.10000002384,267407.549,267421.40000009537,267423.968,267773.913,,45,French
screen,html.Screen,2_1_1_1_46,2022-02-21T10:50:42.412Z,,,,,,,,,,,,,,,,,54,,,,,,,,,,,,,,328.08699999999953,,response,,,,100,,,,,,,Space,keypress(Space),,,,,,,,-- --- ---- --- ------ ----- ------- ---- -- --- ------- --<br>------- ---------- ------ -- ----- -- ----- -- ---- ------<br>--- ----- --- --- ------ -------- ----- --- ------ ----- --<br>----- ----- ---------- --- --- ------ ------ ---- -- ------<br>------- --- ------ state --- ---- ------- -- ---- --- --<br>------- ------,268103.90000009537,268102,267757.499,267762.3000000715,267773.913,268107.286,,46,state
screen,html.Screen,2_1_1_1_47,2022-02-21T10:50:42.842Z,,,,,,,,,,,,,,,,,54,,,,,,,,,,,,,,426.61400009534555,,response,,,,100,,,,,,,Space,keypress(Space),,,,,,,,-- --- ---- --- ------ ----- ------- ---- -- --- ------- --<br>------- ---------- ------ -- ----- -- ----- -- ---- ------<br>--- ----- --- --- ------ -------- ----- --- ------ ----- --<br>----- ----- ---------- --- --- ------ ------ ---- -- ------<br>------- --- ------ ----- was ---- ------- -- ---- --- --<br>------- ------,268536,268533.90000009537,268090.81,268104.3000000715,268107.286,268540.615,,47,was
screen,html.Screen,2_1_1_1_48,2022-02-21T10:50:43.138Z,,,,,,,,,,,,,,,,,54,,,,,,,,,,,,,,289.1850000715349,,response,,,,100,,,,,,,Space,keypress(Space),,,,,,,,-- --- ---- --- ------ ----- ------- ---- -- --- ------- --<br>------- ---------- ------ -- ----- -- ----- -- ---- ------<br>--- ----- --- --- ------ -------- ----- --- ------ ----- --<br>----- ----- ---------- --- --- ------ ------ ---- -- ------<br>------- --- ------ ----- --- left ------- -- ---- --- --<br>------- ------,268831.7000000477,268829.8000000715,268524.144,268536.40000009537,268540.615,268841.482,,48,left
screen,html.Screen,2_1_1_1_49,2022-02-21T10:50:43.409Z,,,,,,,,,,,,,,,,,54,,,,,,,,,,,,,,259.6180000238237,,response,,,,100,,,,,,,Space,keypress(Space),,,,,,,,-- --- ---- --- ------ ----- ------- ---- -- --- ------- --<br>------- ---------- ------ -- ----- -- ----- -- ---- ------<br>--- ----- --- --- ------ -------- ----- --- ------ ----- --<br>----- ----- ---------- --- --- ------ ------ ---- -- ------<br>------- --- ------ ----- --- ---- without -- ---- --- --<br>------- ------,269103,269101.10000002384,268824.106,268832.10000002384,268841.482,269107.28,,49,without
screen,html.Screen,2_1_1_1_50,2022-02-21T10:50:43.832Z,,,,,,,,,,,,,,,,,54,,,,,,,,,,,,,,417.4200000476558,,response,,,,100,,,,,,,Space,keypress(Space),,,,,,,,-- --- ---- --- ------ ----- ------- ---- -- --- ------- --<br>------- ---------- ------ -- ----- -- ----- -- ---- ------<br>--- ----- --- --- ------ -------- ----- --- ------ ----- --<br>----- ----- ---------- --- --- ------ ------ ---- -- ------<br>------- --- ------ ----- --- ---- ------- an ---- --- --<br>------- ------,269526.40000009537,269524.7000000477,269100.987,269103.5,269107.28,269540.613,,50,an
screen,html.Screen,2_1_1_1_51,2022-02-21T10:50:44.174Z,,,,,,,,,,,,,,,,,54,,,,,,,,,,,,,,325.7870000953553,,response,,,,100,,,,,,,Space,keypress(Space),,,,,,,,-- --- ---- --- ------ ----- ------- ---- -- --- ------- --<br>------- ---------- ------ -- ----- -- ----- -- ---- ------<br>--- ----- --- --- ------ -------- ----- --- ------ ----- --<br>----- ----- ---------- --- --- ------ ------ ---- -- ------<br>------- --- ------ ----- --- ---- ------- -- easy --- --<br>------- ------,269868.2000000477,269866.40000009537,269523.982,269526.90000009537,269540.613,269873.885,,51,easy
screen,html.Screen,2_1_1_1_52,2022-02-21T10:50:44.553Z,,,,,,,,,,,,,,,,,54,,,,,,,,,,,,,,371.1149999999907,,response,,,,100,,,,,,,Space,keypress(Space),,,,,,,,-- --- ---- --- ------ ----- ------- ---- -- --- ------- --<br>------- ---------- ------ -- ----- -- ----- -- ---- ------<br>--- ----- --- --- ------ -------- ----- --- ------ ----- --<br>----- ----- ---------- --- --- ------ ------ ---- -- ------<br>------- --- ------ ----- --- ---- ------- -- ---- way --<br>------- ------,270246.8000000715,270245,269857.4,269868.5,269873.885,270257.633,,52,way
screen,html.Screen,2_1_1_1_53,2022-02-21T10:50:44.926Z,,,,,,,,,,,,,,,,,54,,,,,,,,,,,,,,360.3670000000275,,response,,,,100,,,,,,,Space,keypress(Space),,,,,,,,-- --- ---- --- ------ ----- ------- ---- -- --- ------- --<br>------- ---------- ------ -- ----- -- ----- -- ---- ------<br>--- ----- --- --- ------ -------- ----- --- ------ ----- --<br>----- ----- ---------- --- --- ------ ------ ---- -- ------<br>------- --- ------ ----- --- ---- ------- -- ---- --- of<br>------- ------,270619.8000000715,270618,270240.603,270247.3000000715,270257.633,270623.835,,53,of
screen,html.Screen,2_1_1_1_54,2022-02-21T10:50:45.314Z,,,,,,,,,,,,,,,,,54,,,,,,,,,,,,,,382.36500004766276,,response,,,,100,,,,,,,Space,keypress(Space),,,,,,,,-- --- ---- --- ------ ----- ------- ---- -- --- ------- --<br>------- ---------- ------ -- ----- -- ----- -- ---- ------<br>--- ----- --- --- ------ -------- ----- --- ------ ----- --<br>----- ----- ---------- --- --- ------ ------ ---- -- ------<br>------- --- ------ ----- --- ---- ------- -- ---- --- --<br>raising ------,271008,271006.2000000477,270607.255,270620.2000000477,270623.835,271023.872,,54,raising
screen,html.Screen,2_1_1_1_55,2022-02-21T10:50:45.701Z,,,,,,,,,,,,,,,,,54,,,,,,,,,,,,,,369.42800007155165,,response,,,,100,,,,,,,Space,keypress(Space),,,,,,,,-- --- ---- --- ------ ----- ------- ---- -- --- ------- --<br>------- ---------- ------ -- ----- -- ----- -- ---- ------<br>--- ----- --- --- ------ -------- ----- --- ------ ----- --<br>----- ----- ---------- --- --- ------ ------ ---- -- ------<br>------- --- ------ ----- --- ---- ------- -- ---- --- --<br>------- money.,271395.3000000715,271393.3000000715,271007.359,271008.40000009537,271023.872,271407.183,,55,money.
Item 100,flow.Loop,2_1_1_1,2022-02-21T10:50:45.702Z,,,,,,,,,,,,,,,,,,,,,,,,,,,,,,,21168.510000071517,,completion,,,,,B,,,,,,,,,,,silence,,,,,271396,271393.3000000715,250208.246,250211,250224.79,271407.183,,,
Question 1,html.Screen,2_1_1_2,2022-02-21T10:50:48.158Z,,,,,,,,,,,,,,,,,,,,,,,,,,,,true,TRUE,,2441.7170000953483,,response,,,,100,B,,,,,,TRUE,click #choice-1,,,,silence,,,,,273851.90000009537,273848.90000009537,271390.508,271396.3000000715,271407.183,273857.055,,,
Question 2,html.Screen,2_1_1_3,2022-02-21T10:50:50.401Z,,,,,,,,,,,,,,,,,,,,,,,,,,,,false,FALSE,,2233.8450000953744,,response,,,,100,B,,,,,,TRUE,click #choice-1,,,,silence,,,,,276094.90000009537,276090.90000009537,273840.527,273852.3000000715,273857.055,276110.408,,,
Item 100,flow.Sequence,2_1_1,2022-02-21T10:50:50.402Z,,,,,,,,,,,,,,,,,,,,,,,,,,,,,,,35865.70600009538,,completion,,,,,,,,,,,,,,,,,,,,,276095.60000002384,276090.90000009537,240208.743,240221.10000002384,240225.194,276110.408,,,
End of Practice,html.Page,2_1_2,2022-02-21T10:50:55.794Z,,,,,,,,,,,,,,,,,,,,,,,,,,,,,,,5376.592000000004,,form submission,,,,,,,,,,,,,,,,,,,,,281487.60000002384,281487,276090.427,276095.90000009537,276110.408,281490.033,,,
Practice,flow.Sequence,2_1,2022-02-21T10:50:55.794Z,,,,,,,,,,,,,,,,,,,,,,,,,,,,,,,83276.464,,completion,,,,,,,,,,,,,,,,,,,,,281488.2000000477,281487,198177.332,198199.20000004768,198210.536,281490.033,,,
Trap_instruction,html.Page,2_2_0,2022-02-21T10:51:01.088Z,,,,,,,,,,,,,,,,,,,,,,,,,,,,,,,5291.567000023846,,form submission,,,,,,,,,,,,,,,,,,,,,286782.3000000715,286781.60000002384,281473.521,281488.7000000477,281490.033,286873.128,,,
trap_trial,html.Screen,2_2_1,2022-02-21T10:51:05.571Z,,,,,,,,,,,,,,,,,,,,,,,,,,,,true,1,,4388.871999999974,,response,,,,,,,,,,,1,click #choice-1,,,,,,,,,291265.10000002384,291262,286773.266,286782.60000002384,286873.128,291272.921,,,
end of trap trial,html.Page,2_2_2,2022-02-21T10:51:07.692Z,,,,,,,,,,,,,,,,,,,,,,,,,,,,,,,2111.9790000953944,,form submission,,,,,,,,,,,,,,,,,,,,,293385.60000002384,293384.90000009537,291256.314,291265.5,291272.921,293389.493,,,
Trap 1,flow.Sequence,2_2,2022-02-21T10:51:07.692Z,,,,,,,,,,,,,,,,,,,,,,,,,,,,,,,11894.867000095372,,completion,,,,,,,,,,,,,,,,,,,,,293386.2000000477,293384.90000009537,281473.521,281488.5,281490.033,293389.493,,,
Standby,html.Page,2_3_0,2022-02-21T10:51:15.681Z,,,,,,,,,,,,,,,,,,,,,,,,,,,,,,,7999.641999999993,,timeout,,,,,,,,,,,,,,,,,,,,,301374.7000000477,301372.566,293372.942,293386.60000002384,293389.493,301389.135,,,
Holding screen,html.Screen,2_3_1_0_0,2022-02-21T10:51:22.680Z,,,,,,,,,,,,,,,,,,,,,,,,,,,,,,,6999.82699999999,,timeout,,,,,,,,,,,,,,,,,,,,,308374.3000000715,308372.244,301372.566,301375.40000009537,301389.135,308388.962,,,
screen,html.Screen,2_3_1_0_1_0,2022-02-21T10:51:23.550Z,,,,,,,,,,,,,,,,,11,,,,,,,,,,,,,,851.838000071526,,response,,,,4,B,,,,,,Space,keypress(Space),,,,lyrical,,,,Known -- ---- --- -- --- -------- ------------ ---------- --<br>- ------- ------ --------- -- ------------ -- --- ---- -----<br>------ ---- ---- ------ ------ ------- --- ----- ---------<br>---- --- -------- -------- --- --- -- ------- --- --- -----<br>-- --- ------ ------- --- --- -------- ---- --------- --<br>---------- -- -------- ----------------,309243.7000000477,309240.8000000715,308372.244,308374.90000009537,308388.962,309255.419,,0,Known
screen,html.Screen,2_3_1_0_1_1,2022-02-21T10:51:23.965Z,,,,,,,,,,,,,,,,,11,,,,,,,,,,,,,,401.18100002384745,,response,,,,4,B,,,,,,Space,keypress(Space),,,,lyrical,,,,----- as ---- --- -- --- -------- ------------ ---------- --<br>- ------- ------ --------- -- ------------ -- --- ---- -----<br>------ ---- ---- ------ ------ ------- --- ----- ---------<br>---- --- -------- -------- --- --- -- ------- --- --- -----<br>-- --- ------ ------- --- --- -------- ---- --------- --<br>---------- -- -------- ----------------,309658.7000000477,309656.60000002384,309239.027,309244.2000000477,309255.419,309672.049,,1,as
screen,html.Screen,2_3_1_0_1_2,2022-02-21T10:51:24.404Z,,,,,,,,,,,,,,,,,11,,,,,,,,,,,,,,423.7510000715265,,response,,,,4,B,,,,,,Space,keypress(Space),,,,lyrical,,,,----- -- Rapa --- -- --- -------- ------------ ---------- --<br>- ------- ------ --------- -- ------------ -- --- ---- -----<br>------ ---- ---- ------ ------ ------- --- ----- ---------<br>---- --- -------- -------- --- --- -- ------- --- --- -----<br>-- --- ------ ------- --- --- -------- ---- --------- --<br>---------- -- -------- ----------------,310098.3000000715,310095.8000000715,309655.589,309659.2000000477,309672.049,310105.391,,2,Rapa
screen,html.Screen,2_3_1_0_1_3,2022-02-21T10:51:24.987Z,,,,,,,,,,,,,,,,,11,,,,,,,,,,,,,,573.2090000238386,,response,,,,4,B,,,,,,Space,keypress(Space),,,,lyrical,,,,----- -- ---- Nui -- --- -------- ------------ ---------- --<br>- ------- ------ --------- -- ------------ -- --- ---- -----<br>------ ---- ---- ------ ------ ------- --- ----- ---------<br>---- --- -------- -------- --- --- -- ------- --- --- -----<br>-- --- ------ ------- --- --- -------- ---- --------- --<br>---------- -- -------- ----------------,310680.40000009537,310678.60000002384,310088.905,310098.60000002384,310105.391,310689.929,,3,Nui
screen,html.Screen,2_3_1_0_1_4,2022-02-21T10:51:25.380Z,,,,,,,,,,,,,,,,,11,,,,,,,,,,,,,,382.4710000953637,,response,,,,4,B,,,,,,Space,keypress(Space),,,,lyrical,,,,----- -- ---- --- to --- -------- ------------ ---------- --<br>- ------- ------ --------- -- ------------ -- --- ---- -----<br>------ ---- ---- ------ ------ ------- --- ----- ---------<br>---- --- -------- -------- --- --- -- ------- --- --- -----<br>-- --- ------ ------- --- --- -------- ---- --------- --<br>---------- -- -------- ----------------,311074.10000002384,311072.40000009537,310672.239,310680.90000009537,310689.929,311088.826,,4,to
screen,html.Screen,2_3_1_0_1_5,2022-02-21T10:51:25.717Z,,,,,,,,,,,,,,,,,11,,,,,,,,,,,,,,320.17399999999907,,response,,,,4,B,,,,,,Space,keypress(Space),,,,lyrical,,,,----- -- ---- --- -- the -------- ------------ ---------- --<br>- ------- ------ --------- -- ------------ -- --- ---- -----<br>------ ---- ---- ------ ------ ------- --- ----- ---------<br>---- --- -------- -------- --- --- -- ------- --- --- -----<br>-- --- ------ ------- --- --- -------- ---- --------- --<br>---------- -- -------- ----------------,311410.8000000715,311409,311072.185,311074.60000002384,311088.826,311422.285,,5,the
screen,html.Screen,2_3_1_0_1_6,2022-02-21T10:51:26.111Z,,,,,,,,,,,,,,,,,11,,,,,,,,,,,,,,380.9150000477093,,response,,,,4,B,,,,,,Space,keypress(Space),,,,lyrical,,,,----- -- ---- --- -- --- island's ------------ ---------- --<br>- ------- ------ --------- -- ------------ -- --- ---- -----<br>------ ---- ---- ------ ------ ------- --- ----- ---------<br>---- --- -------- -------- --- --- -- ------- --- --- -----<br>-- --- ------ ------- --- --- -------- ---- --------- --<br>---------- -- -------- ----------------,311805,311803.2000000477,311405.408,311411.10000002384,311422.285,311822.131,,6,island's
screen,html.Screen,2_3_1_0_1_7,2022-02-21T10:51:26.688Z,,,,,,,,,,,,,,,,,11,,,,,,,,,,,,,,557.9690000238479,,response,,,,4,B,,,,,,Space,keypress(Space),,,,lyrical,,,,"----- -- ---- --- -- --- -------- inhabitants, ---------- --<br>- ------- ------ --------- -- ------------ -- --- ---- -----<br>------ ---- ---- ------ ------ ------- --- ----- ---------<br>---- --- -------- -------- --- --- -- ------- --- --- -----<br>-- --- ------ ------- --- --- -------- ---- --------- --<br>---------- -- -------- ----------------",312382,312380.10000002384,311805.482,311805.40000009537,311822.131,312388.612,,7,"inhabitants,"
screen,html.Screen,2_3_1_0_1_8,2022-02-21T10:51:27.371Z,,,,,,,,,,,,,,,,,11,,,,,,,,,,,,,,674.988000023819,,response,,,,4,B,,,,,,Space,keypress(Space),,,,lyrical,,,,----- -- ---- --- -- --- -------- ------------ Rongorongo --<br>- ------- ------ --------- -- ------------ -- --- ---- -----<br>------ ---- ---- ------ ------ ------- --- ----- ---------<br>---- --- -------- -------- --- --- -- ------- --- --- -----<br>-- --- ------ ------- --- --- -------- ---- --------- --<br>---------- -- -------- ----------------,313065.3000000715,313063.60000002384,312372.16,312382.40000009537,312388.612,313071.961,,8,Rongorongo
screen,html.Screen,2_3_1_0_1_9,2022-02-21T10:51:27.787Z,,,,,,,,,,,,,,,,,11,,,,,,,,,,,,,,406.73900004767347,,response,,,,4,B,,,,,,Space,keypress(Space),,,,lyrical,,,,----- -- ---- --- -- --- -------- ------------ ---------- is<br>- ------- ------ --------- -- ------------ -- --- ---- -----<br>------ ---- ---- ------ ------ ------- --- ----- ---------<br>---- --- -------- -------- --- --- -- ------- --- --- -----<br>-- --- ------ ------- --- --- -------- ---- --------- --<br>---------- -- -------- ----------------,313480.5,313478.7000000477,313055.491,313065.7000000477,313071.961,313489.898,,9,is
screen,html.Screen,2_3_1_0_1_10,2022-02-21T10:51:28.179Z,,,,,,,,,,,,,,,,,11,,,,,,,,,,,,,,381.3020000476972,,response,,,,4,B,,,,,,Space,keypress(Space),,,,lyrical,,,,----- -- ---- --- -- --- -------- ------------ ---------- --<br>a ------- ------ --------- -- ------------ -- --- ---- -----<br>------ ---- ---- ------ ------ ------- --- ----- ---------<br>---- --- -------- -------- --- --- -- ------- --- --- -----<br>-- --- ------ ------- --- --- -------- ---- --------- --<br>---------- -- -------- ----------------,313873,313871.2000000477,313472.164,313481,313489.898,313888.706,,10,a
screen,html.Screen,2_3_1_0_1_11,2022-02-21T10:51:28.577Z,,,,,,,,,,,,,,,,,11,,,,,,,,,,,,,,380.69400009536184,,response,,,,4,B,,,,,,Space,keypress(Space),,,,lyrical,,,,----- -- ---- --- -- --- -------- ------------ ---------- --<br>- writing ------ --------- -- ------------ -- --- ---- -----<br>------ ---- ---- ------ ------ ------- --- ----- ---------<br>---- --- -------- -------- --- --- -- ------- --- --- -----<br>-- --- ------ ------- --- --- -------- ---- --------- --<br>---------- -- -------- ----------------,314271.2000000477,314269.40000009537,313872.057,313873.40000009537,313888.706,314288.684,,11,writing
screen,html.Screen,2_3_1_0_1_12,2022-02-21T10:51:28.951Z,,,,,,,,,,,,,,,,,11,,,,,,,,,,,,,,354.8159999999916,,response,,,,4,B,,,,,,Space,keypress(Space),,,,lyrical,,,,----- -- ---- --- -- --- -------- ------------ ---------- --<br>- ------- system --------- -- ------------ -- --- ---- -----<br>------ ---- ---- ------ ------ ------- --- ----- ---------<br>---- --- -------- -------- --- --- -- ------- --- --- -----<br>-- --- ------ ------- --- --- -------- ---- --------- --<br>---------- -- -------- ----------------,314645.3000000715,314643.5,314272.096,314271.5,314288.684,314655.213,,12,system
screen,html.Screen,2_3_1_0_1_13,2022-02-21T10:51:29.318Z,,,,,,,,,,,,,,,,,11,,,,,,,,,,,,,,355.2870000000112,,response,,,,4,B,,,,,,Space,keypress(Space),,,,lyrical,,,,----- -- ---- --- -- --- -------- ------------ ---------- --<br>- ------- ------ comprised -- ------------ -- --- ---- -----<br>------ ---- ---- ------ ------ ------- --- ----- ---------<br>---- --- -------- -------- --- --- -- ------- --- --- -----<br>-- --- ------ ------- --- --- -------- ---- --------- --<br>---------- -- -------- ----------------,315012.40000009537,315010.5,314638.685,314645.8000000715,314655.213,315022.216,,13,comprised
screen,html.Screen,2_3_1_0_1_14,2022-02-21T10:51:29.755Z,,,,,,,,,,,,,,,,,11,,,,,,,,,,,,,,423.9840000476688,,response,,,,4,B,,,,,,Space,keypress(Space),,,,lyrical,,,,----- -- ---- --- -- --- -------- ------------ ---------- --<br>- ------- ------ --------- of ------------ -- --- ---- -----<br>------ ---- ---- ------ ------ ------- --- ----- ---------<br>---- --- -------- -------- --- --- -- ------- --- --- -----<br>-- --- ------ ------- --- --- -------- ---- --------- --<br>---------- -- -------- ----------------,315448.60000002384,315446.2000000477,315005.336,315012.7000000477,315022.216,315455.167,,14,of
screen,html.Screen,2_3_1_0_1_15,2022-02-21T10:51:30.172Z,,,,,,,,,,,,,,,,,11,,,,,,,,,,,,,,409.433000023826,,response,,,,4,B,,,,,,Space,keypress(Space),,,,lyrical,,,,----- -- ---- --- -- --- -------- ------------ ---------- --<br>- ------- ------ --------- -- pictographs. -- --- ---- -----<br>------ ---- ---- ------ ------ ------- --- ----- ---------<br>---- --- -------- -------- --- --- -- ------- --- --- -----<br>-- --- ------ ------- --- --- -------- ---- --------- --<br>---------- -- -------- ----------------,315866.5,315864.60000002384,315438.634,315448.90000009537,315455.167,315871.772,,15,pictographs.
screen,html.Screen,2_3_1_0_1_16,2022-02-21T10:51:30.662Z,,,,,,,,,,,,,,,,,11,,,,,,,,,,,,,,482.82800002384465,,response,,,,4,B,,,,,,Space,keypress(Space),,,,lyrical,,,,----- -- ---- --- -- --- -------- ------------ ---------- --<br>- ------- ------ --------- -- ------------ It --- ---- -----<br>------ ---- ---- ------ ------ ------- --- ----- ---------<br>---- --- -------- -------- --- --- -- ------- --- --- -----<br>-- --- ------ ------- --- --- -------- ---- --------- --<br>---------- -- -------- ----------------,316356.40000009537,316354.60000002384,315855.308,315867,315871.772,316371.921,,16,It
screen,html.Screen,2_3_1_0_1_17,2022-02-21T10:51:31.198Z,,,,,,,,,,,,,,,,,11,,,,,,,,,,,,,,517.9790000953944,,response,,,,4,B,,,,,,Space,keypress(Space),,,,lyrical,,,,----- -- ---- --- -- --- -------- ------------ ---------- --<br>- ------- ------ --------- -- ------------ -- has ---- -----<br>------ ---- ---- ------ ------ ------- --- ----- ---------<br>---- --- -------- -------- --- --- -- ------- --- --- -----<br>-- --- ------ ------- --- --- -------- ---- --------- --<br>---------- -- -------- ----------------,316891.60000002384,316889.90000009537,316355.175,316357.10000002384,316371.921,316905.208,,17,has
screen,html.Screen,2_3_1_0_1_18,2022-02-21T10:51:31.545Z,,,,,,,,,,,,,,,,,11,,,,,,,,,,,,,,331.99200004769955,,response,,,,4,B,,,,,,Space,keypress(Space),,,,lyrical,,,,----- -- ---- --- -- --- -------- ------------ ---------- --<br>- ------- ------ --------- -- ------------ -- --- been -----<br>------ ---- ---- ------ ------ ------- --- ----- ---------<br>---- --- -------- -------- --- --- -- ------- --- --- -----<br>-- --- ------ ------- --- --- -------- ---- --------- --<br>---------- -- -------- ----------------,317239,317237.2000000477,316888.612,316892.10000002384,316905.208,317255.218,,18,been
screen,html.Screen,2_3_1_0_1_19,2022-02-21T10:51:31.857Z,,,,,,,,,,,,,,,,,11,,,,,,,,,,,,,,293.68200009537395,,response,,,,4,B,,,,,,Space,keypress(Space),,,,lyrical,,,,----- -- ---- --- -- --- -------- ------------ ---------- --<br>- ------- ------ --------- -- ------------ -- --- ---- found<br>------ ---- ---- ------ ------ ------- --- ----- ---------<br>---- --- -------- -------- --- --- -- ------- --- --- -----<br>-- --- ------ ------- --- --- -------- ---- --------- --<br>---------- -- -------- ----------------,317550.60000002384,317548.90000009537,317238.454,317241.3000000715,317255.218,317555.027,,19,found
screen,html.Screen,2_3_1_0_1_20,2022-02-21T10:51:32.236Z,,,,,,,,,,,,,,,,,11,,,,,,,,,,,,,,373.57300002384,,response,,,,4,B,,,,,,Space,keypress(Space),,,,lyrical,,,,----- -- ---- --- -- --- -------- ------------ ---------- --<br>- ------- ------ --------- -- ------------ -- --- ---- -----<br>carved ---- ---- ------ ------ ------- --- ----- ---------<br>---- --- -------- -------- --- --- -- ------- --- --- -----<br>-- --- ------ ------- --- --- -------- ---- --------- --<br>---------- -- -------- ----------------,317930.5,317928.60000002384,317538.541,317551,317555.027,317939.484,,20,carved
screen,html.Screen,2_3_1_0_1_21,2022-02-21T10:51:32.597Z,,,,,,,,,,,,,,,,,11,,,,,,,,,,,,,,349.31600007152883,,response,,,,4,B,,,,,,Space,keypress(Space),,,,lyrical,,,,----- -- ---- --- -- --- -------- ------------ ---------- --<br>- ------- ------ --------- -- ------------ -- --- ---- -----<br>------ into ---- ------ ------ ------- --- ----- ---------<br>---- --- -------- -------- --- --- -- ------- --- --- -----<br>-- --- ------ ------- --- --- -------- ---- --------- --<br>---------- -- -------- ----------------,318290.7000000477,318288.8000000715,317921.869,317930.8000000715,317939.484,318305.17,,21,into
screen,html.Screen,2_3_1_0_1_22,2022-02-21T10:51:32.907Z,,,,,,,,,,,,,,,,,11,,,,,,,,,,,,,,293.8300000000163,,response,,,,4,B,,,,,,Space,keypress(Space),,,,lyrical,,,,----- -- ---- --- -- --- -------- ------------ ---------- --<br>- ------- ------ --------- -- ------------ -- --- ---- -----<br>------ ---- many ------ ------ ------- --- ----- ---------<br>---- --- -------- -------- --- --- -- ------- --- --- -----<br>-- --- ------ ------- --- --- -------- ---- --------- --<br>---------- -- -------- ----------------,318600.90000009537,318599,318288.517,318291,318305.17,318604.973,,22,many
screen,html.Screen,2_3_1_0_1_23,2022-02-21T10:51:33.248Z,,,,,,,,,,,,,,,,,11,,,,,,,,,,,,,,335.52700000000186,,response,,,,4,B,,,,,,Space,keypress(Space),,,,lyrical,,,,----- -- ---- --- -- --- -------- ------------ ---------- --<br>- ------- ------ --------- -- ------------ -- --- ---- -----<br>------ ---- ---- oblong ------ ------- --- ----- ---------<br>---- --- -------- -------- --- --- -- ------- --- --- -----<br>-- --- ------ ------- --- --- -------- ---- --------- --<br>---------- -- -------- ----------------,318942.40000009537,318940.5,318588.486,318601.3000000715,318604.973,318955.219,,23,oblong
screen,html.Screen,2_3_1_0_1_24,2022-02-21T10:51:33.700Z,,,,,,,,,,,,,,,,,11,,,,,,,,,,,,,,436.0810000715428,,response,,,,4,B,,,,,,Space,keypress(Space),,,,lyrical,,,,----- -- ---- --- -- --- -------- ------------ ---------- --<br>- ------- ------ --------- -- ------------ -- --- ---- -----<br>------ ---- ---- ------ wooden ------- --- ----- ---------<br>---- --- -------- -------- --- --- -- ------- --- --- -----<br>-- --- ------ ------- --- --- -------- ---- --------- --<br>---------- -- -------- ----------------,319394.2000000477,319391.3000000715,318938.489,318942.8000000715,318955.219,319404.948,,24,wooden
screen,html.Screen,2_3_1_0_1_25,2022-02-21T10:51:34.129Z,,,,,,,,,,,,,,,,,11,,,,,,,,,,,,,,415.9520000953926,,response,,,,4,B,,,,,,Space,keypress(Space),,,,lyrical,,,,----- -- ---- --- -- --- -------- ------------ ---------- --<br>- ------- ------ --------- -- ------------ -- --- ---- -----<br>------ ---- ---- ------ ------ tablets --- ----- ---------<br>---- --- -------- -------- --- --- -- ------- --- --- -----<br>-- --- ------ ------- --- --- -------- ---- --------- --<br>---------- -- -------- ----------------,319822.7000000477,319820.90000009537,319388.413,319394.7000000477,319404.948,319838.442,,25,tablets
screen,html.Screen,2_3_1_0_1_26,2022-02-21T10:51:34.571Z,,,,,,,,,,,,,,,,,11,,,,,,,,,,,,,,424.7580000477028,,response,,,,4,B,,,,,,Space,keypress(Space),,,,lyrical,,,,----- -- ---- --- -- --- -------- ------------ ---------- --<br>- ------- ------ --------- -- ------------ -- --- ---- -----<br>------ ---- ---- ------ ------ ------- and ----- ---------<br>---- --- -------- -------- --- --- -- ------- --- --- -----<br>-- --- ------ ------- --- --- -------- ---- --------- --<br>---------- -- -------- ----------------,320265,320263.2000000477,319821.799,319823.10000002384,319838.442,320271.567,,26,and
screen,html.Screen,2_3_1_0_1_27,2022-02-21T10:51:35.040Z,,,,,,,,,,,,,,,,,11,,,,,,,,,,,,,,460.6330000477028,,response,,,,4,B,,,,,,Space,keypress(Space),,,,lyrical,,,,----- -- ---- --- -- --- -------- ------------ ---------- --<br>- ------- ------ --------- -- ------------ -- --- ---- -----<br>------ ---- ---- ------ ------ ------- --- other ---------<br>---- --- -------- -------- --- --- -- ------- --- --- -----<br>-- --- ------ ------- --- --- -------- ---- --------- --<br>---------- -- -------- ----------------,320734,320732.2000000477,320255.099,320265.3000000715,320271.567,320738.217,,27,other
screen,html.Screen,2_3_1_0_1_28,2022-02-21T10:51:35.489Z,,,,,,,,,,,,,,,,,11,,,,,,,,,,,,,,443.68300009536324,,response,,,,4,B,,,,,,Space,keypress(Space),,,,lyrical,,,,----- -- ---- --- -- --- -------- ------------ ---------- --<br>- ------- ------ --------- -- ------------ -- --- ---- -----<br>------ ---- ---- ------ ------ ------- --- ----- artifacts<br>---- --- -------- -------- --- --- -- ------- --- --- -----<br>-- --- ------ ------- --- --- -------- ---- --------- --<br>---------- -- -------- ----------------,321182.8000000715,321181.90000009537,320721.719,320734.40000009537,320738.217,321188.139,,28,artifacts
screen,html.Screen,2_3_1_0_1_29,2022-02-21T10:51:36.057Z,,,,,,,,,,,,,,,,,11,,,,,,,,,,,,,,560.6610000715009,,response,,,,4,B,,,,,,Space,keypress(Space),,,,lyrical,,,,----- -- ---- --- -- --- -------- ------------ ---------- --<br>- ------- ------ --------- -- ------------ -- --- ---- -----<br>------ ---- ---- ------ ------ ------- --- ----- ---------<br>from --- -------- -------- --- --- -- ------- --- --- -----<br>-- --- ------ ------- --- --- -------- ---- --------- --<br>---------- -- -------- ----------------,321750.60000002384,321748.8000000715,321171.726,321183.10000002384,321188.139,321754.828,,29,from
screen,html.Screen,2_3_1_0_1_30,2022-02-21T10:51:36.419Z,,,,,,,,,,,,,,,,,11,,,,,,,,,,,,,,356.47200007154606,,response,,,,4,B,,,,,,Space,keypress(Space),,,,lyrical,,,,----- -- ---- --- -- --- -------- ------------ ---------- --<br>- ------- ------ --------- -- ------------ -- --- ---- -----<br>------ ---- ---- ------ ------ ------- --- ----- ---------<br>---- the -------- -------- --- --- -- ------- --- --- -----<br>-- --- ------ ------- --- --- -------- ---- --------- --<br>---------- -- -------- ----------------,322113.10000002384,322111.3000000715,321738.304,321751,321754.828,322122.08,,30,the
screen,html.Screen,2_3_1_0_1_31,2022-02-21T10:51:37.067Z,,,,,,,,,,,,,,,,,11,,,,,,,,,,,,,,637.1200000476674,,response,,,,4,B,,,,,,Space,keypress(Space),,,,lyrical,,,,----- -- ---- --- -- --- -------- ------------ ---------- --<br>- ------- ------ --------- -- ------------ -- --- ---- -----<br>------ ---- ---- ------ ------ ------- --- ----- ---------<br>---- --- island's -------- --- --- -- ------- --- --- -----<br>-- --- ------ ------- --- --- -------- ---- --------- --<br>---------- -- -------- ----------------,322761.10000002384,322759.2000000477,322105.007,322113.60000002384,322122.08,322771.448,,31,island's
screen,html.Screen,2_3_1_0_1_32,2022-02-21T10:51:37.475Z,,,,,,,,,,,,,,,,,11,,,,,,,,,,,,,,395.8520000715507,,response,,,,4,B,,,,,,Space,keypress(Space),,,,lyrical,,,,----- -- ---- --- -- --- -------- ------------ ---------- --<br>- ------- ------ --------- -- ------------ -- --- ---- -----<br>------ ---- ---- ------ ------ ------- --- ----- ---------<br>---- --- -------- history. --- --- -- ------- --- --- -----<br>-- --- ------ ------- --- --- -------- ---- --------- --<br>---------- -- -------- ----------------,323169.10000002384,323167.3000000715,322755.03,322761.5,322771.448,323201.15,,32,history.
screen,html.Screen,2_3_1_0_1_33,2022-02-21T10:51:38.130Z,,,,,,,,,,,,,,,,,11,,,,,,,,,,,,,,619.4500000238186,,response,,,,4,B,,,,,,Space,keypress(Space),,,,lyrical,,,,----- -- ---- --- -- --- -------- ------------ ---------- --<br>- ------- ------ --------- -- ------------ -- --- ---- -----<br>------ ---- ---- ------ ------ ------- --- ----- ---------<br>---- --- -------- -------- The --- -- ------- --- --- -----<br>-- --- ------ ------- --- --- -------- ---- --------- --<br>---------- -- -------- ----------------,323823.5,323820.60000002384,323154.874,323169.5,323201.15,323838.097,,33,The
screen,html.Screen,2_3_1_0_1_34,2022-02-21T10:51:38.527Z,,,,,,,,,,,,,,,,,11,,,,,,,,,,,,,,381.10300004767487,,response,,,,4,B,,,,,,Space,keypress(Space),,,,lyrical,,,,----- -- ---- --- -- --- -------- ------------ ---------- --<br>- ------- ------ --------- -- ------------ -- --- ---- -----<br>------ ---- ---- ------ ------ ------- --- ----- ---------<br>---- --- -------- -------- --- art -- ------- --- --- -----<br>-- --- ------ ------- --- --- -------- ---- --------- --<br>---------- -- -------- ----------------,324221,324219.2000000477,323821.543,323823.90000009537,323838.097,324238.153,,34,art
screen,html.Screen,2_3_1_0_1_35,2022-02-21T10:51:38.894Z,,,,,,,,,,,,,,,,,11,,,,,,,,,,,,,,347.34700000000885,,response,,,,4,B,,,,,,Space,keypress(Space),,,,lyrical,,,,----- -- ---- --- -- --- -------- ------------ ---------- --<br>- ------- ------ --------- -- ------------ -- --- ---- -----<br>------ ---- ---- ------ ------ ------- --- ----- ---------<br>---- --- -------- -------- --- --- of ------- --- --- -----<br>-- --- ------ ------- --- --- -------- ---- --------- --<br>---------- -- -------- ----------------,324588,324585.5,324221.591,324221.40000009537,324238.153,324604.883,,35,of
screen,html.Screen,2_3_1_0_1_36,2022-02-21T10:51:39.354Z,,,,,,,,,,,,,,,,,11,,,,,,,,,,,,,,440.5170000953949,,response,,,,4,B,,,,,,Space,keypress(Space),,,,lyrical,,,,----- -- ---- --- -- --- -------- ------------ ---------- --<br>- ------- ------ --------- -- ------------ -- --- ---- -----<br>------ ---- ---- ------ ------ ------- --- ----- ---------<br>---- --- -------- -------- --- --- -- writing --- --- -----<br>-- --- ------ ------- --- --- -------- ---- --------- --<br>---------- -- -------- ----------------,325047.60000002384,325045.40000009537,324588.226,324588.3000000715,324604.883,325054.687,,36,writing
screen,html.Screen,2_3_1_0_1_37,2022-02-21T10:51:39.828Z,,,,,,,,,,,,,,,,,11,,,,,,,,,,,,,,465.51300004770746,,response,,,,4,B,,,,,,Space,keypress(Space),,,,lyrical,,,,----- -- ---- --- -- --- -------- ------------ ---------- --<br>- ------- ------ --------- -- ------------ -- --- ---- -----<br>------ ---- ---- ------ ------ ------- --- ----- ---------<br>---- --- -------- -------- --- --- -- ------- was --- -----<br>-- --- ------ ------- --- --- -------- ---- --------- --<br>---------- -- -------- ----------------,325522,325520.2000000477,325038.221,325047.90000009537,325054.687,325538.255,,37,was
screen,html.Screen,2_3_1_0_1_38,2022-02-21T10:51:40.268Z,,,,,,,,,,,,,,,,,11,,,,,,,,,,,,,,421.44500004767906,,response,,,,4,B,,,,,,Space,keypress(Space),,,,lyrical,,,,----- -- ---- --- -- --- -------- ------------ ---------- --<br>- ------- ------ --------- -- ------------ -- --- ---- -----<br>------ ---- ---- ------ ------ ------- --- ----- ---------<br>---- --- -------- -------- --- --- -- ------- --- not -----<br>-- --- ------ ------- --- --- -------- ---- --------- --<br>---------- -- -------- ----------------,325961.60000002384,325959.7000000477,325521.54,325522.40000009537,325538.255,325971.31,,38,not
screen,html.Screen,2_3_1_0_1_39,2022-02-21T10:51:40.518Z,,,,,,,,,,,,,,,,,11,,,,,,,,,,,,,,238.69000000000233,,response,,,,4,B,,,,,,Space,keypress(Space),,,,lyrical,,,,----- -- ---- --- -- --- -------- ------------ ---------- --<br>- ------- ------ --------- -- ------------ -- --- ---- -----<br>------ ---- ---- ------ ------ ------- --- ----- ---------<br>---- --- -------- -------- --- --- -- ------- --- --- known<br>-- --- ------ ------- --- --- -------- ---- --------- --<br>---------- -- -------- ----------------,326211.8000000715,326210,325954.768,325961.90000009537,325971.31,326238.035,,39,known
