sender,sender_type,sender_id,timestamp,meta,,Blues,Classical,Country,Dance,Electronic,Folk,Gospel,Hip-Hop,Jazz,Latin,Musical/Film,New-age,Pop,Prolific_id,Provo_ID,R&B,Rap,Reggae,Religious,Rock,Soul,Swing,Traditional,age,artist_name,correct,correctResponse,distraction,duration,education,ended_on,familiarity,gender,headphone_check_performance,item,list,music_frequency,offensiveness,pleasantness,position_correct,preference,response,response_action,snippet_file,song_name,song_rating,sound,stimulus_1,stimulus_2,stimulus_3,text,time_commit,time_end,time_render,time_run,time_show,time_switch,url,word,word_ID
Prolific ID,html.Form,0,2022-02-18T13:09:12.738Z,"{""labjs_version"":""20.2.2"",""labjs_build"":{""flavor"":""production"",""commit"":""a25486e0c714a0ae2ce03ff94b7bb6896854dcfa""},""location"":""https://run.pavlovia.org/mvasilev/prolific2_music_f/"",""userAgent"":""Mozilla/5.0 (Windows NT 10.0; Win64; x64) AppleWebKit/537.36 (KHTML, like Gecko) Chrome/98.0.4758.102 Safari/537.36"",""platform"":""Win32"",""language"":""en-GB"",""locale"":""en-GB"",""timeZone"":""Europe/London"",""timezoneOffset"":0,""screen_width"":1536,""screen_height"":864,""scroll_width"":1536,""scroll_height"":712,""window_innerWidth"":1536,""window_innerHeight"":760,""devicePixelRatio"":1.25}",,,,,,,,,,,,,,,5bec4ebcf2dba6000166d420,,,,,,,,,,,,,,,4367.413999988079,,form submission,,,,,,,,,,,,,,,,,,,,,15094.199999988079,15092.699999988079,10708.332,10709.199999988079,10725.286,15123.002,{},,
Introduction,html.Screen,1_0,2022-02-18T13:09:55.962Z,,,,,,,,,,,,,,,,,,,,,,,,,,,,,,,43187.69799998808,,response,,,,,,,,,,,continue,click button,,,,,,,,,58317.89999997616,58310.69999998808,15073.175,15095.199999988079,15123.002,58333.795,,,
Volume calibration,html.Screen,1_1,2022-02-18T13:10:10.590Z,,,,,,,,,,,,,,,,,,,,,,,,,,,,,,,14599.805000023844,,response,,,,,,,,,,,continue,click button,,,,,,,,,72945.30000001192,72933.60000002384,58300.581,58318.5,58333.795,72942.851,,,
Task instructions,html.Screen,1_2,2022-02-18T13:10:19.288Z,,,,,,,,,,,,,,,,,,,,,,,,,,,,,,,8698.649000000005,,response,,,,,,,,,,,continue,click button,,,,,,,,,81644,81641.5,72926.205,72945.60000002384,72942.851,81655.007,,,
Sounds,html.Screen,1_3_0_0,2022-02-18T13:10:23.535Z,,,,,,,,,,,,,,,,,,,,,,,,,,,,,,,4247.729999999996,,timeout,,,,,,,,,2,,,,,,,,O,S,I,,85890.89999997616,85886.137,81638.414,81644.5,81655.007,85902.737,,,
Judgement,html.Screen,1_3_0_1,2022-02-18T13:10:24.444Z,,,,,,,,,,,,,,,,,,,,,,,,,,,,true,2,,893.4629999880854,,response,,,,,,,,,2,,2,click #choice-2,,,,,O,S,I,,86799.39999997616,86796.19999998808,85886.137,85891.19999998808,85902.737,86802.252,,,
Trial,flow.Sequence,1_3_0,2022-02-18T13:10:24.444Z,,,,,,,,,,,,,,,,,,,,,,,,,,,,,,,5141.192999988081,,completion,,,,,,,,,2,,,,,,,,O,S,I,,86800,86796.19999998808,81638.414,81644.5,81655.007,86802.252,,,
Sounds,html.Screen,1_3_1_0,2022-02-18T13:10:28.679Z,,,,,,,,,,,,,,,,,,,,,,,,,,,,,,,4247.929000000004,,timeout,,,,,,,,,1,,,,,,,,S,O,I,,91034.60000002384,91033.542,86785.724,86800.30000001192,86802.252,91050.181,,,
Judgement,html.Screen,1_3_1_1,2022-02-18T13:10:29.302Z,,,,,,,,,,,,,,,,,,,,,,,,,,,,true,1,,605.7189999761613,,response,,,,,,,,,1,,1,click #choice-1,,,,,S,O,I,,91658,91655.89999997616,91033.542,91034.89999997616,91050.181,91666.392,,,
Trial,flow.Sequence,1_3_1,2022-02-18T13:10:29.303Z,,,,,,,,,,,,,,,,,,,,,,,,,,,,,,,4853.647999976165,,completion,,,,,,,,,1,,,,,,,,S,O,I,,91658.80000001192,91655.89999997616,86785.724,86800.19999998808,86802.252,91666.392,,,
Sounds,html.Screen,1_3_2_0,2022-02-18T13:10:33.543Z,,,,,,,,,,,,,,,,,,,,,,,,,,,,,,,4247.925999999992,,timeout,,,,,,,,,2,,,,,,,,I,S,O,,95899,95897.646,91649.687,91659.19999998808,91666.392,95914.318,,,
Judgement,html.Screen,1_3_2_1,2022-02-18T13:10:33.844Z,,,,,,,,,,,,,,,,,,,,,,,,,,,,true,2,,281.88199998807977,,response,,,,,,,,,2,,2,click #choice-2,,,,,I,S,O,,96199.30000001192,96196.19999998808,95897.646,95899.30000001192,95914.318,96230.812,,,
Trial,flow.Sequence,1_3_2,2022-02-18T13:10:33.844Z,,,,,,,,,,,,,,,,,,,,,,,,,,,,,,,4529.807999988072,,completion,,,,,,,,,2,,,,,,,,I,S,O,,96199.89999997616,96196.19999998808,91649.687,91659.10000002384,91666.392,96230.812,,,
Sounds,html.Screen,1_3_3_0,2022-02-18T13:10:38.108Z,,,,,,,,,,,,,,,,,,,,,,,,,,,,,,,4247.785999999993,,timeout,,,,,,,,,3,,,,,,,,O,I,S,,100463.19999998808,100461.833,96214.683,96200.19999998808,96230.812,100478.598,,,
Judgement,html.Screen,1_3_3_1,2022-02-18T13:10:38.357Z,,,,,,,,,,,,,,,,,,,,,,,,,,,,true,3,,231.60199998808093,,response,,,,,,,,,3,,3,click #choice-3,,,,,O,I,S,,100712.30000001192,100710.19999998808,100461.833,100463.5,100478.598,100741.015,,,
Trial,flow.Sequence,1_3_3,2022-02-18T13:10:38.357Z,,,,,,,,,,,,,,,,,,,,,,,,,,,,,,,4479.387999988074,,completion,,,,,,,,,3,,,,,,,,O,I,S,,100712.60000002384,100710.19999998808,96214.683,96200.10000002384,96230.812,100741.015,,,
Sounds,html.Screen,1_3_4_0,2022-02-18T13:10:42.622Z,,,,,,,,,,,,,,,,,,,,,,,,,,,,,,,4251.846000000005,,timeout,,,,,,,,,3,,,,,,,,I,O,S,,104977.60000002384,104976.155,100695.033,100712.89999997616,100741.015,104992.861,,,
Judgement,html.Screen,1_3_4_1,2022-02-18T13:10:43.483Z,,,,,,,,,,,,,,,,,,,,,,,,,,,,true,3,,843.1389999999956,,response,,,,,,,,,3,,3,click #choice-3,,,,,I,O,S,,105838.60000002384,105836,104976.155,104977.80000001192,104992.861,105842.337,,,
Trial,flow.Sequence,1_3_4,2022-02-18T13:10:43.483Z,,,,,,,,,,,,,,,,,,,,,,,,,,,,,,,5094.985000000001,,completion,,,,,,,,,3,,,,,,,,I,O,S,,105839,105836,100695.033,100712.80000001192,100741.015,105842.337,,,
Sounds,html.Screen,1_3_5_0,2022-02-18T13:10:47.719Z,,,,,,,,,,,,,,,,,,,,,,,,,,,,,,,4247.937999999995,,timeout,,,,,,,,,1,,,,,,,,S,I,O,,110074.69999998808,110073.579,105825.793,105839.30000001192,105842.337,110090.275,,,
Judgement,html.Screen,1_3_5_1,2022-02-18T13:10:48.273Z,,,,,,,,,,,,,,,,,,,,,,,,,,,,true,1,,535.7250000000058,,response,,,,,,,,,1,,1,click #choice-1,,,,,S,I,O,,110628.80000001192,110626,110073.579,110075,110090.275,110639.834,,,
Trial,flow.Sequence,1_3_5,2022-02-18T13:10:48.274Z,,,,,,,,,,,,,,,,,,,,,,,,,,,,,,,4783.6630000000005,,completion,,,,,,,,,1,,,,,,,,S,I,O,,110629.30000001192,110626,105825.793,105839.10000002384,105842.337,110639.834,,,
Task,flow.Loop,1_3,2022-02-18T13:10:48.286Z,,,,,,,,,,,,,,,,,,,,,,,,,,,,,,,28970.993000000002,,completion,,,1,,,,,,,,,,,,,,,,,,110641.30000001192,110626,81638.414,81644.30000001192,81655.007,110639.834,,,
Trap,html.Screen,1_4,2022-02-18T13:10:48.291Z,,,,,,,,,,,,,,,,,,,,,,,,,,,,,,,NaN,,skipped,,,,,,,,,,,,,,,,,,,,,110646.30000001192,110626,,110646,,110639.834,,,
Thanks,html.Screen,1_5,2022-02-18T13:10:52.403Z,,,,,,,,,,,,,,,,,,,,,,,,,,,,,,,4116.165999999997,,response,,,,,,,,,,,continue,click button,,,,,,,,,114758.60000002384,114756,110623.233,110646.60000002384,110639.834,117469.658,,,
Headphone screening,flow.Sequence,1,2022-02-18T13:10:52.403Z,,,,,,,,,,,,,,,,,,,,,,,,,,,,,,,99632.99799999999,,completion,,,,,,,,,,,,,,,,,,,,,114759,114756,15073.175,15095,15123.002,117469.658,,,
Instructions,html.Page,2_0,2022-02-18T13:11:13.109Z,,,,,,,,,,,,,,,,,,,,,,,,,,,,,,,17990.442000023846,,form submission,,,,,,,,,,,,,,,,,,,,,135464.10000002384,135460.10000002384,117419.628,117457,117469.658,135476.889,,,
Holding screen,html.Screen,2_1_0_0,2022-02-18T13:11:23.101Z,,,,,,,,,,,,,,,,,,,,,,,,,,,,,,,9994.754000000015,,timeout,,,,,,,,,,,,,,,,,,,,,145455.80000001192,145454.969,135443.678,135464.69999998808,135476.889,145471.643,,,
screen,html.Screen,2_1_0_1_0,2022-02-18T13:11:24.215Z,,,,,,,,,,,,,,,,,53,,,,,,,,,,,,,,1093.0569999880681,,response,,,,99,,,,,,,Space,keypress(Space),,,,,,,,When -- ----- -- ------ - ------- --- ----------<br>------------- ------ ------ ---- ---- ------- ----- -- ----<br>-------- ------- -- ---------- --- - --- ----- ----- ----<br>---- --- --- ----- --- ---- ---- ------- ----- ---- -------<br>--- --- -- ----- -- --- ---- -- --- ---- -- ------ ------<br>--- ----- -- ----,146569.89999997616,146564.69999998808,145454.969,145456.10000002384,145471.643,146604.643,,0,When
screen,html.Screen,2_1_0_1_1,2022-02-18T13:11:24.689Z,,,,,,,,,,,,,,,,,53,,,,,,,,,,,,,,438.5569999880681,,response,,,,99,,,,,,,Space,keypress(Space),,,,,,,,---- it ----- -- ------ - ------- --- ----------<br>------------- ------ ------ ---- ---- ------- ----- -- ----<br>-------- ------- -- ---------- --- - --- ----- ----- ----<br>---- --- --- ----- --- ---- ---- ------- ----- ---- -------<br>--- --- -- ----- -- --- ---- -- --- ---- -- ------ ------<br>--- ----- -- ----,147044.39999997616,147043.19999998808,146587.838,146570.19999998808,146604.643,147054.138,,1,it
screen,html.Screen,2_1_0_1_2,2022-02-18T13:11:25.153Z,,,,,,,,,,,,,,,,,53,,,,,,,,,,,,,,452.3619999999937,,response,,,,99,,,,,,,Space,keypress(Space),,,,,,,,---- -- comes -- ------ - ------- --- ----------<br>------------- ------ ------ ---- ---- ------- ----- -- ----<br>-------- ------- -- ---------- --- - --- ----- ----- ----<br>---- --- --- ----- --- ---- ---- ------- ----- ---- -------<br>--- --- -- ----- -- --- ---- -- --- ---- -- ------ ------<br>--- ----- -- ----,147507.69999998808,147506.5,147037.49,147044.89999997616,147054.138,147520.783,,2,comes
screen,html.Screen,2_1_0_1_3,2022-02-18T13:11:25.530Z,,,,,,,,,,,,,,,,,53,,,,,,,,,,,,,,363.11699997616233,,response,,,,99,,,,,,,Space,keypress(Space),,,,,,,,---- -- ----- to ------ - ------- --- ----------<br>------------- ------ ------ ---- ---- ------- ----- -- ----<br>-------- ------- -- ---------- --- - --- ----- ----- ----<br>---- --- --- ----- --- ---- ---- ------- ----- ---- -------<br>--- --- -- ----- -- --- ---- -- --- ---- -- ------ ------<br>--- ----- -- ----,147885,147883.89999997616,147504.02,147507.89999997616,147520.783,147887.048,,3,to
screen,html.Screen,2_1_0_1_4,2022-02-18T13:11:25.956Z,,,,,,,,,,,,,,,,,53,,,,,,,,,,,,,,423.4519999999902,,response,,,,99,,,,,,,Space,keypress(Space),,,,,,,,---- -- ----- -- having - ------- --- ----------<br>------------- ------ ------ ---- ---- ------- ----- -- ----<br>-------- ------- -- ---------- --- - --- ----- ----- ----<br>---- --- --- ----- --- ---- ---- ------- ----- ---- -------<br>--- --- -- ----- -- --- ---- -- --- ---- -- ------ ------<br>--- ----- -- ----,148311.39999997616,148310.5,147870.514,147885.30000001192,147887.048,148320.4,,4,having
screen,html.Screen,2_1_0_1_5,2022-02-18T13:11:26.370Z,,,,,,,,,,,,,,,,,53,,,,,,,,,,,,,,403.40000001192675,,response,,,,99,,,,,,,Space,keypress(Space),,,,,,,,---- -- ----- -- ------ a ------- --- ----------<br>------------- ------ ------ ---- ---- ------- ----- -- ----<br>-------- ------- -- ---------- --- - --- ----- ----- ----<br>---- --- --- ----- --- ---- ---- ------- ----- ---- -------<br>--- --- -- ----- -- --- ---- -- --- ---- -- ------ ------<br>--- ----- -- ----,148724.89999997616,148723.80000001192,148303.492,148311.69999998808,148320.4,148736.83,,5,a
screen,html.Screen,2_1_0_1_6,2022-02-18T13:11:26.800Z,,,,,,,,,,,,,,,,,53,,,,,,,,,,,,,,417.56999997617095,,response,,,,99,,,,,,,Space,keypress(Space),,,,,,,,---- -- ----- -- ------ - lasting --- ----------<br>------------- ------ ------ ---- ---- ------- ----- -- ----<br>-------- ------- -- ---------- --- - --- ----- ----- ----<br>---- --- --- ----- --- ---- ---- ------- ----- ---- -------<br>--- --- -- ----- -- --- ---- -- --- ---- -- ------ ------<br>--- ----- -- ----,149155.30000001192,149154.39999997616,148720.09,148725.10000002384,148736.83,149169.922,,6,lasting
screen,html.Screen,2_1_0_1_7,2022-02-18T13:11:27.223Z,,,,,,,,,,,,,,,,,53,,,,,,,,,,,,,,407.1780000238505,,response,,,,99,,,,,,,Space,keypress(Space),,,,,,,,---- -- ----- -- ------ - ------- and ----------<br>------------- ------ ------ ---- ---- ------- ----- -- ----<br>-------- ------- -- ---------- --- - --- ----- ----- ----<br>---- --- --- ----- --- ---- ---- ------- ----- ---- -------<br>--- --- -- ----- -- --- ---- -- --- ---- -- ------ ------<br>--- ----- -- ----,149578.30000001192,149577.10000002384,149153.073,149155.5,149169.922,149586.206,,7,and
screen,html.Screen,2_1_0_1_8,2022-02-18T13:11:27.664Z,,,,,,,,,,,,,,,,,53,,,,,,,,,,,,,,432.09400001191534,,response,,,,99,,,,,,,Space,keypress(Space),,,,,,,,---- -- ----- -- ------ - ------- --- fulfilling<br>------------- ------ ------ ---- ---- ------- ----- -- ----<br>-------- ------- -- ---------- --- - --- ----- ----- ----<br>---- --- --- ----- --- ---- ---- ------- ----- ---- -------<br>--- --- -- ----- -- --- ---- -- --- ---- -- ------ ------<br>--- ----- -- ----,150019.30000001192,150018.30000001192,149569.503,149578.69999998808,149586.206,150036.175,,8,fulfilling
screen,html.Screen,2_1_0_1_9,2022-02-18T13:11:28.787Z,,,,,,,,,,,,,,,,,53,,,,,,,,,,,,,,1104.7249999761698,,response,,,,99,,,,,,,Space,keypress(Space),,,,,,,,"---- -- ----- -- ------ - ------- --- ----------<br>relationship, ------ ------ ---- ---- ------- ----- -- ----<br>-------- ------- -- ---------- --- - --- ----- ----- ----<br>---- --- --- ----- --- ---- ---- ------- ----- ---- -------<br>--- --- -- ----- -- --- ---- -- --- ---- -- ------ ------<br>--- ----- -- ----",151141.69999998808,151140.89999997616,150019.399,150019.60000002384,150036.175,151152.199,,9,"relationship,"
screen,html.Screen,2_1_0_1_10,2022-02-18T13:11:29.259Z,,,,,,,,,,,,,,,,,53,,,,,,,,,,,,,,460.4010000238486,,response,,,,99,,,,,,,Space,keypress(Space),,,,,,,,---- -- ----- -- ------ - ------- --- ----------<br>------------- common ------ ---- ---- ------- ----- -- ----<br>-------- ------- -- ---------- --- - --- ----- ----- ----<br>---- --- --- ----- --- ---- ---- ------- ----- ---- -------<br>--- --- -- ----- -- --- ---- -- --- ---- -- ------ ------<br>--- ----- -- ----,151613.89999997616,151612.60000002384,151135.435,151142,151152.199,151618.491,,10,common
screen,html.Screen,2_1_0_1_11,2022-02-18T13:11:29.818Z,,,,,,,,,,,,,,,,,53,,,,,,,,,,,,,,553.6090000238328,,response,,,,99,,,,,,,Space,keypress(Space),,,,,,,,---- -- ----- -- ------ - ------- --- ----------<br>------------- ------ wisdom ---- ---- ------- ----- -- ----<br>-------- ------- -- ---------- --- - --- ----- ----- ----<br>---- --- --- ----- --- ---- ---- ------- ----- ---- -------<br>--- --- -- ----- -- --- ---- -- --- ---- -- ------ ------<br>--- ----- -- ----,152173.19999998808,152172.10000002384,151601.901,151614.10000002384,151618.491,152185,,11,wisdom
screen,html.Screen,2_1_0_1_12,2022-02-18T13:11:30.299Z,,,,,,,,,,,,,,,,,53,,,,,,,,,,,,,,467.69999998807907,,response,,,,99,,,,,,,Space,keypress(Space),,,,,,,,---- -- ----- -- ------ - ------- --- ----------<br>------------- ------ ------ says ---- ------- ----- -- ----<br>-------- ------- -- ---------- --- - --- ----- ----- ----<br>---- --- --- ----- --- ---- ---- ------- ----- ---- -------<br>--- --- -- ----- -- --- ---- -- --- ---- -- ------ ------<br>--- ----- -- ----,152653.80000001192,152652.69999998808,152168.255,152173.5,152185,152668.109,,12,says
screen,html.Screen,2_1_0_1_13,2022-02-18T13:11:30.974Z,,,,,,,,,,,,,,,,,53,,,,,,,,,,,,,,660.3910000000033,,response,,,,99,,,,,,,Space,keypress(Space),,,,,,,,---- -- ----- -- ------ - ------- --- ----------<br>------------- ------ ------ ---- that ------- ----- -- ----<br>-------- ------- -- ---------- --- - --- ----- ----- ----<br>---- --- --- ----- --- ---- ---- ------- ----- ---- -------<br>--- --- -- ----- -- --- ---- -- --- ---- -- ------ ------<br>--- ----- -- ----,153329.39999997616,153328.5,152651.328,152654.10000002384,152668.109,153334.167,,13,that
screen,html.Screen,2_1_0_1_14,2022-02-18T13:11:31.500Z,,,,,,,,,,,,,,,,,53,,,,,,,,,,,,,,520.1330000119342,,response,,,,99,,,,,,,Space,keypress(Space),,,,,,,,---- -- ----- -- ------ - ------- --- ----------<br>------------- ------ ------ ---- ---- feeling ----- -- ----<br>-------- ------- -- ---------- --- - --- ----- ----- ----<br>---- --- --- ----- --- ---- ---- ------- ----- ---- -------<br>--- --- -- ----- -- --- ---- -- --- ---- -- ------ ------<br>--- ----- -- ----,153855.5,153854.30000001192,153317.65,153329.5,153334.167,153867.526,,14,feeling
screen,html.Screen,2_1_0_1_15,2022-02-18T13:11:31.951Z,,,,,,,,,,,,,,,,,53,,,,,,,,,,,,,,437.27400001190836,,response,,,,99,,,,,,,Space,keypress(Space),,,,,,,,---- -- ----- -- ------ - ------- --- ----------<br>------------- ------ ------ ---- ---- ------- close -- ----<br>-------- ------- -- ---------- --- - --- ----- ----- ----<br>---- --- --- ----- --- ---- ---- ------- ----- ---- -------<br>--- --- -- ----- -- --- ---- -- --- ---- -- ------ ------<br>--- ----- -- ----,154305.89999997616,154304.80000001192,153850.545,153855.69999998808,153867.526,154317.274,,15,close
screen,html.Screen,2_1_0_1_16,2022-02-18T13:11:32.371Z,,,,,,,,,,,,,,,,,53,,,,,,,,,,,,,,407.7259999999951,,response,,,,99,,,,,,,Space,keypress(Space),,,,,,,,---- -- ----- -- ------ - ------- --- ----------<br>------------- ------ ------ ---- ---- ------- ----- to ----<br>-------- ------- -- ---------- --- - --- ----- ----- ----<br>---- --- --- ----- --- ---- ---- ------- ----- ---- -------<br>--- --- -- ----- -- --- ---- -- --- ---- -- ------ ------<br>--- ----- -- ----,154725.80000001192,154725,154300.493,154306.19999998808,154317.274,154733.521,,16,to
screen,html.Screen,2_1_0_1_17,2022-02-18T13:11:32.812Z,,,,,,,,,,,,,,,,,53,,,,,,,,,,,,,,432.17899998807115,,response,,,,99,,,,,,,Space,keypress(Space),,,,,,,,---- -- ----- -- ------ - ------- --- ----------<br>------------- ------ ------ ---- ---- ------- ----- -- your<br>-------- ------- -- ---------- --- - --- ----- ----- ----<br>---- --- --- ----- --- ---- ---- ------- ----- ---- -------<br>--- --- -- ----- -- --- ---- -- --- ---- -- ------ ------<br>--- ----- -- ----,155166.69999998808,155165.69999998808,154716.947,154726,154733.521,155183.463,,17,your
screen,html.Screen,2_1_0_1_18,2022-02-18T13:11:33.308Z,,,,,,,,,,,,,,,,,53,,,,,,,,,,,,,,478.73699998809025,,response,,,,99,,,,,,,Space,keypress(Space),,,,,,,,---- -- ----- -- ------ - ------- --- ----------<br>------------- ------ ------ ---- ---- ------- ----- -- ----<br>romantic ------- -- ---------- --- - --- ----- ----- ----<br>---- --- --- ----- --- ---- ---- ------- ----- ---- -------<br>--- --- -- ----- -- --- ---- -- --- ---- -- ------ ------<br>--- ----- -- ----,155663.19999998808,155662.19999998808,155166.518,155166.89999997616,155183.463,155666.34,,18,romantic
screen,html.Screen,2_1_0_1_19,2022-02-18T13:11:33.762Z,,,,,,,,,,,,,,,,,53,,,,,,,,,,,,,,450.26000002384535,,response,,,,99,,,,,,,Space,keypress(Space),,,,,,,,---- -- ----- -- ------ - ------- --- ----------<br>------------- ------ ------ ---- ---- ------- ----- -- ----<br>-------- partner -- ---------- --- - --- ----- ----- ----<br>---- --- --- ----- --- ---- ---- ------- ----- ---- -------<br>--- --- -- ----- -- --- ---- -- --- ---- -- ------ ------<br>--- ----- -- ----,156117.19999998808,156116.60000002384,155649.777,155663.5,155666.34,156132.915,,19,partner
screen,html.Screen,2_1_0_1_20,2022-02-18T13:11:34.209Z,,,,,,,,,,,,,,,,,53,,,,,,,,,,,,,,430.2849999880709,,response,,,,99,,,,,,,Space,keypress(Space),,,,,,,,---- -- ----- -- ------ - ------- --- ----------<br>------------- ------ ------ ---- ---- ------- ----- -- ----<br>-------- ------- is ---------- --- - --- ----- ----- ----<br>---- --- --- ----- --- ---- ---- ------- ----- ---- -------<br>--- --- -- ----- -- --- ---- -- --- ---- -- ------ ------<br>--- ----- -- ----,156564.39999997616,156563.19999998808,156116.207,156117.30000001192,156132.915,156596.829,,20,is
screen,html.Screen,2_1_0_1_21,2022-02-18T13:11:34.641Z,,,,,,,,,,,,,,,,,53,,,,,,,,,,,,,,398.6710000000021,,response,,,,99,,,,,,,Space,keypress(Space),,,,,,,,---- -- ----- -- ------ - ------- --- ----------<br>------------- ------ ------ ---- ---- ------- ----- -- ----<br>-------- ------- -- paramount. --- - --- ----- ----- ----<br>---- --- --- ----- --- ---- ---- ------- ----- ---- -------<br>--- --- -- ----- -- --- ---- -- --- ---- -- ------ ------<br>--- ----- -- ----,156996.5,156995.5,156549.302,156564.60000002384,156596.829,156998.984,,21,paramount.
screen,html.Screen,2_1_0_1_22,2022-02-18T13:11:35.085Z,,,,,,,,,,,,,,,,,53,,,,,,,,,,,,,,441.1160000238451,,response,,,,99,,,,,,,Space,keypress(Space),,,,,,,,---- -- ----- -- ------ - ------- --- ----------<br>------------- ------ ------ ---- ---- ------- ----- -- ----<br>-------- ------- -- ---------- But - --- ----- ----- ----<br>---- --- --- ----- --- ---- ---- ------- ----- ---- -------<br>--- --- -- ----- -- --- ---- -- --- ---- -- ------ ------<br>--- ----- -- ----,157440.60000002384,157440.10000002384,156982.429,156996.69999998808,156998.984,157448.948,,22,But
screen,html.Screen,2_1_0_1_23,2022-02-18T13:11:35.485Z,,,,,,,,,,,,,,,,,53,,,,,,,,,,,,,,389.7519999880751,,response,,,,99,,,,,,,Space,keypress(Space),,,,,,,,---- -- ----- -- ------ - ------- --- ----------<br>------------- ------ ------ ---- ---- ------- ----- -- ----<br>-------- ------- -- ---------- --- a --- ----- ----- ----<br>---- --- --- ----- --- ---- ---- ------- ----- ---- -------<br>--- --- -- ----- -- --- ---- -- --- ---- -- ------ ------<br>--- ----- -- ----,157840,157838.69999998808,157432.188,157440.69999998808,157448.948,157848.572,,23,a
screen,html.Screen,2_1_0_1_24,2022-02-18T13:11:35.876Z,,,,,,,,,,,,,,,,,53,,,,,,,,,,,,,,381.72800001193536,,response,,,,99,,,,,,,Space,keypress(Space),,,,,,,,---- -- ----- -- ------ - ------- --- ----------<br>------------- ------ ------ ---- ---- ------- ----- -- ----<br>-------- ------- -- ---------- --- - new ----- ----- ----<br>---- --- --- ----- --- ---- ---- ------- ----- ---- -------<br>--- --- -- ----- -- --- ---- -- --- ---- -- ------ ------<br>--- ----- -- ----,158231.5,158230.30000001192,157831.836,157840.30000001192,157848.572,158248.556,,24,new
screen,html.Screen,2_1_0_1_25,2022-02-18T13:11:36.103Z,,,,,,,,,,,,,,,,,53,,,,,,,,,,,,,,208.74400001190952,,response,,,,99,,,,,,,Space,keypress(Space),,,,,,,,---- -- ----- -- ------ - ------- --- ----------<br>------------- ------ ------ ---- ---- ------- ----- -- ----<br>-------- ------- -- ---------- --- - --- study ----- ----<br>---- --- --- ----- --- ---- ---- ------- ----- ---- -------<br>--- --- -- ----- -- --- ---- -- --- ---- -- ------ ------<br>--- ----- -- ----,158458,158457.30000001192,158231.78,158231.89999997616,158248.556,158464.901,,25,study
screen,html.Screen,2_1_0_1_26,2022-02-18T13:11:36.486Z,,,,,,,,,,,,,,,,,53,,,,,,,,,,,,,,375.2989999880665,,response,,,,99,,,,,,,Space,keypress(Space),,,,,,,,---- -- ----- -- ------ - ------- --- ----------<br>------------- ------ ------ ---- ---- ------- ----- -- ----<br>-------- ------- -- ---------- --- - --- ----- finds ----<br>---- --- --- ----- --- ---- ---- ------- ----- ---- -------<br>--- --- -- ----- -- --- ---- -- --- ---- -- ------ ------<br>--- ----- -- ----,158841.19999998808,158840.19999998808,158448.347,158458.10000002384,158464.901,158847.975,,26,finds
screen,html.Screen,2_1_0_1_27,2022-02-18T13:11:36.995Z,,,,,,,,,,,,,,,,,53,,,,,,,,,,,,,,500.72499998807325,,response,,,,99,,,,,,,Space,keypress(Space),,,,,,,,---- -- ----- -- ------ - ------- --- ----------<br>------------- ------ ------ ---- ---- ------- ----- -- ----<br>-------- ------- -- ---------- --- - --- ----- ----- that<br>---- --- --- ----- --- ---- ---- ------- ----- ---- -------<br>--- --- -- ----- -- --- ---- -- --- ---- -- ------ ------<br>--- ----- -- ----,159349.69999998808,159348.69999998808,158831.276,158841.60000002384,158847.975,159364.388,,27,that
screen,html.Screen,2_1_0_1_28,2022-02-18T13:11:37.480Z,,,,,,,,,,,,,,,,,53,,,,,,,,,,,,,,469.91200001191464,,response,,,,99,,,,,,,Space,keypress(Space),,,,,,,,---- -- ----- -- ------ - ------- --- ----------<br>------------- ------ ------ ---- ---- ------- ----- -- ----<br>-------- ------- -- ---------- --- - --- ----- ----- ----<br>it's --- --- ----- --- ---- ---- ------- ----- ---- -------<br>--- --- -- ----- -- --- ---- -- --- ---- -- ------ ------<br>--- ----- -- ----,159835,159834.30000001192,159347.719,159349.89999997616,159364.388,159847.499,,28,it's
screen,html.Screen,2_1_0_1_29,2022-02-18T13:11:37.883Z,,,,,,,,,,,,,,,,,53,,,,,,,,,,,,,,389.20099998806836,,response,,,,99,,,,,,,Space,keypress(Space),,,,,,,,---- -- ----- -- ------ - ------- --- ----------<br>------------- ------ ------ ---- ---- ------- ----- -- ----<br>-------- ------- -- ---------- --- - --- ----- ----- ----<br>---- not --- ----- --- ---- ---- ------- ----- ---- -------<br>--- --- -- ----- -- --- ---- -- --- ---- -- ------ ------<br>--- ----- -- ----,160237.69999998808,160236.69999998808,159830.931,159835.19999998808,159847.499,160247.489,,29,not
screen,html.Screen,2_1_0_1_30,2022-02-18T13:11:38.552Z,,,,,,,,,,,,,,,,,53,,,,,,,,,,,,,,657.9109999761567,,response,,,,99,,,,,,,Space,keypress(Space),,,,,,,,---- -- ----- -- ------ - ------- --- ----------<br>------------- ------ ------ ---- ---- ------- ----- -- ----<br>-------- ------- -- ---------- --- - --- ----- ----- ----<br>---- --- how ----- --- ---- ---- ------- ----- ---- -------<br>--- --- -- ----- -- --- ---- -- --- ---- -- ------ ------<br>--- ----- -- ----,160906.69999998808,160905.39999997616,160230.549,160237.89999997616,160247.489,160913.614,,30,how
screen,html.Screen,2_1_0_1_31,2022-02-18T13:11:38.919Z,,,,,,,,,,,,,,,,,53,,,,,,,,,,,,,,360.0859999880777,,response,,,,99,,,,,,,Space,keypress(Space),,,,,,,,---- -- ----- -- ------ - ------- --- ----------<br>------------- ------ ------ ---- ---- ------- ----- -- ----<br>-------- ------- -- ---------- --- - --- ----- ----- ----<br>---- --- --- close --- ---- ---- ------- ----- ---- -------<br>--- --- -- ----- -- --- ---- -- --- ---- -- ------ ------<br>--- ----- -- ----,161274.30000001192,161273.69999998808,160897.018,160906.89999997616,160913.614,161280.049,,31,close
screen,html.Screen,2_1_0_1_32,2022-02-18T13:11:39.246Z,,,,,,,,,,,,,,,,,53,,,,,,,,,,,,,,320.25100001192186,,response,,,,99,,,,,,,Space,keypress(Space),,,,,,,,---- -- ----- -- ------ - ------- --- ----------<br>------------- ------ ------ ---- ---- ------- ----- -- ----<br>-------- ------- -- ---------- --- - --- ----- ----- ----<br>---- --- --- ----- you ---- ---- ------- ----- ---- -------<br>--- --- -- ----- -- --- ---- -- --- ---- -- ------ ------<br>--- ----- -- ----,161601.39999997616,161600.30000001192,161263.534,161274.30000001192,161280.049,161613.248,,32,you
screen,html.Screen,2_1_0_1_33,2022-02-18T13:11:39.522Z,,,,,,,,,,,,,,,,,53,,,,,,,,,,,,,,262.85200002384954,,response,,,,99,,,,,,,Space,keypress(Space),,,,,,,,---- -- ----- -- ------ - ------- --- ----------<br>------------- ------ ------ ---- ---- ------- ----- -- ----<br>-------- ------- -- ---------- --- - --- ----- ----- ----<br>---- --- --- ----- --- feel ---- ------- ----- ---- -------<br>--- --- -- ----- -- --- ---- -- --- ---- -- ------ ------<br>--- ----- -- ----,161877.30000001192,161876.10000002384,161596.585,161601.60000002384,161613.248,161879.764,,33,feel
screen,html.Screen,2_1_0_1_34,2022-02-18T13:11:39.799Z,,,,,,,,,,,,,,,,,53,,,,,,,,,,,,,,273.3360000238463,,response,,,,99,,,,,,,Space,keypress(Space),,,,,,,,---- -- ----- -- ------ - ------- --- ----------<br>------------- ------ ------ ---- ---- ------- ----- -- ----<br>-------- ------- -- ---------- --- - --- ----- ----- ----<br>---- --- --- ----- --- ---- that ------- ----- ---- -------<br>--- --- -- ----- -- --- ---- -- --- ---- -- ------ ------<br>--- ----- -- ----,162154.10000002384,162153.10000002384,161863.22,161877.60000002384,161879.764,162163.029,,34,that
screen,html.Screen,2_1_0_1_35,2022-02-18T13:11:40.110Z,,,,,,,,,,,,,,,,,53,,,,,,,,,,,,,,301.1709999880695,,response,,,,99,,,,,,,Space,keypress(Space),,,,,,,,---- -- ----- -- ------ - ------- --- ----------<br>------------- ------ ------ ---- ---- ------- ----- -- ----<br>-------- ------- -- ---------- --- - --- ----- ----- ----<br>---- --- --- ----- --- ---- ---- matters ----- ---- -------<br>--- --- -- ----- -- --- ---- -- --- ---- -- ------ ------<br>--- ----- -- ----,162464.80000001192,162464.19999998808,162146.389,162154.39999997616,162163.029,162479.453,,35,matters
screen,html.Screen,2_1_0_1_36,2022-02-18T13:11:40.411Z,,,,,,,,,,,,,,,,,53,,,,,,,,,,,,,,285.24699998807046,,response,,,,99,,,,,,,Space,keypress(Space),,,,,,,,"---- -- ----- -- ------ - ------- --- ----------<br>------------- ------ ------ ---- ---- ------- ----- -- ----<br>-------- ------- -- ---------- --- - --- ----- ----- ----<br>---- --- --- ----- --- ---- ---- ------- most, ---- -------<br>--- --- -- ----- -- --- ---- -- --- ---- -- ------ ------<br>--- ----- -- ----",162765.89999997616,162764.69999998808,162462.918,162464.89999997616,162479.453,162779.315,,36,"most,"
screen,html.Screen,2_1_0_1_37,2022-02-18T13:11:40.827Z,,,,,,,,,,,,,,,,,53,,,,,,,,,,,,,,401.6849999999977,,response,,,,99,,,,,,,Space,keypress(Space),,,,,,,,---- -- ----- -- ------ - ------- --- ----------<br>------------- ------ ------ ---- ---- ------- ----- -- ----<br>-------- ------- -- ---------- --- - --- ----- ----- ----<br>---- --- --- ----- --- ---- ---- ------- ----- it's -------<br>--- --- -- ----- -- --- ---- -- --- ---- -- ------ ------<br>--- ----- -- ----,163182.10000002384,163181,162762.61,162766.19999998808,162779.315,163195.959,,37,it's
screen,html.Screen,2_1_0_1_38,2022-02-18T13:11:41.220Z,,,,,,,,,,,,,,,,,53,,,,,,,,,,,,,,377.6410000238393,,response,,,,99,,,,,,,Space,keypress(Space),,,,,,,,---- -- ----- -- ------ - ------- --- ----------<br>------------- ------ ------ ---- ---- ------- ----- -- ----<br>-------- ------- -- ---------- --- - --- ----- ----- ----<br>---- --- --- ----- --- ---- ---- ------- ----- ---- whether<br>--- --- -- ----- -- --- ---- -- --- ---- -- ------ ------<br>--- ----- -- ----,163574.89999997616,163573.60000002384,163179.176,163182.39999997616,163195.959,163578.861,,38,whether
screen,html.Screen,2_1_0_1_39,2022-02-18T13:11:41.578Z,,,,,,,,,,,,,,,,,53,,,,,,,,,,,,,,353.0389999761537,,response,,,,99,,,,,,,Space,keypress(Space),,,,,,,,---- -- ----- -- ------ - ------- --- ----------<br>------------- ------ ------ ---- ---- ------- ----- -- ----<br>-------- ------- -- ---------- --- - --- ----- ----- ----<br>---- --- --- ----- --- ---- ---- ------- ----- ---- -------<br>you --- -- ----- -- --- ---- -- --- ---- -- ------ ------<br>--- ----- -- ----,163933,163931.89999997616,163562.332,163575.10000002384,163578.861,163945.561,,39,you
screen,html.Screen,2_1_0_1_40,2022-02-18T13:11:41.893Z,,,,,,,,,,,,,,,,,53,,,,,,,,,,,,,,300.8389999761712,,response,,,,99,,,,,,,Space,keypress(Space),,,,,,,,---- -- ----- -- ------ - ------- --- ----------<br>------------- ------ ------ ---- ---- ------- ----- -- ----<br>-------- ------- -- ---------- --- - --- ----- ----- ----<br>---- --- --- ----- --- ---- ---- ------- ----- ---- -------<br>--- are -- ----- -- --- ---- -- --- ---- -- ------ ------<br>--- ----- -- ----,164247.69999998808,164246.39999997616,163928.674,163933.19999998808,163945.561,164262.083,,40,are
screen,html.Screen,2_1_0_1_41,2022-02-18T13:11:42.226Z,,,,,,,,,,,,,,,,,53,,,,,,,,,,,,,,318.1169999880658,,response,,,,99,,,,,,,Space,keypress(Space),,,,,,,,---- -- ----- -- ------ - ------- --- ----------<br>------------- ------ ------ ---- ---- ------- ----- -- ----<br>-------- ------- -- ---------- --- - --- ----- ----- ----<br>---- --- --- ----- --- ---- ---- ------- ----- ---- -------<br>--- --- as ----- -- --- ---- -- --- ---- -- ------ ------<br>--- ----- -- ----,164581.5,164580.19999998808,164245.306,164248,164262.083,164595.237,,41,as
screen,html.Screen,2_1_0_1_42,2022-02-18T13:11:42.543Z,,,,,,,,,,,,,,,,,53,,,,,,,,,,,,,,302.0630000119272,,response,,,,99,,,,,,,Space,keypress(Space),,,,,,,,---- -- ----- -- ------ - ------- --- ----------<br>------------- ------ ------ ---- ---- ------- ----- -- ----<br>-------- ------- -- ---------- --- - --- ----- ----- ----<br>---- --- --- ----- --- ---- ---- ------- ----- ---- -------<br>--- --- -- close -- --- ---- -- --- ---- -- ------ ------<br>--- ----- -- ----,164898.5,164897.30000001192,164578.464,164581.69999998808,164595.237,164911.735,,42,close
screen,html.Screen,2_1_0_1_43,2022-02-18T13:11:42.874Z,,,,,,,,,,,,,,,,,53,,,,,,,,,,,,,,317.0650000119349,,response,,,,99,,,,,,,Space,keypress(Space),,,,,,,,---- -- ----- -- ------ - ------- --- ----------<br>------------- ------ ------ ---- ---- ------- ----- -- ----<br>-------- ------- -- ---------- --- - --- ----- ----- ----<br>---- --- --- ----- --- ---- ---- ------- ----- ---- -------<br>--- --- -- ----- as --- ---- -- --- ---- -- ------ ------<br>--- ----- -- ----,165229.30000001192,165228.80000001192,164894.962,164898.69999998808,164911.735,165244.69,,43,as
screen,html.Screen,2_1_0_1_44,2022-02-18T13:11:43.228Z,,,,,,,,,,,,,,,,,53,,,,,,,,,,,,,,337.50999998807674,,response,,,,99,,,,,,,Space,keypress(Space),,,,,,,,---- -- ----- -- ------ - ------- --- ----------<br>------------- ------ ------ ---- ---- ------- ----- -- ----<br>-------- ------- -- ---------- --- - --- ----- ----- ----<br>---- --- --- ----- --- ---- ---- ------- ----- ---- -------<br>--- --- -- ----- -- you ---- -- --- ---- -- ------ ------<br>--- ----- -- ----,165583.5,165582.19999998808,165227.984,165229.39999997616,165244.69,165594.708,,44,you
screen,html.Screen,2_1_0_1_45,2022-02-18T13:11:43.565Z,,,,,,,,,,,,,,,,,53,,,,,,,,,,,,,,324.3920000238286,,response,,,,99,,,,,,,Space,keypress(Space),,,,,,,,---- -- ----- -- ------ - ------- --- ----------<br>------------- ------ ------ ---- ---- ------- ----- -- ----<br>-------- ------- -- ---------- --- - --- ----- ----- ----<br>---- --- --- ----- --- ---- ---- ------- ----- ---- -------<br>--- --- -- ----- -- --- want -- --- ---- -- ------ ------<br>--- ----- -- ----,165920.30000001192,165919.10000002384,165577.922,165583.80000001192,165594.708,165927.684,,45,want
screen,html.Screen,2_1_0_1_46,2022-02-18T13:11:43.856Z,,,,,,,,,,,,,,,,,53,,,,,,,,,,,,,,282.5159999880707,,response,,,,99,,,,,,,Space,keypress(Space),,,,,,,,---- -- ----- -- ------ - ------- --- ----------<br>------------- ------ ------ ---- ---- ------- ----- -- ----<br>-------- ------- -- ---------- --- - --- ----- ----- ----<br>---- --- --- ----- --- ---- ---- ------- ----- ---- -------<br>--- --- -- ----- -- --- ---- to --- ---- -- ------ ------<br>--- ----- -- ----,166211.30000001192,166210.19999998808,165911.114,165920.60000002384,165927.684,166227.534,,46,to
screen,html.Screen,2_1_0_1_47,2022-02-18T13:11:44.079Z,,,,,,,,,,,,,,,,,53,,,,,,,,,,,,,,205.86599997614394,,response,,,,99,,,,,,,Space,keypress(Space),,,,,,,,"---- -- ----- -- ------ - ------- --- ----------<br>------------- ------ ------ ---- ---- ------- ----- -- ----<br>-------- ------- -- ---------- --- - --- ----- ----- ----<br>---- --- --- ----- --- ---- ---- ------- ----- ---- -------<br>--- --- -- ----- -- --- ---- -- be, ---- -- ------ ------<br>--- ----- -- ----",166433.89999997616,166433.39999997616,166210.957,166211.5,166227.534,166444.063,,47,"be,"
screen,html.Screen,2_1_0_1_48,2022-02-18T13:11:44.502Z,,,,,,,,,,,,,,,,,53,,,,,,,,,,,,,,411.6369999880844,,response,,,,99,,,,,,,Space,keypress(Space),,,,,,,,---- -- ----- -- ------ - ------- --- ----------<br>------------- ------ ------ ---- ---- ------- ----- -- ----<br>-------- ------- -- ---------- --- - --- ----- ----- ----<br>---- --- --- ----- --- ---- ---- ------- ----- ---- -------<br>--- --- -- ----- -- --- ---- -- --- even -- ------ ------<br>--- ----- -- ----,166856.69999998808,166855.69999998808,166427.368,166434.10000002384,166444.063,166860.504,,48,even
screen,html.Screen,2_1_0_1_49,2022-02-18T13:11:44.871Z,,,,,,,,,,,,,,,,,53,,,,,,,,,,,,,,364.6959999880928,,response,,,,99,,,,,,,Space,keypress(Space),,,,,,,,---- -- ----- -- ------ - ------- --- ----------<br>------------- ------ ------ ---- ---- ------- ----- -- ----<br>-------- ------- -- ---------- --- - --- ----- ----- ----<br>---- --- --- ----- --- ---- ---- ------- ----- ---- -------<br>--- --- -- ----- -- --- ---- -- --- ---- if ------ ------<br>--- ----- -- ----,167226.30000001192,167225.19999998808,166843.775,166856.89999997616,166860.504,167243.823,,49,if
screen,html.Screen,2_1_0_1_50,2022-02-18T13:11:45.220Z,,,,,,,,,,,,,,,,,53,,,,,,,,,,,,,,329.2770000238379,,response,,,,99,,,,,,,Space,keypress(Space),,,,,,,,---- -- ----- -- ------ - ------- --- ----------<br>------------- ------ ------ ---- ---- ------- ----- -- ----<br>-------- ------- -- ---------- --- - --- ----- ----- ----<br>---- --- --- ----- --- ---- ---- ------- ----- ---- -------<br>--- --- -- ----- -- --- ---- -- --- ---- -- that's ------<br>--- ----- -- ----,167574.69999998808,167573.10000002384,167227.062,167226.5,167243.823,167598.344,,50,that's
screen,html.Screen,2_1_0_1_51,2022-02-18T13:11:45.622Z,,,,,,,,,,,,,,,,,53,,,,,,,,,,,,,,378.05599997614627,,response,,,,99,,,,,,,Space,keypress(Space),,,,,,,,---- -- ----- -- ------ - ------- --- ----------<br>------------- ------ ------ ---- ---- ------- ----- -- ----<br>-------- ------- -- ---------- --- - --- ----- ----- ----<br>---- --- --- ----- --- ---- ---- ------- ----- ---- -------<br>--- --- -- ----- -- --- ---- -- --- ---- -- ------ really<br>--- ----- -- ----,167977.5,167976.39999997616,167560.253,167575.10000002384,167598.344,167993.435,,51,really
screen,html.Screen,2_1_0_1_52,2022-02-18T13:11:46.101Z,,,,,,,,,,,,,,,,,53,,,,,,,,,,,,,,461.0650000000023,,response,,,,99,,,,,,,Space,keypress(Space),,,,,,,,---- -- ----- -- ------ - ------- --- ----------<br>------------- ------ ------ ---- ---- ------- ----- -- ----<br>-------- ------- -- ---------- --- - --- ----- ----- ----<br>---- --- --- ----- --- ---- ---- ------- ----- ---- -------<br>--- --- -- ----- -- --- ---- -- --- ---- -- ------ ------<br>not ----- -- ----,168455.69999998808,168454.5,167976.592,167977.69999998808,167993.435,168459.68,,52,not
screen,html.Screen,2_1_0_1_53,2022-02-18T13:11:46.555Z,,,,,,,,,,,,,,,,,53,,,,,,,,,,,,,,449.42000002384884,,response,,,,99,,,,,,,Space,keypress(Space),,,,,,,,---- -- ----- -- ------ - ------- --- ----------<br>------------- ------ ------ ---- ---- ------- ----- -- ----<br>-------- ------- -- ---------- --- - --- ----- ----- ----<br>---- --- --- ----- --- ---- ---- ------- ----- ---- -------<br>--- --- -- ----- -- --- ---- -- --- ---- -- ------ ------<br>--- close -- ----,168910.19999998808,168909.10000002384,168443.099,168456,168459.68,168926.125,,53,close
screen,html.Screen,2_1_0_1_54,2022-02-18T13:11:47.043Z,,,,,,,,,,,,,,,,,53,,,,,,,,,,,,,,470.57499998807907,,response,,,,99,,,,,,,Space,keypress(Space),,,,,,,,---- -- ----- -- ------ - ------- --- ----------<br>------------- ------ ------ ---- ---- ------- ----- -- ----<br>-------- ------- -- ---------- --- - --- ----- ----- ----<br>---- --- --- ----- --- ---- ---- ------- ----- ---- -------<br>--- --- -- ----- -- --- ---- -- --- ---- -- ------ ------<br>--- ----- at ----,169397.69999998808,169396.69999998808,168909.537,168910.39999997616,168926.125,169409.35,,54,at
screen,html.Screen,2_1_0_1_55,2022-02-18T13:11:47.668Z,,,,,,,,,,,,,,,,,53,,,,,,,,,,,,,,612.1499999999942,,response,,,,99,,,,,,,Space,keypress(Space),,,,,,,,---- -- ----- -- ------ - ------- --- ----------<br>------------- ------ ------ ---- ---- ------- ----- -- ----<br>-------- ------- -- ---------- --- - --- ----- ----- ----<br>---- --- --- ----- --- ---- ---- ------- ----- ---- -------<br>--- --- -- ----- -- --- ---- -- --- ---- -- ------ ------<br>--- ----- -- all.,170022.60000002384,170021.5,169392.467,169397.89999997616,169409.35,170050.992,,55,all.
Item 99,flow.Loop,2_1_0_1,2022-02-18T13:11:47.668Z,,,,,,,,,,,,,,,,,,,,,,,,,,,,,,,24549.85699999999,,completion,,,,,F,,,,,,,,,,,silence,,,,,170023.10000002384,170021.5,145454.969,145456,145471.643,170050.992,,,
Question 1,html.Screen,2_1_0_2,2022-02-18T13:11:52.142Z,,,,,,,,,,,,,,,,,,,,,,,,,,,,true,FALSE,,4443.207999988081,,response,,,,99,F,,,,,,FALSE,click #choice-2,,,,silence,,,,,174496.89999997616,174494.19999998808,170008.949,170023.39999997616,170050.992,174506.484,,,
Question 2,html.Screen,2_1_0_3,2022-02-18T13:11:58.785Z,,,,,,,,,,,,,,,,,,,,,,,,,,,,true,TRUE,,6631.016000000003,,response,,,,99,F,,,,,,TRUE,click #choice-1,,,,silence,,,,,181139.89999997616,181137.5,174489.782,174497.30000001192,174506.484,181153.05,,,
Item 99,flow.Sequence,2_1_0,2022-02-18T13:11:58.785Z,,,,,,,,,,,,,,,,,,,,,,,,,,,,,,,45660.611000000004,,completion,,,,,,,,,,,,,,,,,,,,,181140.30000001192,181137.5,135443.678,135464.60000002384,135476.889,181153.05,,,
Holding screen,html.Screen,2_1_1_0,2022-02-18T13:12:08.777Z,,,,,,,,,,,,,,,,,,,,,,,,,,,,,,,9994.814000000013,,timeout,,,,,,,,,,,,,,,,,,,,,191132.30000001192,191131.306,181136.298,181140.60000002384,181153.05,191147.864,,,
screen,html.Screen,2_1_1_1_0,2022-02-18T13:12:09.509Z,,,,,,,,,,,,,,,,,54,,,,,,,,,,,,,,714.7360000238405,,response,,,,100,,,,,,,Space,keypress(Space),,,,,,,,At --- ---- --- ------ ----- ------- ---- -- --- ------- --<br>------- ---------- ------ -- ----- -- ----- -- ---- ------<br>--- ----- --- --- ------ -------- ----- --- ------ ----- --<br>----- ----- ---------- --- --- ------ ------ ---- -- ------<br>------- --- ------ ----- --- ---- ------- -- ---- --- --<br>------- ------,191864.19999998808,191862.60000002384,191131.306,191132.69999998808,191147.864,191897.555,,0,At
screen,html.Screen,2_1_1_1_1,2022-02-18T13:12:09.944Z,,,,,,,,,,,,,,,,,54,,,,,,,,,,,,,,400.54500002384884,,response,,,,100,,,,,,,Space,keypress(Space),,,,,,,,-- the ---- --- ------ ----- ------- ---- -- --- ------- --<br>------- ---------- ------ -- ----- -- ----- -- ---- ------<br>--- ----- --- --- ------ -------- ----- --- ------ ----- --<br>----- ----- ---------- --- --- ------ ------ ---- -- ------<br>------- --- ------ ----- --- ---- ------- -- ---- --- --<br>------- ------,192299.39999997616,192298.10000002384,191847.431,191864.39999997616,191897.555,192314.107,,1,the
screen,html.Screen,2_1_1_1_2,2022-02-18T13:12:10.268Z,,,,,,,,,,,,,,,,,54,,,,,,,,,,,,,,308.1930000119319,,response,,,,100,,,,,,,Space,keypress(Space),,,,,,,,-- --- time --- ------ ----- ------- ---- -- --- ------- --<br>------- ---------- ------ -- ----- -- ----- -- ---- ------<br>--- ----- --- --- ------ -------- ----- --- ------ ----- --<br>----- ----- ---------- --- --- ------ ------ ---- -- ------<br>------- --- ------ ----- --- ---- ------- -- ---- --- --<br>------- ------,192623.10000002384,192622.30000001192,192297.34,192299.60000002384,192314.107,192630.369,,2,time
screen,html.Screen,2_1_1_1_3,2022-02-18T13:12:10.604Z,,,,,,,,,,,,,,,,,54,,,,,,,,,,,,,,327.9310000119149,,response,,,,100,,,,,,,Space,keypress(Space),,,,,,,,-- --- ---- the ------ ----- ------- ---- -- --- ------- --<br>------- ---------- ------ -- ----- -- ----- -- ---- ------<br>--- ----- --- --- ------ -------- ----- --- ------ ----- --<br>----- ----- ---------- --- --- ------ ------ ---- -- ------<br>------- --- ------ ----- --- ---- ------- -- ---- --- --<br>------- ------,192959.5,192958.30000001192,192613.842,192623.19999998808,192630.369,192963.554,,3,the
screen,html.Screen,2_1_1_1_4,2022-02-18T13:12:11.018Z,,,,,,,,,,,,,,,,,54,,,,,,,,,,,,,,409.3459999761544,,response,,,,100,,,,,,,Space,keypress(Space),,,,,,,,-- --- ---- --- French ----- ------- ---- -- --- ------- --<br>------- ---------- ------ -- ----- -- ----- -- ---- ------<br>--- ----- --- --- ------ -------- ----- --- ------ ----- --<br>----- ----- ---------- --- --- ------ ------ ---- -- ------<br>------- --- ------ ----- --- ---- ------- -- ---- --- --<br>------- ------,193374,193372.89999997616,192946.804,192959.69999998808,192963.554,193379.966,,4,French
screen,html.Screen,2_1_1_1_5,2022-02-18T13:12:11.393Z,,,,,,,,,,,,,,,,,54,,,,,,,,,,,,,,367.83400001193513,,response,,,,100,,,,,,,Space,keypress(Space),,,,,,,,-- --- ---- --- ------ crown ------- ---- -- --- ------- --<br>------- ---------- ------ -- ----- -- ----- -- ---- ------<br>--- ----- --- --- ------ -------- ----- --- ------ ----- --<br>----- ----- ---------- --- --- ------ ------ ---- -- ------<br>------- --- ------ ----- --- ---- ------- -- ---- --- --<br>------- ------,193748.80000001192,193747.80000001192,193363.44,193374.19999998808,193379.966,193763.201,,5,crown
screen,html.Screen,2_1_1_1_6,2022-02-18T13:12:11.758Z,,,,,,,,,,,,,,,,,54,,,,,,,,,,,,,,349.99899998807814,,response,,,,100,,,,,,,Space,keypress(Space),,,,,,,,-- --- ---- --- ------ ----- secured ---- -- --- ------- --<br>------- ---------- ------ -- ----- -- ----- -- ---- ------<br>--- ----- --- --- ------ -------- ----- --- ------ ----- --<br>----- ----- ---------- --- --- ------ ------ ---- -- ------<br>------- --- ------ ----- --- ---- ------- -- ---- --- --<br>------- ------,194114.19999998808,194113.19999998808,193746.574,193749,193763.201,194129.731,,6,secured
screen,html.Screen,2_1_1_1_7,2022-02-18T13:12:12.230Z,,,,,,,,,,,,,,,,,54,,,,,,,,,,,,,,455.3690000238421,,response,,,,100,,,,,,,Space,keypress(Space),,,,,,,,-- --- ---- --- ------ ----- ------- much -- --- ------- --<br>------- ---------- ------ -- ----- -- ----- -- ---- ------<br>--- ----- --- --- ------ -------- ----- --- ------ ----- --<br>----- ----- ---------- --- --- ------ ------ ---- -- ------<br>------- --- ------ ----- --- ---- ------- -- ---- --- --<br>------- ------,194586.30000001192,194585.10000002384,194112.941,194114.5,194129.731,194596.054,,7,much
screen,html.Screen,2_1_1_1_8,2022-02-18T13:12:12.659Z,,,,,,,,,,,,,,,,,54,,,,,,,,,,,,,,417.54600002383813,,response,,,,100,,,,,,,Space,keypress(Space),,,,,,,,-- --- ---- --- ------ ----- ------- ---- of --- ------- --<br>------- ---------- ------ -- ----- -- ----- -- ---- ------<br>--- ----- --- --- ------ -------- ----- --- ------ ----- --<br>----- ----- ---------- --- --- ------ ------ ---- -- ------<br>------- --- ------ ----- --- ---- ------- -- ---- --- --<br>------- ------,195014.80000001192,195013.60000002384,194579.478,194586.5,194596.054,195029.361,,8,of
screen,html.Screen,2_1_1_1_9,2022-02-18T13:12:13.046Z,,,,,,,,,,,,,,,,,54,,,,,,,,,,,,,,371.73900002383743,,response,,,,100,,,,,,,Space,keypress(Space),,,,,,,,-- --- ---- --- ------ ----- ------- ---- -- its ------- --<br>------- ---------- ------ -- ----- -- ----- -- ---- ------<br>--- ----- --- --- ------ -------- ----- --- ------ ----- --<br>----- ----- ---------- --- --- ------ ------ ---- -- ------<br>------- --- ------ ----- --- ---- ------- -- ---- --- --<br>------- ------,195402.10000002384,195401.10000002384,195012.58,195015,195029.361,195412.453,,9,its
screen,html.Screen,2_1_1_1_10,2022-02-18T13:12:13.528Z,,,,,,,,,,,,,,,,,54,,,,,,,,,,,,,,470.24699998807046,,response,,,,100,,,,,,,Space,keypress(Space),,,,,,,,-- --- ---- --- ------ ----- ------- ---- -- --- revenue --<br>------- ---------- ------ -- ----- -- ----- -- ---- ------<br>--- ----- --- --- ------ -------- ----- --- ------ ----- --<br>----- ----- ---------- --- --- ------ ------ ---- -- ------<br>------- --- ------ ----- --- ---- ------- -- ---- --- --<br>------- ------,195883.80000001192,195882.69999998808,195395.712,195402.39999997616,195412.453,195895.568,,10,revenue
screen,html.Screen,2_1_1_1_11,2022-02-18T13:12:14.036Z,,,,,,,,,,,,,,,,,54,,,,,,,,,,,,,,495.63199998807977,,response,,,,100,,,,,,,Space,keypress(Space),,,,,,,,-- --- ---- --- ------ ----- ------- ---- -- --- ------- by<br>------- ---------- ------ -- ----- -- ----- -- ---- ------<br>--- ----- --- --- ------ -------- ----- --- ------ ----- --<br>----- ----- ---------- --- --- ------ ------ ---- -- ------<br>------- --- ------ ----- --- ---- ------- -- ---- --- --<br>------- ------,196391.80000001192,196391.19999998808,195878.797,195884,195895.568,196395.027,,11,by
screen,html.Screen,2_1_1_1_12,2022-02-18T13:12:14.627Z,,,,,,,,,,,,,,,,,54,,,,,,,,,,,,,,586.8729999761563,,response,,,,100,,,,,,,Space,keypress(Space),,,,,,,,-- --- ---- --- ------ ----- ------- ---- -- --- ------- --<br>issuing ---------- ------ -- ----- -- ----- -- ---- ------<br>--- ----- --- --- ------ -------- ----- --- ------ ----- --<br>----- ----- ---------- --- --- ------ ------ ---- -- ------<br>------- --- ------ ----- --- ---- ------- -- ---- --- --<br>------- ------,196983.10000002384,196981.89999997616,196378.536,196392,196395.027,196994.986,,12,issuing
screen,html.Screen,2_1_1_1_13,2022-02-18T13:12:15.103Z,,,,,,,,,,,,,,,,,54,,,,,,,,,,,,,,462.5139999999956,,response,,,,100,,,,,,,Space,keypress(Space),,,,,,,,-- --- ---- --- ------ ----- ------- ---- -- --- ------- --<br>------- government ------ -- ----- -- ----- -- ---- ------<br>--- ----- --- --- ------ -------- ----- --- ------ ----- --<br>----- ----- ---------- --- --- ------ ------ ---- -- ------<br>------- --- ------ ----- --- ---- ------- -- ---- --- --<br>------- ------,197458.60000002384,197457.5,196978.037,196983.30000001192,196994.986,197461.209,,13,government
screen,html.Screen,2_1_1_1_14,2022-02-18T13:12:16.303Z,,,,,,,,,,,,,,,,,54,,,,,,,,,,,,,,1196.8910000238393,,response,,,,100,,,,,,,Space,keypress(Space),,,,,,,,-- --- ---- --- ------ ----- ------- ---- -- --- ------- --<br>------- ---------- bonds. -- ----- -- ----- -- ---- ------<br>--- ----- --- --- ------ -------- ----- --- ------ ----- --<br>----- ----- ---------- --- --- ------ ------ ---- -- ------<br>------- --- ------ ----- --- ---- ------- -- ---- --- --<br>------- ------,198659.19999998808,198658.10000002384,197444.562,197458.80000001192,197461.209,198687.458,,14,bonds.
screen,html.Screen,2_1_1_1_15,2022-02-18T13:12:16.784Z,,,,,,,,,,,,,,,,,54,,,,,,,,,,,,,,452.04199999998673,,response,,,,100,,,,,,,Space,keypress(Space),,,,,,,,-- --- ---- --- ------ ----- ------- ---- -- --- ------- --<br>------- ---------- ------ In ----- -- ----- -- ---- ------<br>--- ----- --- --- ------ -------- ----- --- ------ ----- --<br>----- ----- ---------- --- --- ------ ------ ---- -- ------<br>------- --- ------ ----- --- ---- ------- -- ---- --- --<br>------- ------,199140.10000002384,199139.5,198643.974,198659.5,198687.458,199143.597,,15,In
screen,html.Screen,2_1_1_1_16,2022-02-18T13:12:17.190Z,,,,,,,,,,,,,,,,,54,,,,,,,,,,,,,,401.40299999999115,,response,,,,100,,,,,,,Space,keypress(Space),,,,,,,,"-- --- ---- --- ------ ----- ------- ---- -- --- ------- --<br>------- ---------- ------ -- 1727, -- ----- -- ---- ------<br>--- ----- --- --- ------ -------- ----- --- ------ ----- --<br>----- ----- ---------- --- --- ------ ------ ---- -- ------<br>------- --- ------ ----- --- ---- ------- -- ---- --- --<br>------- ------",199546.30000001192,199545,199127.102,199140.19999998808,199143.597,199560.333,,16,"1727,"
screen,html.Screen,2_1_1_1_17,2022-02-18T13:12:18.565Z,,,,,,,,,,,,,,,,,54,,,,,,,,,,,,,,1359.5669999761449,,response,,,,100,,,,,,,Space,keypress(Space),,,,,,,,-- --- ---- --- ------ ----- ------- ---- -- --- ------- --<br>------- ---------- ------ -- ----- in ----- -- ---- ------<br>--- ----- --- --- ------ -------- ----- --- ------ ----- --<br>----- ----- ---------- --- --- ------ ------ ---- -- ------<br>------- --- ------ ----- --- ---- ------- -- ---- --- --<br>------- ------,200921.10000002384,200919.89999997616,199543.926,199546.60000002384,199560.333,200926.033,,17,in
screen,html.Screen,2_1_1_1_18,2022-02-18T13:12:19.008Z,,,,,,,,,,,,,,,,,54,,,,,,,,,,,,,,436.4670000000042,,response,,,,100,,,,,,,Space,keypress(Space),,,,,,,,-- --- ---- --- ------ ----- ------- ---- -- --- ------- --<br>------- ---------- ------ -- ----- -- order -- ---- ------<br>--- ----- --- --- ------ -------- ----- --- ------ ----- --<br>----- ----- ---------- --- --- ------ ------ ---- -- ------<br>------- --- ------ ----- --- ---- ------- -- ---- --- --<br>------- ------,201363.80000001192,201362.5,200909.454,200921.39999997616,200926.033,201375.841,,18,order
screen,html.Screen,2_1_1_1_19,2022-02-18T13:12:19.370Z,,,,,,,,,,,,,,,,,54,,,,,,,,,,,,,,349.75900002385606,,response,,,,100,,,,,,,Space,keypress(Space),,,,,,,,-- --- ---- --- ------ ----- ------- ---- -- --- ------- --<br>------- ---------- ------ -- ----- -- ----- to ---- ------<br>--- ----- --- --- ------ -------- ----- --- ------ ----- --<br>----- ----- ---------- --- --- ------ ------ ---- -- ------<br>------- --- ------ ----- --- ---- ------- -- ---- --- --<br>------- ------,201726.19999998808,201725.60000002384,201359.266,201364.10000002384,201375.841,201742.288,,19,to
screen,html.Screen,2_1_1_1_20,2022-02-18T13:12:19.706Z,,,,,,,,,,,,,,,,,54,,,,,,,,,,,,,,318.4119999880786,,response,,,,100,,,,,,,Space,keypress(Space),,,,,,,,-- --- ---- --- ------ ----- ------- ---- -- --- ------- --<br>------- ---------- ------ -- ----- -- ----- -- save ------<br>--- ----- --- --- ------ -------- ----- --- ------ ----- --<br>----- ----- ---------- --- --- ------ ------ ---- -- ------<br>------- --- ------ ----- --- ---- ------- -- ---- --- --<br>------- ------,202061.80000001192,202060.69999998808,201725.573,201726.30000001192,201742.288,202075.663,,20,save
screen,html.Screen,2_1_1_1_21,2022-02-18T13:12:20.039Z,,,,,,,,,,,,,,,,,54,,,,,,,,,,,,,,318.83699999999953,,response,,,,100,,,,,,,Space,keypress(Space),,,,,,,,"-- --- ---- --- ------ ----- ------- ---- -- --- ------- --<br>------- ---------- ------ -- ----- -- ----- -- ---- money,<br>--- ----- --- --- ------ -------- ----- --- ------ ----- --<br>----- ----- ---------- --- --- ------ ------ ---- -- ------<br>------- --- ------ ----- --- ---- ------- -- ---- --- --<br>------- ------",202395.39999997616,202394.5,202058.862,202062,202075.663,202408.826,,21,"money,"
screen,html.Screen,2_1_1_1_22,2022-02-18T13:12:20.420Z,,,,,,,,,,,,,,,,,54,,,,,,,,,,,,,,365.67399999999907,,response,,,,100,,,,,,,Space,keypress(Space),,,,,,,,-- --- ---- --- ------ ----- ------- ---- -- --- ------- --<br>------- ---------- ------ -- ----- -- ----- -- ---- ------<br>the ----- --- --- ------ -------- ----- --- ------ ----- --<br>----- ----- ---------- --- --- ------ ------ ---- -- ------<br>------- --- ------ ----- --- ---- ------- -- ---- --- --<br>------- ------,202775.69999998808,202774.5,202392.059,202395.60000002384,202408.826,202791.817,,22,the
screen,html.Screen,2_1_1_1_23,2022-02-18T13:12:20.770Z,,,,,,,,,,,,,,,,,54,,,,,,,,,,,,,,333.18299999999,,response,,,,100,,,,,,,Space,keypress(Space),,,,,,,,-- --- ---- --- ------ ----- ------- ---- -- --- ------- --<br>------- ---------- ------ -- ----- -- ----- -- ---- ------<br>--- state --- --- ------ -------- ----- --- ------ ----- --<br>----- ----- ---------- --- --- ------ ------ ---- -- ------<br>------- --- ------ ----- --- ---- ------- -- ---- --- --<br>------- ------,203125.60000002384,203125,202775.214,202776,202791.817,203141.722,,23,state
screen,html.Screen,2_1_1_1_24,2022-02-18T13:12:21.137Z,,,,,,,,,,,,,,,,,54,,,,,,,,,,,,,,349.6779999761493,,response,,,,100,,,,,,,Space,keypress(Space),,,,,,,,-- --- ---- --- ------ ----- ------- ---- -- --- ------- --<br>------- ---------- ------ -- ----- -- ----- -- ---- ------<br>--- ----- cut --- ------ -------- ----- --- ------ ----- --<br>----- ----- ---------- --- --- ------ ------ ---- -- ------<br>------- --- ------ ----- --- ---- ------- -- ---- --- --<br>------- ------,203492.60000002384,203491.39999997616,203124.857,203125.60000002384,203141.722,203508.273,,24,cut
screen,html.Screen,2_1_1_1_25,2022-02-18T13:12:21.478Z,,,,,,,,,,,,,,,,,54,,,,,,,,,,,,,,324.7270000000135,,response,,,,100,,,,,,,Space,keypress(Space),,,,,,,,-- --- ---- --- ------ ----- ------- ---- -- --- ------- --<br>------- ---------- ------ -- ----- -- ----- -- ---- ------<br>--- ----- --- the ------ -------- ----- --- ------ ----- --<br>----- ----- ---------- --- --- ------ ------ ---- -- ------<br>------- --- ------ ----- --- ---- ------- -- ---- --- --<br>------- ------,203834,203833,203491.455,203492.80000001192,203508.273,203841.305,,25,the
screen,html.Screen,2_1_1_1_26,2022-02-18T13:12:22.192Z,,,,,,,,,,,,,,,,,54,,,,,,,,,,,,,,705.4950000119279,,response,,,,100,,,,,,,Space,keypress(Space),,,,,,,,-- --- ---- --- ------ ----- ------- ---- -- --- ------- --<br>------- ---------- ------ -- ----- -- ----- -- ---- ------<br>--- ----- --- --- bonds' -------- ----- --- ------ ----- --<br>----- ----- ---------- --- --- ------ ------ ---- -- ------<br>------- --- ------ ----- --- ---- ------- -- ---- --- --<br>------- ------,204548,204546.80000001192,203824.657,203834.19999998808,203841.305,204557.627,,26,bonds'
screen,html.Screen,2_1_1_1_27,2022-02-18T13:12:22.698Z,,,,,,,,,,,,,,,,,54,,,,,,,,,,,,,,495.4730000238342,,response,,,,100,,,,,,,Space,keypress(Space),,,,,,,,-- --- ---- --- ------ ----- ------- ---- -- --- ------- --<br>------- ---------- ------ -- ----- -- ----- -- ---- ------<br>--- ----- --- --- ------ interest ----- --- ------ ----- --<br>----- ----- ---------- --- --- ------ ------ ---- -- ------<br>------- --- ------ ----- --- ---- ------- -- ---- --- --<br>------- ------,205054.30000001192,205053.10000002384,204540.922,204548.19999998808,204557.627,205057.243,,27,interest
screen,html.Screen,2_1_1_1_28,2022-02-18T13:12:23.558Z,,,,,,,,,,,,,,,,,54,,,,,,,,,,,,,,855.4569999880914,,response,,,,100,,,,,,,Space,keypress(Space),,,,,,,,-- --- ---- --- ------ ----- ------- ---- -- --- ------- --<br>------- ---------- ------ -- ----- -- ----- -- ---- ------<br>--- ----- --- --- ------ -------- rate. --- ------ ----- --<br>----- ----- ---------- --- --- ------ ------ ---- -- ------<br>------- --- ------ ----- --- ---- ------- -- ---- --- --<br>------- ------,205913.89999997616,205912.69999998808,205040.58,205054.5,205057.243,205923.554,,28,rate.
screen,html.Screen,2_1_1_1_29,2022-02-18T13:12:23.969Z,,,,,,,,,,,,,,,,,54,,,,,,,,,,,,,,400.04600002383813,,response,,,,100,,,,,,,Space,keypress(Space),,,,,,,,-- --- ---- --- ------ ----- ------- ---- -- --- ------- --<br>------- ---------- ------ -- ----- -- ----- -- ---- ------<br>--- ----- --- --- ------ -------- ----- The ------ ----- --<br>----- ----- ---------- --- --- ------ ------ ---- -- ------<br>------- --- ------ ----- --- ---- ------- -- ---- --- --<br>------- ------,206324.69999998808,206323.60000002384,205906.864,205914.10000002384,205923.554,206340.122,,29,The
screen,html.Screen,2_1_1_1_30,2022-02-18T13:12:24.415Z,,,,,,,,,,,,,,,,,54,,,,,,,,,,,,,,430.1780000119179,,response,,,,100,,,,,,,Space,keypress(Space),,,,,,,,-- --- ---- --- ------ ----- ------- ---- -- --- ------- --<br>------- ---------- ------ -- ----- -- ----- -- ---- ------<br>--- ----- --- --- ------ -------- ----- --- market ----- --<br>----- ----- ---------- --- --- ------ ------ ---- -- ------<br>------- --- ------ ----- --- ---- ------- -- ---- --- --<br>------- ------,206771.30000001192,206770.30000001192,206323.335,206325,206340.122,206794.345,,30,market
screen,html.Screen,2_1_1_1_31,2022-02-18T13:12:24.894Z,,,,,,,,,,,,,,,,,54,,,,,,,,,,,,,,455.054999976157,,response,,,,100,,,,,,,Space,keypress(Space),,,,,,,,-- --- ---- --- ------ ----- ------- ---- -- --- ------- --<br>------- ---------- ------ -- ----- -- ----- -- ---- ------<br>--- ----- --- --- ------ -------- ----- --- ------ value --<br>----- ----- ---------- --- --- ------ ------ ---- -- ------<br>------- --- ------ ----- --- ---- ------- -- ---- --- --<br>------- ------,207250.39999997616,207249.39999997616,206756.445,206771.60000002384,206794.345,207256.087,,31,value
screen,html.Screen,2_1_1_1_32,2022-02-18T13:12:25.400Z,,,,,,,,,,,,,,,,,54,,,,,,,,,,,,,,498.41300000000047,,response,,,,100,,,,,,,Space,keypress(Space),,,,,,,,-- --- ---- --- ------ ----- ------- ---- -- --- ------- --<br>------- ---------- ------ -- ----- -- ----- -- ---- ------<br>--- ----- --- --- ------ -------- ----- --- ------ ----- of<br>----- ----- ---------- --- --- ------ ------ ---- -- ------<br>------- --- ------ ----- --- ---- ------- -- ---- --- --<br>------- ------,207755.69999998808,207754.5,207239.386,207250.60000002384,207256.087,207772.723,,32,of
screen,html.Screen,2_1_1_1_33,2022-02-18T13:12:25.807Z,,,,,,,,,,,,,,,,,54,,,,,,,,,,,,,,389.3770000238437,,response,,,,100,,,,,,,Space,keypress(Space),,,,,,,,-- --- ---- --- ------ ----- ------- ---- -- --- ------- --<br>------- ---------- ------ -- ----- -- ----- -- ---- ------<br>--- ----- --- --- ------ -------- ----- --- ------ ----- --<br>these ----- ---------- --- --- ------ ------ ---- -- ------<br>------- --- ------ ----- --- ---- ------- -- ---- --- --<br>------- ------,208162.89999997616,208162.10000002384,207755.911,207755.89999997616,207772.723,208172.28,,33,these
screen,html.Screen,2_1_1_1_34,2022-02-18T13:12:26.195Z,,,,,,,,,,,,,,,,,54,,,,,,,,,,,,,,378.0200000119221,,response,,,,100,,,,,,,Space,keypress(Space),,,,,,,,-- --- ---- --- ------ ----- ------- ---- -- --- ------- --<br>------- ---------- ------ -- ----- -- ----- -- ---- ------<br>--- ----- --- --- ------ -------- ----- --- ------ ----- --<br>----- bonds ---------- --- --- ------ ------ ---- -- ------<br>------- --- ------ ----- --- ---- ------- -- ---- --- --<br>------- ------,208551.30000001192,208550.30000001192,208155.728,208163.10000002384,208172.28,208555.379,,34,bonds
screen,html.Screen,2_1_1_1_35,2022-02-18T13:12:26.665Z,,,,,,,,,,,,,,,,,54,,,,,,,,,,,,,,464.92100001193467,,response,,,,100,,,,,,,Space,keypress(Space),,,,,,,,"-- --- ---- --- ------ ----- ------- ---- -- --- ------- --<br>------- ---------- ------ -- ----- -- ----- -- ---- ------<br>--- ----- --- --- ------ -------- ----- --- ------ ----- --<br>----- ----- plummeted, --- --- ------ ------ ---- -- ------<br>------- --- ------ ----- --- ---- ------- -- ---- --- --<br>------- ------",209021.5,209020.30000001192,208538.689,208551.60000002384,208555.379,209038.715,,35,"plummeted,"
screen,html.Screen,2_1_1_1_36,2022-02-18T13:12:27.118Z,,,,,,,,,,,,,,,,,54,,,,,,,,,,,,,,433.88500002384535,,response,,,,100,,,,,,,Space,keypress(Space),,,,,,,,-- --- ---- --- ------ ----- ------- ---- -- --- ------- --<br>------- ---------- ------ -- ----- -- ----- -- ---- ------<br>--- ----- --- --- ------ -------- ----- --- ------ ----- --<br>----- ----- ---------- and --- ------ ------ ---- -- ------<br>------- --- ------ ----- --- ---- ------- -- ---- --- --<br>------- ------,209473.60000002384,209472.60000002384,209021.843,209021.69999998808,209038.715,209488.234,,36,and
screen,html.Screen,2_1_1_1_37,2022-02-18T13:12:27.532Z,,,,,,,,,,,,,,,,,54,,,,,,,,,,,,,,399.6659999761614,,response,,,,100,,,,,,,Space,keypress(Space),,,,,,,,-- --- ---- --- ------ ----- ------- ---- -- --- ------- --<br>------- ---------- ------ -- ----- -- ----- -- ---- ------<br>--- ----- --- --- ------ -------- ----- --- ------ ----- --<br>----- ----- ---------- --- the ------ ------ ---- -- ------<br>------- --- ------ ----- --- ---- ------- -- ---- --- --<br>------- ------,209888.5,209887.89999997616,209471.709,209473.69999998808,209488.234,209904.919,,37,the
screen,html.Screen,2_1_1_1_38,2022-02-18T13:12:27.912Z,,,,,,,,,,,,,,,,,54,,,,,,,,,,,,,,361.5810000000056,,response,,,,100,,,,,,,Space,keypress(Space),,,,,,,,-- --- ---- --- ------ ----- ------- ---- -- --- ------- --<br>------- ---------- ------ -- ----- -- ----- -- ---- ------<br>--- ----- --- --- ------ -------- ----- --- ------ ----- --<br>----- ----- ---------- --- --- market ------ ---- -- ------<br>------- --- ------ ----- --- ---- ------- -- ---- --- --<br>------- ------,210267.60000002384,210266.5,209887.964,209888.60000002384,209904.919,210271.192,,38,market
screen,html.Screen,2_1_1_1_39,2022-02-18T13:12:28.350Z,,,,,,,,,,,,,,,,,54,,,,,,,,,,,,,,434.1080000119109,,response,,,,100,,,,,,,Space,keypress(Space),,,,,,,,-- --- ---- --- ------ ----- ------- ---- -- --- ------- --<br>------- ---------- ------ -- ----- -- ----- -- ---- ------<br>--- ----- --- --- ------ -------- ----- --- ------ ----- --<br>----- ----- ---------- --- --- ------ became ---- -- ------<br>------- --- ------ ----- --- ---- ------- -- ---- --- --<br>------- ------,210705.89999997616,210705.30000001192,210254.618,210267.80000001192,210271.192,210720.942,,39,became
screen,html.Screen,2_1_1_1_40,2022-02-18T13:12:28.751Z,,,,,,,,,,,,,,,,,54,,,,,,,,,,,,,,384.65800002383185,,response,,,,100,,,,,,,Space,keypress(Space),,,,,,,,-- --- ---- --- ------ ----- ------- ---- -- --- ------- --<br>------- ---------- ------ -- ----- -- ----- -- ---- ------<br>--- ----- --- --- ------ -------- ----- --- ------ ----- --<br>----- ----- ---------- --- --- ------ ------ wary -- ------<br>------- --- ------ ----- --- ---- ------- -- ---- --- --<br>------- ------,211106.69999998808,211105.60000002384,210704.398,210706.10000002384,210720.942,211120.967,,40,wary
screen,html.Screen,2_1_1_1_41,2022-02-18T13:12:29.228Z,,,,,,,,,,,,,,,,,54,,,,,,,,,,,,,,462.2329999880749,,response,,,,100,,,,,,,Space,keypress(Space),,,,,,,,-- --- ---- --- ------ ----- ------- ---- -- --- ------- --<br>------- ---------- ------ -- ----- -- ----- -- ---- ------<br>--- ----- --- --- ------ -------- ----- --- ------ ----- --<br>----- ----- ---------- --- --- ------ ------ ---- of ------<br>------- --- ------ ----- --- ---- ------- -- ---- --- --<br>------- ------,211584.30000001192,211583.19999998808,211104.025,211107,211120.967,211587.13,,41,of
screen,html.Screen,2_1_1_1_42,2022-02-18T13:12:29.690Z,,,,,,,,,,,,,,,,,54,,,,,,,,,,,,,,458.1700000119163,,response,,,,100,,,,,,,Space,keypress(Space),,,,,,,,-- --- ---- --- ------ ----- ------- ---- -- --- ------- --<br>------- ---------- ------ -- ----- -- ----- -- ---- ------<br>--- ----- --- --- ------ -------- ----- --- ------ ----- --<br>----- ----- ---------- --- --- ------ ------ ---- -- French<br>------- --- ------ ----- --- ---- ------- -- ---- --- --<br>------- ------,212046.39999997616,212045.30000001192,211570.604,211584.5,211587.13,212053.553,,42,French
screen,html.Screen,2_1_1_1_43,2022-02-18T13:12:30.096Z,,,,,,,,,,,,,,,,,54,,,,,,,,,,,,,,397.3469999761437,,response,,,,100,,,,,,,Space,keypress(Space),,,,,,,,-- --- ---- --- ------ ----- ------- ---- -- --- ------- --<br>------- ---------- ------ -- ----- -- ----- -- ---- ------<br>--- ----- --- --- ------ -------- ----- --- ------ ----- --<br>----- ----- ---------- --- --- ------ ------ ---- -- ------<br>credit. --- ------ ----- --- ---- ------- -- ---- --- --<br>------- ------,212452,212450.89999997616,212037.035,212046.60000002384,212053.553,212474.271,,43,credit.
screen,html.Screen,2_1_1_1_44,2022-02-18T13:12:30.806Z,,,,,,,,,,,,,,,,,54,,,,,,,,,,,,,,686.529000011913,,response,,,,100,,,,,,,Space,keypress(Space),,,,,,,,-- --- ---- --- ------ ----- ------- ---- -- --- ------- --<br>------- ---------- ------ -- ----- -- ----- -- ---- ------<br>--- ----- --- --- ------ -------- ----- --- ------ ----- --<br>----- ----- ---------- --- --- ------ ------ ---- -- ------<br>------- The ------ ----- --- ---- ------- -- ---- --- --<br>------- ------,213161.80000001192,213160.80000001192,212436.675,212452.30000001192,212474.271,213169.7,,44,The
screen,html.Screen,2_1_1_1_45,2022-02-18T13:12:31.200Z,,,,,,,,,,,,,,,,,54,,,,,,,,,,,,,,385.99999998806743,,response,,,,100,,,,,,,Space,keypress(Space),,,,,,,,-- --- ---- --- ------ ----- ------- ---- -- --- ------- --<br>------- ---------- ------ -- ----- -- ----- -- ---- ------<br>--- ----- --- --- ------ -------- ----- --- ------ ----- --<br>----- ----- ---------- --- --- ------ ------ ---- -- ------<br>------- --- French ----- --- ---- ------- -- ---- --- --<br>------- ------,213556.39999997616,213555.69999998808,213153.081,213162.10000002384,213169.7,213569.449,,45,French
screen,html.Screen,2_1_1_1_46,2022-02-18T13:12:31.580Z,,,,,,,,,,,,,,,,,54,,,,,,,,,,,,,,365.4509999761649,,response,,,,100,,,,,,,Space,keypress(Space),,,,,,,,-- --- ---- --- ------ ----- ------- ---- -- --- ------- --<br>------- ---------- ------ -- ----- -- ----- -- ---- ------<br>--- ----- --- --- ------ -------- ----- --- ------ ----- --<br>----- ----- ---------- --- --- ------ ------ ---- -- ------<br>------- --- ------ state --- ---- ------- -- ---- --- --<br>------- ------,213935.89999997616,213934.89999997616,213552.894,213556.5,213569.449,213952.802,,46,state
screen,html.Screen,2_1_1_1_47,2022-02-18T13:12:31.919Z,,,,,,,,,,,,,,,,,54,,,,,,,,,,,,,,321.7980000238458,,response,,,,100,,,,,,,Space,keypress(Space),,,,,,,,-- --- ---- --- ------ ----- ------- ---- -- --- ------- --<br>------- ---------- ------ -- ----- -- ----- -- ---- ------<br>--- ----- --- --- ------ -------- ----- --- ------ ----- --<br>----- ----- ---------- --- --- ------ ------ ---- -- ------<br>------- --- ------ ----- was ---- ------- -- ---- --- --<br>------- ------,214275.39999997616,214274.60000002384,213935.866,213936,213952.802,214285.885,,47,was
screen,html.Screen,2_1_1_1_48,2022-02-18T13:12:32.292Z,,,,,,,,,,,,,,,,,54,,,,,,,,,,,,,,361.6149999999907,,response,,,,100,,,,,,,Space,keypress(Space),,,,,,,,-- --- ---- --- ------ ----- ------- ---- -- --- ------- --<br>------- ---------- ------ -- ----- -- ----- -- ---- ------<br>--- ----- --- --- ------ -------- ----- --- ------ ----- --<br>----- ----- ---------- --- --- ------ ------ ---- -- ------<br>------- --- ------ ----- --- left ------- -- ---- --- --<br>------- ------,214648.19999998808,214647.5,214269.192,214275.69999998808,214285.885,214652.169,,48,left
screen,html.Screen,2_1_1_1_49,2022-02-18T13:12:32.692Z,,,,,,,,,,,,,,,,,54,,,,,,,,,,,,,,395.03099998808466,,response,,,,100,,,,,,,Space,keypress(Space),,,,,,,,-- --- ---- --- ------ ----- ------- ---- -- --- ------- --<br>------- ---------- ------ -- ----- -- ----- -- ---- ------<br>--- ----- --- --- ------ -------- ----- --- ------ ----- --<br>----- ----- ---------- --- --- ------ ------ ---- -- ------<br>------- --- ------ ----- --- ---- without -- ---- --- --<br>------- ------,215048.39999997616,215047.19999998808,214635.691,214648.30000001192,214652.169,215052.063,,49,without
screen,html.Screen,2_1_1_1_50,2022-02-18T13:12:33.027Z,,,,,,,,,,,,,,,,,54,,,,,,,,,,,,,,330.0370000238472,,response,,,,100,,,,,,,Space,keypress(Space),,,,,,,,-- --- ---- --- ------ ----- ------- ---- -- --- ------- --<br>------- ---------- ------ -- ----- -- ----- -- ---- ------<br>--- ----- --- --- ------ -------- ----- --- ------ ----- --<br>----- ----- ---------- --- --- ------ ------ ---- -- ------<br>------- --- ------ ----- --- ---- ------- an ---- --- --<br>------- ------,215383.19999998808,215382.10000002384,215035.301,215048.60000002384,215052.063,215385.173,,50,an
screen,html.Screen,2_1_1_1_51,2022-02-18T13:12:33.400Z,,,,,,,,,,,,,,,,,54,,,,,,,,,,,,,,370.22699997614836,,response,,,,100,,,,,,,Space,keypress(Space),,,,,,,,-- --- ---- --- ------ ----- ------- ---- -- --- ------- --<br>------- ---------- ------ -- ----- -- ----- -- ---- ------<br>--- ----- --- --- ------ -------- ----- --- ------ ----- --<br>----- ----- ---------- --- --- ------ ------ ---- -- ------<br>------- --- ------ ----- --- ---- ------- -- easy --- --<br>------- ------,215756.39999997616,215755.39999997616,215368.639,215383.5,215385.173,215768.584,,51,easy
screen,html.Screen,2_1_1_1_52,2022-02-18T13:12:33.752Z,,,,,,,,,,,,,,,,,54,,,,,,,,,,,,,,338.41599999999744,,response,,,,100,,,,,,,Space,keypress(Space),,,,,,,,-- --- ---- --- ------ ----- ------- ---- -- --- ------- --<br>------- ---------- ------ -- ----- -- ----- -- ---- ------<br>--- ----- --- --- ------ -------- ----- --- ------ ----- --<br>----- ----- ---------- --- --- ------ ------ ---- -- ------<br>------- --- ------ ----- --- ---- ------- -- ---- way --<br>------- ------,216107.80000001192,216107,215751.743,215756.60000002384,215768.584,216118.188,,52,way
screen,html.Screen,2_1_1_1_53,2022-02-18T13:12:34.099Z,,,,,,,,,,,,,,,,,54,,,,,,,,,,,,,,336.2119999761635,,response,,,,100,,,,,,,Space,keypress(Space),,,,,,,,-- --- ---- --- ------ ----- ------- ---- -- --- ------- --<br>------- ---------- ------ -- ----- -- ----- -- ---- ------<br>--- ----- --- --- ------ -------- ----- --- ------ ----- --<br>----- ----- ---------- --- --- ------ ------ ---- -- ------<br>------- --- ------ ----- --- ---- ------- -- ---- --- of<br>------- ------,216455.39999997616,216454.39999997616,216101.59,216107.89999997616,216118.188,216468.142,,53,of
screen,html.Screen,2_1_1_1_54,2022-02-18T13:12:34.470Z,,,,,,,,,,,,,,,,,54,,,,,,,,,,,,,,357.1580000119284,,response,,,,100,,,,,,,Space,keypress(Space),,,,,,,,-- --- ---- --- ------ ----- ------- ---- -- --- ------- --<br>------- ---------- ------ -- ----- -- ----- -- ---- ------<br>--- ----- --- --- ------ -------- ----- --- ------ ----- --<br>----- ----- ---------- --- --- ------ ------ ---- -- ------<br>------- --- ------ ----- --- ---- ------- -- ---- --- --<br>raising ------,216826.39999997616,216825.30000001192,216451.217,216455.60000002384,216468.142,216834.524,,54,raising
screen,html.Screen,2_1_1_1_55,2022-02-18T13:12:34.858Z,,,,,,,,,,,,,,,,,54,,,,,,,,,,,,,,378.4759999999951,,response,,,,100,,,,,,,Space,keypress(Space),,,,,,,,-- --- ---- --- ------ ----- ------- ---- -- --- ------- --<br>------- ---------- ------ -- ----- -- ----- -- ---- ------<br>--- ----- --- --- ------ -------- ----- --- ------ ----- --<br>----- ----- ---------- --- --- ------ ------ ---- -- ------<br>------- --- ------ ----- --- ---- ------- -- ---- --- --<br>------- money.,217214.19999998808,217213,216817.867,216826.60000002384,216834.524,217217.555,,55,money.
Item 100,flow.Loop,2_1_1_1,2022-02-18T13:12:34.859Z,,,,,,,,,,,,,,,,,,,,,,,,,,,,,,,26065.136,,completion,,,,,F,,,,,,,,,,,silence,,,,,217214.69999998808,217213,191131.306,191132.5,191147.864,217217.555,,,
Question 1,html.Screen,2_1_1_2,2022-02-18T13:12:37.499Z,,,,,,,,,,,,,,,,,,,,,,,,,,,,true,TRUE,,2636.045000023849,,response,,,,100,F,,,,,,TRUE,click #choice-1,,,,silence,,,,,219855.10000002384,219853.60000002384,217201,217214.89999997616,217217.555,219866.115,,,
Question 2,html.Screen,2_1_1_3,2022-02-18T13:12:39.730Z,,,,,,,,,,,,,,,,,,,,,,,,,,,,true,FALSE,,2217.0849999880884,,response,,,,100,F,,,,,,FALSE,click #choice-2,,,,silence,,,,,222085.60000002384,222083.19999998808,219849.644,219855.30000001192,219866.115,222098.373,,,
Item 100,flow.Sequence,2_1_1,2022-02-18T13:12:39.730Z,,,,,,,,,,,,,,,,,,,,,,,,,,,,,,,40930.14999998809,,completion,,,,,,,,,,,,,,,,,,,,,222085.89999997616,222083.19999998808,181136.298,181140.5,181153.05,222098.373,,,
End of Practice,html.Page,2_1_2,2022-02-18T13:12:59.733Z,,,,,,,,,,,,,,,,,,,,,,,,,,,,,,,20006.326,,timeout,,,,,,,,,,,,,,,,,,,,,242088.80000001192,242087.977,222081.799,222086.10000002384,222098.373,242104.699,,,
Practice,flow.Sequence,2_1,2022-02-18T13:12:59.733Z,,,,,,,,,,,,,,,,,,,,,,,,,,,,,,,106611.08800000002,,completion,,,,,,,,,,,,,,,,,,,,,242089.10000002384,242087.977,135443.678,135464.5,135476.889,242104.699,,,
Trap_instruction,html.Page,2_2_0,2022-02-18T13:13:08.476Z,,,,,,,,,,,,,,,,,,,,,,,,,,,,,,,8726.500999988086,,form submission,,,,,,,,,,,,,,,,,,,,,250831.69999998808,250831.19999998808,242087.977,242089.19999998808,242104.699,250849.957,,,
trap_trial,html.Screen,2_2_1,2022-02-18T13:13:11.582Z,,,,,,,,,,,,,,,,,,,,,,,,,,,,true,1,,3086.9429999761633,,response,,,,,,,,,,,1,click #choice-1,,,,,,,,,253938,253936.89999997616,250816.839,250831.89999997616,250849.957,253948.355,,,
end of trap trial,html.Page,2_2_2,2022-02-18T13:13:13.505Z,,,,,,,,,,,,,,,,,,,,,,,,,,,,,,,1910.7450000238314,,form submission,,,,,,,,,,,,,,,,,,,,,255860.89999997616,255859.10000002384,253931.838,253938.10000002384,253948.355,255864.029,,,
Trap 1,flow.Sequence,2_2,2022-02-18T13:13:13.505Z,,,,,,,,,,,,,,,,,,,,,,,,,,,,,,,13754.401000023849,,completion,,,,,,,,,,,,,,,,,,,,,255861.10000002384,255859.10000002384,242087.977,242089.19999998808,242104.699,255864.029,,,
Standby,html.Page,2_3_0,2022-02-18T13:13:21.488Z,,,,,,,,,,,,,,,,,,,,,,,,,,,,,,,7995.9740000000165,,timeout,,,,,,,,,,,,,,,,,,,,,263843.89999997616,263843.228,255847.359,255861.30000001192,255864.029,263860.003,,,
Holding screen,html.Screen,2_3_1_0_0,2022-02-18T13:13:28.484Z,,,,,,,,,,,,,,,,,,,,,,,,,,,,,,,6996.360999999975,,timeout,,,,,,,,,,,,,,,,,,,,,270840.1999999881,270839.641,263843.228,263844,263860.003,270856.364,,,
screen,html.Screen,2_3_1_0_1_0,2022-02-18T13:13:29.222Z,,,,,,,,,,,,,,,,,48,,,,,,,,,,,,,,720.7360000238405,,response,,,,10,F,,,,,,Space,keypress(Space),,,,instrumental,,,,As -- --- ------ ------- --------- ----------- --------<br>--------- -------- --- ------- -- ------- ---- -- ------<br>-- --- -------- -------- ---------- ---- ---- ---- ------<br>-- --------- -- ---- -- --- -- --- ------- -- - -----<br>---------- -- -- -- ---- ----- -- ------ -- --- ------<br>-------,271577.6999999881,271577.10000002384,270839.641,270840.39999997616,270856.364,271589.178,,0,As
screen,html.Screen,2_3_1_0_1_1,2022-02-18T13:13:29.637Z,,,,,,,,,,,,,,,,,48,,,,,,,,,,,,,,403.52199998806464,,response,,,,10,F,,,,,,Space,keypress(Space),,,,instrumental,,,,-- in --- ------ ------- --------- ----------- --------<br>--------- -------- --- ------- -- ------- ---- -- ------<br>-- --- -------- -------- ---------- ---- ---- ---- ------<br>-- --------- -- ---- -- --- -- --- ------- -- - -----<br>---------- -- -- -- ---- ----- -- ------ -- --- ------<br>-------,271993.3000000119,271992.6999999881,271572.565,271577.89999997616,271589.178,272005.754,,1,in
screen,html.Screen,2_3_1_0_1_2,2022-02-18T13:13:30.013Z,,,,,,,,,,,,,,,,,48,,,,,,,,,,,,,,362.9459999880637,,response,,,,10,F,,,,,,Space,keypress(Space),,,,instrumental,,,,-- -- the ------ ------- --------- ----------- --------<br>--------- -------- --- ------- -- ------- ---- -- ------<br>-- --- -------- -------- ---------- ---- ---- ---- ------<br>-- --------- -- ---- -- --- -- --- ------- -- - -----<br>---------- -- -- -- ---- ----- -- ------ -- --- ------<br>-------,272369.3000000119,272368.6999999881,271989.03,271993.39999997616,272005.754,272372.055,,2,the
screen,html.Screen,2_3_1_0_1_3,2022-02-18T13:13:30.396Z,,,,,,,,,,,,,,,,,48,,,,,,,,,,,,,,379.445000000007,,response,,,,10,F,,,,,,Space,keypress(Space),,,,instrumental,,,,-- -- --- United ------- --------- ----------- --------<br>--------- -------- --- ------- -- ------- ---- -- ------<br>-- --- -------- -------- ---------- ---- ---- ---- ------<br>-- --------- -- ---- -- --- -- --- ------- -- - -----<br>---------- -- -- -- ---- ----- -- ------ -- --- ------<br>-------,272751.89999997616,272751.5,272355.449,272369.3000000119,272372.055,272755.172,,3,United
screen,html.Screen,2_3_1_0_1_4,2022-02-18T13:13:30.777Z,,,,,,,,,,,,,,,,,48,,,,,,,,,,,,,,376.92800002382137,,response,,,,10,F,,,,,,Space,keypress(Space),,,,instrumental,,,,"-- -- --- ------ States, --------- ----------- --------<br>--------- -------- --- ------- -- ------- ---- -- ------<br>-- --- -------- -------- ---------- ---- ---- ---- ------<br>-- --------- -- ---- -- --- -- --- ------- -- - -----<br>---------- -- -- -- ---- ----- -- ------ -- --- ------<br>-------",273132.6999999881,273132.10000002384,272738.492,272752,272755.172,273138.338,,4,"States,"
screen,html.Screen,2_3_1_0_1_5,2022-02-18T13:13:31.431Z,,,,,,,,,,,,,,,,,48,,,,,,,,,,,,,,647.6620000000112,,response,,,,10,F,,,,,,Space,keypress(Space),,,,instrumental,,,,-- -- --- ------ ------- Colombian ----------- --------<br>--------- -------- --- ------- -- ------- ---- -- ------<br>-- --- -------- -------- ---------- ---- ---- ---- ------<br>-- --------- -- ---- -- --- -- --- ------- -- - -----<br>---------- -- -- -- ---- ----- -- ------ -- --- ------<br>-------,273786.60000002384,273786,273121.778,273132.8000000119,273138.338,273808.148,,5,Colombian
screen,html.Screen,2_3_1_0_1_6,2022-02-18T13:13:31.800Z,,,,,,,,,,,,,,,,,48,,,,,,,,,,,,,,346.65200001193443,,response,,,,10,F,,,,,,Space,keypress(Space),,,,instrumental,,,,-- -- --- ------ ------- --------- legislation --------<br>--------- -------- --- ------- -- ------- ---- -- ------<br>-- --- -------- -------- ---------- ---- ---- ---- ------<br>-- --------- -- ---- -- --- -- --- ------- -- - -----<br>---------- -- -- -- ---- ----- -- ------ -- --- ------<br>-------,274155.5,274154.8000000119,273771.413,273786.8000000119,273808.148,274171.285,,6,legislation
screen,html.Screen,2_3_1_0_1_7,2022-02-18T13:13:32.216Z,,,,,,,,,,,,,,,,,48,,,,,,,,,,,,,,399.61499997618375,,response,,,,10,F,,,,,,Space,keypress(Space),,,,instrumental,,,,-- -- --- ------ ------- --------- ----------- requires<br>--------- -------- --- ------- -- ------- ---- -- ------<br>-- --- -------- -------- ---------- ---- ---- ---- ------<br>-- --------- -- ---- -- --- -- --- ------- -- - -----<br>---------- -- -- -- ---- ----- -- ------ -- --- ------<br>-------,274571.5,274570.89999997616,274154.438,274155.5,274171.285,274587.764,,7,requires
screen,html.Screen,2_3_1_0_1_8,2022-02-18T13:13:32.549Z,,,,,,,,,,,,,,,,,48,,,,,,,,,,,,,,317.03600001189625,,response,,,,10,F,,,,,,Space,keypress(Space),,,,instrumental,,,,-- -- --- ------ ------- --------- ----------- --------<br>travelers -------- --- ------- -- ------- ---- -- ------<br>-- --- -------- -------- ---------- ---- ---- ---- ------<br>-- --------- -- ---- -- --- -- --- ------- -- - -----<br>---------- -- -- -- ---- ----- -- ------ -- --- ------<br>-------,274905.3000000119,274904.8000000119,274571.012,274571.60000002384,274587.764,274920.796,,8,travelers
screen,html.Screen,2_3_1_0_1_9,2022-02-18T13:13:33.044Z,,,,,,,,,,,,,,,,,48,,,,,,,,,,,,,,479.00400001194794,,response,,,,10,F,,,,,,Space,keypress(Space),,,,instrumental,,,,-- -- --- ------ ------- --------- ----------- --------<br>--------- entering --- ------- -- ------- ---- -- ------<br>-- --- -------- -------- ---------- ---- ---- ---- ------<br>-- --------- -- ---- -- --- -- --- ------- -- - -----<br>---------- -- -- -- ---- ----- -- ------ -- --- ------<br>-------,275400.3000000119,275399.8000000119,274904.104,274905.3000000119,274920.796,275403.836,,9,entering
screen,html.Screen,2_3_1_0_1_10,2022-02-18T13:13:33.409Z,,,,,,,,,,,,,,,,,48,,,,,,,,,,,,,,360.7640000238316,,response,,,,10,F,,,,,,Space,keypress(Space),,,,instrumental,,,,-- -- --- ------ ------- --------- ----------- --------<br>--------- -------- the ------- -- ------- ---- -- ------<br>-- --- -------- -------- ---------- ---- ---- ---- ------<br>-- --------- -- ---- -- --- -- --- ------- -- - -----<br>---------- -- -- -- ---- ----- -- ------ -- --- ------<br>-------,275765.10000002384,275764.60000002384,275387.136,275400.39999997616,275403.836,275770.408,,10,the
screen,html.Screen,2_3_1_0_1_11,2022-02-18T13:13:33.802Z,,,,,,,,,,,,,,,,,48,,,,,,,,,,,,,,387.3920000119251,,response,,,,10,F,,,,,,Space,keypress(Space),,,,instrumental,,,,-- -- --- ------ ------- --------- ----------- --------<br>--------- -------- --- country -- ------- ---- -- ------<br>-- --- -------- -------- ---------- ---- ---- ---- ------<br>-- --------- -- ---- -- --- -- --- ------- -- - -----<br>---------- -- -- -- ---- ----- -- ------ -- --- ------<br>-------,276158.39999997616,276157.8000000119,275753.737,275765.1999999881,275770.408,276170.113,,11,country
screen,html.Screen,2_3_1_0_1_12,2022-02-18T13:13:34.145Z,,,,,,,,,,,,,,,,,48,,,,,,,,,,,,,,330.3869999999879,,response,,,,10,F,,,,,,Space,keypress(Space),,,,instrumental,,,,-- -- --- ------ ------- --------- ----------- --------<br>--------- -------- --- ------- to ------- ---- -- ------<br>-- --- -------- -------- ---------- ---- ---- ---- ------<br>-- --------- -- ---- -- --- -- --- ------- -- - -----<br>---------- -- -- -- ---- ----- -- ------ -- --- ------<br>-------,276501,276500.5,276153.511,276158.5,276170.113,276503.227,,12,to
screen,html.Screen,2_3_1_0_1_13,2022-02-18T13:13:34.586Z,,,,,,,,,,,,,,,,,48,,,,,,,,,,,,,,437.97299998806557,,response,,,,10,F,,,,,,Space,keypress(Space),,,,instrumental,,,,-- -- --- ------ ------- --------- ----------- --------<br>--------- -------- --- ------- -- declare ---- -- ------<br>-- --- -------- -------- ---------- ---- ---- ---- ------<br>-- --------- -- ---- -- --- -- --- ------- -- - -----<br>---------- -- -- -- ---- ----- -- ------ -- --- ------<br>-------,276941.6999999881,276941.1999999881,276486.556,276501.10000002384,276503.227,276953.183,,13,declare
screen,html.Screen,2_3_1_0_1_14,2022-02-18T13:13:34.967Z,,,,,,,,,,,,,,,,,48,,,,,,,,,,,,,,369.51699998806,,response,,,,10,F,,,,,,Space,keypress(Space),,,,instrumental,,,,-- -- --- ------ ------- --------- ----------- --------<br>--------- -------- --- ------- -- ------- cash -- ------<br>-- --- -------- -------- ---------- ---- ---- ---- ------<br>-- --------- -- ---- -- --- -- --- ------- -- - -----<br>---------- -- -- -- ---- ----- -- ------ -- --- ------<br>-------,277323.3000000119,277322.6999999881,276936.451,276941.8000000119,276953.183,277336.168,,14,cash
screen,html.Screen,2_3_1_0_1_15,2022-02-18T13:13:35.334Z,,,,,,,,,,,,,,,,,48,,,,,,,,,,,,,,353.3319999999949,,response,,,,10,F,,,,,,Space,keypress(Space),,,,instrumental,,,,-- -- --- ------ ------- --------- ----------- --------<br>--------- -------- --- ------- -- ------- ---- in ------<br>-- --- -------- -------- ---------- ---- ---- ---- ------<br>-- --------- -- ---- -- --- -- --- ------- -- - -----<br>---------- -- -- -- ---- ----- -- ------ -- --- ------<br>-------,277690,277689.5,277319.589,277323.39999997616,277336.168,277702.79,,15,in
screen,html.Screen,2_3_1_0_1_16,2022-02-18T13:13:35.535Z,,,,,,,,,,,,,,,,,48,,,,,,,,,,,,,,187.71000000002095,,response,,,,10,F,,,,,,Space,keypress(Space),,,,instrumental,,,,-- -- --- ------ ------- --------- ----------- --------<br>--------- -------- --- ------- -- ------- ---- -- excess<br>-- --- -------- -------- ---------- ---- ---- ---- ------<br>-- --------- -- ---- -- --- -- --- ------- -- - -----<br>---------- -- -- -- ---- ----- -- ------ -- --- ------<br>-------,277891.10000002384,277890.5,277685.96,277690.10000002384,277702.79,277902.662,,16,excess
screen,html.Screen,2_3_1_0_1_17,2022-02-18T13:13:36.010Z,,,,,,,,,,,,,,,,,48,,,,,,,,,,,,,,462.8379999999888,,response,,,,10,F,,,,,,Space,keypress(Space),,,,instrumental,,,,-- -- --- ------ ------- --------- ----------- --------<br>--------- -------- --- ------- -- ------- ---- -- ------<br>of --- -------- -------- ---------- ---- ---- ---- ------<br>-- --------- -- ---- -- --- -- --- ------- -- - -----<br>---------- -- -- -- ---- ----- -- ------ -- --- ------<br>-------,278366.10000002384,278365.5,277885.937,277891.10000002384,277902.662,278368.962,,17,of
screen,html.Screen,2_3_1_0_1_18,2022-02-18T13:13:36.555Z,,,,,,,,,,,,,,,,,48,,,,,,,,,,,,,,540.9379999761586,,response,,,,10,F,,,,,,Space,keypress(Space),,,,instrumental,,,,-- -- --- ------ ------- --------- ----------- --------<br>--------- -------- --- ------- -- ------- ---- -- ------<br>-- ten -------- -------- ---------- ---- ---- ---- ------<br>-- --------- -- ---- -- --- -- --- ------- -- - -----<br>---------- -- -- -- ---- ----- -- ------ -- --- ------<br>-------,278910.5,278909.89999997616,278352.38,278366.10000002384,278368.962,278918.816,,18,ten
screen,html.Screen,2_3_1_0_1_19,2022-02-18T13:13:37.128Z,,,,,,,,,,,,,,,,,48,,,,,,,,,,,,,,564.8839999880875,,response,,,,10,F,,,,,,Space,keypress(Space),,,,instrumental,,,,-- -- --- ------ ------- --------- ----------- --------<br>--------- -------- --- ------- -- ------- ---- -- ------<br>-- --- thousand -------- ---------- ---- ---- ---- ------<br>-- --------- -- ---- -- --- -- --- ------- -- - -----<br>---------- -- -- -- ---- ----- -- ------ -- --- ------<br>-------,279484.1999999881,279483.6999999881,278902.079,278910.5,278918.816,279507.913,,19,thousand
screen,html.Screen,2_3_1_0_1_20,2022-02-18T13:13:37.557Z,,,,,,,,,,,,,,,,,48,,,,,,,,,,,,,,403.9869999761577,,response,,,,10,F,,,,,,Space,keypress(Space),,,,instrumental,,,,-- -- --- ------ ------- --------- ----------- --------<br>--------- -------- --- ------- -- ------- ---- -- ------<br>-- --- -------- dollars. ---------- ---- ---- ---- ------<br>-- --------- -- ---- -- --- -- --- ------- -- - -----<br>---------- -- -- -- ---- ----- -- ------ -- --- ------<br>-------,279912.39999997616,279911.89999997616,279468.446,279484.3000000119,279507.913,279918.325,,20,dollars.
screen,html.Screen,2_3_1_0_1_21,2022-02-18T13:13:38.237Z,,,,,,,,,,,,,,,,,48,,,,,,,,,,,,,,673.7750000238302,,response,,,,10,F,,,,,,Space,keypress(Space),,,,instrumental,,,,-- -- --- ------ ------- --------- ----------- --------<br>--------- -------- --- ------- -- ------- ---- -- ------<br>-- --- -------- -------- Concealing ---- ---- ---- ------<br>-- --------- -- ---- -- --- -- --- ------- -- - -----<br>---------- -- -- -- ---- ----- -- ------ -- --- ------<br>-------,280592.60000002384,280592.10000002384,279901.575,279912.5,279918.325,280601.26,,21,Concealing
screen,html.Screen,2_3_1_0_1_22,2022-02-18T13:13:38.589Z,,,,,,,,,,,,,,,,,48,,,,,,,,,,,,,,343.2399999999907,,response,,,,10,F,,,,,,Space,keypress(Space),,,,instrumental,,,,-- -- --- ------ ------- --------- ----------- --------<br>--------- -------- --- ------- -- ------- ---- -- ------<br>-- --- -------- -------- ---------- more ---- ---- ------<br>-- --------- -- ---- -- --- -- --- ------- -- - -----<br>---------- -- -- -- ---- ----- -- ------ -- --- ------<br>-------,280945,280944.5,280584.527,280592.6999999881,280601.26,280950.985,,22,more
screen,html.Screen,2_3_1_0_1_23,2022-02-18T13:13:39.044Z,,,,,,,,,,,,,,,,,48,,,,,,,,,,,,,,448.3150000119349,,response,,,,10,F,,,,,,Space,keypress(Space),,,,instrumental,,,,-- -- --- ------ ------- --------- ----------- --------<br>--------- -------- --- ------- -- ------- ---- -- ------<br>-- --- -------- -------- ---------- ---- than ---- ------<br>-- --------- -- ---- -- --- -- --- ------- -- - -----<br>---------- -- -- -- ---- ----- -- ------ -- --- ------<br>-------,281399.8000000119,281399.3000000119,280934.374,280945.1999999881,280950.985,281417.987,,23,than
screen,html.Screen,2_3_1_0_1_24,2022-02-18T13:13:39.434Z,,,,,,,,,,,,,,,,,48,,,,,,,,,,,,,,371.9129999761353,,response,,,,10,F,,,,,,Space,keypress(Space),,,,instrumental,,,,-- -- --- ------ ------- --------- ----------- --------<br>--------- -------- --- ------- -- ------- ---- -- ------<br>-- --- -------- -------- ---------- ---- ---- that ------<br>-- --------- -- ---- -- --- -- --- ------- -- - -----<br>---------- -- -- -- ---- ----- -- ------ -- --- ------<br>-------,281790.39999997616,281789.89999997616,281384.015,281400,281417.987,281800.649,,24,that
screen,html.Screen,2_3_1_0_1_25,2022-02-18T13:13:39.840Z,,,,,,,,,,,,,,,,,48,,,,,,,,,,,,,,394.5509999881033,,response,,,,10,F,,,,,,Space,keypress(Space),,,,instrumental,,,,-- -- --- ------ ------- --------- ----------- --------<br>--------- -------- --- ------- -- ------- ---- -- ------<br>-- --- -------- -------- ---------- ---- ---- ---- amount<br>-- --------- -- ---- -- --- -- --- ------- -- - -----<br>---------- -- -- -- ---- ----- -- ------ -- --- ------<br>-------,282195.60000002384,282195.1999999881,281783.909,281790.5,281800.649,282200.599,,25,amount
screen,html.Screen,2_3_1_0_1_26,2022-02-18T13:13:40.509Z,,,,,,,,,,,,,,,,,48,,,,,,,,,,,,,,663.3009999761707,,response,,,,10,F,,,,,,Space,keypress(Space),,,,instrumental,,,,-- -- --- ------ ------- --------- ----------- --------<br>--------- -------- --- ------- -- ------- ---- -- ------<br>-- --- -------- -------- ---------- ---- ---- ---- ------<br>to --------- -- ---- -- --- -- --- ------- -- - -----<br>---------- -- -- -- ---- ----- -- ------ -- --- ------<br>-------,282864.39999997616,282863.89999997616,282183.722,282195.6999999881,282200.599,282866.565,,26,to
screen,html.Screen,2_3_1_0_1_27,2022-02-18T13:13:41.035Z,,,,,,,,,,,,,,,,,48,,,,,,,,,,,,,,524.0350000238395,,response,,,,10,F,,,,,,Space,keypress(Space),,,,instrumental,,,,-- -- --- ------ ------- --------- ----------- --------<br>--------- -------- --- ------- -- ------- ---- -- ------<br>-- --- -------- -------- ---------- ---- ---- ---- ------<br>-- transport -- ---- -- --- -- --- ------- -- - -----<br>---------- -- -- -- ---- ----- -- ------ -- --- ------<br>-------,283391.10000002384,283390.60000002384,282849.901,282864.5,282866.565,283399.841,,27,transport
screen,html.Screen,2_3_1_0_1_28,2022-02-18T13:13:41.534Z,,,,,,,,,,,,,,,,,48,,,,,,,,,,,,,,489.55899997614324,,response,,,,10,F,,,,,,Space,keypress(Space),,,,instrumental,,,,-- -- --- ------ ------- --------- ----------- --------<br>--------- -------- --- ------- -- ------- ---- -- ------<br>-- --- -------- -------- ---------- ---- ---- ---- ------<br>-- --------- it ---- -- --- -- --- ------- -- - -----<br>---------- -- -- -- ---- ----- -- ------ -- --- ------<br>-------,283890,283889.39999997616,283383.07,283391.1999999881,283399.841,283899.525,,28,it
screen,html.Screen,2_3_1_0_1_29,2022-02-18T13:13:42.271Z,,,,,,,,,,,,,,,,,48,,,,,,,,,,,,,,726.9749999999767,,response,,,,10,F,,,,,,Space,keypress(Space),,,,instrumental,,,,-- -- --- ------ ------- --------- ----------- --------<br>--------- -------- --- ------- -- ------- ---- -- ------<br>-- --- -------- -------- ---------- ---- ---- ---- ------<br>-- --------- -- into -- --- -- --- ------- -- - -----<br>---------- -- -- -- ---- ----- -- ------ -- --- ------<br>-------,284627,284626.5,283882.705,283890.10000002384,283899.525,284632.345,,29,into
screen,html.Screen,2_3_1_0_1_30,2022-02-18T13:13:42.623Z,,,,,,,,,,,,,,,,,48,,,,,,,,,,,,,,345.95500001194887,,response,,,,10,F,,,,,,Space,keypress(Space),,,,instrumental,,,,-- -- --- ------ ------- --------- ----------- --------<br>--------- -------- --- ------- -- ------- ---- -- ------<br>-- --- -------- -------- ---------- ---- ---- ---- ------<br>-- --------- -- ---- or --- -- --- ------- -- - -----<br>---------- -- -- -- ---- ----- -- ------ -- --- ------<br>-------,284978.89999997616,284978.3000000119,284615.75,284627.10000002384,284632.345,284982.15,,30,or
screen,html.Screen,2_3_1_0_1_31,2022-02-18T13:13:43.036Z,,,,,,,,,,,,,,,,,48,,,,,,,,,,,,,,409.3499999999767,,response,,,,10,F,,,,,,Space,keypress(Space),,,,instrumental,,,,-- -- --- ------ ------- --------- ----------- --------<br>--------- -------- --- ------- -- ------- ---- -- ------<br>-- --- -------- -------- ---------- ---- ---- ---- ------<br>-- --------- -- ---- -- out -- --- ------- -- - -----<br>---------- -- -- -- ---- ----- -- ------ -- --- ------<br>-------,285392.10000002384,285391.5,284965.457,284979,284982.15,285398.768,,31,out
screen,html.Screen,2_3_1_0_1_32,2022-02-18T13:13:43.612Z,,,,,,,,,,,,,,,,,48,,,,,,,,,,,,,,568.6319999761763,,response,,,,10,F,,,,,,Space,keypress(Space),,,,instrumental,,,,-- -- --- ------ ------- --------- ----------- --------<br>--------- -------- --- ------- -- ------- ---- -- ------<br>-- --- -------- -------- ---------- ---- ---- ---- ------<br>-- --------- -- ---- -- --- of --- ------- -- - -----<br>---------- -- -- -- ---- ----- -- ------ -- --- ------<br>-------,285968.10000002384,285967.39999997616,285382.036,285392.1999999881,285398.768,285981.77,,32,of
screen,html.Screen,2_3_1_0_1_33,2022-02-18T13:13:43.927Z,,,,,,,,,,,,,,,,,48,,,,,,,,,,,,,,300.6299999761395,,response,,,,10,F,,,,,,Space,keypress(Space),,,,instrumental,,,,-- -- --- ------ ------- --------- ----------- --------<br>--------- -------- --- ------- -- ------- ---- -- ------<br>-- --- -------- -------- ---------- ---- ---- ---- ------<br>-- --------- -- ---- -- --- -- the ------- -- - -----<br>---------- -- -- -- ---- ----- -- ------ -- --- ------<br>-------,286282.89999997616,286282.39999997616,285965.06,285968.10000002384,285981.77,286298.292,,33,the
screen,html.Screen,2_3_1_0_1_34,2022-02-18T13:13:44.262Z,,,,,,,,,,,,,,,,,48,,,,,,,,,,,,,,319.20799999998417,,response,,,,10,F,,,,,,Space,keypress(Space),,,,instrumental,,,,-- -- --- ------ ------- --------- ----------- --------<br>--------- -------- --- ------- -- ------- ---- -- ------<br>-- --- -------- -------- ---------- ---- ---- ---- ------<br>-- --------- -- ---- -- --- -- --- country -- - -----<br>---------- -- -- -- ---- ----- -- ------ -- --- ------<br>-------,286618.10000002384,286617.5,286281.49,286283,286298.292,286631.458,,34,country
screen,html.Screen,2_3_1_0_1_35,2022-02-18T13:13:44.622Z,,,,,,,,,,,,,,,,,48,,,,,,,,,,,,,,345.7419999880949,,response,,,,10,F,,,,,,Space,keypress(Space),,,,instrumental,,,,-- -- --- ------ ------- --------- ----------- --------<br>--------- -------- --- ------- -- ------- ---- -- ------<br>-- --- -------- -------- ---------- ---- ---- ---- ------<br>-- --------- -- ---- -- --- -- --- ------- is - -----<br>---------- -- -- -- ---- ----- -- ------ -- --- ------<br>-------,286977.6999999881,286977.1999999881,286614.734,286618.10000002384,286631.458,286981.184,,35,is
screen,html.Screen,2_3_1_0_1_36,2022-02-18T13:13:44.937Z,,,,,,,,,,,,,,,,,48,,,,,,,,,,,,,,310.8159999999916,,response,,,,10,F,,,,,,Space,keypress(Space),,,,instrumental,,,,-- -- --- ------ ------- --------- ----------- --------<br>--------- -------- --- ------- -- ------- ---- -- ------<br>-- --- -------- -------- ---------- ---- ---- ---- ------<br>-- --------- -- ---- -- --- -- --- ------- -- a -----<br>---------- -- -- -- ---- ----- -- ------ -- --- ------<br>-------,287292.5,287292,286964.553,286977.8000000119,286981.184,287297.831,,36,a
screen,html.Screen,2_3_1_0_1_37,2022-02-18T13:13:45.381Z,,,,,,,,,,,,,,,,,48,,,,,,,,,,,,,,438.8689999880735,,response,,,,10,F,,,,,,Space,keypress(Space),,,,instrumental,,,,-- -- --- ------ ------- --------- ----------- --------<br>--------- -------- --- ------- -- ------- ---- -- ------<br>-- --- -------- -------- ---------- ---- ---- ---- ------<br>-- --------- -- ---- -- --- -- --- ------- -- - crime<br>---------- -- -- -- ---- ----- -- ------ -- --- ------<br>-------,287737.1999999881,287736.6999999881,287280.956,287292.5,287297.831,287747.555,,37,crime
screen,html.Screen,2_3_1_0_1_38,2022-02-18T13:13:45.877Z,,,,,,,,,,,,,,,,,48,,,,,,,,,,,,,,484.945000000007,,response,,,,10,F,,,,,,Space,keypress(Space),,,,instrumental,,,,-- -- --- ------ ------- --------- ----------- --------<br>--------- -------- --- ------- -- ------- ---- -- ------<br>-- --- -------- -------- ---------- ---- ---- ---- ------<br>-- --------- -- ---- -- --- -- --- ------- -- - -----<br>punishable -- -- -- ---- ----- -- ------ -- --- ------<br>-------,288233,288232.5,287730.809,287737.3000000119,287747.555,288247.219,,38,punishable
screen,html.Screen,2_3_1_0_1_39,2022-02-18T13:13:46.217Z,,,,,,,,,,,,,,,,,48,,,,,,,,,,,,,,325.58100001193816,,response,,,,10,F,,,,,,Space,keypress(Space),,,,instrumental,,,,-- -- --- ------ ------- --------- ----------- --------<br>--------- -------- --- ------- -- ------- ---- -- ------<br>-- --- -------- -------- ---------- ---- ---- ---- ------<br>-- --------- -- ---- -- --- -- --- ------- -- - -----<br>---------- by -- -- ---- ----- -- ------ -- --- ------<br>-------,288573.39999997616,288572.8000000119,288230.542,288233.10000002384,288247.219,288580.281,,39,by
screen,html.Screen,2_3_1_0_1_40,2022-02-18T13:13:46.525Z,,,,,,,,,,,,,,,,,48,,,,,,,,,,,,,,299.91899998806184,,response,,,,10,F,,,,,,Space,keypress(Space),,,,instrumental,,,,-- -- --- ------ ------- --------- ----------- --------<br>--------- -------- --- ------- -- ------- ---- -- ------<br>-- --- -------- -------- ---------- ---- ---- ---- ------<br>-- --------- -- ---- -- --- -- --- ------- -- - -----<br>---------- -- up -- ---- ----- -- ------ -- --- ------<br>-------,288880.6999999881,288880.1999999881,288563.65,288573.5,288580.281,288896.945,,40,up
screen,html.Screen,2_3_1_0_1_41,2022-02-18T13:13:46.888Z,,,,,,,,,,,,,,,,,48,,,,,,,,,,,,,,346.35500001191394,,response,,,,10,F,,,,,,Space,keypress(Space),,,,instrumental,,,,-- -- --- ------ ------- --------- ----------- --------<br>--------- -------- --- ------- -- ------- ---- -- ------<br>-- --- -------- -------- ---------- ---- ---- ---- ------<br>-- --------- -- ---- -- --- -- --- ------- -- - -----<br>---------- -- -- to ---- ----- -- ------ -- --- ------<br>-------,289243.89999997616,289243.3000000119,288880.225,288880.8000000119,288896.945,289246.569,,41,to
screen,html.Screen,2_3_1_0_1_42,2022-02-18T13:13:47.204Z,,,,,,,,,,,,,,,,,48,,,,,,,,,,,,,,313.1309999880614,,response,,,,10,F,,,,,,Space,keypress(Space),,,,instrumental,,,,-- -- --- ------ ------- --------- ----------- --------<br>--------- -------- --- ------- -- ------- ---- -- ------<br>-- --- -------- -------- ---------- ---- ---- ---- ------<br>-- --------- -- ---- -- --- -- --- ------- -- - -----<br>---------- -- -- -- five ----- -- ------ -- --- ------<br>-------,289560.1999999881,289559.6999999881,289230.024,289244,289246.569,289563.099,,42,five
