sender,sender_type,sender_id,timestamp,meta,,Blues,Classical,Country,Dance,Electronic,Folk,Gospel,Hip-Hop,Jazz,Latin,Musical/Film,New-age,Pop,Prolific_id,Provo_ID,R&B,Rap,Reggae,Religious,Rock,Soul,Swing,Traditional,age,artist_name,correct,correctResponse,distraction,duration,education,ended_on,familiarity,gender,headphone_check_performance,item,list,music_frequency,offensiveness,pleasantness,position_correct,preference,response,response_action,snippet_file,song_name,song_rating,sound,stimulus_1,stimulus_2,stimulus_3,text,time_commit,time_end,time_render,time_run,time_show,time_switch,url,word,word_ID
Prolific ID,html.Form,0,2022-02-02T17:44:54.791Z,"{""labjs_version"":""20.2.2"",""labjs_build"":{""flavor"":""production"",""commit"":""a25486e0c714a0ae2ce03ff94b7bb6896854dcfa""},""location"":""https://run.pavlovia.org/mvasilev/prolific2_music_e/"",""userAgent"":""Mozilla/5.0 (Windows NT 10.0; Win64; x64) AppleWebKit/537.36 (KHTML, like Gecko) Chrome/97.0.4692.99 Safari/537.36"",""platform"":""Win32"",""language"":""en-GB"",""locale"":""en-GB"",""timeZone"":""Europe/London"",""timezoneOffset"":0,""screen_width"":1536,""screen_height"":864,""scroll_width"":1536,""scroll_height"":674,""window_innerWidth"":1536,""window_innerHeight"":722,""devicePixelRatio"":1.25}",,,,,,,,,,,,,,,5d5a8cbeeb68e00018d85fb7,,,,,,,,,,,,,,,8784.395,,form submission,,,,,,,,,,,,,,,,,,,,,27870.900000035763,27870.5,19069.404,19075.600000023842,19086.105,27872.795,{},,
Introduction,html.Screen,1_0,2022-02-02T17:44:58.032Z,,,,,,,,,,,,,,,,,,,,,,,,,,,,,,,3237.5050000119227,,response,,,,,,,,,,,continue,click button,,,,,,,,,31112.5,31110.30000001192,27856.311,27871.100000023842,27872.795,31123.992,,,
Volume calibration,html.Screen,1_1,2022-02-02T17:45:11.418Z,,,,,,,,,,,,,,,,,,,,,,,,,,,,,,,13371.908000035764,,response,,,,,,,,,,,continue,click button,,,,,,,,,44498.40000003576,44495.90000003576,31107.528,31112.600000023842,31123.992,44512.45,,,
Task instructions,html.Screen,1_2,2022-02-02T17:45:15.242Z,,,,,,,,,,,,,,,,,,,,,,,,,,,,,,,3809.350000011924,,response,,,,,,,,,,,continue,click button,,,,,,,,,48322.40000003576,48321.80000001192,44495.779,44498.5,44512.45,48330.489,,,
Sounds,html.Screen,1_3_0_0,2022-02-02T17:45:19.490Z,,,,,,,,,,,,,,,,,,,,,,,,,,,,,,,4251.750999999997,,timeout,,,,,,,,,1,,,,,,,,S,I,O,,52570,52565.552,48314.155,48322.5,48330.489,52582.24,,,
Judgement,html.Screen,1_3_0_1,2022-02-02T17:45:20.679Z,,,,,,,,,,,,,,,,,,,,,,,,,,,,true,1,,1176.260000000002,,response,,,,,,,,,1,,1,click #choice-1,,,,,S,I,O,,53759.10000002384,53758.5,52565.552,52570.30000001192,52582.24,53765.854,,,
Trial,flow.Sequence,1_3_0,2022-02-02T17:45:20.679Z,,,,,,,,,,,,,,,,,,,,,,,,,,,,,,,5428.010999999999,,completion,,,,,,,,,1,,,,,,,,S,I,O,,53759.30000001192,53758.5,48314.155,48322.5,48330.489,53765.854,,,
Sounds,html.Screen,1_3_1_0,2022-02-02T17:45:24.922Z,,,,,,,,,,,,,,,,,,,,,,,,,,,,,,,4251.817999999999,,timeout,,,,,,,,,3,,,,,,,,O,I,S,,58001.80000001192,58000.911,53749.482,53759.5,53765.854,58017.672,,,
Judgement,html.Screen,1_3_1_1,2022-02-02T17:45:25.685Z,,,,,,,,,,,,,,,,,,,,,,,,,,,,true,3,,746.3280000000013,,response,,,,,,,,,3,,3,click #choice-3,,,,,O,I,S,,58764.90000003576,58764,58000.911,58001.90000003576,58017.672,58767.824,,,
Trial,flow.Sequence,1_3_1,2022-02-02T17:45:25.685Z,,,,,,,,,,,,,,,,,,,,,,,,,,,,,,,4998.146000000001,,completion,,,,,,,,,3,,,,,,,,O,I,S,,58765,58764,53749.482,53759.5,53765.854,58767.824,,,
Sounds,html.Screen,1_3_2_0,2022-02-02T17:45:29.924Z,,,,,,,,,,,,,,,,,,,,,,,,,,,,,,,4251.6990000000005,,timeout,,,,,,,,,1,,,,,,,,S,O,I,,63004.200000047684,63002.968,58751.398,58765.10000002384,58767.824,63019.523,,,
Judgement,html.Screen,1_3_2_1,2022-02-02T17:45:30.585Z,,,,,,,,,,,,,,,,,,,,,,,,,,,,true,1,,645.2770000119199,,response,,,,,,,,,1,,1,click #choice-1,,,,,S,O,I,,63665.5,63664.80000001192,63002.968,63004.40000003576,63019.523,63669.626,,,
Trial,flow.Sequence,1_3_2,2022-02-02T17:45:30.585Z,,,,,,,,,,,,,,,,,,,,,,,,,,,,,,,4896.97600001192,,completion,,,,,,,,,1,,,,,,,,S,O,I,,63665.60000002384,63664.80000001192,58751.398,58765.10000002384,58767.824,63669.626,,,
Sounds,html.Screen,1_3_3_0,2022-02-02T17:45:34.826Z,,,,,,,,,,,,,,,,,,,,,,,,,,,,,,,4251.81500000001,,timeout,,,,,,,,,2,,,,,,,,O,S,I,,67906,67904.742,63653.114,63665.80000001192,63669.626,67921.441,,,
Judgement,html.Screen,1_3_3_1,2022-02-02T17:45:35.530Z,,,,,,,,,,,,,,,,,,,,,,,,,,,,true,2,,688.0589999999938,,response,,,,,,,,,2,,2,click #choice-2,,,,,O,S,I,,68610.20000004768,68609.5,67904.742,67906.20000004768,67921.441,68621.6,,,
Trial,flow.Sequence,1_3_3,2022-02-02T17:45:35.530Z,,,,,,,,,,,,,,,,,,,,,,,,,,,,,,,4939.874000000003,,completion,,,,,,,,,2,,,,,,,,O,S,I,,68610.30000001192,68609.5,63653.114,63665.700000047684,63669.626,68621.6,,,
Sounds,html.Screen,1_3_4_0,2022-02-02T17:45:39.777Z,,,,,,,,,,,,,,,,,,,,,,,,,,,,,,,4251.6630000000005,,timeout,,,,,,,,,3,,,,,,,,I,O,S,,72857.60000002384,72856.6,68604.953,68610.40000003576,68621.6,72873.263,,,
Judgement,html.Screen,1_3_4_1,2022-02-02T17:45:40.304Z,,,,,,,,,,,,,,,,,,,,,,,,,,,,true,3,,510.7369999999937,,response,,,,,,,,,3,,3,click #choice-3,,,,,I,O,S,,73384.60000002384,73384,72856.6,72857.70000004768,72873.263,73390.021,,,
Trial,flow.Sequence,1_3_4,2022-02-02T17:45:40.304Z,,,,,,,,,,,,,,,,,,,,,,,,,,,,,,,4762.399999999994,,completion,,,,,,,,,3,,,,,,,,I,O,S,,73384.70000004768,73384,68604.953,68610.40000003576,68621.6,73390.021,,,
Sounds,html.Screen,1_3_5_0,2022-02-02T17:45:44.546Z,,,,,,,,,,,,,,,,,,,,,,,,,,,,,,,4251.953000000009,,timeout,,,,,,,,,2,,,,,,,,I,S,O,,77626.10000002384,77625.07,73373.589,73384.80000001192,73390.021,77641.974,,,
Judgement,html.Screen,1_3_5_1,2022-02-02T17:45:45.479Z,,,,,,,,,,,,,,,,,,,,,,,,,,,,true,2,,916.7260000476817,,response,,,,,,,,,2,,2,click #choice-2,,,,,I,S,O,,78559.40000003576,78558.70000004768,77625.07,77626.20000004768,77641.974,78575.31,,,
Trial,flow.Sequence,1_3_5,2022-02-02T17:45:45.479Z,,,,,,,,,,,,,,,,,,,,,,,,,,,,,,,5168.67900004769,,completion,,,,,,,,,2,,,,,,,,I,S,O,,78559.70000004768,78558.70000004768,73373.589,73384.80000001192,73390.021,78575.31,,,
Task,flow.Loop,1_3,2022-02-02T17:45:45.484Z,,,,,,,,,,,,,,,,,,,,,,,,,,,,,,,30228.211000047682,,completion,,,1,,,,,,,,,,,,,,,,,,78564.60000002384,78558.70000004768,48314.155,48322.5,48330.489,78575.31,,,
Trap,html.Screen,1_4,2022-02-02T17:45:45.486Z,,,,,,,,,,,,,,,,,,,,,,,,,,,,,,,NaN,,skipped,,,,,,,,,,,,,,,,,,,,,78566,78558.70000004768,,78565.80000001192,,78575.31,,,
Thanks,html.Screen,1_5,2022-02-02T17:45:50.926Z,,,,,,,,,,,,,,,,,,,,,,,,,,,,,,,5429.890000047686,,response,,,,,,,,,,,continue,click button,,,,,,,,,84005.80000001192,84005.20000004768,78558.703,78566.10000002384,78575.31,86578.406,,,
Headphone screening,flow.Sequence,1,2022-02-02T17:45:50.926Z,,,,,,,,,,,,,,,,,,,,,,,,,,,,,,,56132.405000047685,,completion,,,,,,,,,,,,,,,,,,,,,84005.90000003576,84005.20000004768,27856.311,27871.100000023842,27872.795,86578.406,,,
Instructions,html.Page,2_0,2022-02-02T17:46:02.960Z,,,,,,,,,,,,,,,,,,,,,,,,,,,,,,,9461.394000011918,,form submission,,,,,,,,,,,,,,,,,,,,,96040,96039.80000001192,86561.722,86574.60000002384,86578.406,96048.678,,,
Holding screen,html.Screen,2_1_0_0,2022-02-02T17:46:12.956Z,,,,,,,,,,,,,,,,,,,,,,,,,,,,,,,10053.876999999993,,timeout,,,,,,,,,,,,,,,,,,,,,106036.70000004768,106035.962,96032.236,96040.20000004768,96048.678,106102.555,,,
screen,html.Screen,2_1_0_1_0,2022-02-02T17:46:14.200Z,,,,,,,,,,,,,,,,,53,,,,,,,,,,,,,,1173.445000000007,,response,,,,99,,,,,,,Space,keypress(Space),,,,,,,,When -- ----- -- ------ - ------- --- ----------<br>------------- ------ ------ ---- ---- ------- ----- -- ----<br>-------- ------- -- ---------- --- - --- ----- ----- ----<br>---- --- --- ----- --- ---- ---- ------- ----- ---- -------<br>--- --- -- ----- -- --- ---- -- --- ---- -- ------ ------<br>--- ----- -- ----,107280.20000004768,107276,106035.962,106037,106102.555,107286.318,,0,When
screen,html.Screen,2_1_0_1_1,2022-02-02T17:46:14.545Z,,,,,,,,,,,,,,,,,53,,,,,,,,,,,,,,337.8820000476844,,response,,,,99,,,,,,,Space,keypress(Space),,,,,,,,---- it ----- -- ------ - ------- --- ----------<br>------------- ------ ------ ---- ---- ------- ----- -- ----<br>-------- ------- -- ---------- --- - --- ----- ----- ----<br>---- --- --- ----- --- ---- ---- ------- ----- ---- -------<br>--- --- -- ----- -- --- ---- -- --- ---- -- ------ ------<br>--- ----- -- ----,107625,107624.20000004768,107269.833,107280.5,107286.318,107636.656,,1,it
screen,html.Screen,2_1_0_1_2,2022-02-02T17:46:14.824Z,,,,,,,,,,,,,,,,,53,,,,,,,,,,,,,,267.04400004768104,,response,,,,99,,,,,,,Space,keypress(Space),,,,,,,,---- -- comes -- ------ - ------- --- ----------<br>------------- ------ ------ ---- ---- ------- ----- -- ----<br>-------- ------- -- ---------- --- - --- ----- ----- ----<br>---- --- --- ----- --- ---- ---- ------- ----- ---- -------<br>--- --- -- ----- -- --- ---- -- --- ---- -- ------ ------<br>--- ----- -- ----,107904.40000003576,107903.70000004768,107619.965,107625.20000004768,107636.656,107920.11,,2,comes
screen,html.Screen,2_1_0_1_3,2022-02-02T17:46:15.176Z,,,,,,,,,,,,,,,,,53,,,,,,,,,,,,,,334.7900000357622,,response,,,,99,,,,,,,Space,keypress(Space),,,,,,,,---- -- ----- to ------ - ------- --- ----------<br>------------- ------ ------ ---- ---- ------- ----- -- ----<br>-------- ------- -- ---------- --- - --- ----- ----- ----<br>---- --- --- ----- --- ---- ---- ------- ----- ---- -------<br>--- --- -- ----- -- --- ---- -- --- ---- -- ------ ------<br>--- ----- -- ----,108255.60000002384,108254.90000003576,107903.28,107904.60000002384,107920.11,108270.162,,3,to
screen,html.Screen,2_1_0_1_4,2022-02-02T17:46:15.545Z,,,,,,,,,,,,,,,,,53,,,,,,,,,,,,,,354.1380000119243,,response,,,,99,,,,,,,Space,keypress(Space),,,,,,,,---- -- ----- -- having - ------- --- ----------<br>------------- ------ ------ ---- ---- ------- ----- -- ----<br>-------- ------- -- ---------- --- - --- ----- ----- ----<br>---- --- --- ----- --- ---- ---- ------- ----- ---- -------<br>--- --- -- ----- -- --- ---- -- --- ---- -- ------ ------<br>--- ----- -- ----,108624.80000001192,108624.30000001192,108253.548,108255.90000003576,108270.162,108636.975,,4,having
screen,html.Screen,2_1_0_1_5,2022-02-02T17:46:15.861Z,,,,,,,,,,,,,,,,,53,,,,,,,,,,,,,,303.42500003575697,,response,,,,99,,,,,,,Space,keypress(Space),,,,,,,,---- -- ----- -- ------ a ------- --- ----------<br>------------- ------ ------ ---- ---- ------- ----- -- ----<br>-------- ------- -- ---------- --- - --- ----- ----- ----<br>---- --- --- ----- --- ---- ---- ------- ----- ---- -------<br>--- --- -- ----- -- --- ---- -- --- ---- -- ------ ------<br>--- ----- -- ----,108940.80000001192,108940.40000003576,108620.252,108625,108636.975,108953.726,,5,a
screen,html.Screen,2_1_0_1_6,2022-02-02T17:46:16.126Z,,,,,,,,,,,,,,,,,53,,,,,,,,,,,,,,251.57400001192582,,response,,,,99,,,,,,,Space,keypress(Space),,,,,,,,---- -- ----- -- ------ - lasting --- ----------<br>------------- ------ ------ ---- ---- ------- ----- -- ----<br>-------- ------- -- ---------- --- - --- ----- ----- ----<br>---- --- --- ----- --- ---- ---- ------- ----- ---- -------<br>--- --- -- ----- -- --- ---- -- --- ---- -- ------ ------<br>--- ----- -- ----,109206,109205.30000001192,108936.902,108941,108953.726,109220.542,,6,lasting
screen,html.Screen,2_1_0_1_7,2022-02-02T17:46:16.606Z,,,,,,,,,,,,,,,,,53,,,,,,,,,,,,,,464.8580000357615,,response,,,,99,,,,,,,Space,keypress(Space),,,,,,,,---- -- ----- -- ------ - ------- and ----------<br>------------- ------ ------ ---- ---- ------- ----- -- ----<br>-------- ------- -- ---------- --- - --- ----- ----- ----<br>---- --- --- ----- --- ---- ---- ------- ----- ---- -------<br>--- --- -- ----- -- --- ---- -- --- ---- -- ------ ------<br>--- ----- -- ----,109686.10000002384,109685.40000003576,109203.979,109206.30000001192,109220.542,109687.223,,7,and
screen,html.Screen,2_1_0_1_8,2022-02-02T17:46:16.799Z,,,,,,,,,,,,,,,,,53,,,,,,,,,,,,,,190.67700003576465,,response,,,,99,,,,,,,Space,keypress(Space),,,,,,,,---- -- ----- -- ------ - ------- --- fulfilling<br>------------- ------ ------ ---- ---- ------- ----- -- ----<br>-------- ------- -- ---------- --- - --- ----- ----- ----<br>---- --- --- ----- --- ---- ---- ------- ----- ---- -------<br>--- --- -- ----- -- --- ---- -- --- ---- -- ------ ------<br>--- ----- -- ----,109878.70000004768,109877.90000003576,109670.8,109686.5,109687.223,109887.436,,8,fulfilling
screen,html.Screen,2_1_0_1_9,2022-02-02T17:46:17.388Z,,,,,,,,,,,,,,,,,53,,,,,,,,,,,,,,580.2640000476822,,response,,,,99,,,,,,,Space,keypress(Space),,,,,,,,"---- -- ----- -- ------ - ------- --- ----------<br>relationship, ------ ------ ---- ---- ------- ----- -- ----<br>-------- ------- -- ---------- --- - --- ----- ----- ----<br>---- --- --- ----- --- ---- ---- ------- ----- ---- -------<br>--- --- -- ----- -- --- ---- -- --- ---- -- ------ ------<br>--- ----- -- ----",110468.40000003576,110467.70000004768,109870.815,109878.80000001192,109887.436,110470.902,,9,"relationship,"
screen,html.Screen,2_1_0_1_10,2022-02-02T17:46:17.744Z,,,,,,,,,,,,,,,,,53,,,,,,,,,,,,,,352.09799999999814,,response,,,,99,,,,,,,Space,keypress(Space),,,,,,,,---- -- ----- -- ------ - ------- --- ----------<br>------------- common ------ ---- ---- ------- ----- -- ----<br>-------- ------- -- ---------- --- - --- ----- ----- ----<br>---- --- --- ----- --- ---- ---- ------- ----- ---- -------<br>--- --- -- ----- -- --- ---- -- --- ---- -- ------ ------<br>--- ----- -- ----,110823.80000001192,110823,110454.37,110468.70000004768,110470.902,110837.763,,10,common
screen,html.Screen,2_1_0_1_11,2022-02-02T17:46:18.021Z,,,,,,,,,,,,,,,,,53,,,,,,,,,,,,,,262.03700001191464,,response,,,,99,,,,,,,Space,keypress(Space),,,,,,,,---- -- ----- -- ------ - ------- --- ----------<br>------------- ------ wisdom ---- ---- ------- ----- -- ----<br>-------- ------- -- ---------- --- - --- ----- ----- ----<br>---- --- --- ----- --- ---- ---- ------- ----- ---- -------<br>--- --- -- ----- -- --- ---- -- --- ---- -- ------ ------<br>--- ----- -- ----,111100.70000004768,111099.80000001192,110821.15,110823.90000003576,110837.763,111104.474,,11,wisdom
screen,html.Screen,2_1_0_1_12,2022-02-02T17:46:18.346Z,,,,,,,,,,,,,,,,,53,,,,,,,,,,,,,,321.32600001191895,,response,,,,99,,,,,,,Space,keypress(Space),,,,,,,,---- -- ----- -- ------ - ------- --- ----------<br>------------- ------ ------ says ---- ------- ----- -- ----<br>-------- ------- -- ---------- --- - --- ----- ----- ----<br>---- --- --- ----- --- ---- ---- ------- ----- ---- -------<br>--- --- -- ----- -- --- ---- -- --- ---- -- ------ ------<br>--- ----- -- ----,111426.40000003576,111425.80000001192,111087.867,111101,111104.474,111438.088,,12,says
screen,html.Screen,2_1_0_1_13,2022-02-02T17:46:18.703Z,,,,,,,,,,,,,,,,,53,,,,,,,,,,,,,,344.4119999999966,,response,,,,99,,,,,,,Space,keypress(Space),,,,,,,,---- -- ----- -- ------ - ------- --- ----------<br>------------- ------ ------ ---- that ------- ----- -- ----<br>-------- ------- -- ---------- --- - --- ----- ----- ----<br>---- --- --- ----- --- ---- ---- ------- ----- ---- -------<br>--- --- -- ----- -- --- ---- -- --- ---- -- ------ ------<br>--- ----- -- ----,111783.30000001192,111782.5,111421.404,111426.70000004768,111438.088,111788.06,,13,that
screen,html.Screen,2_1_0_1_14,2022-02-02T17:46:19.154Z,,,,,,,,,,,,,,,,,53,,,,,,,,,,,,,,445.24000001192326,,response,,,,99,,,,,,,Space,keypress(Space),,,,,,,,---- -- ----- -- ------ - ------- --- ----------<br>------------- ------ ------ ---- ---- feeling ----- -- ----<br>-------- ------- -- ---------- --- - --- ----- ----- ----<br>---- --- --- ----- --- ---- ---- ------- ----- ---- -------<br>--- --- -- ----- -- --- ---- -- --- ---- -- ------ ------<br>--- ----- -- ----,112234,112233.30000001192,111771.546,111783.60000002384,111788.06,112238.223,,14,feeling
screen,html.Screen,2_1_0_1_15,2022-02-02T17:46:19.361Z,,,,,,,,,,,,,,,,,53,,,,,,,,,,,,,,202.5770000119228,,response,,,,99,,,,,,,Space,keypress(Space),,,,,,,,---- -- ----- -- ------ - ------- --- ----------<br>------------- ------ ------ ---- ---- ------- close -- ----<br>-------- ------- -- ---------- --- - --- ----- ----- ----<br>---- --- --- ----- --- ---- ---- ------- ----- ---- -------<br>--- --- -- ----- -- --- ---- -- --- ---- -- ------ ------<br>--- ----- -- ----,112441.20000004768,112440.80000001192,112221.696,112234.20000004768,112238.223,112455.034,,15,close
screen,html.Screen,2_1_0_1_16,2022-02-02T17:46:19.703Z,,,,,,,,,,,,,,,,,53,,,,,,,,,,,,,,327.0660000238422,,response,,,,99,,,,,,,Space,keypress(Space),,,,,,,,---- -- ----- -- ------ - ------- --- ----------<br>------------- ------ ------ ---- ---- ------- ----- to ----<br>-------- ------- -- ---------- --- - --- ----- ----- ----<br>---- --- --- ----- --- ---- ---- ------- ----- ---- -------<br>--- --- -- ----- -- --- ---- -- --- ---- -- ------ ------<br>--- ----- -- ----,112782.80000001192,112782.10000002384,112438.223,112441.20000004768,112455.034,112788.451,,16,to
screen,html.Screen,2_1_0_1_17,2022-02-02T17:46:19.974Z,,,,,,,,,,,,,,,,,53,,,,,,,,,,,,,,265.34900001192,,response,,,,99,,,,,,,Space,keypress(Space),,,,,,,,---- -- ----- -- ------ - ------- --- ----------<br>------------- ------ ------ ---- ---- ------- ----- -- your<br>-------- ------- -- ---------- --- - --- ----- ----- ----<br>---- --- --- ----- --- ---- ---- ------- ----- ---- -------<br>--- --- -- ----- -- --- ---- -- --- ---- -- ------ ------<br>--- ----- -- ----,113054.60000002384,113053.80000001192,112771.919,112783,112788.451,113072.08,,17,your
screen,html.Screen,2_1_0_1_18,2022-02-02T17:46:20.540Z,,,,,,,,,,,,,,,,,53,,,,,,,,,,,,,,547.5200000238401,,response,,,,99,,,,,,,Space,keypress(Space),,,,,,,,---- -- ----- -- ------ - ------- --- ----------<br>------------- ------ ------ ---- ---- ------- ----- -- ----<br>romantic ------- -- ---------- --- - --- ----- ----- ----<br>---- --- --- ----- --- ---- ---- ------- ----- ---- -------<br>--- --- -- ----- -- --- ---- -- --- ---- -- ------ ------<br>--- ----- -- ----,113620.10000002384,113619.60000002384,113055.211,113054.80000001192,113072.08,113621.993,,18,romantic
screen,html.Screen,2_1_0_1_19,2022-02-02T17:46:20.924Z,,,,,,,,,,,,,,,,,53,,,,,,,,,,,,,,381.10700002383965,,response,,,,99,,,,,,,Space,keypress(Space),,,,,,,,---- -- ----- -- ------ - ------- --- ----------<br>------------- ------ ------ ---- ---- ------- ----- -- ----<br>-------- partner -- ---------- --- - --- ----- ----- ----<br>---- --- --- ----- --- ---- ---- ------- ----- ---- -------<br>--- --- -- ----- -- --- ---- -- --- ---- -- ------ ------<br>--- ----- -- ----,114003.90000003576,114003.10000002384,113605.486,113620.20000004768,113621.993,114005.564,,19,partner
screen,html.Screen,2_1_0_1_20,2022-02-02T17:46:21.231Z,,,,,,,,,,,,,,,,,53,,,,,,,,,,,,,,304.73600001192244,,response,,,,99,,,,,,,Space,keypress(Space),,,,,,,,---- -- ----- -- ------ - ------- --- ----------<br>------------- ------ ------ ---- ---- ------- ----- -- ----<br>-------- ------- is ---------- --- - --- ----- ----- ----<br>---- --- --- ----- --- ---- ---- ------- ----- ---- -------<br>--- --- -- ----- -- --- ---- -- --- ---- -- ------ ------<br>--- ----- -- ----,114311.10000002384,114310.30000001192,113988.975,114004.10000002384,114005.564,114322.578,,20,is
screen,html.Screen,2_1_0_1_21,2022-02-02T17:46:21.378Z,,,,,,,,,,,,,,,,,53,,,,,,,,,,,,,,134.5220000238478,,response,,,,99,,,,,,,Space,keypress(Space),,,,,,,,---- -- ----- -- ------ - ------- --- ----------<br>------------- ------ ------ ---- ---- ------- ----- -- ----<br>-------- ------- -- paramount. --- - --- ----- ----- ----<br>---- --- --- ----- --- ---- ---- ------- ----- ---- -------<br>--- --- -- ----- -- --- ---- -- --- ---- -- ------ ------<br>--- ----- -- ----,114457.70000004768,114457.10000002384,114305.776,114311.20000004768,114322.578,114472.466,,21,paramount.
screen,html.Screen,2_1_0_1_22,2022-02-02T17:46:21.873Z,,,,,,,,,,,,,,,,,53,,,,,,,,,,,,,,479.93400003576244,,response,,,,99,,,,,,,Space,keypress(Space),,,,,,,,---- -- ----- -- ------ - ------- --- ----------<br>------------- ------ ------ ---- ---- ------- ----- -- ----<br>-------- ------- -- ---------- But - --- ----- ----- ----<br>---- --- --- ----- --- ---- ---- ------- ----- ---- -------<br>--- --- -- ----- -- --- ---- -- --- ---- -- ------ ------<br>--- ----- -- ----,114953.20000004768,114952.40000003576,114455.888,114458,114472.466,114955.932,,22,But
screen,html.Screen,2_1_0_1_23,2022-02-02T17:46:22.226Z,,,,,,,,,,,,,,,,,53,,,,,,,,,,,,,,349.4680000357621,,response,,,,99,,,,,,,Space,keypress(Space),,,,,,,,---- -- ----- -- ------ - ------- --- ----------<br>------------- ------ ------ ---- ---- ------- ----- -- ----<br>-------- ------- -- ---------- --- a --- ----- ----- ----<br>---- --- --- ----- --- ---- ---- ------- ----- ---- -------<br>--- --- -- ----- -- --- ---- -- --- ---- -- ------ ------<br>--- ----- -- ----,115306.20000004768,115305.40000003576,114939.36,114953.40000003576,114955.932,115322.903,,23,a
screen,html.Screen,2_1_0_1_24,2022-02-02T17:46:22.604Z,,,,,,,,,,,,,,,,,53,,,,,,,,,,,,,,360.797000047678,,response,,,,99,,,,,,,Space,keypress(Space),,,,,,,,---- -- ----- -- ------ - ------- --- ----------<br>------------- ------ ------ ---- ---- ------- ----- -- ----<br>-------- ------- -- ---------- --- - new ----- ----- ----<br>---- --- --- ----- --- ---- ---- ------- ----- ---- -------<br>--- --- -- ----- -- --- ---- -- --- ---- -- ------ ------<br>--- ----- -- ----,115684.5,115683.70000004768,115306.067,115306.5,115322.903,115689.44,,24,new
screen,html.Screen,2_1_0_1_25,2022-02-02T17:46:23.002Z,,,,,,,,,,,,,,,,,53,,,,,,,,,,,,,,391.7600000476814,,response,,,,99,,,,,,,Space,keypress(Space),,,,,,,,---- -- ----- -- ------ - ------- --- ----------<br>------------- ------ ------ ---- ---- ------- ----- -- ----<br>-------- ------- -- ---------- --- - --- study ----- ----<br>---- --- --- ----- --- ---- ---- ------- ----- ---- -------<br>--- --- -- ----- -- --- ---- -- --- ---- -- ------ ------<br>--- ----- -- ----,116082.10000002384,116081.20000004768,115672.95,115684.70000004768,115689.44,116089.773,,25,study
screen,html.Screen,2_1_0_1_26,2022-02-02T17:46:23.306Z,,,,,,,,,,,,,,,,,53,,,,,,,,,,,,,,295.72699999999895,,response,,,,99,,,,,,,Space,keypress(Space),,,,,,,,---- -- ----- -- ------ - ------- --- ----------<br>------------- ------ ------ ---- ---- ------- ----- -- ----<br>-------- ------- -- ---------- --- - --- ----- finds ----<br>---- --- --- ----- --- ---- ---- ------- ----- ---- -------<br>--- --- -- ----- -- --- ---- -- --- ---- -- ------ ------<br>--- ----- -- ----,116386.30000001192,116385.5,116073.148,116082.20000004768,116089.773,116389.835,,26,finds
screen,html.Screen,2_1_0_1_27,2022-02-02T17:46:23.625Z,,,,,,,,,,,,,,,,,53,,,,,,,,,,,,,,314.0650000357564,,response,,,,99,,,,,,,Space,keypress(Space),,,,,,,,---- -- ----- -- ------ - ------- --- ----------<br>------------- ------ ------ ---- ---- ------- ----- -- ----<br>-------- ------- -- ---------- --- - --- ----- ----- that<br>---- --- --- ----- --- ---- ---- ------- ----- ---- -------<br>--- --- -- ----- -- --- ---- -- --- ---- -- ------ ------<br>--- ----- -- ----,116704.90000003576,116703.90000003576,116373.267,116386.60000002384,116389.835,116706.6,,27,that
screen,html.Screen,2_1_0_1_28,2022-02-02T17:46:23.828Z,,,,,,,,,,,,,,,,,53,,,,,,,,,,,,,,200.30000003575697,,response,,,,99,,,,,,,Space,keypress(Space),,,,,,,,---- -- ----- -- ------ - ------- --- ----------<br>------------- ------ ------ ---- ---- ------- ----- -- ----<br>-------- ------- -- ---------- --- - --- ----- ----- ----<br>it's --- --- ----- --- ---- ---- ------- ----- ---- -------<br>--- --- -- ----- -- --- ---- -- --- ---- -- ------ ------<br>--- ----- -- ----,116907.70000004768,116906.90000003576,116690.03,116705.10000002384,116706.6,116923.503,,28,it's
screen,html.Screen,2_1_0_1_29,2022-02-02T17:46:24.147Z,,,,,,,,,,,,,,,,,53,,,,,,,,,,,,,,302.69700004768674,,response,,,,99,,,,,,,Space,keypress(Space),,,,,,,,---- -- ----- -- ------ - ------- --- ----------<br>------------- ------ ------ ---- ---- ------- ----- -- ----<br>-------- ------- -- ---------- --- - --- ----- ----- ----<br>---- not --- ----- --- ---- ---- ------- ----- ---- -------<br>--- --- -- ----- -- --- ---- -- --- ---- -- ------ ------<br>--- ----- -- ----,117226.90000003576,117226.20000004768,116906.697,116907.90000003576,116923.503,117240.191,,29,not
screen,html.Screen,2_1_0_1_30,2022-02-02T17:46:24.349Z,,,,,,,,,,,,,,,,,53,,,,,,,,,,,,,,188.60900001191476,,response,,,,99,,,,,,,Space,keypress(Space),,,,,,,,---- -- ----- -- ------ - ------- --- ----------<br>------------- ------ ------ ---- ---- ------- ----- -- ----<br>-------- ------- -- ---------- --- - --- ----- ----- ----<br>---- --- how ----- --- ---- ---- ------- ----- ---- -------<br>--- --- -- ----- -- --- ---- -- --- ---- -- ------ ------<br>--- ----- -- ----,117429.5,117428.80000001192,117223.571,117227.20000004768,117240.191,117440.4,,30,how
screen,html.Screen,2_1_0_1_31,2022-02-02T17:46:24.858Z,,,,,,,,,,,,,,,,,53,,,,,,,,,,,,,,497.1000000000058,,response,,,,99,,,,,,,Space,keypress(Space),,,,,,,,---- -- ----- -- ------ - ------- --- ----------<br>------------- ------ ------ ---- ---- ------- ----- -- ----<br>-------- ------- -- ---------- --- - --- ----- ----- ----<br>---- --- --- close --- ---- ---- ------- ----- ---- -------<br>--- --- -- ----- -- --- ---- -- --- ---- -- ------ ------<br>--- ----- -- ----,117938.20000004768,117937.5,117423.673,117429.70000004768,117440.4,117940.415,,31,close
screen,html.Screen,2_1_0_1_32,2022-02-02T17:46:25.052Z,,,,,,,,,,,,,,,,,53,,,,,,,,,,,,,,190.4850000357692,,response,,,,99,,,,,,,Space,keypress(Space),,,,,,,,---- -- ----- -- ------ - ------- --- ----------<br>------------- ------ ------ ---- ---- ------- ----- -- ----<br>-------- ------- -- ---------- --- - --- ----- ----- ----<br>---- --- --- ----- you ---- ---- ------- ----- ---- -------<br>--- --- -- ----- -- --- ---- -- --- ---- -- ------ ------<br>--- ----- -- ----,118131.70000004768,118130.90000003576,117923.856,117938.5,117940.415,118140.485,,32,you
screen,html.Screen,2_1_0_1_33,2022-02-02T17:46:25.292Z,,,,,,,,,,,,,,,,,53,,,,,,,,,,,,,,230.61500002384128,,response,,,,99,,,,,,,Space,keypress(Space),,,,,,,,---- -- ----- -- ------ - ------- --- ----------<br>------------- ------ ------ ---- ---- ------- ----- -- ----<br>-------- ------- -- ---------- --- - --- ----- ----- ----<br>---- --- --- ----- --- feel ---- ------- ----- ---- -------<br>--- --- -- ----- -- --- ---- -- --- ---- -- ------ ------<br>--- ----- -- ----,118372,118371.10000002384,118123.967,118131.90000003576,118140.485,118373.901,,33,feel
screen,html.Screen,2_1_0_1_34,2022-02-02T17:46:25.506Z,,,,,,,,,,,,,,,,,53,,,,,,,,,,,,,,211.3990000119229,,response,,,,99,,,,,,,Space,keypress(Space),,,,,,,,---- -- ----- -- ------ - ------- --- ----------<br>------------- ------ ------ ---- ---- ------- ----- -- ----<br>-------- ------- -- ---------- --- - --- ----- ----- ----<br>---- --- --- ----- --- ---- that ------- ----- ---- -------<br>--- --- -- ----- -- --- ---- -- --- ---- -- ------ ------<br>--- ----- -- ----,118586,118585.30000001192,118357.359,118372.20000004768,118373.901,118590.585,,34,that
screen,html.Screen,2_1_0_1_35,2022-02-02T17:46:25.754Z,,,,,,,,,,,,,,,,,53,,,,,,,,,,,,,,243.21500001191453,,response,,,,99,,,,,,,Space,keypress(Space),,,,,,,,---- -- ----- -- ------ - ------- --- ----------<br>------------- ------ ------ ---- ---- ------- ----- -- ----<br>-------- ------- -- ---------- --- - --- ----- ----- ----<br>---- --- --- ----- --- ---- ---- matters ----- ---- -------<br>--- --- -- ----- -- --- ---- -- --- ---- -- ------ ------<br>--- ----- -- ----,118834.5,118833.80000001192,118573.973,118586.20000004768,118590.585,118840.644,,35,matters
screen,html.Screen,2_1_0_1_36,2022-02-02T17:46:26.096Z,,,,,,,,,,,,,,,,,53,,,,,,,,,,,,,,334.0560000476835,,response,,,,99,,,,,,,Space,keypress(Space),,,,,,,,"---- -- ----- -- ------ - ------- --- ----------<br>------------- ------ ------ ---- ---- ------- ----- -- ----<br>-------- ------- -- ---------- --- - --- ----- ----- ----<br>---- --- --- ----- --- ---- ---- ------- most, ---- -------<br>--- --- -- ----- -- --- ---- -- --- ---- -- ------ ------<br>--- ----- -- ----",119175.80000001192,119174.70000004768,118824.208,118834.80000001192,118840.644,119190.896,,36,"most,"
screen,html.Screen,2_1_0_1_37,2022-02-02T17:46:26.483Z,,,,,,,,,,,,,,,,,53,,,,,,,,,,,,,,371.7040000238485,,response,,,,99,,,,,,,Space,keypress(Space),,,,,,,,---- -- ----- -- ------ - ------- --- ----------<br>------------- ------ ------ ---- ---- ------- ----- -- ----<br>-------- ------- -- ---------- --- - --- ----- ----- ----<br>---- --- --- ----- --- ---- ---- ------- ----- it's -------<br>--- --- -- ----- -- --- ---- -- --- ---- -- ------ ------<br>--- ----- -- ----,119563.40000003576,119562.60000002384,119174.182,119176,119190.896,119574.365,,37,it's
screen,html.Screen,2_1_0_1_38,2022-02-02T17:46:26.640Z,,,,,,,,,,,,,,,,,53,,,,,,,,,,,,,,144.73500002383662,,response,,,,99,,,,,,,Space,keypress(Space),,,,,,,,---- -- ----- -- ------ - ------- --- ----------<br>------------- ------ ------ ---- ---- ------- ----- -- ----<br>-------- ------- -- ---------- --- - --- ----- ----- ----<br>---- --- --- ----- --- ---- ---- ------- ----- ---- whether<br>--- --- -- ----- -- --- ---- -- --- ---- -- ------ ------<br>--- ----- -- ----,119719.80000001192,119719.10000002384,119557.824,119563.60000002384,119574.365,119724.418,,38,whether
screen,html.Screen,2_1_0_1_39,2022-02-02T17:46:27.099Z,,,,,,,,,,,,,,,,,53,,,,,,,,,,,,,,453.8820000119158,,response,,,,99,,,,,,,Space,keypress(Space),,,,,,,,---- -- ----- -- ------ - ------- --- ----------<br>------------- ------ ------ ---- ---- ------- ----- -- ----<br>-------- ------- -- ---------- --- - --- ----- ----- ----<br>---- --- --- ----- --- ---- ---- ------- ----- ---- -------<br>you --- -- ----- -- --- ---- -- --- ---- -- ------ ------<br>--- ----- -- ----,120179.10000002384,120178.30000001192,119707.807,119720,119724.418,120191.41,,39,you
screen,html.Screen,2_1_0_1_40,2022-02-02T17:46:27.453Z,,,,,,,,,,,,,,,,,53,,,,,,,,,,,,,,340.89000001191744,,response,,,,99,,,,,,,Space,keypress(Space),,,,,,,,---- -- ----- -- ------ - ------- --- ----------<br>------------- ------ ------ ---- ---- ------- ----- -- ----<br>-------- ------- -- ---------- --- - --- ----- ----- ----<br>---- --- --- ----- --- ---- ---- ------- ----- ---- -------<br>--- are -- ----- -- --- ---- -- --- ---- -- ------ ------<br>--- ----- -- ----,120533,120532.30000001192,120174.734,120179.30000001192,120191.41,120541.523,,40,are
screen,html.Screen,2_1_0_1_41,2022-02-02T17:46:27.847Z,,,,,,,,,,,,,,,,,53,,,,,,,,,,,,,,384.87700003576174,,response,,,,99,,,,,,,Space,keypress(Space),,,,,,,,---- -- ----- -- ------ - ------- --- ----------<br>------------- ------ ------ ---- ---- ------- ----- -- ----<br>-------- ------- -- ---------- --- - --- ----- ----- ----<br>---- --- --- ----- --- ---- ---- ------- ----- ---- -------<br>--- --- as ----- -- --- ---- -- --- ---- -- ------ ------<br>--- ----- -- ----,120927.10000002384,120926.40000003576,120524.864,120533.20000004768,120541.523,120941.634,,41,as
screen,html.Screen,2_1_0_1_42,2022-02-02T17:46:28.231Z,,,,,,,,,,,,,,,,,53,,,,,,,,,,,,,,369.4660000238364,,response,,,,99,,,,,,,Space,keypress(Space),,,,,,,,---- -- ----- -- ------ - ------- --- ----------<br>------------- ------ ------ ---- ---- ------- ----- -- ----<br>-------- ------- -- ---------- --- - --- ----- ----- ----<br>---- --- --- ----- --- ---- ---- ------- ----- ---- -------<br>--- --- -- close -- --- ---- -- --- ---- -- ------ ------<br>--- ----- -- ----,121311.5,121311.10000002384,120925.018,120927.30000001192,120941.634,121324.984,,42,close
screen,html.Screen,2_1_0_1_43,2022-02-02T17:46:28.498Z,,,,,,,,,,,,,,,,,53,,,,,,,,,,,,,,252.8160000119242,,response,,,,99,,,,,,,Space,keypress(Space),,,,,,,,---- -- ----- -- ------ - ------- --- ----------<br>------------- ------ ------ ---- ---- ------- ----- -- ----<br>-------- ------- -- ---------- --- - --- ----- ----- ----<br>---- --- --- ----- --- ---- ---- ------- ----- ---- -------<br>--- --- -- ----- as --- ---- -- --- ---- -- ------ ------<br>--- ----- -- ----,121578.40000003576,121577.80000001192,121308.248,121311.60000002384,121324.984,121591.979,,43,as
screen,html.Screen,2_1_0_1_44,2022-02-02T17:46:28.713Z,,,,,,,,,,,,,,,,,53,,,,,,,,,,,,,,200.12100002383522,,response,,,,99,,,,,,,Space,keypress(Space),,,,,,,,---- -- ----- -- ------ - ------- --- ----------<br>------------- ------ ------ ---- ---- ------- ----- -- ----<br>-------- ------- -- ---------- --- - --- ----- ----- ----<br>---- --- --- ----- --- ---- ---- ------- ----- ---- -------<br>--- --- -- ----- -- you ---- -- --- ---- -- ------ ------<br>--- ----- -- ----,121792.80000001192,121792.10000002384,121575.242,121578.60000002384,121591.979,121808.679,,44,you
screen,html.Screen,2_1_0_1_45,2022-02-02T17:46:29.103Z,,,,,,,,,,,,,,,,,53,,,,,,,,,,,,,,373.8209999999963,,response,,,,99,,,,,,,Space,keypress(Space),,,,,,,,---- -- ----- -- ------ - ------- --- ----------<br>------------- ------ ------ ---- ---- ------- ----- -- ----<br>-------- ------- -- ---------- --- - --- ----- ----- ----<br>---- --- --- ----- --- ---- ---- ------- ----- ---- -------<br>--- --- -- ----- -- --- want -- --- ---- -- ------ ------<br>--- ----- -- ----,122183.20000004768,122182.5,121791.855,121793,121808.679,122192.166,,45,want
screen,html.Screen,2_1_0_1_46,2022-02-02T17:46:29.407Z,,,,,,,,,,,,,,,,,53,,,,,,,,,,,,,,294.5340000476863,,response,,,,99,,,,,,,Space,keypress(Space),,,,,,,,---- -- ----- -- ------ - ------- --- ----------<br>------------- ------ ------ ---- ---- ------- ----- -- ----<br>-------- ------- -- ---------- --- - --- ----- ----- ----<br>---- --- --- ----- --- ---- ---- ------- ----- ---- -------<br>--- --- -- ----- -- --- ---- to --- ---- -- ------ ------<br>--- ----- -- ----,122487.40000003576,122486.70000004768,122175.498,122183.40000003576,122192.166,122492.12,,46,to
screen,html.Screen,2_1_0_1_47,2022-02-02T17:46:29.718Z,,,,,,,,,,,,,,,,,53,,,,,,,,,,,,,,305.6800000119256,,response,,,,99,,,,,,,Space,keypress(Space),,,,,,,,"---- -- ----- -- ------ - ------- --- ----------<br>------------- ------ ------ ---- ---- ------- ----- -- ----<br>-------- ------- -- ---------- --- - --- ----- ----- ----<br>---- --- --- ----- --- ---- ---- ------- ----- ---- -------<br>--- --- -- ----- -- --- ---- -- be, ---- -- ------ ------<br>--- ----- -- ----",122798.60000002384,122797.80000001192,122475.609,122487.60000002384,122492.12,122809.056,,47,"be,"
screen,html.Screen,2_1_0_1_48,2022-02-02T17:46:30.085Z,,,,,,,,,,,,,,,,,53,,,,,,,,,,,,,,355.044000023845,,response,,,,99,,,,,,,Space,keypress(Space),,,,,,,,---- -- ----- -- ------ - ------- --- ----------<br>------------- ------ ------ ---- ---- ------- ----- -- ----<br>-------- ------- -- ---------- --- - --- ----- ----- ----<br>---- --- --- ----- --- ---- ---- ------- ----- ---- -------<br>--- --- -- ----- -- --- ---- -- --- even -- ------ ------<br>--- ----- -- ----,123164.90000003576,123164.10000002384,122792.356,122798.70000004768,122809.056,123175.901,,48,even
screen,html.Screen,2_1_0_1_49,2022-02-02T17:46:30.357Z,,,,,,,,,,,,,,,,,53,,,,,,,,,,,,,,259.99900003576477,,response,,,,99,,,,,,,Space,keypress(Space),,,,,,,,---- -- ----- -- ------ - ------- --- ----------<br>------------- ------ ------ ---- ---- ------- ----- -- ----<br>-------- ------- -- ---------- --- - --- ----- ----- ----<br>---- --- --- ----- --- ---- ---- ------- ----- ---- -------<br>--- --- -- ----- -- --- ---- -- --- ---- if ------ ------<br>--- ----- -- ----,123436.60000002384,123435.90000003576,123159.107,123165.20000004768,123175.901,123442.411,,49,if
screen,html.Screen,2_1_0_1_50,2022-02-02T17:46:30.549Z,,,,,,,,,,,,,,,,,53,,,,,,,,,,,,,,185.98900003577,,response,,,,99,,,,,,,Space,keypress(Space),,,,,,,,---- -- ----- -- ------ - ------- --- ----------<br>------------- ------ ------ ---- ---- ------- ----- -- ----<br>-------- ------- -- ---------- --- - --- ----- ----- ----<br>---- --- --- ----- --- ---- ---- ------- ----- ---- -------<br>--- --- -- ----- -- --- ---- -- --- ---- -- that's ------<br>--- ----- -- ----,123628.80000001192,123628.40000003576,123425.982,123436.80000001192,123442.411,123642.627,,50,that's
screen,html.Screen,2_1_0_1_51,2022-02-02T17:46:31.133Z,,,,,,,,,,,,,,,,,53,,,,,,,,,,,,,,570.1730000119278,,response,,,,99,,,,,,,Space,keypress(Space),,,,,,,,---- -- ----- -- ------ - ------- --- ----------<br>------------- ------ ------ ---- ---- ------- ----- -- ----<br>-------- ------- -- ---------- --- - --- ----- ----- ----<br>---- --- --- ----- --- ---- ---- ------- ----- ---- -------<br>--- --- -- ----- -- --- ---- -- --- ---- -- ------ really<br>--- ----- -- ----,124213.5,124212.80000001192,123625.925,123629,123642.627,124226.295,,51,really
screen,html.Screen,2_1_0_1_52,2022-02-02T17:46:31.544Z,,,,,,,,,,,,,,,,,53,,,,,,,,,,,,,,397.0050000119227,,response,,,,99,,,,,,,Space,keypress(Space),,,,,,,,---- -- ----- -- ------ - ------- --- ----------<br>------------- ------ ------ ---- ---- ------- ----- -- ----<br>-------- ------- -- ---------- --- - --- ----- ----- ----<br>---- --- --- ----- --- ---- ---- ------- ----- ---- -------<br>--- --- -- ----- -- --- ---- -- --- ---- -- ------ ------<br>not ----- -- ----,124624.10000002384,124623.30000001192,124209.558,124213.70000004768,124226.295,124626.272,,52,not
screen,html.Screen,2_1_0_1_53,2022-02-02T17:46:31.884Z,,,,,,,,,,,,,,,,,53,,,,,,,,,,,,,,336.7280000000028,,response,,,,99,,,,,,,Space,keypress(Space),,,,,,,,---- -- ----- -- ------ - ------- --- ----------<br>------------- ------ ------ ---- ---- ------- ----- -- ----<br>-------- ------- -- ---------- --- - --- ----- ----- ----<br>---- --- --- ----- --- ---- ---- ------- ----- ---- -------<br>--- --- -- ----- -- --- ---- -- --- ---- -- ------ ------<br>--- close -- ----,124963.70000004768,124963,124609.729,124624.40000003576,124626.272,124976.691,,53,close
screen,html.Screen,2_1_0_1_54,2022-02-02T17:46:32.117Z,,,,,,,,,,,,,,,,,53,,,,,,,,,,,,,,219.70900003575662,,response,,,,99,,,,,,,Space,keypress(Space),,,,,,,,---- -- ----- -- ------ - ------- --- ----------<br>------------- ------ ------ ---- ---- ------- ----- -- ----<br>-------- ------- -- ---------- --- - --- ----- ----- ----<br>---- --- --- ----- --- ---- ---- ------- ----- ---- -------<br>--- --- -- ----- -- --- ---- -- --- ---- -- ------ ------<br>--- ----- at ----,125197.10000002384,125196.40000003576,124959.853,124963.80000001192,124976.691,125209.972,,54,at
screen,html.Screen,2_1_0_1_55,2022-02-02T17:46:32.664Z,,,,,,,,,,,,,,,,,53,,,,,,,,,,,,,,533.6280000238476,,response,,,,99,,,,,,,Space,keypress(Space),,,,,,,,---- -- ----- -- ------ - ------- --- ----------<br>------------- ------ ------ ---- ---- ------- ----- -- ----<br>-------- ------- -- ---------- --- - --- ----- ----- ----<br>---- --- --- ----- --- ---- ---- ------- ----- ---- -------<br>--- --- -- ----- -- --- ---- -- --- ---- -- ------ ------<br>--- ----- -- all.,125744.5,125743.60000002384,125193.238,125197.30000001192,125209.972,125760.012,,55,all.
Item 99,flow.Loop,2_1_0_1,2022-02-02T17:46:32.665Z,,,,,,,,,,,,,,,,,,,,,,,,,,,,,,,19641.04500002385,,completion,,,,,E,,,,,,,,,,,silence,,,,,125744.90000003576,125743.60000002384,106035.962,106036.90000003576,106102.555,125760.012,,,
Question 1,html.Screen,2_1_0_2,2022-02-02T17:46:36.207Z,,,,,,,,,,,,,,,,,,,,,,,,,,,,false,FALSE,,3526.3880000357603,,response,,,,99,E,,,,,,TRUE,click #choice-1,,,,silence,,,,,129287.10000002384,129286.40000003576,125743.442,125745,125760.012,129294.645,,,
Question 2,html.Screen,2_1_0_3,2022-02-02T17:46:39.603Z,,,,,,,,,,,,,,,,,,,,,,,,,,,,true,TRUE,,3388.155000011917,,response,,,,99,E,,,,,,TRUE,click #choice-1,,,,silence,,,,,132683.5,132682.80000001192,129278.174,129287.10000002384,129294.645,132695.855,,,
Item 99,flow.Sequence,2_1_0,2022-02-02T17:46:39.604Z,,,,,,,,,,,,,,,,,,,,,,,,,,,,,,,36634.12200001192,,completion,,,,,,,,,,,,,,,,,,,,,132683.70000004768,132682.80000001192,96032.236,96040.20000004768,96048.678,132695.855,,,
Holding screen,html.Screen,2_1_1_0,2022-02-02T17:46:49.604Z,,,,,,,,,,,,,,,,,,,,,,,,,,,,,,,10003.853000000003,,timeout,,,,,,,,,,,,,,,,,,,,,142684.10000002384,142683.281,132679.488,132683.80000001192,132695.855,142699.708,,,
screen,html.Screen,2_1_1_1_0,2022-02-02T17:46:50.253Z,,,,,,,,,,,,,,,,,54,,,,,,,,,,,,,,633.0920000119077,,response,,,,100,,,,,,,Space,keypress(Space),,,,,,,,At --- ---- --- ------ ----- ------- ---- -- --- ------- --<br>------- ---------- ------ -- ----- -- ----- -- ---- ------<br>--- ----- --- --- ------ -------- ----- --- ------ ----- --<br>----- ----- ---------- --- --- ------ ------ ---- -- ------<br>------- --- ------ ----- --- ---- ------- -- ---- --- --<br>------- ------,143333.60000002384,143332.80000001192,142683.281,142684.30000001192,142699.708,143350.14,,0,At
screen,html.Screen,2_1_1_1_1,2022-02-02T17:46:50.529Z,,,,,,,,,,,,,,,,,54,,,,,,,,,,,,,,258.66000001190696,,response,,,,100,,,,,,,Space,keypress(Space),,,,,,,,-- the ---- --- ------ ----- ------- ---- -- --- ------- --<br>------- ---------- ------ -- ----- -- ----- -- ---- ------<br>--- ----- --- --- ------ -------- ----- --- ------ ----- --<br>----- ----- ---------- --- --- ------ ------ ---- -- ------<br>------- --- ------ ----- --- ---- ------- -- ---- --- --<br>------- ------,143609.40000003576,143608.80000001192,143333.333,143333.70000004768,143350.14,143616.89,,1,the
screen,html.Screen,2_1_1_1_2,2022-02-02T17:46:50.716Z,,,,,,,,,,,,,,,,,54,,,,,,,,,,,,,,178.41000001190696,,response,,,,100,,,,,,,Space,keypress(Space),,,,,,,,-- --- time --- ------ ----- ------- ---- -- --- ------- --<br>------- ---------- ------ -- ----- -- ----- -- ---- ------<br>--- ----- --- --- ------ -------- ----- --- ------ ----- --<br>----- ----- ---------- --- --- ------ ------ ---- -- ------<br>------- --- ------ ----- --- ---- ------- -- ---- --- --<br>------- ------,143796,143795.30000001192,143600.11,143609.5,143616.89,143800.214,,2,time
screen,html.Screen,2_1_1_1_3,2022-02-02T17:46:50.970Z,,,,,,,,,,,,,,,,,54,,,,,,,,,,,,,,248.88600002383464,,response,,,,100,,,,,,,Space,keypress(Space),,,,,,,,-- --- ---- the ------ ----- ------- ---- -- --- ------- --<br>------- ---------- ------ -- ----- -- ----- -- ---- ------<br>--- ----- --- --- ------ -------- ----- --- ------ ----- --<br>----- ----- ---------- --- --- ------ ------ ---- -- ------<br>------- --- ------ ----- --- ---- ------- -- ---- --- --<br>------- ------,144049.80000001192,144049.10000002384,143783.719,143796.20000004768,143800.214,144067.172,,3,the
screen,html.Screen,2_1_1_1_4,2022-02-02T17:46:51.174Z,,,,,,,,,,,,,,,,,54,,,,,,,,,,,,,,186.32800000000861,,response,,,,100,,,,,,,Space,keypress(Space),,,,,,,,-- --- ---- --- French ----- ------- ---- -- --- ------- --<br>------- ---------- ------ -- ----- -- ----- -- ---- ------<br>--- ----- --- --- ------ -------- ----- --- ------ ----- --<br>----- ----- ---------- --- --- ------ ------ ---- -- ------<br>------- --- ------ ----- --- ---- ------- -- ---- --- --<br>------- ------,144254.30000001192,144253.5,144050.33,144049.90000003576,144067.172,144267.134,,4,French
screen,html.Screen,2_1_1_1_5,2022-02-02T17:46:51.723Z,,,,,,,,,,,,,,,,,54,,,,,,,,,,,,,,535.2660000357719,,response,,,,100,,,,,,,Space,keypress(Space),,,,,,,,-- --- ---- --- ------ crown ------- ---- -- --- ------- --<br>------- ---------- ------ -- ----- -- ----- -- ---- ------<br>--- ----- --- --- ------ -------- ----- --- ------ ----- --<br>----- ----- ---------- --- --- ------ ------ ---- -- ------<br>------- --- ------ ----- --- ---- ------- -- ---- --- --<br>------- ------,144803.20000004768,144802.40000003576,144250.546,144254.40000003576,144267.134,144817.444,,5,crown
screen,html.Screen,2_1_1_1_6,2022-02-02T17:46:51.903Z,,,,,,,,,,,,,,,,,54,,,,,,,,,,,,,,165.15600002385327,,response,,,,100,,,,,,,Space,keypress(Space),,,,,,,,-- --- ---- --- ------ ----- secured ---- -- --- ------- --<br>------- ---------- ------ -- ----- -- ----- -- ---- ------<br>--- ----- --- --- ------ -------- ----- --- ------ ----- --<br>----- ----- ---------- --- --- ------ ------ ---- -- ------<br>------- --- ------ ----- --- ---- ------- -- ---- --- --<br>------- ------,144983.30000001192,144982.60000002384,144800.763,144803.30000001192,144817.444,145000.75,,6,secured
screen,html.Screen,2_1_1_1_7,2022-02-02T17:46:52.291Z,,,,,,,,,,,,,,,,,54,,,,,,,,,,,,,,369.9500000476837,,response,,,,100,,,,,,,Space,keypress(Space),,,,,,,,-- --- ---- --- ------ ----- ------- much -- --- ------- --<br>------- ---------- ------ -- ----- -- ----- -- ---- ------<br>--- ----- --- --- ------ -------- ----- --- ------ ----- --<br>----- ----- ---------- --- --- ------ ------ ---- -- ------<br>------- --- ------ ----- --- ---- ------- -- ---- --- --<br>------- ------,145371.40000003576,145370.70000004768,144984.004,144983.40000003576,145000.75,145384.377,,7,much
screen,html.Screen,2_1_1_1_8,2022-02-02T17:46:52.563Z,,,,,,,,,,,,,,,,,54,,,,,,,,,,,,,,258.42300001191325,,response,,,,100,,,,,,,Space,keypress(Space),,,,,,,,-- --- ---- --- ------ ----- ------- ---- of --- ------- --<br>------- ---------- ------ -- ----- -- ----- -- ---- ------<br>--- ----- --- --- ------ -------- ----- --- ------ ----- --<br>----- ----- ---------- --- --- ------ ------ ---- -- ------<br>------- --- ------ ----- --- ---- ------- -- ---- --- --<br>------- ------,145643.5,145642.80000001192,145367.571,145371.60000002384,145384.377,145651.045,,8,of
screen,html.Screen,2_1_1_1_9,2022-02-02T17:46:52.730Z,,,,,,,,,,,,,,,,,54,,,,,,,,,,,,,,158.05500002382905,,response,,,,100,,,,,,,Space,keypress(Space),,,,,,,,-- --- ---- --- ------ ----- ------- ---- -- its ------- --<br>------- ---------- ------ -- ----- -- ----- -- ---- ------<br>--- ----- --- --- ------ -------- ----- --- ------ ----- --<br>----- ----- ---------- --- --- ------ ------ ---- -- ------<br>------- --- ------ ----- --- ---- ------- -- ---- --- --<br>------- ------,145809.80000001192,145809.10000002384,145634.426,145643.70000004768,145651.045,145817.539,,9,its
screen,html.Screen,2_1_1_1_10,2022-02-02T17:46:53.031Z,,,,,,,,,,,,,,,,,54,,,,,,,,,,,,,,292.86100003577303,,response,,,,100,,,,,,,Space,keypress(Space),,,,,,,,-- --- ---- --- ------ ----- ------- ---- -- --- revenue --<br>------- ---------- ------ -- ----- -- ----- -- ---- ------<br>--- ----- --- --- ------ -------- ----- --- ------ ----- --<br>----- ----- ---------- --- --- ------ ------ ---- -- ------<br>------- --- ------ ----- --- ---- ------- -- ---- --- --<br>------- ------,146111.20000004768,146110.40000003576,145801.13,145810,145817.539,146117.828,,10,revenue
screen,html.Screen,2_1_1_1_11,2022-02-02T17:46:53.466Z,,,,,,,,,,,,,,,,,54,,,,,,,,,,,,,,427.8720000476751,,response,,,,100,,,,,,,Space,keypress(Space),,,,,,,,-- --- ---- --- ------ ----- ------- ---- -- --- ------- by<br>------- ---------- ------ -- ----- -- ----- -- ---- ------<br>--- ----- --- --- ------ -------- ----- --- ------ ----- --<br>----- ----- ---------- --- --- ------ ------ ---- -- ------<br>------- --- ------ ----- --- ---- ------- -- ---- --- --<br>------- ------,146546.40000003576,146545.70000004768,146101.236,146111.30000001192,146117.828,146551.231,,11,by
screen,html.Screen,2_1_1_1_12,2022-02-02T17:46:53.968Z,,,,,,,,,,,,,,,,,54,,,,,,,,,,,,,,495.56900001192116,,response,,,,100,,,,,,,Space,keypress(Space),,,,,,,,-- --- ---- --- ------ ----- ------- ---- -- --- ------- --<br>issuing ---------- ------ -- ----- -- ----- -- ---- ------<br>--- ----- --- --- ------ -------- ----- --- ------ ----- --<br>----- ----- ---------- --- --- ------ ------ ---- -- ------<br>------- --- ------ ----- --- ---- ------- -- ---- --- --<br>------- ------,147047.60000002384,147046.80000001192,146534.743,146546.60000002384,146551.231,147051.449,,12,issuing
screen,html.Screen,2_1_1_1_13,2022-02-02T17:46:54.174Z,,,,,,,,,,,,,,,,,54,,,,,,,,,,,,,,201.6510000238486,,response,,,,100,,,,,,,Space,keypress(Space),,,,,,,,-- --- ---- --- ------ ----- ------- ---- -- --- ------- --<br>------- government ------ -- ----- -- ----- -- ---- ------<br>--- ----- --- --- ------ -------- ----- --- ------ ----- --<br>----- ----- ---------- --- --- ------ ------ ---- -- ------<br>------- --- ------ ----- --- ---- ------- -- ---- --- --<br>------- ------,147253.90000003576,147253.10000002384,147034.942,147047.70000004768,147051.449,147268.392,,13,government
screen,html.Screen,2_1_1_1_14,2022-02-02T17:46:54.534Z,,,,,,,,,,,,,,,,,54,,,,,,,,,,,,,,345.30800004769117,,response,,,,100,,,,,,,Space,keypress(Space),,,,,,,,-- --- ---- --- ------ ----- ------- ---- -- --- ------- --<br>------- ---------- bonds. -- ----- -- ----- -- ---- ------<br>--- ----- --- --- ------ -------- ----- --- ------ ----- --<br>----- ----- ---------- --- --- ------ ------ ---- -- ------<br>------- --- ------ ----- --- ---- ------- -- ---- --- --<br>------- ------,147614.5,147613.70000004768,147251.737,147254.10000002384,147268.392,147618.33,,14,bonds.
screen,html.Screen,2_1_1_1_15,2022-02-02T17:46:54.957Z,,,,,,,,,,,,,,,,,54,,,,,,,,,,,,,,418.27000002385466,,response,,,,100,,,,,,,Space,keypress(Space),,,,,,,,-- --- ---- --- ------ ----- ------- ---- -- --- ------- --<br>------- ---------- ------ In ----- -- ----- -- ---- ------<br>--- ----- --- --- ------ -------- ----- --- ------ ----- --<br>----- ----- ---------- --- --- ------ ------ ---- -- ------<br>------- --- ------ ----- --- ---- ------- -- ---- --- --<br>------- ------,148037.20000004768,148036.60000002384,147601.775,147614.60000002384,147618.33,148052.012,,15,In
screen,html.Screen,2_1_1_1_16,2022-02-02T17:46:55.801Z,,,,,,,,,,,,,,,,,54,,,,,,,,,,,,,,827.8880000357749,,response,,,,100,,,,,,,Space,keypress(Space),,,,,,,,"-- --- ---- --- ------ ----- ------- ---- -- --- ------- --<br>------- ---------- ------ -- 1727, -- ----- -- ---- ------<br>--- ----- --- --- ------ -------- ----- --- ------ ----- --<br>----- ----- ---------- --- --- ------ ------ ---- -- ------<br>------- --- ------ ----- --- ---- ------- -- ---- --- --<br>------- ------",148880.70000004768,148879.90000003576,148035.358,148037.40000003576,148052.012,148885.501,,16,"1727,"
screen,html.Screen,2_1_1_1_17,2022-02-02T17:46:55.952Z,,,,,,,,,,,,,,,,,54,,,,,,,,,,,,,,146.09900002385257,,response,,,,100,,,,,,,Space,keypress(Space),,,,,,,,-- --- ---- --- ------ ----- ------- ---- -- --- ------- --<br>------- ---------- ------ -- ----- in ----- -- ---- ------<br>--- ----- --- --- ------ -------- ----- --- ------ ----- --<br>----- ----- ---------- --- --- ------ ------ ---- -- ------<br>------- --- ------ ----- --- ---- ------- -- ---- --- --<br>------- ------,149032.5,149031.60000002384,148868.912,148880.90000003576,148885.501,149035.56,,17,in
screen,html.Screen,2_1_1_1_18,2022-02-02T17:46:56.348Z,,,,,,,,,,,,,,,,,54,,,,,,,,,,,,,,392.24000001192326,,response,,,,100,,,,,,,Space,keypress(Space),,,,,,,,-- --- ---- --- ------ ----- ------- ---- -- --- ------- --<br>------- ---------- ------ -- ----- -- order -- ---- ------<br>--- ----- --- --- ------ -------- ----- --- ------ ----- --<br>----- ----- ---------- --- --- ------ ------ ---- -- ------<br>------- --- ------ ----- --- ---- ------- -- ---- --- --<br>------- ------,149428.5,149427.80000001192,149018.978,149032.60000002384,149035.56,149435.741,,18,order
screen,html.Screen,2_1_1_1_19,2022-02-02T17:46:56.582Z,,,,,,,,,,,,,,,,,54,,,,,,,,,,,,,,225.35900002383278,,response,,,,100,,,,,,,Space,keypress(Space),,,,,,,,-- --- ---- --- ------ ----- ------- ---- -- --- ------- --<br>------- ---------- ------ -- ----- -- ----- to ---- ------<br>--- ----- --- --- ------ -------- ----- --- ------ ----- --<br>----- ----- ---------- --- --- ------ ------ ---- -- ------<br>------- --- ------ ----- --- ---- ------- -- ---- --- --<br>------- ------,149661.90000003576,149661.10000002384,149419.129,149428.70000004768,149435.741,149669.157,,19,to
screen,html.Screen,2_1_1_1_20,2022-02-02T17:46:56.737Z,,,,,,,,,,,,,,,,,54,,,,,,,,,,,,,,146.94300002383534,,response,,,,100,,,,,,,Space,keypress(Space),,,,,,,,-- --- ---- --- ------ ----- ------- ---- -- --- ------- --<br>------- ---------- ------ -- ----- -- ----- -- save ------<br>--- ----- --- --- ------ -------- ----- --- ------ ----- --<br>----- ----- ---------- --- --- ------ ------ ---- -- ------<br>------- --- ------ ----- --- ---- ------- -- ---- --- --<br>------- ------,149816.90000003576,149816.10000002384,149652.514,149662.10000002384,149669.157,149819.525,,20,save
screen,html.Screen,2_1_1_1_21,2022-02-02T17:46:57.057Z,,,,,,,,,,,,,,,,,54,,,,,,,,,,,,,,317.17500004768954,,response,,,,100,,,,,,,Space,keypress(Space),,,,,,,,"-- --- ---- --- ------ ----- ------- ---- -- --- ------- --<br>------- ---------- ------ -- ----- -- ----- -- ---- money,<br>--- ----- --- --- ------ -------- ----- --- ------ ----- --<br>----- ----- ---------- --- --- ------ ------ ---- -- ------<br>------- --- ------ ----- --- ---- ------- -- ---- --- --<br>------- ------",150137.5,150136.70000004768,149802.53,149817.10000002384,149819.525,150152.806,,21,"money,"
screen,html.Screen,2_1_1_1_22,2022-02-02T17:46:57.413Z,,,,,,,,,,,,,,,,,54,,,,,,,,,,,,,,339.4940000119095,,response,,,,100,,,,,,,Space,keypress(Space),,,,,,,,-- --- ---- --- ------ ----- ------- ---- -- --- ------- --<br>------- ---------- ------ -- ----- -- ----- -- ---- ------<br>the ----- --- --- ------ -------- ----- --- ------ ----- --<br>----- ----- ---------- --- --- ------ ------ ---- -- ------<br>------- --- ------ ----- --- ---- ------- -- ---- --- --<br>------- ------,150493.10000002384,150492.30000001192,150135.985,150137.70000004768,150152.806,150502.913,,22,the
screen,html.Screen,2_1_1_1_23,2022-02-02T17:46:57.688Z,,,,,,,,,,,,,,,,,54,,,,,,,,,,,,,,264.78700004768325,,response,,,,100,,,,,,,Space,keypress(Space),,,,,,,,-- --- ---- --- ------ ----- ------- ---- -- --- ------- --<br>------- ---------- ------ -- ----- -- ----- -- ---- ------<br>--- state --- --- ------ -------- ----- --- ------ ----- --<br>----- ----- ---------- --- --- ------ ------ ---- -- ------<br>------- --- ------ ----- --- ---- ------- -- ---- --- --<br>------- ------,150768.5,150767.70000004768,150486.206,150493.30000001192,150502.913,150786.343,,23,state
screen,html.Screen,2_1_1_1_24,2022-02-02T17:46:57.914Z,,,,,,,,,,,,,,,,,54,,,,,,,,,,,,,,206.65700000000652,,response,,,,100,,,,,,,Space,keypress(Space),,,,,,,,-- --- ---- --- ------ ----- ------- ---- -- --- ------- --<br>------- ---------- ------ -- ----- -- ----- -- ---- ------<br>--- ----- cut --- ------ -------- ----- --- ------ ----- --<br>----- ----- ---------- --- --- ------ ------ ---- -- ------<br>------- --- ------ ----- --- ---- ------- -- ---- --- --<br>------- ------,150993.80000001192,150993,150769.509,150768.70000004768,150786.343,151002.915,,24,cut
screen,html.Screen,2_1_1_1_25,2022-02-02T17:46:58.112Z,,,,,,,,,,,,,,,,,54,,,,,,,,,,,,,,188.78500004767557,,response,,,,100,,,,,,,Space,keypress(Space),,,,,,,,-- --- ---- --- ------ ----- ------- ---- -- --- ------- --<br>------- ---------- ------ -- ----- -- ----- -- ---- ------<br>--- ----- --- the ------ -------- ----- --- ------ ----- --<br>----- ----- ---------- --- --- ------ ------ ---- -- ------<br>------- --- ------ ----- --- ---- ------- -- ---- --- --<br>------- ------,151192.5,151191.70000004768,150986.423,150994,151002.915,151203.083,,25,the
screen,html.Screen,2_1_1_1_26,2022-02-02T17:46:58.437Z,,,,,,,,,,,,,,,,,54,,,,,,,,,,,,,,313.3170000357495,,response,,,,100,,,,,,,Space,keypress(Space),,,,,,,,-- --- ---- --- ------ ----- ------- ---- -- --- ------- --<br>------- ---------- ------ -- ----- -- ----- -- ---- ------<br>--- ----- --- --- bonds' -------- ----- --- ------ ----- --<br>----- ----- ---------- --- --- ------ ------ ---- -- ------<br>------- --- ------ ----- --- ---- ------- -- ---- --- --<br>------- ------,151517.30000001192,151516.40000003576,151186.369,151192.70000004768,151203.083,151519.704,,26,bonds'
screen,html.Screen,2_1_1_1_27,2022-02-02T17:46:58.695Z,,,,,,,,,,,,,,,,,54,,,,,,,,,,,,,,254.19600003576488,,response,,,,100,,,,,,,Space,keypress(Space),,,,,,,,-- --- ---- --- ------ ----- ------- ---- -- --- ------- --<br>------- ---------- ------ -- ----- -- ----- -- ---- ------<br>--- ----- --- --- ------ interest ----- --- ------ ----- --<br>----- ----- ---------- --- --- ------ ------ ---- -- ------<br>------- --- ------ ----- --- ---- ------- -- ---- --- --<br>------- ------,151774.70000004768,151773.90000003576,151503.232,151517.5,151519.704,151786.626,,27,interest
screen,html.Screen,2_1_1_1_28,2022-02-02T17:46:58.999Z,,,,,,,,,,,,,,,,,54,,,,,,,,,,,,,,292.0740000476944,,response,,,,100,,,,,,,Space,keypress(Space),,,,,,,,-- --- ---- --- ------ ----- ------- ---- -- --- ------- --<br>------- ---------- ------ -- ----- -- ----- -- ---- ------<br>--- ----- --- --- ------ -------- rate. --- ------ ----- --<br>----- ----- ---------- --- --- ------ ------ ---- -- ------<br>------- --- ------ ----- --- ---- ------- -- ---- --- --<br>------- ------,152079.5,152078.70000004768,151770.048,151774.80000001192,151786.626,152086.691,,28,rate.
screen,html.Screen,2_1_1_1_29,2022-02-02T17:46:59.351Z,,,,,,,,,,,,,,,,,54,,,,,,,,,,,,,,344.0090000476921,,response,,,,100,,,,,,,Space,keypress(Space),,,,,,,,-- --- ---- --- ------ ----- ------- ---- -- --- ------- --<br>------- ---------- ------ -- ----- -- ----- -- ---- ------<br>--- ----- --- --- ------ -------- ----- The ------ ----- --<br>----- ----- ---------- --- --- ------ ------ ---- -- ------<br>------- --- ------ ----- --- ---- ------- -- ---- --- --<br>------- ------,152431.30000001192,152430.70000004768,152070.197,152079.70000004768,152086.691,152436.737,,29,The
screen,html.Screen,2_1_1_1_30,2022-02-02T17:46:59.685Z,,,,,,,,,,,,,,,,,54,,,,,,,,,,,,,,327.1630000357691,,response,,,,100,,,,,,,Space,keypress(Space),,,,,,,,-- --- ---- --- ------ ----- ------- ---- -- --- ------- --<br>------- ---------- ------ -- ----- -- ----- -- ---- ------<br>--- ----- --- --- ------ -------- ----- --- market ----- --<br>----- ----- ---------- --- --- ------ ------ ---- -- ------<br>------- --- ------ ----- --- ---- ------- -- ---- --- --<br>------- ------,152764.80000001192,152763.90000003576,152420.31,152431.5,152436.737,152770.329,,30,market
screen,html.Screen,2_1_1_1_31,2022-02-02T17:46:59.843Z,,,,,,,,,,,,,,,,,54,,,,,,,,,,,,,,151.57100003576488,,response,,,,100,,,,,,,Space,keypress(Space),,,,,,,,-- --- ---- --- ------ ----- ------- ---- -- --- ------- --<br>------- ---------- ------ -- ----- -- ----- -- ---- ------<br>--- ----- --- --- ------ -------- ----- --- ------ value --<br>----- ----- ---------- --- --- ------ ------ ---- -- ------<br>------- --- ------ ----- --- ---- ------- -- ---- --- --<br>------- ------,152922.70000004768,152921.90000003576,152753.781,152765,152770.329,152937.077,,31,value
screen,html.Screen,2_1_1_1_32,2022-02-02T17:47:00.248Z,,,,,,,,,,,,,,,,,54,,,,,,,,,,,,,,390.1230000476935,,response,,,,100,,,,,,,Space,keypress(Space),,,,,,,,-- --- ---- --- ------ ----- ------- ---- -- --- ------- --<br>------- ---------- ------ -- ----- -- ----- -- ---- ------<br>--- ----- --- --- ------ -------- ----- --- ------ ----- of<br>----- ----- ---------- --- --- ------ ------ ---- -- ------<br>------- --- ------ ----- --- ---- ------- -- ---- --- --<br>------- ------,153328,153327.20000004768,152920.559,152922.80000001192,152937.077,153337.321,,32,of
screen,html.Screen,2_1_1_1_33,2022-02-02T17:47:00.556Z,,,,,,,,,,,,,,,,,54,,,,,,,,,,,,,,298.5790000357665,,response,,,,100,,,,,,,Space,keypress(Space),,,,,,,,-- --- ---- --- ------ ----- ------- ---- -- --- ------- --<br>------- ---------- ------ -- ----- -- ----- -- ---- ------<br>--- ----- --- --- ------ -------- ----- --- ------ ----- --<br>these ----- ---------- --- --- ------ ------ ---- -- ------<br>------- --- ------ ----- --- ---- ------- -- ---- --- --<br>------- ------,153636.40000003576,153635.90000003576,153320.673,153328.20000004768,153337.321,153637.268,,33,these
screen,html.Screen,2_1_1_1_34,2022-02-02T17:47:00.742Z,,,,,,,,,,,,,,,,,54,,,,,,,,,,,,,,183.93200004767277,,response,,,,100,,,,,,,Space,keypress(Space),,,,,,,,-- --- ---- --- ------ ----- ------- ---- -- --- ------- --<br>------- ---------- ------ -- ----- -- ----- -- ---- ------<br>--- ----- --- --- ------ -------- ----- --- ------ ----- --<br>----- bonds ---------- --- --- ------ ------ ---- -- ------<br>------- --- ------ ----- --- ---- ------- -- ---- --- --<br>------- ------,153822,153821.20000004768,153620.691,153636.5,153637.268,153837.497,,34,bonds
screen,html.Screen,2_1_1_1_35,2022-02-02T17:47:00.960Z,,,,,,,,,,,,,,,,,54,,,,,,,,,,,,,,201.90300003575976,,response,,,,100,,,,,,,Space,keypress(Space),,,,,,,,"-- --- ---- --- ------ ----- ------- ---- -- --- ------- --<br>------- ---------- ------ -- ----- -- ----- -- ---- ------<br>--- ----- --- --- ------ -------- ----- --- ------ ----- --<br>----- ----- plummeted, --- --- ------ ------ ---- -- ------<br>------- --- ------ ----- --- ---- ------- -- ---- --- --<br>------- ------",154040.10000002384,154039.40000003576,153820.707,153822.20000004768,153837.497,154054.291,,35,"plummeted,"
screen,html.Screen,2_1_1_1_36,2022-02-02T17:47:01.336Z,,,,,,,,,,,,,,,,,54,,,,,,,,,,,,,,361.0090000119235,,response,,,,100,,,,,,,Space,keypress(Space),,,,,,,,-- --- ---- --- ------ ----- ------- ---- -- --- ------- --<br>------- ---------- ------ -- ----- -- ----- -- ---- ------<br>--- ----- --- --- ------ -------- ----- --- ------ ----- --<br>----- ----- ---------- and --- ------ ------ ---- -- ------<br>------- --- ------ ----- --- ---- ------- -- ---- --- --<br>------- ------,154415.90000003576,154415.30000001192,154037.561,154040.30000001192,154054.291,154420.97,,36,and
screen,html.Screen,2_1_1_1_37,2022-02-02T17:47:01.660Z,,,,,,,,,,,,,,,,,54,,,,,,,,,,,,,,318.73000004768255,,response,,,,100,,,,,,,Space,keypress(Space),,,,,,,,-- --- ---- --- ------ ----- ------- ---- -- --- ------- --<br>------- ---------- ------ -- ----- -- ----- -- ---- ------<br>--- ----- --- --- ------ -------- ----- --- ------ ----- --<br>----- ----- ---------- --- the ------ ------ ---- -- ------<br>------- --- ------ ----- --- ---- ------- -- ---- --- --<br>------- ------,154740.40000003576,154739.70000004768,154404.409,154416.10000002384,154420.97,154754.585,,37,the
screen,html.Screen,2_1_1_1_38,2022-02-02T17:47:01.868Z,,,,,,,,,,,,,,,,,54,,,,,,,,,,,,,,193.31500003577094,,response,,,,100,,,,,,,Space,keypress(Space),,,,,,,,-- --- ---- --- ------ ----- ------- ---- -- --- ------- --<br>------- ---------- ------ -- ----- -- ----- -- ---- ------<br>--- ----- --- --- ------ -------- ----- --- ------ ----- --<br>----- ----- ---------- --- --- market ------ ---- -- ------<br>------- --- ------ ----- --- ---- ------- -- ---- --- --<br>------- ------,154948.5,154947.90000003576,154737.84,154740.60000002384,154754.585,154954.43,,38,market
screen,html.Screen,2_1_1_1_39,2022-02-02T17:47:02.103Z,,,,,,,,,,,,,,,,,54,,,,,,,,,,,,,,228.07000000000698,,response,,,,100,,,,,,,Space,keypress(Space),,,,,,,,-- --- ---- --- ------ ----- ------- ---- -- --- ------- --<br>------- ---------- ------ -- ----- -- ----- -- ---- ------<br>--- ----- --- --- ------ -------- ----- --- ------ ----- --<br>----- ----- ---------- --- --- ------ became ---- -- ------<br>------- --- ------ ----- --- ---- ------- -- ---- --- --<br>------- ------,155183.30000001192,155182.5,154937.875,154948.70000004768,154954.43,155187.881,,39,became
screen,html.Screen,2_1_1_1_40,2022-02-02T17:47:02.450Z,,,,,,,,,,,,,,,,,54,,,,,,,,,,,,,,341.01900003576884,,response,,,,100,,,,,,,Space,keypress(Space),,,,,,,,-- --- ---- --- ------ ----- ------- ---- -- --- ------- --<br>------- ---------- ------ -- ----- -- ----- -- ---- ------<br>--- ----- --- --- ------ -------- ----- --- ------ ----- --<br>----- ----- ---------- --- --- ------ ------ wary -- ------<br>------- --- ------ ----- --- ---- ------- -- ---- --- --<br>------- ------,155529.70000004768,155528.90000003576,155171.353,155183.60000002384,155187.881,155538.168,,40,wary
screen,html.Screen,2_1_1_1_41,2022-02-02T17:47:02.764Z,,,,,,,,,,,,,,,,,54,,,,,,,,,,,,,,305.23200003575766,,response,,,,100,,,,,,,Space,keypress(Space),,,,,,,,-- --- ---- --- ------ ----- ------- ---- -- --- ------- --<br>------- ---------- ------ -- ----- -- ----- -- ---- ------<br>--- ----- --- --- ------ -------- ----- --- ------ ----- --<br>----- ----- ---------- --- --- ------ ------ ---- of ------<br>------- --- ------ ----- --- ---- ------- -- ---- --- --<br>------- ------,155844.20000004768,155843.40000003576,155521.498,155529.90000003576,155538.168,155854.84,,41,of
screen,html.Screen,2_1_1_1_42,2022-02-02T17:47:02.943Z,,,,,,,,,,,,,,,,,54,,,,,,,,,,,,,,167.96000001192442,,response,,,,100,,,,,,,Space,keypress(Space),,,,,,,,-- --- ---- --- ------ ----- ------- ---- -- --- ------- --<br>------- ---------- ------ -- ----- -- ----- -- ---- ------<br>--- ----- --- --- ------ -------- ----- --- ------ ----- --<br>----- ----- ---------- --- --- ------ ------ ---- -- French<br>------- --- ------ ----- --- ---- ------- -- ---- --- --<br>------- ------,156023.5,156022.80000001192,155838.233,155844.40000003576,155854.84,156038.39,,42,French
screen,html.Screen,2_1_1_1_43,2022-02-02T17:47:03.376Z,,,,,,,,,,,,,,,,,54,,,,,,,,,,,,,,416.91000001190696,,response,,,,100,,,,,,,Space,keypress(Space),,,,,,,,-- --- ---- --- ------ ----- ------- ---- -- --- ------- --<br>------- ---------- ------ -- ----- -- ----- -- ---- ------<br>--- ----- --- --- ------ -------- ----- --- ------ ----- --<br>----- ----- ---------- --- --- ------ ------ ---- -- ------<br>credit. --- ------ ----- --- ---- ------- -- ---- --- --<br>------- ------,156455.90000003576,156455.30000001192,156021.755,156023.70000004768,156038.39,156471.872,,43,credit.
screen,html.Screen,2_1_1_1_44,2022-02-02T17:47:03.750Z,,,,,,,,,,,,,,,,,54,,,,,,,,,,,,,,357.8280000476807,,response,,,,100,,,,,,,Space,keypress(Space),,,,,,,,-- --- ---- --- ------ ----- ------- ---- -- --- ------- --<br>------- ---------- ------ -- ----- -- ----- -- ---- ------<br>--- ----- --- --- ------ -------- ----- --- ------ ----- --<br>----- ----- ---------- --- --- ------ ------ ---- -- ------<br>------- The ------ ----- --- ---- ------- -- ---- --- --<br>------- ------,156830.60000002384,156829.70000004768,156455.027,156456.10000002384,156471.872,156838.686,,44,The
screen,html.Screen,2_1_1_1_45,2022-02-02T17:47:04.016Z,,,,,,,,,,,,,,,,,54,,,,,,,,,,,,,,257.2140000357758,,response,,,,100,,,,,,,Space,keypress(Space),,,,,,,,-- --- ---- --- ------ ----- ------- ---- -- --- ------- --<br>------- ---------- ------ -- ----- -- ----- -- ---- ------<br>--- ----- --- --- ------ -------- ----- --- ------ ----- --<br>----- ----- ---------- --- --- ------ ------ ---- -- ------<br>------- --- French ----- --- ---- ------- -- ---- --- --<br>------- ------,157096.60000002384,157095.90000003576,156821.987,156830.70000004768,156838.686,157105.411,,45,French
screen,html.Screen,2_1_1_1_46,2022-02-02T17:47:04.177Z,,,,,,,,,,,,,,,,,54,,,,,,,,,,,,,,151.28900004769093,,response,,,,100,,,,,,,Space,keypress(Space),,,,,,,,-- --- ---- --- ------ ----- ------- ---- -- --- ------- --<br>------- ---------- ------ -- ----- -- ----- -- ---- ------<br>--- ----- --- --- ------ -------- ----- --- ------ ----- --<br>----- ----- ---------- --- --- ------ ------ ---- -- ------<br>------- --- ------ state --- ---- ------- -- ---- --- --<br>------- ------,157257.5,157256.70000004768,157088.748,157096.80000001192,157105.411,157272.185,,46,state
screen,html.Screen,2_1_1_1_47,2022-02-02T17:47:04.379Z,,,,,,,,,,,,,,,,,54,,,,,,,,,,,,,,185.81500000000233,,response,,,,100,,,,,,,Space,keypress(Space),,,,,,,,-- --- ---- --- ------ ----- ------- ---- -- --- ------- --<br>------- ---------- ------ -- ----- -- ----- -- ---- ------<br>--- ----- --- --- ------ -------- ----- --- ------ ----- --<br>----- ----- ---------- --- --- ------ ------ ---- -- ------<br>------- --- ------ ----- was ---- ------- -- ---- --- --<br>------- ------,157458.70000004768,157458,157255.521,157257.70000004768,157272.185,157472.275,,47,was
screen,html.Screen,2_1_1_1_48,2022-02-02T17:47:04.628Z,,,,,,,,,,,,,,,,,54,,,,,,,,,,,,,,235.32500002384768,,response,,,,100,,,,,,,Space,keypress(Space),,,,,,,,-- --- ---- --- ------ ----- ------- ---- -- --- ------- --<br>------- ---------- ------ -- ----- -- ----- -- ---- ------<br>--- ----- --- --- ------ -------- ----- --- ------ ----- --<br>----- ----- ---------- --- --- ------ ------ ---- -- ------<br>------- --- ------ ----- --- left ------- -- ---- --- --<br>------- ------,157708.40000003576,157707.60000002384,157455.637,157458.90000003576,157472.275,157722.34,,48,left
screen,html.Screen,2_1_1_1_49,2022-02-02T17:47:04.924Z,,,,,,,,,,,,,,,,,54,,,,,,,,,,,,,,280.9600000119244,,response,,,,100,,,,,,,Space,keypress(Space),,,,,,,,-- --- ---- --- ------ ----- ------- ---- -- --- ------- --<br>------- ---------- ------ -- ----- -- ----- -- ---- ------<br>--- ----- --- --- ------ -------- ----- --- ------ ----- --<br>----- ----- ---------- --- --- ------ ------ ---- -- ------<br>------- --- ------ ----- --- ---- without -- ---- --- --<br>------- ------,158004,158003.30000001192,157705.674,157708.5,157722.34,158005.611,,49,without
screen,html.Screen,2_1_1_1_50,2022-02-02T17:47:05.107Z,,,,,,,,,,,,,,,,,54,,,,,,,,,,,,,,180.88899999999558,,response,,,,100,,,,,,,Space,keypress(Space),,,,,,,,-- --- ---- --- ------ ----- ------- ---- -- --- ------- --<br>------- ---------- ------ -- ----- -- ----- -- ---- ------<br>--- ----- --- --- ------ -------- ----- --- ------ ----- --<br>----- ----- ---------- --- --- ------ ------ ---- -- ------<br>------- --- ------ ----- --- ---- ------- an ---- --- --<br>------- ------,158187.10000002384,158186.5,157989.056,158004.10000002384,158005.611,158189.037,,50,an
screen,html.Screen,2_1_1_1_51,2022-02-02T17:47:05.307Z,,,,,,,,,,,,,,,,,54,,,,,,,,,,,,,,197.8630000357516,,response,,,,100,,,,,,,Space,keypress(Space),,,,,,,,-- --- ---- --- ------ ----- ------- ---- -- --- ------- --<br>------- ---------- ------ -- ----- -- ----- -- ---- ------<br>--- ----- --- --- ------ -------- ----- --- ------ ----- --<br>----- ----- ---------- --- --- ------ ------ ---- -- ------<br>------- --- ------ ----- --- ---- ------- -- easy --- --<br>------- ------,158387.5,158386.90000003576,158172.498,158187.30000001192,158189.037,158389.08,,51,easy
screen,html.Screen,2_1_1_1_52,2022-02-02T17:47:05.530Z,,,,,,,,,,,,,,,,,54,,,,,,,,,,,,,,220.9200000000128,,response,,,,100,,,,,,,Space,keypress(Space),,,,,,,,-- --- ---- --- ------ ----- ------- ---- -- --- ------- --<br>------- ---------- ------ -- ----- -- ----- -- ---- ------<br>--- ----- --- --- ------ -------- ----- --- ------ ----- --<br>----- ----- ---------- --- --- ------ ------ ---- -- ------<br>------- --- ------ ----- --- ---- ------- -- ---- way --<br>------- ------,158610.30000001192,158610,158372.572,158387.80000001192,158389.08,158622.578,,52,way
screen,html.Screen,2_1_1_1_53,2022-02-02T17:47:05.848Z,,,,,,,,,,,,,,,,,54,,,,,,,,,,,,,,304.7220000119123,,response,,,,100,,,,,,,Space,keypress(Space),,,,,,,,-- --- ---- --- ------ ----- ------- ---- -- --- ------- --<br>------- ---------- ------ -- ----- -- ----- -- ---- ------<br>--- ----- --- --- ------ -------- ----- --- ------ ----- --<br>----- ----- ---------- --- --- ------ ------ ---- -- ------<br>------- --- ------ ----- --- ---- ------- -- ---- --- of<br>------- ------,158928,158927.30000001192,158605.831,158610.40000003576,158622.578,158939.43,,53,of
screen,html.Screen,2_1_1_1_54,2022-02-02T17:47:06.120Z,,,,,,,,,,,,,,,,,54,,,,,,,,,,,,,,260.2700000476907,,response,,,,100,,,,,,,Space,keypress(Space),,,,,,,,-- --- ---- --- ------ ----- ------- ---- -- --- ------- --<br>------- ---------- ------ -- ----- -- ----- -- ---- ------<br>--- ----- --- --- ------ -------- ----- --- ------ ----- --<br>----- ----- ---------- --- --- ------ ------ ---- -- ------<br>------- --- ------ ----- --- ---- ------- -- ---- --- --<br>raising ------,159200.5,159199.70000004768,158922.747,158928.20000004768,158939.43,159206.004,,54,raising
screen,html.Screen,2_1_1_1_55,2022-02-02T17:47:06.379Z,,,,,,,,,,,,,,,,,54,,,,,,,,,,,,,,253.0960000238556,,response,,,,100,,,,,,,Space,keypress(Space),,,,,,,,-- --- ---- --- ------ ----- ------- ---- -- --- ------- --<br>------- ---------- ------ -- ----- -- ----- -- ---- ------<br>--- ----- --- --- ------ -------- ----- --- ------ ----- --<br>----- ----- ---------- --- --- ------ ------ ---- -- ------<br>------- --- ------ ----- --- ---- ------- -- ---- --- --<br>------- money.,159459.60000002384,159459.10000002384,159189.587,159200.60000002384,159206.004,159472.669,,55,money.
Item 100,flow.Loop,2_1_1_1,2022-02-02T17:47:06.380Z,,,,,,,,,,,,,,,,,,,,,,,,,,,,,,,16759.39200002383,,completion,,,,,E,,,,,,,,,,,silence,,,,,159459.70000004768,159459.10000002384,142683.281,142684.30000001192,142699.708,159472.669,,,
Question 1,html.Screen,2_1_1_2,2022-02-02T17:47:08.589Z,,,,,,,,,,,,,,,,,,,,,,,,,,,,true,TRUE,,2195.6310000119265,,response,,,,100,E,,,,,,TRUE,click #choice-1,,,,silence,,,,,161668.90000003576,161668.30000001192,159456.277,159459.80000001192,159472.669,161673.621,,,
Question 2,html.Screen,2_1_1_3,2022-02-02T17:47:10.344Z,,,,,,,,,,,,,,,,,,,,,,,,,,,,true,FALSE,,1749.4790000238281,,response,,,,100,E,,,,,,FALSE,click #choice-2,,,,silence,,,,,163423.70000004768,163423.10000002384,161657.128,161669,161673.621,163424.245,,,
Item 100,flow.Sequence,2_1_1,2022-02-02T17:47:10.344Z,,,,,,,,,,,,,,,,,,,,,,,,,,,,,,,30727.24500002383,,completion,,,,,,,,,,,,,,,,,,,,,163423.90000003576,163423.10000002384,132679.488,132683.80000001192,132695.855,163424.245,,,
End of Practice,html.Page,2_1_2,2022-02-02T17:47:12.986Z,,,,,,,,,,,,,,,,,,,,,,,,,,,,,,,2642.0550000119256,,form submission,,,,,,,,,,,,,,,,,,,,,166066.40000003576,166066.30000001192,163407.777,163423.90000003576,163424.245,166075.215,,,
Practice,flow.Sequence,2_1,2022-02-02T17:47:12.986Z,,,,,,,,,,,,,,,,,,,,,,,,,,,,,,,70017.62200001192,,completion,,,,,,,,,,,,,,,,,,,,,166066.5,166066.30000001192,96032.236,96040.10000002384,96048.678,166075.215,,,
Trap_instruction,html.Page,2_2_0,2022-02-02T17:47:14.972Z,,,,,,,,,,,,,,,,,,,,,,,,,,,,,,,1977.3850000238454,,form submission,,,,,,,,,,,,,,,,,,,,,168052.80000001192,168052.60000002384,166058.811,166066.60000002384,166075.215,168059.381,,,
trap_trial,html.Screen,2_2_1,2022-02-02T17:47:18.259Z,,,,,,,,,,,,,,,,,,,,,,,,,,,,true,1,,3279.419000011927,,response,,,,,,,,,,,1,click #choice-1,,,,,,,,,171339.5,171338.80000001192,168042.915,168052.90000003576,168059.381,171343.968,,,
end of trap trial,html.Page,2_2_2,2022-02-02T17:47:19.975Z,,,,,,,,,,,,,,,,,,,,,,,,,,,,,,,1711.5320000000065,,form submission,,,,,,,,,,,,,,,,,,,,,173055.80000001192,173055.5,171327.466,171339.60000002384,171343.968,173061.195,,,
Trap 1,flow.Sequence,2_2,2022-02-02T17:47:19.975Z,,,,,,,,,,,,,,,,,,,,,,,,,,,,,,,6980.2850000000035,,completion,,,,,,,,,,,,,,,,,,,,,173056,173055.5,166058.811,166066.60000002384,166075.215,173061.195,,,
Standby,html.Page,2_3_0,2022-02-02T17:47:27.968Z,,,,,,,,,,,,,,,,,,,,,,,,,,,,,,,8003.242999999988,,timeout,,,,,,,,,,,,,,,,,,,,,181048.70000004768,181047.84,173044.59,173056.20000004768,173061.195,181064.438,,,
Holding screen,html.Screen,2_3_1_0_0,2022-02-02T17:47:34.971Z,,,,,,,,,,,,,,,,,,,,,,,,,,,,,,,7002.671000000002,,timeout,,,,,,,,,,,,,,,,,,,,,188051.30000001192,188050.504,181047.84,181048.90000003576,181064.438,188067.109,,,
screen,html.Screen,2_3_1_0_1_0,2022-02-02T17:47:35.697Z,,,,,,,,,,,,,,,,,15,,,,,,,,,,,,,,709.591000047687,,response,,,,7,E,,,,,,Space,keypress(Space),,,,lyrical,,,,Greg --------- ---------- - --- ------- -- --- ------------<br>----- -- -------- ------- ---- ------ - -------- ---- -----<br>--- ------- ---- -- --- -------- --- - ----- ------ ---- --<br>-------- --- -------- -------- --- -------- ---- -- ----- -<br>-------- ---- --- ---------- --------- -- ------- ------ -<br>--------- ----- -----,188777.5,188776.70000004768,188050.504,188051.70000004768,188067.109,188783.942,,0,Greg
screen,html.Screen,2_3_1_0_1_1,2022-02-02T17:47:35.913Z,,,,,,,,,,,,,,,,,15,,,,,,,,,,,,,,209.05799999999,,response,,,,7,E,,,,,,Space,keypress(Space),,,,lyrical,,,,"---- Anderson, ---------- - --- ------- -- --- ------------<br>----- -- -------- ------- ---- ------ - -------- ---- -----<br>--- ------- ---- -- --- -------- --- - ----- ------ ---- --<br>-------- --- -------- -------- --- -------- ---- -- ----- -<br>-------- ---- --- ---------- --------- -- ------- ------ -<br>--------- ----- -----",188993.5,188993,188767.412,188777.70000004768,188783.942,189000.712,,1,"Anderson,"
screen,html.Screen,2_3_1_0_1_2,2022-02-02T17:47:36.184Z,,,,,,,,,,,,,,,,,15,,,,,,,,,,,,,,263.0880000119214,,response,,,,7,E,,,,,,Space,keypress(Space),,,,lyrical,,,,---- --------- considered - --- ------- -- --- ------------<br>----- -- -------- ------- ---- ------ - -------- ---- -----<br>--- ------- ---- -- --- -------- --- - ----- ------ ---- --<br>-------- --- -------- -------- --- -------- ---- -- ----- -<br>-------- ---- --- ---------- --------- -- ------- ------ -<br>--------- ----- -----,189264.5,189263.80000001192,188984.067,188993.60000002384,189000.712,189267.452,,2,considered
screen,html.Screen,2_3_1_0_1_3,2022-02-02T17:47:36.379Z,,,,,,,,,,,,,,,,,15,,,,,,,,,,,,,,191.64800002385164,,response,,,,7,E,,,,,,Space,keypress(Space),,,,lyrical,,,,---- --------- ---------- a --- ------- -- --- ------------<br>----- -- -------- ------- ---- ------ - -------- ---- -----<br>--- ------- ---- -- --- -------- --- - ----- ------ ---- --<br>-------- --- -------- -------- --- -------- ---- -- ----- -<br>-------- ---- --- ---------- --------- -- ------- ------ -<br>--------- ----- -----,189459.90000003576,189459.10000002384,189250.967,189264.60000002384,189267.452,189467.532,,3,a
screen,html.Screen,2_3_1_0_1_4,2022-02-02T17:47:36.556Z,,,,,,,,,,,,,,,,,15,,,,,,,,,,,,,,168.1680000476772,,response,,,,7,E,,,,,,Space,keypress(Space),,,,lyrical,,,,---- --------- ---------- - key ------- -- --- ------------<br>----- -- -------- ------- ---- ------ - -------- ---- -----<br>--- ------- ---- -- --- -------- --- - ----- ------ ---- --<br>-------- --- -------- -------- --- -------- ---- -- ----- -<br>-------- ---- --- ---------- --------- -- ------- ------ -<br>--------- ----- -----,189636.40000003576,189635.70000004768,189451.017,189460.10000002384,189467.532,189651.137,,4,key
screen,html.Screen,2_3_1_0_1_5,2022-02-02T17:47:36.738Z,,,,,,,,,,,,,,,,,15,,,,,,,,,,,,,,166.56300004769582,,response,,,,7,E,,,,,,Space,keypress(Space),,,,lyrical,,,,---- --------- ---------- - --- witness -- --- ------------<br>----- -- -------- ------- ---- ------ - -------- ---- -----<br>--- ------- ---- -- --- -------- --- - ----- ------ ---- --<br>-------- --- -------- -------- --- -------- ---- -- ----- -<br>-------- ---- --- ---------- --------- -- ------- ------ -<br>--------- ----- -----,189818.40000003576,189817.70000004768,189634.37,189636.70000004768,189651.137,189834.432,,5,witness
screen,html.Screen,2_3_1_0_1_6,2022-02-02T17:47:36.893Z,,,,,,,,,,,,,,,,,15,,,,,,,,,,,,,,138.86800001192023,,response,,,,7,E,,,,,,Space,keypress(Space),,,,lyrical,,,,---- --------- ---------- - --- ------- by --- ------------<br>----- -- -------- ------- ---- ------ - -------- ---- -----<br>--- ------- ---- -- --- -------- --- - ----- ------ ---- --<br>-------- --- -------- -------- --- -------- ---- -- ----- -<br>-------- ---- --- ---------- --------- -- ------- ------ -<br>--------- ----- -----,189974.10000002384,189973.30000001192,189817.699,189818.60000002384,189834.432,189984.488,,6,by
screen,html.Screen,2_3_1_0_1_7,2022-02-02T17:47:37.110Z,,,,,,,,,,,,,,,,,15,,,,,,,,,,,,,,205.81200001190882,,response,,,,7,E,,,,,,Space,keypress(Space),,,,lyrical,,,,---- --------- ---------- - --- ------- -- the ------------<br>----- -- -------- ------- ---- ------ - -------- ---- -----<br>--- ------- ---- -- --- -------- --- - ----- ------ ---- --<br>-------- --- -------- -------- --- -------- ---- -- ----- -<br>-------- ---- --- ---------- --------- -- ------- ------ -<br>--------- ----- -----,190191,190190.30000001192,189967.758,189974.30000001192,189984.488,190201.372,,7,the
screen,html.Screen,2_3_1_0_1_8,2022-02-02T17:47:37.272Z,,,,,,,,,,,,,,,,,15,,,,,,,,,,,,,,150.22800002383883,,response,,,,7,E,,,,,,Space,keypress(Space),,,,lyrical,,,,"---- --------- ---------- - --- ------- -- --- prosecution,<br>----- -- -------- ------- ---- ------ - -------- ---- -----<br>--- ------- ---- -- --- -------- --- - ----- ------ ---- --<br>-------- --- -------- -------- --- -------- ---- -- ----- -<br>-------- ---- --- ---------- --------- -- ------- ------ -<br>--------- ----- -----",190352.30000001192,190351.60000002384,190184.564,190191.20000004768,190201.372,190368.094,,8,"prosecution,"
screen,html.Screen,2_3_1_0_1_9,2022-02-02T17:47:37.854Z,,,,,,,,,,,,,,,,,15,,,,,,,,,,,,,,565.3060000357509,,response,,,,7,E,,,,,,Space,keypress(Space),,,,lyrical,,,,---- --------- ---------- - --- ------- -- --- ------------<br>vowed -- -------- ------- ---- ------ - -------- ---- -----<br>--- ------- ---- -- --- -------- --- - ----- ------ ---- --<br>-------- --- -------- -------- --- -------- ---- -- ----- -<br>-------- ---- --- ---------- --------- -- ------- ------ -<br>--------- ----- -----,190934.20000004768,190933.40000003576,190351.205,190352.5,190368.094,190951.482,,9,vowed
screen,html.Screen,2_3_1_0_1_10,2022-02-02T17:47:38.093Z,,,,,,,,,,,,,,,,,15,,,,,,,,,,,,,,221.81800001193187,,response,,,,7,E,,,,,,Space,keypress(Space),,,,lyrical,,,,---- --------- ---------- - --- ------- -- --- ------------<br>----- he -------- ------- ---- ------ - -------- ---- -----<br>--- ------- ---- -- --- -------- --- - ----- ------ ---- --<br>-------- --- -------- -------- --- -------- ---- -- ----- -<br>-------- ---- --- ---------- --------- -- ------- ------ -<br>--------- ----- -----,191174,191173.30000001192,190934.85,190934.30000001192,190951.482,191185.146,,10,he
screen,html.Screen,2_3_1_0_1_11,2022-02-02T17:47:38.277Z,,,,,,,,,,,,,,,,,15,,,,,,,,,,,,,,171.25400003575487,,response,,,,7,E,,,,,,Space,keypress(Space),,,,lyrical,,,,---- --------- ---------- - --- ------- -- --- ------------<br>----- -- wouldn't ------- ---- ------ - -------- ---- -----<br>--- ------- ---- -- --- -------- --- - ----- ------ ---- --<br>-------- --- -------- -------- --- -------- ---- -- ----- -<br>-------- ---- --- ---------- --------- -- ------- ------ -<br>--------- ----- -----,191357.10000002384,191356.40000003576,191168.36,191174.10000002384,191185.146,191368.159,,11,wouldn't
screen,html.Screen,2_3_1_0_1_12,2022-02-02T17:47:38.465Z,,,,,,,,,,,,,,,,,15,,,,,,,,,,,,,,176.94100002382766,,response,,,,7,E,,,,,,Space,keypress(Space),,,,lyrical,,,,---- --------- ---------- - --- ------- -- --- ------------<br>----- -- -------- testify ---- ------ - -------- ---- -----<br>--- ------- ---- -- --- -------- --- - ----- ------ ---- --<br>-------- --- -------- -------- --- -------- ---- -- ----- -<br>-------- ---- --- ---------- --------- -- ------- ------ -<br>--------- ----- -----,191545.90000003576,191545.10000002384,191351.649,191357.30000001192,191368.159,191551.639,,12,testify
screen,html.Screen,2_3_1_0_1_13,2022-02-02T17:47:38.674Z,,,,,,,,,,,,,,,,,15,,,,,,,,,,,,,,201.96100002384628,,response,,,,7,E,,,,,,Space,keypress(Space),,,,lyrical,,,,---- --------- ---------- - --- ------- -- --- ------------<br>----- -- -------- ------- when ------ - -------- ---- -----<br>--- ------- ---- -- --- -------- --- - ----- ------ ---- --<br>-------- --- -------- -------- --- -------- ---- -- ----- -<br>-------- ---- --- ---------- --------- -- ------- ------ -<br>--------- ----- -----,191754.40000003576,191753.60000002384,191535.249,191546,191551.639,191768.543,,13,when
screen,html.Screen,2_3_1_0_1_14,2022-02-02T17:47:38.869Z,,,,,,,,,,,,,,,,,15,,,,,,,,,,,,,,179.95699999999488,,response,,,,7,E,,,,,,Space,keypress(Space),,,,lyrical,,,,---- --------- ---------- - --- ------- -- --- ------------<br>----- -- -------- ------- ---- served - -------- ---- -----<br>--- ------- ---- -- --- -------- --- - ----- ------ ---- --<br>-------- --- -------- -------- --- -------- ---- -- ----- -<br>-------- ---- --- ---------- --------- -- ------- ------ -<br>--------- ----- -----,191949.30000001192,191948.5,191751.907,191754.60000002384,191768.543,191951.856,,14,served
screen,html.Screen,2_3_1_0_1_15,2022-02-02T17:47:39.082Z,,,,,,,,,,,,,,,,,15,,,,,,,,,,,,,,209.64400000000023,,response,,,,7,E,,,,,,Space,keypress(Space),,,,lyrical,,,,---- --------- ---------- - --- ------- -- --- ------------<br>----- -- -------- ------- ---- ------ a -------- ---- -----<br>--- ------- ---- -- --- -------- --- - ----- ------ ---- --<br>-------- --- -------- -------- --- -------- ---- -- ----- -<br>-------- ---- --- ---------- --------- -- ------- ------ -<br>--------- ----- -----,192162.30000001192,192161.5,191935.4,191949.40000003576,191951.856,192168.582,,15,a
screen,html.Screen,2_3_1_0_1_16,2022-02-02T17:47:39.322Z,,,,,,,,,,,,,,,,,15,,,,,,,,,,,,,,233.8180000357679,,response,,,,7,E,,,,,,Space,keypress(Space),,,,lyrical,,,,---- --------- ---------- - --- ------- -- --- ------------<br>----- -- -------- ------- ---- ------ - subpoena ---- -----<br>--- ------- ---- -- --- -------- --- - ----- ------ ---- --<br>-------- --- -------- -------- --- -------- ---- -- ----- -<br>-------- ---- --- ---------- --------- -- ------- ------ -<br>--------- ----- -----,192403,192402.40000003576,192152.08,192162.5,192168.582,192418.88,,16,subpoena
screen,html.Screen,2_3_1_0_1_17,2022-02-02T17:47:39.515Z,,,,,,,,,,,,,,,,,15,,,,,,,,,,,,,,175.52000003575813,,response,,,,7,E,,,,,,Space,keypress(Space),,,,lyrical,,,,---- --------- ---------- - --- ------- -- --- ------------<br>----- -- -------- ------- ---- ------ - -------- last -----<br>--- ------- ---- -- --- -------- --- - ----- ------ ---- --<br>-------- --- -------- -------- --- -------- ---- -- ----- -<br>-------- ---- --- ---------- --------- -- ------- ------ -<br>--------- ----- -----,192595.10000002384,192594.40000003576,192402.015,192403.20000004768,192418.88,192602.186,,17,last
screen,html.Screen,2_3_1_0_1_18,2022-02-02T17:47:39.913Z,,,,,,,,,,,,,,,,,15,,,,,,,,,,,,,,391.4140000238549,,response,,,,7,E,,,,,,Space,keypress(Space),,,,lyrical,,,,---- --------- ---------- - --- ------- -- --- ------------<br>----- -- -------- ------- ---- ------ - -------- ---- week.<br>--- ------- ---- -- --- -------- --- - ----- ------ ---- --<br>-------- --- -------- -------- --- -------- ---- -- ----- -<br>-------- ---- --- ---------- --------- -- ------- ------ -<br>--------- ----- -----,192994,192993.60000002384,192585.445,192595.30000001192,192602.186,193002.099,,18,week.
screen,html.Screen,2_3_1_0_1_19,2022-02-02T17:47:40.284Z,,,,,,,,,,,,,,,,,15,,,,,,,,,,,,,,362.2010000119335,,response,,,,7,E,,,,,,Space,keypress(Space),,,,lyrical,,,,---- --------- ---------- - --- ------- -- --- ------------<br>----- -- -------- ------- ---- ------ - -------- ---- -----<br>His ------- ---- -- --- -------- --- - ----- ------ ---- --<br>-------- --- -------- -------- --- -------- ---- -- ----- -<br>-------- ---- --- ---------- --------- -- ------- ------ -<br>--------- ----- -----,193364.80000001192,193364.30000001192,192985.487,192994.20000004768,193002.099,193368.927,,19,His
screen,html.Screen,2_3_1_0_1_20,2022-02-02T17:47:40.450Z,,,,,,,,,,,,,,,,,15,,,,,,,,,,,,,,161.47300003576674,,response,,,,7,E,,,,,,Space,keypress(Space),,,,lyrical,,,,---- --------- ---------- - --- ------- -- --- ------------<br>----- -- -------- ------- ---- ------ - -------- ---- -----<br>--- lawyers ---- -- --- -------- --- - ----- ------ ---- --<br>-------- --- -------- -------- --- -------- ---- -- ----- -<br>-------- ---- --- ---------- --------- -- ------- ------ -<br>--------- ----- -----,193530.90000003576,193530.40000003576,193352.289,193365,193368.927,193535.74,,20,lawyers
screen,html.Screen,2_3_1_0_1_21,2022-02-02T17:47:40.630Z,,,,,,,,,,,,,,,,,15,,,,,,,,,,,,,,174.2600000000093,,response,,,,7,E,,,,,,Space,keypress(Space),,,,lyrical,,,,---- --------- ---------- - --- ------- -- --- ------------<br>----- -- -------- ------- ---- ------ - -------- ---- -----<br>--- ------- said -- --- -------- --- - ----- ------ ---- --<br>-------- --- -------- -------- --- -------- ---- -- ----- -<br>-------- ---- --- ---------- --------- -- ------- ------ -<br>--------- ----- -----,193710.5,193710,193519.124,193531,193535.74,193719.135,,21,said
screen,html.Screen,2_3_1_0_1_22,2022-02-02T17:47:40.800Z,,,,,,,,,,,,,,,,,15,,,,,,,,,,,,,,160.76500003575347,,response,,,,7,E,,,,,,Space,keypress(Space),,,,lyrical,,,,---- --------- ---------- - --- ------- -- --- ------------<br>----- -- -------- ------- ---- ------ - -------- ---- -----<br>--- ------- ---- he --- -------- --- - ----- ------ ---- --<br>-------- --- -------- -------- --- -------- ---- -- ----- -<br>-------- ---- --- ---------- --------- -- ------- ------ -<br>--------- ----- -----,193880.30000001192,193879.90000003576,193702.509,193710.60000002384,193719.135,193885.846,,22,he
screen,html.Screen,2_3_1_0_1_23,2022-02-02T17:47:40.995Z,,,,,,,,,,,,,,,,,15,,,,,,,,,,,,,,189.85400004769326,,response,,,,7,E,,,,,,Space,keypress(Space),,,,lyrical,,,,---- --------- ---------- - --- ------- -- --- ------------<br>----- -- -------- ------- ---- ------ - -------- ---- -----<br>--- ------- ---- -- was -------- --- - ----- ------ ---- --<br>-------- --- -------- -------- --- -------- ---- -- ----- -<br>-------- ---- --- ---------- --------- -- ------- ------ -<br>--------- ----- -----,194076.10000002384,194075.70000004768,193869.272,193880.40000003576,193885.846,194085.911,,23,was
screen,html.Screen,2_3_1_0_1_24,2022-02-02T17:47:41.172Z,,,,,,,,,,,,,,,,,15,,,,,,,,,,,,,,165.98900003577,,response,,,,7,E,,,,,,Space,keypress(Space),,,,lyrical,,,,---- --------- ---------- - --- ------- -- --- ------------<br>----- -- -------- ------- ---- ------ - -------- ---- -----<br>--- ------- ---- -- --- prepared --- - ----- ------ ---- --<br>-------- --- -------- -------- --- -------- ---- -- ----- -<br>-------- ---- --- ---------- --------- -- ------- ------ -<br>--------- ----- -----,194252.40000003576,194251.90000003576,194069.22,194076.20000004768,194085.911,194269.336,,24,prepared
screen,html.Screen,2_3_1_0_1_25,2022-02-02T17:47:41.422Z,,,,,,,,,,,,,,,,,15,,,,,,,,,,,,,,232.66399999998976,,response,,,,7,E,,,,,,Space,keypress(Space),,,,lyrical,,,,---- --------- ---------- - --- ------- -- --- ------------<br>----- -- -------- ------- ---- ------ - -------- ---- -----<br>--- ------- ---- -- --- -------- for - ----- ------ ---- --<br>-------- --- -------- -------- --- -------- ---- -- ----- -<br>-------- ---- --- ---------- --------- -- ------- ------ -<br>--------- ----- -----,194502.40000003576,194502,194252.651,194252.70000004768,194269.336,194519.408,,25,for
screen,html.Screen,2_3_1_0_1_26,2022-02-02T17:47:41.544Z,,,,,,,,,,,,,,,,,15,,,,,,,,,,,,,,104.7920000476879,,response,,,,7,E,,,,,,Space,keypress(Space),,,,lyrical,,,,---- --------- ---------- - --- ------- -- --- ------------<br>----- -- -------- ------- ---- ------ - -------- ---- -----<br>--- ------- ---- -- --- -------- --- a ----- ------ ---- --<br>-------- --- -------- -------- --- -------- ---- -- ----- -<br>-------- ---- --- ---------- --------- -- ------- ------ -<br>--------- ----- -----,194624.60000002384,194624.20000004768,194502.716,194502.60000002384,194519.408,194636.117,,26,a
screen,html.Screen,2_3_1_0_1_27,2022-02-02T17:47:41.792Z,,,,,,,,,,,,,,,,,15,,,,,,,,,,,,,,236.38300000000163,,response,,,,7,E,,,,,,Space,keypress(Space),,,,lyrical,,,,---- --------- ---------- - --- ------- -- --- ------------<br>----- -- -------- ------- ---- ------ - -------- ---- -----<br>--- ------- ---- -- --- -------- --- - third ------ ---- --<br>-------- --- -------- -------- --- -------- ---- -- ----- -<br>-------- ---- --- ---------- --------- -- ------- ------ -<br>--------- ----- -----,194872.90000003576,194872.5,194619.454,194624.70000004768,194636.117,194886.284,,27,third
screen,html.Screen,2_3_1_0_1_28,2022-02-02T17:47:42.221Z,,,,,,,,,,,,,,,,,15,,,,,,,,,,,,,,415.2159999999858,,response,,,,7,E,,,,,,Space,keypress(Space),,,,lyrical,,,,---- --------- ---------- - --- ------- -- --- ------------<br>----- -- -------- ------- ---- ------ - -------- ---- -----<br>--- ------- ---- -- --- -------- --- - ----- prison ---- --<br>-------- --- -------- -------- --- -------- ---- -- ----- -<br>-------- ---- --- ---------- --------- -- ------- ------ -<br>--------- ----- -----,195302.10000002384,195301.5,194869.523,194873,194886.284,195303.055,,28,prison
screen,html.Screen,2_3_1_0_1_29,2022-02-02T17:47:42.397Z,,,,,,,,,,,,,,,,,15,,,,,,,,,,,,,,173.44500000000698,,response,,,,7,E,,,,,,Space,keypress(Space),,,,lyrical,,,,---- --------- ---------- - --- ------- -- --- ------------<br>----- -- -------- ------- ---- ------ - -------- ---- -----<br>--- ------- ---- -- --- -------- --- - ----- ------ stay --<br>-------- --- -------- -------- --- -------- ---- -- ----- -<br>-------- ---- --- ---------- --------- -- ------- ------ -<br>--------- ----- -----,195477.20000004768,195476.5,195286.371,195302.20000004768,195303.055,195486.667,,29,stay
screen,html.Screen,2_3_1_0_1_30,2022-02-02T17:47:42.589Z,,,,,,,,,,,,,,,,,15,,,,,,,,,,,,,,182.033000047697,,response,,,,7,E,,,,,,Space,keypress(Space),,,,lyrical,,,,---- --------- ---------- - --- ------- -- --- ------------<br>----- -- -------- ------- ---- ------ - -------- ---- -----<br>--- ------- ---- -- --- -------- --- - ----- ------ ---- to<br>-------- --- -------- -------- --- -------- ---- -- ----- -<br>-------- ---- --- ---------- --------- -- ------- ------ -<br>--------- ----- -----,195669.40000003576,195668.70000004768,195469.98,195477.40000003576,195486.667,195686.763,,30,to
screen,html.Screen,2_3_1_0_1_31,2022-02-02T17:47:42.956Z,,,,,,,,,,,,,,,,,15,,,,,,,,,,,,,,348.83700002383557,,response,,,,7,E,,,,,,Space,keypress(Space),,,,lyrical,,,,---- --------- ---------- - --- ------- -- --- ------------<br>----- -- -------- ------- ---- ------ - -------- ---- -----<br>--- ------- ---- -- --- -------- --- - ----- ------ ---- --<br>maintain --- -------- -------- --- -------- ---- -- ----- -<br>-------- ---- --- ---------- --------- -- ------- ------ -<br>--------- ----- -----,196036.40000003576,196035.60000002384,195669.954,195669.60000002384,195686.763,196053.568,,31,maintain
screen,html.Screen,2_3_1_0_1_32,2022-02-02T17:47:43.133Z,,,,,,,,,,,,,,,,,15,,,,,,,,,,,,,,158.83200003576349,,response,,,,7,E,,,,,,Space,keypress(Space),,,,lyrical,,,,---- --------- ---------- - --- ------- -- --- ------------<br>----- -- -------- ------- ---- ------ - -------- ---- -----<br>--- ------- ---- -- --- -------- --- - ----- ------ ---- --<br>-------- his -------- -------- --- -------- ---- -- ----- -<br>-------- ---- --- ---------- --------- -- ------- ------ -<br>--------- ----- -----,196213.20000004768,196212.40000003576,196036.727,196036.60000002384,196053.568,196220.195,,32,his
screen,html.Screen,2_3_1_0_1_33,2022-02-02T17:47:43.314Z,,,,,,,,,,,,,,,,,15,,,,,,,,,,,,,,173.90500002383487,,response,,,,7,E,,,,,,Space,keypress(Space),,,,lyrical,,,,---- --------- ---------- - --- ------- -- --- ------------<br>----- -- -------- ------- ---- ------ - -------- ---- -----<br>--- ------- ---- -- --- -------- --- - ----- ------ ---- --<br>-------- --- silence. -------- --- -------- ---- -- ----- -<br>-------- ---- --- ---------- --------- -- ------- ------ -<br>--------- ----- -----,196394.90000003576,196394.10000002384,196203.624,196213.40000003576,196220.195,196403.713,,33,silence.
screen,html.Screen,2_3_1_0_1_34,2022-02-02T17:47:43.500Z,,,,,,,,,,,,,,,,,15,,,,,,,,,,,,,,175.78700000001118,,response,,,,7,E,,,,,,Space,keypress(Space),,,,lyrical,,,,---- --------- ---------- - --- ------- -- --- ------------<br>----- -- -------- ------- ---- ------ - -------- ---- -----<br>--- ------- ---- -- --- -------- --- - ----- ------ ---- --<br>-------- --- -------- Anderson --- -------- ---- -- ----- -<br>-------- ---- --- ---------- --------- -- ------- ------ -<br>--------- ----- -----,196580.30000001192,196579.5,196386.987,196395.10000002384,196403.713,196586.998,,34,Anderson
screen,html.Screen,2_3_1_0_1_35,2022-02-02T17:47:44.084Z,,,,,,,,,,,,,,,,,15,,,,,,,,,,,,,,576.4020000357705,,response,,,,7,E,,,,,,Space,keypress(Space),,,,lyrical,,,,---- --------- ---------- - --- ------- -- --- ------------<br>----- -- -------- ------- ---- ------ - -------- ---- -----<br>--- ------- ---- -- --- -------- --- - ----- ------ ---- --<br>-------- --- -------- -------- was -------- ---- -- ----- -<br>-------- ---- --- ---------- --------- -- ------- ------ -<br>--------- ----- -----,197164.10000002384,197163.40000003576,196570.401,196580.5,196586.998,197170.575,,35,was
screen,html.Screen,2_3_1_0_1_36,2022-02-02T17:47:44.244Z,,,,,,,,,,,,,,,,,15,,,,,,,,,,,,,,153.52500002383022,,response,,,,7,E,,,,,,Space,keypress(Space),,,,lyrical,,,,---- --------- ---------- - --- ------- -- --- ------------<br>----- -- -------- ------- ---- ------ - -------- ---- -----<br>--- ------- ---- -- --- -------- --- - ----- ------ ---- --<br>-------- --- -------- -------- --- released ---- -- ----- -<br>-------- ---- --- ---------- --------- -- ------- ------ -<br>--------- ----- -----,197324.5,197324.10000002384,197153.982,197164.30000001192,197170.575,197337.311,,36,released
screen,html.Screen,2_3_1_0_1_37,2022-02-02T17:47:44.620Z,,,,,,,,,,,,,,,,,15,,,,,,,,,,,,,,362.2890000238549,,response,,,,7,E,,,,,,Space,keypress(Space),,,,lyrical,,,,---- --------- ---------- - --- ------- -- --- ------------<br>----- -- -------- ------- ---- ------ - -------- ---- -----<br>--- ------- ---- -- --- -------- --- - ----- ------ ---- --<br>-------- --- -------- -------- --- -------- July -- ----- -<br>-------- ---- --- ---------- --------- -- ------- ------ -<br>--------- ----- -----,197700.30000001192,197699.60000002384,197320.565,197324.60000002384,197337.311,197704.058,,37,July
screen,html.Screen,2_3_1_0_1_38,2022-02-02T17:47:44.944Z,,,,,,,,,,,,,,,,,15,,,,,,,,,,,,,,319.44200000001,,response,,,,7,E,,,,,,Space,keypress(Space),,,,lyrical,,,,---- --------- ---------- - --- ------- -- --- ------------<br>----- -- -------- ------- ---- ------ - -------- ---- -----<br>--- ------- ---- -- --- -------- --- - ----- ------ ---- --<br>-------- --- -------- -------- --- -------- ---- 20 ----- -<br>-------- ---- --- ---------- --------- -- ------- ------ -<br>--------- ----- -----,198024.30000001192,198023.5,197687.498,197700.5,197704.058,198037.669,,38,20
screen,html.Screen,2_3_1_0_1_39,2022-02-02T17:47:45.261Z,,,,,,,,,,,,,,,,,15,,,,,,,,,,,,,,303.5310000476893,,response,,,,7,E,,,,,,Space,keypress(Space),,,,lyrical,,,,---- --------- ---------- - --- ------- -- --- ------------<br>----- -- -------- ------- ---- ------ - -------- ---- -----<br>--- ------- ---- -- --- -------- --- - ----- ------ ---- --<br>-------- --- -------- -------- --- -------- ---- -- after -<br>-------- ---- --- ---------- --------- -- ------- ------ -<br>--------- ----- -----,198342,198341.20000004768,198020.963,198024.60000002384,198037.669,198354.388,,39,after
screen,html.Screen,2_3_1_0_1_40,2022-02-02T17:47:45.952Z,,,,,,,,,,,,,,,,,15,,,,,,,,,,,,,,677.4120000119146,,response,,,,7,E,,,,,,Space,keypress(Space),,,,lyrical,,,,---- --------- ---------- - --- ------- -- --- ------------<br>----- -- -------- ------- ---- ------ - -------- ---- -----<br>--- ------- ---- -- --- -------- --- - ----- ------ ---- --<br>-------- --- -------- -------- --- -------- ---- -- ----- a<br>-------- ---- --- ---------- --------- -- ------- ------ -<br>--------- ----- -----,199032.5,199031.80000001192,198337.739,198342.20000004768,198354.388,199037.911,,40,a
