sender,sender_type,sender_id,timestamp,meta,,Blues,Classical,Country,Dance,Electronic,Folk,Gospel,Hip-Hop,Jazz,Latin,Musical/Film,New-age,Pop,Prolific_id,Provo_ID,R&B,Rap,Reggae,Religious,Rock,Soul,Swing,Traditional,age,artist_name,correct,correctResponse,distraction,duration,education,ended_on,familiarity,gender,headphone_check_performance,item,list,music_frequency,offensiveness,pleasantness,position_correct,preference,response,response_action,snippet_file,song_name,song_rating,sound,stimulus_1,stimulus_2,stimulus_3,text,time_commit,time_end,time_render,time_run,time_show,time_switch,url,word,word_ID
Prolific ID,html.Form,0,2022-02-17T16:45:40.011Z,"{""labjs_version"":""20.2.2"",""labjs_build"":{""flavor"":""production"",""commit"":""a25486e0c714a0ae2ce03ff94b7bb6896854dcfa""},""location"":""https://run.pavlovia.org/mvasilev/prolific2_music_f/"",""userAgent"":""Mozilla/5.0 (Windows NT 10.0; Win64; x64) AppleWebKit/537.36 (KHTML, like Gecko) Chrome/98.0.4758.102 Safari/537.36"",""platform"":""Win32"",""language"":""en-GB"",""locale"":""en-GB"",""timeZone"":""Europe/London"",""timezoneOffset"":0,""screen_width"":1366,""screen_height"":768,""scroll_width"":1366,""scroll_height"":609,""window_innerWidth"":1366,""window_innerHeight"":657,""devicePixelRatio"":1}",,,,,,,,,,,,,,,608fdbc4196e5708ed3f291a,,,,,,,,,,,,,,,3790.601999995528,,form submission,,,,,,,,,,,,,,,,,,,,,23309.89999999851,23309.19999999553,19484.515,19492.29999999702,19518.598,23318.414,{},,
Introduction,html.Screen,1_0,2022-02-17T16:45:47.049Z,,,,,,,,,,,,,,,,,,,,,,,,,,,,,,,7027.085999999999,,response,,,,,,,,,,,continue,click button,,,,,,,,,30347.89999999851,30345.5,23301.751,23310.29999999702,23318.414,30351.426,,,
Volume calibration,html.Screen,1_1,2022-02-17T16:46:35.035Z,,,,,,,,,,,,,,,,,,,,,,,,,,,,,,,47979.37399999702,,response,,,,,,,,,,,continue,click button,,,,,,,,,78334.10000000149,78330.79999999702,30334.818,30348,30351.426,78332.477,,,
Task instructions,html.Screen,1_2,2022-02-17T16:46:55.277Z,,,,,,,,,,,,,,,,,,,,,,,,,,,,,,,20242.62300000149,,response,,,,,,,,,,,continue,click button,,,,,,,,,98575.69999999553,98575.10000000149,78315.824,78334.10000000149,78332.477,98581.536,,,
Sounds,html.Screen,1_3_0_0,2022-02-17T16:46:59.521Z,,,,,,,,,,,,,,,,,,,,,,,,,,,,,,,4249.845000000001,,timeout,,,,,,,,,1,,,,,,,,S,I,O,,102820.19999999553,102814.749,98564.943,98575.89999999851,98581.536,102831.381,,,
Judgement,html.Screen,1_3_0_1,2022-02-17T16:47:01.090Z,,,,,,,,,,,,,,,,,,,,,,,,,,,,true,1,,1556.9189999970258,,response,,,,,,,,,1,,1,click #choice-1,,,,,S,I,O,,104389,104388.29999999702,102814.749,102820.69999999553,102831.381,104397.919,,,
Trial,flow.Sequence,1_3_0,2022-02-17T16:47:01.090Z,,,,,,,,,,,,,,,,,,,,,,,,,,,,,,,5806.763999997027,,completion,,,,,,,,,1,,,,,,,,S,I,O,,104389.29999999702,104388.29999999702,98564.943,98575.89999999851,98581.536,104397.919,,,
Sounds,html.Screen,1_3_1_0,2022-02-17T16:47:05.333Z,,,,,,,,,,,,,,,,,,,,,,,,,,,,,,,4249.868000000002,,timeout,,,,,,,,,2,,,,,,,,O,S,I,,108632.10000000149,108631.13,104381.307,104389.39999999851,104397.919,108647.787,,,
Judgement,html.Screen,1_3_1_1,2022-02-17T16:47:06.375Z,,,,,,,,,,,,,,,,,,,,,,,,,,,,true,2,,1025.1129999985133,,response,,,,,,,,,2,,2,click #choice-2,,,,,O,S,I,,109673.79999999702,109672.89999999851,108631.13,108632.39999999851,108647.787,109697.676,,,
Trial,flow.Sequence,1_3_1,2022-02-17T16:47:06.375Z,,,,,,,,,,,,,,,,,,,,,,,,,,,,,,,5274.9809999985155,,completion,,,,,,,,,2,,,,,,,,O,S,I,,109674.10000000149,109672.89999999851,104381.307,104389.29999999702,104397.919,109697.676,,,
Sounds,html.Screen,1_3_2_0,2022-02-17T16:47:10.633Z,,,,,,,,,,,,,,,,,,,,,,,,,,,,,,,4249.852999999988,,timeout,,,,,,,,,3,,,,,,,,I,O,S,,113932,113930.873,109681.016,109674.39999999851,109697.676,113947.529,,,
Judgement,html.Screen,1_3_2_1,2022-02-17T16:47:11.454Z,,,,,,,,,,,,,,,,,,,,,,,,,,,,true,3,,804.6709999955347,,response,,,,,,,,,3,,3,click #choice-3,,,,,I,O,S,,114753,114752.19999999553,113930.873,113932.29999999702,113947.529,114764.089,,,
Trial,flow.Sequence,1_3_2,2022-02-17T16:47:11.454Z,,,,,,,,,,,,,,,,,,,,,,,,,,,,,,,5054.523999995523,,completion,,,,,,,,,3,,,,,,,,I,O,S,,114753.29999999702,114752.19999999553,109681.016,109674.19999999553,109697.676,114764.089,,,
Sounds,html.Screen,1_3_3_0,2022-02-17T16:47:15.699Z,,,,,,,,,,,,,,,,,,,,,,,,,,,,,,,4249.8659999999945,,timeout,,,,,,,,,2,,,,,,,,I,S,O,,118998.5,118997.372,114747.443,114753.39999999851,114764.089,119013.955,,,
Judgement,html.Screen,1_3_3_1,2022-02-17T16:47:16.328Z,,,,,,,,,,,,,,,,,,,,,,,,,,,,true,2,,612.2449999955279,,response,,,,,,,,,2,,2,click #choice-2,,,,,I,S,O,,119626.89999999851,119626.19999999553,118997.372,118998.69999999553,119013.955,119630.868,,,
Trial,flow.Sequence,1_3_3,2022-02-17T16:47:16.328Z,,,,,,,,,,,,,,,,,,,,,,,,,,,,,,,4862.110999995522,,completion,,,,,,,,,2,,,,,,,,I,S,O,,119627.10000000149,119626.19999999553,114747.443,114753.29999999702,114764.089,119630.868,,,
Sounds,html.Screen,1_3_4_0,2022-02-17T16:47:20.566Z,,,,,,,,,,,,,,,,,,,,,,,,,,,,,,,4249.5,,timeout,,,,,,,,,1,,,,,,,,S,O,I,,123864.79999999702,123863.824,119613.877,119627.29999999702,119630.868,123880.368,,,
Judgement,html.Screen,1_3_4_1,2022-02-17T16:47:21.632Z,,,,,,,,,,,,,,,,,,,,,,,,,,,,true,1,,1049.4319999970176,,response,,,,,,,,,1,,1,click #choice-1,,,,,S,O,I,,124931,124929.79999999702,123863.824,123865.10000000149,123880.368,124930.289,,,
Trial,flow.Sequence,1_3_4,2022-02-17T16:47:21.632Z,,,,,,,,,,,,,,,,,,,,,,,,,,,,,,,5298.931999997018,,completion,,,,,,,,,1,,,,,,,,S,O,I,,124931.19999999553,124929.79999999702,119613.877,119627.19999999553,119630.868,124930.289,,,
Sounds,html.Screen,1_3_5_0,2022-02-17T16:47:25.866Z,,,,,,,,,,,,,,,,,,,,,,,,,,,,,,,4249.830999999991,,timeout,,,,,,,,,3,,,,,,,,O,I,S,,129164.5,129163.511,124913.608,124931.39999999851,124930.289,129180.12,,,
Judgement,html.Screen,1_3_5_1,2022-02-17T16:47:26.476Z,,,,,,,,,,,,,,,,,,,,,,,,,,,,true,3,,594.0799999955343,,response,,,,,,,,,3,,3,click #choice-3,,,,,O,I,S,,129774.89999999851,129774.19999999553,129163.511,129164.79999999702,129180.12,129780.051,,,
Trial,flow.Sequence,1_3_5,2022-02-17T16:47:26.476Z,,,,,,,,,,,,,,,,,,,,,,,,,,,,,,,4843.910999995525,,completion,,,,,,,,,3,,,,,,,,O,I,S,,129775.10000000149,129774.19999999553,124913.608,124931.29999999702,124930.289,129780.051,,,
Task,flow.Loop,1_3,2022-02-17T16:47:26.481Z,,,,,,,,,,,,,,,,,,,,,,,,,,,,,,,31192.663999995537,,completion,,,1,,,,,,,,,,,,,,,,,,129779.69999999553,129774.19999999553,98564.943,98575.89999999851,98581.536,129780.051,,,
Trap,html.Screen,1_4,2022-02-17T16:47:26.483Z,,,,,,,,,,,,,,,,,,,,,,,,,,,,,,,NaN,,skipped,,,,,,,,,,,,,,,,,,,,,129781.69999999553,129774.19999999553,,129781.5,,129780.051,,,
Thanks,html.Screen,1_5,2022-02-17T16:47:29.963Z,,,,,,,,,,,,,,,,,,,,,,,,,,,,,,,3481.0490000014834,,response,,,,,,,,,,,continue,click button,,,,,,,,,133261.79999999702,133261.1000000015,129763.398,129781.79999999702,129780.051,137463.044,,,
Headphone screening,flow.Sequence,1,2022-02-17T16:47:29.963Z,,,,,,,,,,,,,,,,,,,,,,,,,,,,,,,109942.68600000149,,completion,,,,,,,,,,,,,,,,,,,,,133261.8999999985,133261.1000000015,23301.751,23310.29999999702,23318.414,137463.044,,,
Instructions,html.Page,2_0,2022-02-17T16:48:13.564Z,,,,,,,,,,,,,,,,,,,,,,,,,,,,,,,39399.355999998515,,form submission,,,,,,,,,,,,,,,,,,,,,176862.79999999702,176862.3999999985,137446.367,137459.1000000015,137463.044,176894.506,,,
Holding screen,html.Screen,2_1_0_0,2022-02-17T16:48:23.580Z,,,,,,,,,,,,,,,,,,,,,,,,,,,,,,,9999.600999999995,,timeout,,,,,,,,,,,,,,,,,,,,,186879.1000000015,186877.423,176877.821,176863.1000000015,176894.506,186894.107,,,
screen,html.Screen,2_1_0_1_0,2022-02-17T16:48:24.688Z,,,,,,,,,,,,,,,,,53,,,,,,,,,,,,,,1087.0929999955406,,response,,,,99,,,,,,,Space,keypress(Space),,,,,,,,When -- ----- -- ------ - ------- --- ----------<br>------------- ------ ------ ---- ---- ------- ----- -- ----<br>-------- ------- -- ---------- --- - --- ----- ----- ----<br>---- --- --- ----- --- ---- ---- ------- ----- ---- -------<br>--- --- -- ----- -- --- ---- -- --- ---- -- ------ ------<br>--- ----- -- ----,187986.8999999985,187981.19999999553,186877.423,186881.19999999553,186894.107,187994.055,,0,When
screen,html.Screen,2_1_0_1_1,2022-02-17T16:48:25.340Z,,,,,,,,,,,,,,,,,53,,,,,,,,,,,,,,643.5450000014971,,response,,,,99,,,,,,,Space,keypress(Space),,,,,,,,---- it ----- -- ------ - ------- --- ----------<br>------------- ------ ------ ---- ---- ------- ----- -- ----<br>-------- ------- -- ---------- --- - --- ----- ----- ----<br>---- --- --- ----- --- ---- ---- ------- ----- ---- -------<br>--- --- -- ----- -- --- ---- -- --- ---- -- ------ ------<br>--- ----- -- ----,188639,188637.6000000015,187977.295,187987.19999999553,187994.055,188644.033,,1,it
screen,html.Screen,2_1_0_1_2,2022-02-17T16:48:26.166Z,,,,,,,,,,,,,,,,,53,,,,,,,,,,,,,,820.0670000014943,,response,,,,99,,,,,,,Space,keypress(Space),,,,,,,,---- -- comes -- ------ - ------- --- ----------<br>------------- ------ ------ ---- ---- ------- ----- -- ----<br>-------- ------- -- ---------- --- - --- ----- ----- ----<br>---- --- --- ----- --- ---- ---- ------- ----- ---- -------<br>--- --- -- ----- -- --- ---- -- --- ---- -- ------ ------<br>--- ----- -- ----,189465.19999999553,189464.1000000015,188627.363,188639.1000000015,188644.033,189477.338,,2,comes
screen,html.Screen,2_1_0_1_3,2022-02-17T16:48:26.730Z,,,,,,,,,,,,,,,,,53,,,,,,,,,,,,,,550.7620000015013,,response,,,,99,,,,,,,Space,keypress(Space),,,,,,,,---- -- ----- to ------ - ------- --- ----------<br>------------- ------ ------ ---- ---- ------- ----- -- ----<br>-------- ------- -- ---------- --- - --- ----- ----- ----<br>---- --- --- ----- --- ---- ---- ------- ----- ---- -------<br>--- --- -- ----- -- --- ---- -- --- ---- -- ------ ------<br>--- ----- -- ----,190029.29999999702,190028.1000000015,189460.701,189465.3999999985,189477.338,190044.114,,3,to
screen,html.Screen,2_1_0_1_4,2022-02-17T16:48:27.238Z,,,,,,,,,,,,,,,,,53,,,,,,,,,,,,,,491.68599999701837,,response,,,,99,,,,,,,Space,keypress(Space),,,,,,,,---- -- ----- -- having - ------- --- ----------<br>------------- ------ ------ ---- ---- ------- ----- -- ----<br>-------- ------- -- ---------- --- - --- ----- ----- ----<br>---- --- --- ----- --- ---- ---- ------- ----- ---- -------<br>--- --- -- ----- -- --- ---- -- --- ---- -- ------ ------<br>--- ----- -- ----,190536.8999999985,190535.79999999702,190027.346,190029.5,190044.114,190543.941,,4,having
screen,html.Screen,2_1_0_1_5,2022-02-17T16:48:27.758Z,,,,,,,,,,,,,,,,,53,,,,,,,,,,,,,,512.258999995538,,response,,,,99,,,,,,,Space,keypress(Space),,,,,,,,---- -- ----- -- ------ a ------- --- ----------<br>------------- ------ ------ ---- ---- ------- ----- -- ----<br>-------- ------- -- ---------- --- - --- ----- ----- ----<br>---- --- --- ----- --- ---- ---- ------- ----- ---- -------<br>--- --- -- ----- -- --- ---- -- --- ---- -- ------ ------<br>--- ----- -- ----,191057.29999999702,191056.19999999553,190527.271,190537.1000000015,190543.941,191060.578,,5,a
screen,html.Screen,2_1_0_1_6,2022-02-17T16:48:28.227Z,,,,,,,,,,,,,,,,,53,,,,,,,,,,,,,,464.0220000014815,,response,,,,99,,,,,,,Space,keypress(Space),,,,,,,,---- -- ----- -- ------ - lasting --- ----------<br>------------- ------ ------ ---- ---- ------- ----- -- ----<br>-------- ------- -- ---------- --- - --- ----- ----- ----<br>---- --- --- ----- --- ---- ---- ------- ----- ---- -------<br>--- --- -- ----- -- --- ---- -- --- ---- -- ------ ------<br>--- ----- -- ----,191525.69999999553,191524.6000000015,191043.976,191057.6000000015,191060.578,191546.996,,6,lasting
screen,html.Screen,2_1_0_1_7,2022-02-17T16:48:28.651Z,,,,,,,,,,,,,,,,,53,,,,,,,,,,,,,,401.40399999849615,,response,,,,99,,,,,,,Space,keypress(Space),,,,,,,,---- -- ----- -- ------ - ------- and ----------<br>------------- ------ ------ ---- ---- ------- ----- -- ----<br>-------- ------- -- ---------- --- - --- ----- ----- ----<br>---- --- --- ----- --- ---- ---- ------- ----- ---- -------<br>--- --- -- ----- -- --- ---- -- --- ---- -- ------ ------<br>--- ----- -- ----,191949.5,191948.3999999985,191510.604,191526,191546.996,191960.532,,7,and
screen,html.Screen,2_1_0_1_8,2022-02-17T16:48:29.077Z,,,,,,,,,,,,,,,,,53,,,,,,,,,,,,,,413.76799999701325,,response,,,,99,,,,,,,Space,keypress(Space),,,,,,,,---- -- ----- -- ------ - ------- --- fulfilling<br>------------- ------ ------ ---- ---- ------- ----- -- ----<br>-------- ------- -- ---------- --- - --- ----- ----- ----<br>---- --- --- ----- --- ---- ---- ------- ----- ---- -------<br>--- --- -- ----- -- --- ---- -- --- ---- -- ------ ------<br>--- ----- -- ----,192375.3999999985,192374.29999999702,191943.94,191949.8999999985,191960.532,192400.666,,8,fulfilling
screen,html.Screen,2_1_0_1_9,2022-02-17T16:48:29.463Z,,,,,,,,,,,,,,,,,53,,,,,,,,,,,,,,360.33400000000256,,response,,,,99,,,,,,,Space,keypress(Space),,,,,,,,"---- -- ----- -- ------ - ------- --- ----------<br>relationship, ------ ------ ---- ---- ------- ----- -- ----<br>-------- ------- -- ---------- --- - --- ----- ----- ----<br>---- --- --- ----- --- ---- ---- ------- ----- ---- -------<br>--- --- -- ----- -- --- ---- -- --- ---- -- ------ ------<br>--- ----- -- ----",192762.19999999553,192761,192360.517,192375.69999999553,192400.666,192777.317,,9,"relationship,"
screen,html.Screen,2_1_0_1_10,2022-02-17T16:48:29.944Z,,,,,,,,,,,,,,,,,53,,,,,,,,,,,,,,463.7830000014801,,response,,,,99,,,,,,,Space,keypress(Space),,,,,,,,---- -- ----- -- ------ - ------- --- ----------<br>------------- common ------ ---- ---- ------- ----- -- ----<br>-------- ------- -- ---------- --- - --- ----- ----- ----<br>---- --- --- ----- --- ---- ---- ------- ----- ---- -------<br>--- --- -- ----- -- --- ---- -- --- ---- -- ------ ------<br>--- ----- -- ----,193242.3999999985,193241.1000000015,192760.57,192762.3999999985,192777.317,193267.709,,10,common
screen,html.Screen,2_1_0_1_11,2022-02-17T16:48:30.336Z,,,,,,,,,,,,,,,,,53,,,,,,,,,,,,,,365.4909999955271,,response,,,,99,,,,,,,Space,keypress(Space),,,,,,,,---- -- ----- -- ------ - ------- --- ----------<br>------------- ------ wisdom ---- ---- ------- ----- -- ----<br>-------- ------- -- ---------- --- - --- ----- ----- ----<br>---- --- --- ----- --- ---- ---- ------- ----- ---- -------<br>--- --- -- ----- -- --- ---- -- --- ---- -- ------ ------<br>--- ----- -- ----,193634.3999999985,193633.19999999553,193227.103,193242.6000000015,193267.709,193643.844,,11,wisdom
screen,html.Screen,2_1_0_1_12,2022-02-17T16:48:30.910Z,,,,,,,,,,,,,,,,,53,,,,,,,,,,,,,,564.055999998498,,response,,,,99,,,,,,,Space,keypress(Space),,,,,,,,---- -- ----- -- ------ - ------- --- ----------<br>------------- ------ ------ says ---- ------- ----- -- ----<br>-------- ------- -- ---------- --- - --- ----- ----- ----<br>---- --- --- ----- --- ---- ---- ------- ----- ---- -------<br>--- --- -- ----- -- --- ---- -- --- ---- -- ------ ------<br>--- ----- -- ----,194209.19999999553,194207.8999999985,193627.177,193634.69999999553,193643.844,194227.179,,12,says
screen,html.Screen,2_1_0_1_13,2022-02-17T16:48:31.463Z,,,,,,,,,,,,,,,,,53,,,,,,,,,,,,,,533.0209999955259,,response,,,,99,,,,,,,Space,keypress(Space),,,,,,,,---- -- ----- -- ------ - ------- --- ----------<br>------------- ------ ------ ---- that ------- ----- -- ----<br>-------- ------- -- ---------- --- - --- ----- ----- ----<br>---- --- --- ----- --- ---- ---- ------- ----- ---- -------<br>--- --- -- ----- -- --- ---- -- --- ---- -- ------ ------<br>--- ----- -- ----,194761.5,194760.19999999553,194193.793,194209.3999999985,194227.179,194777.158,,13,that
screen,html.Screen,2_1_0_1_14,2022-02-17T16:48:32.042Z,,,,,,,,,,,,,,,,,53,,,,,,,,,,,,,,562.141999997024,,response,,,,99,,,,,,,Space,keypress(Space),,,,,,,,---- -- ----- -- ------ - ------- --- ----------<br>------------- ------ ------ ---- ---- feeling ----- -- ----<br>-------- ------- -- ---------- --- - --- ----- ----- ----<br>---- --- --- ----- --- ---- ---- ------- ----- ---- -------<br>--- --- -- ----- -- --- ---- -- --- ---- -- ------ ------<br>--- ----- -- ----,195340.6000000015,195339.29999999702,194760.466,194761.6000000015,194777.158,195343.745,,14,feeling
screen,html.Screen,2_1_0_1_15,2022-02-17T16:48:32.494Z,,,,,,,,,,,,,,,,,53,,,,,,,,,,,,,,447.75500000000466,,response,,,,99,,,,,,,Space,keypress(Space),,,,,,,,---- -- ----- -- ------ - ------- --- ----------<br>------------- ------ ------ ---- ---- ------- close -- ----<br>-------- ------- -- ---------- --- - --- ----- ----- ----<br>---- --- --- ----- --- ---- ---- ------- ----- ---- -------<br>--- --- -- ----- -- --- ---- -- --- ---- -- ------ ------<br>--- ----- -- ----,195792.79999999702,195791.5,195327.026,195340.79999999702,195343.745,195810.503,,15,close
screen,html.Screen,2_1_0_1_16,2022-02-17T16:48:32.965Z,,,,,,,,,,,,,,,,,53,,,,,,,,,,,,,,452.2969999970228,,response,,,,99,,,,,,,Space,keypress(Space),,,,,,,,---- -- ----- -- ------ - ------- --- ----------<br>------------- ------ ------ ---- ---- ------- ----- to ----<br>-------- ------- -- ---------- --- - --- ----- ----- ----<br>---- --- --- ----- --- ---- ---- ------- ----- ---- -------<br>--- --- -- ----- -- --- ---- -- --- ---- -- ------ ------<br>--- ----- -- ----,196264.1000000015,196262.79999999702,195793.759,195793,195810.503,196277.146,,16,to
screen,html.Screen,2_1_0_1_17,2022-02-17T16:48:33.447Z,,,,,,,,,,,,,,,,,53,,,,,,,,,,,,,,467.25399999850197,,response,,,,99,,,,,,,Space,keypress(Space),,,,,,,,---- -- ----- -- ------ - ------- --- ----------<br>------------- ------ ------ ---- ---- ------- ----- -- your<br>-------- ------- -- ---------- --- - --- ----- ----- ----<br>---- --- --- ----- --- ---- ---- ------- ----- ---- -------<br>--- --- -- ----- -- --- ---- -- --- ---- -- ------ ------<br>--- ----- -- ----,196745.69999999553,196744.3999999985,196260.334,196264.29999999702,196277.146,196760.45,,17,your
screen,html.Screen,2_1_0_1_18,2022-02-17T16:48:33.855Z,,,,,,,,,,,,,,,,,53,,,,,,,,,,,,,,391.8499999970081,,response,,,,99,,,,,,,Space,keypress(Space),,,,,,,,---- -- ----- -- ------ - ------- --- ----------<br>------------- ------ ------ ---- ---- ------- ----- -- ----<br>romantic ------- -- ---------- --- - --- ----- ----- ----<br>---- --- --- ----- --- ---- ---- ------- ----- ---- -------<br>--- --- -- ----- -- --- ---- -- --- ---- -- ------ ------<br>--- ----- -- ----,197153.79999999702,197152.29999999702,196743.658,196745.8999999985,196760.45,197160.295,,18,romantic
screen,html.Screen,2_1_0_1_19,2022-02-17T16:48:34.213Z,,,,,,,,,,,,,,,,,53,,,,,,,,,,,,,,350.00499999700696,,response,,,,99,,,,,,,Space,keypress(Space),,,,,,,,---- -- ----- -- ------ - ------- --- ----------<br>------------- ------ ------ ---- ---- ------- ----- -- ----<br>-------- partner -- ---------- --- - --- ----- ----- ----<br>---- --- --- ----- --- ---- ---- ------- ----- ---- -------<br>--- --- -- ----- -- --- ---- -- --- ---- -- ------ ------<br>--- ----- -- ----,197511.5,197510.29999999702,197143.615,197154,197160.295,197527.056,,19,partner
screen,html.Screen,2_1_0_1_20,2022-02-17T16:48:34.654Z,,,,,,,,,,,,,,,,,53,,,,,,,,,,,,,,424.14399999551824,,response,,,,99,,,,,,,Space,keypress(Space),,,,,,,,---- -- ----- -- ------ - ------- --- ----------<br>------------- ------ ------ ---- ---- ------- ----- -- ----<br>-------- ------- is ---------- --- - --- ----- ----- ----<br>---- --- --- ----- --- ---- ---- ------- ----- ---- -------<br>--- --- -- ----- -- --- ---- -- --- ---- -- ------ ------<br>--- ----- -- ----,197952.3999999985,197951.19999999553,197510.278,197511.8999999985,197527.056,197960.262,,20,is
screen,html.Screen,2_1_0_1_21,2022-02-17T16:48:35.331Z,,,,,,,,,,,,,,,,,53,,,,,,,,,,,,,,668.2380000000121,,response,,,,99,,,,,,,Space,keypress(Space),,,,,,,,---- -- ----- -- ------ - ------- --- ----------<br>------------- ------ ------ ---- ---- ------- ----- -- ----<br>-------- ------- -- paramount. --- - --- ----- ----- ----<br>---- --- --- ----- --- ---- ---- ------- ----- ---- -------<br>--- --- -- ----- -- --- ---- -- --- ---- -- ------ ------<br>--- ----- -- ----,198629.79999999702,198628.5,197943.559,197952.69999999553,197960.262,198643.662,,21,paramount.
screen,html.Screen,2_1_0_1_22,2022-02-17T16:48:36.153Z,,,,,,,,,,,,,,,,,53,,,,,,,,,,,,,,806.4380000014789,,response,,,,99,,,,,,,Space,keypress(Space),,,,,,,,---- -- ----- -- ------ - ------- --- ----------<br>------------- ------ ------ ---- ---- ------- ----- -- ----<br>-------- ------- -- ---------- But - --- ----- ----- ----<br>---- --- --- ----- --- ---- ---- ------- ----- ---- -------<br>--- --- -- ----- -- --- ---- -- --- ---- -- ------ ------<br>--- ----- -- ----,199451.3999999985,199450.1000000015,198626.932,198630.1000000015,198643.662,199460.177,,22,But
screen,html.Screen,2_1_0_1_23,2022-02-17T16:48:36.594Z,,,,,,,,,,,,,,,,,53,,,,,,,,,,,,,,431.82300000000396,,response,,,,99,,,,,,,Space,keypress(Space),,,,,,,,---- -- ----- -- ------ - ------- --- ----------<br>------------- ------ ------ ---- ---- ------- ----- -- ----<br>-------- ------- -- ---------- --- a --- ----- ----- ----<br>---- --- --- ----- --- ---- ---- ------- ----- ---- -------<br>--- --- -- ----- -- --- ---- -- --- ---- -- ------ ------<br>--- ----- -- ----,199893.29999999702,199892,199443.495,199451.69999999553,199460.177,199910.353,,23,a
screen,html.Screen,2_1_0_1_24,2022-02-17T16:48:37.019Z,,,,,,,,,,,,,,,,,53,,,,,,,,,,,,,,406.446999997017,,response,,,,99,,,,,,,Space,keypress(Space),,,,,,,,---- -- ----- -- ------ - ------- --- ----------<br>------------- ------ ------ ---- ---- ------- ----- -- ----<br>-------- ------- -- ---------- --- - new ----- ----- ----<br>---- --- --- ----- --- ---- ---- ------- ----- ---- -------<br>--- --- -- ----- -- --- ---- -- --- ---- -- ------ ------<br>--- ----- -- ----,200318.1000000015,200316.79999999702,199893.482,199893.6000000015,199910.353,200326.808,,24,new
screen,html.Screen,2_1_0_1_25,2022-02-17T16:48:37.397Z,,,,,,,,,,,,,,,,,53,,,,,,,,,,,,,,367.0919999985199,,response,,,,99,,,,,,,Space,keypress(Space),,,,,,,,---- -- ----- -- ------ - ------- --- ----------<br>------------- ------ ------ ---- ---- ------- ----- -- ----<br>-------- ------- -- ---------- --- - --- study ----- ----<br>---- --- --- ----- --- ---- ---- ------- ----- ---- -------<br>--- --- -- ----- -- --- ---- -- --- ---- -- ------ ------<br>--- ----- -- ----,200695.3999999985,200693.8999999985,200310.133,200318.29999999702,200326.808,200710.206,,25,study
screen,html.Screen,2_1_0_1_26,2022-02-17T16:48:37.767Z,,,,,,,,,,,,,,,,,53,,,,,,,,,,,,,,354.5939999970142,,response,,,,99,,,,,,,Space,keypress(Space),,,,,,,,---- -- ----- -- ------ - ------- --- ----------<br>------------- ------ ------ ---- ---- ------- ----- -- ----<br>-------- ------- -- ---------- --- - --- ----- finds ----<br>---- --- --- ----- --- ---- ---- ------- ----- ---- -------<br>--- --- -- ----- -- --- ---- -- --- ---- -- ------ ------<br>--- ----- -- ----,201066,201064.79999999702,200693.417,200695.8999999985,200710.206,201076.769,,26,finds
screen,html.Screen,2_1_0_1_27,2022-02-17T16:48:38.255Z,,,,,,,,,,,,,,,,,53,,,,,,,,,,,,,,475.63099999850965,,response,,,,99,,,,,,,Space,keypress(Space),,,,,,,,---- -- ----- -- ------ - ------- --- ----------<br>------------- ------ ------ ---- ---- ------- ----- -- ----<br>-------- ------- -- ---------- --- - --- ----- ----- that<br>---- --- --- ----- --- ---- ---- ------- ----- ---- -------<br>--- --- -- ----- -- --- ---- -- --- ---- -- ------ ------<br>--- ----- -- ----,201553.6000000015,201552.3999999985,201060.098,201066.3999999985,201076.769,201560.044,,27,that
screen,html.Screen,2_1_0_1_28,2022-02-17T16:48:38.687Z,,,,,,,,,,,,,,,,,53,,,,,,,,,,,,,,424.65599999553524,,response,,,,99,,,,,,,Space,keypress(Space),,,,,,,,---- -- ----- -- ------ - ------- --- ----------<br>------------- ------ ------ ---- ---- ------- ----- -- ----<br>-------- ------- -- ---------- --- - --- ----- ----- ----<br>it's --- --- ----- --- ---- ---- ------- ----- ---- -------<br>--- --- -- ----- -- --- ---- -- --- ---- -- ------ ------<br>--- ----- -- ----,201985.8999999985,201984.69999999553,201543.387,201553.79999999702,201560.044,201993.4,,28,it's
screen,html.Screen,2_1_0_1_29,2022-02-17T16:48:39.081Z,,,,,,,,,,,,,,,,,53,,,,,,,,,,,,,,385.4999999985157,,response,,,,99,,,,,,,Space,keypress(Space),,,,,,,,---- -- ----- -- ------ - ------- --- ----------<br>------------- ------ ------ ---- ---- ------- ----- -- ----<br>-------- ------- -- ---------- --- - --- ----- ----- ----<br>---- not --- ----- --- ---- ---- ------- ----- ---- -------<br>--- --- -- ----- -- --- ---- -- --- ---- -- ------ ------<br>--- ----- -- ----,202380.19999999553,202378.8999999985,201976.737,201986.1000000015,201993.4,202393.46,,29,not
screen,html.Screen,2_1_0_1_30,2022-02-17T16:48:39.463Z,,,,,,,,,,,,,,,,,53,,,,,,,,,,,,,,366.7399999955378,,response,,,,99,,,,,,,Space,keypress(Space),,,,,,,,---- -- ----- -- ------ - ------- --- ----------<br>------------- ------ ------ ---- ---- ------- ----- -- ----<br>-------- ------- -- ---------- --- - --- ----- ----- ----<br>---- --- how ----- --- ---- ---- ------- ----- ---- -------<br>--- --- -- ----- -- --- ---- -- --- ---- -- ------ ------<br>--- ----- -- ----,202761.3999999985,202760.19999999553,202376.808,202380.3999999985,202393.46,202777.069,,30,how
screen,html.Screen,2_1_0_1_31,2022-02-17T16:48:39.841Z,,,,,,,,,,,,,,,,,53,,,,,,,,,,,,,,361.4310000000114,,response,,,,99,,,,,,,Space,keypress(Space),,,,,,,,---- -- ----- -- ------ - ------- --- ----------<br>------------- ------ ------ ---- ---- ------- ----- -- ----<br>-------- ------- -- ---------- --- - --- ----- ----- ----<br>---- --- --- close --- ---- ---- ------- ----- ---- -------<br>--- --- -- ----- -- --- ---- -- --- ---- -- ------ ------<br>--- ----- -- ----,203139.69999999553,203138.5,202760.044,202761.6000000015,202777.069,203160.088,,31,close
screen,html.Screen,2_1_0_1_32,2022-02-17T16:48:40.248Z,,,,,,,,,,,,,,,,,53,,,,,,,,,,,,,,385.31199999852106,,response,,,,99,,,,,,,Space,keypress(Space),,,,,,,,---- -- ----- -- ------ - ------- --- ----------<br>------------- ------ ------ ---- ---- ------- ----- -- ----<br>-------- ------- -- ---------- --- - --- ----- ----- ----<br>---- --- --- ----- you ---- ---- ------- ----- ---- -------<br>--- --- -- ----- -- --- ---- -- --- ---- -- ------ ------<br>--- ----- -- ----,203546.69999999553,203545.3999999985,203126.707,203142.29999999702,203160.088,203560.07,,32,you
screen,html.Screen,2_1_0_1_33,2022-02-17T16:48:40.624Z,,,,,,,,,,,,,,,,,53,,,,,,,,,,,,,,361.53000000148313,,response,,,,99,,,,,,,Space,keypress(Space),,,,,,,,---- -- ----- -- ------ - ------- --- ----------<br>------------- ------ ------ ---- ---- ------- ----- -- ----<br>-------- ------- -- ---------- --- - --- ----- ----- ----<br>---- --- --- ----- --- feel ---- ------- ----- ---- -------<br>--- --- -- ----- -- --- ---- -- --- ---- -- ------ ------<br>--- ----- -- ----,203922.79999999702,203921.6000000015,203543.366,203547,203560.07,203926.648,,33,feel
screen,html.Screen,2_1_0_1_34,2022-02-17T16:48:41.020Z,,,,,,,,,,,,,,,,,53,,,,,,,,,,,,,,390.9520000015036,,response,,,,99,,,,,,,Space,keypress(Space),,,,,,,,---- -- ----- -- ------ - ------- --- ----------<br>------------- ------ ------ ---- ---- ------- ----- -- ----<br>-------- ------- -- ---------- --- - --- ----- ----- ----<br>---- --- --- ----- --- ---- that ------- ----- ---- -------<br>--- --- -- ----- -- --- ---- -- --- ---- -- ------ ------<br>--- ----- -- ----,204319,204317.6000000015,203910.028,203923.1000000015,203926.648,204326.572,,34,that
screen,html.Screen,2_1_0_1_35,2022-02-17T16:48:41.424Z,,,,,,,,,,,,,,,,,53,,,,,,,,,,,,,,394.6279999955441,,response,,,,99,,,,,,,Space,keypress(Space),,,,,,,,---- -- ----- -- ------ - ------- --- ----------<br>------------- ------ ------ ---- ---- ------- ----- -- ----<br>-------- ------- -- ---------- --- - --- ----- ----- ----<br>---- --- --- ----- --- ---- ---- matters ----- ---- -------<br>--- --- -- ----- -- --- ---- -- --- ---- -- ------ ------<br>--- ----- -- ----,204722.3999999985,204721.19999999553,204310.022,204319.19999999553,204326.572,204726.597,,35,matters
screen,html.Screen,2_1_0_1_36,2022-02-17T16:48:41.930Z,,,,,,,,,,,,,,,,,53,,,,,,,,,,,,,,501.30299999850104,,response,,,,99,,,,,,,Space,keypress(Space),,,,,,,,"---- -- ----- -- ------ - ------- --- ----------<br>------------- ------ ------ ---- ---- ------- ----- -- ----<br>-------- ------- -- ---------- --- - --- ----- ----- ----<br>---- --- --- ----- --- ---- ---- ------- most, ---- -------<br>--- --- -- ----- -- --- ---- -- --- ---- -- ------ ------<br>--- ----- -- ----",205229.1000000015,205227.8999999985,204709.931,204722.79999999702,204726.597,205243.311,,36,"most,"
screen,html.Screen,2_1_0_1_37,2022-02-17T16:48:42.334Z,,,,,,,,,,,,,,,,,53,,,,,,,,,,,,,,388.18900000001304,,response,,,,99,,,,,,,Space,keypress(Space),,,,,,,,---- -- ----- -- ------ - ------- --- ----------<br>------------- ------ ------ ---- ---- ------- ----- -- ----<br>-------- ------- -- ---------- --- - --- ----- ----- ----<br>---- --- --- ----- --- ---- ---- ------- ----- it's -------<br>--- --- -- ----- -- --- ---- -- --- ---- -- ------ ------<br>--- ----- -- ----,205632.69999999553,205631.5,205226.6,205229.29999999702,205243.311,205643.251,,37,it's
screen,html.Screen,2_1_0_1_38,2022-02-17T16:48:42.736Z,,,,,,,,,,,,,,,,,53,,,,,,,,,,,,,,390.7490000000107,,response,,,,99,,,,,,,Space,keypress(Space),,,,,,,,---- -- ----- -- ------ - ------- --- ----------<br>------------- ------ ------ ---- ---- ------- ----- -- ----<br>-------- ------- -- ---------- --- - --- ----- ----- ----<br>---- --- --- ----- --- ---- ---- ------- ----- ---- whether<br>--- --- -- ----- -- --- ---- -- --- ---- -- ------ ------<br>--- ----- -- ----,206035.19999999553,206034,205626.641,205633,205643.251,206043.161,,38,whether
screen,html.Screen,2_1_0_1_39,2022-02-17T16:48:43.144Z,,,,,,,,,,,,,,,,,53,,,,,,,,,,,,,,397.93900000149733,,response,,,,99,,,,,,,Space,keypress(Space),,,,,,,,---- -- ----- -- ------ - ------- --- ----------<br>------------- ------ ------ ---- ---- ------- ----- -- ----<br>-------- ------- -- ---------- --- - --- ----- ----- ----<br>---- --- --- ----- --- ---- ---- ------- ----- ---- -------<br>you --- -- ----- -- --- ---- -- --- ---- -- ------ ------<br>--- ----- -- ----,206442.3999999985,206441.1000000015,206026.551,206035.5,206043.161,206459.936,,39,you
screen,html.Screen,2_1_0_1_40,2022-02-17T16:48:43.511Z,,,,,,,,,,,,,,,,,53,,,,,,,,,,,,,,348.8639999970328,,response,,,,99,,,,,,,Space,keypress(Space),,,,,,,,---- -- ----- -- ------ - ------- --- ----------<br>------------- ------ ------ ---- ---- ------- ----- -- ----<br>-------- ------- -- ---------- --- - --- ----- ----- ----<br>---- --- --- ----- --- ---- ---- ------- ----- ---- -------<br>--- are -- ----- -- --- ---- -- --- ---- -- ------ ------<br>--- ----- -- ----,206810,206808.79999999702,206443.145,206442.6000000015,206459.936,206826.691,,40,are
screen,html.Screen,2_1_0_1_41,2022-02-17T16:48:43.880Z,,,,,,,,,,,,,,,,,53,,,,,,,,,,,,,,350.50899999553803,,response,,,,99,,,,,,,Space,keypress(Space),,,,,,,,---- -- ----- -- ------ - ------- --- ----------<br>------------- ------ ------ ---- ---- ------- ----- -- ----<br>-------- ------- -- ---------- --- - --- ----- ----- ----<br>---- --- --- ----- --- ---- ---- ------- ----- ---- -------<br>--- --- as ----- -- --- ---- -- --- ---- -- ------ ------<br>--- ----- -- ----,207178.3999999985,207177.19999999553,206809.847,206810.19999999553,206826.691,207193.228,,41,as
screen,html.Screen,2_1_0_1_42,2022-02-17T16:48:44.262Z,,,,,,,,,,,,,,,,,53,,,,,,,,,,,,,,366.2719999999972,,response,,,,99,,,,,,,Space,keypress(Space),,,,,,,,---- -- ----- -- ------ - ------- --- ----------<br>------------- ------ ------ ---- ---- ------- ----- -- ----<br>-------- ------- -- ---------- --- - --- ----- ----- ----<br>---- --- --- ----- --- ---- ---- ------- ----- ---- -------<br>--- --- -- close -- --- ---- -- --- ---- -- ------ ------<br>--- ----- -- ----,207560.79999999702,207559.5,207176.464,207178.69999999553,207193.228,207576.611,,42,close
screen,html.Screen,2_1_0_1_43,2022-02-17T16:48:44.662Z,,,,,,,,,,,,,,,,,53,,,,,,,,,,,,,,383.28899999850546,,response,,,,99,,,,,,,Space,keypress(Space),,,,,,,,---- -- ----- -- ------ - ------- --- ----------<br>------------- ------ ------ ---- ---- ------- ----- -- ----<br>-------- ------- -- ---------- --- - --- ----- ----- ----<br>---- --- --- ----- --- ---- ---- ------- ----- ---- -------<br>--- --- -- ----- as --- ---- -- --- ---- -- ------ ------<br>--- ----- -- ----,207961.1000000015,207959.8999999985,207559.887,207561,207576.611,207976.573,,43,as
screen,html.Screen,2_1_0_1_44,2022-02-17T16:48:45.091Z,,,,,,,,,,,,,,,,,53,,,,,,,,,,,,,,411.42699999999604,,response,,,,99,,,,,,,Space,keypress(Space),,,,,,,,---- -- ----- -- ------ - ------- --- ----------<br>------------- ------ ------ ---- ---- ------- ----- -- ----<br>-------- ------- -- ---------- --- - --- ----- ----- ----<br>---- --- --- ----- --- ---- ---- ------- ----- ---- -------<br>--- --- -- ----- -- you ---- -- --- ---- -- ------ ------<br>--- ----- -- ----,208389.3999999985,208388,207959.864,207961.3999999985,207976.573,208393.065,,44,you
screen,html.Screen,2_1_0_1_45,2022-02-17T16:48:45.501Z,,,,,,,,,,,,,,,,,53,,,,,,,,,,,,,,405.5350000014878,,response,,,,99,,,,,,,Space,keypress(Space),,,,,,,,---- -- ----- -- ------ - ------- --- ----------<br>------------- ------ ------ ---- ---- ------- ----- -- ----<br>-------- ------- -- ---------- --- - --- ----- ----- ----<br>---- --- --- ----- --- ---- ---- ------- ----- ---- -------<br>--- --- -- ----- -- --- want -- --- ---- -- ------ ------<br>--- ----- -- ----,208799.8999999985,208798.6000000015,208376.488,208389.79999999702,208393.065,208809.776,,45,want
screen,html.Screen,2_1_0_1_46,2022-02-17T16:48:45.922Z,,,,,,,,,,,,,,,,,53,,,,,,,,,,,,,,410.0239999970072,,response,,,,99,,,,,,,Space,keypress(Space),,,,,,,,---- -- ----- -- ------ - ------- --- ----------<br>------------- ------ ------ ---- ---- ------- ----- -- ----<br>-------- ------- -- ---------- --- - --- ----- ----- ----<br>---- --- --- ----- --- ---- ---- ------- ----- ---- -------<br>--- --- -- ----- -- --- ---- to --- ---- -- ------ ------<br>--- ----- -- ----,209221,209219.79999999702,208793.144,208800.1000000015,208809.776,209226.365,,46,to
screen,html.Screen,2_1_0_1_47,2022-02-17T16:48:46.284Z,,,,,,,,,,,,,,,,,53,,,,,,,,,,,,,,355.5349999985192,,response,,,,99,,,,,,,Space,keypress(Space),,,,,,,,"---- -- ----- -- ------ - ------- --- ----------<br>------------- ------ ------ ---- ---- ------- ----- -- ----<br>-------- ------- -- ---------- --- - --- ----- ----- ----<br>---- --- --- ----- --- ---- ---- ------- ----- ---- -------<br>--- --- -- ----- -- --- ---- -- be, ---- -- ------ ------<br>--- ----- -- ----",209583.19999999553,209581.8999999985,209209.71,209221.29999999702,209226.365,209593.062,,47,"be,"
screen,html.Screen,2_1_0_1_48,2022-02-17T16:48:46.989Z,,,,,,,,,,,,,,,,,53,,,,,,,,,,,,,,693.1379999955243,,response,,,,99,,,,,,,Space,keypress(Space),,,,,,,,---- -- ----- -- ------ - ------- --- ----------<br>------------- ------ ------ ---- ---- ------- ----- -- ----<br>-------- ------- -- ---------- --- - --- ----- ----- ----<br>---- --- --- ----- --- ---- ---- ------- ----- ---- -------<br>--- --- -- ----- -- --- ---- -- --- even -- ------ ------<br>--- ----- -- ----,210287.3999999985,210286.19999999553,209576.354,209583.3999999985,209593.062,210292.98,,48,even
screen,html.Screen,2_1_0_1_49,2022-02-17T16:48:47.420Z,,,,,,,,,,,,,,,,,53,,,,,,,,,,,,,,424.8199999970093,,response,,,,99,,,,,,,Space,keypress(Space),,,,,,,,---- -- ----- -- ------ - ------- --- ----------<br>------------- ------ ------ ---- ---- ------- ----- -- ----<br>-------- ------- -- ---------- --- - --- ----- ----- ----<br>---- --- --- ----- --- ---- ---- ------- ----- ---- -------<br>--- --- -- ----- -- --- ---- -- --- ---- if ------ ------<br>--- ----- -- ----,210719,210717.79999999702,210276.333,210287.69999999553,210292.98,210726.338,,49,if
screen,html.Screen,2_1_0_1_50,2022-02-17T16:48:47.827Z,,,,,,,,,,,,,,,,,53,,,,,,,,,,,,,,398.1620000000112,,response,,,,99,,,,,,,Space,keypress(Space),,,,,,,,---- -- ----- -- ------ - ------- --- ----------<br>------------- ------ ------ ---- ---- ------- ----- -- ----<br>-------- ------- -- ---------- --- - --- ----- ----- ----<br>---- --- --- ----- --- ---- ---- ------- ----- ---- -------<br>--- --- -- ----- -- --- ---- -- --- ---- -- that's ------<br>--- ----- -- ----,211125.79999999702,211124.5,210709.717,210719.29999999702,210726.338,211143.011,,50,that's
screen,html.Screen,2_1_0_1_51,2022-02-17T16:48:48.267Z,,,,,,,,,,,,,,,,,53,,,,,,,,,,,,,,421.18899999553105,,response,,,,99,,,,,,,Space,keypress(Space),,,,,,,,---- -- ----- -- ------ - ------- --- ----------<br>------------- ------ ------ ---- ---- ------- ----- -- ----<br>-------- ------- -- ---------- --- - --- ----- ----- ----<br>---- --- --- ----- --- ---- ---- ------- ----- ---- -------<br>--- --- -- ----- -- --- ---- -- --- ---- -- ------ really<br>--- ----- -- ----,211565.5,211564.19999999553,211126.368,211126,211143.011,211576.37,,51,really
screen,html.Screen,2_1_0_1_52,2022-02-17T16:48:48.756Z,,,,,,,,,,,,,,,,,53,,,,,,,,,,,,,,477.63000000000466,,response,,,,99,,,,,,,Space,keypress(Space),,,,,,,,---- -- ----- -- ------ - ------- --- ----------<br>------------- ------ ------ ---- ---- ------- ----- -- ----<br>-------- ------- -- ---------- --- - --- ----- ----- ----<br>---- --- --- ----- --- ---- ---- ------- ----- ---- -------<br>--- --- -- ----- -- --- ---- -- --- ---- -- ------ ------<br>not ----- -- ----,212055.19999999553,212054,211559.659,211565.69999999553,211576.37,212059.62,,52,not
screen,html.Screen,2_1_0_1_53,2022-02-17T16:48:49.163Z,,,,,,,,,,,,,,,,,53,,,,,,,,,,,,,,401.1799999970244,,response,,,,99,,,,,,,Space,keypress(Space),,,,,,,,---- -- ----- -- ------ - ------- --- ----------<br>------------- ------ ------ ---- ---- ------- ----- -- ----<br>-------- ------- -- ---------- --- - --- ----- ----- ----<br>---- --- --- ----- --- ---- ---- ------- ----- ---- -------<br>--- --- -- ----- -- --- ---- -- --- ---- -- ------ ------<br>--- close -- ----,212462.1000000015,212460.79999999702,212042.959,212055.3999999985,212059.62,212476.304,,53,close
screen,html.Screen,2_1_0_1_54,2022-02-17T16:48:49.547Z,,,,,,,,,,,,,,,,,53,,,,,,,,,,,,,,368.1959999999963,,response,,,,99,,,,,,,Space,keypress(Space),,,,,,,,---- -- ----- -- ------ - ------- --- ----------<br>------------- ------ ------ ---- ---- ------- ----- -- ----<br>-------- ------- -- ---------- --- - --- ----- ----- ----<br>---- --- --- ----- --- ---- ---- ------- ----- ---- -------<br>--- --- -- ----- -- --- ---- -- --- ---- -- ------ ------<br>--- ----- at ----,212845.69999999553,212844.5,212459.575,212462.3999999985,212476.304,212859.644,,54,at
screen,html.Screen,2_1_0_1_55,2022-02-17T16:48:51.298Z,,,,,,,,,,,,,,,,,53,,,,,,,,,,,,,,1736.3559999999998,,response,,,,99,,,,,,,Space,keypress(Space),,,,,,,,---- -- ----- -- ------ - ------- --- ----------<br>------------- ------ ------ ---- ---- ------- ----- -- ----<br>-------- ------- -- ---------- --- - --- ----- ----- ----<br>---- --- --- ----- --- ---- ---- ------- ----- ---- -------<br>--- --- -- ----- -- --- ---- -- --- ---- -- ------ ------<br>--- ----- -- all.,214597.19999999553,214596,212842.96,212845.8999999985,212859.644,214609.475,,55,all.
Item 99,flow.Loop,2_1_0_1,2022-02-17T16:48:51.299Z,,,,,,,,,,,,,,,,,,,,,,,,,,,,,,,27701.89300000001,,completion,,,,,F,,,,,,,,,,,silence,,,,,214597.69999999553,214596,186877.423,186879.3999999985,186894.107,214609.475,,,
Question 1,html.Screen,2_1_0_2,2022-02-17T16:49:04.251Z,,,,,,,,,,,,,,,,,,,,,,,,,,,,true,FALSE,,12939.524999999994,,response,,,,99,F,,,,,,FALSE,click #choice-2,,,,silence,,,,,227549.79999999702,227549,214592.721,214598,214609.475,227558.969,,,
Question 2,html.Screen,2_1_0_3,2022-02-17T16:49:13.380Z,,,,,,,,,,,,,,,,,,,,,,,,,,,,true,TRUE,,9118.930999998498,,response,,,,99,F,,,,,,TRUE,click #choice-1,,,,silence,,,,,236678.6000000015,236677.8999999985,227542.117,227549.8999999985,227558.969,236708.361,,,
Item 99,flow.Sequence,2_1_0,2022-02-17T16:49:13.380Z,,,,,,,,,,,,,,,,,,,,,,,,,,,,,,,59783.393999998516,,completion,,,,,,,,,,,,,,,,,,,,,236678.79999999702,236677.8999999985,176877.821,176863,176894.506,236708.361,,,
Holding screen,html.Screen,2_1_1_0,2022-02-17T16:49:23.394Z,,,,,,,,,,,,,,,,,,,,,,,,,,,,,,,9999.676999999996,,timeout,,,,,,,,,,,,,,,,,,,,,246693.1000000015,246691.298,236691.696,236678.8999999985,236708.361,246708.038,,,
screen,html.Screen,2_1_1_1_0,2022-02-17T16:49:24.277Z,,,,,,,,,,,,,,,,,54,,,,,,,,,,,,,,865.8619999985094,,response,,,,100,,,,,,,Space,keypress(Space),,,,,,,,At --- ---- --- ------ ----- ------- ---- -- --- ------- --<br>------- ---------- ------ -- ----- -- ----- -- ---- ------<br>--- ----- --- --- ------ -------- ----- --- ------ ----- --<br>----- ----- ---------- --- --- ------ ------ ---- -- ------<br>------- --- ------ ----- --- ---- ------- -- ---- --- --<br>------- ------,247575.3999999985,247573.8999999985,246691.298,246693.3999999985,246708.038,247608.038,,0,At
screen,html.Screen,2_1_1_1_1,2022-02-17T16:49:24.695Z,,,,,,,,,,,,,,,,,54,,,,,,,,,,,,,,384.8619999985094,,response,,,,100,,,,,,,Space,keypress(Space),,,,,,,,-- the ---- --- ------ ----- ------- ---- -- --- ------- --<br>------- ---------- ------ -- ----- -- ----- -- ---- ------<br>--- ----- --- --- ------ -------- ----- --- ------ ----- --<br>----- ----- ---------- --- --- ------ ------ ---- -- ------<br>------- --- ------ ----- --- ---- ------- -- ---- --- --<br>------- ------,247994.19999999553,247992.8999999985,247591.321,247575.6000000015,247608.038,248008.073,,1,the
screen,html.Screen,2_1_1_1_2,2022-02-17T16:49:25.118Z,,,,,,,,,,,,,,,,,54,,,,,,,,,,,,,,407.6269999955257,,response,,,,100,,,,,,,Space,keypress(Space),,,,,,,,-- --- time --- ------ ----- ------- ---- -- --- ------- --<br>------- ---------- ------ -- ----- -- ----- -- ---- ------<br>--- ----- --- --- ------ -------- ----- --- ------ ----- --<br>----- ----- ---------- --- --- ------ ------ ---- -- ------<br>------- --- ------ ----- --- ---- ------- -- ---- --- --<br>------- ------,248416.79999999702,248415.69999999553,247991.299,247994.5,248008.073,248424.584,,2,time
screen,html.Screen,2_1_1_1_3,2022-02-17T16:49:25.474Z,,,,,,,,,,,,,,,,,54,,,,,,,,,,,,,,347.2159999970172,,response,,,,100,,,,,,,Space,keypress(Space),,,,,,,,-- --- ---- the ------ ----- ------- ---- -- --- ------- --<br>------- ---------- ------ -- ----- -- ----- -- ---- ------<br>--- ----- --- --- ------ -------- ----- --- ------ ----- --<br>----- ----- ---------- --- --- ------ ------ ---- -- ------<br>------- --- ------ ----- --- ---- ------- -- ---- --- --<br>------- ------,248772.79999999702,248771.79999999702,248407.916,248417,248424.584,248798.378,,3,the
screen,html.Screen,2_1_1_1_4,2022-02-17T16:49:26.072Z,,,,,,,,,,,,,,,,,54,,,,,,,,,,,,,,571.3219999955327,,response,,,,100,,,,,,,Space,keypress(Space),,,,,,,,-- --- ---- --- French ----- ------- ---- -- --- ------- --<br>------- ---------- ------ -- ----- -- ----- -- ---- ------<br>--- ----- --- --- ------ -------- ----- --- ------ ----- --<br>----- ----- ---------- --- --- ------ ------ ---- -- ------<br>------- --- ------ ----- --- ---- ------- -- ---- --- --<br>------- ------,249370.6000000015,249369.69999999553,248757.987,248773.1000000015,248798.378,249374.493,,4,French
screen,html.Screen,2_1_1_1_5,2022-02-17T16:49:26.784Z,,,,,,,,,,,,,,,,,54,,,,,,,,,,,,,,706.9069999985222,,response,,,,100,,,,,,,Space,keypress(Space),,,,,,,,-- --- ---- --- ------ crown ------- ---- -- --- ------- --<br>------- ---------- ------ -- ----- -- ----- -- ---- ------<br>--- ----- --- --- ------ -------- ----- --- ------ ----- --<br>----- ----- ---------- --- --- ------ ------ ---- -- ------<br>------- --- ------ ----- --- ---- ------- -- ---- --- --<br>------- ------,250082.6000000015,250081.3999999985,249357.864,249371,249374.493,250091.113,,5,crown
screen,html.Screen,2_1_1_1_6,2022-02-17T16:49:27.403Z,,,,,,,,,,,,,,,,,54,,,,,,,,,,,,,,609.6869999970077,,response,,,,100,,,,,,,Space,keypress(Space),,,,,,,,-- --- ---- --- ------ ----- secured ---- -- --- ------- --<br>------- ---------- ------ -- ----- -- ----- -- ---- ------<br>--- ----- --- --- ------ -------- ----- --- ------ ----- --<br>----- ----- ---------- --- --- ------ ------ ---- -- ------<br>------- --- ------ ----- --- ---- ------- -- ---- --- --<br>------- ------,250701.8999999985,250700.79999999702,250074.516,250082.79999999702,250091.113,250707.743,,6,secured
screen,html.Screen,2_1_1_1_7,2022-02-17T16:49:27.920Z,,,,,,,,,,,,,,,,,54,,,,,,,,,,,,,,509.25700000001234,,response,,,,100,,,,,,,Space,keypress(Space),,,,,,,,-- --- ---- --- ------ ----- ------- much -- --- ------- --<br>------- ---------- ------ -- ----- -- ----- -- ---- ------<br>--- ----- --- --- ------ -------- ----- --- ------ ----- --<br>----- ----- ---------- --- --- ------ ------ ---- -- ------<br>------- --- ------ ----- --- ---- ------- -- ---- --- --<br>------- ------,251218.29999999702,251217,250691.174,250702.1000000015,250707.743,251224.381,,7,much
screen,html.Screen,2_1_1_1_8,2022-02-17T16:49:28.364Z,,,,,,,,,,,,,,,,,54,,,,,,,,,,,,,,436.9189999970258,,response,,,,100,,,,,,,Space,keypress(Space),,,,,,,,-- --- ---- --- ------ ----- ------- ---- of --- ------- --<br>------- ---------- ------ -- ----- -- ----- -- ---- ------<br>--- ----- --- --- ------ -------- ----- --- ------ ----- --<br>----- ----- ---------- --- --- ------ ------ ---- -- ------<br>------- --- ------ ----- --- ---- ------- -- ---- --- --<br>------- ------,251662.5,251661.29999999702,251207.794,251218.5,251224.381,251674.531,,8,of
screen,html.Screen,2_1_1_1_9,2022-02-17T16:49:28.839Z,,,,,,,,,,,,,,,,,54,,,,,,,,,,,,,,461.6689999955415,,response,,,,100,,,,,,,Space,keypress(Space),,,,,,,,-- --- ---- --- ------ ----- ------- ---- -- its ------- --<br>------- ---------- ------ -- ----- -- ----- -- ---- ------<br>--- ----- --- --- ------ -------- ----- --- ------ ----- --<br>----- ----- ---------- --- --- ------ ------ ---- -- ------<br>------- --- ------ ----- --- ---- ------- -- ---- --- --<br>------- ------,252137.29999999702,252136.19999999553,251657.77,251662.79999999702,251674.531,252141.014,,9,its
screen,html.Screen,2_1_1_1_10,2022-02-17T16:49:29.407Z,,,,,,,,,,,,,,,,,54,,,,,,,,,,,,,,563.2859999970242,,response,,,,100,,,,,,,Space,keypress(Space),,,,,,,,-- --- ---- --- ------ ----- ------- ---- -- --- revenue --<br>------- ---------- ------ -- ----- -- ----- -- ---- ------<br>--- ----- --- --- ------ -------- ----- --- ------ ----- --<br>----- ----- ---------- --- --- ------ ------ ---- -- ------<br>------- --- ------ ----- --- ---- ------- -- ---- --- --<br>------- ------,252705.3999999985,252704.29999999702,252124.348,252137.6000000015,252141.014,252739.025,,10,revenue
screen,html.Screen,2_1_1_1_11,2022-02-17T16:49:30.127Z,,,,,,,,,,,,,,,,,54,,,,,,,,,,,,,,685.6749999955355,,response,,,,100,,,,,,,Space,keypress(Space),,,,,,,,-- --- ---- --- ------ ----- ------- ---- -- --- ------- by<br>------- ---------- ------ -- ----- -- ----- -- ---- ------<br>--- ----- --- --- ------ -------- ----- --- ------ ----- --<br>----- ----- ---------- --- --- ------ ------ ---- -- ------<br>------- --- ------ ----- --- ---- ------- -- ---- --- --<br>------- ------,253426,253424.69999999553,252691.052,252705.69999999553,252739.025,253441.08,,11,by
screen,html.Screen,2_1_1_1_12,2022-02-17T16:49:30.586Z,,,,,,,,,,,,,,,,,54,,,,,,,,,,,,,,442.4200000000128,,response,,,,100,,,,,,,Space,keypress(Space),,,,,,,,-- --- ---- --- ------ ----- ------- ---- -- --- ------- --<br>issuing ---------- ------ -- ----- -- ----- -- ---- ------<br>--- ----- --- --- ------ -------- ----- --- ------ ----- --<br>----- ----- ---------- --- --- ------ ------ ---- -- ------<br>------- --- ------ ----- --- ---- ------- -- ---- --- --<br>------- ------,253884.79999999702,253883.5,253424.33,253426.29999999702,253441.08,253890.948,,12,issuing
screen,html.Screen,2_1_1_1_13,2022-02-17T16:49:31.161Z,,,,,,,,,,,,,,,,,54,,,,,,,,,,,,,,567.3519999970158,,response,,,,100,,,,,,,Space,keypress(Space),,,,,,,,-- --- ---- --- ------ ----- ------- ---- -- --- ------- --<br>------- government ------ -- ----- -- ----- -- ---- ------<br>--- ----- --- --- ------ -------- ----- --- ------ ----- --<br>----- ----- ---------- --- --- ------ ------ ---- -- ------<br>------- --- ------ ----- --- ---- ------- -- ---- --- --<br>------- ------,254459.5,254458.29999999702,253874.328,253885,253890.948,254474.347,,13,government
screen,html.Screen,2_1_1_1_14,2022-02-17T16:49:33.022Z,,,,,,,,,,,,,,,,,54,,,,,,,,,,,,,,1844.952999997011,,response,,,,100,,,,,,,Space,keypress(Space),,,,,,,,-- --- ---- --- ------ ----- ------- ---- -- --- ------- --<br>------- ---------- bonds. -- ----- -- ----- -- ---- ------<br>--- ----- --- --- ------ -------- ----- --- ------ ----- --<br>----- ----- ---------- --- --- ------ ------ ---- -- ------<br>------- --- ------ ----- --- ---- ------- -- ---- --- --<br>------- ------,256320.6000000015,256319.29999999702,254457.621,254459.79999999702,254474.347,256324.17,,14,bonds.
screen,html.Screen,2_1_1_1_15,2022-02-17T16:49:33.799Z,,,,,,,,,,,,,,,,,54,,,,,,,,,,,,,,772.8299999999872,,response,,,,100,,,,,,,Space,keypress(Space),,,,,,,,-- --- ---- --- ------ ----- ------- ---- -- --- ------- --<br>------- ---------- ------ In ----- -- ----- -- ---- ------<br>--- ----- --- --- ------ -------- ----- --- ------ ----- --<br>----- ----- ---------- --- --- ------ ------ ---- -- ------<br>------- --- ------ ----- --- ---- ------- -- ---- --- --<br>------- ------,257098.19999999553,257097,256307.495,256320.79999999702,256324.17,257107.431,,15,In
screen,html.Screen,2_1_1_1_16,2022-02-17T16:49:35.084Z,,,,,,,,,,,,,,,,,54,,,,,,,,,,,,,,1274.5689999999886,,response,,,,100,,,,,,,Space,keypress(Space),,,,,,,,"-- --- ---- --- ------ ----- ------- ---- -- --- ------- --<br>------- ---------- ------ -- 1727, -- ----- -- ---- ------<br>--- ----- --- --- ------ -------- ----- --- ------ ----- --<br>----- ----- ---------- --- --- ------ ------ ---- -- ------<br>------- --- ------ ----- --- ---- ------- -- ---- --- --<br>------- ------",258383.29999999702,258382,257090.778,257098.5,257107.431,258390.738,,16,"1727,"
screen,html.Screen,2_1_1_1_17,2022-02-17T16:49:36.062Z,,,,,,,,,,,,,,,,,54,,,,,,,,,,,,,,968.362000001478,,response,,,,100,,,,,,,Space,keypress(Space),,,,,,,,-- --- ---- --- ------ ----- ------- ---- -- --- ------- --<br>------- ---------- ------ -- ----- in ----- -- ---- ------<br>--- ----- --- --- ------ -------- ----- --- ------ ----- --<br>----- ----- ---------- --- --- ------ ------ ---- -- ------<br>------- --- ------ ----- --- ---- ------- -- ---- --- --<br>------- ------,259360.29999999702,259359.1000000015,258374.079,258383.5,258390.738,259390.822,,17,in
screen,html.Screen,2_1_1_1_18,2022-02-17T16:49:36.695Z,,,,,,,,,,,,,,,,,54,,,,,,,,,,,,,,601.8779999955441,,response,,,,100,,,,,,,Space,keypress(Space),,,,,,,,-- --- ---- --- ------ ----- ------- ---- -- --- ------- --<br>------- ---------- ------ -- ----- -- order -- ---- ------<br>--- ----- --- --- ------ -------- ----- --- ------ ----- --<br>----- ----- ---------- --- --- ------ ------ ---- -- ------<br>------- --- ------ ----- --- ---- ------- -- ---- --- --<br>------- ------,259993.79999999702,259992.69999999553,259374.084,259360.5,259390.822,260007.415,,18,order
screen,html.Screen,2_1_1_1_19,2022-02-17T16:49:37.120Z,,,,,,,,,,,,,,,,,54,,,,,,,,,,,,,,410.08499999999185,,response,,,,100,,,,,,,Space,keypress(Space),,,,,,,,-- --- ---- --- ------ ----- ------- ---- -- --- ------- --<br>------- ---------- ------ -- ----- -- ----- to ---- ------<br>--- ----- --- --- ------ -------- ----- --- ------ ----- --<br>----- ----- ---------- --- --- ------ ------ ---- -- ------<br>------- --- ------ ----- --- ---- ------- -- ---- --- --<br>------- ------,260418.69999999553,260417.5,259990.641,259994.19999999553,260007.415,260423.97,,19,to
screen,html.Screen,2_1_1_1_20,2022-02-17T16:49:37.645Z,,,,,,,,,,,,,,,,,54,,,,,,,,,,,,,,518.4299999985087,,response,,,,100,,,,,,,Space,keypress(Space),,,,,,,,-- --- ---- --- ------ ----- ------- ---- -- --- ------- --<br>------- ---------- ------ -- ----- -- ----- -- save ------<br>--- ----- --- --- ------ -------- ----- --- ------ ----- --<br>----- ----- ---------- --- --- ------ ------ ---- -- ------<br>------- --- ------ ----- --- ---- ------- -- ---- --- --<br>------- ------,260943.6000000015,260942.3999999985,260407.309,260419,260423.97,260957.373,,20,save
screen,html.Screen,2_1_1_1_21,2022-02-17T16:49:38.272Z,,,,,,,,,,,,,,,,,54,,,,,,,,,,,,,,612.6270000000077,,response,,,,100,,,,,,,Space,keypress(Space),,,,,,,,"-- --- ---- --- ------ ----- ------- ---- -- --- ------- --<br>------- ---------- ------ -- ----- -- ----- -- ---- money,<br>--- ----- --- --- ------ -------- ----- --- ------ ----- --<br>----- ----- ---------- --- --- ------ ------ ---- -- ------<br>------- --- ------ ----- --- ---- ------- -- ---- --- --<br>------- ------",261571.19999999553,261570,260940.703,260943.8999999985,260957.373,261573.925,,21,"money,"
screen,html.Screen,2_1_1_1_22,2022-02-17T16:49:38.974Z,,,,,,,,,,,,,,,,,54,,,,,,,,,,,,,,697.3749999970314,,response,,,,100,,,,,,,Space,keypress(Space),,,,,,,,-- --- ---- --- ------ ----- ------- ---- -- --- ------- --<br>------- ---------- ------ -- ----- -- ----- -- ---- ------<br>the ----- --- --- ------ -------- ----- --- ------ ----- --<br>----- ----- ---------- --- --- ------ ------ ---- -- ------<br>------- --- ------ ----- --- ---- ------- -- ---- --- --<br>------- ------,262272.3999999985,262271.299999997,261557.241,261571.5,261573.925,262290.638,,22,the
screen,html.Screen,2_1_1_1_23,2022-02-17T16:49:40.069Z,,,,,,,,,,,,,,,,,54,,,,,,,,,,,,,,1076.0619999955525,,response,,,,100,,,,,,,Space,keypress(Space),,,,,,,,-- --- ---- --- ------ ----- ------- ---- -- --- ------- --<br>------- ---------- ------ -- ----- -- ----- -- ---- ------<br>--- state --- --- ------ -------- ----- --- ------ ----- --<br>----- ----- ---------- --- --- ------ ------ ---- -- ------<br>------- --- ------ ----- --- ---- ------- -- ---- --- --<br>------- ------,263367.8999999985,263366.69999999553,262257.237,262272.69999999553,262290.638,263373.821,,23,state
screen,html.Screen,2_1_1_1_24,2022-02-17T16:49:41.493Z,,,,,,,,,,,,,,,,,54,,,,,,,,,,,,,,1416.2790000014938,,response,,,,100,,,,,,,Space,keypress(Space),,,,,,,,-- --- ---- --- ------ ----- ------- ---- -- --- ------- --<br>------- ---------- ------ -- ----- -- ----- -- ---- ------<br>--- ----- cut --- ------ -------- ----- --- ------ ----- --<br>----- ----- ---------- --- --- ------ ------ ---- -- ------<br>------- --- ------ ----- --- ---- ------- -- ---- --- --<br>------- ------,264791.3999999985,264790.1000000015,263357.107,263368.19999999553,263373.821,264807.248,,24,cut
screen,html.Screen,2_1_1_1_25,2022-02-17T16:49:41.860Z,,,,,,,,,,,,,,,,,54,,,,,,,,,,,,,,350.45199999550823,,response,,,,100,,,,,,,Space,keypress(Space),,,,,,,,-- --- ---- --- ------ ----- ------- ---- -- --- ------- --<br>------- ---------- ------ -- ----- -- ----- -- ---- ------<br>--- ----- --- the ------ -------- ----- --- ------ ----- --<br>----- ----- ---------- --- --- ------ ------ ---- -- ------<br>------- --- ------ ----- --- ---- ------- -- ---- --- --<br>------- ------,265158.8999999985,265157.69999999553,264790.452,264791.6000000015,264807.248,265173.884,,25,the
screen,html.Screen,2_1_1_1_26,2022-02-17T16:49:42.232Z,,,,,,,,,,,,,,,,,54,,,,,,,,,,,,,,355.61599999998,,response,,,,100,,,,,,,Space,keypress(Space),,,,,,,,-- --- ---- --- ------ ----- ------- ---- -- --- ------- --<br>------- ---------- ------ -- ----- -- ----- -- ---- ------<br>--- ----- --- --- bonds' -------- ----- --- ------ ----- --<br>----- ----- ---------- --- --- ------ ------ ---- -- ------<br>------- --- ------ ----- --- ---- ------- -- ---- --- --<br>------- ------,265530.69999999553,265529.5,265157.137,265159.1000000015,265173.884,265540.436,,26,bonds'
screen,html.Screen,2_1_1_1_27,2022-02-17T16:49:42.675Z,,,,,,,,,,,,,,,,,54,,,,,,,,,,,,,,432.06400000001304,,response,,,,100,,,,,,,Space,keypress(Space),,,,,,,,-- --- ---- --- ------ ----- ------- ---- -- --- ------- --<br>------- ---------- ------ -- ----- -- ----- -- ---- ------<br>--- ----- --- --- ------ interest ----- --- ------ ----- --<br>----- ----- ---------- --- --- ------ ------ ---- -- ------<br>------- --- ------ ----- --- ---- ------- -- ---- --- --<br>------- ------,265973.799999997,265972.5,265523.816,265531,265540.436,265990.506,,27,interest
screen,html.Screen,2_1_1_1_28,2022-02-17T16:49:43.140Z,,,,,,,,,,,,,,,,,54,,,,,,,,,,,,,,447.2939999970258,,response,,,,100,,,,,,,Space,keypress(Space),,,,,,,,-- --- ---- --- ------ ----- ------- ---- -- --- ------- --<br>------- ---------- ------ -- ----- -- ----- -- ---- ------<br>--- ----- --- --- ------ -------- rate. --- ------ ----- --<br>----- ----- ---------- --- --- ------ ------ ---- -- ------<br>------- --- ------ ----- --- ---- ------- -- ---- --- --<br>------- ------,266439,266437.799999997,265973.664,265974.19999999553,265990.506,266471.175,,28,rate.
screen,html.Screen,2_1_1_1_29,2022-02-17T16:49:44.505Z,,,,,,,,,,,,,,,,,54,,,,,,,,,,,,,,1331.5249999955413,,response,,,,100,,,,,,,Space,keypress(Space),,,,,,,,-- --- ---- --- ------ ----- ------- ---- -- --- ------- --<br>------- ---------- ------ -- ----- -- ----- -- ---- ------<br>--- ----- --- --- ------ -------- ----- The ------ ----- --<br>----- ----- ---------- --- --- ------ ------ ---- -- ------<br>------- --- ------ ----- --- ---- ------- -- ---- --- --<br>------- ------,267803.8999999985,267802.69999999553,266423.766,266439.19999999553,266471.175,267806.962,,29,The
screen,html.Screen,2_1_1_1_30,2022-02-17T16:49:44.927Z,,,,,,,,,,,,,,,,,54,,,,,,,,,,,,,,417.43799999851035,,response,,,,100,,,,,,,Space,keypress(Space),,,,,,,,-- --- ---- --- ------ ----- ------- ---- -- --- ------- --<br>------- ---------- ------ -- ----- -- ----- -- ---- ------<br>--- ----- --- --- ------ -------- ----- --- market ----- --<br>----- ----- ---------- --- --- ------ ------ ---- -- ------<br>------- --- ------ ----- --- ---- ------- -- ---- --- --<br>------- ------,268225.6000000015,268224.3999999985,267790.36,267804.1000000015,267806.962,268240.393,,30,market
screen,html.Screen,2_1_1_1_31,2022-02-17T16:49:45.296Z,,,,,,,,,,,,,,,,,54,,,,,,,,,,,,,,353.10700000001816,,response,,,,100,,,,,,,Space,keypress(Space),,,,,,,,-- --- ---- --- ------ ----- ------- ---- -- --- ------- --<br>------- ---------- ------ -- ----- -- ----- -- ---- ------<br>--- ----- --- --- ------ -------- ----- --- ------ value --<br>----- ----- ---------- --- --- ------ ------ ---- -- ------<br>------- --- ------ ----- --- ---- ------- -- ---- --- --<br>------- ------,268594.8999999985,268593.5,268223.729,268225.799999997,268240.393,268607.052,,31,value
screen,html.Screen,2_1_1_1_32,2022-02-17T16:49:45.696Z,,,,,,,,,,,,,,,,,54,,,,,,,,,,,,,,386.54800000146497,,response,,,,100,,,,,,,Space,keypress(Space),,,,,,,,-- --- ---- --- ------ ----- ------- ---- -- --- ------- --<br>------- ---------- ------ -- ----- -- ----- -- ---- ------<br>--- ----- --- --- ------ -------- ----- --- ------ ----- of<br>----- ----- ---------- --- --- ------ ------ ---- -- ------<br>------- --- ------ ----- --- ---- ------- -- ---- --- --<br>------- ------,268994.8999999985,268993.6000000015,268590.254,268595.19999999553,268607.052,269006.999,,32,of
screen,html.Screen,2_1_1_1_33,2022-02-17T16:49:46.046Z,,,,,,,,,,,,,,,,,54,,,,,,,,,,,,,,336.9009999984992,,response,,,,100,,,,,,,Space,keypress(Space),,,,,,,,-- --- ---- --- ------ ----- ------- ---- -- --- ------- --<br>------- ---------- ------ -- ----- -- ----- -- ---- ------<br>--- ----- --- --- ------ -------- ----- --- ------ ----- --<br>these ----- ---------- --- --- ------ ------ ---- -- ------<br>------- --- ------ ----- --- ---- ------- -- ---- --- --<br>------- ------,269345.1000000015,269343.8999999985,268990.309,268995.1000000015,269006.999,269356.964,,33,these
screen,html.Screen,2_1_1_1_34,2022-02-17T16:49:46.435Z,,,,,,,,,,,,,,,,,54,,,,,,,,,,,,,,375.0360000000219,,response,,,,100,,,,,,,Space,keypress(Space),,,,,,,,-- --- ---- --- ------ ----- ------- ---- -- --- ------- --<br>------- ---------- ------ -- ----- -- ----- -- ---- ------<br>--- ----- --- --- ------ -------- ----- --- ------ ----- --<br>----- bonds ---------- --- --- ------ ------ ---- -- ------<br>------- --- ------ ----- --- ---- ------- -- ---- --- --<br>------- ------,269733.3999999985,269732,269340.261,269345.3999999985,269356.964,269740.258,,34,bonds
screen,html.Screen,2_1_1_1_35,2022-02-17T16:49:46.764Z,,,,,,,,,,,,,,,,,54,,,,,,,,,,,,,,320.9419999955571,,response,,,,100,,,,,,,Space,keypress(Space),,,,,,,,"-- --- ---- --- ------ ----- ------- ---- -- --- ------- --<br>------- ---------- ------ -- ----- -- ----- -- ---- ------<br>--- ----- --- --- ------ -------- ----- --- ------ ----- --<br>----- ----- plummeted, --- --- ------ ------ ---- -- ------<br>------- --- ------ ----- --- ---- ------- -- ---- --- --<br>------- ------",270062.6000000015,270061.19999999553,269723.632,269733.6000000015,269740.258,270073.614,,35,"plummeted,"
screen,html.Screen,2_1_1_1_36,2022-02-17T16:49:47.307Z,,,,,,,,,,,,,,,,,54,,,,,,,,,,,,,,530.5859999955283,,response,,,,100,,,,,,,Space,keypress(Space),,,,,,,,-- --- ---- --- ------ ----- ------- ---- -- --- ------- --<br>------- ---------- ------ -- ----- -- ----- -- ---- ------<br>--- ----- --- --- ------ -------- ----- --- ------ ----- --<br>----- ----- ---------- and --- ------ ------ ---- -- ------<br>------- --- ------ ----- --- ---- ------- -- ---- --- --<br>------- ------,270605.3999999985,270604.19999999553,270056.863,270062.799999997,270073.614,270626.572,,36,and
screen,html.Screen,2_1_1_1_37,2022-02-17T16:49:48.571Z,,,,,,,,,,,,,,,,,54,,,,,,,,,,,,,,1241.8279999985243,,response,,,,100,,,,,,,Space,keypress(Space),,,,,,,,-- --- ---- --- ------ ----- ------- ---- -- --- ------- --<br>------- ---------- ------ -- ----- -- ----- -- ---- ------<br>--- ----- --- --- ------ -------- ----- --- ------ ----- --<br>----- ----- ---------- --- the ------ ------ ---- -- ------<br>------- --- ------ ----- --- ---- ------- -- ---- --- --<br>------- ------,271869.6000000015,271868.3999999985,270590.156,270605.6000000015,270626.572,271873.466,,37,the
screen,html.Screen,2_1_1_1_38,2022-02-17T16:49:49.250Z,,,,,,,,,,,,,,,,,54,,,,,,,,,,,,,,673.6340000014752,,response,,,,100,,,,,,,Space,keypress(Space),,,,,,,,-- --- ---- --- ------ ----- ------- ---- -- --- ------- --<br>------- ---------- ------ -- ----- -- ----- -- ---- ------<br>--- ----- --- --- ------ -------- ----- --- ------ ----- --<br>----- ----- ---------- --- --- market ------ ---- -- ------<br>------- --- ------ ----- --- ---- ------- -- ---- --- --<br>------- ------,272548.5,272547.1000000015,271856.799,271869.8999999985,271873.466,272556.771,,38,market
screen,html.Screen,2_1_1_1_39,2022-02-17T16:49:49.720Z,,,,,,,,,,,,,,,,,54,,,,,,,,,,,,,,460.92899999552174,,response,,,,100,,,,,,,Space,keypress(Space),,,,,,,,-- --- ---- --- ------ ----- ------- ---- -- --- ------- --<br>------- ---------- ------ -- ----- -- ----- -- ---- ------<br>--- ----- --- --- ------ -------- ----- --- ------ ----- --<br>----- ----- ---------- --- --- ------ became ---- -- ------<br>------- --- ------ ----- --- ---- ------- -- ---- --- --<br>------- ------,273018.8999999985,273017.69999999553,272540.124,272548.69999999553,272556.771,273023.358,,39,became
screen,html.Screen,2_1_1_1_40,2022-02-17T16:49:50.287Z,,,,,,,,,,,,,,,,,54,,,,,,,,,,,,,,561.7420000014827,,response,,,,100,,,,,,,Space,keypress(Space),,,,,,,,-- --- ---- --- ------ ----- ------- ---- -- --- ------- --<br>------- ---------- ------ -- ----- -- ----- -- ---- ------<br>--- ----- --- --- ------ -------- ----- --- ------ ----- --<br>----- ----- ---------- --- --- ------ ------ wary -- ------<br>------- --- ------ ----- --- ---- ------- -- ---- --- --<br>------- ------,273586.299999997,273585.1000000015,273006.75,273019.19999999553,273023.358,273590.024,,40,wary
screen,html.Screen,2_1_1_1_41,2022-02-17T16:49:50.696Z,,,,,,,,,,,,,,,,,54,,,,,,,,,,,,,,403.17599999555387,,response,,,,100,,,,,,,Space,keypress(Space),,,,,,,,-- --- ---- --- ------ ----- ------- ---- -- --- ------- --<br>------- ---------- ------ -- ----- -- ----- -- ---- ------<br>--- ----- --- --- ------ -------- ----- --- ------ ----- --<br>----- ----- ---------- --- --- ------ ------ ---- of ------<br>------- --- ------ ----- --- ---- ------- -- ---- --- --<br>------- ------,273994.6000000015,273993.19999999553,273573.415,273586.5,273590.024,274006.762,,41,of
screen,html.Screen,2_1_1_1_42,2022-02-17T16:49:51.089Z,,,,,,,,,,,,,,,,,54,,,,,,,,,,,,,,379.3380000015022,,response,,,,100,,,,,,,Space,keypress(Space),,,,,,,,-- --- ---- --- ------ ----- ------- ---- -- --- ------- --<br>------- ---------- ------ -- ----- -- ----- -- ---- ------<br>--- ----- --- --- ------ -------- ----- --- ------ ----- --<br>----- ----- ---------- --- --- ------ ------ ---- -- French<br>------- --- ------ ----- --- ---- ------- -- ---- --- --<br>------- ------,274387.3999999985,274386.1000000015,273990.001,273994.799999997,274006.762,274390,,42,French
screen,html.Screen,2_1_1_1_43,2022-02-17T16:49:51.629Z,,,,,,,,,,,,,,,,,54,,,,,,,,,,,,,,536.8999999985099,,response,,,,100,,,,,,,Space,keypress(Space),,,,,,,,-- --- ---- --- ------ ----- ------- ---- -- --- ------- --<br>------- ---------- ------ -- ----- -- ----- -- ---- ------<br>--- ----- --- --- ------ -------- ----- --- ------ ----- --<br>----- ----- ---------- --- --- ------ ------ ---- -- ------<br>credit. --- ------ ----- --- ---- ------- -- ---- --- --<br>------- ------,274928.1000000015,274926.8999999985,274373.292,274387.6000000015,274390,274940.052,,43,credit.
screen,html.Screen,2_1_1_1_44,2022-02-17T16:49:52.093Z,,,,,,,,,,,,,,,,,54,,,,,,,,,,,,,,450.04800000146497,,response,,,,100,,,,,,,Space,keypress(Space),,,,,,,,-- --- ---- --- ------ ----- ------- ---- -- --- ------- --<br>------- ---------- ------ -- ----- -- ----- -- ---- ------<br>--- ----- --- --- ------ -------- ----- --- ------ ----- --<br>----- ----- ---------- --- --- ------ ------ ---- -- ------<br>------- The ------ ----- --- ---- ------- -- ---- --- --<br>------- ------,275391.299999997,275390.1000000015,274923.284,274928.299999997,274940.052,275406.69,,44,The
screen,html.Screen,2_1_1_1_45,2022-02-17T16:49:52.578Z,,,,,,,,,,,,,,,,,54,,,,,,,,,,,,,,468.8099999999977,,response,,,,100,,,,,,,Space,keypress(Space),,,,,,,,-- --- ---- --- ------ ----- ------- ---- -- --- ------- --<br>------- ---------- ------ -- ----- -- ----- -- ---- ------<br>--- ----- --- --- ------ -------- ----- --- ------ ----- --<br>----- ----- ---------- --- --- ------ ------ ---- -- ------<br>------- --- French ----- --- ---- ------- -- ---- --- --<br>------- ------,275876.69999999553,275875.5,275389.897,275391.5,275406.69,275889.961,,45,French
screen,html.Screen,2_1_1_1_46,2022-02-17T16:49:52.940Z,,,,,,,,,,,,,,,,,54,,,,,,,,,,,,,,347.8389999970095,,response,,,,100,,,,,,,Space,keypress(Space),,,,,,,,-- --- ---- --- ------ ----- ------- ---- -- --- ------- --<br>------- ---------- ------ -- ----- -- ----- -- ---- ------<br>--- ----- --- --- ------ -------- ----- --- ------ ----- --<br>----- ----- ---------- --- --- ------ ------ ---- -- ------<br>------- --- ------ state --- ---- ------- -- ---- --- --<br>------- ------,276239.1000000015,276237.799999997,275873.24,275877,275889.961,276256.627,,46,state
screen,html.Screen,2_1_1_1_47,2022-02-17T16:49:53.381Z,,,,,,,,,,,,,,,,,54,,,,,,,,,,,,,,421.97300000151154,,response,,,,100,,,,,,,Space,keypress(Space),,,,,,,,-- --- ---- --- ------ ----- ------- ---- -- --- ------- --<br>------- ---------- ------ -- ----- -- ----- -- ---- ------<br>--- ----- --- --- ------ -------- ----- --- ------ ----- --<br>----- ----- ---------- --- --- ------ ------ ---- -- ------<br>------- --- ------ ----- was ---- ------- -- ---- --- --<br>------- ------,276679.8999999985,276678.6000000015,276239.887,276239.3999999985,276256.627,276689.962,,47,was
screen,html.Screen,2_1_1_1_48,2022-02-17T16:49:53.829Z,,,,,,,,,,,,,,,,,54,,,,,,,,,,,,,,437.03800000000047,,response,,,,100,,,,,,,Space,keypress(Space),,,,,,,,-- --- ---- --- ------ ----- ------- ---- -- --- ------- --<br>------- ---------- ------ -- ----- -- ----- -- ---- ------<br>--- ----- --- --- ------ -------- ----- --- ------ ----- --<br>----- ----- ---------- --- --- ------ ------ ---- -- ------<br>------- --- ------ ----- --- left ------- -- ---- --- --<br>------- ------,277128.1000000015,277127,276673.208,276680.1000000015,276689.962,277139.99,,48,left
screen,html.Screen,2_1_1_1_49,2022-02-17T16:49:54.423Z,,,,,,,,,,,,,,,,,54,,,,,,,,,,,,,,580.8099999970291,,response,,,,100,,,,,,,Space,keypress(Space),,,,,,,,-- --- ---- --- ------ ----- ------- ---- -- --- ------- --<br>------- ---------- ------ -- ----- -- ----- -- ---- ------<br>--- ----- --- --- ------ -------- ----- --- ------ ----- --<br>----- ----- ---------- --- --- ------ ------ ---- -- ------<br>------- --- ------ ----- --- ---- without -- ---- --- --<br>------- ------,277722,277720.799999997,277123.176,277128.3999999985,277139.99,277748.094,,49,without
screen,html.Screen,2_1_1_1_50,2022-02-17T16:49:55.161Z,,,,,,,,,,,,,,,,,54,,,,,,,,,,,,,,710.3059999985271,,response,,,,100,,,,,,,Space,keypress(Space),,,,,,,,-- --- ---- --- ------ ----- ------- ---- -- --- ------- --<br>------- ---------- ------ -- ----- -- ----- -- ---- ------<br>--- ----- --- --- ------ -------- ----- --- ------ ----- --<br>----- ----- ---------- --- --- ------ ------ ---- -- ------<br>------- --- ------ ----- --- ---- ------- an ---- --- --<br>------- ------,278459.6000000015,278458.3999999985,277706.473,277722.19999999553,277748.094,278473.234,,50,an
screen,html.Screen,2_1_1_1_51,2022-02-17T16:49:55.516Z,,,,,,,,,,,,,,,,,54,,,,,,,,,,,,,,340.565999997023,,response,,,,100,,,,,,,Space,keypress(Space),,,,,,,,-- --- ---- --- ------ ----- ------- ---- -- --- ------- --<br>------- ---------- ------ -- ----- -- ----- -- ---- ------<br>--- ----- --- --- ------ -------- ----- --- ------ ----- --<br>----- ----- ---------- --- --- ------ ------ ---- -- ------<br>------- --- ------ ----- --- ---- ------- -- easy --- --<br>------- ------,278815.19999999553,278813.799999997,278456.442,278459.8999999985,278473.234,278823.251,,51,easy
screen,html.Screen,2_1_1_1_52,2022-02-17T16:49:55.907Z,,,,,,,,,,,,,,,,,54,,,,,,,,,,,,,,380.94899999554036,,response,,,,100,,,,,,,Space,keypress(Space),,,,,,,,-- --- ---- --- ------ ----- ------- ---- -- --- ------- --<br>------- ---------- ------ -- ----- -- ----- -- ---- ------<br>--- ----- --- --- ------ -------- ----- --- ------ ----- --<br>----- ----- ---------- --- --- ------ ------ ---- -- ------<br>------- --- ------ ----- --- ---- ------- -- ---- way --<br>------- ------,279205.5,279204.19999999553,278806.437,278815.5,278823.251,279239.828,,52,way
screen,html.Screen,2_1_1_1_53,2022-02-17T16:49:56.389Z,,,,,,,,,,,,,,,,,54,,,,,,,,,,,,,,446.97199999704026,,response,,,,100,,,,,,,Space,keypress(Space),,,,,,,,-- --- ---- --- ------ ----- ------- ---- -- --- ------- --<br>------- ---------- ------ -- ----- -- ----- -- ---- ------<br>--- ----- --- --- ------ -------- ----- --- ------ ----- --<br>----- ----- ---------- --- --- ------ ------ ---- -- ------<br>------- --- ------ ----- --- ---- ------- -- ---- --- of<br>------- ------,279688,279686.799999997,279223.104,279205.799999997,279239.828,279715.445,,53,of
screen,html.Screen,2_1_1_1_54,2022-02-17T16:49:56.870Z,,,,,,,,,,,,,,,,,54,,,,,,,,,,,,,,452.4549999985029,,response,,,,100,,,,,,,Space,keypress(Space),,,,,,,,-- --- ---- --- ------ ----- ------- ---- -- --- ------- --<br>------- ---------- ------ -- ----- -- ----- -- ---- ------<br>--- ----- --- --- ------ -------- ----- --- ------ ----- --<br>----- ----- ---------- --- --- ------ ------ ---- -- ------<br>------- --- ------ ----- --- ---- ------- -- ---- --- --<br>raising ------,280169.1000000015,280167.8999999985,279673.037,279688.19999999553,279715.445,280173.063,,54,raising
screen,html.Screen,2_1_1_1_55,2022-02-17T16:50:03.566Z,,,,,,,,,,,,,,,,,54,,,,,,,,,,,,,,6690.936999999976,,response,,,,100,,,,,,,Space,keypress(Space),,,,,,,,-- --- ---- --- ------ ----- ------- ---- -- --- ------- --<br>------- ---------- ------ -- ----- -- ----- -- ---- ------<br>--- ----- --- --- ------ -------- ----- --- ------ ----- --<br>----- ----- ---------- --- --- ------ ------ ---- -- ------<br>------- --- ------ ----- --- ---- ------- -- ---- --- --<br>------- money.,286865.19999999553,286864,280156.446,280169.3999999985,280173.063,286872.734,,55,money.
Item 100,flow.Loop,2_1_1_1,2022-02-17T16:50:03.567Z,,,,,,,,,,,,,,,,,,,,,,,,,,,,,,,40155.962,,completion,,,,,F,,,,,,,,,,,silence,,,,,286865.69999999553,286864,246691.298,246693.29999999702,246708.038,286872.734,,,
Question 1,html.Screen,2_1_1_2,2022-02-17T16:50:14.758Z,,,,,,,,,,,,,,,,,,,,,,,,,,,,true,TRUE,,11183.465999995533,,response,,,,100,F,,,,,,TRUE,click #choice-1,,,,silence,,,,,298057.1000000015,298056.19999999553,286855.803,286865.8999999985,286872.734,298072.122,,,
Question 2,html.Screen,2_1_1_3,2022-02-17T16:50:21.474Z,,,,,,,,,,,,,,,,,,,,,,,,,,,,true,FALSE,,6700.077999995556,,response,,,,100,F,,,,,,FALSE,click #choice-2,,,,silence,,,,,304773,304772.19999999553,298055.457,298057.19999999553,298072.122,304788.474,,,
Item 100,flow.Sequence,2_1_1,2022-02-17T16:50:21.474Z,,,,,,,,,,,,,,,,,,,,,,,,,,,,,,,68063.83899999553,,completion,,,,,,,,,,,,,,,,,,,,,304773.19999999553,304772.19999999553,236691.696,236678.8999999985,236708.361,304788.474,,,
End of Practice,html.Page,2_1_2,2022-02-17T16:50:34.244Z,,,,,,,,,,,,,,,,,,,,,,,,,,,,,,,12754.325999997032,,form submission,,,,,,,,,,,,,,,,,,,,,317543,317542.799999997,304771.811,304773.299999997,304788.474,317554.546,,,
Practice,flow.Sequence,2_1,2022-02-17T16:50:34.244Z,,,,,,,,,,,,,,,,,,,,,,,,,,,,,,,140648.29399999703,,completion,,,,,,,,,,,,,,,,,,,,,317543.299999997,317542.799999997,176877.821,176862.8999999985,176894.506,317554.546,,,
Trap_instruction,html.Page,2_2_0,2022-02-17T16:50:41.651Z,,,,,,,,,,,,,,,,,,,,,,,,,,,,,,,7395.153999995557,,form submission,,,,,,,,,,,,,,,,,,,,,324949.8999999985,324949.69999999553,317537.856,317543.3999999985,317554.546,324970.846,,,
trap_trial,html.Screen,2_2_1,2022-02-17T16:50:45.495Z,,,,,,,,,,,,,,,,,,,,,,,,,,,,true,1,,3822.6539999999804,,response,,,,,,,,,,,1,click #choice-1,,,,,,,,,328794.19999999553,328793.5,324954.208,324950,324970.846,328804.15,,,
end of trap trial,html.Page,2_2_2,2022-02-17T16:50:47.935Z,,,,,,,,,,,,,,,,,,,,,,,,,,,,,,,2429.8499999999767,,form submission,,,,,,,,,,,,,,,,,,,,,331234.19999999553,331234,328787.354,328794.299999997,328804.15,331237.22,,,
Trap 1,flow.Sequence,2_2,2022-02-17T16:50:47.936Z,,,,,,,,,,,,,,,,,,,,,,,,,,,,,,,13679.454000000027,,completion,,,,,,,,,,,,,,,,,,,,,331234.299999997,331234,317537.856,317543.3999999985,317554.546,331237.22,,,
Standby,html.Page,2_3_0,2022-02-17T16:50:55.923Z,,,,,,,,,,,,,,,,,,,,,,,,,,,,,,,7999.716000000015,,timeout,,,,,,,,,,,,,,,,,,,,,339221.299999997,339220.277,331220.569,331234.5,331237.22,339236.936,,,
Holding screen,html.Screen,2_3_1_0_0,2022-02-17T16:51:02.922Z,,,,,,,,,,,,,,,,,,,,,,,,,,,,,,,6999.6570000000065,,timeout,,,,,,,,,,,,,,,,,,,,,346221,346220.065,339220.277,339223.19999999553,339236.936,346236.593,,,
screen,html.Screen,2_3_1_0_1_0,2022-02-17T16:51:03.764Z,,,,,,,,,,,,,,,,,2,,,,,,,,,,,,,,824.9070000000065,,response,,,,1,F,,,,,,Space,keypress(Space),,,,instrumental,,,,Two ---- ------ --- ------- ---------- ------- ----------<br>--- --------- --- ----------- ------- ----- ------- ---<br>--------- ---- -- --- ---- -- --------- -- ---- -------<br>-- --------- ------ --- ----- ------ ---- --- --------- --<br>------ - ---- -- --- ----------- ------- ---- ----- -----<br>--- -------- - ------ ---- -- ----- ---- --- --- -----------<br>-- -------,347063,347061.5,346220.065,346221.299999997,346236.593,347069.937,,0,Two
screen,html.Screen,2_3_1_0_1_1,2022-02-17T16:51:04.215Z,,,,,,,,,,,,,,,,,2,,,,,,,,,,,,,,442.46299999853363,,response,,,,1,F,,,,,,Space,keypress(Space),,,,instrumental,,,,--- days ------ --- ------- ---------- ------- ----------<br>--- --------- --- ----------- ------- ----- ------- ---<br>--------- ---- -- --- ---- -- --------- -- ---- -------<br>-- --------- ------ --- ----- ------ ---- --- --------- --<br>------ - ---- -- --- ----------- ------- ---- ----- -----<br>--- -------- - ------ ---- -- ----- ---- --- --- -----------<br>-- -------,347513.5,347512.3999999985,347053.259,347063.299999997,347069.937,347519.856,,1,days
screen,html.Screen,2_3_1_0_1_2,2022-02-17T16:51:04.645Z,,,,,,,,,,,,,,,,,2,,,,,,,,,,,,,,422.74400000146125,,response,,,,1,F,,,,,,Space,keypress(Space),,,,instrumental,,,,"--- ---- later, --- ------- ---------- ------- ----------<br>--- --------- --- ----------- ------- ----- ------- ---<br>--------- ---- -- --- ---- -- --------- -- ---- -------<br>-- --------- ------ --- ----- ------ ---- --- --------- --<br>------ - ---- -- --- ----------- ------- ---- ----- -----<br>--- -------- - ------ ---- -- ----- ---- --- --- -----------<br>-- -------",347944,347942.6000000015,347503.203,347513.69999999553,347519.856,347953.181,,2,"later,"
screen,html.Screen,2_3_1_0_1_3,2022-02-17T16:51:05.033Z,,,,,,,,,,,,,,,,,2,,,,,,,,,,,,,,377.01899999554735,,response,,,,1,F,,,,,,Space,keypress(Space),,,,instrumental,,,,--- ---- ------ the ------- ---------- ------- ----------<br>--- --------- --- ----------- ------- ----- ------- ---<br>--------- ---- -- --- ---- -- --------- -- ---- -------<br>-- --------- ------ --- ----- ------ ---- --- --------- --<br>------ - ---- -- --- ----------- ------- ---- ----- -----<br>--- -------- - ------ ---- -- ----- ---- --- --- -----------<br>-- -------,348331.3999999985,348330.19999999553,347936.519,347944.3999999985,347953.181,348336.47,,3,the
screen,html.Screen,2_3_1_0_1_4,2022-02-17T16:51:05.408Z,,,,,,,,,,,,,,,,,2,,,,,,,,,,,,,,368.8299999970477,,response,,,,1,F,,,,,,Space,keypress(Space),,,,instrumental,,,,--- ---- ------ --- British ---------- ------- ----------<br>--- --------- --- ----------- ------- ----- ------- ---<br>--------- ---- -- --- ---- -- --------- -- ---- -------<br>-- --------- ------ --- ----- ------ ---- --- --------- --<br>------ - ---- -- --- ----------- ------- ---- ----- -----<br>--- -------- - ------ ---- -- ----- ---- --- --- -----------<br>-- -------,348706.299999997,348705.299999997,348319.827,348331.69999999553,348336.47,348719.963,,4,British
screen,html.Screen,2_3_1_0_1_5,2022-02-17T16:51:05.809Z,,,,,,,,,,,,,,,,,2,,,,,,,,,,,,,,386.7369999955408,,response,,,,1,F,,,,,,Space,keypress(Space),,,,instrumental,,,,--- ---- ------ --- ------- astronomer ------- ----------<br>--- --------- --- ----------- ------- ----- ------- ---<br>--------- ---- -- --- ---- -- --------- -- ---- -------<br>-- --------- ------ --- ----- ------ ---- --- --------- --<br>------ - ---- -- --- ----------- ------- ---- ----- -----<br>--- -------- - ------ ---- -- ----- ---- --- --- -----------<br>-- -------,349107.69999999553,349106.69999999553,348703.212,348706.6000000015,348719.963,349120.032,,5,astronomer
screen,html.Screen,2_3_1_0_1_6,2022-02-17T16:51:06.585Z,,,,,,,,,,,,,,,,,2,,,,,,,,,,,,,,762.0680000014836,,response,,,,1,F,,,,,,Space,keypress(Space),,,,instrumental,,,,--- ---- ------ --- ------- ---------- Richard ----------<br>--- --------- --- ----------- ------- ----- ------- ---<br>--------- ---- -- --- ---- -- --------- -- ---- -------<br>-- --------- ------ --- ----- ------ ---- --- --------- --<br>------ - ---- -- --- ----------- ------- ---- ----- -----<br>--- -------- - ------ ---- -- ----- ---- --- --- -----------<br>-- -------,349883.299999997,349882.1000000015,349103.134,349108.1000000015,349120.032,349886.429,,6,Richard
screen,html.Screen,2_3_1_0_1_7,2022-02-17T16:51:07.435Z,,,,,,,,,,,,,,,,,2,,,,,,,,,,,,,,846.4709999985062,,response,,,,1,F,,,,,,Space,keypress(Space),,,,instrumental,,,,--- ---- ------ --- ------- ---------- ------- Carrington<br>--- --------- --- ----------- ------- ----- ------- ---<br>--------- ---- -- --- ---- -- --------- -- ---- -------<br>-- --------- ------ --- ----- ------ ---- --- --------- --<br>------ - ---- -- --- ----------- ------- ---- ----- -----<br>--- -------- - ------ ---- -- ----- ---- --- --- -----------<br>-- -------,350734.19999999553,350732.8999999985,349869.759,349883.6000000015,349886.429,350736.351,,7,Carrington
screen,html.Screen,2_3_1_0_1_8,2022-02-17T16:51:08.623Z,,,,,,,,,,,,,,,,,2,,,,,,,,,,,,,,1184.3489999955054,,response,,,,1,F,,,,,,Space,keypress(Space),,,,instrumental,,,,--- ---- ------ --- ------- ---------- ------- ----------<br>was --------- --- ----------- ------- ----- ------- ---<br>--------- ---- -- --- ---- -- --------- -- ---- -------<br>-- --------- ------ --- ----- ------ ---- --- --------- --<br>------ - ---- -- --- ----------- ------- ---- ----- -----<br>--- -------- - ------ ---- -- ----- ---- --- --- -----------<br>-- -------,351921.799999997,351920.69999999553,350719.752,350734.3999999985,350736.351,351936.421,,8,was
screen,html.Screen,2_3_1_0_1_9,2022-02-17T16:51:09.254Z,,,,,,,,,,,,,,,,,2,,,,,,,,,,,,,,614.6790000015171,,response,,,,1,F,,,,,,Space,keypress(Space),,,,instrumental,,,,--- ---- ------ --- ------- ---------- ------- ----------<br>--- observing --- ----------- ------- ----- ------- ---<br>--------- ---- -- --- ---- -- --------- -- ---- -------<br>-- --------- ------ --- ----- ------ ---- --- --------- --<br>------ - ---- -- --- ----------- ------- ---- ----- -----<br>--- -------- - ------ ---- -- ----- ---- --- --- -----------<br>-- -------,352552.299999997,352551.1000000015,351919.628,351922.1000000015,351936.421,352569.761,,9,observing
screen,html.Screen,2_3_1_0_1_10,2022-02-17T16:51:10.077Z,,,,,,,,,,,,,,,,,2,,,,,,,,,,,,,,804.938999995531,,response,,,,1,F,,,,,,Space,keypress(Space),,,,instrumental,,,,--- ---- ------ --- ------- ---------- ------- ----------<br>--- --------- the ----------- ------- ----- ------- ---<br>--------- ---- -- --- ---- -- --------- -- ---- -------<br>-- --------- ------ --- ----- ------ ---- --- --------- --<br>------ - ---- -- --- ----------- ------- ---- ----- -----<br>--- -------- - ------ ---- -- ----- ---- --- --- -----------<br>-- -------,353376,353374.69999999553,352552.994,352552.5,352569.761,353386.308,,10,the
screen,html.Screen,2_3_1_0_1_11,2022-02-17T16:51:10.602Z,,,,,,,,,,,,,,,,,2,,,,,,,,,,,,,,512.9919999970007,,response,,,,1,F,,,,,,Space,keypress(Space),,,,instrumental,,,,--- ---- ------ --- ------- ---------- ------- ----------<br>--- --------- --- interesting ------- ----- ------- ---<br>--------- ---- -- --- ---- -- --------- -- ---- -------<br>-- --------- ------ --- ----- ------ ---- --- --------- --<br>------ - ---- -- --- ----------- ------- ---- ----- -----<br>--- -------- - ------ ---- -- ----- ---- --- --- -----------<br>-- -------,353900.6000000015,353899.299999997,353369.565,353376.299999997,353386.308,353902.912,,11,interesting
screen,html.Screen,2_3_1_0_1_12,2022-02-17T16:51:10.976Z,,,,,,,,,,,,,,,,,2,,,,,,,,,,,,,,370.18800000147894,,response,,,,1,F,,,,,,Space,keypress(Space),,,,instrumental,,,,--- ---- ------ --- ------- ---------- ------- ----------<br>--- --------- --- ----------- sunspot ----- ------- ---<br>--------- ---- -- --- ---- -- --------- -- ---- -------<br>-- --------- ------ --- ----- ------ ---- --- --------- --<br>------ - ---- -- --- ----------- ------- ---- ----- -----<br>--- -------- - ------ ---- -- ----- ---- --- --- -----------<br>-- -------,354274.69999999553,354273.1000000015,353886.224,353900.8999999985,353902.912,354286.292,,12,sunspot
screen,html.Screen,2_3_1_0_1_13,2022-02-17T16:51:11.433Z,,,,,,,,,,,,,,,,,2,,,,,,,,,,,,,,444.70799999998417,,response,,,,1,F,,,,,,Space,keypress(Space),,,,instrumental,,,,--- ---- ------ --- ------- ---------- ------- ----------<br>--- --------- --- ----------- ------- group ------- ---<br>--------- ---- -- --- ---- -- --------- -- ---- -------<br>-- --------- ------ --- ----- ------ ---- --- --------- --<br>------ - ---- -- --- ----------- ------- ---- ----- -----<br>--- -------- - ------ ---- -- ----- ---- --- --- -----------<br>-- -------,354732.299999997,354731,354269.557,354275,354286.292,354736.223,,13,group
screen,html.Screen,2_3_1_0_1_14,2022-02-17T16:51:11.839Z,,,,,,,,,,,,,,,,,2,,,,,,,,,,,,,,400.377000001492,,response,,,,1,F,,,,,,Space,keypress(Space),,,,instrumental,,,,--- ---- ------ --- ------- ---------- ------- ----------<br>--- --------- --- ----------- ------- ----- through ---<br>--------- ---- -- --- ---- -- --------- -- ---- -------<br>-- --------- ------ --- ----- ------ ---- --- --------- --<br>------ - ---- -- --- ----------- ------- ---- ----- -----<br>--- -------- - ------ ---- -- ----- ---- --- --- -----------<br>-- -------,355138.1000000015,355136.6000000015,354719.531,354732.5,354736.223,355152.976,,14,through
screen,html.Screen,2_3_1_0_1_15,2022-02-17T16:51:12.262Z,,,,,,,,,,,,,,,,,2,,,,,,,,,,,,,,406.5239999999758,,response,,,,1,F,,,,,,Space,keypress(Space),,,,instrumental,,,,--- ---- ------ --- ------- ---------- ------- ----------<br>--- --------- --- ----------- ------- ----- ------- his<br>--------- ---- -- --- ---- -- --------- -- ---- -------<br>-- --------- ------ --- ----- ------ ---- --- --------- --<br>------ - ---- -- --- ----------- ------- ---- ----- -----<br>--- -------- - ------ ---- -- ----- ---- --- --- -----------<br>-- -------,355560.69999999553,355559.5,355136.234,355138.299999997,355152.976,355569.488,,15,his
screen,html.Screen,2_3_1_0_1_16,2022-02-17T16:51:13.025Z,,,,,,,,,,,,,,,,,2,,,,,,,,,,,,,,752.612000001478,,response,,,,1,F,,,,,,Space,keypress(Space),,,,instrumental,,,,--- ---- ------ --- ------- ---------- ------- ----------<br>--- --------- --- ----------- ------- ----- ------- ---<br>telescope ---- -- --- ---- -- --------- -- ---- -------<br>-- --------- ------ --- ----- ------ ---- --- --------- --<br>------ - ---- -- --- ----------- ------- ---- ----- -----<br>--- -------- - ------ ---- -- ----- ---- --- --- -----------<br>-- -------,356323.5,356322.1000000015,355552.819,355560.8999999985,355569.488,356336.196,,16,telescope
screen,html.Screen,2_3_1_0_1_17,2022-02-17T16:51:13.371Z,,,,,,,,,,,,,,,,,2,,,,,,,,,,,,,,332.2039999985136,,response,,,,1,F,,,,,,Space,keypress(Space),,,,instrumental,,,,--- ---- ------ --- ------- ---------- ------- ----------<br>--- --------- --- ----------- ------- ----- ------- ---<br>--------- when -- --- ---- -- --------- -- ---- -------<br>-- --------- ------ --- ----- ------ ---- --- --------- --<br>------ - ---- -- --- ----------- ------- ---- ----- -----<br>--- -------- - ------ ---- -- ----- ---- --- --- -----------<br>-- -------,356669.6000000015,356668.3999999985,356319.438,356323.799999997,356336.196,356686.16,,17,when
screen,html.Screen,2_3_1_0_1_18,2022-02-17T16:51:13.707Z,,,,,,,,,,,,,,,,,2,,,,,,,,,,,,,,317.9400000015157,,response,,,,1,F,,,,,,Space,keypress(Space),,,,instrumental,,,,--- ---- ------ --- ------- ---------- ------- ----------<br>--- --------- --- ----------- ------- ----- ------- ---<br>--------- ---- he --- ---- -- --------- -- ---- -------<br>-- --------- ------ --- ----- ------ ---- --- --------- --<br>------ - ---- -- --- ----------- ------- ---- ----- -----<br>--- -------- - ------ ---- -- ----- ---- --- --- -----------<br>-- -------,357005.69999999553,357004.1000000015,356669.444,356669.799999997,356686.16,357019.544,,18,he
screen,html.Screen,2_3_1_0_1_19,2022-02-17T16:51:14.028Z,,,,,,,,,,,,,,,,,2,,,,,,,,,,,,,,305.9560000000056,,response,,,,1,F,,,,,,Space,keypress(Space),,,,instrumental,,,,--- ---- ------ --- ------- ---------- ------- ----------<br>--- --------- --- ----------- ------- ----- ------- ---<br>--------- ---- -- saw ---- -- --------- -- ---- -------<br>-- --------- ------ --- ----- ------ ---- --- --------- --<br>------ - ---- -- --- ----------- ------- ---- ----- -----<br>--- -------- - ------ ---- -- ----- ---- --- --- -----------<br>-- -------,357326.69999999553,357325.5,357002.748,357005.8999999985,357019.544,357336.099,,19,saw
screen,html.Screen,2_3_1_0_1_20,2022-02-17T16:51:14.317Z,,,,,,,,,,,,,,,,,2,,,,,,,,,,,,,,278.9010000000126,,response,,,,1,F,,,,,,Space,keypress(Space),,,,instrumental,,,,--- ---- ------ --- ------- ---------- ------- ----------<br>--- --------- --- ----------- ------- ----- ------- ---<br>--------- ---- -- --- what -- --------- -- ---- -------<br>-- --------- ------ --- ----- ------ ---- --- --------- --<br>------ - ---- -- --- ----------- ------- ---- ----- -----<br>--- -------- - ------ ---- -- ----- ---- --- --- -----------<br>-- -------,357616.19999999553,357615,357319.436,357326.8999999985,357336.099,357619.429,,20,what
screen,html.Screen,2_3_1_0_1_21,2022-02-17T16:51:14.596Z,,,,,,,,,,,,,,,,,2,,,,,,,,,,,,,,273.87099999701604,,response,,,,1,F,,,,,,Space,keypress(Space),,,,instrumental,,,,--- ---- ------ --- ------- ---------- ------- ----------<br>--- --------- --- ----------- ------- ----- ------- ---<br>--------- ---- -- --- ---- he --------- -- ---- -------<br>-- --------- ------ --- ----- ------ ---- --- --------- --<br>------ - ---- -- --- ----------- ------- ---- ----- -----<br>--- -------- - ------ ---- -- ----- ---- --- --- -----------<br>-- -------,357894.799999997,357893.299999997,357602.777,357616.5,357619.429,357902.724,,21,he
screen,html.Screen,2_3_1_0_1_22,2022-02-17T16:51:14.915Z,,,,,,,,,,,,,,,,,2,,,,,,,,,,,,,,310.2760000000126,,response,,,,1,F,,,,,,Space,keypress(Space),,,,instrumental,,,,--- ---- ------ --- ------- ---------- ------- ----------<br>--- --------- --- ----------- ------- ----- ------- ---<br>--------- ---- -- --- ---- -- described -- ---- -------<br>-- --------- ------ --- ----- ------ ---- --- --------- --<br>------ - ---- -- --- ----------- ------- ---- ----- -----<br>--- -------- - ------ ---- -- ----- ---- --- --- -----------<br>-- -------,358214.299999997,358213,357886.119,357895.1000000015,357902.724,358219.343,,22,described
screen,html.Screen,2_3_1_0_1_23,2022-02-17T16:51:15.322Z,,,,,,,,,,,,,,,,,2,,,,,,,,,,,,,,400.6570000000065,,response,,,,1,F,,,,,,Space,keypress(Space),,,,instrumental,,,,--- ---- ------ --- ------- ---------- ------- ----------<br>--- --------- --- ----------- ------- ----- ------- ---<br>--------- ---- -- --- ---- -- --------- as ---- -------<br>-- --------- ------ --- ----- ------ ---- --- --------- --<br>------ - ---- -- --- ----------- ------- ---- ----- -----<br>--- -------- - ------ ---- -- ----- ---- --- --- -----------<br>-- -------,358621.19999999553,358620,358202.704,358214.6000000015,358219.343,358636.03,,23,as
screen,html.Screen,2_3_1_0_1_24,2022-02-17T16:51:15.724Z,,,,,,,,,,,,,,,,,2,,,,,,,,,,,,,,385.46999999997206,,response,,,,1,F,,,,,,Space,keypress(Space),,,,instrumental,,,,"--- ---- ------ --- ------- ---------- ------- ----------<br>--- --------- --- ----------- ------- ----- ------- ---<br>--------- ---- -- --- ---- -- --------- -- ""two -------<br>-- --------- ------ --- ----- ------ ---- --- --------- --<br>------ - ---- -- --- ----------- ------- ---- ----- -----<br>--- -------- - ------ ---- -- ----- ---- --- --- -----------<br>-- -------",359022.69999999553,359021.5,358619.421,358621.3999999985,358636.03,359036.086,,24,"""two"
screen,html.Screen,2_3_1_0_1_25,2022-02-17T16:51:16.168Z,,,,,,,,,,,,,,,,,2,,,,,,,,,,,,,,429.41399999998976,,response,,,,1,F,,,,,,Space,keypress(Space),,,,instrumental,,,,--- ---- ------ --- ------- ---------- ------- ----------<br>--- --------- --- ----------- ------- ----- ------- ---<br>--------- ---- -- --- ---- -- --------- -- ---- patches<br>-- --------- ------ --- ----- ------ ---- --- --------- --<br>------ - ---- -- --- ----------- ------- ---- ----- -----<br>--- -------- - ------ ---- -- ----- ---- --- --- -----------<br>-- -------,359466.799999997,359465.5,359019.327,359022.8999999985,359036.086,359469.308,,25,patches
screen,html.Screen,2_3_1_0_1_26,2022-02-17T16:51:16.551Z,,,,,,,,,,,,,,,,,2,,,,,,,,,,,,,,379.6919999999809,,response,,,,1,F,,,,,,Space,keypress(Space),,,,instrumental,,,,--- ---- ------ --- ------- ---------- ------- ----------<br>--- --------- --- ----------- ------- ----- ------- ---<br>--------- ---- -- --- ---- -- --------- -- ---- -------<br>of --------- ------ --- ----- ------ ---- --- --------- --<br>------ - ---- -- --- ----------- ------- ---- ----- -----<br>--- -------- - ------ ---- -- ----- ---- --- --- -----------<br>-- -------,359850.19999999553,359849,359452.633,359467.1000000015,359469.308,359852.622,,26,of
screen,html.Screen,2_3_1_0_1_27,2022-02-17T16:51:16.886Z,,,,,,,,,,,,,,,,,2,,,,,,,,,,,,,,331.07799999555573,,response,,,,1,F,,,,,,Space,keypress(Space),,,,instrumental,,,,--- ---- ------ --- ------- ---------- ------- ----------<br>--- --------- --- ----------- ------- ----- ------- ---<br>--------- ---- -- --- ---- -- --------- -- ---- -------<br>-- intensely ------ --- ----- ------ ---- --- --------- --<br>------ - ---- -- --- ----------- ------- ---- ----- -----<br>--- -------- - ------ ---- -- ----- ---- --- --- -----------<br>-- -------,360185.299999997,360183.69999999553,359836.014,359850.3999999985,359852.622,360202.756,,27,intensely
screen,html.Screen,2_3_1_0_1_28,2022-02-17T16:51:17.238Z,,,,,,,,,,,,,,,,,2,,,,,,,,,,,,,,332.4439999955357,,response,,,,1,F,,,,,,Space,keypress(Space),,,,instrumental,,,,--- ---- ------ --- ------- ---------- ------- ----------<br>--- --------- --- ----------- ------- ----- ------- ---<br>--------- ---- -- --- ---- -- --------- -- ---- -------<br>-- --------- bright --- ----- ------ ---- --- --------- --<br>------ - ---- -- --- ----------- ------- ---- ----- -----<br>--- -------- - ------ ---- -- ----- ---- --- --- -----------<br>-- -------,360536.69999999553,360535.19999999553,360185.961,360185.6000000015,360202.756,360552.676,,28,bright
screen,html.Screen,2_3_1_0_1_29,2022-02-17T16:51:17.627Z,,,,,,,,,,,,,,,,,2,,,,,,,,,,,,,,372.523999995552,,response,,,,1,F,,,,,,Space,keypress(Space),,,,instrumental,,,,--- ---- ------ --- ------- ---------- ------- ----------<br>--- --------- --- ----------- ------- ----- ------- ---<br>--------- ---- -- --- ---- -- --------- -- ---- -------<br>-- --------- ------ and ----- ------ ---- --- --------- --<br>------ - ---- -- --- ----------- ------- ---- ----- -----<br>--- -------- - ------ ---- -- ----- ---- --- --- -----------<br>-- -------,360926.299999997,360925.19999999553,360535.908,360537,360552.676,360935.935,,29,and
screen,html.Screen,2_3_1_0_1_30,2022-02-17T16:51:18.368Z,,,,,,,,,,,,,,,,,2,,,,,,,,,,,,,,729.5650000000023,,response,,,,1,F,,,,,,Space,keypress(Space),,,,instrumental,,,,--- ---- ------ --- ------- ---------- ------- ----------<br>--- --------- --- ----------- ------- ----- ------- ---<br>--------- ---- -- --- ---- -- --------- -- ---- -------<br>-- --------- ------ --- white ------ ---- --- --------- --<br>------ - ---- -- --- ----------- ------- ---- ----- -----<br>--- -------- - ------ ---- -- ----- ---- --- --- -----------<br>-- -------,361666.69999999553,361665.5,360919.237,360926.6000000015,360935.935,361669.211,,30,white
screen,html.Screen,2_3_1_0_1_31,2022-02-17T16:51:18.885Z,,,,,,,,,,,,,,,,,2,,,,,,,,,,,,,,513.6889999984996,,response,,,,1,F,,,,,,Space,keypress(Space),,,,instrumental,,,,"--- ---- ------ --- ------- ---------- ------- ----------<br>--- --------- --- ----------- ------- ----- ------- ---<br>--------- ---- -- --- ---- -- --------- -- ---- -------<br>-- --------- ------ --- ----- light"" ---- --- --------- --<br>------ - ---- -- --- ----------- ------- ---- ----- -----<br>--- -------- - ------ ---- -- ----- ---- --- --- -----------<br>-- -------",362184.3999999985,362182.8999999985,361652.549,361667,361669.211,362218.01,,31,"light"""
screen,html.Screen,2_3_1_0_1_32,2022-02-17T16:51:19.421Z,,,,,,,,,,,,,,,,,2,,,,,,,,,,,,,,500.18999999552034,,response,,,,1,F,,,,,,Space,keypress(Space),,,,instrumental,,,,--- ---- ------ --- ------- ---------- ------- ----------<br>--- --------- --- ----------- ------- ----- ------- ---<br>--------- ---- -- --- ---- -- --------- -- ---- -------<br>-- --------- ------ --- ----- ------ over --- --------- --<br>------ - ---- -- --- ----------- ------- ---- ----- -----<br>--- -------- - ------ ---- -- ----- ---- --- --- -----------<br>-- -------,362719.5,362718.19999999553,362169.245,362184.69999999553,362218.01,362735.915,,32,over
screen,html.Screen,2_3_1_0_1_33,2022-02-17T16:51:20.150Z,,,,,,,,,,,,,,,,,2,,,,,,,,,,,,,,712.1850000015111,,response,,,,1,F,,,,,,Space,keypress(Space),,,,instrumental,,,,--- ---- ------ --- ------- ---------- ------- ----------<br>--- --------- --- ----------- ------- ----- ------- ---<br>--------- ---- -- --- ---- -- --------- -- ---- -------<br>-- --------- ------ --- ----- ------ ---- the --------- --<br>------ - ---- -- --- ----------- ------- ---- ----- -----<br>--- -------- - ------ ---- -- ----- ---- --- --- -----------<br>-- -------,363449.3999999985,363448.1000000015,362719.203,362719.69999999553,362735.915,363452.455,,33,the
screen,html.Screen,2_3_1_0_1_34,2022-02-17T16:51:20.563Z,,,,,,,,,,,,,,,,,2,,,,,,,,,,,,,,407.9449999984936,,response,,,,1,F,,,,,,Space,keypress(Space),,,,instrumental,,,,--- ---- ------ --- ------- ---------- ------- ----------<br>--- --------- --- ----------- ------- ----- ------- ---<br>--------- ---- -- --- ---- -- --------- -- ---- -------<br>-- --------- ------ --- ----- ------ ---- --- sunspots. --<br>------ - ---- -- --- ----------- ------- ---- ----- -----<br>--- -------- - ------ ---- -- ----- ---- --- --- -----------<br>-- -------,363861.6000000015,363860.3999999985,363435.773,363449.6000000015,363452.455,363869.108,,34,sunspots.
screen,html.Screen,2_3_1_0_1_35,2022-02-17T16:51:21.350Z,,,,,,,,,,,,,,,,,2,,,,,,,,,,,,,,778.4920000014827,,response,,,,1,F,,,,,,Space,keypress(Space),,,,instrumental,,,,--- ---- ------ --- ------- ---------- ------- ----------<br>--- --------- --- ----------- ------- ----- ------- ---<br>--------- ---- -- --- ---- -- --------- -- ---- -------<br>-- --------- ------ --- ----- ------ ---- --- --------- He<br>------ - ---- -- --- ----------- ------- ---- ----- -----<br>--- -------- - ------ ---- -- ----- ---- --- --- -----------<br>-- -------,364648.799999997,364647.6000000015,363852.433,363861.799999997,363869.108,364652.408,,35,He
screen,html.Screen,2_3_1_0_1_36,2022-02-17T16:51:21.740Z,,,,,,,,,,,,,,,,,2,,,,,,,,,,,,,,384.89199999702396,,response,,,,1,F,,,,,,Space,keypress(Space),,,,instrumental,,,,--- ---- ------ --- ------- ---------- ------- ----------<br>--- --------- --- ----------- ------- ----- ------- ---<br>--------- ---- -- --- ---- -- --------- -- ---- -------<br>-- --------- ------ --- ----- ------ ---- --- --------- --<br>jotted - ---- -- --- ----------- ------- ---- ----- -----<br>--- -------- - ------ ---- -- ----- ---- --- --- -----------<br>-- -------,365038.6000000015,365037.299999997,364635.782,364649,364652.408,365052.497,,36,jotted
screen,html.Screen,2_3_1_0_1_37,2022-02-17T16:51:22.057Z,,,,,,,,,,,,,,,,,2,,,,,,,,,,,,,,301.30299999704584,,response,,,,1,F,,,,,,Space,keypress(Space),,,,instrumental,,,,--- ---- ------ --- ------- ---------- ------- ----------<br>--- --------- --- ----------- ------- ----- ------- ---<br>--------- ---- -- --- ---- -- --------- -- ---- -------<br>-- --------- ------ --- ----- ------ ---- --- --------- --<br>------ a ---- -- --- ----------- ------- ---- ----- -----<br>--- -------- - ------ ---- -- ----- ---- --- --- -----------<br>-- -------,365355.5,365353.799999997,365035.714,365038.8999999985,365052.497,365369.11,,37,a
