sender,sender_type,sender_id,timestamp,meta,,Blues,Classical,Country,Dance,Electronic,Folk,Gospel,Hip-Hop,Jazz,Latin,Musical/Film,New-age,Pop,Prolific_id,Provo_ID,R&B,Rap,Reggae,Religious,Rock,Soul,Swing,Traditional,age,artist_name,correct,correctResponse,distraction,duration,education,ended_on,familiarity,gender,headphone_check_performance,item,list,music_frequency,offensiveness,pleasantness,position_correct,preference,response,response_action,snippet_file,song_name,song_rating,sound,stimulus_1,stimulus_2,stimulus_3,text,time_commit,time_end,time_render,time_run,time_show,time_switch,url,word,word_ID
Prolific ID,html.Form,0,2022-02-17T14:36:58.702Z,"{""labjs_version"":""20.2.2"",""labjs_build"":{""flavor"":""production"",""commit"":""a25486e0c714a0ae2ce03ff94b7bb6896854dcfa""},""location"":""https://run.pavlovia.org/mvasilev/prolific2_music_e/"",""userAgent"":""Mozilla/5.0 (Windows NT 10.0; Win64; x64) AppleWebKit/537.36 (KHTML, like Gecko) Chrome/98.0.4758.102 Safari/537.36"",""platform"":""Win32"",""language"":""en-US"",""locale"":""en-GB"",""timeZone"":""Europe/London"",""timezoneOffset"":0,""screen_width"":1366,""screen_height"":768,""scroll_width"":1707,""scroll_height"":733,""window_innerWidth"":1707,""window_innerHeight"":781,""devicePixelRatio"":0.800000011920929}",,,,,,,,,,,,,,,5efb8358f81cbe0f08950fe4,,,,,,,,,,,,,,,9329.760999998507,,form submission,,,,,,,,,,,,,,,,,,,,,49906,49904.39999999851,40490.799,40491.79999999702,40574.639,49933.645,{},,
Introduction,html.Screen,1_0,2022-02-17T14:37:02.524Z,,,,,,,,,,,,,,,,,,,,,,,,,,,,,,,3786.754999998513,,response,,,,,,,,,,,continue,click button,,,,,,,,,53728.599999997765,53720.39999999851,49883.341,49907.599999997765,49933.645,53757.491,,,
Volume calibration,html.Screen,1_1,2022-02-17T14:37:20.839Z,,,,,,,,,,,,,,,,,,,,,,,,,,,,,,,18276.208999999253,,response,,,,,,,,,,,continue,click button,,,,,,,,,72044.19999999925,72033.69999999925,53707.187,53728.89999999851,53757.491,72055.33,,,
Task instructions,html.Screen,1_2,2022-02-17T14:37:29.057Z,,,,,,,,,,,,,,,,,,,,,,,,,,,,,,,8203.769999997763,,response,,,,,,,,,,,continue,click button,,,,,,,,,80261.79999999702,80259.09999999776,72021.794,72044.29999999702,72055.33,80273.419,,,
Sounds,html.Screen,1_3_0_0,2022-02-17T14:37:33.301Z,,,,,,,,,,,,,,,,,,,,,,,,,,,,,,,4242.676000000007,,timeout,,,,,,,,,1,,,,,,,,S,O,I,,84505.69999999925,84499.327,80256.651,80262.59999999776,80273.419,84516.095,,,
Judgement,html.Screen,1_3_0_1,2022-02-17T14:37:34.504Z,,,,,,,,,,,,,,,,,,,,,,,,,,,,false,1,,1189.3049999985087,,response,,,,,,,,,1,,2,click #choice-2,,,,,S,O,I,,85708.59999999776,85705.39999999851,84499.327,84506.19999999925,84516.095,85707.715,,,
Trial,flow.Sequence,1_3_0,2022-02-17T14:37:34.506Z,,,,,,,,,,,,,,,,,,,,,,,,,,,,,,,5431.9809999985155,,completion,,,,,,,,,1,,,,,,,,S,O,I,,85711.09999999776,85705.39999999851,80256.651,80262.5,80273.419,85707.715,,,
Sounds,html.Screen,1_3_1_0,2022-02-17T14:37:38.730Z,,,,,,,,,,,,,,,,,,,,,,,,,,,,,,,4242.309000000008,,timeout,,,,,,,,,2,,,,,,,,O,S,I,,89934.79999999702,89933.256,85690.947,85711.89999999851,85707.715,89950.024,,,
Judgement,html.Screen,1_3_1_1,2022-02-17T14:37:39.708Z,,,,,,,,,,,,,,,,,,,,,,,,,,,,true,2,,959.67599999925,,response,,,,,,,,,2,,2,click #choice-2,,,,,O,S,I,,90913.19999999925,90909.69999999925,89933.256,89935.19999999925,89950.024,90923.504,,,
Trial,flow.Sequence,1_3_1,2022-02-17T14:37:39.709Z,,,,,,,,,,,,,,,,,,,,,,,,,,,,,,,5201.984999999258,,completion,,,,,,,,,2,,,,,,,,O,S,I,,90914.29999999702,90909.69999999925,85690.947,85711.5,85707.715,90923.504,,,
Sounds,html.Screen,1_3_2_0,2022-02-17T14:37:43.947Z,,,,,,,,,,,,,,,,,,,,,,,,,,,,,,,4242.520000000004,,timeout,,,,,,,,,2,,,,,,,,I,S,O,,95151.79999999702,95149.256,90906.736,90915,90923.504,95166.024,,,
Judgement,html.Screen,1_3_2_1,2022-02-17T14:37:44.543Z,,,,,,,,,,,,,,,,,,,,,,,,,,,,true,2,,579.17599999925,,response,,,,,,,,,2,,2,click #choice-2,,,,,I,S,O,,95747.69999999925,95745.19999999925,95149.256,95152.09999999776,95166.024,95753.967,,,
Trial,flow.Sequence,1_3_2,2022-02-17T14:37:44.544Z,,,,,,,,,,,,,,,,,,,,,,,,,,,,,,,4821.695999999254,,completion,,,,,,,,,2,,,,,,,,I,S,O,,95748.89999999851,95745.19999999925,90906.736,90914.69999999925,90923.504,95753.967,,,
Sounds,html.Screen,1_3_3_0,2022-02-17T14:37:48.777Z,,,,,,,,,,,,,,,,,,,,,,,,,,,,,,,4242.385999999999,,timeout,,,,,,,,,3,,,,,,,,I,O,S,,99981.89999999851,99979.585,95737.199,95749.29999999702,95753.967,99996.353,,,
Judgement,html.Screen,1_3_3_1,2022-02-17T14:37:49.312Z,,,,,,,,,,,,,,,,,,,,,,,,,,,,true,3,,518.246999997762,,response,,,,,,,,,3,,3,click #choice-3,,,,,I,O,S,,100517.09999999776,100514.59999999776,99979.585,99982.19999999925,99996.353,100517.115,,,
Trial,flow.Sequence,1_3_3,2022-02-17T14:37:49.314Z,,,,,,,,,,,,,,,,,,,,,,,,,,,,,,,4760.632999997761,,completion,,,,,,,,,3,,,,,,,,I,O,S,,100518.5,100514.59999999776,95737.199,95749.19999999925,95753.967,100517.115,,,
Sounds,html.Screen,1_3_4_0,2022-02-17T14:37:53.540Z,,,,,,,,,,,,,,,,,,,,,,,,,,,,,,,4242.398000000001,,timeout,,,,,,,,,1,,,,,,,,S,I,O,,104745,104742.745,100500.347,100520,100517.115,104759.513,,,
Judgement,html.Screen,1_3_4_1,2022-02-17T14:37:54.355Z,,,,,,,,,,,,,,,,,,,,,,,,,,,,true,1,,796.6869999992487,,response,,,,,,,,,1,,1,click #choice-1,,,,,S,I,O,,105559.5,105556.19999999925,104742.745,104745.29999999702,104759.513,105565.655,,,
Trial,flow.Sequence,1_3_4,2022-02-17T14:37:54.355Z,,,,,,,,,,,,,,,,,,,,,,,,,,,,,,,5039.08499999925,,completion,,,,,,,,,1,,,,,,,,S,I,O,,105560,105556.19999999925,100500.347,100519.79999999702,100517.115,105565.655,,,
Sounds,html.Screen,1_3_5_0,2022-02-17T14:37:58.588Z,,,,,,,,,,,,,,,,,,,,,,,,,,,,,,,4242.072,,timeout,,,,,,,,,3,,,,,,,,O,I,S,,109792.59999999776,109790.959,105548.887,105560.39999999851,105565.655,109807.727,,,
Judgement,html.Screen,1_3_5_1,2022-02-17T14:37:59.078Z,,,,,,,,,,,,,,,,,,,,,,,,,,,,true,3,,472.77300000000105,,response,,,,,,,,,3,,3,click #choice-3,,,,,O,I,S,,110283.09999999776,110280.5,109790.959,109792.89999999851,109807.727,110311.807,,,
Trial,flow.Sequence,1_3_5,2022-02-17T14:37:59.079Z,,,,,,,,,,,,,,,,,,,,,,,,,,,,,,,4714.845000000001,,completion,,,,,,,,,3,,,,,,,,O,I,S,,110284,110280.5,105548.887,105560.19999999925,105565.655,110311.807,,,
Task,flow.Loop,1_3,2022-02-17T14:37:59.093Z,,,,,,,,,,,,,,,,,,,,,,,,,,,,,,,30007.081000000006,,completion,,,0.8333333333333334,,,,,,,,,,,,,,,,,,110297.69999999925,110280.5,80256.651,80262.29999999702,80273.419,110311.807,,,
Trap,html.Screen,1_4,2022-02-17T14:37:59.096Z,,,,,,,,,,,,,,,,,,,,,,,,,,,,,,,NaN,,skipped,,,,,,,,,,,,,,,,,,,,,110300.69999999925,110280.5,,110300.39999999851,,110311.807,,,
Thanks,html.Screen,1_5,2022-02-17T14:38:05.431Z,,,,,,,,,,,,,,,,,,,,,,,,,,,,,,,6321.092999998509,,response,,,,,,,,,,,continue,click button,,,,,,,,,116636.19999999925,116632.89999999851,110278.271,110301,110311.807,120424.542,,,
Headphone screening,flow.Sequence,1,2022-02-17T14:38:05.433Z,,,,,,,,,,,,,,,,,,,,,,,,,,,,,,,66699.25499999852,,completion,,,,,,,,,,,,,,,,,,,,,116637.89999999851,116632.89999999851,49883.341,49907.39999999851,49933.645,120424.542,,,
Instructions,html.Page,2_0,2022-02-17T14:38:24.962Z,,,,,,,,,,,,,,,,,,,,,,,,,,,,,,,15740.757999997018,,form submission,,,,,,,,,,,,,,,,,,,,,136166.59999999776,136165.29999999702,120357.47,120404.69999999925,120424.542,136190.578,,,
Holding screen,html.Screen,2_1_0_0,2022-02-17T14:38:34.967Z,,,,,,,,,,,,,,,,,,,,,,,,,,,,,,,10029.318999999989,,timeout,,,,,,,,,,,,,,,,,,,,,146172.19999999925,146169.593,136157.042,136167.29999999702,136190.578,146219.897,,,
screen,html.Screen,2_1_0_1_0,2022-02-17T14:38:35.924Z,,,,,,,,,,,,,,,,,53,,,,,,,,,,,,,,903.1030000000028,,response,,,,99,,,,,,,Space,keypress(Space),,,,,,,,When -- ----- -- ------ - ------- --- ----------<br>------------- ------ ------ ---- ---- ------- ----- -- ----<br>-------- ------- -- ---------- --- - --- ----- ----- ----<br>---- --- --- ----- --- ---- ---- ------- ----- ---- -------<br>--- --- -- ----- -- --- ---- -- --- ---- -- ------ ------<br>--- ----- -- ----,147128.59999999776,147123,146169.593,146172.69999999925,146219.897,147142.376,,0,When
screen,html.Screen,2_1_0_1_1,2022-02-17T14:38:36.455Z,,,,,,,,,,,,,,,,,53,,,,,,,,,,,,,,516.6240000000107,,response,,,,99,,,,,,,Space,keypress(Space),,,,,,,,---- it ----- -- ------ - ------- --- ----------<br>------------- ------ ------ ---- ---- ------- ----- -- ----<br>-------- ------- -- ---------- --- - --- ----- ----- ----<br>---- --- --- ----- --- ---- ---- ------- ----- ---- -------<br>--- --- -- ----- -- --- ---- -- --- ---- -- ------ ------<br>--- ----- -- ----,147660,147659,147125.608,147129.09999999776,147142.376,147662.435,,1,it
screen,html.Screen,2_1_0_1_2,2022-02-17T14:38:36.955Z,,,,,,,,,,,,,,,,,53,,,,,,,,,,,,,,496.26499999925727,,response,,,,99,,,,,,,Space,keypress(Space),,,,,,,,---- -- comes -- ------ - ------- --- ----------<br>------------- ------ ------ ---- ---- ------- ----- -- ----<br>-------- ------- -- ---------- --- - --- ----- ----- ----<br>---- --- --- ----- --- ---- ---- ------- ----- ---- -------<br>--- --- -- ----- -- --- ---- -- --- ---- -- ------ ------<br>--- ----- -- ----,148159.69999999925,148158.69999999925,147645.667,147660.19999999925,147662.435,148165.627,,2,comes
screen,html.Screen,2_1_0_1_3,2022-02-17T14:38:37.319Z,,,,,,,,,,,,,,,,,53,,,,,,,,,,,,,,357.07299999924726,,response,,,,99,,,,,,,Space,keypress(Space),,,,,,,,---- -- ----- to ------ - ------- --- ----------<br>------------- ------ ------ ---- ---- ------- ----- -- ----<br>-------- ------- -- ---------- --- - --- ----- ----- ----<br>---- --- --- ----- --- ---- ---- ------- ----- ---- -------<br>--- --- -- ----- -- --- ---- -- --- ---- -- ------ ------<br>--- ----- -- ----,148524,148522.69999999925,148148.859,148160,148165.627,148534.547,,3,to
screen,html.Screen,2_1_0_1_4,2022-02-17T14:38:37.721Z,,,,,,,,,,,,,,,,,53,,,,,,,,,,,,,,390.15299999926356,,response,,,,99,,,,,,,Space,keypress(Space),,,,,,,,---- -- ----- -- having - ------- --- ----------<br>------------- ------ ------ ---- ---- ------- ----- -- ----<br>-------- ------- -- ---------- --- - --- ----- ----- ----<br>---- --- --- ----- --- ---- ---- ------- ----- ---- -------<br>--- --- -- ----- -- --- ---- -- --- ---- -- ------ ------<br>--- ----- -- ----,148926.09999999776,148924.69999999925,148517.779,148524.3999999985,148534.547,148937.106,,4,having
screen,html.Screen,2_1_0_1_5,2022-02-17T14:38:38.125Z,,,,,,,,,,,,,,,,,53,,,,,,,,,,,,,,391.2939999985101,,response,,,,99,,,,,,,Space,keypress(Space),,,,,,,,---- -- ----- -- ------ a ------- --- ----------<br>------------- ------ ------ ---- ---- ------- ----- -- ----<br>-------- ------- -- ---------- --- - --- ----- ----- ----<br>---- --- --- ----- --- ---- ---- ------- ----- ---- -------<br>--- --- -- ----- -- --- ---- -- --- ---- -- ------ ------<br>--- ----- -- ----,149330,149328.3999999985,148920.338,148926.3999999985,148937.106,149339.618,,5,a
screen,html.Screen,2_1_0_1_6,2022-02-17T14:38:38.502Z,,,,,,,,,,,,,,,,,53,,,,,,,,,,,,,,366.2819999985222,,response,,,,99,,,,,,,Space,keypress(Space),,,,,,,,---- -- ----- -- ------ - lasting --- ----------<br>------------- ------ ------ ---- ---- ------- ----- -- ----<br>-------- ------- -- ---------- --- - --- ----- ----- ----<br>---- --- --- ----- --- ---- ---- ------- ----- ---- -------<br>--- --- -- ----- -- --- ---- -- --- ---- -- ------ ------<br>--- ----- -- ----,149707,149705.8999999985,149322.85,149330.3999999985,149339.618,149708.577,,6,lasting
screen,html.Screen,2_1_0_1_7,2022-02-17T14:38:38.917Z,,,,,,,,,,,,,,,,,53,,,,,,,,,,,,,,412.1229999992647,,response,,,,99,,,,,,,Space,keypress(Space),,,,,,,,---- -- ----- -- ------ - ------- and ----------<br>------------- ------ ------ ---- ---- ------- ----- -- ----<br>-------- ------- -- ---------- --- - --- ----- ----- ----<br>---- --- --- ----- --- ---- ---- ------- ----- ---- -------<br>--- --- -- ----- -- --- ---- -- --- ---- -- ------ ------<br>--- ----- -- ----,150121.8999999985,150120.69999999925,149691.809,149707.29999999702,149708.577,150127.833,,7,and
screen,html.Screen,2_1_0_1_8,2022-02-17T14:38:39.315Z,,,,,,,,,,,,,,,,,53,,,,,,,,,,,,,,390.76699999775155,,response,,,,99,,,,,,,Space,keypress(Space),,,,,,,,---- -- ----- -- ------ - ------- --- fulfilling<br>------------- ------ ------ ---- ---- ------- ----- -- ----<br>-------- ------- -- ---------- --- - --- ----- ----- ----<br>---- --- --- ----- --- ---- ---- ------- ----- ---- -------<br>--- --- -- ----- -- --- ---- -- --- ---- -- ------ ------<br>--- ----- -- ----,150519.8999999985,150518.59999999776,150111.065,150122.09999999776,150127.833,150530.416,,8,fulfilling
screen,html.Screen,2_1_0_1_9,2022-02-17T14:38:39.741Z,,,,,,,,,,,,,,,,,53,,,,,,,,,,,,,,414.7839999992575,,response,,,,99,,,,,,,Space,keypress(Space),,,,,,,,"---- -- ----- -- ------ - ------- --- ----------<br>relationship, ------ ------ ---- ---- ------- ----- -- ----<br>-------- ------- -- ---------- --- - --- ----- ----- ----<br>---- --- --- ----- --- ---- ---- ------- ----- ---- -------<br>--- --- -- ----- -- --- ---- -- --- ---- -- ------ ------<br>--- ----- -- ----",150946.19999999925,150945.19999999925,150513.648,150520.29999999702,150530.416,150949.665,,9,"relationship,"
screen,html.Screen,2_1_0_1_10,2022-02-17T14:38:40.154Z,,,,,,,,,,,,,,,,,53,,,,,,,,,,,,,,407.5349999992468,,response,,,,99,,,,,,,Space,keypress(Space),,,,,,,,---- -- ----- -- ------ - ------- --- ----------<br>------------- common ------ ---- ---- ------- ----- -- ----<br>-------- ------- -- ---------- --- - --- ----- ----- ----<br>---- --- --- ----- --- ---- ---- ------- ----- ---- -------<br>--- --- -- ----- -- --- ---- -- --- ---- -- ------ ------<br>--- ----- -- ----,151358.69999999925,151357.19999999925,150932.897,150946.69999999925,150949.665,151368.996,,10,common
screen,html.Screen,2_1_0_1_11,2022-02-17T14:38:40.603Z,,,,,,,,,,,,,,,,,53,,,,,,,,,,,,,,436.80399999700603,,response,,,,99,,,,,,,Space,keypress(Space),,,,,,,,---- -- ----- -- ------ - ------- --- ----------<br>------------- ------ wisdom ---- ---- ------- ----- -- ----<br>-------- ------- -- ---------- --- - --- ----- ----- ----<br>---- --- --- ----- --- ---- ---- ------- ----- ---- -------<br>--- --- -- ----- -- --- ---- -- --- ---- -- ------ ------<br>--- ----- -- ----,151807.19999999925,151805.79999999702,151352.228,151359,151368.996,151821.889,,11,wisdom
screen,html.Screen,2_1_0_1_12,2022-02-17T14:38:41.031Z,,,,,,,,,,,,,,,,,53,,,,,,,,,,,,,,413.1110000000044,,response,,,,99,,,,,,,Space,keypress(Space),,,,,,,,---- -- ----- -- ------ - ------- --- ----------<br>------------- ------ ------ says ---- ------- ----- -- ----<br>-------- ------- -- ---------- --- - --- ----- ----- ----<br>---- --- --- ----- --- ---- ---- ------- ----- ---- -------<br>--- --- -- ----- -- --- ---- -- --- ---- -- ------ ------<br>--- ----- -- ----,152236.09999999776,152235,151805.121,151807.59999999776,151821.889,152241.119,,12,says
screen,html.Screen,2_1_0_1_13,2022-02-17T14:38:41.362Z,,,,,,,,,,,,,,,,,53,,,,,,,,,,,,,,324.78099999850383,,response,,,,99,,,,,,,Space,keypress(Space),,,,,,,,---- -- ----- -- ------ - ------- --- ----------<br>------------- ------ ------ ---- that ------- ----- -- ----<br>-------- ------- -- ---------- --- - --- ----- ----- ----<br>---- --- --- ----- --- ---- ---- ------- ----- ---- -------<br>--- --- -- ----- -- --- ---- -- --- ---- -- ------ ------<br>--- ----- -- ----,152567.29999999702,152565.8999999985,152224.351,152236.3999999985,152241.119,152576.571,,13,that
screen,html.Screen,2_1_0_1_14,2022-02-17T14:38:41.741Z,,,,,,,,,,,,,,,,,53,,,,,,,,,,,,,,368.12899999925867,,response,,,,99,,,,,,,Space,keypress(Space),,,,,,,,---- -- ----- -- ------ - ------- --- ----------<br>------------- ------ ------ ---- ---- feeling ----- -- ----<br>-------- ------- -- ---------- --- - --- ----- ----- ----<br>---- --- --- ----- --- ---- ---- ------- ----- ---- -------<br>--- --- -- ----- -- --- ---- -- --- ---- -- ------ ------<br>--- ----- -- ----,152945.79999999702,152944.69999999925,152559.803,152567.5,152576.571,152962.259,,14,feeling
screen,html.Screen,2_1_0_1_15,2022-02-17T14:38:42.130Z,,,,,,,,,,,,,,,,,53,,,,,,,,,,,,,,370.940999999264,,response,,,,99,,,,,,,Space,keypress(Space),,,,,,,,---- -- ----- -- ------ - ------- --- ----------<br>------------- ------ ------ ---- ---- ------- close -- ----<br>-------- ------- -- ---------- --- - --- ----- ----- ----<br>---- --- --- ----- --- ---- ---- ------- ----- ---- -------<br>--- --- -- ----- -- --- ---- -- --- ---- -- ------ ------<br>--- ----- -- ----,153334.8999999985,153333.19999999925,152945.491,152946.09999999776,152962.259,153348.087,,15,close
screen,html.Screen,2_1_0_1_16,2022-02-17T14:38:42.518Z,,,,,,,,,,,,,,,,,53,,,,,,,,,,,,,,373.71299999702023,,response,,,,99,,,,,,,Space,keypress(Space),,,,,,,,---- -- ----- -- ------ - ------- --- ----------<br>------------- ------ ------ ---- ---- ------- ----- to ----<br>-------- ------- -- ---------- --- - --- ----- ----- ----<br>---- --- --- ----- --- ---- ---- ------- ----- ---- -------<br>--- --- -- ----- -- --- ---- -- --- ---- -- ------ ------<br>--- ----- -- ----,153723.09999999776,153721.79999999702,153331.319,153335.19999999925,153348.087,153733.835,,16,to
screen,html.Screen,2_1_0_1_17,2022-02-17T14:38:43.020Z,,,,,,,,,,,,,,,,,53,,,,,,,,,,,,,,489.66500000000815,,response,,,,99,,,,,,,Space,keypress(Space),,,,,,,,---- -- ----- -- ------ - ------- --- ----------<br>------------- ------ ------ ---- ---- ------- ----- -- your<br>-------- ------- -- ---------- --- - --- ----- ----- ----<br>---- --- --- ----- --- ---- ---- ------- ----- ---- -------<br>--- --- -- ----- -- --- ---- -- --- ---- -- ------ ------<br>--- ----- -- ----,154224.79999999702,154223.5,153717.067,153723.3999999985,153733.835,154236.962,,17,your
screen,html.Screen,2_1_0_1_18,2022-02-17T14:38:43.311Z,,,,,,,,,,,,,,,,,53,,,,,,,,,,,,,,278.03800000000047,,response,,,,99,,,,,,,Space,keypress(Space),,,,,,,,---- -- ----- -- ------ - ------- --- ----------<br>------------- ------ ------ ---- ---- ------- ----- -- ----<br>romantic ------- -- ---------- --- - --- ----- ----- ----<br>---- --- --- ----- --- ---- ---- ------- ----- ---- -------<br>--- --- -- ----- -- --- ---- -- --- ---- -- ------ ------<br>--- ----- -- ----,154516.09999999776,154515,154220.194,154225,154236.962,154522.108,,18,romantic
screen,html.Screen,2_1_0_1_19,2022-02-17T14:38:43.812Z,,,,,,,,,,,,,,,,,53,,,,,,,,,,,,,,493.79199999850243,,response,,,,99,,,,,,,Space,keypress(Space),,,,,,,,---- -- ----- -- ------ - ------- --- ----------<br>------------- ------ ------ ---- ---- ------- ----- -- ----<br>-------- partner -- ---------- --- - --- ----- ----- ----<br>---- --- --- ----- --- ---- ---- ------- ----- ---- -------<br>--- --- -- ----- -- --- ---- -- --- ---- -- ------ ------<br>--- ----- -- ----,155017.19999999925,155015.8999999985,154505.34,154516.3999999985,154522.108,155025.225,,19,partner
screen,html.Screen,2_1_0_1_20,2022-02-17T14:38:44.219Z,,,,,,,,,,,,,,,,,53,,,,,,,,,,,,,,397.374999997759,,response,,,,99,,,,,,,Space,keypress(Space),,,,,,,,---- -- ----- -- ------ - ------- --- ----------<br>------------- ------ ------ ---- ---- ------- ----- -- ----<br>-------- ------- is ---------- --- - --- ----- ----- ----<br>---- --- --- ----- --- ---- ---- ------- ----- ---- -------<br>--- --- -- ----- -- --- ---- -- --- ---- -- ------ ------<br>--- ----- -- ----,155423.69999999925,155422.59999999776,155008.457,155017.5,155025.225,155427.699,,20,is
screen,html.Screen,2_1_0_1_21,2022-02-17T14:38:44.597Z,,,,,,,,,,,,,,,,,53,,,,,,,,,,,,,,373.20099999851664,,response,,,,99,,,,,,,Space,keypress(Space),,,,,,,,---- -- ----- -- ------ - ------- --- ----------<br>------------- ------ ------ ---- ---- ------- ----- -- ----<br>-------- ------- -- paramount. --- - --- ----- ----- ----<br>---- --- --- ----- --- ---- ---- ------- ----- ---- -------<br>--- --- -- ----- -- --- ---- -- --- ---- -- ------ ------<br>--- ----- -- ----,155802.19999999925,155800.8999999985,155410.931,155424,155427.699,155813.478,,21,paramount.
screen,html.Screen,2_1_0_1_22,2022-02-17T14:38:45.125Z,,,,,,,,,,,,,,,,,53,,,,,,,,,,,,,,515.621999997762,,response,,,,99,,,,,,,Space,keypress(Space),,,,,,,,---- -- ----- -- ------ - ------- --- ----------<br>------------- ------ ------ ---- ---- ------- ----- -- ----<br>-------- ------- -- ---------- But - --- ----- ----- ----<br>---- --- --- ----- --- ---- ---- ------- ----- ---- -------<br>--- --- -- ----- -- --- ---- -- --- ---- -- ------ ------<br>--- ----- -- ----,156330.09999999776,156329.09999999776,155796.71,155802.5,155813.478,156333.374,,22,But
screen,html.Screen,2_1_0_1_23,2022-02-17T14:38:45.541Z,,,,,,,,,,,,,,,,,53,,,,,,,,,,,,,,411.5259999984992,,response,,,,99,,,,,,,Space,keypress(Space),,,,,,,,---- -- ----- -- ------ - ------- --- ----------<br>------------- ------ ------ ---- ---- ------- ----- -- ----<br>-------- ------- -- ---------- --- a --- ----- ----- ----<br>---- --- --- ----- --- ---- ---- ------- ----- ---- -------<br>--- --- -- ----- -- --- ---- -- --- ---- -- ------ ------<br>--- ----- -- ----,156745.8999999985,156744.8999999985,156316.606,156330.5,156333.374,156752.709,,23,a
screen,html.Screen,2_1_0_1_24,2022-02-17T14:38:45.877Z,,,,,,,,,,,,,,,,,53,,,,,,,,,,,,,,327.39099999776226,,response,,,,99,,,,,,,Space,keypress(Space),,,,,,,,---- -- ----- -- ------ - ------- --- ----------<br>------------- ------ ------ ---- ---- ------- ----- -- ----<br>-------- ------- -- ---------- --- - new ----- ----- ----<br>---- --- --- ----- --- ---- ---- ------- ----- ---- -------<br>--- --- -- ----- -- --- ---- -- --- ---- -- ------ ------<br>--- ----- -- ----,157081.3999999985,157080.09999999776,156735.941,156746.09999999776,156752.709,157088.103,,24,new
screen,html.Screen,2_1_0_1_25,2022-02-17T14:38:46.296Z,,,,,,,,,,,,,,,,,53,,,,,,,,,,,,,,411.59699999925215,,response,,,,99,,,,,,,Space,keypress(Space),,,,,,,,---- -- ----- -- ------ - ------- --- ----------<br>------------- ------ ------ ---- ---- ------- ----- -- ----<br>-------- ------- -- ---------- --- - --- study ----- ----<br>---- --- --- ----- --- ---- ---- ------- ----- ---- -------<br>--- --- -- ----- -- --- ---- -- --- ---- -- ------ ------<br>--- ----- -- ----,157500.79999999702,157499.69999999925,157071.335,157081.8999999985,157088.103,157507.387,,25,study
screen,html.Screen,2_1_0_1_26,2022-02-17T14:38:46.729Z,,,,,,,,,,,,,,,,,53,,,,,,,,,,,,,,424.512999998522,,response,,,,99,,,,,,,Space,keypress(Space),,,,,,,,---- -- ----- -- ------ - ------- --- ----------<br>------------- ------ ------ ---- ---- ------- ----- -- ----<br>-------- ------- -- ---------- --- - --- ----- finds ----<br>---- --- --- ----- --- ---- ---- ------- ----- ---- -------<br>--- --- -- ----- -- --- ---- -- --- ---- -- ------ ------<br>--- ----- -- ----,157933.3999999985,157931.8999999985,157490.619,157501.29999999702,157507.387,157943.512,,26,finds
screen,html.Screen,2_1_0_1_27,2022-02-17T14:38:47.106Z,,,,,,,,,,,,,,,,,53,,,,,,,,,,,,,,366.2879999970319,,response,,,,99,,,,,,,Space,keypress(Space),,,,,,,,---- -- ----- -- ------ - ------- --- ----------<br>------------- ------ ------ ---- ---- ------- ----- -- ----<br>-------- ------- -- ---------- --- - --- ----- ----- that<br>---- --- --- ----- --- ---- ---- ------- ----- ---- -------<br>--- --- -- ----- -- --- ---- -- --- ---- -- ------ ------<br>--- ----- -- ----,158310.8999999985,158309.79999999702,157926.744,157933.69999999925,157943.512,158312.466,,27,that
screen,html.Screen,2_1_0_1_28,2022-02-17T14:38:47.514Z,,,,,,,,,,,,,,,,,53,,,,,,,,,,,,,,405.5340000000142,,response,,,,99,,,,,,,Space,keypress(Space),,,,,,,,---- -- ----- -- ------ - ------- --- ----------<br>------------- ------ ------ ---- ---- ------- ----- -- ----<br>-------- ------- -- ---------- --- - --- ----- ----- ----<br>it's --- --- ----- --- ---- ---- ------- ----- ---- -------<br>--- --- -- ----- -- --- ---- -- --- ---- -- ------ ------<br>--- ----- -- ----,158719.19999999925,158718,158295.698,158311.19999999925,158312.466,158731.721,,28,it's
screen,html.Screen,2_1_0_1_29,2022-02-17T14:38:47.920Z,,,,,,,,,,,,,,,,,53,,,,,,,,,,,,,,391.4789999992645,,response,,,,99,,,,,,,Space,keypress(Space),,,,,,,,---- -- ----- -- ------ - ------- --- ----------<br>------------- ------ ------ ---- ---- ------- ----- -- ----<br>-------- ------- -- ---------- --- - --- ----- ----- ----<br>---- not --- ----- --- ---- ---- ------- ----- ---- -------<br>--- --- -- ----- -- --- ---- -- --- ---- -- ------ ------<br>--- ----- -- ----,159124.79999999702,159123.19999999925,158714.953,158719.3999999985,158731.721,159134.296,,29,not
screen,html.Screen,2_1_0_1_30,2022-02-17T14:38:48.263Z,,,,,,,,,,,,,,,,,53,,,,,,,,,,,,,,332.2039999999979,,response,,,,99,,,,,,,Space,keypress(Space),,,,,,,,---- -- ----- -- ------ - ------- --- ----------<br>------------- ------ ------ ---- ---- ------- ----- -- ----<br>-------- ------- -- ---------- --- - --- ----- ----- ----<br>---- --- how ----- --- ---- ---- ------- ----- ---- -------<br>--- --- -- ----- -- --- ---- -- --- ---- -- ------ ------<br>--- ----- -- ----,159467.59999999776,159466.5,159117.528,159125.19999999925,159134.296,159469.75,,30,how
screen,html.Screen,2_1_0_1_31,2022-02-17T14:38:48.669Z,,,,,,,,,,,,,,,,,53,,,,,,,,,,,,,,402.25,,response,,,,99,,,,,,,Space,keypress(Space),,,,,,,,---- -- ----- -- ------ - ------- --- ----------<br>------------- ------ ------ ---- ---- ------- ----- -- ----<br>-------- ------- -- ---------- --- - --- ----- ----- ----<br>---- --- --- close --- ---- ---- ------- ----- ---- -------<br>--- --- -- ----- -- --- ---- -- --- ---- -- ------ ------<br>--- ----- -- ----,159873.3999999985,159872,159452.982,159467.8999999985,159469.75,159889.101,,31,close
screen,html.Screen,2_1_0_1_32,2022-02-17T14:38:49.000Z,,,,,,,,,,,,,,,,,53,,,,,,,,,,,,,,314.59899999925983,,response,,,,99,,,,,,,Space,keypress(Space),,,,,,,,---- -- ----- -- ------ - ------- --- ----------<br>------------- ------ ------ ---- ---- ------- ----- -- ----<br>-------- ------- -- ---------- --- - --- ----- ----- ----<br>---- --- --- ----- you ---- ---- ------- ----- ---- -------<br>--- --- -- ----- -- --- ---- -- --- ---- -- ------ ------<br>--- ----- -- ----,160204.69999999925,160203.69999999925,159872.333,159873.69999999925,159889.101,160207.735,,32,you
screen,html.Screen,2_1_0_1_33,2022-02-17T14:38:49.390Z,,,,,,,,,,,,,,,,,53,,,,,,,,,,,,,,385.3649999977788,,response,,,,99,,,,,,,Space,keypress(Space),,,,,,,,---- -- ----- -- ------ - ------- --- ----------<br>------------- ------ ------ ---- ---- ------- ----- -- ----<br>-------- ------- -- ---------- --- - --- ----- ----- ----<br>---- --- --- ----- --- feel ---- ------- ----- ---- -------<br>--- --- -- ----- -- --- ---- -- --- ---- -- ------ ------<br>--- ----- -- ----,160594.29999999702,160593.09999999776,160190.967,160205,160207.735,160610.212,,33,feel
screen,html.Screen,2_1_0_1_34,2022-02-17T14:38:49.724Z,,,,,,,,,,,,,,,,,53,,,,,,,,,,,,,,317.58799999702023,,response,,,,99,,,,,,,Space,keypress(Space),,,,,,,,---- -- ----- -- ------ - ------- --- ----------<br>------------- ------ ------ ---- ---- ------- ----- -- ----<br>-------- ------- -- ---------- --- - --- ----- ----- ----<br>---- --- --- ----- --- ---- that ------- ----- ---- -------<br>--- --- -- ----- -- --- ---- -- --- ---- -- ------ ------<br>--- ----- -- ----,160928.8999999985,160927.79999999702,160593.444,160594.69999999925,160610.212,160945.665,,34,that
screen,html.Screen,2_1_0_1_35,2022-02-17T14:38:50.099Z,,,,,,,,,,,,,,,,,53,,,,,,,,,,,,,,356.9349999977567,,response,,,,99,,,,,,,Space,keypress(Space),,,,,,,,---- -- ----- -- ------ - ------- --- ----------<br>------------- ------ ------ ---- ---- ------- ----- -- ----<br>-------- ------- -- ---------- --- - --- ----- ----- ----<br>---- --- --- ----- --- ---- ---- matters ----- ---- -------<br>--- --- -- ----- -- --- ---- -- --- ---- -- ------ ------<br>--- ----- -- ----,161303.8999999985,161302.59999999776,160928.897,160929.29999999702,160945.665,161314.64,,35,matters
screen,html.Screen,2_1_0_1_36,2022-02-17T14:38:50.543Z,,,,,,,,,,,,,,,,,53,,,,,,,,,,,,,,432.35999999998603,,response,,,,99,,,,,,,Space,keypress(Space),,,,,,,,"---- -- ----- -- ------ - ------- --- ----------<br>------------- ------ ------ ---- ---- ------- ----- -- ----<br>-------- ------- -- ---------- --- - --- ----- ----- ----<br>---- --- --- ----- --- ---- ---- ------- most, ---- -------<br>--- --- -- ----- -- --- ---- -- --- ---- -- ------ ------<br>--- ----- -- ----",161748.19999999925,161747,161297.872,161304.3999999985,161314.64,161750.665,,36,"most,"
screen,html.Screen,2_1_0_1_37,2022-02-17T14:38:50.876Z,,,,,,,,,,,,,,,,,53,,,,,,,,,,,,,,329.0349999992468,,response,,,,99,,,,,,,Space,keypress(Space),,,,,,,,---- -- ----- -- ------ - ------- --- ----------<br>------------- ------ ------ ---- ---- ------- ----- -- ----<br>-------- ------- -- ---------- --- - --- ----- ----- ----<br>---- --- --- ----- --- ---- ---- ------- ----- it's -------<br>--- --- -- ----- -- --- ---- -- --- ---- -- ------ ------<br>--- ----- -- ----,162080.8999999985,162079.69999999925,161733.897,161748.3999999985,161750.665,162086.127,,37,it's
screen,html.Screen,2_1_0_1_38,2022-02-17T14:38:51.249Z,,,,,,,,,,,,,,,,,53,,,,,,,,,,,,,,366.1729999970121,,response,,,,99,,,,,,,Space,keypress(Space),,,,,,,,---- -- ----- -- ------ - ------- --- ----------<br>------------- ------ ------ ---- ---- ------- ----- -- ----<br>-------- ------- -- ---------- --- - --- ----- ----- ----<br>---- --- --- ----- --- ---- ---- ------- ----- ---- whether<br>--- --- -- ----- -- --- ---- -- --- ---- -- ------ ------<br>--- ----- -- ----,162453.29999999702,162452.29999999702,162069.359,162081.19999999925,162086.127,162455.129,,38,whether
screen,html.Screen,2_1_0_1_39,2022-02-17T14:38:51.614Z,,,,,,,,,,,,,,,,,53,,,,,,,,,,,,,,362.1709999970335,,response,,,,99,,,,,,,Space,keypress(Space),,,,,,,,---- -- ----- -- ------ - ------- --- ----------<br>------------- ------ ------ ---- ---- ------- ----- -- ----<br>-------- ------- -- ---------- --- - --- ----- ----- ----<br>---- --- --- ----- --- ---- ---- ------- ----- ---- -------<br>you --- -- ----- -- --- ---- -- --- ---- -- ------ ------<br>--- ----- -- ----,162818.59999999776,162817.29999999702,162438.361,162453.5,162455.129,162824.091,,39,you
screen,html.Screen,2_1_0_1_40,2022-02-17T14:38:51.971Z,,,,,,,,,,,,,,,,,53,,,,,,,,,,,,,,351.00899999777903,,response,,,,99,,,,,,,Space,keypress(Space),,,,,,,,---- -- ----- -- ------ - ------- --- ----------<br>------------- ------ ------ ---- ---- ------- ----- -- ----<br>-------- ------- -- ---------- --- - --- ----- ----- ----<br>---- --- --- ----- --- ---- ---- ------- ----- ---- -------<br>--- are -- ----- -- --- ---- -- --- ---- -- ------ ------<br>--- ----- -- ----,163176.19999999925,163175.09999999776,162807.323,162818.79999999702,162824.091,163193.078,,40,are
screen,html.Screen,2_1_0_1_41,2022-02-17T14:38:52.367Z,,,,,,,,,,,,,,,,,53,,,,,,,,,,,,,,377.22199999701115,,response,,,,99,,,,,,,Space,keypress(Space),,,,,,,,---- -- ----- -- ------ - ------- --- ----------<br>------------- ------ ------ ---- ---- ------- ----- -- ----<br>-------- ------- -- ---------- --- - --- ----- ----- ----<br>---- --- --- ----- --- ---- ---- ------- ----- ---- -------<br>--- --- as ----- -- --- ---- -- --- ---- -- ------ ------<br>--- ----- -- ----,163571.5,163570.29999999702,163176.31,163176.59999999776,163193.078,163578.842,,41,as
screen,html.Screen,2_1_0_1_42,2022-02-17T14:38:52.704Z,,,,,,,,,,,,,,,,,53,,,,,,,,,,,,,,328.5579999985057,,response,,,,99,,,,,,,Space,keypress(Space),,,,,,,,---- -- ----- -- ------ - ------- --- ----------<br>------------- ------ ------ ---- ---- ------- ----- -- ----<br>-------- ------- -- ---------- --- - --- ----- ----- ----<br>---- --- --- ----- --- ---- ---- ------- ----- ---- -------<br>--- --- -- close -- --- ---- -- --- ---- -- ------ ------<br>--- ----- -- ----,163908.59999999776,163907.3999999985,163562.074,163571.69999999925,163578.842,163914.261,,42,close
screen,html.Screen,2_1_0_1_43,2022-02-17T14:38:53.068Z,,,,,,,,,,,,,,,,,53,,,,,,,,,,,,,,357.53899999702116,,response,,,,99,,,,,,,Space,keypress(Space),,,,,,,,---- -- ----- -- ------ - ------- --- ----------<br>------------- ------ ------ ---- ---- ------- ----- -- ----<br>-------- ------- -- ---------- --- - --- ----- ----- ----<br>---- --- --- ----- --- ---- ---- ------- ----- ---- -------<br>--- --- -- ----- as --- ---- -- --- ---- -- ------ ------<br>--- ----- -- ----,164273.09999999776,164271.79999999702,163897.493,163908.79999999702,163914.261,164283.212,,43,as
screen,html.Screen,2_1_0_1_44,2022-02-17T14:38:53.454Z,,,,,,,,,,,,,,,,,53,,,,,,,,,,,,,,373.8879999977653,,response,,,,99,,,,,,,Space,keypress(Space),,,,,,,,---- -- ----- -- ------ - ------- --- ----------<br>------------- ------ ------ ---- ---- ------- ----- -- ----<br>-------- ------- -- ---------- --- - --- ----- ----- ----<br>---- --- --- ----- --- ---- ---- ------- ----- ---- -------<br>--- --- -- ----- -- you ---- -- --- ---- -- ------ ------<br>--- ----- -- ----,164658.69999999925,164657.09999999776,164266.444,164273.5,164283.212,164668.998,,44,you
screen,html.Screen,2_1_0_1_45,2022-02-17T14:38:53.816Z,,,,,,,,,,,,,,,,,53,,,,,,,,,,,,,,350.90199999851757,,response,,,,99,,,,,,,Space,keypress(Space),,,,,,,,---- -- ----- -- ------ - ------- --- ----------<br>------------- ------ ------ ---- ---- ------- ----- -- ----<br>-------- ------- -- ---------- --- - --- ----- ----- ----<br>---- --- --- ----- --- ---- ---- ------- ----- ---- -------<br>--- --- -- ----- -- --- want -- --- ---- -- ------ ------<br>--- ----- -- ----,165020.8999999985,165019.8999999985,164652.23,164659,164668.998,165037.97,,45,want
screen,html.Screen,2_1_0_1_46,2022-02-17T14:38:54.154Z,,,,,,,,,,,,,,,,,53,,,,,,,,,,,,,,319.2299999992538,,response,,,,99,,,,,,,Space,keypress(Space),,,,,,,,---- -- ----- -- ------ - ------- --- ----------<br>------------- ------ ------ ---- ---- ------- ----- -- ----<br>-------- ------- -- ---------- --- - --- ----- ----- ----<br>---- --- --- ----- --- ---- ---- ------- ----- ---- -------<br>--- --- -- ----- -- --- ---- to --- ---- -- ------ ------<br>--- ----- -- ----,165359,165357.19999999925,165021.202,165021.3999999985,165037.97,165373.465,,46,to
screen,html.Screen,2_1_0_1_47,2022-02-17T14:38:54.508Z,,,,,,,,,,,,,,,,,53,,,,,,,,,,,,,,337.83499999702326,,response,,,,99,,,,,,,Space,keypress(Space),,,,,,,,"---- -- ----- -- ------ - ------- --- ----------<br>------------- ------ ------ ---- ---- ------- ----- -- ----<br>-------- ------- -- ---------- --- - --- ----- ----- ----<br>---- --- --- ----- --- ---- ---- ------- ----- ---- -------<br>--- --- -- ----- -- --- ---- -- be, ---- -- ------ ------<br>--- ----- -- ----",165712.5,165711.29999999702,165356.697,165359.3999999985,165373.465,165725.611,,47,"be,"
screen,html.Screen,2_1_0_1_48,2022-02-17T14:38:54.875Z,,,,,,,,,,,,,,,,,53,,,,,,,,,,,,,,351.5889999992505,,response,,,,99,,,,,,,Space,keypress(Space),,,,,,,,---- -- ----- -- ------ - ------- --- ----------<br>------------- ------ ------ ---- ---- ------- ----- -- ----<br>-------- ------- -- ---------- --- - --- ----- ----- ----<br>---- --- --- ----- --- ---- ---- ------- ----- ---- -------<br>--- --- -- ----- -- --- ---- -- --- even -- ------ ------<br>--- ----- -- ----,166079.69999999925,166077.19999999925,165708.843,165712.79999999702,165725.611,166094.559,,48,even
screen,html.Screen,2_1_0_1_49,2022-02-17T14:38:55.247Z,,,,,,,,,,,,,,,,,53,,,,,,,,,,,,,,355.54099999775644,,response,,,,99,,,,,,,Space,keypress(Space),,,,,,,,---- -- ----- -- ------ - ------- --- ----------<br>------------- ------ ------ ---- ---- ------- ----- -- ----<br>-------- ------- -- ---------- --- - --- ----- ----- ----<br>---- --- --- ----- --- ---- ---- ------- ----- ---- -------<br>--- --- -- ----- -- --- ---- -- --- ---- if ------ ------<br>--- ----- -- ----,166451.59999999776,166450.09999999776,166077.791,166080,166094.559,166463.578,,49,if
screen,html.Screen,2_1_0_1_50,2022-02-17T14:38:55.588Z,,,,,,,,,,,,,,,,,53,,,,,,,,,,,,,,328.4219999999914,,response,,,,99,,,,,,,Space,keypress(Space),,,,,,,,---- -- ----- -- ------ - ------- --- ----------<br>------------- ------ ------ ---- ---- ------- ----- -- ----<br>-------- ------- -- ---------- --- - --- ----- ----- ----<br>---- --- --- ----- --- ---- ---- ------- ----- ---- -------<br>--- --- -- ----- -- --- ---- -- --- ---- -- that's ------<br>--- ----- -- ----,166793.09999999776,166792,166446.81,166451.8999999985,166463.578,166799.023,,50,that's
screen,html.Screen,2_1_0_1_51,2022-02-17T14:38:55.954Z,,,,,,,,,,,,,,,,,53,,,,,,,,,,,,,,358.7769999970333,,response,,,,99,,,,,,,Space,keypress(Space),,,,,,,,---- -- ----- -- ------ - ------- --- ----------<br>------------- ------ ------ ---- ---- ------- ----- -- ----<br>-------- ------- -- ---------- --- - --- ----- ----- ----<br>---- --- --- ----- --- ---- ---- ------- ----- ---- -------<br>--- --- -- ----- -- --- ---- -- --- ---- -- ------ really<br>--- ----- -- ----,167159.09999999776,167157.79999999702,166782.255,166793.3999999985,166799.023,167167.963,,51,really
screen,html.Screen,2_1_0_1_52,2022-02-17T14:38:56.337Z,,,,,,,,,,,,,,,,,53,,,,,,,,,,,,,,372.33699999703094,,response,,,,99,,,,,,,Space,keypress(Space),,,,,,,,---- -- ----- -- ------ - ------- --- ----------<br>------------- ------ ------ ---- ---- ------- ----- -- ----<br>-------- ------- -- ---------- --- - --- ----- ----- ----<br>---- --- --- ----- --- ---- ---- ------- ----- ---- -------<br>--- --- -- ----- -- --- ---- -- --- ---- -- ------ ------<br>not ----- -- ----,167541.5,167540.29999999702,167151.195,167159.29999999702,167167.963,167553.661,,52,not
screen,html.Screen,2_1_0_1_53,2022-02-17T14:38:56.713Z,,,,,,,,,,,,,,,,,53,,,,,,,,,,,,,,362.7389999985171,,response,,,,99,,,,,,,Space,keypress(Space),,,,,,,,---- -- ----- -- ------ - ------- --- ----------<br>------------- ------ ------ ---- ---- ------- ----- -- ----<br>-------- ------- -- ---------- --- - --- ----- ----- ----<br>---- --- --- ----- --- ---- ---- ------- ----- ---- -------<br>--- --- -- ----- -- --- ---- -- --- ---- -- ------ ------<br>--- close -- ----,167917.59999999776,167916.3999999985,167536.893,167541.79999999702,167553.661,167922.66,,53,close
screen,html.Screen,2_1_0_1_54,2022-02-17T14:38:57.106Z,,,,,,,,,,,,,,,,,53,,,,,,,,,,,,,,387.1399999970163,,response,,,,99,,,,,,,Space,keypress(Space),,,,,,,,---- -- ----- -- ------ - ------- --- ----------<br>------------- ------ ------ ---- ---- ------- ----- -- ----<br>-------- ------- -- ---------- --- - --- ----- ----- ----<br>---- --- --- ----- --- ---- ---- ------- ----- ---- -------<br>--- --- -- ----- -- --- ---- -- --- ---- -- ------ ------<br>--- ----- at ----,168311.09999999776,168309.79999999702,167905.892,167917.69999999925,167922.66,168325.241,,54,at
screen,html.Screen,2_1_0_1_55,2022-02-17T14:38:58.588Z,,,,,,,,,,,,,,,,,53,,,,,,,,,,,,,,1466.5589999970107,,response,,,,99,,,,,,,Space,keypress(Space),,,,,,,,---- -- ----- -- ------ - ------- --- ----------<br>------------- ------ ------ ---- ---- ------- ----- -- ----<br>-------- ------- -- ---------- --- - --- ----- ----- ----<br>---- --- --- ----- --- ---- ---- ------- ----- ---- -------<br>--- --- -- ----- -- --- ---- -- --- ---- -- ------ ------<br>--- ----- -- all.,169793.09999999776,169791.79999999702,168308.473,168311.29999999702,168325.241,169817.669,,55,all.
Item 99,flow.Loop,2_1_0_1,2022-02-17T14:38:58.589Z,,,,,,,,,,,,,,,,,,,,,,,,,,,,,,,23571.902999997023,,completion,,,,,E,,,,,,,,,,,silence,,,,,169793.5,169791.79999999702,146169.593,146172.59999999776,146219.897,169817.669,,,
Question 1,html.Screen,2_1_0_2,2022-02-17T14:39:03.173Z,,,,,,,,,,,,,,,,,,,,,,,,,,,,true,FALSE,,4557.630999997025,,response,,,,99,E,,,,,,FALSE,click #choice-2,,,,silence,,,,,174377.59999999776,174375.29999999702,169784.133,169793.79999999702,169817.669,174396.489,,,
Question 2,html.Screen,2_1_0_3,2022-02-17T14:39:06.327Z,,,,,,,,,,,,,,,,,,,,,,,,,,,,true,TRUE,,3133.3109999970184,,response,,,,99,E,,,,,,TRUE,click #choice-1,,,,silence,,,,,177531.8999999985,177529.79999999702,174362.953,174378.19999999925,174396.489,177532.966,,,
Item 99,flow.Sequence,2_1_0,2022-02-17T14:39:06.328Z,,,,,,,,,,,,,,,,,,,,,,,,,,,,,,,41339.22199999701,,completion,,,,,,,,,,,,,,,,,,,,,177532.59999999776,177529.79999999702,136157.042,136167.19999999925,136190.578,177532.966,,,
Holding screen,html.Screen,2_1_1_0,2022-02-17T14:39:16.309Z,,,,,,,,,,,,,,,,,,,,,,,,,,,,,,,9995.742000000027,,timeout,,,,,,,,,,,,,,,,,,,,,187514.19999999925,187511.94,177516.198,177533.29999999702,177532.966,187528.708,,,
screen,html.Screen,2_1_1_1_0,2022-02-17T14:39:17.144Z,,,,,,,,,,,,,,,,,54,,,,,,,,,,,,,,818.4919999992417,,response,,,,100,,,,,,,Space,keypress(Space),,,,,,,,At --- ---- --- ------ ----- ------- ---- -- --- ------- --<br>------- ---------- ------ -- ----- -- ----- -- ---- ------<br>--- ----- --- --- ------ -------- ----- --- ------ ----- --<br>----- ----- ---------- --- --- ------ ------ ---- -- ------<br>------- --- ------ ----- --- ---- ------- -- ---- --- --<br>------- ------,188348.29999999702,188347.19999999925,187511.94,187514.59999999776,187528.708,188350.569,,0,At
screen,html.Screen,2_1_1_1_1,2022-02-17T14:39:17.535Z,,,,,,,,,,,,,,,,,54,,,,,,,,,,,,,,387.03099999777623,,response,,,,100,,,,,,,Space,keypress(Space),,,,,,,,-- the ---- --- ------ ----- ------- ---- -- --- ------- --<br>------- ---------- ------ -- ----- -- ----- -- ---- ------<br>--- ----- --- --- ------ -------- ----- --- ------ ----- --<br>----- ----- ---------- --- --- ------ ------ ---- -- ------<br>------- --- ------ ----- --- ---- ------- -- ---- --- --<br>------- ------,188739.3999999985,188737.59999999776,188333.801,188348.69999999925,188350.569,188753.136,,1,the
screen,html.Screen,2_1_1_1_2,2022-02-17T14:39:17.891Z,,,,,,,,,,,,,,,,,54,,,,,,,,,,,,,,341.3640000000014,,response,,,,100,,,,,,,Space,keypress(Space),,,,,,,,-- --- time --- ------ ----- ------- ---- -- --- ------- --<br>------- ---------- ------ -- ----- -- ----- -- ---- ------<br>--- ----- --- --- ------ -------- ----- --- ------ ----- --<br>----- ----- ---------- --- --- ------ ------ ---- -- ------<br>------- --- ------ ----- --- ---- ------- -- ---- --- --<br>------- ------,189096,189094.5,188736.368,188739.79999999702,188753.136,189105.353,,2,time
screen,html.Screen,2_1_1_1_3,2022-02-17T14:39:18.240Z,,,,,,,,,,,,,,,,,54,,,,,,,,,,,,,,338.5469999985071,,response,,,,100,,,,,,,Space,keypress(Space),,,,,,,,-- --- ---- the ------ ----- ------- ---- -- --- ------- --<br>------- ---------- ------ -- ----- -- ----- -- ---- ------<br>--- ----- --- --- ------ -------- ----- --- ------ ----- --<br>----- ----- ---------- --- --- ------ ------ ---- -- ------<br>------- --- ------ ----- --- ---- ------- -- ---- --- --<br>------- ------,189445.09999999776,189443.8999999985,189088.585,189096.3999999985,189105.353,189457.567,,3,the
screen,html.Screen,2_1_1_1_4,2022-02-17T14:39:18.580Z,,,,,,,,,,,,,,,,,54,,,,,,,,,,,,,,326.13299999924493,,response,,,,100,,,,,,,Space,keypress(Space),,,,,,,,-- --- ---- --- French ----- ------- ---- -- --- ------- --<br>------- ---------- ------ -- ----- -- ----- -- ---- ------<br>--- ----- --- --- ------ -------- ----- --- ------ ----- --<br>----- ----- ---------- --- --- ------ ------ ---- -- ------<br>------- --- ------ ----- --- ---- ------- -- ---- --- --<br>------- ------,189784.8999999985,189783.69999999925,189440.799,189445.3999999985,189457.567,189793.057,,4,French
screen,html.Screen,2_1_1_1_5,2022-02-17T14:39:18.948Z,,,,,,,,,,,,,,,,,54,,,,,,,,,,,,,,358.5429999977641,,response,,,,100,,,,,,,Space,keypress(Space),,,,,,,,-- --- ---- --- ------ crown ------- ---- -- --- ------- --<br>------- ---------- ------ -- ----- -- ----- -- ---- ------<br>--- ----- --- --- ------ -------- ----- --- ------ ----- --<br>----- ----- ---------- --- --- ------ ------ ---- -- ------<br>------- --- ------ ----- --- ---- ------- -- ---- --- --<br>------- ------,190152.69999999925,190151.59999999776,189776.289,189785.09999999776,189793.057,190162.028,,5,crown
screen,html.Screen,2_1_1_1_6,2022-02-17T14:39:19.306Z,,,,,,,,,,,,,,,,,54,,,,,,,,,,,,,,347.1719999992638,,response,,,,100,,,,,,,Space,keypress(Space),,,,,,,,-- --- ---- --- ------ ----- secured ---- -- --- ------- --<br>------- ---------- ------ -- ----- -- ----- -- ---- ------<br>--- ----- --- --- ------ -------- ----- --- ------ ----- --<br>----- ----- ---------- --- --- ------ ------ ---- -- ------<br>------- --- ------ ----- --- ---- ------- -- ---- --- --<br>------- ------,190510.5,190509.19999999925,190145.26,190152.8999999985,190162.028,190514.203,,6,secured
screen,html.Screen,2_1_1_1_7,2022-02-17T14:39:19.698Z,,,,,,,,,,,,,,,,,54,,,,,,,,,,,,,,387.09699999701115,,response,,,,100,,,,,,,Space,keypress(Space),,,,,,,,-- --- ---- --- ------ ----- ------- much -- --- ------- --<br>------- ---------- ------ -- ----- -- ----- -- ---- ------<br>--- ----- --- --- ------ -------- ----- --- ------ ----- --<br>----- ----- ---------- --- --- ------ ------ ---- -- ------<br>------- --- ------ ----- --- ---- ------- -- ---- --- --<br>------- ------,190902.69999999925,190901.29999999702,190497.435,190510.69999999925,190514.203,190916.75,,7,much
screen,html.Screen,2_1_1_1_8,2022-02-17T14:39:20.040Z,,,,,,,,,,,,,,,,,54,,,,,,,,,,,,,,327.3499999977648,,response,,,,100,,,,,,,Space,keypress(Space),,,,,,,,-- --- ---- --- ------ ----- ------- ---- of --- ------- --<br>------- ---------- ------ -- ----- -- ----- -- ---- ------<br>--- ----- --- --- ------ -------- ----- --- ------ ----- --<br>----- ----- ---------- --- --- ------ ------ ---- -- ------<br>------- --- ------ ----- --- ---- ------- -- ---- --- --<br>------- ------,191245.19999999925,191244.09999999776,190899.982,190903,190916.75,191252.237,,8,of
screen,html.Screen,2_1_1_1_9,2022-02-17T14:39:20.410Z,,,,,,,,,,,,,,,,,54,,,,,,,,,,,,,,361.2630000000063,,response,,,,100,,,,,,,Space,keypress(Space),,,,,,,,-- --- ---- --- ------ ----- ------- ---- -- its ------- --<br>------- ---------- ------ -- ----- -- ----- -- ---- ------<br>--- ----- --- --- ------ -------- ----- --- ------ ----- --<br>----- ----- ---------- --- --- ------ ------ ---- -- ------<br>------- --- ------ ----- --- ---- ------- -- ---- --- --<br>------- ------,191614.5,191613.5,191235.469,191245.3999999985,191252.237,191621.175,,9,its
screen,html.Screen,2_1_1_1_10,2022-02-17T14:39:20.839Z,,,,,,,,,,,,,,,,,54,,,,,,,,,,,,,,421.2249999985215,,response,,,,100,,,,,,,Space,keypress(Space),,,,,,,,-- --- ---- --- ------ ----- ------- ---- -- --- revenue --<br>------- ---------- ------ -- ----- -- ----- -- ---- ------<br>--- ----- --- --- ------ -------- ----- --- ------ ----- --<br>----- ----- ---------- --- --- ------ ------ ---- -- ------<br>------- --- ------ ----- --- ---- ------- -- ---- --- --<br>------- ------,192043.79999999702,192042.3999999985,191604.407,191614.79999999702,191621.175,192057.147,,10,revenue
screen,html.Screen,2_1_1_1_11,2022-02-17T14:39:21.141Z,,,,,,,,,,,,,,,,,54,,,,,,,,,,,,,,287.4529999977676,,response,,,,100,,,,,,,Space,keypress(Space),,,,,,,,-- --- ---- --- ------ ----- ------- ---- -- --- ------- by<br>------- ---------- ------ -- ----- -- ----- -- ---- ------<br>--- ----- --- --- ------ -------- ----- --- ------ ----- --<br>----- ----- ---------- --- --- ------ ------ ---- -- ------<br>------- --- ------ ----- --- ---- ------- -- ---- --- --<br>------- ------,192346.09999999776,192344.59999999776,192040.379,192044.19999999925,192057.147,192359.109,,11,by
screen,html.Screen,2_1_1_1_12,2022-02-17T14:39:21.564Z,,,,,,,,,,,,,,,,,54,,,,,,,,,,,,,,407.79099999851314,,response,,,,100,,,,,,,Space,keypress(Space),,,,,,,,-- --- ---- --- ------ ----- ------- ---- -- --- ------- --<br>issuing ---------- ------ -- ----- -- ----- -- ---- ------<br>--- ----- --- --- ------ -------- ----- --- ------ ----- --<br>----- ----- ---------- --- --- ------ ------ ---- -- ------<br>------- --- ------ ----- --- ---- ------- -- ---- --- --<br>------- ------,192768.5,192766.8999999985,192342.341,192346.3999999985,192359.109,192778.364,,12,issuing
screen,html.Screen,2_1_1_1_13,2022-02-17T14:39:21.887Z,,,,,,,,,,,,,,,,,54,,,,,,,,,,,,,,311.6359999999986,,response,,,,100,,,,,,,Space,keypress(Space),,,,,,,,-- --- ---- --- ------ ----- ------- ---- -- --- ------- --<br>------- government ------ -- ----- -- ----- -- ---- ------<br>--- ----- --- --- ------ -------- ----- --- ------ ----- --<br>----- ----- ---------- --- --- ------ ------ ---- -- ------<br>------- --- ------ ----- --- ---- ------- -- ---- --- --<br>------- ------,193091.19999999925,193090,192761.596,192768.79999999702,192778.364,193097.096,,13,government
screen,html.Screen,2_1_1_1_14,2022-02-17T14:39:22.424Z,,,,,,,,,,,,,,,,,54,,,,,,,,,,,,,,529.6039999992645,,response,,,,100,,,,,,,Space,keypress(Space),,,,,,,,-- --- ---- --- ------ ----- ------- ---- -- --- ------- --<br>------- ---------- bonds. -- ----- -- ----- -- ---- ------<br>--- ----- --- --- ------ -------- ----- --- ------ ----- --<br>----- ----- ---------- --- --- ------ ------ ---- -- ------<br>------- --- ------ ----- --- ---- ------- -- ---- --- --<br>------- ------,193628.29999999702,193626.69999999925,193080.328,193091.5,193097.096,193633.732,,14,bonds.
screen,html.Screen,2_1_1_1_15,2022-02-17T14:39:23.320Z,,,,,,,,,,,,,,,,,54,,,,,,,,,,,,,,888.6679999985208,,response,,,,100,,,,,,,Space,keypress(Space),,,,,,,,-- --- ---- --- ------ ----- ------- ---- -- --- ------- --<br>------- ---------- ------ In ----- -- ----- -- ---- ------<br>--- ----- --- --- ------ -------- ----- --- ------ ----- --<br>----- ----- ---------- --- --- ------ ------ ---- -- ------<br>------- --- ------ ----- --- ---- ------- -- ---- --- --<br>------- ------,194523.79999999702,194522.3999999985,193616.964,193628.69999999925,193633.732,194539.298,,15,In
screen,html.Screen,2_1_1_1_16,2022-02-17T14:39:23.698Z,,,,,,,,,,,,,,,,,54,,,,,,,,,,,,,,361.50199999701,,response,,,,100,,,,,,,Space,keypress(Space),,,,,,,,"-- --- ---- --- ------ ----- ------- ---- -- --- ------- --<br>------- ---------- ------ -- 1727, -- ----- -- ---- ------<br>--- ----- --- --- ------ -------- ----- --- ------ ----- --<br>----- ----- ---------- --- --- ------ ------ ---- -- ------<br>------- --- ------ ----- --- ---- ------- -- ---- --- --<br>------- ------",194902.09999999776,194900.79999999702,194522.53,194524.19999999925,194539.298,194908.393,,16,"1727,"
screen,html.Screen,2_1_1_1_17,2022-02-17T14:39:24.303Z,,,,,,,,,,,,,,,,,54,,,,,,,,,,,,,,597.7069999977539,,response,,,,100,,,,,,,Space,keypress(Space),,,,,,,,-- --- ---- --- ------ ----- ------- ---- -- --- ------- --<br>------- ---------- ------ -- ----- in ----- -- ---- ------<br>--- ----- --- --- ------ -------- ----- --- ------ ----- --<br>----- ----- ---------- --- --- ------ ------ ---- -- ------<br>------- --- ------ ----- --- ---- ------- -- ---- --- --<br>------- ------,195507.09999999776,195506.09999999776,194891.625,194902.29999999702,194908.393,195512.23,,17,in
screen,html.Screen,2_1_1_1_18,2022-02-17T14:39:25.724Z,,,,,,,,,,,,,,,,,54,,,,,,,,,,,,,,1414.0699999970093,,response,,,,100,,,,,,,Space,keypress(Space),,,,,,,,-- --- ---- --- ------ ----- ------- ---- -- --- ------- --<br>------- ---------- ------ -- ----- -- order -- ---- ------<br>--- ----- --- --- ------ -------- ----- --- ------ ----- --<br>----- ----- ---------- --- --- ------ ------ ---- -- ------<br>------- --- ------ ----- --- ---- ------- -- ---- --- --<br>------- ------,196927.8999999985,196926.29999999702,195495.462,195507.29999999702,195512.23,196937.564,,18,order
screen,html.Screen,2_1_1_1_19,2022-02-17T14:39:26.294Z,,,,,,,,,,,,,,,,,54,,,,,,,,,,,,,,558.935999999987,,response,,,,100,,,,,,,Space,keypress(Space),,,,,,,,-- --- ---- --- ------ ----- ------- ---- -- --- ------- --<br>------- ---------- ------ -- ----- -- ----- to ---- ------<br>--- ----- --- --- ------ -------- ----- --- ------ ----- --<br>----- ----- ---------- --- --- ------ ------ ---- -- ------<br>------- --- ------ ----- --- ---- ------- -- ---- --- --<br>------- ------,197498,197496.5,196920.796,196928.19999999925,196937.564,197507.928,,19,to
screen,html.Screen,2_1_1_1_20,2022-02-17T14:39:26.867Z,,,,,,,,,,,,,,,,,54,,,,,,,,,,,,,,559.1719999977504,,response,,,,100,,,,,,,Space,keypress(Space),,,,,,,,-- --- ---- --- ------ ----- ------- ---- -- --- ------- --<br>------- ---------- ------ -- ----- -- ----- -- save ------<br>--- ----- --- --- ------ -------- ----- --- ------ ----- --<br>----- ----- ---------- --- --- ------ ------ ---- -- ------<br>------- --- ------ ----- --- ---- ------- -- ---- --- --<br>------- ------,198070.59999999776,198067.09999999776,197491.16,197498.19999999925,197507.928,198078.3,,20,save
screen,html.Screen,2_1_1_1_21,2022-02-17T14:39:27.405Z,,,,,,,,,,,,,,,,,54,,,,,,,,,,,,,,529.7000000000116,,response,,,,100,,,,,,,Space,keypress(Space),,,,,,,,"-- --- ---- --- ------ ----- ------- ---- -- --- ------- --<br>------- ---------- ------ -- ----- -- ----- -- ---- money,<br>--- ----- --- --- ------ -------- ----- --- ------ ----- --<br>----- ----- ---------- --- --- ------ ------ ---- -- ------<br>------- --- ------ ----- --- ---- ------- -- ---- --- --<br>------- ------",198609.19999999925,198608,198061.532,198070.8999999985,198078.3,198614.867,,21,"money,"
screen,html.Screen,2_1_1_1_22,2022-02-17T14:39:27.899Z,,,,,,,,,,,,,,,,,54,,,,,,,,,,,,,,486.3329999992566,,response,,,,100,,,,,,,Space,keypress(Space),,,,,,,,-- --- ---- --- ------ ----- ------- ---- -- --- ------- --<br>------- ---------- ------ -- ----- -- ----- -- ---- ------<br>the ----- --- --- ------ -------- ----- --- ------ ----- --<br>----- ----- ---------- --- --- ------ ------ ---- -- ------<br>------- --- ------ ----- --- ---- ------- -- ---- --- --<br>------- ------,199102.8999999985,199101.19999999925,198598.099,198609.3999999985,198614.867,199118.158,,22,the
screen,html.Screen,2_1_1_1_23,2022-02-17T14:39:28.378Z,,,,,,,,,,,,,,,,,54,,,,,,,,,,,,,,463.3420000000042,,response,,,,100,,,,,,,Space,keypress(Space),,,,,,,,-- --- ---- --- ------ ----- ------- ---- -- --- ------- --<br>------- ---------- ------ -- ----- -- ----- -- ---- ------<br>--- state --- --- ------ -------- ----- --- ------ ----- --<br>----- ----- ---------- --- --- ------ ------ ---- -- ------<br>------- --- ------ ----- --- ---- ------- -- ---- --- --<br>------- ------,199582.59999999776,199581.5,199101.39,199103.29999999702,199118.158,199587.769,,23,state
screen,html.Screen,2_1_1_1_24,2022-02-17T14:39:28.769Z,,,,,,,,,,,,,,,,,54,,,,,,,,,,,,,,384.13099999850965,,response,,,,100,,,,,,,Space,keypress(Space),,,,,,,,-- --- ---- --- ------ ----- ------- ---- -- --- ------- --<br>------- ---------- ------ -- ----- -- ----- -- ---- ------<br>--- ----- cut --- ------ -------- ----- --- ------ ----- --<br>----- ----- ---------- --- --- ------ ------ ---- -- ------<br>------- --- ------ ----- --- ---- ------- -- ---- --- --<br>------- ------,199972.8999999985,199971.8999999985,199571.001,199582.79999999702,199587.769,199990.232,,24,cut
screen,html.Screen,2_1_1_1_25,2022-02-17T14:39:29.157Z,,,,,,,,,,,,,,,,,54,,,,,,,,,,,,,,369.6679999985208,,response,,,,100,,,,,,,Space,keypress(Space),,,,,,,,-- --- ---- --- ------ ----- ------- ---- -- --- ------- --<br>------- ---------- ------ -- ----- -- ----- -- ---- ------<br>--- ----- --- the ------ -------- ----- --- ------ ----- --<br>----- ----- ---------- --- --- ------ ------ ---- -- ------<br>------- --- ------ ----- --- ---- ------- -- ---- --- --<br>------- ------,200361.19999999925,200359.8999999985,199973.464,199973.19999999925,199990.232,200375.943,,25,the
screen,html.Screen,2_1_1_1_26,2022-02-17T14:39:29.525Z,,,,,,,,,,,,,,,,,54,,,,,,,,,,,,,,351.1569999977655,,response,,,,100,,,,,,,Space,keypress(Space),,,,,,,,-- --- ---- --- ------ ----- ------- ---- -- --- ------- --<br>------- ---------- ------ -- ----- -- ----- -- ---- ------<br>--- ----- --- --- bonds' -------- ----- --- ------ ----- --<br>----- ----- ---------- --- --- ------ ------ ---- -- ------<br>------- --- ------ ----- --- ---- ------- -- ---- --- --<br>------- ------,200728.5,200727.09999999776,200359.175,200361.5,200375.943,200744.986,,26,bonds'
screen,html.Screen,2_1_1_1_27,2022-02-17T14:39:29.907Z,,,,,,,,,,,,,,,,,54,,,,,,,,,,,,,,364.41399999850546,,response,,,,100,,,,,,,Space,keypress(Space),,,,,,,,-- --- ---- --- ------ ----- ------- ---- -- --- ------- --<br>------- ---------- ------ -- ----- -- ----- -- ---- ------<br>--- ----- --- --- ------ interest ----- --- ------ ----- --<br>----- ----- ---------- --- --- ------ ------ ---- -- ------<br>------- --- ------ ----- --- ---- ------- -- ---- --- --<br>------- ------,201110.69999999925,201109.3999999985,200728.218,200728.8999999985,200744.986,201113.966,,27,interest
screen,html.Screen,2_1_1_1_28,2022-02-17T14:39:30.350Z,,,,,,,,,,,,,,,,,54,,,,,,,,,,,,,,438.73399999926914,,response,,,,100,,,,,,,Space,keypress(Space),,,,,,,,-- --- ---- --- ------ ----- ------- ---- -- --- ------- --<br>------- ---------- ------ -- ----- -- ----- -- ---- ------<br>--- ----- --- --- ------ -------- rate. --- ------ ----- --<br>----- ----- ---------- --- --- ------ ------ ---- -- ------<br>------- --- ------ ----- --- ---- ------- -- ---- --- --<br>------- ------,201553.8999999985,201552.69999999925,201097.198,201110.8999999985,201113.966,201566.779,,28,rate.
screen,html.Screen,2_1_1_1_29,2022-02-17T14:39:30.688Z,,,,,,,,,,,,,,,,,54,,,,,,,,,,,,,,324.3209999977553,,response,,,,100,,,,,,,Space,keypress(Space),,,,,,,,-- --- ---- --- ------ ----- ------- ---- -- --- ------- --<br>------- ---------- ------ -- ----- -- ----- -- ---- ------<br>--- ----- --- --- ------ -------- ----- The ------ ----- --<br>----- ----- ---------- --- --- ------ ------ ---- -- ------<br>------- --- ------ ----- --- ---- ------- -- ---- --- --<br>------- ------,201892.19999999925,201891.09999999776,201550.011,201554.29999999702,201566.779,201902.235,,29,The
screen,html.Screen,2_1_1_1_30,2022-02-17T14:39:31.080Z,,,,,,,,,,,,,,,,,54,,,,,,,,,,,,,,380.4649999992689,,response,,,,100,,,,,,,Space,keypress(Space),,,,,,,,-- --- ---- --- ------ ----- ------- ---- -- --- ------- --<br>------- ---------- ------ -- ----- -- ----- -- ---- ------<br>--- ----- --- --- ------ -------- ----- --- market ----- --<br>----- ----- ---------- --- --- ------ ------ ---- -- ------<br>------- --- ------ ----- --- ---- ------- -- ---- --- --<br>------- ------,202283.79999999702,202282.69999999925,201885.467,201892.3999999985,201902.235,202287.98,,30,market
screen,html.Screen,2_1_1_1_31,2022-02-17T14:39:31.480Z,,,,,,,,,,,,,,,,,54,,,,,,,,,,,,,,395.3199999970093,,response,,,,100,,,,,,,Space,keypress(Space),,,,,,,,-- --- ---- --- ------ ----- ------- ---- -- --- ------- --<br>------- ---------- ------ -- ----- -- ----- -- ---- ------<br>--- ----- --- --- ------ -------- ----- --- ------ value --<br>----- ----- ---------- --- --- ------ ------ ---- -- ------<br>------- --- ------ ----- --- ---- ------- -- ---- --- --<br>------- ------,202684.29999999702,202683.29999999702,202271.212,202284.09999999776,202287.98,202690.484,,31,value
screen,html.Screen,2_1_1_1_32,2022-02-17T14:39:31.856Z,,,,,,,,,,,,,,,,,54,,,,,,,,,,,,,,368.1159999977681,,response,,,,100,,,,,,,Space,keypress(Space),,,,,,,,-- --- ---- --- ------ ----- ------- ---- -- --- ------- --<br>------- ---------- ------ -- ----- -- ----- -- ---- ------<br>--- ----- --- --- ------ -------- ----- --- ------ ----- of<br>----- ----- ---------- --- --- ------ ------ ---- -- ------<br>------- --- ------ ----- --- ---- ------- -- ---- --- --<br>------- ------,203059.79999999702,203058.59999999776,202673.716,202684.5,202690.484,203076.295,,32,of
screen,html.Screen,2_1_1_1_33,2022-02-17T14:39:32.216Z,,,,,,,,,,,,,,,,,54,,,,,,,,,,,,,,342.304999997752,,response,,,,100,,,,,,,Space,keypress(Space),,,,,,,,-- --- ---- --- ------ ----- ------- ---- -- --- ------- --<br>------- ---------- ------ -- ----- -- ----- -- ---- ------<br>--- ----- --- --- ------ -------- ----- --- ------ ----- --<br>these ----- ---------- --- --- ------ ------ ---- -- ------<br>------- --- ------ ----- --- ---- ------- -- ---- --- --<br>------- ------,203419.8999999985,203418.59999999776,203059.527,203060.09999999776,203076.295,203428.403,,33,these
screen,html.Screen,2_1_1_1_34,2022-02-17T14:39:32.559Z,,,,,,,,,,,,,,,,,54,,,,,,,,,,,,,,333.49699999851873,,response,,,,100,,,,,,,Space,keypress(Space),,,,,,,,-- --- ---- --- ------ ----- ------- ---- -- --- ------- --<br>------- ---------- ------ -- ----- -- ----- -- ---- ------<br>--- ----- --- --- ------ -------- ----- --- ------ ----- --<br>----- bonds ---------- --- --- ------ ------ ---- -- ------<br>------- --- ------ ----- --- ---- ------- -- ---- --- --<br>------- ------,203762.8999999985,203761.8999999985,203411.635,203420.29999999702,203428.403,203780.646,,34,bonds
screen,html.Screen,2_1_1_1_35,2022-02-17T14:39:32.912Z,,,,,,,,,,,,,,,,,54,,,,,,,,,,,,,,334.25399999850197,,response,,,,100,,,,,,,Space,keypress(Space),,,,,,,,"-- --- ---- --- ------ ----- ------- ---- -- --- ------- --<br>------- ---------- ------ -- ----- -- ----- -- ---- ------<br>--- ----- --- --- ------ -------- ----- --- ------ ----- --<br>----- ----- plummeted, --- --- ------ ------ ---- -- ------<br>------- --- ------ ----- --- ---- ------- -- ---- --- --<br>------- ------",204115.79999999702,204114.8999999985,203763.878,203763.09999999776,203780.646,204132.842,,35,"plummeted,"
screen,html.Screen,2_1_1_1_36,2022-02-17T14:39:33.323Z,,,,,,,,,,,,,,,,,54,,,,,,,,,,,,,,392.4579999970156,,response,,,,100,,,,,,,Space,keypress(Space),,,,,,,,-- --- ---- --- ------ ----- ------- ---- -- --- ------- --<br>------- ---------- ------ -- ----- -- ----- -- ---- ------<br>--- ----- --- --- ------ -------- ----- --- ------ ----- --<br>----- ----- ---------- and --- ------ ------ ---- -- ------<br>------- --- ------ ----- --- ---- ------- -- ---- --- --<br>------- ------,204526.59999999776,204525.29999999702,204116.074,204116.09999999776,204132.842,204535.42,,36,and
screen,html.Screen,2_1_1_1_37,2022-02-17T14:39:33.731Z,,,,,,,,,,,,,,,,,54,,,,,,,,,,,,,,398.77999999924214,,response,,,,100,,,,,,,Space,keypress(Space),,,,,,,,-- --- ---- --- ------ ----- ------- ---- -- --- ------- --<br>------- ---------- ------ -- ----- -- ----- -- ---- ------<br>--- ----- --- --- ------ -------- ----- --- ------ ----- --<br>----- ----- ---------- --- the ------ ------ ---- -- ------<br>------- --- ------ ----- --- ---- ------- -- ---- --- --<br>------- ------,204935.29999999702,204934.19999999925,204518.652,204526.8999999985,204535.42,204937.849,,37,the
screen,html.Screen,2_1_1_1_38,2022-02-17T14:39:34.123Z,,,,,,,,,,,,,,,,,54,,,,,,,,,,,,,,388.05099999852246,,response,,,,100,,,,,,,Space,keypress(Space),,,,,,,,-- --- ---- --- ------ ----- ------- ---- -- --- ------- --<br>------- ---------- ------ -- ----- -- ----- -- ---- ------<br>--- ----- --- --- ------ -------- ----- --- ------ ----- --<br>----- ----- ---------- --- --- market ------ ---- -- ------<br>------- --- ------ ----- --- ---- ------- -- ---- --- --<br>------- ------,205327,205325.8999999985,204921.081,204935.59999999776,204937.849,205340.443,,38,market
screen,html.Screen,2_1_1_1_39,2022-02-17T14:39:34.475Z,,,,,,,,,,,,,,,,,54,,,,,,,,,,,,,,336.6569999977655,,response,,,,100,,,,,,,Space,keypress(Space),,,,,,,,-- --- ---- --- ------ ----- ------- ---- -- --- ------- --<br>------- ---------- ------ -- ----- -- ----- -- ---- ------<br>--- ----- --- --- ------ -------- ----- --- ------ ----- --<br>----- ----- ---------- --- --- ------ became ---- -- ------<br>------- --- ------ ----- --- ---- ------- -- ---- --- --<br>------- ------,205678.79999999702,205677.09999999776,205323.675,205327.29999999702,205340.443,205692.58,,39,became
screen,html.Screen,2_1_1_1_40,2022-02-17T14:39:34.835Z,,,,,,,,,,,,,,,,,54,,,,,,,,,,,,,,345.3199999985227,,response,,,,100,,,,,,,Space,keypress(Space),,,,,,,,-- --- ---- --- ------ ----- ------- ---- -- --- ------- --<br>------- ---------- ------ -- ----- -- ----- -- ---- ------<br>--- ----- --- --- ------ -------- ----- --- ------ ----- --<br>----- ----- ---------- --- --- ------ ------ wary -- ------<br>------- --- ------ ----- --- ---- ------- -- ---- --- --<br>------- ------,206039.09999999776,206037.8999999985,205675.812,205679.29999999702,205692.58,206044.854,,40,wary
screen,html.Screen,2_1_1_1_41,2022-02-17T14:39:35.253Z,,,,,,,,,,,,,,,,,54,,,,,,,,,,,,,,411.1460000000079,,response,,,,100,,,,,,,Space,keypress(Space),,,,,,,,-- --- ---- --- ------ ----- ------- ---- -- --- ------- --<br>------- ---------- ------ -- ----- -- ----- -- ---- ------<br>--- ----- --- --- ------ -------- ----- --- ------ ----- --<br>----- ----- ---------- --- --- ------ ------ ---- of ------<br>------- --- ------ ----- --- ---- ------- -- ---- --- --<br>------- ------,206457.19999999925,206456,206028.086,206039.3999999985,206044.854,206464.129,,41,of
screen,html.Screen,2_1_1_1_42,2022-02-17T14:39:35.666Z,,,,,,,,,,,,,,,,,54,,,,,,,,,,,,,,404.47099999777856,,response,,,,100,,,,,,,Space,keypress(Space),,,,,,,,-- --- ---- --- ------ ----- ------- ---- -- --- ------- --<br>------- ---------- ------ -- ----- -- ----- -- ---- ------<br>--- ----- --- --- ------ -------- ----- --- ------ ----- --<br>----- ----- ---------- --- --- ------ ------ ---- -- French<br>------- --- ------ ----- --- ---- ------- -- ---- --- --<br>------- ------,206870.09999999776,206868.59999999776,206447.361,206457.5,206464.129,206883.392,,42,French
screen,html.Screen,2_1_1_1_43,2022-02-17T14:39:36.073Z,,,,,,,,,,,,,,,,,54,,,,,,,,,,,,,,392.8079999992624,,response,,,,100,,,,,,,Space,keypress(Space),,,,,,,,-- --- ---- --- ------ ----- ------- ---- -- --- ------- --<br>------- ---------- ------ -- ----- -- ----- -- ---- ------<br>--- ----- --- --- ------ -------- ----- --- ------ ----- --<br>----- ----- ---------- --- --- ------ ------ ---- -- ------<br>credit. --- ------ ----- --- ---- ------- -- ---- --- --<br>------- ------,207277.5,207276.19999999925,206866.624,206870.5,206883.392,207285.919,,43,credit.
screen,html.Screen,2_1_1_1_44,2022-02-17T14:39:36.993Z,,,,,,,,,,,,,,,,,54,,,,,,,,,,,,,,909.6809999977704,,response,,,,100,,,,,,,Space,keypress(Space),,,,,,,,-- --- ---- --- ------ ----- ------- ---- -- --- ------- --<br>------- ---------- ------ -- ----- -- ----- -- ---- ------<br>--- ----- --- --- ------ -------- ----- --- ------ ----- --<br>----- ----- ---------- --- --- ------ ------ ---- -- ------<br>------- The ------ ----- --- ---- ------- -- ---- --- --<br>------- ------,208197,208195.59999999776,207269.151,207277.69999999925,207285.919,208208.225,,44,The
screen,html.Screen,2_1_1_1_45,2022-02-17T14:39:37.382Z,,,,,,,,,,,,,,,,,54,,,,,,,,,,,,,,376.374999997759,,response,,,,100,,,,,,,Space,keypress(Space),,,,,,,,-- --- ---- --- ------ ----- ------- ---- -- --- ------- --<br>------- ---------- ------ -- ----- -- ----- -- ---- ------<br>--- ----- --- --- ------ -------- ----- --- ------ ----- --<br>----- ----- ---------- --- --- ------ ------ ---- -- ------<br>------- --- French ----- --- ---- ------- -- ---- --- --<br>------- ------,208585.79999999702,208584.59999999776,208191.457,208197.3999999985,208208.225,208594.12,,45,French
screen,html.Screen,2_1_1_1_46,2022-02-17T14:39:37.731Z,,,,,,,,,,,,,,,,,54,,,,,,,,,,,,,,339.27999999851454,,response,,,,100,,,,,,,Space,keypress(Space),,,,,,,,-- --- ---- --- ------ ----- ------- ---- -- --- ------- --<br>------- ---------- ------ -- ----- -- ----- -- ---- ------<br>--- ----- --- --- ------ -------- ----- --- ------ ----- --<br>----- ----- ---------- --- --- ------ ------ ---- -- ------<br>------- --- ------ state --- ---- ------- -- ---- --- --<br>------- ------,208934.69999999925,208933.3999999985,208577.352,208586,208594.12,208946.374,,46,state
screen,html.Screen,2_1_1_1_47,2022-02-17T14:39:38.119Z,,,,,,,,,,,,,,,,,54,,,,,,,,,,,,,,375.32599999924423,,response,,,,100,,,,,,,Space,keypress(Space),,,,,,,,-- --- ---- --- ------ ----- ------- ---- -- --- ------- --<br>------- ---------- ------ -- ----- -- ----- -- ---- ------<br>--- ----- --- --- ------ -------- ----- --- ------ ----- --<br>----- ----- ---------- --- --- ------ ------ ---- -- ------<br>------- --- ------ ----- was ---- ------- -- ---- --- --<br>------- ------,209323,209321.69999999925,208929.606,208934.8999999985,208946.374,209332.084,,47,was
screen,html.Screen,2_1_1_1_48,2022-02-17T14:39:38.472Z,,,,,,,,,,,,,,,,,54,,,,,,,,,,,,,,343.41599999999744,,response,,,,100,,,,,,,Space,keypress(Space),,,,,,,,-- --- ---- --- ------ ----- ------- ---- -- --- ------- --<br>------- ---------- ------ -- ----- -- ----- -- ---- ------<br>--- ----- --- --- ------ -------- ----- --- ------ ----- --<br>----- ----- ---------- --- --- ------ ------ ---- -- ------<br>------- --- ------ ----- --- left ------- -- ---- --- --<br>------- ------,209676.59999999776,209675.5,209315.316,209323.29999999702,209332.084,209684.245,,48,left
screen,html.Screen,2_1_1_1_49,2022-02-17T14:39:38.893Z,,,,,,,,,,,,,,,,,54,,,,,,,,,,,,,,411.75500000000466,,response,,,,100,,,,,,,Space,keypress(Space),,,,,,,,-- --- ---- --- ------ ----- ------- ---- -- --- ------- --<br>------- ---------- ------ -- ----- -- ----- -- ---- ------<br>--- ----- --- --- ------ -------- ----- --- ------ ----- --<br>----- ----- ---------- --- --- ------ ------ ---- -- ------<br>------- --- ------ ----- --- ---- without -- ---- --- --<br>------- ------,210097.09999999776,210096,209667.477,209676.79999999702,209684.245,210103.577,,49,without
screen,html.Screen,2_1_1_1_50,2022-02-17T14:39:39.262Z,,,,,,,,,,,,,,,,,54,,,,,,,,,,,,,,361.1229999992647,,response,,,,100,,,,,,,Space,keypress(Space),,,,,,,,-- --- ---- --- ------ ----- ------- ---- -- --- ------- --<br>------- ---------- ------ -- ----- -- ----- -- ---- ------<br>--- ----- --- --- ------ -------- ----- --- ------ ----- --<br>----- ----- ---------- --- --- ------ ------ ---- -- ------<br>------- --- ------ ----- --- ---- ------- an ---- --- --<br>------- ------,210465.69999999925,210464.69999999925,210086.809,210097.29999999702,210103.577,210472.586,,50,an
screen,html.Screen,2_1_1_1_51,2022-02-17T14:39:39.635Z,,,,,,,,,,,,,,,,,54,,,,,,,,,,,,,,365.81399999849964,,response,,,,100,,,,,,,Space,keypress(Space),,,,,,,,-- --- ---- --- ------ ----- ------- ---- -- --- ------- --<br>------- ---------- ------ -- ----- -- ----- -- ---- ------<br>--- ----- --- --- ------ -------- ----- --- ------ ----- --<br>----- ----- ---------- --- --- ------ ------ ---- -- ------<br>------- --- ------ ----- --- ---- ------- -- easy --- --<br>------- ------,210839.5,210838.3999999985,210455.818,210466,210472.586,210841.534,,51,easy
screen,html.Screen,2_1_1_1_52,2022-02-17T14:39:39.995Z,,,,,,,,,,,,,,,,,54,,,,,,,,,,,,,,355.8659999984957,,response,,,,100,,,,,,,Space,keypress(Space),,,,,,,,-- --- ---- --- ------ ----- ------- ---- -- --- ------- --<br>------- ---------- ------ -- ----- -- ----- -- ---- ------<br>--- ----- --- --- ------ -------- ----- --- ------ ----- --<br>----- ----- ---------- --- --- ------ ------ ---- -- ------<br>------- --- ------ ----- --- ---- ------- -- ---- way --<br>------- ------,211198.59999999776,211197.3999999985,210824.766,210839.79999999702,210841.534,211210.559,,52,way
screen,html.Screen,2_1_1_1_53,2022-02-17T14:39:40.381Z,,,,,,,,,,,,,,,,,54,,,,,,,,,,,,,,373.4409999999916,,response,,,,100,,,,,,,Space,keypress(Space),,,,,,,,-- --- ---- --- ------ ----- ------- ---- -- --- ------- --<br>------- ---------- ------ -- ----- -- ----- -- ---- ------<br>--- ----- --- --- ------ -------- ----- --- ------ ----- --<br>----- ----- ---------- --- --- ------ ------ ---- -- ------<br>------- --- ------ ----- --- ---- ------- -- ---- --- of<br>------- ------,211585.19999999925,211584,211193.791,211198.8999999985,211210.559,211596.22,,53,of
screen,html.Screen,2_1_1_1_54,2022-02-17T14:39:40.858Z,,,,,,,,,,,,,,,,,54,,,,,,,,,,,,,,464.87999999776366,,response,,,,100,,,,,,,Space,keypress(Space),,,,,,,,-- --- ---- --- ------ ----- ------- ---- -- --- ------- --<br>------- ---------- ------ -- ----- -- ----- -- ---- ------<br>--- ----- --- --- ------ -------- ----- --- ------ ----- --<br>----- ----- ---------- --- --- ------ ------ ---- -- ------<br>------- --- ------ ----- --- ---- ------- -- ---- --- --<br>raising ------,212062.19999999925,212061.09999999776,211579.452,211585.59999999776,211596.22,212065.938,,54,raising
screen,html.Screen,2_1_1_1_55,2022-02-17T14:39:41.342Z,,,,,,,,,,,,,,,,,54,,,,,,,,,,,,,,479.1619999977702,,response,,,,100,,,,,,,Space,keypress(Space),,,,,,,,-- --- ---- --- ------ ----- ------- ---- -- --- ------- --<br>------- ---------- ------ -- ----- -- ----- -- ---- ------<br>--- ----- --- --- ------ -------- ----- --- ------ ----- --<br>----- ----- ---------- --- --- ------ ------ ---- -- ------<br>------- --- ------ ----- --- ---- ------- -- ---- --- --<br>------- money.,212546.09999999776,212545.09999999776,212049.17,212062.3999999985,212065.938,212552.179,,55,money.
Item 100,flow.Loop,2_1_1_1,2022-02-17T14:39:41.342Z,,,,,,,,,,,,,,,,,,,,,,,,,,,,,,,25016.39199999775,,completion,,,,,E,,,,,,,,,,,silence,,,,,212546.5,212545.09999999776,187511.94,187514.3999999985,187528.708,212552.179,,,
Question 1,html.Screen,2_1_1_2,2022-02-17T14:39:45.028Z,,,,,,,,,,,,,,,,,,,,,,,,,,,,true,TRUE,,3677.120999997016,,response,,,,100,E,,,,,,TRUE,click #choice-1,,,,silence,,,,,216231.59999999776,216229.29999999702,212535.411,212546.59999999776,212552.179,216258.679,,,
Question 2,html.Screen,2_1_1_3,2022-02-17T14:39:47.193Z,,,,,,,,,,,,,,,,,,,,,,,,,,,,true,FALSE,,2135.220999998506,,response,,,,100,E,,,,,,FALSE,click #choice-2,,,,silence,,,,,218396.59999999776,218393.8999999985,216225.143,216232.29999999702,216258.679,218405.591,,,
Item 100,flow.Sequence,2_1_1,2022-02-17T14:39:47.193Z,,,,,,,,,,,,,,,,,,,,,,,,,,,,,,,40860.933999998524,,completion,,,,,,,,,,,,,,,,,,,,,218397.19999999925,218393.8999999985,177516.198,177533.19999999925,177532.966,218405.591,,,
End of Practice,html.Page,2_1_2,2022-02-17T14:39:52.909Z,,,,,,,,,,,,,,,,,,,,,,,,,,,,,,,5706.508999997779,,form submission,,,,,,,,,,,,,,,,,,,,,224113.09999999776,224112.09999999776,218388.823,218397.5,218405.591,224124.436,,,
Practice,flow.Sequence,2_1,2022-02-17T14:39:52.909Z,,,,,,,,,,,,,,,,,,,,,,,,,,,,,,,87921.52199999776,,completion,,,,,,,,,,,,,,,,,,,,,224113.5,224112.09999999776,136157.042,136167.09999999776,136190.578,224124.436,,,
Trap_instruction,html.Page,2_2_0,2022-02-17T14:39:59.029Z,,,,,,,,,,,,,,,,,,,,,,,,,,,,,,,6107.363999997033,,form submission,,,,,,,,,,,,,,,,,,,,,230233.59999999776,230231.79999999702,224107.668,224113.69999999925,224124.436,230278.657,,,
trap_trial,html.Screen,2_2_1,2022-02-17T14:40:01.793Z,,,,,,,,,,,,,,,,,,,,,,,,,,,,true,1,,2716.0429999992484,,response,,,,,,,,,,,1,click #choice-1,,,,,,,,,232996.69999999925,232994.69999999925,230228.353,230234,230278.657,232996.598,,,
end of trap trial,html.Page,2_2_2,2022-02-17T14:40:03.620Z,,,,,,,,,,,,,,,,,,,,,,,,,,,,,,,1826.5019999977667,,form submission,,,,,,,,,,,,,,,,,,,,,234824.09999999776,234823.09999999776,232979.83,232997.69999999925,232996.598,234825.097,,,
Trap 1,flow.Sequence,2_2,2022-02-17T14:40:03.621Z,,,,,,,,,,,,,,,,,,,,,,,,,,,,,,,10698.663999997778,,completion,,,,,,,,,,,,,,,,,,,,,234824.59999999776,234823.09999999776,224107.668,224113.59999999776,224124.436,234825.097,,,
Standby,html.Page,2_3_0,2022-02-17T14:40:11.604Z,,,,,,,,,,,,,,,,,,,,,,,,,,,,,,,7998.467000000004,,timeout,,,,,,,,,,,,,,,,,,,,,242808.29999999702,242806.796,234808.329,234825,234825.097,242823.564,,,
Holding screen,html.Screen,2_3_1_0_0,2022-02-17T14:40:18.601Z,,,,,,,,,,,,,,,,,,,,,,,,,,,,,,,6995.341999999975,,timeout,,,,,,,,,,,,,,,,,,,,,249804.79999999702,249802.138,242806.796,242808.79999999702,242823.564,249818.906,,,
screen,html.Screen,2_3_1_0_1_0,2022-02-17T14:40:19.591Z,,,,,,,,,,,,,,,,,2,,,,,,,,,,,,,,974.7939999992668,,response,,,,1,E,,,,,,Space,keypress(Space),,,,lyrical,,,,Two ---- ------ --- ------- ---------- ------- ----------<br>--- --------- --- ----------- ------- ----- ------- ---<br>--------- ---- -- --- ---- -- --------- -- ---- -------<br>-- --------- ------ --- ----- ------ ---- --- --------- --<br>------ - ---- -- --- ----------- ------- ---- ----- -----<br>--- -------- - ------ ---- -- ----- ---- --- --- -----------<br>-- -------,250795.3999999985,250793.69999999925,249802.138,249805.29999999702,249818.906,250808.456,,0,Two
screen,html.Screen,2_3_1_0_1_1,2022-02-17T14:40:20.048Z,,,,,,,,,,,,,,,,,2,,,,,,,,,,,,,,442.74399999924935,,response,,,,1,E,,,,,,Space,keypress(Space),,,,lyrical,,,,--- days ------ --- ------- ---------- ------- ----------<br>--- --------- --- ----------- ------- ----- ------- ---<br>--------- ---- -- --- ---- -- --------- -- ---- -------<br>-- --------- ------ --- ----- ------ ---- --- --------- --<br>------ - ---- -- --- ----------- ------- ---- ----- -----<br>--- -------- - ------ ---- -- ----- ---- --- --- -----------<br>-- -------,251252.29999999702,251251.19999999925,250791.688,250795.59999999776,250808.456,251261.412,,1,days
screen,html.Screen,2_3_1_0_1_2,2022-02-17T14:40:20.427Z,,,,,,,,,,,,,,,,,2,,,,,,,,,,,,,,368.5879999999888,,response,,,,1,E,,,,,,Space,keypress(Space),,,,lyrical,,,,"--- ---- later, --- ------- ---------- ------- ----------<br>--- --------- --- ----------- ------- ----- ------- ---<br>--------- ---- -- --- ---- -- --------- -- ---- -------<br>-- --------- ------ --- ----- ------ ---- --- --------- --<br>------ - ---- -- --- ----------- ------- ---- ----- -----<br>--- -------- - ------ ---- -- ----- ---- --- --- -----------<br>-- -------",251631.3999999985,251630,251244.644,251252.5,251261.412,251647.13,,2,"later,"
screen,html.Screen,2_3_1_0_1_3,2022-02-17T14:40:20.839Z,,,,,,,,,,,,,,,,,2,,,,,,,,,,,,,,395.36999999999534,,response,,,,1,E,,,,,,Space,keypress(Space),,,,lyrical,,,,--- ---- ------ the ------- ---------- ------- ----------<br>--- --------- --- ----------- ------- ----- ------- ---<br>--------- ---- -- --- ---- -- --------- -- ---- -------<br>-- --------- ------ --- ----- ------ ---- --- --------- --<br>------ - ---- -- --- ----------- ------- ---- ----- -----<br>--- -------- - ------ ---- -- ----- ---- --- --- -----------<br>-- -------,252043.5,252042.5,251630.362,251631.69999999925,251647.13,252049.692,,3,the
screen,html.Screen,2_3_1_0_1_4,2022-02-17T14:40:21.202Z,,,,,,,,,,,,,,,,,2,,,,,,,,,,,,,,355.4079999977548,,response,,,,1,E,,,,,,Space,keypress(Space),,,,lyrical,,,,--- ---- ------ --- British ---------- ------- ----------<br>--- --------- --- ----------- ------- ----- ------- ---<br>--------- ---- -- --- ---- -- --------- -- ---- -------<br>-- --------- ------ --- ----- ------ ---- --- --------- --<br>------ - ---- -- --- ----------- ------- ---- ----- -----<br>--- -------- - ------ ---- -- ----- ---- --- --- -----------<br>-- -------,252406.3999999985,252405.09999999776,252032.924,252043.69999999925,252049.692,252418.622,,4,British
screen,html.Screen,2_3_1_0_1_5,2022-02-17T14:40:21.676Z,,,,,,,,,,,,,,,,,2,,,,,,,,,,,,,,461.4779999977618,,response,,,,1,E,,,,,,Space,keypress(Space),,,,lyrical,,,,--- ---- ------ --- ------- astronomer ------- ----------<br>--- --------- --- ----------- ------- ----- ------- ---<br>--------- ---- -- --- ---- -- --------- -- ---- -------<br>-- --------- ------ --- ----- ------ ---- --- --------- --<br>------ - ---- -- --- ----------- ------- ---- ----- -----<br>--- -------- - ------ ---- -- ----- ---- --- --- -----------<br>-- -------,252881.09999999776,252880.09999999776,252401.854,252406.69999999925,252418.622,252888.246,,5,astronomer
screen,html.Screen,2_3_1_0_1_6,2022-02-17T14:40:22.418Z,,,,,,,,,,,,,,,,,2,,,,,,,,,,,,,,733.4539999992412,,response,,,,1,E,,,,,,Space,keypress(Space),,,,lyrical,,,,--- ---- ------ --- ------- ---------- Richard ----------<br>--- --------- --- ----------- ------- ----- ------- ---<br>--------- ---- -- --- ---- -- --------- -- ---- -------<br>-- --------- ------ --- ----- ------ ---- --- --------- --<br>------ - ---- -- --- ----------- ------- ---- ----- -----<br>--- -------- - ------ ---- -- ----- ---- --- --- -----------<br>-- -------,253622.8999999985,253621.69999999925,252871.478,252881.3999999985,252888.246,253626.153,,6,Richard
screen,html.Screen,2_3_1_0_1_7,2022-02-17T14:40:22.949Z,,,,,,,,,,,,,,,,,2,,,,,,,,,,,,,,525.6469999970286,,response,,,,1,E,,,,,,Space,keypress(Space),,,,lyrical,,,,--- ---- ------ --- ------- ---------- ------- Carrington<br>--- --------- --- ----------- ------- ----- ------- ---<br>--------- ---- -- --- ---- -- --------- -- ---- -------<br>-- --------- ------ --- ----- ------ ---- --- --------- --<br>------ - ---- -- --- ----------- ------- ---- ----- -----<br>--- -------- - ------ ---- -- ----- ---- --- --- -----------<br>-- -------,254153.19999999925,254151.79999999702,253609.385,253623.09999999776,253626.153,254162.861,,7,Carrington
screen,html.Screen,2_3_1_0_1_8,2022-02-17T14:40:23.388Z,,,,,,,,,,,,,,,,,2,,,,,,,,,,,,,,428.53899999850546,,response,,,,1,E,,,,,,Space,keypress(Space),,,,lyrical,,,,--- ---- ------ --- ------- ---------- ------- ----------<br>was --------- --- ----------- ------- ----- ------- ---<br>--------- ---- -- --- ---- -- --------- -- ---- -------<br>-- --------- ------ --- ----- ------ ---- --- --------- --<br>------ - ---- -- --- ----------- ------- ---- ----- -----<br>--- -------- - ------ ---- -- ----- ---- --- --- -----------<br>-- -------,254592.5,254591.3999999985,254146.093,254153.5,254162.861,254598.985,,8,was
screen,html.Screen,2_3_1_0_1_9,2022-02-17T14:40:23.868Z,,,,,,,,,,,,,,,,,2,,,,,,,,,,,,,,471.7149999992689,,response,,,,1,E,,,,,,Space,keypress(Space),,,,lyrical,,,,--- ---- ------ --- ------- ---------- ------- ----------<br>--- observing --- ----------- ------- ----- ------- ---<br>--------- ---- -- --- ---- -- --------- -- ---- -------<br>-- --------- ------ --- ----- ------ ---- --- --------- --<br>------ - ---- -- --- ----------- ------- ---- ----- -----<br>--- -------- - ------ ---- -- ----- ---- --- --- -----------<br>-- -------,255072.29999999702,255070.69999999925,254582.217,254592.79999999702,254598.985,255085.366,,9,observing
screen,html.Screen,2_3_1_0_1_10,2022-02-17T14:40:24.286Z,,,,,,,,,,,,,,,,,2,,,,,,,,,,,,,,403.73399999775575,,response,,,,1,E,,,,,,Space,keypress(Space),,,,lyrical,,,,--- ---- ------ --- ------- ---------- ------- ----------<br>--- --------- the ----------- ------- ----- ------- ---<br>--------- ---- -- --- ---- -- --------- -- ---- -------<br>-- --------- ------ --- ----- ------ ---- --- --------- --<br>------ - ---- -- --- ----------- ------- ---- ----- -----<br>--- -------- - ------ ---- -- ----- ---- --- --- -----------<br>-- -------,255490.59999999776,255489.09999999776,255068.598,255072.59999999776,255085.366,255504.668,,10,the
screen,html.Screen,2_3_1_0_1_11,2022-02-17T14:40:24.761Z,,,,,,,,,,,,,,,,,2,,,,,,,,,,,,,,460.0319999992498,,response,,,,1,E,,,,,,Space,keypress(Space),,,,lyrical,,,,--- ---- ------ --- ------- ---------- ------- ----------<br>--- --------- --- interesting ------- ----- ------- ---<br>--------- ---- -- --- ---- -- --------- -- ---- -------<br>-- --------- ------ --- ----- ------ ---- --- --------- --<br>------ - ---- -- --- ----------- ------- ---- ----- -----<br>--- -------- - ------ ---- -- ----- ---- --- --- -----------<br>-- -------,255965.8999999985,255964.69999999925,255487.9,255490.8999999985,255504.668,255974.183,,11,interesting
screen,html.Screen,2_3_1_0_1_12,2022-02-17T14:40:25.222Z,,,,,,,,,,,,,,,,,2,,,,,,,,,,,,,,451.6169999970298,,response,,,,1,E,,,,,,Space,keypress(Space),,,,lyrical,,,,--- ---- ------ --- ------- ---------- ------- ----------<br>--- --------- --- ----------- sunspot ----- ------- ---<br>--------- ---- -- --- ---- -- --------- -- ---- -------<br>-- --------- ------ --- ----- ------ ---- --- --------- --<br>------ - ---- -- --- ----------- ------- ---- ----- -----<br>--- -------- - ------ ---- -- ----- ---- --- --- -----------<br>-- -------,256426.8999999985,256425.79999999702,255957.415,255966.19999999925,255974.183,256443.943,,12,sunspot
screen,html.Screen,2_3_1_0_1_13,2022-02-17T14:40:25.684Z,,,,,,,,,,,,,,,,,2,,,,,,,,,,,,,,443.25699999925564,,response,,,,1,E,,,,,,Space,keypress(Space),,,,lyrical,,,,--- ---- ------ --- ------- ---------- ------- ----------<br>--- --------- --- ----------- ------- group ------- ---<br>--------- ---- -- --- ---- -- --------- -- ---- -------<br>-- --------- ------ --- ----- ------ ---- --- --------- --<br>------ - ---- -- --- ----------- ------- ---- ----- -----<br>--- -------- - ------ ---- -- ----- ---- --- --- -----------<br>-- -------,256889,256887.19999999925,256427.175,256427.09999999776,256443.943,256896.703,,13,group
screen,html.Screen,2_3_1_0_1_14,2022-02-17T14:40:26.132Z,,,,,,,,,,,,,,,,,2,,,,,,,,,,,,,,438.09699999701115,,response,,,,1,E,,,,,,Space,keypress(Space),,,,lyrical,,,,--- ---- ------ --- ------- ---------- ------- ----------<br>--- --------- --- ----------- ------- ----- through ---<br>--------- ---- -- --- ---- -- --------- -- ---- -------<br>-- --------- ------ --- ----- ------ ---- --- --------- --<br>------ - ---- -- --- ----------- ------- ---- ----- -----<br>--- -------- - ------ ---- -- ----- ---- --- --- -----------<br>-- -------,257336.3999999985,257334.79999999702,256879.935,256889.29999999702,256896.703,257349.526,,14,through
screen,html.Screen,2_3_1_0_1_15,2022-02-17T14:40:26.563Z,,,,,,,,,,,,,,,,,2,,,,,,,,,,,,,,416.67399999924237,,response,,,,1,E,,,,,,Space,keypress(Space),,,,lyrical,,,,--- ---- ------ --- ------- ---------- ------- ----------<br>--- --------- --- ----------- ------- ----- ------- his<br>--------- ---- -- --- ---- -- --------- -- ---- -------<br>-- --------- ------ --- ----- ------ ---- --- --------- --<br>------ - ---- -- --- ----------- ------- ---- ----- -----<br>--- -------- - ------ ---- -- ----- ---- --- --- -----------<br>-- -------,257767.3999999985,257766.19999999925,257332.758,257336.69999999925,257349.526,257768.773,,15,his
screen,html.Screen,2_3_1_0_1_16,2022-02-17T14:40:27.054Z,,,,,,,,,,,,,,,,,2,,,,,,,,,,,,,,487.92699999926845,,response,,,,1,E,,,,,,Space,keypress(Space),,,,lyrical,,,,--- ---- ------ --- ------- ---------- ------- ----------<br>--- --------- --- ----------- ------- ----- ------- ---<br>telescope ---- -- --- ---- -- --------- -- ---- -------<br>-- --------- ------ --- ----- ------ ---- --- --------- --<br>------ - ---- -- --- ----------- ------- ---- ----- -----<br>--- -------- - ------ ---- -- ----- ---- --- --- -----------<br>-- -------,258258.29999999702,258256.69999999925,257752.005,257767.69999999925,257768.773,258271.992,,16,telescope
screen,html.Screen,2_3_1_0_1_17,2022-02-17T14:40:27.526Z,,,,,,,,,,,,,,,,,2,,,,,,,,,,,,,,457.7079999992566,,response,,,,1,E,,,,,,Space,keypress(Space),,,,lyrical,,,,--- ---- ------ --- ------- ---------- ------- ----------<br>--- --------- --- ----------- ------- ----- ------- ---<br>--------- when -- --- ---- -- --------- -- ---- -------<br>-- --------- ------ --- ----- ------ ---- --- --------- --<br>------ - ---- -- --- ----------- ------- ---- ----- -----<br>--- -------- - ------ ---- -- ----- ---- --- --- -----------<br>-- -------,258731.09999999776,258729.69999999925,258255.224,258258.69999999925,258271.992,258741.524,,17,when
screen,html.Screen,2_3_1_0_1_18,2022-02-17T14:40:28.003Z,,,,,,,,,,,,,,,,,2,,,,,,,,,,,,,,465.17599999925005,,response,,,,1,E,,,,,,Space,keypress(Space),,,,lyrical,,,,--- ---- ------ --- ------- ---------- ------- ----------<br>--- --------- --- ----------- ------- ----- ------- ---<br>--------- ---- he --- ---- -- --------- -- ---- -------<br>-- --------- ------ --- ----- ------ ---- --- --------- --<br>------ - ---- -- --- ----------- ------- ---- ----- -----<br>--- -------- - ------ ---- -- ----- ---- --- --- -----------<br>-- -------,259207.8999999985,259206.69999999925,258724.756,258731.5,258741.524,259211.143,,18,he
screen,html.Screen,2_3_1_0_1_19,2022-02-17T14:40:28.398Z,,,,,,,,,,,,,,,,,2,,,,,,,,,,,,,,390.556999999244,,response,,,,1,E,,,,,,Space,keypress(Space),,,,lyrical,,,,--- ---- ------ --- ------- ---------- ------- ----------<br>--- --------- --- ----------- ------- ----- ------- ---<br>--------- ---- -- saw ---- -- --------- -- ---- -------<br>-- --------- ------ --- ----- ------ ---- --- --------- --<br>------ - ---- -- --- ----------- ------- ---- ----- -----<br>--- -------- - ------ ---- -- ----- ---- --- --- -----------<br>-- -------,259602.8999999985,259601.69999999925,259194.375,259208.09999999776,259211.143,259613.735,,19,saw
screen,html.Screen,2_3_1_0_1_20,2022-02-17T14:40:28.758Z,,,,,,,,,,,,,,,,,2,,,,,,,,,,,,,,348.16499999852385,,response,,,,1,E,,,,,,Space,keypress(Space),,,,lyrical,,,,--- ---- ------ --- ------- ---------- ------- ----------<br>--- --------- --- ----------- ------- ----- ------- ---<br>--------- ---- -- --- what -- --------- -- ---- -------<br>-- --------- ------ --- ----- ------ ---- --- --------- --<br>------ - ---- -- --- ----------- ------- ---- ----- -----<br>--- -------- - ------ ---- -- ----- ---- --- --- -----------<br>-- -------,259963,259961.8999999985,259596.967,259603.09999999776,259613.735,259965.956,,20,what
screen,html.Screen,2_3_1_0_1_21,2022-02-17T14:40:29.187Z,,,,,,,,,,,,,,,,,2,,,,,,,,,,,,,,424.64399999775924,,response,,,,1,E,,,,,,Space,keypress(Space),,,,lyrical,,,,--- ---- ------ --- ------- ---------- ------- ----------<br>--- --------- --- ----------- ------- ----- ------- ---<br>--------- ---- -- --- ---- he --------- -- ---- -------<br>-- --------- ------ --- ----- ------ ---- --- --------- --<br>------ - ---- -- --- ----------- ------- ---- ----- -----<br>--- -------- - ------ ---- -- ----- ---- --- --- -----------<br>-- -------,260391.8999999985,260390.59999999776,259949.188,259963.19999999925,259965.956,260401.94,,21,he
screen,html.Screen,2_3_1_0_1_22,2022-02-17T14:40:29.626Z,,,,,,,,,,,,,,,,,2,,,,,,,,,,,,,,427.2599999992526,,response,,,,1,E,,,,,,Space,keypress(Space),,,,lyrical,,,,--- ---- ------ --- ------- ---------- ------- ----------<br>--- --------- --- ----------- ------- ----- ------- ---<br>--------- ---- -- --- ---- -- described -- ---- -------<br>-- --------- ------ --- ----- ------ ---- --- --------- --<br>------ - ---- -- --- ----------- ------- ---- ----- -----<br>--- -------- - ------ ---- -- ----- ---- --- --- -----------<br>-- -------,260830.5,260829.19999999925,260385.172,260392.19999999925,260401.94,260837.996,,22,described
screen,html.Screen,2_3_1_0_1_23,2022-02-17T14:40:30.300Z,,,,,,,,,,,,,,,,,2,,,,,,,,,,,,,,665.6039999977511,,response,,,,1,E,,,,,,Space,keypress(Space),,,,lyrical,,,,--- ---- ------ --- ------- ---------- ------- ----------<br>--- --------- --- ----------- ------- ----- ------- ---<br>--------- ---- -- --- ---- -- --------- as ---- -------<br>-- --------- ------ --- ----- ------ ---- --- --------- --<br>------ - ---- -- --- ----------- ------- ---- ----- -----<br>--- -------- - ------ ---- -- ----- ---- --- --- -----------<br>-- -------,261504.69999999925,261503.59999999776,260821.228,260833.5,260837.996,261508.835,,23,as
screen,html.Screen,2_3_1_0_1_24,2022-02-17T14:40:30.746Z,,,,,,,,,,,,,,,,,2,,,,,,,,,,,,,,440.264999997773,,response,,,,1,E,,,,,,Space,keypress(Space),,,,lyrical,,,,"--- ---- ------ --- ------- ---------- ------- ----------<br>--- --------- --- ----------- ------- ----- ------- ---<br>--------- ---- -- --- ---- -- --------- -- ""two -------<br>-- --------- ------ --- ----- ------ ---- --- --------- --<br>------ - ---- -- --- ----------- ------- ---- ----- -----<br>--- -------- - ------ ---- -- ----- ---- --- --- -----------<br>-- -------",261950.3999999985,261949.09999999776,261492.067,261504.8999999985,261508.835,261961.79,,24,"""two"
screen,html.Screen,2_3_1_0_1_25,2022-02-17T14:40:31.148Z,,,,,,,,,,,,,,,,,2,,,,,,,,,,,,,,389.3099999977567,,response,,,,1,E,,,,,,Space,keypress(Space),,,,lyrical,,,,--- ---- ------ --- ------- ---------- ------- ----------<br>--- --------- --- ----------- ------- ----- ------- ---<br>--------- ---- -- --- ---- -- --------- -- ---- patches<br>-- --------- ------ --- ----- ------ ---- --- --------- --<br>------ - ---- -- --- ----------- ------- ---- ----- -----<br>--- -------- - ------ ---- -- ----- ---- --- --- -----------<br>-- -------,262352.3999999985,262351.09999999776,261945.022,261950.59999999776,261961.79,262364.303,,25,patches
screen,html.Screen,2_3_1_0_1_26,2022-02-17T14:40:31.532Z,,,,,,,,,,,,,,,,,2,,,,,,,,,,,,,,370.59699999849545,,response,,,,1,E,,,,,,Space,keypress(Space),,,,lyrical,,,,--- ---- ------ --- ------- ---------- ------- ----------<br>--- --------- --- ----------- ------- ----- ------- ---<br>--------- ---- -- --- ---- -- --------- -- ---- -------<br>of --------- ------ --- ----- ------ ---- --- --------- --<br>------ - ---- -- --- ----------- ------- ---- ----- -----<br>--- -------- - ------ ---- -- ----- ---- --- --- -----------<br>-- -------,262736.299999997,262734.8999999985,262347.535,262352.69999999925,262364.303,262750.066,,26,of
screen,html.Screen,2_3_1_0_1_27,2022-02-17T14:40:31.956Z,,,,,,,,,,,,,,,,,2,,,,,,,,,,,,,,409.23399999702815,,response,,,,1,E,,,,,,Space,keypress(Space),,,,lyrical,,,,--- ---- ------ --- ------- ---------- ------- ----------<br>--- --------- --- ----------- ------- ----- ------- ---<br>--------- ---- -- --- ---- -- --------- -- ---- -------<br>-- intensely ------ --- ----- ------ ---- --- --------- --<br>------ - ---- -- --- ----------- ------- ---- ----- -----<br>--- -------- - ------ ---- -- ----- ---- --- --- -----------<br>-- -------,263160.69999999925,263159.299999997,262733.298,262736.5,262750.066,263169.398,,27,intensely
screen,html.Screen,2_3_1_0_1_28,2022-02-17T14:40:32.326Z,,,,,,,,,,,,,,,,,2,,,,,,,,,,,,,,359.9019999970333,,response,,,,1,E,,,,,,Space,keypress(Space),,,,lyrical,,,,--- ---- ------ --- ------- ---------- ------- ----------<br>--- --------- --- ----------- ------- ----- ------- ---<br>--------- ---- -- --- ---- -- --------- -- ---- -------<br>-- --------- bright --- ----- ------ ---- --- --------- --<br>------ - ---- -- --- ----------- ------- ---- ----- -----<br>--- -------- - ------ ---- -- ----- ---- --- --- -----------<br>-- -------,263530.5,263529.299999997,263152.63,263161.09999999776,263169.398,263538.275,,28,bright
screen,html.Screen,2_3_1_0_1_29,2022-02-17T14:40:32.699Z,,,,,,,,,,,,,,,,,2,,,,,,,,,,,,,,364.1249999984866,,response,,,,1,E,,,,,,Space,keypress(Space),,,,lyrical,,,,--- ---- ------ --- ------- ---------- ------- ----------<br>--- --------- --- ----------- ------- ----- ------- ---<br>--------- ---- -- --- ---- -- --------- -- ---- -------<br>-- --------- ------ and ----- ------ ---- --- --------- --<br>------ - ---- -- --- ----------- ------- ---- ----- -----<br>--- -------- - ------ ---- -- ----- ---- --- --- -----------<br>-- -------,263904,263902.3999999985,263521.507,263530.799999997,263538.275,263907.261,,29,and
screen,html.Screen,2_3_1_0_1_30,2022-02-17T14:40:33.030Z,,,,,,,,,,,,,,,,,2,,,,,,,,,,,,,,325.8389999977662,,response,,,,1,E,,,,,,Space,keypress(Space),,,,lyrical,,,,--- ---- ------ --- ------- ---------- ------- ----------<br>--- --------- --- ----------- ------- ----- ------- ---<br>--------- ---- -- --- ---- -- --------- -- ---- -------<br>-- --------- ------ --- white ------ ---- --- --------- --<br>------ - ---- -- --- ----------- ------- ---- ----- -----<br>--- -------- - ------ ---- -- ----- ---- --- --- -----------<br>-- -------,264234.3999999985,264233.09999999776,263890.493,263904.299999997,263907.261,264242.768,,30,white
screen,html.Screen,2_3_1_0_1_31,2022-02-17T14:40:33.420Z,,,,,,,,,,,,,,,,,2,,,,,,,,,,,,,,380.331999997783,,response,,,,1,E,,,,,,Space,keypress(Space),,,,lyrical,,,,"--- ---- ------ --- ------- ---------- ------- ----------<br>--- --------- --- ----------- ------- ----- ------- ---<br>--------- ---- -- --- ---- -- --------- -- ---- -------<br>-- --------- ------ --- ----- light"" ---- --- --------- --<br>------ - ---- -- --- ----------- ------- ---- ----- -----<br>--- -------- - ------ ---- -- ----- ---- --- --- -----------<br>-- -------",264624.299999997,264623.09999999776,264226,264234.59999999776,264242.768,264628.48,,31,"light"""
screen,html.Screen,2_3_1_0_1_32,2022-02-17T14:40:33.695Z,,,,,,,,,,,,,,,,,2,,,,,,,,,,,,,,269.0200000000186,,response,,,,1,E,,,,,,Space,keypress(Space),,,,lyrical,,,,--- ---- ------ --- ------- ---------- ------- ----------<br>--- --------- --- ----------- ------- ----- ------- ---<br>--------- ---- -- --- ---- -- --------- -- ---- -------<br>-- --------- ------ --- ----- ------ over --- --------- --<br>------ - ---- -- --- ----------- ------- ---- ----- -----<br>--- -------- - ------ ---- -- ----- ---- --- --- -----------<br>-- -------,264899.5,264897.5,264611.712,264624.5,264628.48,264913.668,,32,over
screen,html.Screen,2_3_1_0_1_33,2022-02-17T14:40:34.078Z,,,,,,,,,,,,,,,,,2,,,,,,,,,,,,,,368.0319999992498,,response,,,,1,E,,,,,,Space,keypress(Space),,,,lyrical,,,,--- ---- ------ --- ------- ---------- ------- ----------<br>--- --------- --- ----------- ------- ----- ------- ---<br>--------- ---- -- --- ---- -- --------- -- ---- -------<br>-- --------- ------ --- ----- ------ ---- the --------- --<br>------ - ---- -- --- ----------- ------- ---- ----- -----<br>--- -------- - ------ ---- -- ----- ---- --- --- -----------<br>-- -------,265282.8999999985,265281.69999999925,264896.9,264899.8999999985,264913.668,265299.351,,33,the
screen,html.Screen,2_3_1_0_1_34,2022-02-17T14:40:34.367Z,,,,,,,,,,,,,,,,,2,,,,,,,,,,,,,,270.8489999992307,,response,,,,1,E,,,,,,Space,keypress(Space),,,,lyrical,,,,--- ---- ------ --- ------- ---------- ------- ----------<br>--- --------- --- ----------- ------- ----- ------- ---<br>--------- ---- -- --- ---- -- --------- -- ---- -------<br>-- --------- ------ --- ----- ------ ---- --- sunspots. --<br>------ - ---- -- --- ----------- ------- ---- ----- -----<br>--- -------- - ------ ---- -- ----- ---- --- --- -----------<br>-- -------,265571.3999999985,265570.19999999925,265282.583,265283.19999999925,265299.351,265584.491,,34,sunspots.
screen,html.Screen,2_3_1_0_1_35,2022-02-17T14:40:34.770Z,,,,,,,,,,,,,,,,,2,,,,,,,,,,,,,,389.3089999970398,,response,,,,1,E,,,,,,Space,keypress(Space),,,,lyrical,,,,--- ---- ------ --- ------- ---------- ------- ----------<br>--- --------- --- ----------- ------- ----- ------- ---<br>--------- ---- -- --- ---- -- --------- -- ---- -------<br>-- --------- ------ --- ----- ------ ---- --- --------- He<br>------ - ---- -- --- ----------- ------- ---- ----- -----<br>--- -------- - ------ ---- -- ----- ---- --- --- -----------<br>-- -------,265975.09999999776,265973.799999997,265567.723,265571.59999999776,265584.491,265986.953,,35,He
screen,html.Screen,2_3_1_0_1_36,2022-02-17T14:40:35.206Z,,,,,,,,,,,,,,,,,2,,,,,,,,,,,,,,422.74699999927543,,response,,,,1,E,,,,,,Space,keypress(Space),,,,lyrical,,,,--- ---- ------ --- ------- ---------- ------- ----------<br>--- --------- --- ----------- ------- ----- ------- ---<br>--------- ---- -- --- ---- -- --------- -- ---- -------<br>-- --------- ------ --- ----- ------ ---- --- --------- --<br>jotted - ---- -- --- ----------- ------- ---- ----- -----<br>--- -------- - ------ ---- -- ----- ---- --- --- -----------<br>-- -------,266411,266409.69999999925,265970.185,265975.3999999985,265986.953,266423.062,,36,jotted
screen,html.Screen,2_3_1_0_1_37,2022-02-17T14:40:35.559Z,,,,,,,,,,,,,,,,,2,,,,,,,,,,,,,,338.83799999853363,,response,,,,1,E,,,,,,Space,keypress(Space),,,,lyrical,,,,--- ---- ------ --- ------- ---------- ------- ----------<br>--- --------- --- ----------- ------- ----- ------- ---<br>--------- ---- -- --- ---- -- --------- -- ---- -------<br>-- --------- ------ --- ----- ------ ---- --- --------- --<br>------ a ---- -- --- ----------- ------- ---- ----- -----<br>--- -------- - ------ ---- -- ----- ---- --- --- -----------<br>-- -------,266763.19999999925,266761.8999999985,266406.294,266411.299999997,266423.062,266775.256,,37,a
