sender,sender_type,sender_id,timestamp,meta,,Blues,Classical,Country,Dance,Electronic,Folk,Gospel,Hip-Hop,Jazz,Latin,Musical/Film,New-age,Pop,Prolific_id,Provo_ID,R&B,Rap,Reggae,Religious,Rock,Soul,Swing,Traditional,age,artist_name,correct,correctResponse,distraction,duration,education,ended_on,familiarity,gender,headphone_check_performance,item,list,music_frequency,offensiveness,pleasantness,position_correct,preference,response,response_action,snippet_file,song_name,song_rating,sound,stimulus_1,stimulus_2,stimulus_3,text,time_commit,time_end,time_render,time_run,time_show,time_switch,url,word,word_ID
Prolific ID,html.Form,0,2022-02-02T21:54:41.426Z,"{""labjs_version"":""20.2.2"",""labjs_build"":{""flavor"":""production"",""commit"":""a25486e0c714a0ae2ce03ff94b7bb6896854dcfa""},""location"":""https://run.pavlovia.org/mvasilev/prolific2_music_e/"",""userAgent"":""Mozilla/5.0 (Windows NT 10.0; Win64; x64) AppleWebKit/537.36 (KHTML, like Gecko) Chrome/97.0.4692.99 Safari/537.36"",""platform"":""Win32"",""language"":""en-GB"",""locale"":""en-GB"",""timeZone"":""Europe/London"",""timezoneOffset"":0,""screen_width"":1366,""screen_height"":768,""scroll_width"":1366,""scroll_height"":609,""window_innerWidth"":1366,""window_innerHeight"":657,""devicePixelRatio"":1}",,,,,,,,,,,,,,,5a9ad69adbdb470001eee577,,,,,,,,,,,,,,,52470.66100004768,,form submission,,,,,,,,,,,,,,,,,,,,,67002.40000003576,67001.70000004768,14497.723,14498.800000011921,14531.039,67062.849,{},,
Introduction,html.Screen,1_0,2022-02-02T21:56:50.263Z,,,,,,,,,,,,,,,,,,,,,,,,,,,,,,,128775.05100003576,,response,,,,,,,,,,,continue,click button,,,,,,,,,195841,195837.90000003576,66996.217,67003,67062.849,195854.724,,,
Volume calibration,html.Screen,1_1,2022-02-02T21:57:08.312Z,,,,,,,,,,,,,,,,,,,,,,,,,,,,,,,18031.176000035775,,response,,,,,,,,,,,continue,click button,,,,,,,,,213889.60000002384,213885.90000003576,195838.066,195841.10000002384,195854.724,213891.252,,,
Task instructions,html.Screen,1_2,2022-02-02T21:57:14.326Z,,,,,,,,,,,,,,,,,,,,,,,,,,,,,,,6011.648000035755,,response,,,,,,,,,,,continue,click button,,,,,,,,,219903.80000001192,219902.90000003576,213874.594,213889.80000001192,213891.252,219909.378,,,
Sounds,html.Screen,1_3_0_0,2022-02-02T21:57:18.567Z,,,,,,,,,,,,,,,,,,,,,,,,,,,,,,,4244.409000000014,,timeout,,,,,,,,,1,,,,,,,,S,O,I,,224144.70000004768,224137.129,219892.72,219904,219909.378,224153.787,,,
Judgement,html.Screen,1_3_0_1,2022-02-02T21:57:22.841Z,,,,,,,,,,,,,,,,,,,,,,,,,,,,true,1,,4263.313000023831,,response,,,,,,,,,1,,1,click #choice-1,,,,,S,O,I,,228418.20000004768,228417.10000002384,224137.129,224145.10000002384,224153.787,228418.909,,,
Trial,flow.Sequence,1_3_0,2022-02-02T21:57:22.843Z,,,,,,,,,,,,,,,,,,,,,,,,,,,,,,,8507.722000023845,,completion,,,,,,,,,1,,,,,,,,S,O,I,,228420,228417.10000002384,219892.72,219904,219909.378,228418.909,,,
Sounds,html.Screen,1_3_1_0,2022-02-02T21:57:27.079Z,,,,,,,,,,,,,,,,,,,,,,,,,,,,,,,4252.109999999986,,timeout,,,,,,,,,2,,,,,,,,O,S,I,,232656.10000002384,232654.361,228402.251,228420.20000004768,228418.909,232671.019,,,
Judgement,html.Screen,1_3_1_1,2022-02-02T21:57:28.522Z,,,,,,,,,,,,,,,,,,,,,,,,,,,,true,2,,1427.6810000476835,,response,,,,,,,,,2,,2,click #choice-2,,,,,O,S,I,,234099.90000003576,234098.70000004768,232654.361,232656.5,232671.019,234114.782,,,
Trial,flow.Sequence,1_3_1,2022-02-02T21:57:28.523Z,,,,,,,,,,,,,,,,,,,,,,,,,,,,,,,5679.7910000476695,,completion,,,,,,,,,2,,,,,,,,O,S,I,,234100.20000004768,234098.70000004768,228402.251,228420.20000004768,228418.909,234114.782,,,
Sounds,html.Screen,1_3_2_0,2022-02-02T21:57:32.773Z,,,,,,,,,,,,,,,,,,,,,,,,,,,,,,,4249.684999999998,,timeout,,,,,,,,,3,,,,,,,,O,I,S,,238350.40000003576,238347.809,234098.124,234100.5,234114.782,238364.467,,,
Judgement,html.Screen,1_3_2_1,2022-02-02T21:57:34.076Z,,,,,,,,,,,,,,,,,,,,,,,,,,,,true,3,,1288.0329999999958,,response,,,,,,,,,3,,3,click #choice-3,,,,,O,I,S,,239653.5,239652.5,238347.809,238350.90000003576,238364.467,239659.639,,,
Trial,flow.Sequence,1_3_2,2022-02-02T21:57:34.076Z,,,,,,,,,,,,,,,,,,,,,,,,,,,,,,,5537.7179999999935,,completion,,,,,,,,,3,,,,,,,,O,I,S,,239653.80000001192,239652.5,234098.124,234100.40000003576,234114.782,239659.639,,,
Sounds,html.Screen,1_3_3_0,2022-02-02T21:57:38.316Z,,,,,,,,,,,,,,,,,,,,,,,,,,,,,,,4249.285999999993,,timeout,,,,,,,,,3,,,,,,,,I,O,S,,243893.40000003576,243892.267,239642.981,239654,239659.639,243908.925,,,
Judgement,html.Screen,1_3_3_1,2022-02-02T21:57:39.361Z,,,,,,,,,,,,,,,,,,,,,,,,,,,,true,3,,1028.3750000119326,,response,,,,,,,,,3,,3,click #choice-3,,,,,I,O,S,,244938.40000003576,244937.30000001192,243892.267,243893.5,243908.925,244952.54,,,
Trial,flow.Sequence,1_3_3,2022-02-02T21:57:39.361Z,,,,,,,,,,,,,,,,,,,,,,,,,,,,,,,5277.661000011925,,completion,,,,,,,,,3,,,,,,,,I,O,S,,244938.60000002384,244937.30000001192,239642.981,239654,239659.639,244952.54,,,
Sounds,html.Screen,1_3_4_0,2022-02-02T21:57:43.611Z,,,,,,,,,,,,,,,,,,,,,,,,,,,,,,,4250.440000000002,,timeout,,,,,,,,,1,,,,,,,,S,I,O,,249188.60000002384,249186.322,244935.882,244939.10000002384,244952.54,249202.98,,,
Judgement,html.Screen,1_3_4_1,2022-02-02T21:57:44.850Z,,,,,,,,,,,,,,,,,,,,,,,,,,,,true,1,,1223.5199999999895,,response,,,,,,,,,1,,1,click #choice-1,,,,,S,I,O,,250427.70000004768,250426.5,249186.322,249188.90000003576,249202.98,250431.268,,,
Trial,flow.Sequence,1_3_4,2022-02-02T21:57:44.850Z,,,,,,,,,,,,,,,,,,,,,,,,,,,,,,,5473.959999999992,,completion,,,,,,,,,1,,,,,,,,S,I,O,,250427.90000003576,250426.5,244935.882,244939,244952.54,250431.268,,,
Sounds,html.Screen,1_3_5_0,2022-02-02T21:57:49.088Z,,,,,,,,,,,,,,,,,,,,,,,,,,,,,,,4249.373999999982,,timeout,,,,,,,,,2,,,,,,,,I,S,O,,254665.40000003576,254663.984,250414.61,250428,250431.268,254680.642,,,
Judgement,html.Screen,1_3_5_1,2022-02-02T21:57:49.901Z,,,,,,,,,,,,,,,,,,,,,,,,,,,,true,2,,795.4580000238493,,response,,,,,,,,,2,,2,click #choice-2,,,,,I,S,O,,255477.5,255476.10000002384,254663.984,254665.5,254680.642,255491.264,,,
Trial,flow.Sequence,1_3_5,2022-02-02T21:57:49.901Z,,,,,,,,,,,,,,,,,,,,,,,,,,,,,,,5044.832000023831,,completion,,,,,,,,,2,,,,,,,,I,S,O,,255477.70000004768,255476.10000002384,250414.61,250428,250431.268,255491.264,,,
Task,flow.Loop,1_3,2022-02-02T21:57:49.906Z,,,,,,,,,,,,,,,,,,,,,,,,,,,,,,,35566.722000023845,,completion,,,1,,,,,,,,,,,,,,,,,,255483.30000001192,255476.10000002384,219892.72,219903.90000003576,219909.378,255491.264,,,
Trap,html.Screen,1_4,2022-02-02T21:57:49.908Z,,,,,,,,,,,,,,,,,,,,,,,,,,,,,,,NaN,,skipped,,,,,,,,,,,,,,,,,,,,,255484.80000001192,255476.10000002384,,255484.60000002384,,255491.264,,,
Thanks,html.Screen,1_5,2022-02-02T21:57:54.514Z,,,,,,,,,,,,,,,,,,,,,,,,,,,,,,,4598.936000047688,,response,,,,,,,,,,,continue,click button,,,,,,,,,260091.30000001192,260090.20000004768,255474.606,255484.90000003576,255491.264,266316.257,,,
Headphone screening,flow.Sequence,1,2022-02-02T21:57:54.515Z,,,,,,,,,,,,,,,,,,,,,,,,,,,,,,,193027.3510000477,,completion,,,,,,,,,,,,,,,,,,,,,260091.70000004768,260090.20000004768,66996.217,67003,67062.849,266316.257,,,
Instructions,html.Page,2_0,2022-02-02T21:58:18.285Z,,,,,,,,,,,,,,,,,,,,,,,,,,,,,,,17545.34300002386,,form submission,,,,,,,,,,,,,,,,,,,,,283861.90000003576,283861.60000002384,266299.599,266324.7000000477,266316.257,283865.545,,,
Holding screen,html.Screen,2_1_0_0,2022-02-02T21:58:28.274Z,,,,,,,,,,,,,,,,,,,,,,,,,,,,,,,10149.875,,timeout,,,,,,,,,,,,,,,,,,,,,293851.2000000477,293848.84,283848.887,283862.2000000477,283865.545,294015.42,,,
screen,html.Screen,2_1_0_1_0,2022-02-02T21:58:29.590Z,,,,,,,,,,,,,,,,,53,,,,,,,,,,,,,,1143.7800000477,,response,,,,99,,,,,,,Space,keypress(Space),,,,,,,,When -- ----- -- ------ - ------- --- ----------<br>------------- ------ ------ ---- ---- ------- ----- -- ----<br>-------- ------- -- ---------- --- - --- ----- ----- ----<br>---- --- --- ----- --- ---- ---- ------- ----- ---- -------<br>--- --- -- ----- -- --- ---- -- --- ---- -- ------ ------<br>--- ----- -- ----,295166.7000000477,295159.2000000477,293848.84,293851.8000000119,294015.42,295167.309,,0,When
screen,html.Screen,2_1_0_1_1,2022-02-02T21:58:30.211Z,,,,,,,,,,,,,,,,,53,,,,,,,,,,,,,,618.2910000238335,,response,,,,99,,,,,,,Space,keypress(Space),,,,,,,,---- it ----- -- ------ - ------- --- ----------<br>------------- ------ ------ ---- ---- ------- ----- -- ----<br>-------- ------- -- ---------- --- - --- ----- ----- ----<br>---- --- --- ----- --- ---- ---- ------- ----- ---- -------<br>--- --- -- ----- -- --- ---- -- --- ---- -- ------ ------<br>--- ----- -- ----,295787.7000000477,295785.60000002384,295150.651,295167.10000002384,295167.309,295803.312,,1,it
screen,html.Screen,2_1_0_1_2,2022-02-02T21:58:30.883Z,,,,,,,,,,,,,,,,,53,,,,,,,,,,,,,,652.5880000357865,,response,,,,99,,,,,,,Space,keypress(Space),,,,,,,,---- -- comes -- ------ - ------- --- ----------<br>------------- ------ ------ ---- ---- ------- ----- -- ----<br>-------- ------- -- ---------- --- - --- ----- ----- ----<br>---- --- --- ----- --- ---- ---- ------- ----- ---- -------<br>--- --- -- ----- -- --- ---- -- --- ---- -- ------ ------<br>--- ----- -- ----,296460.10000002384,296455.90000003576,295786.654,295788.10000002384,295803.312,296472.576,,2,comes
screen,html.Screen,2_1_0_1_3,2022-02-02T21:58:31.405Z,,,,,,,,,,,,,,,,,53,,,,,,,,,,,,,,507.0240000238409,,response,,,,99,,,,,,,Space,keypress(Space),,,,,,,,---- -- ----- to ------ - ------- --- ----------<br>------------- ------ ------ ---- ---- ------- ----- -- ----<br>-------- ------- -- ---------- --- - --- ----- ----- ----<br>---- --- --- ----- --- ---- ---- ------- ----- ---- -------<br>--- --- -- ----- -- --- ---- -- --- ---- -- ------ ------<br>--- ----- -- ----,296981.7000000477,296979.60000002384,296455.918,296460.5,296472.576,296990.54,,3,to
screen,html.Screen,2_1_0_1_4,2022-02-02T21:58:31.910Z,,,,,,,,,,,,,,,,,53,,,,,,,,,,,,,,494.0600000238628,,response,,,,99,,,,,,,Space,keypress(Space),,,,,,,,---- -- ----- -- having - ------- --- ----------<br>------------- ------ ------ ---- ---- ------- ----- -- ----<br>-------- ------- -- ---------- --- - --- ----- ----- ----<br>---- --- --- ----- --- ---- ---- ------- ----- ---- -------<br>--- --- -- ----- -- --- ---- -- --- ---- -- ------ ------<br>--- ----- -- ----,297486.5,297484.60000002384,296973.882,296982.10000002384,296990.54,297491.973,,4,having
screen,html.Screen,2_1_0_1_5,2022-02-02T21:58:32.476Z,,,,,,,,,,,,,,,,,53,,,,,,,,,,,,,,558.9270000357646,,response,,,,99,,,,,,,Space,keypress(Space),,,,,,,,---- -- ----- -- ------ a ------- --- ----------<br>------------- ------ ------ ---- ---- ------- ----- -- ----<br>-------- ------- -- ---------- --- - --- ----- ----- ----<br>---- --- --- ----- --- ---- ---- ------- ----- ---- -------<br>--- --- -- ----- -- --- ---- -- --- ---- -- ------ ------<br>--- ----- -- ----,298052.8000000119,298050.90000003576,297475.315,297486.90000003576,297491.973,298059.685,,5,a
screen,html.Screen,2_1_0_1_6,2022-02-02T21:58:33.071Z,,,,,,,,,,,,,,,,,53,,,,,,,,,,,,,,586.8150000000023,,response,,,,99,,,,,,,Space,keypress(Space),,,,,,,,---- -- ----- -- ------ - lasting --- ----------<br>------------- ------ ------ ---- ---- ------- ----- -- ----<br>-------- ------- -- ---------- --- - --- ----- ----- ----<br>---- --- --- ----- --- ---- ---- ------- ----- ---- -------<br>--- --- -- ----- -- --- ---- -- --- ---- -- ------ ------<br>--- ----- -- ----,298648.40000003576,298646.5,298043.027,298053.2000000477,298059.685,298660.655,,6,lasting
screen,html.Screen,2_1_0_1_7,2022-02-02T21:58:33.626Z,,,,,,,,,,,,,,,,,53,,,,,,,,,,,,,,540.0450000476558,,response,,,,99,,,,,,,Space,keypress(Space),,,,,,,,---- -- ----- -- ------ - ------- and ----------<br>------------- ------ ------ ---- ---- ------- ----- -- ----<br>-------- ------- -- ---------- --- - --- ----- ----- ----<br>---- --- --- ----- --- ---- ---- ------- ----- ---- -------<br>--- --- -- ----- -- --- ---- -- --- ---- -- ------ ------<br>--- ----- -- ----,299202.8000000119,299200.7000000477,298643.997,298648.8000000119,298660.655,299211.757,,7,and
screen,html.Screen,2_1_0_1_8,2022-02-02T21:58:34.179Z,,,,,,,,,,,,,,,,,53,,,,,,,,,,,,,,541.6430000357796,,response,,,,99,,,,,,,Space,keypress(Space),,,,,,,,---- -- ----- -- ------ - ------- --- fulfilling<br>------------- ------ ------ ---- ---- ------- ----- -- ----<br>-------- ------- -- ---------- --- - --- ----- ----- ----<br>---- --- --- ----- --- ---- ---- ------- ----- ---- -------<br>--- --- -- ----- -- --- ---- -- --- ---- -- ------ ------<br>--- ----- -- ----,299755.7000000477,299753.40000003576,299195.099,299203.3000000119,299211.757,299762.993,,8,fulfilling
screen,html.Screen,2_1_0_1_9,2022-02-02T21:58:34.762Z,,,,,,,,,,,,,,,,,53,,,,,,,,,,,,,,573.1070000238251,,response,,,,99,,,,,,,Space,keypress(Space),,,,,,,,"---- -- ----- -- ------ - ------- --- ----------<br>relationship, ------ ------ ---- ---- ------- ----- -- ----<br>-------- ------- -- ---------- --- - --- ----- ----- ----<br>---- --- --- ----- --- ---- ---- ------- ----- ---- -------<br>--- --- -- ----- -- --- ---- -- --- ---- -- ------ ------<br>--- ----- -- ----",300338.7000000477,300336.10000002384,299746.335,299756.10000002384,299762.993,300347.382,,9,"relationship,"
screen,html.Screen,2_1_0_1_10,2022-02-02T21:58:35.503Z,,,,,,,,,,,,,,,,,53,,,,,,,,,,,,,,729.7180000238586,,response,,,,99,,,,,,,Space,keypress(Space),,,,,,,,---- -- ----- -- ------ - ------- --- ----------<br>------------- common ------ ---- ---- ------- ----- -- ----<br>-------- ------- -- ---------- --- - --- ----- ----- ----<br>---- --- --- ----- --- ---- ---- ------- ----- ---- -------<br>--- --- -- ----- -- --- ---- -- --- ---- -- ------ ------<br>--- ----- -- ----,301080.3000000119,301077.10000002384,300330.724,300339.10000002384,300347.382,301081.818,,10,common
screen,html.Screen,2_1_0_1_11,2022-02-02T21:58:36.069Z,,,,,,,,,,,,,,,,,53,,,,,,,,,,,,,,561.5820000357344,,response,,,,99,,,,,,,Space,keypress(Space),,,,,,,,---- -- ----- -- ------ - ------- --- ----------<br>------------- ------ wisdom ---- ---- ------- ----- -- ----<br>-------- ------- -- ---------- --- - --- ----- ----- ----<br>---- --- --- ----- --- ---- ---- ------- ----- ---- -------<br>--- --- -- ----- -- --- ---- -- --- ---- -- ------ ------<br>--- ----- -- ----,301645.8000000119,301643.40000003576,301065.16,301080.7000000477,301081.818,301649.679,,11,wisdom
screen,html.Screen,2_1_0_1_12,2022-02-02T21:58:36.728Z,,,,,,,,,,,,,,,,,53,,,,,,,,,,,,,,652.4210000238381,,response,,,,99,,,,,,,Space,keypress(Space),,,,,,,,---- -- ----- -- ------ - ------- --- ----------<br>------------- ------ ------ says ---- ------- ----- -- ----<br>-------- ------- -- ---------- --- - --- ----- ----- ----<br>---- --- --- ----- --- ---- ---- ------- ----- ---- -------<br>--- --- -- ----- -- --- ---- -- --- ---- -- ------ ------<br>--- ----- -- ----,302304.8000000119,302302.10000002384,301633.021,301646.2000000477,301649.679,302317.87,,12,says
screen,html.Screen,2_1_0_1_13,2022-02-02T21:58:37.182Z,,,,,,,,,,,,,,,,,53,,,,,,,,,,,,,,438.7300000238465,,response,,,,99,,,,,,,Space,keypress(Space),,,,,,,,---- -- ----- -- ------ - ------- --- ----------<br>------------- ------ ------ ---- that ------- ----- -- ----<br>-------- ------- -- ---------- --- - --- ----- ----- ----<br>---- --- --- ----- --- ---- ---- ------- ----- ---- -------<br>--- --- -- ----- -- --- ---- -- --- ---- -- ------ ------<br>--- ----- -- ----,302759.2000000477,302756.60000002384,302301.212,302305.3000000119,302317.87,302769.064,,13,that
screen,html.Screen,2_1_0_1_14,2022-02-02T21:58:37.704Z,,,,,,,,,,,,,,,,,53,,,,,,,,,,,,,,509.33600003574975,,response,,,,99,,,,,,,Space,keypress(Space),,,,,,,,---- -- ----- -- ------ - ------- --- ----------<br>------------- ------ ------ ---- ---- feeling ----- -- ----<br>-------- ------- -- ---------- --- - --- ----- ----- ----<br>---- --- --- ----- --- ---- ---- ------- ----- ---- -------<br>--- --- -- ----- -- --- ---- -- --- ---- -- ------ ------<br>--- ----- -- ----,303280.8000000119,303278.40000003576,302752.406,302759.60000002384,302769.064,303287.109,,14,feeling
screen,html.Screen,2_1_0_1_15,2022-02-02T21:58:38.170Z,,,,,,,,,,,,,,,,,53,,,,,,,,,,,,,,456.89100000000326,,response,,,,99,,,,,,,Space,keypress(Space),,,,,,,,---- -- ----- -- ------ - ------- --- ----------<br>------------- ------ ------ ---- ---- ------- close -- ----<br>-------- ------- -- ---------- --- - --- ----- ----- ----<br>---- --- --- ----- --- ---- ---- ------- ----- ---- -------<br>--- --- -- ----- -- --- ---- -- --- ---- -- ------ ------<br>--- ----- -- ----,303746.5,303744,303270.451,303281.2000000477,303287.109,303755.981,,15,close
screen,html.Screen,2_1_0_1_16,2022-02-02T21:58:38.745Z,,,,,,,,,,,,,,,,,53,,,,,,,,,,,,,,563.0189999999711,,response,,,,99,,,,,,,Space,keypress(Space),,,,,,,,---- -- ----- -- ------ - ------- --- ----------<br>------------- ------ ------ ---- ---- ------- ----- to ----<br>-------- ------- -- ---------- --- - --- ----- ----- ----<br>---- --- --- ----- --- ---- ---- ------- ----- ---- -------<br>--- --- -- ----- -- --- ---- -- --- ---- -- ------ ------<br>--- ----- -- ----,304321.40000003576,304319,303739.323,303746.8000000119,303755.981,304339.028,,16,to
screen,html.Screen,2_1_0_1_17,2022-02-02T21:58:39.511Z,,,,,,,,,,,,,,,,,53,,,,,,,,,,,,,,748.4720000000088,,response,,,,99,,,,,,,Space,keypress(Space),,,,,,,,---- -- ----- -- ------ - ------- --- ----------<br>------------- ------ ------ ---- ---- ------- ----- -- your<br>-------- ------- -- ---------- --- - --- ----- ----- ----<br>---- --- --- ----- --- ---- ---- ------- ----- ---- -------<br>--- --- -- ----- -- --- ---- -- --- ---- -- ------ ------<br>--- ----- -- ----,305088.2000000477,305087.5,304322.37,304321.8000000119,304339.028,305089.713,,17,your
screen,html.Screen,2_1_0_1_18,2022-02-02T21:58:40.051Z,,,,,,,,,,,,,,,,,53,,,,,,,,,,,,,,535.2870000000112,,response,,,,99,,,,,,,Space,keypress(Space),,,,,,,,---- -- ----- -- ------ - ------- --- ----------<br>------------- ------ ------ ---- ---- ------- ----- -- ----<br>romantic ------- -- ---------- --- - --- ----- ----- ----<br>---- --- --- ----- --- ---- ---- ------- ----- ---- -------<br>--- --- -- ----- -- --- ---- -- --- ---- -- ------ ------<br>--- ----- -- ----,305627.90000003576,305625,305073.055,305088.40000003576,305089.713,305640.986,,18,romantic
screen,html.Screen,2_1_0_1_19,2022-02-02T21:58:40.476Z,,,,,,,,,,,,,,,,,53,,,,,,,,,,,,,,408.91400003578747,,response,,,,99,,,,,,,Space,keypress(Space),,,,,,,,---- -- ----- -- ------ - ------- --- ----------<br>------------- ------ ------ ---- ---- ------- ----- -- ----<br>-------- partner -- ---------- --- - --- ----- ----- ----<br>---- --- --- ----- --- ---- ---- ------- ----- ---- -------<br>--- --- -- ----- -- --- ---- -- --- ---- -- ------ ------<br>--- ----- -- ----,306052.60000002384,306049.90000003576,305624.328,305628.5,305640.986,306059.366,,19,partner
screen,html.Screen,2_1_0_1_20,2022-02-02T21:58:40.943Z,,,,,,,,,,,,,,,,,53,,,,,,,,,,,,,,457.7340000238619,,response,,,,99,,,,,,,Space,keypress(Space),,,,,,,,---- -- ----- -- ------ - ------- --- ----------<br>------------- ------ ------ ---- ---- ------- ----- -- ----<br>-------- ------- is ---------- --- - --- ----- ----- ----<br>---- --- --- ----- --- ---- ---- ------- ----- ---- -------<br>--- --- -- ----- -- --- ---- -- --- ---- -- ------ ------<br>--- ----- -- ----,306519.7000000477,306517.10000002384,306042.708,306052.90000003576,306059.366,306527.19,,20,is
screen,html.Screen,2_1_0_1_21,2022-02-02T21:58:41.666Z,,,,,,,,,,,,,,,,,53,,,,,,,,,,,,,,713.9100000238395,,response,,,,99,,,,,,,Space,keypress(Space),,,,,,,,---- -- ----- -- ------ - ------- --- ----------<br>------------- ------ ------ ---- ---- ------- ----- -- ----<br>-------- ------- -- paramount. --- - --- ----- ----- ----<br>---- --- --- ----- --- ---- ---- ------- ----- ---- -------<br>--- --- -- ----- -- --- ---- -- --- ---- -- ------ ------<br>--- ----- -- ----,307242.7000000477,307241.10000002384,306510.532,306520,306527.19,307277.892,,21,paramount.
screen,html.Screen,2_1_0_1_22,2022-02-02T21:58:42.406Z,,,,,,,,,,,,,,,,,53,,,,,,,,,,,,,,701.8080000476912,,response,,,,99,,,,,,,Space,keypress(Space),,,,,,,,---- -- ----- -- ------ - ------- --- ----------<br>------------- ------ ------ ---- ---- ------- ----- -- ----<br>-------- ------- -- ---------- But - --- ----- ----- ----<br>---- --- --- ----- --- ---- ---- ------- ----- ---- -------<br>--- --- -- ----- -- --- ---- -- --- ---- -- ------ ------<br>--- ----- -- ----,307982.40000003576,307979.7000000477,307227.918,307243.10000002384,307277.892,307995.376,,22,But
screen,html.Screen,2_1_0_1_23,2022-02-02T21:58:42.992Z,,,,,,,,,,,,,,,,,53,,,,,,,,,,,,,,571.4240000119316,,response,,,,99,,,,,,,Space,keypress(Space),,,,,,,,---- -- ----- -- ------ - ------- --- ----------<br>------------- ------ ------ ---- ---- ------- ----- -- ----<br>-------- ------- -- ---------- --- a --- ----- ----- ----<br>---- --- --- ----- --- ---- ---- ------- ----- ---- -------<br>--- --- -- ----- -- --- ---- -- --- ---- -- ------ ------<br>--- ----- -- ----,308569.2000000477,308566.8000000119,307978.718,307983,307995.376,308580.31,,23,a
screen,html.Screen,2_1_0_1_24,2022-02-02T21:58:43.379Z,,,,,,,,,,,,,,,,,53,,,,,,,,,,,,,,373.49000001192326,,response,,,,99,,,,,,,Space,keypress(Space),,,,,,,,---- -- ----- -- ------ - ------- --- ----------<br>------------- ------ ------ ---- ---- ------- ----- -- ----<br>-------- ------- -- ---------- --- - new ----- ----- ----<br>---- --- --- ----- --- ---- ---- ------- ----- ---- -------<br>--- --- -- ----- -- --- ---- -- --- ---- -- ------ ------<br>--- ----- -- ----,308956.40000003576,308953.8000000119,308563.652,308569.60000002384,308580.31,308966.65,,24,new
screen,html.Screen,2_1_0_1_25,2022-02-02T21:58:43.779Z,,,,,,,,,,,,,,,,,53,,,,,,,,,,,,,,381.7500000357395,,response,,,,99,,,,,,,Space,keypress(Space),,,,,,,,---- -- ----- -- ------ - ------- --- ----------<br>------------- ------ ------ ---- ---- ------- ----- -- ----<br>-------- ------- -- ---------- --- - --- study ----- ----<br>---- --- --- ----- --- ---- ---- ------- ----- ---- -------<br>--- --- -- ----- -- --- ---- -- --- ---- -- ------ ------<br>--- ----- -- ----,309355.7000000477,309348.40000003576,308949.992,308956.7000000477,308966.65,309366.432,,25,study
screen,html.Screen,2_1_0_1_26,2022-02-02T21:58:44.265Z,,,,,,,,,,,,,,,,,53,,,,,,,,,,,,,,472.7680000477121,,response,,,,99,,,,,,,Space,keypress(Space),,,,,,,,---- -- ----- -- ------ - ------- --- ----------<br>------------- ------ ------ ---- ---- ------- ----- -- ----<br>-------- ------- -- ---------- --- - --- ----- finds ----<br>---- --- --- ----- --- ---- ---- ------- ----- ---- -------<br>--- --- -- ----- -- --- ---- -- --- ---- -- ------ ------<br>--- ----- -- ----,309841.90000003576,309839.2000000477,309349.774,309356.2000000477,309366.432,309850.55,,26,finds
screen,html.Screen,2_1_0_1_27,2022-02-02T21:58:44.811Z,,,,,,,,,,,,,,,,,53,,,,,,,,,,,,,,535.0500000238535,,response,,,,99,,,,,,,Space,keypress(Space),,,,,,,,---- -- ----- -- ------ - ------- --- ----------<br>------------- ------ ------ ---- ---- ------- ----- -- ----<br>-------- ------- -- ---------- --- - --- ----- ----- that<br>---- --- --- ----- --- ---- ---- ------- ----- ---- -------<br>--- --- -- ----- -- --- ---- -- --- ---- -- ------ ------<br>--- ----- -- ----,310388.2000000477,310385.60000002384,309833.892,309842.40000003576,309850.55,310401.201,,27,that
screen,html.Screen,2_1_0_1_28,2022-02-02T21:58:45.260Z,,,,,,,,,,,,,,,,,53,,,,,,,,,,,,,,433.59900001192,,response,,,,99,,,,,,,Space,keypress(Space),,,,,,,,---- -- ----- -- ------ - ------- --- ----------<br>------------- ------ ------ ---- ---- ------- ----- -- ----<br>-------- ------- -- ---------- --- - --- ----- ----- ----<br>it's --- --- ----- --- ---- ---- ------- ----- ---- -------<br>--- --- -- ----- -- --- ---- -- --- ---- -- ------ ------<br>--- ----- -- ----,310837.3000000119,310834.8000000119,310384.543,310388.5,310401.201,310852.327,,28,it's
screen,html.Screen,2_1_0_1_29,2022-02-02T21:58:45.672Z,,,,,,,,,,,,,,,,,53,,,,,,,,,,,,,,393.9730000119307,,response,,,,99,,,,,,,Space,keypress(Space),,,,,,,,---- -- ----- -- ------ - ------- --- ----------<br>------------- ------ ------ ---- ---- ------- ----- -- ----<br>-------- ------- -- ---------- --- - --- ----- ----- ----<br>---- not --- ----- --- ---- ---- ------- ----- ---- -------<br>--- --- -- ----- -- --- ---- -- --- ---- -- ------ ------<br>--- ----- -- ----,311248.7000000477,311246.3000000119,310835.669,310837.7000000477,310852.327,311253.453,,29,not
screen,html.Screen,2_1_0_1_30,2022-02-02T21:58:46.082Z,,,,,,,,,,,,,,,,,53,,,,,,,,,,,,,,404.2470000477042,,response,,,,99,,,,,,,Space,keypress(Space),,,,,,,,---- -- ----- -- ------ - ------- --- ----------<br>------------- ------ ------ ---- ---- ------- ----- -- ----<br>-------- ------- -- ---------- --- - --- ----- ----- ----<br>---- --- how ----- --- ---- ---- ------- ----- ---- -------<br>--- --- -- ----- -- --- ---- -- --- ---- -- ------ ------<br>--- ----- -- ----,311659.40000003576,311657.7000000477,311236.795,311249.10000002384,311253.453,311670.962,,30,how
screen,html.Screen,2_1_0_1_31,2022-02-02T21:58:46.530Z,,,,,,,,,,,,,,,,,53,,,,,,,,,,,,,,433.93800003576325,,response,,,,99,,,,,,,Space,keypress(Space),,,,,,,,---- -- ----- -- ------ - ------- --- ----------<br>------------- ------ ------ ---- ---- ------- ----- -- ----<br>-------- ------- -- ---------- --- - --- ----- ----- ----<br>---- --- --- close --- ---- ---- ------- ----- ---- -------<br>--- --- -- ----- -- --- ---- -- --- ---- -- ------ ------<br>--- ----- -- ----,312107.40000003576,312104.90000003576,311654.304,311659.8000000119,311670.962,312121.891,,31,close
screen,html.Screen,2_1_0_1_32,2022-02-02T21:58:46.956Z,,,,,,,,,,,,,,,,,53,,,,,,,,,,,,,,408.5090000357595,,response,,,,99,,,,,,,Space,keypress(Space),,,,,,,,---- -- ----- -- ------ - ------- --- ----------<br>------------- ------ ------ ---- ---- ------- ----- -- ----<br>-------- ------- -- ---------- --- - --- ----- ----- ----<br>---- --- --- ----- you ---- ---- ------- ----- ---- -------<br>--- --- -- ----- -- --- ---- -- --- ---- -- ------ ------<br>--- ----- -- ----,312532.90000003576,312530.40000003576,312105.233,312107.8000000119,312121.891,312539.333,,32,you
screen,html.Screen,2_1_0_1_33,2022-02-02T21:58:47.354Z,,,,,,,,,,,,,,,,,53,,,,,,,,,,,,,,389.0670000357786,,response,,,,99,,,,,,,Space,keypress(Space),,,,,,,,---- -- ----- -- ------ - ------- --- ----------<br>------------- ------ ------ ---- ---- ------- ----- -- ----<br>-------- ------- -- ---------- --- - --- ----- ----- ----<br>---- --- --- ----- --- feel ---- ------- ----- ---- -------<br>--- --- -- ----- -- --- ---- -- --- ---- -- ------ ------<br>--- ----- -- ----,312931,312928.40000003576,312522.675,312533.2000000477,312539.333,312940.268,,33,feel
screen,html.Screen,2_1_0_1_34,2022-02-02T21:58:47.767Z,,,,,,,,,,,,,,,,,53,,,,,,,,,,,,,,401.23200000001816,,response,,,,99,,,,,,,Space,keypress(Space),,,,,,,,---- -- ----- -- ------ - ------- --- ----------<br>------------- ------ ------ ---- ---- ------- ----- -- ----<br>-------- ------- -- ---------- --- - --- ----- ----- ----<br>---- --- --- ----- --- ---- that ------- ----- ---- -------<br>--- --- -- ----- -- --- ---- -- --- ---- -- ------ ------<br>--- ----- -- ----,313344.10000002384,313341.5,312923.61,312931.3000000119,312940.268,313357.838,,34,that
screen,html.Screen,2_1_0_1_35,2022-02-02T21:58:48.180Z,,,,,,,,,,,,,,,,,53,,,,,,,,,,,,,,396.6620000000112,,response,,,,99,,,,,,,Space,keypress(Space),,,,,,,,---- -- ----- -- ------ - ------- --- ----------<br>------------- ------ ------ ---- ---- ------- ----- -- ----<br>-------- ------- -- ---------- --- - --- ----- ----- ----<br>---- --- --- ----- --- ---- ---- matters ----- ---- -------<br>--- --- -- ----- -- --- ---- -- --- ---- -- ------ ------<br>--- ----- -- ----,313757,313754.5,313341.18,313344.5,313357.838,313759.617,,35,matters
screen,html.Screen,2_1_0_1_36,2022-02-02T21:58:48.596Z,,,,,,,,,,,,,,,,,53,,,,,,,,,,,,,,411.08300004765624,,response,,,,99,,,,,,,Space,keypress(Space),,,,,,,,"---- -- ----- -- ------ - ------- --- ----------<br>------------- ------ ------ ---- ---- ------- ----- -- ----<br>-------- ------- -- ---------- --- - --- ----- ----- ----<br>---- --- --- ----- --- ---- ---- ------- most, ---- -------<br>--- --- -- ----- -- --- ---- -- --- ---- -- ------ ------<br>--- ----- -- ----",314173.3000000119,314170.7000000477,313742.959,313757.7000000477,313759.617,314193.676,,36,"most,"
screen,html.Screen,2_1_0_1_37,2022-02-02T21:58:49.057Z,,,,,,,,,,,,,,,,,53,,,,,,,,,,,,,,437.52400004770607,,response,,,,99,,,,,,,Space,keypress(Space),,,,,,,,---- -- ----- -- ------ - ------- --- ----------<br>------------- ------ ------ ---- ---- ------- ----- -- ----<br>-------- ------- -- ---------- --- - --- ----- ----- ----<br>---- --- --- ----- --- ---- ---- ------- ----- it's -------<br>--- --- -- ----- -- --- ---- -- --- ---- -- ------ ------<br>--- ----- -- ----,314633.90000003576,314631.2000000477,314177.018,314173.7000000477,314193.676,314643.592,,37,it's
screen,html.Screen,2_1_0_1_38,2022-02-02T21:58:49.618Z,,,,,,,,,,,,,,,,,53,,,,,,,,,,,,,,548.2080000119167,,response,,,,99,,,,,,,Space,keypress(Space),,,,,,,,---- -- ----- -- ------ - ------- --- ----------<br>------------- ------ ------ ---- ---- ------- ----- -- ----<br>-------- ------- -- ---------- --- - --- ----- ----- ----<br>---- --- --- ----- --- ---- ---- ------- ----- ---- whether<br>--- --- -- ----- -- --- ---- -- --- ---- -- ------ ------<br>--- ----- -- ----,315194.8000000119,315191.8000000119,314626.934,314634.5,314643.592,315210.909,,38,whether
screen,html.Screen,2_1_0_1_39,2022-02-02T21:58:50.055Z,,,,,,,,,,,,,,,,,53,,,,,,,,,,,,,,417.2910000476986,,response,,,,99,,,,,,,Space,keypress(Space),,,,,,,,---- -- ----- -- ------ - ------- --- ----------<br>------------- ------ ------ ---- ---- ------- ----- -- ----<br>-------- ------- -- ---------- --- - --- ----- ----- ----<br>---- --- --- ----- --- ---- ---- ------- ----- ---- -------<br>you --- -- ----- -- --- ---- -- --- ---- -- ------ ------<br>--- ----- -- ----,315631.3000000119,315628.2000000477,315194.251,315195.3000000119,315210.909,315645.257,,39,you
screen,html.Screen,2_1_0_1_40,2022-02-02T21:58:50.525Z,,,,,,,,,,,,,,,,,53,,,,,,,,,,,,,,453.74300000001676,,response,,,,99,,,,,,,Space,keypress(Space),,,,,,,,---- -- ----- -- ------ - ------- --- ----------<br>------------- ------ ------ ---- ---- ------- ----- -- ----<br>-------- ------- -- ---------- --- - --- ----- ----- ----<br>---- --- --- ----- --- ---- ---- ------- ----- ---- -------<br>--- are -- ----- -- --- ---- -- --- ---- -- ------ ------<br>--- ----- -- ----,316101.60000002384,316099,315628.599,315631.8000000119,315645.257,316113.147,,40,are
screen,html.Screen,2_1_0_1_41,2022-02-02T21:58:50.947Z,,,,,,,,,,,,,,,,,53,,,,,,,,,,,,,,408.45300002384465,,response,,,,99,,,,,,,Space,keypress(Space),,,,,,,,---- -- ----- -- ------ - ------- --- ----------<br>------------- ------ ------ ---- ---- ------- ----- -- ----<br>-------- ------- -- ---------- --- - --- ----- ----- ----<br>---- --- --- ----- --- ---- ---- ------- ----- ---- -------<br>--- --- as ----- -- --- ---- -- --- ---- -- ------ ------<br>--- ----- -- ----,316524.2000000477,316521.60000002384,316096.489,316101.90000003576,316113.147,316530.724,,41,as
screen,html.Screen,2_1_0_1_42,2022-02-02T21:58:51.431Z,,,,,,,,,,,,,,,,,53,,,,,,,,,,,,,,474.4760000476963,,response,,,,99,,,,,,,Space,keypress(Space),,,,,,,,---- -- ----- -- ------ - ------- --- ----------<br>------------- ------ ------ ---- ---- ------- ----- -- ----<br>-------- ------- -- ---------- --- - --- ----- ----- ----<br>---- --- --- ----- --- ---- ---- ------- ----- ---- -------<br>--- --- -- close -- --- ---- -- --- ---- -- ------ ------<br>--- ----- -- ----,317007.8000000119,317005.2000000477,316514.066,316524.5,316530.724,317014.855,,42,close
screen,html.Screen,2_1_0_1_43,2022-02-02T21:58:51.884Z,,,,,,,,,,,,,,,,,53,,,,,,,,,,,,,,443.5450000357814,,response,,,,99,,,,,,,Space,keypress(Space),,,,,,,,---- -- ----- -- ------ - ------- --- ----------<br>------------- ------ ------ ---- ---- ------- ----- -- ----<br>-------- ------- -- ---------- --- - --- ----- ----- ----<br>---- --- --- ----- --- ---- ---- ------- ----- ---- -------<br>--- --- -- ----- as --- ---- -- --- ---- -- ------ ------<br>--- ----- -- ----,317461,317458.40000003576,316998.197,317008.2000000477,317014.855,317465.755,,43,as
screen,html.Screen,2_1_0_1_44,2022-02-02T21:58:52.338Z,,,,,,,,,,,,,,,,,53,,,,,,,,,,,,,,446.14500003575813,,response,,,,99,,,,,,,Space,keypress(Space),,,,,,,,---- -- ----- -- ------ - ------- --- ----------<br>------------- ------ ------ ---- ---- ------- ----- -- ----<br>-------- ------- -- ---------- --- - --- ----- ----- ----<br>---- --- --- ----- --- ---- ---- ------- ----- ---- -------<br>--- --- -- ----- -- you ---- -- --- ---- -- ------ ------<br>--- ----- -- ----,317914.60000002384,317911.90000003576,317449.097,317461.40000003576,317465.755,317917.916,,44,you
screen,html.Screen,2_1_0_1_45,2022-02-02T21:58:52.755Z,,,,,,,,,,,,,,,,,53,,,,,,,,,,,,,,411.08399999997346,,response,,,,99,,,,,,,Space,keypress(Space),,,,,,,,---- -- ----- -- ------ - ------- --- ----------<br>------------- ------ ------ ---- ---- ------- ----- -- ----<br>-------- ------- -- ---------- --- - --- ----- ----- ----<br>---- --- --- ----- --- ---- ---- ------- ----- ---- -------<br>--- --- -- ----- -- --- want -- --- ---- -- ------ ------<br>--- ----- -- ----,318331.3000000119,318329,317901.258,317914.90000003576,317917.916,318334.357,,45,want
screen,html.Screen,2_1_0_1_46,2022-02-02T21:58:53.275Z,,,,,,,,,,,,,,,,,53,,,,,,,,,,,,,,515.9430000119028,,response,,,,99,,,,,,,Space,keypress(Space),,,,,,,,---- -- ----- -- ------ - ------- --- ----------<br>------------- ------ ------ ---- ---- ------- ----- -- ----<br>-------- ------- -- ---------- --- - --- ----- ----- ----<br>---- --- --- ----- --- ---- ---- ------- ----- ---- -------<br>--- --- -- ----- -- --- ---- to --- ---- -- ------ ------<br>--- ----- -- ----,318851.90000003576,318850.3000000119,318317.699,318331.7000000477,318334.357,318868.56,,46,to
screen,html.Screen,2_1_0_1_47,2022-02-02T21:58:53.768Z,,,,,,,,,,,,,,,,,53,,,,,,,,,,,,,,473.3400000357651,,response,,,,99,,,,,,,Space,keypress(Space),,,,,,,,"---- -- ----- -- ------ - ------- --- ----------<br>------------- ------ ------ ---- ---- ------- ----- -- ----<br>-------- ------- -- ---------- --- - --- ----- ----- ----<br>---- --- --- ----- --- ---- ---- ------- ----- ---- -------<br>--- --- -- ----- -- --- ---- -- be, ---- -- ------ ------<br>--- ----- -- ----",319344.7000000477,319341.90000003576,318851.902,318852.3000000119,318868.56,319352.737,,47,"be,"
screen,html.Screen,2_1_0_1_48,2022-02-02T21:58:54.491Z,,,,,,,,,,,,,,,,,53,,,,,,,,,,,,,,714.0630000118981,,response,,,,99,,,,,,,Space,keypress(Space),,,,,,,,---- -- ----- -- ------ - ------- --- ----------<br>------------- ------ ------ ---- ---- ------- ----- -- ----<br>-------- ------- -- ---------- --- - --- ----- ----- ----<br>---- --- --- ----- --- ---- ---- ------- ----- ---- -------<br>--- --- -- ----- -- --- ---- -- --- even -- ------ ------<br>--- ----- -- ----,320067.3000000119,320066.8000000119,319336.079,319345.10000002384,319352.737,320071.533,,48,even
screen,html.Screen,2_1_0_1_49,2022-02-02T21:58:54.882Z,,,,,,,,,,,,,,,,,53,,,,,,,,,,,,,,386.06700002384605,,response,,,,99,,,,,,,Space,keypress(Space),,,,,,,,---- -- ----- -- ------ - ------- --- ----------<br>------------- ------ ------ ---- ---- ------- ----- -- ----<br>-------- ------- -- ---------- --- - --- ----- ----- ----<br>---- --- --- ----- --- ---- ---- ------- ----- ---- -------<br>--- --- -- ----- -- --- ---- -- --- ---- if ------ ------<br>--- ----- -- ----,320458.60000002384,320457.60000002384,320054.875,320067.40000003576,320071.533,320471.365,,49,if
screen,html.Screen,2_1_0_1_50,2022-02-02T21:58:55.439Z,,,,,,,,,,,,,,,,,53,,,,,,,,,,,,,,543.9350000119302,,response,,,,99,,,,,,,Space,keypress(Space),,,,,,,,---- -- ----- -- ------ - ------- --- ----------<br>------------- ------ ------ ---- ---- ------- ----- -- ----<br>-------- ------- -- ---------- --- - --- ----- ----- ----<br>---- --- --- ----- --- ---- ---- ------- ----- ---- -------<br>--- --- -- ----- -- --- ---- -- --- ---- -- that's ------<br>--- ----- -- ----,321016.10000002384,321015.3000000119,320454.707,320458.7000000477,320471.365,321022.811,,50,that's
screen,html.Screen,2_1_0_1_51,2022-02-02T21:58:56.035Z,,,,,,,,,,,,,,,,,53,,,,,,,,,,,,,,586.3890000476968,,response,,,,99,,,,,,,Space,keypress(Space),,,,,,,,---- -- ----- -- ------ - ------- --- ----------<br>------------- ------ ------ ---- ---- ------- ----- -- ----<br>-------- ------- -- ---------- --- - --- ----- ----- ----<br>---- --- --- ----- --- ---- ---- ------- ----- ---- -------<br>--- --- -- ----- -- --- ---- -- --- ---- -- ------ really<br>--- ----- -- ----,321611.8000000119,321609.2000000477,321006.153,321016.3000000119,321022.811,321623.473,,51,really
screen,html.Screen,2_1_0_1_52,2022-02-02T21:58:56.497Z,,,,,,,,,,,,,,,,,53,,,,,,,,,,,,,,447.2270000476856,,response,,,,99,,,,,,,Space,keypress(Space),,,,,,,,---- -- ----- -- ------ - ------- --- ----------<br>------------- ------ ------ ---- ---- ------- ----- -- ----<br>-------- ------- -- ---------- --- - --- ----- ----- ----<br>---- --- --- ----- --- ---- ---- ------- ----- ---- -------<br>--- --- -- ----- -- --- ---- -- --- ---- -- ------ ------<br>not ----- -- ----,322073.40000003576,322070.7000000477,321606.815,321612.10000002384,321623.473,322091.32,,52,not
screen,html.Screen,2_1_0_1_53,2022-02-02T21:58:56.951Z,,,,,,,,,,,,,,,,,53,,,,,,,,,,,,,,433.5800000357558,,response,,,,99,,,,,,,Space,keypress(Space),,,,,,,,---- -- ----- -- ------ - ------- --- ----------<br>------------- ------ ------ ---- ---- ------- ----- -- ----<br>-------- ------- -- ---------- --- - --- ----- ----- ----<br>---- --- --- ----- --- ---- ---- ------- ----- ---- -------<br>--- --- -- ----- -- --- ---- -- --- ---- -- ------ ------<br>--- close -- ----,322527.5,322524.90000003576,322074.662,322073.8000000119,322091.32,322542.658,,53,close
screen,html.Screen,2_1_0_1_54,2022-02-02T21:58:57.392Z,,,,,,,,,,,,,,,,,53,,,,,,,,,,,,,,423.3420000000042,,response,,,,99,,,,,,,Space,keypress(Space),,,,,,,,---- -- ----- -- ------ - ------- --- ----------<br>------------- ------ ------ ---- ---- ------- ----- -- ----<br>-------- ------- -- ---------- --- - --- ----- ----- ----<br>---- --- --- ----- --- ---- ---- ------- ----- ---- -------<br>--- --- -- ----- -- --- ---- -- --- ---- -- ------ ------<br>--- ----- at ----,322968.60000002384,322966,322526,322527.8000000119,322542.658,322978.096,,54,at
screen,html.Screen,2_1_0_1_55,2022-02-02T21:58:58.028Z,,,,,,,,,,,,,,,,,53,,,,,,,,,,,,,,623.7040000119014,,response,,,,99,,,,,,,Space,keypress(Space),,,,,,,,---- -- ----- -- ------ - ------- --- ----------<br>------------- ------ ------ ---- ---- ------- ----- -- ----<br>-------- ------- -- ---------- --- - --- ----- ----- ----<br>---- --- --- ----- --- ---- ---- ------- ----- ---- -------<br>--- --- -- ----- -- --- ---- -- --- ---- -- ------ ------<br>--- ----- -- all.,323605.3000000119,323601.8000000119,322961.438,322968.90000003576,322978.096,323612.241,,55,all.
Item 99,flow.Loop,2_1_0_1,2022-02-02T21:58:58.029Z,,,,,,,,,,,,,,,,,,,,,,,,,,,,,,,29586.380000011937,,completion,,,,,E,,,,,,,,,,,silence,,,,,323605.90000003576,323601.8000000119,293848.84,293851.7000000477,294015.42,323612.241,,,
Question 1,html.Screen,2_1_0_2,2022-02-02T21:59:06.408Z,,,,,,,,,,,,,,,,,,,,,,,,,,,,true,FALSE,,8372.059000011941,,response,,,,99,E,,,,,,FALSE,click #choice-2,,,,silence,,,,,331985.2000000477,331984.3000000119,323595.583,323606.3000000119,323612.241,331996.241,,,
Question 2,html.Screen,2_1_0_3,2022-02-02T21:59:12.035Z,,,,,,,,,,,,,,,,,,,,,,,,,,,,true,TRUE,,5614.159000035783,,response,,,,99,E,,,,,,TRUE,click #choice-1,,,,silence,,,,,337611.40000003576,337610.40000003576,331979.583,331985.40000003576,331996.241,337621.927,,,
Item 99,flow.Sequence,2_1_0,2022-02-02T21:59:12.035Z,,,,,,,,,,,,,,,,,,,,,,,,,,,,,,,53744.85500003578,,completion,,,,,,,,,,,,,,,,,,,,,337611.60000002384,337610.40000003576,283848.887,283862.10000002384,283865.545,337621.927,,,
Holding screen,html.Screen,2_1_1_0,2022-02-02T21:59:22.032Z,,,,,,,,,,,,,,,,,,,,,,,,,,,,,,,10001.929999999993,,timeout,,,,,,,,,,,,,,,,,,,,,347608.60000002384,347607.199,337605.269,337611.7000000477,337621.927,347623.857,,,
screen,html.Screen,2_1_1_1_0,2022-02-02T21:59:22.597Z,,,,,,,,,,,,,,,,,54,,,,,,,,,,,,,,547.5430000357446,,response,,,,100,,,,,,,Space,keypress(Space),,,,,,,,At --- ---- --- ------ ----- ------- ---- -- --- ------- --<br>------- ---------- ------ -- ----- -- ----- -- ---- ------<br>--- ----- --- --- ------ -------- ----- --- ------ ----- --<br>----- ----- ---------- --- --- ------ ------ ---- -- ------<br>------- --- ------ ----- --- ---- ------- -- ---- --- --<br>------- ------,348173.8000000119,348171.40000003576,347607.199,347609.10000002384,347623.857,348176.095,,0,At
screen,html.Screen,2_1_1_1_1,2022-02-02T21:59:22.991Z,,,,,,,,,,,,,,,,,54,,,,,,,,,,,,,,389.10500004771166,,response,,,,100,,,,,,,Space,keypress(Space),,,,,,,,-- the ---- --- ------ ----- ------- ---- -- --- ------- --<br>------- ---------- ------ -- ----- -- ----- -- ---- ------<br>--- ----- --- --- ------ -------- ----- --- ------ ----- --<br>----- ----- ---------- --- --- ------ ------ ---- -- ------<br>------- --- ------ ----- --- ---- ------- -- ---- --- --<br>------- ------,348567.8000000119,348565.2000000477,348159.437,348174.2000000477,348176.095,348578.427,,1,the
screen,html.Screen,2_1_1_1_2,2022-02-02T21:59:23.459Z,,,,,,,,,,,,,,,,,54,,,,,,,,,,,,,,455.57299999997485,,response,,,,100,,,,,,,Space,keypress(Space),,,,,,,,-- --- time --- ------ ----- ------- ---- -- --- ------- --<br>------- ---------- ------ -- ----- -- ----- -- ---- ------<br>--- ----- --- --- ------ -------- ----- --- ------ ----- --<br>----- ----- ---------- --- --- ------ ------ ---- -- ------<br>------- --- ------ ----- --- ---- ------- -- ---- --- --<br>------- ------,349035.8000000119,349034,348561.769,348568.40000003576,348578.427,349046.306,,2,time
screen,html.Screen,2_1_1_1_3,2022-02-02T21:59:23.953Z,,,,,,,,,,,,,,,,,54,,,,,,,,,,,,,,481.3940000477014,,response,,,,100,,,,,,,Space,keypress(Space),,,,,,,,-- --- ---- the ------ ----- ------- ---- -- --- ------- --<br>------- ---------- ------ -- ----- -- ----- -- ---- ------<br>--- ----- --- --- ------ -------- ----- --- ------ ----- --<br>----- ----- ---------- --- --- ------ ------ ---- -- ------<br>------- --- ------ ----- --- ---- ------- -- ---- --- --<br>------- ------,349529.7000000477,349527.7000000477,349029.648,349036.2000000477,349046.306,349531.535,,3,the
screen,html.Screen,2_1_1_1_4,2022-02-02T21:59:24.313Z,,,,,,,,,,,,,,,,,54,,,,,,,,,,,,,,356.4650000000256,,response,,,,100,,,,,,,Space,keypress(Space),,,,,,,,-- --- ---- --- French ----- ------- ---- -- --- ------- --<br>------- ---------- ------ -- ----- -- ----- -- ---- ------<br>--- ----- --- --- ------ -------- ----- --- ------ ----- --<br>----- ----- ---------- --- --- ------ ------ ---- -- ------<br>------- --- ------ ----- --- ---- ------- -- ---- --- --<br>------- ------,349889.7000000477,349888,349514.877,349530.10000002384,349531.535,349898.045,,4,French
screen,html.Screen,2_1_1_1_5,2022-02-02T21:59:24.671Z,,,,,,,,,,,,,,,,,54,,,,,,,,,,,,,,347.7550000119372,,response,,,,100,,,,,,,Space,keypress(Space),,,,,,,,-- --- ---- --- ------ crown ------- ---- -- --- ------- --<br>------- ---------- ------ -- ----- -- ----- -- ---- ------<br>--- ----- --- --- ------ -------- ----- --- ------ ----- --<br>----- ----- ---------- --- --- ------ ------ ---- -- ------<br>------- --- ------ ----- --- ---- ------- -- ---- --- --<br>------- ------,350247.5,350245.8000000119,349881.387,349890.2000000477,349898.045,350249.912,,5,crown
screen,html.Screen,2_1_1_1_6,2022-02-02T21:59:25.269Z,,,,,,,,,,,,,,,,,54,,,,,,,,,,,,,,594.9880000357516,,response,,,,100,,,,,,,Space,keypress(Space),,,,,,,,-- --- ---- --- ------ ----- secured ---- -- --- ------- --<br>------- ---------- ------ -- ----- -- ----- -- ---- ------<br>--- ----- --- --- ------ -------- ----- --- ------ ----- --<br>----- ----- ---------- --- --- ------ ------ ---- -- ------<br>------- --- ------ ----- --- ---- ------- -- ---- --- --<br>------- ------,350845.8000000119,350844.90000003576,350233.254,350247.90000003576,350249.912,350849.732,,6,secured
screen,html.Screen,2_1_1_1_7,2022-02-02T21:59:25.791Z,,,,,,,,,,,,,,,,,54,,,,,,,,,,,,,,516.5680000119028,,response,,,,100,,,,,,,Space,keypress(Space),,,,,,,,-- --- ---- --- ------ ----- ------- much -- --- ------- --<br>------- ---------- ------ -- ----- -- ----- -- ---- ------<br>--- ----- --- --- ------ -------- ----- --- ------ ----- --<br>----- ----- ---------- --- --- ------ ------ ---- -- ------<br>------- --- ------ ----- --- ---- ------- -- ---- --- --<br>------- ------,351368.2000000477,351366.3000000119,350833.074,350846,350849.732,351383.658,,7,much
screen,html.Screen,2_1_1_1_8,2022-02-02T21:59:26.269Z,,,,,,,,,,,,,,,,,54,,,,,,,,,,,,,,460.242000035767,,response,,,,100,,,,,,,Space,keypress(Space),,,,,,,,-- --- ---- --- ------ ----- ------- ---- of --- ------- --<br>------- ---------- ------ -- ----- -- ----- -- ---- ------<br>--- ----- --- --- ------ -------- ----- --- ------ ----- --<br>----- ----- ---------- --- --- ------ ------ ---- -- ------<br>------- --- ------ ----- --- ---- ------- -- ---- --- --<br>------- ------,351846.3000000119,351843.90000003576,351367,351368.5,351383.658,351851.539,,8,of
screen,html.Screen,2_1_1_1_9,2022-02-02T21:59:26.695Z,,,,,,,,,,,,,,,,,54,,,,,,,,,,,,,,419.16100004769396,,response,,,,100,,,,,,,Space,keypress(Space),,,,,,,,-- --- ---- --- ------ ----- ------- ---- -- its ------- --<br>------- ---------- ------ -- ----- -- ----- -- ---- ------<br>--- ----- --- --- ------ -------- ----- --- ------ ----- --<br>----- ----- ---------- --- --- ------ ------ ---- -- ------<br>------- --- ------ ----- --- ---- ------- -- ---- --- --<br>------- ------,352271.90000003576,352270.7000000477,351834.881,351846.60000002384,351851.539,352286.04,,9,its
screen,html.Screen,2_1_1_1_10,2022-02-02T21:59:27.339Z,,,,,,,,,,,,,,,,,54,,,,,,,,,,,,,,626.6600000477047,,response,,,,100,,,,,,,Space,keypress(Space),,,,,,,,-- --- ---- --- ------ ----- ------- ---- -- --- revenue --<br>------- ---------- ------ -- ----- -- ----- -- ---- ------<br>--- ----- --- --- ------ -------- ----- --- ------ ----- --<br>----- ----- ---------- --- --- ------ ------ ---- -- ------<br>------- --- ------ ----- --- ---- ------- -- ---- --- --<br>------- ------,352915.40000003576,352912.7000000477,352269.382,352272.10000002384,352286.04,352920.264,,10,revenue
screen,html.Screen,2_1_1_1_11,2022-02-02T21:59:27.888Z,,,,,,,,,,,,,,,,,54,,,,,,,,,,,,,,541.7359999999753,,response,,,,100,,,,,,,Space,keypress(Space),,,,,,,,-- --- ---- --- ------ ----- ------- ---- -- --- ------- by<br>------- ---------- ------ -- ----- -- ----- -- ---- ------<br>--- ----- --- --- ------ -------- ----- --- ------ ----- --<br>----- ----- ---------- --- --- ------ ------ ---- -- ------<br>------- --- ------ ----- --- ---- ------- -- ---- --- --<br>------- ------,353465,353462,352903.606,352915.7000000477,352920.264,353470.993,,11,by
screen,html.Screen,2_1_1_1_12,2022-02-02T21:59:28.496Z,,,,,,,,,,,,,,,,,54,,,,,,,,,,,,,,599.407000035746,,response,,,,100,,,,,,,Space,keypress(Space),,,,,,,,-- --- ---- --- ------ ----- ------- ---- -- --- ------- --<br>issuing ---------- ------ -- ----- -- ----- -- ---- ------<br>--- ----- --- --- ------ -------- ----- --- ------ ----- --<br>----- ----- ---------- --- --- ------ ------ ---- -- ------<br>------- --- ------ ----- --- ---- ------- -- ---- --- --<br>------- ------,354073.2000000477,354070.40000003576,353454.335,353465.3000000119,353470.993,354089.034,,12,issuing
screen,html.Screen,2_1_1_1_13,2022-02-02T21:59:29.061Z,,,,,,,,,,,,,,,,,54,,,,,,,,,,,,,,545.6660000476986,,response,,,,100,,,,,,,Space,keypress(Space),,,,,,,,-- --- ---- --- ------ ----- ------- ---- -- --- ------- --<br>------- government ------ -- ----- -- ----- -- ---- ------<br>--- ----- --- --- ------ -------- ----- --- ------ ----- --<br>----- ----- ---------- --- --- ------ ------ ---- -- ------<br>------- --- ------ ----- --- ---- ------- -- ---- --- --<br>------- ------,354638.10000002384,354634.7000000477,354072.376,354075.7000000477,354089.034,354640.166,,13,government
screen,html.Screen,2_1_1_1_14,2022-02-02T21:59:30.971Z,,,,,,,,,,,,,,,,,54,,,,,,,,,,,,,,1905.0340000476572,,response,,,,100,,,,,,,Space,keypress(Space),,,,,,,,-- --- ---- --- ------ ----- ------- ---- -- --- ------- --<br>------- ---------- bonds. -- ----- -- ----- -- ---- ------<br>--- ----- --- --- ------ -------- ----- --- ------ ----- --<br>----- ----- ---------- --- --- ------ ------ ---- -- ------<br>------- --- ------ ----- --- ---- ------- -- ---- --- --<br>------- ------,356547.7000000477,356545.2000000477,354623.508,354638.7000000477,354640.166,356557.339,,14,bonds.
screen,html.Screen,2_1_1_1_15,2022-02-02T21:59:31.746Z,,,,,,,,,,,,,,,,,54,,,,,,,,,,,,,,762.0610000357847,,response,,,,100,,,,,,,Space,keypress(Space),,,,,,,,-- --- ---- --- ------ ----- ------- ---- -- --- ------- --<br>------- ---------- ------ In ----- -- ----- -- ---- ------<br>--- ----- --- --- ------ -------- ----- --- ------ ----- --<br>----- ----- ---------- --- --- ------ ------ ---- -- ------<br>------- --- ------ ----- --- ---- ------- -- ---- --- --<br>------- ------,357322.7000000477,357319.40000003576,356540.681,356548.10000002384,356557.339,357325.045,,15,In
screen,html.Screen,2_1_1_1_16,2022-02-02T21:59:32.593Z,,,,,,,,,,,,,,,,,54,,,,,,,,,,,,,,842.6550000477,,response,,,,100,,,,,,,Space,keypress(Space),,,,,,,,"-- --- ---- --- ------ ----- ------- ---- -- --- ------- --<br>------- ---------- ------ -- 1727, -- ----- -- ---- ------<br>--- ----- --- --- ------ -------- ----- --- ------ ----- --<br>----- ----- ---------- --- --- ------ ------ ---- -- ------<br>------- --- ------ ----- --- ---- ------- -- ---- --- --<br>------- ------",358170.2000000477,358167.7000000477,357308.387,357323.10000002384,357325.045,358179.465,,16,"1727,"
screen,html.Screen,2_1_1_1_17,2022-02-02T21:59:33.143Z,,,,,,,,,,,,,,,,,54,,,,,,,,,,,,,,537.4350000357372,,response,,,,100,,,,,,,Space,keypress(Space),,,,,,,,-- --- ---- --- ------ ----- ------- ---- -- --- ------- --<br>------- ---------- ------ -- ----- in ----- -- ---- ------<br>--- ----- --- --- ------ -------- ----- --- ------ ----- --<br>----- ----- ---------- --- --- ------ ------ ---- -- ------<br>------- --- ------ ----- --- ---- ------- -- ---- --- --<br>------- ------,358719.40000003576,358716.90000003576,358162.807,358170.60000002384,358179.465,358731.129,,17,in
screen,html.Screen,2_1_1_1_18,2022-02-02T21:59:33.611Z,,,,,,,,,,,,,,,,,54,,,,,,,,,,,,,,454.57100004766835,,response,,,,100,,,,,,,Space,keypress(Space),,,,,,,,-- --- ---- --- ------ ----- ------- ---- -- --- ------- --<br>------- ---------- ------ -- ----- -- order -- ---- ------<br>--- ----- --- --- ------ -------- ----- --- ------ ----- --<br>----- ----- ---------- --- --- ------ ------ ---- -- ------<br>------- --- ------ ----- --- ---- ------- -- ---- --- --<br>------- ------,359188.10000002384,359185.7000000477,358714.471,358719.7000000477,358731.129,359199.721,,18,order
screen,html.Screen,2_1_1_1_19,2022-02-02T21:59:33.983Z,,,,,,,,,,,,,,,,,54,,,,,,,,,,,,,,357.67900003574323,,response,,,,100,,,,,,,Space,keypress(Space),,,,,,,,-- --- ---- --- ------ ----- ------- ---- -- --- ------- --<br>------- ---------- ------ -- ----- -- ----- to ---- ------<br>--- ----- --- --- ------ -------- ----- --- ------ ----- --<br>----- ----- ---------- --- --- ------ ------ ---- -- ------<br>------- --- ------ ----- --- ---- ------- -- ---- --- --<br>------- ------,359560,359557.40000003576,359183.063,359188.60000002384,359199.721,359567.592,,19,to
screen,html.Screen,2_1_1_1_20,2022-02-02T21:59:34.419Z,,,,,,,,,,,,,,,,,54,,,,,,,,,,,,,,425.4079999999958,,response,,,,100,,,,,,,Space,keypress(Space),,,,,,,,-- --- ---- --- ------ ----- ------- ---- -- --- ------- --<br>------- ---------- ------ -- ----- -- ----- -- save ------<br>--- ----- --- --- ------ -------- ----- --- ------ ----- --<br>----- ----- ---------- --- --- ------ ------ ---- -- ------<br>------- --- ------ ----- --- ---- ------- -- ---- --- --<br>------- ------,359995.60000002384,359993,359550.934,359560.40000003576,359567.592,360001.847,,20,save
screen,html.Screen,2_1_1_1_21,2022-02-02T21:59:35.231Z,,,,,,,,,,,,,,,,,54,,,,,,,,,,,,,,803.1529999999912,,response,,,,100,,,,,,,Space,keypress(Space),,,,,,,,"-- --- ---- --- ------ ----- ------- ---- -- --- ------- --<br>------- ---------- ------ -- ----- -- ----- -- ---- money,<br>--- ----- --- --- ------ -------- ----- --- ------ ----- --<br>----- ----- ---------- --- --- ------ ------ ---- -- ------<br>------- --- ------ ----- --- ---- ------- -- ---- --- --<br>------- ------",360807.7000000477,360805,359985.189,359996,360001.847,360820.074,,21,"money,"
screen,html.Screen,2_1_1_1_22,2022-02-02T21:59:35.935Z,,,,,,,,,,,,,,,,,54,,,,,,,,,,,,,,689.5260000238195,,response,,,,100,,,,,,,Space,keypress(Space),,,,,,,,-- --- ---- --- ------ ----- ------- ---- -- --- ------- --<br>------- ---------- ------ -- ----- -- ----- -- ---- ------<br>the ----- --- --- ------ -------- ----- --- ------ ----- --<br>----- ----- ---------- --- --- ------ ------ ---- -- ------<br>------- --- ------ ----- --- ---- ------- -- ---- --- --<br>------- ------,361512.10000002384,361509.60000002384,360803.416,360808.10000002384,360820.074,361519.804,,22,the
screen,html.Screen,2_1_1_1_23,2022-02-02T21:59:36.545Z,,,,,,,,,,,,,,,,,54,,,,,,,,,,,,,,599.1959999999963,,response,,,,100,,,,,,,Space,keypress(Space),,,,,,,,-- --- ---- --- ------ ----- ------- ---- -- --- ------- --<br>------- ---------- ------ -- ----- -- ----- -- ---- ------<br>--- state --- --- ------ -------- ----- --- ------ ----- --<br>----- ----- ---------- --- --- ------ ------ ---- -- ------<br>------- --- ------ ----- --- ---- ------- -- ---- --- --<br>------- ------,362121.5,362119,361503.146,361512.40000003576,361519.804,362138.163,,23,state
screen,html.Screen,2_1_1_1_24,2022-02-02T21:59:36.926Z,,,,,,,,,,,,,,,,,54,,,,,,,,,,,,,,361.9370000238414,,response,,,,100,,,,,,,Space,keypress(Space),,,,,,,,-- --- ---- --- ------ ----- ------- ---- -- --- ------- --<br>------- ---------- ------ -- ----- -- ----- -- ---- ------<br>--- ----- cut --- ------ -------- ----- --- ------ ----- --<br>----- ----- ---------- --- --- ------ ------ ---- -- ------<br>------- --- ------ ----- --- ---- ------- -- ---- --- --<br>------- ------,362502.90000003576,362500.10000002384,362121.505,362122,362138.163,362506.463,,24,cut
screen,html.Screen,2_1_1_1_25,2022-02-02T21:59:37.388Z,,,,,,,,,,,,,,,,,54,,,,,,,,,,,,,,455.8370000119321,,response,,,,100,,,,,,,Space,keypress(Space),,,,,,,,-- --- ---- --- ------ ----- ------- ---- -- --- ------- --<br>------- ---------- ------ -- ----- -- ----- -- ---- ------<br>--- ----- --- the ------ -------- ----- --- ------ ----- --<br>----- ----- ---------- --- --- ------ ------ ---- -- ------<br>------- --- ------ ----- --- ---- ------- -- ---- --- --<br>------- ------,362964.8000000119,362962.3000000119,362489.805,362503.40000003576,362506.463,362975.356,,25,the
screen,html.Screen,2_1_1_1_26,2022-02-02T21:59:37.919Z,,,,,,,,,,,,,,,,,54,,,,,,,,,,,,,,517.9440000118921,,response,,,,100,,,,,,,Space,keypress(Space),,,,,,,,-- --- ---- --- ------ ----- ------- ---- -- --- ------- --<br>------- ---------- ------ -- ----- -- ----- -- ---- ------<br>--- ----- --- --- bonds' -------- ----- --- ------ ----- --<br>----- ----- ---------- --- --- ------ ------ ---- -- ------<br>------- --- ------ ----- --- ---- ------- -- ---- --- --<br>------- ------,363495.8000000119,363493.3000000119,362958.698,362965.2000000477,362975.356,363508.443,,26,bonds'
screen,html.Screen,2_1_1_1_27,2022-02-02T21:59:38.341Z,,,,,,,,,,,,,,,,,54,,,,,,,,,,,,,,406.65700002381345,,response,,,,100,,,,,,,Space,keypress(Space),,,,,,,,-- --- ---- --- ------ ----- ------- ---- -- --- ------- --<br>------- ---------- ------ -- ----- -- ----- -- ---- ------<br>--- ----- --- --- ------ interest ----- --- ------ ----- --<br>----- ----- ---------- --- --- ------ ------ ---- -- ------<br>------- --- ------ ----- --- ---- ------- -- ---- --- --<br>------- ------,363917.60000002384,363915.10000002384,363491.785,363496.3000000119,363508.443,363925.998,,27,interest
screen,html.Screen,2_1_1_1_28,2022-02-02T21:59:39.364Z,,,,,,,,,,,,,,,,,54,,,,,,,,,,,,,,1013.1020000238204,,response,,,,100,,,,,,,Space,keypress(Space),,,,,,,,-- --- ---- --- ------ ----- ------- ---- -- --- ------- --<br>------- ---------- ------ -- ----- -- ----- -- ---- ------<br>--- ----- --- --- ------ -------- rate. --- ------ ----- --<br>----- ----- ---------- --- --- ------ ------ ---- -- ------<br>------- --- ------ ----- --- ---- ------- -- ---- --- --<br>------- ------,364940.5,364939.10000002384,363909.34,363918,363925.998,364943.59,,28,rate.
screen,html.Screen,2_1_1_1_29,2022-02-02T21:59:40.041Z,,,,,,,,,,,,,,,,,54,,,,,,,,,,,,,,671.5100000238162,,response,,,,100,,,,,,,Space,keypress(Space),,,,,,,,-- --- ---- --- ------ ----- ------- ---- -- --- ------- --<br>------- ---------- ------ -- ----- -- ----- -- ---- ------<br>--- ----- --- --- ------ -------- ----- The ------ ----- --<br>----- ----- ---------- --- --- ------ ------ ---- -- ------<br>------- --- ------ ----- --- ---- ------- -- ---- --- --<br>------- ------,365617.60000002384,365615.10000002384,364926.932,364940.8000000119,364943.59,365627.615,,29,The
screen,html.Screen,2_1_1_1_30,2022-02-02T21:59:40.503Z,,,,,,,,,,,,,,,,,54,,,,,,,,,,,,,,451.08500004769303,,response,,,,100,,,,,,,Space,keypress(Space),,,,,,,,-- --- ---- --- ------ ----- ------- ---- -- --- ------- --<br>------- ---------- ------ -- ----- -- ----- -- ---- ------<br>--- ----- --- --- ------ -------- ----- --- market ----- --<br>----- ----- ---------- --- --- ------ ------ ---- -- ------<br>------- --- ------ ----- --- ---- ------- -- ---- --- --<br>------- ------,366080.2000000477,366078.7000000477,365610.957,365618,365627.615,366096.655,,30,market
screen,html.Screen,2_1_1_1_31,2022-02-02T21:59:40.982Z,,,,,,,,,,,,,,,,,54,,,,,,,,,,,,,,459.84499999997206,,response,,,,100,,,,,,,Space,keypress(Space),,,,,,,,-- --- ---- --- ------ ----- ------- ---- -- --- ------- --<br>------- ---------- ------ -- ----- -- ----- -- ---- ------<br>--- ----- --- --- ------ -------- ----- --- ------ value --<br>----- ----- ---------- --- --- ------ ------ ---- -- ------<br>------- --- ------ ----- --- ---- ------- -- ---- --- --<br>------- ------,366559.10000002384,366556.5,366079.997,366080.5,366096.655,366564.694,,31,value
screen,html.Screen,2_1_1_1_32,2022-02-02T21:59:41.513Z,,,,,,,,,,,,,,,,,54,,,,,,,,,,,,,,522.4060000238242,,response,,,,100,,,,,,,Space,keypress(Space),,,,,,,,-- --- ---- --- ------ ----- ------- ---- -- --- ------- --<br>------- ---------- ------ -- ----- -- ----- -- ---- ------<br>--- ----- --- --- ------ -------- ----- --- ------ ----- of<br>----- ----- ---------- --- --- ------ ------ ---- -- ------<br>------- --- ------ ----- --- ---- ------- -- ---- --- --<br>------- ------,367089.7000000477,367087.10000002384,366548.036,366559.5,366564.694,367098.918,,32,of
screen,html.Screen,2_1_1_1_33,2022-02-02T21:59:41.949Z,,,,,,,,,,,,,,,,,54,,,,,,,,,,,,,,424.5819999999949,,response,,,,100,,,,,,,Space,keypress(Space),,,,,,,,-- --- ---- --- ------ ----- ------- ---- -- --- ------- --<br>------- ---------- ------ -- ----- -- ----- -- ---- ------<br>--- ----- --- --- ------ -------- ----- --- ------ ----- --<br>these ----- ---------- --- --- ------ ------ ---- -- ------<br>------- --- ------ ----- --- ---- ------- -- ---- --- --<br>------- ------,367525.90000003576,367523.5,367082.26,367090,367098.918,367533.31,,33,these
screen,html.Screen,2_1_1_1_34,2022-02-02T21:59:42.543Z,,,,,,,,,,,,,,,,,54,,,,,,,,,,,,,,583.2900000238442,,response,,,,100,,,,,,,Space,keypress(Space),,,,,,,,-- --- ---- --- ------ ----- ------- ---- -- --- ------- --<br>------- ---------- ------ -- ----- -- ----- -- ---- ------<br>--- ----- --- --- ------ -------- ----- --- ------ ----- --<br>----- bonds ---------- --- --- ------ ------ ---- -- ------<br>------- --- ------ ----- --- ---- ------- -- ---- --- --<br>------- ------,368119.3000000119,368116.60000002384,367516.652,367526.2000000477,367533.31,368134.377,,34,bonds
screen,html.Screen,2_1_1_1_35,2022-02-02T21:59:43.225Z,,,,,,,,,,,,,,,,,54,,,,,,,,,,,,,,664.5230000357842,,response,,,,100,,,,,,,Space,keypress(Space),,,,,,,,"-- --- ---- --- ------ ----- ------- ---- -- --- ------- --<br>------- ---------- ------ -- ----- -- ----- -- ---- ------<br>--- ----- --- --- ------ -------- ----- --- ------ ----- --<br>----- ----- plummeted, --- --- ------ ------ ---- -- ------<br>------- --- ------ ----- --- ---- ------- -- ---- --- --<br>------- ------",368801.90000003576,368798.90000003576,368117.719,368119.60000002384,368134.377,368818.326,,35,"plummeted,"
screen,html.Screen,2_1_1_1_36,2022-02-02T21:59:43.840Z,,,,,,,,,,,,,,,,,54,,,,,,,,,,,,,,596.2740000238409,,response,,,,100,,,,,,,Space,keypress(Space),,,,,,,,-- --- ---- --- ------ ----- ------- ---- -- --- ------- --<br>------- ---------- ------ -- ----- -- ----- -- ---- ------<br>--- ----- --- --- ------ -------- ----- --- ------ ----- --<br>----- ----- ---------- and --- ------ ------ ---- -- ------<br>------- --- ------ ----- --- ---- ------- -- ---- --- --<br>------- ------,369417.2000000477,369414.60000002384,368801.668,368802.40000003576,368818.326,369419.589,,36,and
screen,html.Screen,2_1_1_1_37,2022-02-02T21:59:44.188Z,,,,,,,,,,,,,,,,,54,,,,,,,,,,,,,,342.8110000357847,,response,,,,100,,,,,,,Space,keypress(Space),,,,,,,,-- --- ---- --- ------ ----- ------- ---- -- --- ------- --<br>------- ---------- ------ -- ----- -- ----- -- ---- ------<br>--- ----- --- --- ------ -------- ----- --- ------ ----- --<br>----- ----- ---------- --- the ------ ------ ---- -- ------<br>------- --- ------ ----- --- ---- ------- -- ---- --- --<br>------- ------,369765.2000000477,369762.40000003576,369402.931,369417.5,369419.589,369771.096,,37,the
screen,html.Screen,2_1_1_1_38,2022-02-02T21:59:44.440Z,,,,,,,,,,,,,,,,,54,,,,,,,,,,,,,,242.80400003574323,,response,,,,100,,,,,,,Space,keypress(Space),,,,,,,,-- --- ---- --- ------ ----- ------- ---- -- --- ------- --<br>------- ---------- ------ -- ----- -- ----- -- ---- ------<br>--- ----- --- --- ------ -------- ----- --- ------ ----- --<br>----- ----- ---------- --- --- market ------ ---- -- ------<br>------- --- ------ ----- --- ---- ------- -- ---- --- --<br>------- ------,370016.3000000119,370013.90000003576,369754.438,369765.5,369771.096,370022.509,,38,market
screen,html.Screen,2_1_1_1_39,2022-02-02T21:59:44.914Z,,,,,,,,,,,,,,,,,54,,,,,,,,,,,,,,466.1910000476637,,response,,,,100,,,,,,,Space,keypress(Space),,,,,,,,-- --- ---- --- ------ ----- ------- ---- -- --- ------- --<br>------- ---------- ------ -- ----- -- ----- -- ---- ------<br>--- ----- --- --- ------ -------- ----- --- ------ ----- --<br>----- ----- ---------- --- --- ------ became ---- -- ------<br>------- --- ------ ----- --- ---- ------- -- ---- --- --<br>------- ------,370491.2000000477,370488.7000000477,370005.851,370016.8000000119,370022.509,370507.129,,39,became
screen,html.Screen,2_1_1_1_40,2022-02-02T21:59:45.338Z,,,,,,,,,,,,,,,,,54,,,,,,,,,,,,,,403.7710000357474,,response,,,,100,,,,,,,Space,keypress(Space),,,,,,,,-- --- ---- --- ------ ----- ------- ---- -- --- ------- --<br>------- ---------- ------ -- ----- -- ----- -- ---- ------<br>--- ----- --- --- ------ -------- ----- --- ------ ----- --<br>----- ----- ---------- --- --- ------ ------ wary -- ------<br>------- --- ------ ----- --- ---- ------- -- ---- --- --<br>------- ------,370915,370910.90000003576,370490.471,370491.60000002384,370507.129,370923.595,,40,wary
screen,html.Screen,2_1_1_1_41,2022-02-02T21:59:45.772Z,,,,,,,,,,,,,,,,,54,,,,,,,,,,,,,,422.8050000357907,,response,,,,100,,,,,,,Space,keypress(Space),,,,,,,,-- --- ---- --- ------ ----- ------- ---- -- --- ------- --<br>------- ---------- ------ -- ----- -- ----- -- ---- ------<br>--- ----- --- --- ------ -------- ----- --- ------ ----- --<br>----- ----- ---------- --- --- ------ ------ ---- of ------<br>------- --- ------ ----- --- ---- ------- -- ---- --- --<br>------- ------,371348.90000003576,371346.40000003576,370906.937,370915.40000003576,370923.595,371357.937,,41,of
screen,html.Screen,2_1_1_1_42,2022-02-02T21:59:46.359Z,,,,,,,,,,,,,,,,,54,,,,,,,,,,,,,,574.3630000119447,,response,,,,100,,,,,,,Space,keypress(Space),,,,,,,,-- --- ---- --- ------ ----- ------- ---- -- --- ------- --<br>------- ---------- ------ -- ----- -- ----- -- ---- ------<br>--- ----- --- --- ------ -------- ----- --- ------ ----- --<br>----- ----- ---------- --- --- ------ ------ ---- -- French<br>------- --- ------ ----- --- ---- ------- -- ---- --- --<br>------- ------,371935.3000000119,371932.3000000119,371341.279,371349.2000000477,371357.937,371941.915,,42,French
screen,html.Screen,2_1_1_1_43,2022-02-02T21:59:47.573Z,,,,,,,,,,,,,,,,,54,,,,,,,,,,,,,,1206.6850000238628,,response,,,,100,,,,,,,Space,keypress(Space),,,,,,,,-- --- ---- --- ------ ----- ------- ---- -- --- ------- --<br>------- ---------- ------ -- ----- -- ----- -- ---- ------<br>--- ----- --- --- ------ -------- ----- --- ------ ----- --<br>----- ----- ---------- --- --- ------ ------ ---- -- ------<br>credit. --- ------ ----- --- ---- ------- -- ---- --- --<br>------- ------,373149.90000003576,373148.60000002384,371925.257,371935.7000000477,371941.915,373159.211,,43,credit.
screen,html.Screen,2_1_1_1_44,2022-02-02T21:59:48.113Z,,,,,,,,,,,,,,,,,54,,,,,,,,,,,,,,529.3890000238316,,response,,,,100,,,,,,,Space,keypress(Space),,,,,,,,-- --- ---- --- ------ ----- ------- ---- -- --- ------- --<br>------- ---------- ------ -- ----- -- ----- -- ---- ------<br>--- ----- --- --- ------ -------- ----- --- ------ ----- --<br>----- ----- ---------- --- --- ------ ------ ---- -- ------<br>------- The ------ ----- --- ---- ------- -- ---- --- --<br>------- ------,373690.10000002384,373688.60000002384,373142.553,373150.3000000119,373159.211,373693.76,,44,The
screen,html.Screen,2_1_1_1_45,2022-02-02T21:59:48.641Z,,,,,,,,,,,,,,,,,54,,,,,,,,,,,,,,521.6400000357535,,response,,,,100,,,,,,,Space,keypress(Space),,,,,,,,-- --- ---- --- ------ ----- ------- ---- -- --- ------- --<br>------- ---------- ------ -- ----- -- ----- -- ---- ------<br>--- ----- --- --- ------ -------- ----- --- ------ ----- --<br>----- ----- ---------- --- --- ------ ------ ---- -- ------<br>------- --- French ----- --- ---- ------- -- ---- --- --<br>------- ------,374217.90000003576,374215.40000003576,373677.102,373690.40000003576,373693.76,374229.893,,45,French
screen,html.Screen,2_1_1_1_46,2022-02-02T21:59:49.051Z,,,,,,,,,,,,,,,,,54,,,,,,,,,,,,,,396.60700000001816,,response,,,,100,,,,,,,Space,keypress(Space),,,,,,,,-- --- ---- --- ------ ----- ------- ---- -- --- ------- --<br>------- ---------- ------ -- ----- -- ----- -- ---- ------<br>--- ----- --- --- ------ -------- ----- --- ------ ----- --<br>----- ----- ---------- --- --- ------ ------ ---- -- ------<br>------- --- ------ state --- ---- ------- -- ---- --- --<br>------- ------,374627.3000000119,374626.5,374213.235,374218.2000000477,374229.893,374631.025,,46,state
screen,html.Screen,2_1_1_1_47,2022-02-02T21:59:49.938Z,,,,,,,,,,,,,,,,,54,,,,,,,,,,,,,,882.3750000357395,,response,,,,100,,,,,,,Space,keypress(Space),,,,,,,,-- --- ---- --- ------ ----- ------- ---- -- --- ------- --<br>------- ---------- ------ -- ----- -- ----- -- ---- ------<br>--- ----- --- --- ------ -------- ----- --- ------ ----- --<br>----- ----- ---------- --- --- ------ ------ ---- -- ------<br>------- --- ------ ----- was ---- ------- -- ---- --- --<br>------- ------,375515.8000000119,375513.40000003576,374614.367,374627.5,374631.025,375532.849,,47,was
screen,html.Screen,2_1_1_1_48,2022-02-02T21:59:50.305Z,,,,,,,,,,,,,,,,,54,,,,,,,,,,,,,,346.75100002385443,,response,,,,100,,,,,,,Space,keypress(Space),,,,,,,,-- --- ---- --- ------ ----- ------- ---- -- --- ------- --<br>------- ---------- ------ -- ----- -- ----- -- ---- ------<br>--- ----- --- --- ------ -------- ----- --- ------ ----- --<br>----- ----- ---------- --- --- ------ ------ ---- -- ------<br>------- --- ------ ----- --- left ------- -- ---- --- --<br>------- ------,375882.10000002384,375879.60000002384,375516.191,375516.2000000477,375532.849,375899.384,,48,left
screen,html.Screen,2_1_1_1_49,2022-02-02T21:59:50.762Z,,,,,,,,,,,,,,,,,54,,,,,,,,,,,,,,437.4160000119009,,response,,,,100,,,,,,,Space,keypress(Space),,,,,,,,-- --- ---- --- ------ ----- ------- ---- -- --- ------- --<br>------- ---------- ------ -- ----- -- ----- -- ---- ------<br>--- ----- --- --- ------ -------- ----- --- ------ ----- --<br>----- ----- ---------- --- --- ------ ------ ---- -- ------<br>------- --- ------ ----- --- ---- without -- ---- --- --<br>------- ------,376339.60000002384,376336.8000000119,375882.726,375882.5,375899.384,376351.373,,49,without
screen,html.Screen,2_1_1_1_50,2022-02-02T21:59:51.183Z,,,,,,,,,,,,,,,,,54,,,,,,,,,,,,,,406.52700003574137,,response,,,,100,,,,,,,Space,keypress(Space),,,,,,,,-- --- ---- --- ------ ----- ------- ---- -- --- ------- --<br>------- ---------- ------ -- ----- -- ----- -- ---- ------<br>--- ----- --- --- ------ -------- ----- --- ------ ----- --<br>----- ----- ---------- --- --- ------ ------ ---- -- ------<br>------- --- ------ ----- --- ---- ------- an ---- --- --<br>------- ------,376760.5,376757.90000003576,376334.715,376340,376351.373,376768.794,,50,an
screen,html.Screen,2_1_1_1_51,2022-02-02T21:59:51.578Z,,,,,,,,,,,,,,,,,54,,,,,,,,,,,,,,383.5060000119265,,response,,,,100,,,,,,,Space,keypress(Space),,,,,,,,-- --- ---- --- ------ ----- ------- ---- -- --- ------- --<br>------- ---------- ------ -- ----- -- ----- -- ---- ------<br>--- ----- --- --- ------ -------- ----- --- ------ ----- --<br>----- ----- ---------- --- --- ------ ------ ---- -- ------<br>------- --- ------ ----- --- ---- ------- -- easy --- --<br>------- ------,377155.10000002384,377152.3000000119,376752.136,376760.8000000119,376768.794,377169.748,,51,easy
screen,html.Screen,2_1_1_1_52,2022-02-02T21:59:52.013Z,,,,,,,,,,,,,,,,,54,,,,,,,,,,,,,,418.5520000118995,,response,,,,100,,,,,,,Space,keypress(Space),,,,,,,,-- --- ---- --- ------ ----- ------- ---- -- --- ------- --<br>------- ---------- ------ -- ----- -- ----- -- ---- ------<br>--- ----- --- --- ------ -------- ----- --- ------ ----- --<br>----- ----- ---------- --- --- ------ ------ ---- -- ------<br>------- --- ------ ----- --- ---- ------- -- ---- way --<br>------- ------,377590.8000000119,377588.3000000119,377153.09,377155.40000003576,377169.748,377604.819,,52,way
screen,html.Screen,2_1_1_1_53,2022-02-02T21:59:52.755Z,,,,,,,,,,,,,,,,,54,,,,,,,,,,,,,,724.6809999999823,,response,,,,100,,,,,,,Space,keypress(Space),,,,,,,,-- --- ---- --- ------ ----- ------- ---- -- --- ------- --<br>------- ---------- ------ -- ----- -- ----- -- ---- ------<br>--- ----- --- --- ------ -------- ----- --- ------ ----- --<br>----- ----- ---------- --- --- ------ ------ ---- -- ------<br>------- --- ------ ----- --- ---- ------- -- ---- --- of<br>------- ------,378332,378329.5,377588.161,377591.2000000477,377604.819,378337.876,,53,of
screen,html.Screen,2_1_1_1_54,2022-02-02T21:59:53.287Z,,,,,,,,,,,,,,,,,54,,,,,,,,,,,,,,523.8240000476944,,response,,,,100,,,,,,,Space,keypress(Space),,,,,,,,-- --- ---- --- ------ ----- ------- ---- -- --- ------- --<br>------- ---------- ------ -- ----- -- ----- -- ---- ------<br>--- ----- --- --- ------ -------- ----- --- ------ ----- --<br>----- ----- ---------- --- --- ------ ------ ---- -- ------<br>------- --- ------ ----- --- ---- ------- -- ---- --- --<br>raising ------,378864.5,378861.7000000477,378321.218,378332.40000003576,378337.876,378872.065,,54,raising
screen,html.Screen,2_1_1_1_55,2022-02-02T21:59:54.010Z,,,,,,,,,,,,,,,,,54,,,,,,,,,,,,,,713.1350000476814,,response,,,,100,,,,,,,Space,keypress(Space),,,,,,,,-- --- ---- --- ------ ----- ------- ---- -- --- ------- --<br>------- ---------- ------ -- ----- -- ----- -- ---- ------<br>--- ----- --- --- ------ -------- ----- --- ------ ----- --<br>----- ----- ---------- --- --- ------ ------ ---- -- ------<br>------- --- ------ ----- --- ---- ------- -- ---- --- --<br>------- money.,379587.8000000119,379585.2000000477,378855.407,378864.90000003576,378872.065,379606.824,,55,money.
Item 100,flow.Loop,2_1_1_1,2022-02-02T21:59:54.011Z,,,,,,,,,,,,,,,,,,,,,,,,,,,,,,,31961.343000047666,,completion,,,,,E,,,,,,,,,,,silence,,,,,379588.7000000477,379585.2000000477,347607.199,347608.90000003576,347623.857,379606.824,,,
Question 1,html.Screen,2_1_1_2,2022-02-02T22:00:00.654Z,,,,,,,,,,,,,,,,,,,,,,,,,,,,true,TRUE,,6623.976000011899,,response,,,,100,E,,,,,,TRUE,click #choice-1,,,,silence,,,,,386231.7000000477,386230.8000000119,379590.166,379588.90000003576,379606.824,386237.475,,,
Question 2,html.Screen,2_1_1_3,2022-02-02T22:00:02.995Z,,,,,,,,,,,,,,,,,,,,,,,,,,,,true,FALSE,,2334.225000047707,,response,,,,100,E,,,,,,FALSE,click #choice-2,,,,silence,,,,,388572.8000000119,388571.7000000477,386220.817,386231.8000000119,386237.475,388576.831,,,
Item 100,flow.Sequence,2_1_1,2022-02-02T22:00:02.995Z,,,,,,,,,,,,,,,,,,,,,,,,,,,,,,,50949.77300004766,,completion,,,,,,,,,,,,,,,,,,,,,388573,388571.7000000477,337605.269,337611.7000000477,337621.927,388576.831,,,
End of Practice,html.Page,2_1_2,2022-02-02T22:00:22.992Z,,,,,,,,,,,,,,,,,,,,,,,,,,,,,,,20007.382999999973,,timeout,,,,,,,,,,,,,,,,,,,,,408569.3000000119,408567.556,388560.173,388573.10000002384,388576.831,408584.214,,,
Practice,flow.Sequence,2_1,2022-02-02T22:00:22.992Z,,,,,,,,,,,,,,,,,,,,,,,,,,,,,,,124702.011,,completion,,,,,,,,,,,,,,,,,,,,,408570,408567.556,283848.887,283862.10000002384,283865.545,408584.214,,,
Trap_instruction,html.Page,2_2_0,2022-02-02T22:00:42.997Z,,,,,,,,,,,,,,,,,,,,,,,,,,,,,,,20087.784000000043,,timeout,,,,,,,,,,,,,,,,,,,,,428574,428572.05,408567.556,408570.40000003576,408584.214,428671.998,,,
trap_trial,html.Screen,2_2_1,2022-02-02T22:00:49.404Z,,,,,,,,,,,,,,,,,,,,,,,,,,,,true,1,,6308.202000047662,,response,,,,,,,,,,,1,click #choice-1,,,,,,,,,434981.2000000477,434980.2000000477,428572.05,428574.5,428671.998,434989.878,,,
end of trap trial,html.Page,2_2_2,2022-02-02T22:00:52.353Z,,,,,,,,,,,,,,,,,,,,,,,,,,,,,,,2940.5220000357367,,form submission,,,,,,,,,,,,,,,,,,,,,437930.60000002384,437930.40000003576,434973.22,434981.3000000119,434989.878,437941.458,,,
Trap 1,flow.Sequence,2_2,2022-02-02T22:00:52.353Z,,,,,,,,,,,,,,,,,,,,,,,,,,,,,,,29346.186000035785,,completion,,,,,,,,,,,,,,,,,,,,,437930.8000000119,437930.40000003576,408567.556,408570.3000000119,408584.214,437941.458,,,
Standby,html.Page,2_3_0,2022-02-02T22:01:00.348Z,,,,,,,,,,,,,,,,,,,,,,,,,,,,,,,7998.5410000000265,,timeout,,,,,,,,,,,,,,,,,,,,,445925.2000000477,445923.341,437924.8,437930.90000003576,437941.458,445939.999,,,
Holding screen,html.Screen,2_3_1_0_0,2022-02-02T22:01:07.346Z,,,,,,,,,,,,,,,,,,,,,,,,,,,,,,,6997.709999999963,,timeout,,,,,,,,,,,,,,,,,,,,,452923.8000000119,452921.051,445923.341,445925.7000000477,445939.999,452937.709,,,
screen,html.Screen,2_3_1_0_1_0,2022-02-02T22:01:13.086Z,,,,,,,,,,,,,,,,,11,,,,,,,,,,,,,,5722.7910000000265,,response,,,,4,E,,,,,,Space,keypress(Space),,,,lyrical,,,,Known -- ---- --- -- --- -------- ------------ ---------- --<br>- ------- ------ --------- -- ------------ -- --- ---- -----<br>------ ---- ---- ------ ------ ------- --- ----- ---------<br>---- --- -------- -------- --- --- -- ------- --- --- -----<br>-- --- ------ ------- --- --- -------- ---- --------- --<br>---------- -- -------- ----------------,458663.3000000119,458660.5,452921.051,452924.10000002384,452937.709,458669.046,,0,Known
screen,html.Screen,2_3_1_0_1_1,2022-02-02T22:01:14.418Z,,,,,,,,,,,,,,,,,11,,,,,,,,,,,,,,1325.3540000357898,,response,,,,4,E,,,,,,Space,keypress(Space),,,,lyrical,,,,----- as ---- --- -- --- -------- ------------ ---------- --<br>- ------- ------ --------- -- ------------ -- --- ---- -----<br>------ ---- ---- ------ ------ ------- --- ----- ---------<br>---- --- -------- -------- --- --- -- ------- --- --- -----<br>-- --- ------ ------- --- --- -------- ---- --------- --<br>---------- -- -------- ----------------,459995.7000000477,459994.40000003576,458652.388,458663.7000000477,458669.046,460004.145,,1,as
screen,html.Screen,2_3_1_0_1_2,2022-02-02T22:01:15.030Z,,,,,,,,,,,,,,,,,11,,,,,,,,,,,,,,600.5550000476651,,response,,,,4,E,,,,,,Space,keypress(Space),,,,lyrical,,,,----- -- Rapa --- -- --- -------- ------------ ---------- --<br>- ------- ------ --------- -- ------------ -- --- ---- -----<br>------ ---- ---- ------ ------ ------- --- ----- ---------<br>---- --- -------- -------- --- --- -- ------- --- --- -----<br>-- --- ------ ------- --- --- -------- ---- --------- --<br>---------- -- -------- ----------------,460607.7000000477,460604.7000000477,459987.487,459996.10000002384,460004.145,460618.425,,2,Rapa
screen,html.Screen,2_3_1_0_1_3,2022-02-02T22:01:15.641Z,,,,,,,,,,,,,,,,,11,,,,,,,,,,,,,,597.8750000119326,,response,,,,4,E,,,,,,Space,keypress(Space),,,,lyrical,,,,----- -- ---- Nui -- --- -------- ------------ ---------- --<br>- ------- ------ --------- -- ------------ -- --- ---- -----<br>------ ---- ---- ------ ------ ------- --- ----- ---------<br>---- --- -------- -------- --- --- -- ------- --- --- -----<br>-- --- ------ ------- --- --- -------- ---- --------- --<br>---------- -- -------- ----------------,461218.10000002384,461216.3000000119,460601.767,460608.10000002384,460618.425,461221.556,,3,Nui
screen,html.Screen,2_3_1_0_1_4,2022-02-02T22:01:16.126Z,,,,,,,,,,,,,,,,,11,,,,,,,,,,,,,,480.6440000477014,,response,,,,4,E,,,,,,Space,keypress(Space),,,,lyrical,,,,----- -- ---- --- to --- -------- ------------ ---------- --<br>- ------- ------ --------- -- ------------ -- --- ---- -----<br>------ ---- ---- ------ ------ ------- --- ----- ---------<br>---- --- -------- -------- --- --- -- ------- --- --- -----<br>-- --- ------ ------- --- --- -------- ---- --------- --<br>---------- -- -------- ----------------,461702.8000000119,461702.2000000477,461204.898,461218.5,461221.556,461706.158,,4,to
screen,html.Screen,2_3_1_0_1_5,2022-02-02T22:01:16.551Z,,,,,,,,,,,,,,,,,11,,,,,,,,,,,,,,420.5420000476879,,response,,,,4,E,,,,,,Space,keypress(Space),,,,lyrical,,,,----- -- ---- --- -- the -------- ------------ ---------- --<br>- ------- ------ --------- -- ------------ -- --- ---- -----<br>------ ---- ---- ------ ------ ------- --- ----- ---------<br>---- --- -------- -------- --- --- -- ------- --- --- -----<br>-- --- ------ ------- --- --- -------- ---- --------- --<br>---------- -- -------- ----------------,462128.8000000119,462126.7000000477,461689.5,461702.90000003576,461706.158,462140.806,,5,the
screen,html.Screen,2_3_1_0_1_6,2022-02-02T22:01:17.057Z,,,,,,,,,,,,,,,,,11,,,,,,,,,,,,,,490.9940000119386,,response,,,,4,E,,,,,,Space,keypress(Space),,,,lyrical,,,,----- -- ---- --- -- --- island's ------------ ---------- --<br>- ------- ------ --------- -- ------------ -- --- ---- -----<br>------ ---- ---- ------ ------ ------- --- ----- ---------<br>---- --- -------- -------- --- --- -- ------- --- --- -----<br>-- --- ------ ------- --- --- -------- ---- --------- --<br>---------- -- -------- ----------------,462634,462631.8000000119,462124.148,462129.10000002384,462140.806,462641.709,,6,island's
screen,html.Screen,2_3_1_0_1_7,2022-02-02T22:01:17.512Z,,,,,,,,,,,,,,,,,11,,,,,,,,,,,,,,445.79100000002654,,response,,,,4,E,,,,,,Space,keypress(Space),,,,lyrical,,,,"----- -- ---- --- -- --- -------- inhabitants, ---------- --<br>- ------- ------ --------- -- ------------ -- --- ---- -----<br>------ ---- ---- ------ ------ ------- --- ----- ---------<br>---- --- -------- -------- --- --- -- ------- --- --- -----<br>-- --- ------ ------- --- --- -------- ---- --------- --<br>---------- -- -------- ----------------",463089.40000003576,463087.5,462625.051,462634.3000000119,462641.709,463092.608,,7,"inhabitants,"
screen,html.Screen,2_3_1_0_1_8,2022-02-02T22:01:18.252Z,,,,,,,,,,,,,,,,,11,,,,,,,,,,,,,,734.2920000357553,,response,,,,4,E,,,,,,Space,keypress(Space),,,,lyrical,,,,----- -- ---- --- -- --- -------- ------------ Rongorongo --<br>- ------- ------ --------- -- ------------ -- --- ---- -----<br>------ ---- ---- ------ ------ ------- --- ----- ---------<br>---- --- -------- -------- --- --- -- ------- --- --- -----<br>-- --- ------ ------- --- --- -------- ---- --------- --<br>---------- -- -------- ----------------,463829.8000000119,463826.90000003576,463075.95,463089.7000000477,463092.608,463844.619,,8,Rongorongo
screen,html.Screen,2_3_1_0_1_9,2022-02-02T22:01:18.987Z,,,,,,,,,,,,,,,,,11,,,,,,,,,,,,,,717.1810000119149,,response,,,,4,E,,,,,,Space,keypress(Space),,,,lyrical,,,,----- -- ---- --- -- --- -------- ------------ ---------- is<br>- ------- ------ --------- -- ------------ -- --- ---- -----<br>------ ---- ---- ------ ------ ------- --- ----- ---------<br>---- --- -------- -------- --- --- -- ------- --- --- -----<br>-- --- ------ ------- --- --- -------- ---- --------- --<br>---------- -- -------- ----------------,464564.8000000119,464561.8000000119,463827.961,463830.2000000477,463844.619,464577.586,,9,is
screen,html.Screen,2_3_1_0_1_10,2022-02-02T22:01:19.442Z,,,,,,,,,,,,,,,,,11,,,,,,,,,,,,,,438.31400003575254,,response,,,,4,E,,,,,,Space,keypress(Space),,,,lyrical,,,,----- -- ---- --- -- --- -------- ------------ ---------- --<br>a ------- ------ --------- -- ------------ -- --- ---- -----<br>------ ---- ---- ------ ------ ------- --- ----- ---------<br>---- --- -------- -------- --- --- -- ------- --- --- -----<br>-- --- ------ ------- --- --- -------- ---- --------- --<br>---------- -- -------- ----------------,465019.5,465015.90000003576,464560.928,464565.10000002384,464577.586,465029.231,,10,a
screen,html.Screen,2_3_1_0_1_11,2022-02-02T22:01:19.932Z,,,,,,,,,,,,,,,,,11,,,,,,,,,,,,,,477.46900004765484,,response,,,,4,E,,,,,,Space,keypress(Space),,,,lyrical,,,,----- -- ---- --- -- --- -------- ------------ ---------- --<br>- writing ------ --------- -- ------------ -- --- ---- -----<br>------ ---- ---- ------ ------ ------- --- ----- ---------<br>---- --- -------- -------- --- --- -- ------- --- --- -----<br>-- --- ------ ------- --- --- -------- ---- --------- --<br>---------- -- -------- ----------------,465509.10000002384,465506.7000000477,465012.573,465020,465029.231,465514.142,,11,writing
screen,html.Screen,2_3_1_0_1_12,2022-02-02T22:01:20.450Z,,,,,,,,,,,,,,,,,11,,,,,,,,,,,,,,510.1580000119284,,response,,,,4,E,,,,,,Space,keypress(Space),,,,lyrical,,,,----- -- ---- --- -- --- -------- ------------ ---------- --<br>- ------- system --------- -- ------------ -- --- ---- -----<br>------ ---- ---- ------ ------ ------- --- ----- ---------<br>---- --- -------- -------- --- --- -- ------- --- --- -----<br>-- --- ------ ------- --- --- -------- ---- --------- --<br>---------- -- -------- ----------------,466027.3000000119,466024.3000000119,465497.484,465509.5,465514.142,466031.765,,12,system
screen,html.Screen,2_3_1_0_1_13,2022-02-02T22:01:21.012Z,,,,,,,,,,,,,,,,,11,,,,,,,,,,,,,,554.9350000476697,,response,,,,4,E,,,,,,Space,keypress(Space),,,,lyrical,,,,----- -- ---- --- -- --- -------- ------------ ---------- --<br>- ------- ------ comprised -- ------------ -- --- ---- -----<br>------ ---- ---- ------ ------ ------- --- ----- ---------<br>---- --- -------- -------- --- --- -- ------- --- --- -----<br>-- --- ------ ------- --- --- -------- ---- --------- --<br>---------- -- -------- ----------------,466589.3000000119,466586.7000000477,466015.107,466027.60000002384,466031.765,466599.354,,13,comprised
screen,html.Screen,2_3_1_0_1_14,2022-02-02T22:01:21.437Z,,,,,,,,,,,,,,,,,11,,,,,,,,,,,,,,411.94600001192885,,response,,,,4,E,,,,,,Space,keypress(Space),,,,lyrical,,,,----- -- ---- --- -- --- -------- ------------ ---------- --<br>- ------- ------ --------- of ------------ -- --- ---- -----<br>------ ---- ---- ------ ------ ------- --- ----- ---------<br>---- --- -------- -------- --- --- -- ------- --- --- -----<br>-- --- ------ ------- --- --- -------- ---- --------- --<br>---------- -- -------- ----------------,467014.2000000477,467011.3000000119,466582.696,466589.60000002384,466599.354,467017.087,,14,of
screen,html.Screen,2_3_1_0_1_15,2022-02-02T22:01:22.054Z,,,,,,,,,,,,,,,,,11,,,,,,,,,,,,,,611.5130000238423,,response,,,,4,E,,,,,,Space,keypress(Space),,,,lyrical,,,,----- -- ---- --- -- --- -------- ------------ ---------- --<br>- ------- ------ --------- -- pictographs. -- --- ---- -----<br>------ ---- ---- ------ ------ ------- --- ----- ---------<br>---- --- -------- -------- --- --- -- ------- --- --- -----<br>-- --- ------ ------- --- --- -------- ---- --------- --<br>---------- -- -------- ----------------,467631.5,467628.60000002384,467000.429,467014.8000000119,467017.087,467634.851,,15,pictographs.
screen,html.Screen,2_3_1_0_1_16,2022-02-02T22:01:23.629Z,,,,,,,,,,,,,,,,,11,,,,,,,,,,,,,,1568.6489999999758,,response,,,,4,E,,,,,,Space,keypress(Space),,,,lyrical,,,,----- -- ---- --- -- --- -------- ------------ ---------- --<br>- ------- ------ --------- -- ------------ It --- ---- -----<br>------ ---- ---- ------ ------ ------- --- ----- ---------<br>---- --- -------- -------- --- --- -- ------- --- --- -----<br>-- --- ------ ------- --- --- -------- ---- --------- --<br>---------- -- -------- ----------------,469206.10000002384,469203.5,467618.193,467632.3000000119,467634.851,469218.47,,16,It
screen,html.Screen,2_3_1_0_1_17,2022-02-02T22:01:24.031Z,,,,,,,,,,,,,,,,,11,,,,,,,,,,,,,,387.73000004771166,,response,,,,4,E,,,,,,Space,keypress(Space),,,,lyrical,,,,----- -- ---- --- -- --- -------- ------------ ---------- --<br>- ------- ------ --------- -- ------------ -- has ---- -----<br>------ ---- ---- ------ ------ ------- --- ----- ---------<br>---- --- -------- -------- --- --- -- ------- --- --- -----<br>-- --- ------ ------- --- --- -------- ---- --------- --<br>---------- -- -------- ----------------,469608.8000000119,469606.2000000477,469201.812,469206.40000003576,469218.47,469619.831,,17,has
screen,html.Screen,2_3_1_0_1_18,2022-02-02T22:01:24.359Z,,,,,,,,,,,,,,,,,11,,,,,,,,,,,,,,313.8690000476781,,response,,,,4,E,,,,,,Space,keypress(Space),,,,lyrical,,,,----- -- ---- --- -- --- -------- ------------ ---------- --<br>- ------- ------ --------- -- ------------ -- --- been -----<br>------ ---- ---- ------ ------ ------- --- ----- ---------<br>---- --- -------- -------- --- --- -- ------- --- --- -----<br>-- --- ------ ------- --- --- -------- ---- --------- --<br>---------- -- -------- ----------------,469936.40000003576,469933.7000000477,469603.173,469609.10000002384,469619.831,469940.257,,18,been
screen,html.Screen,2_3_1_0_1_19,2022-02-02T22:01:24.941Z,,,,,,,,,,,,,,,,,11,,,,,,,,,,,,,,575.8430000238586,,response,,,,4,E,,,,,,Space,keypress(Space),,,,lyrical,,,,----- -- ---- --- -- --- -------- ------------ ---------- --<br>- ------- ------ --------- -- ------------ -- --- ---- found<br>------ ---- ---- ------ ------ ------- --- ----- ---------<br>---- --- -------- -------- --- --- -- ------- --- --- -----<br>-- --- ------ ------- --- --- -------- ---- --------- --<br>---------- -- -------- ----------------,470518.7000000477,470516.10000002384,469923.599,469936.90000003576,469940.257,470525.151,,19,found
screen,html.Screen,2_3_1_0_1_20,2022-02-02T22:01:25.372Z,,,,,,,,,,,,,,,,,11,,,,,,,,,,,,,,421.7490000357502,,response,,,,4,E,,,,,,Space,keypress(Space),,,,lyrical,,,,----- -- ---- --- -- --- -------- ------------ ---------- --<br>- ------- ------ --------- -- ------------ -- --- ---- -----<br>carved ---- ---- ------ ------ ------- --- ----- ---------<br>---- --- -------- -------- --- --- -- ------- --- --- -----<br>-- --- ------ ------- --- --- -------- ---- --------- --<br>---------- -- -------- ----------------,470949.40000003576,470946.90000003576,470508.493,470519,470525.151,470958.204,,20,carved
screen,html.Screen,2_3_1_0_1_21,2022-02-02T22:01:25.850Z,,,,,,,,,,,,,,,,,11,,,,,,,,,,,,,,466.89600002381485,,response,,,,4,E,,,,,,Space,keypress(Space),,,,lyrical,,,,----- -- ---- --- -- --- -------- ------------ ---------- --<br>- ------- ------ --------- -- ------------ -- --- ---- -----<br>------ into ---- ------ ------ ------- --- ----- ---------<br>---- --- -------- -------- --- --- -- ------- --- --- -----<br>-- --- ------ ------- --- --- -------- ---- --------- --<br>---------- -- -------- ----------------,471427.8000000119,471425.10000002384,470941.546,470949.7000000477,470958.204,471442.795,,21,into
screen,html.Screen,2_3_1_0_1_22,2022-02-02T22:01:26.518Z,,,,,,,,,,,,,,,,,11,,,,,,,,,,,,,,650.1050000357791,,response,,,,4,E,,,,,,Space,keypress(Space),,,,lyrical,,,,----- -- ---- --- -- --- -------- ------------ ---------- --<br>- ------- ------ --------- -- ------------ -- --- ---- -----<br>------ ---- many ------ ------ ------- --- ----- ---------<br>---- --- -------- -------- --- --- -- ------- --- --- -----<br>-- --- ------ ------- --- --- -------- ---- --------- --<br>---------- -- -------- ----------------,472095.5,472092.90000003576,471426.137,471428.2000000477,471442.795,472110.245,,22,many
screen,html.Screen,2_3_1_0_1_23,2022-02-02T22:01:27.249Z,,,,,,,,,,,,,,,,,11,,,,,,,,,,,,,,713.7550000000047,,response,,,,4,E,,,,,,Space,keypress(Space),,,,lyrical,,,,----- -- ---- --- -- --- -------- ------------ ---------- --<br>- ------- ------ --------- -- ------------ -- --- ---- -----<br>------ ---- ---- oblong ------ ------- --- ----- ---------<br>---- --- -------- -------- --- --- -- ------- --- --- -----<br>-- --- ------ ------- --- --- -------- ---- --------- --<br>---------- -- -------- ----------------,472826.60000002384,472824,472093.587,472095.90000003576,472110.245,472844.417,,23,oblong
screen,html.Screen,2_3_1_0_1_24,2022-02-02T22:01:27.780Z,,,,,,,,,,,,,,,,,11,,,,,,,,,,,,,,510.683000023826,,response,,,,4,E,,,,,,Space,keypress(Space),,,,lyrical,,,,----- -- ---- --- -- --- -------- ------------ ---------- --<br>- ------- ------ --------- -- ------------ -- --- ---- -----<br>------ ---- ---- ------ wooden ------- --- ----- ---------<br>---- --- -------- -------- --- --- -- ------- --- --- -----<br>-- --- ------ ------- --- --- -------- ---- --------- --<br>---------- -- -------- ----------------,473357.7000000477,473355.10000002384,472827.759,472827.10000002384,472844.417,473362.532,,24,wooden
screen,html.Screen,2_3_1_0_1_25,2022-02-02T22:01:28.401Z,,,,,,,,,,,,,,,,,11,,,,,,,,,,,,,,613.2680000119144,,response,,,,4,E,,,,,,Space,keypress(Space),,,,lyrical,,,,----- -- ---- --- -- --- -------- ------------ ---------- --<br>- ------- ------ --------- -- ------------ -- --- ---- -----<br>------ ---- ---- ------ ------ tablets --- ----- ---------<br>---- --- -------- -------- --- --- -- ------- --- --- -----<br>-- --- ------ ------- --- --- -------- ---- --------- --<br>---------- -- -------- ----------------,473978.3000000119,473975.8000000119,473345.874,473358,473362.532,473980.712,,25,tablets
screen,html.Screen,2_3_1_0_1_26,2022-02-02T22:01:28.994Z,,,,,,,,,,,,,,,,,11,,,,,,,,,,,,,,588.3880000238423,,response,,,,4,E,,,,,,Space,keypress(Space),,,,lyrical,,,,----- -- ---- --- -- --- -------- ------------ ---------- --<br>- ------- ------ --------- -- ------------ -- --- ---- -----<br>------ ---- ---- ------ ------ ------- and ----- ---------<br>---- --- -------- -------- --- --- -- ------- --- --- -----<br>-- --- ------ ------- --- --- -------- ---- --------- --<br>---------- -- -------- ----------------,474571.60000002384,474569.10000002384,473964.054,473978.7000000477,473980.712,474583.156,,26,and
screen,html.Screen,2_3_1_0_1_27,2022-02-02T22:01:29.484Z,,,,,,,,,,,,,,,,,11,,,,,,,,,,,,,,476.84399999998277,,response,,,,4,E,,,,,,Space,keypress(Space),,,,lyrical,,,,----- -- ---- --- -- --- -------- ------------ ---------- --<br>- ------- ------ --------- -- ------------ -- --- ---- -----<br>------ ---- ---- ------ ------ ------- --- other ---------<br>---- --- -------- -------- --- --- -- ------- --- --- -----<br>-- --- ------ ------- --- --- -------- ---- --------- --<br>---------- -- -------- ----------------,475061.60000002384,475060,474566.498,474572,474583.156,475066.36,,27,other
screen,html.Screen,2_3_1_0_1_28,2022-02-02T22:01:30.109Z,,,,,,,,,,,,,,,,,11,,,,,,,,,,,,,,618.4400000119349,,response,,,,4,E,,,,,,Space,keypress(Space),,,,lyrical,,,,----- -- ---- --- -- --- -------- ------------ ---------- --<br>- ------- ------ --------- -- ------------ -- --- ---- -----<br>------ ---- ---- ------ ------ ------- --- ----- artifacts<br>---- --- -------- -------- --- --- -- ------- --- --- -----<br>-- --- ------ ------- --- --- -------- ---- --------- --<br>---------- -- -------- ----------------,475686.2000000477,475684.8000000119,475049.702,475062.2000000477,475066.36,475700.835,,28,artifacts
screen,html.Screen,2_3_1_0_1_29,2022-02-02T22:01:30.520Z,,,,,,,,,,,,,,,,,11,,,,,,,,,,,,,,393.7650000238209,,response,,,,4,E,,,,,,Space,keypress(Space),,,,lyrical,,,,----- -- ---- --- -- --- -------- ------------ ---------- --<br>- ------- ------ --------- -- ------------ -- --- ---- -----<br>------ ---- ---- ------ ------ ------- --- ----- ---------<br>from --- -------- -------- --- --- -- ------- --- --- -----<br>-- --- ------ ------- --- --- -------- ---- --------- --<br>---------- -- -------- ----------------,476097.10000002384,476094.60000002384,475684.177,475688.2000000477,475700.835,476101.965,,29,from
screen,html.Screen,2_3_1_0_1_30,2022-02-02T22:01:30.888Z,,,,,,,,,,,,,,,,,11,,,,,,,,,,,,,,360.3350000118953,,response,,,,4,E,,,,,,Space,keypress(Space),,,,lyrical,,,,----- -- ---- --- -- --- -------- ------------ ---------- --<br>- ------- ------ --------- -- ------------ -- --- ---- -----<br>------ ---- ---- ------ ------ ------- --- ----- ---------<br>---- the -------- -------- --- --- -- ------- --- --- -----<br>-- --- ------ ------- --- --- -------- ---- --------- --<br>---------- -- -------- ----------------,476465,476462.3000000119,476085.307,476097.5,476101.965,476469.994,,30,the
screen,html.Screen,2_3_1_0_1_31,2022-02-02T22:01:31.501Z,,,,,,,,,,,,,,,,,11,,,,,,,,,,,,,,605.9060000357567,,response,,,,4,E,,,,,,Space,keypress(Space),,,,lyrical,,,,----- -- ---- --- -- --- -------- ------------ ---------- --<br>- ------- ------ --------- -- ------------ -- --- ---- -----<br>------ ---- ---- ------ ------ ------- --- ----- ---------<br>---- --- island's -------- --- --- -- ------- --- --- -----<br>-- --- ------ ------- --- --- -------- ---- --------- --<br>---------- -- -------- ----------------,477078.5,477075.90000003576,476453.336,476465.60000002384,476469.994,477087.412,,31,island's
screen,html.Screen,2_3_1_0_1_32,2022-02-02T22:01:32.114Z,,,,,,,,,,,,,,,,,11,,,,,,,,,,,,,,602.3880000119098,,response,,,,4,E,,,,,,Space,keypress(Space),,,,lyrical,,,,----- -- ---- --- -- --- -------- ------------ ---------- --<br>- ------- ------ --------- -- ------------ -- --- ---- -----<br>------ ---- ---- ------ ------ ------- --- ----- ---------<br>---- --- -------- history. --- --- -- ------- --- --- -----<br>-- --- ------ ------- --- --- -------- ---- --------- --<br>---------- -- -------- ----------------,477691.3000000119,477689.8000000119,477070.754,477078.8000000119,477087.412,477704.689,,32,history.
screen,html.Screen,2_3_1_0_1_33,2022-02-02T22:01:32.976Z,,,,,,,,,,,,,,,,,11,,,,,,,,,,,,,,845.810999999987,,response,,,,4,E,,,,,,Space,keypress(Space),,,,lyrical,,,,----- -- ---- --- -- --- -------- ------------ ---------- --<br>- ------- ------ --------- -- ------------ -- --- ---- -----<br>------ ---- ---- ------ ------ ------- --- ----- ---------<br>---- --- -------- -------- The --- -- ------- --- --- -----<br>-- --- ------ ------- --- --- -------- ---- --------- --<br>---------- -- -------- ----------------,478553.60000002384,478550.5,477688.031,477691.8000000119,477704.689,478555.809,,33,The
screen,html.Screen,2_3_1_0_1_34,2022-02-02T22:01:33.773Z,,,,,,,,,,,,,,,,,11,,,,,,,,,,,,,,791.2910000238335,,response,,,,4,E,,,,,,Space,keypress(Space),,,,lyrical,,,,----- -- ---- --- -- --- -------- ------------ ---------- --<br>- ------- ------ --------- -- ------------ -- --- ---- -----<br>------ ---- ---- ------ ------ ------- --- ----- ---------<br>---- --- -------- -------- --- art -- ------- --- --- -----<br>-- --- ------ ------- --- --- -------- ---- --------- --<br>---------- -- -------- ----------------,479350.10000002384,479347.10000002384,478539.151,478553.90000003576,478555.809,479356.914,,34,art
screen,html.Screen,2_3_1_0_1_35,2022-02-02T22:01:34.242Z,,,,,,,,,,,,,,,,,11,,,,,,,,,,,,,,460.6860000238521,,response,,,,4,E,,,,,,Space,keypress(Space),,,,lyrical,,,,----- -- ---- --- -- --- -------- ------------ ---------- --<br>- ------- ------ --------- -- ------------ -- --- ---- -----<br>------ ---- ---- ------ ------ ------- --- ----- ---------<br>---- --- -------- -------- --- --- of ------- --- --- -----<br>-- --- ------ ------- --- --- -------- ---- --------- --<br>---------- -- -------- ----------------,479819.10000002384,479817.60000002384,479340.256,479350.40000003576,479356.914,479825.546,,35,of
screen,html.Screen,2_3_1_0_1_36,2022-02-02T22:01:35.476Z,,,,,,,,,,,,,,,,,11,,,,,,,,,,,,,,1226.254000011948,,response,,,,4,E,,,,,,Space,keypress(Space),,,,lyrical,,,,----- -- ---- --- -- --- -------- ------------ ---------- --<br>- ------- ------ --------- -- ------------ -- --- ---- -----<br>------ ---- ---- ------ ------ ------- --- ----- ---------<br>---- --- -------- -------- --- --- -- writing --- --- -----<br>-- --- ------ ------- --- --- -------- ---- --------- --<br>---------- -- -------- ----------------,481053.60000002384,481051.8000000119,479808.888,479819.40000003576,479825.546,481061.409,,36,writing
screen,html.Screen,2_3_1_0_1_37,2022-02-02T22:01:35.903Z,,,,,,,,,,,,,,,,,11,,,,,,,,,,,,,,416.2910000476986,,response,,,,4,E,,,,,,Space,keypress(Space),,,,lyrical,,,,----- -- ---- --- -- --- -------- ------------ ---------- --<br>- ------- ------ --------- -- ------------ -- --- ---- -----<br>------ ---- ---- ------ ------ ------- --- ----- ---------<br>---- --- -------- -------- --- --- -- ------- was --- -----<br>-- --- ------ ------- --- --- -------- ---- --------- --<br>---------- -- -------- ----------------,481480.3000000119,481477.7000000477,481044.751,481054,481061.409,481494.57,,37,was
screen,html.Screen,2_3_1_0_1_38,2022-02-02T22:01:36.512Z,,,,,,,,,,,,,,,,,11,,,,,,,,,,,,,,592.1300000476767,,response,,,,4,E,,,,,,Space,keypress(Space),,,,lyrical,,,,----- -- ---- --- -- --- -------- ------------ ---------- --<br>- ------- ------ --------- -- ------------ -- --- ---- -----<br>------ ---- ---- ------ ------ ------- --- ----- ---------<br>---- --- -------- -------- --- --- -- ------- --- not -----<br>-- --- ------ ------- --- --- -------- ---- --------- --<br>---------- -- -------- ----------------,482089.2000000477,482086.7000000477,481477.912,481480.60000002384,481494.57,482098.43,,38,not
screen,html.Screen,2_3_1_0_1_39,2022-02-02T22:01:37.095Z,,,,,,,,,,,,,,,,,11,,,,,,,,,,,,,,571.1700000238488,,response,,,,4,E,,,,,,Space,keypress(Space),,,,lyrical,,,,----- -- ---- --- -- --- -------- ------------ ---------- --<br>- ------- ------ --------- -- ------------ -- --- ---- -----<br>------ ---- ---- ------ ------ ------- --- ----- ---------<br>---- --- -------- -------- --- --- -- ------- --- --- known<br>-- --- ------ ------- --- --- -------- ---- --------- --<br>---------- -- -------- ----------------,482672.2000000477,482669.60000002384,482081.772,482089.5,482098.43,482681.51,,39,known
