sender,sender_type,sender_id,timestamp,meta,,Blues,Classical,Country,Dance,Electronic,Folk,Gospel,Hip-Hop,Jazz,Latin,Musical/Film,New-age,Pop,Prolific_id,Provo_ID,R&B,Rap,Reggae,Religious,Rock,Soul,Swing,Traditional,age,artist_name,correct,correctResponse,distraction,duration,education,ended_on,familiarity,gender,headphone_check_performance,item,list,music_frequency,offensiveness,pleasantness,position_correct,preference,response,response_action,snippet_file,song_name,song_rating,sound,stimulus_1,stimulus_2,stimulus_3,text,time_commit,time_end,time_render,time_run,time_show,time_switch,url,word,word_ID
Prolific ID,html.Form,0,2022-02-01T16:10:34.404Z,"{""labjs_version"":""20.2.2"",""labjs_build"":{""flavor"":""production"",""commit"":""a25486e0c714a0ae2ce03ff94b7bb6896854dcfa""},""location"":""https://run.pavlovia.org/mvasilev/prolific2_music_a/"",""userAgent"":""Mozilla/5.0 (Windows NT 10.0; Win64; x64) AppleWebKit/537.36 (KHTML, like Gecko) Chrome/97.0.4692.99 Safari/537.36"",""platform"":""Win32"",""language"":""en-GB"",""locale"":""en-GB"",""timeZone"":""Europe/London"",""timezoneOffset"":0,""screen_width"":1536,""screen_height"":864,""scroll_width"":1536,""scroll_height"":674,""window_innerWidth"":1536,""window_innerHeight"":722,""devicePixelRatio"":1.25}",,,,,,,,,,,,,,,611aa9eeaa36f51f00d5e8da,,,,,,,,,,,,,,,6830.715000023842,,form submission,,,,,,,,,,,,,,,,,,,,,12302.100000023842,12301.600000023842,5443.615,5447.600000023842,5470.885,12311.33,{},,
Introduction,html.Screen,1_0,2022-02-01T16:10:44.377Z,,,,,,,,,,,,,,,,,,,,,,,,,,,,,,,9960.970000011921,,response,,,,,,,,,,,continue,click button,,,,,,,,,22274.5,22272.30000001192,12294.054,12302.300000011921,12311.33,22275.45,,,
Volume calibration,html.Screen,1_1,2022-02-01T16:11:00.880Z,,,,,,,,,,,,,,,,,,,,,,,,,,,,,,,16499.85000001192,,response,,,,,,,,,,,continue,click button,,,,,,,,,38777.39999997616,38775.30000001192,22268.478,22274.600000023842,22275.45,38781.477,,,
Task instructions,html.Screen,1_2,2022-02-01T16:11:07.485Z,,,,,,,,,,,,,,,,,,,,,,,,,,,,,,,6600.523000000001,,response,,,,,,,,,,,continue,click button,,,,,,,,,45382.69999998808,45382,38774.554,38777.60000002384,38781.477,45396.378,,,
Sounds,html.Screen,1_3_0_0,2022-02-01T16:11:11.742Z,,,,,,,,,,,,,,,,,,,,,,,,,,,,,,,4247.990000000005,,timeout,,,,,,,,,3,,,,,,,,O,I,S,,49639.60000002384,49637.636,45389.453,45382.89999997616,45396.378,49644.368,,,
Judgement,html.Screen,1_3_0_1,2022-02-01T16:11:12.924Z,,,,,,,,,,,,,,,,,,,,,,,,,,,,true,3,,1176.9320000119187,,response,,,,,,,,,3,,3,click #choice-3,,,,,O,I,S,,50821.80000001192,50821.30000001192,49637.636,49639.60000002384,49644.368,50824.37,,,
Trial,flow.Sequence,1_3_0,2022-02-01T16:11:12.924Z,,,,,,,,,,,,,,,,,,,,,,,,,,,,,,,5424.922000011924,,completion,,,,,,,,,3,,,,,,,,O,I,S,,50822.10000002384,50821.30000001192,45389.453,45382.80000001192,45396.378,50824.37,,,
Sounds,html.Screen,1_3_1_0,2022-02-01T16:11:17.168Z,,,,,,,,,,,,,,,,,,,,,,,,,,,,,,,4248.030999999995,,timeout,,,,,,,,,1,,,,,,,,S,I,O,,55065.80000001192,55065.431,50817.45,50822.30000001192,50824.37,55072.401,,,
Judgement,html.Screen,1_3_1_1,2022-02-01T16:11:17.945Z,,,,,,,,,,,,,,,,,,,,,,,,,,,,true,1,,769.8990000119229,,response,,,,,,,,,1,,1,click #choice-1,,,,,S,I,O,,55843,55842.30000001192,55065.431,55066,55072.401,55849.764,,,
Trial,flow.Sequence,1_3_1,2022-02-01T16:11:17.945Z,,,,,,,,,,,,,,,,,,,,,,,,,,,,,,,5017.930000011918,,completion,,,,,,,,,1,,,,,,,,S,I,O,,55843.30000001192,55842.30000001192,50817.45,50822.19999998808,50824.37,55849.764,,,
Sounds,html.Screen,1_3_2_0,2022-02-01T16:11:22.194Z,,,,,,,,,,,,,,,,,,,,,,,,,,,,,,,4248.024999999994,,timeout,,,,,,,,,1,,,,,,,,S,O,I,,60091.60000002384,60090.995,55835.922,55843.30000001192,55849.764,60097.789,,,
Judgement,html.Screen,1_3_2_1,2022-02-01T16:11:23.774Z,,,,,,,,,,,,,,,,,,,,,,,,,,,,true,1,,1573.3110000238448,,response,,,,,,,,,1,,1,click #choice-1,,,,,S,O,I,,61671.69999998808,61671.10000002384,60090.995,60091.69999998808,60097.789,61673.439,,,
Trial,flow.Sequence,1_3_2,2022-02-01T16:11:23.774Z,,,,,,,,,,,,,,,,,,,,,,,,,,,,,,,5821.336000023839,,completion,,,,,,,,,1,,,,,,,,S,O,I,,61671.89999997616,61671.10000002384,55835.922,55843.30000001192,55849.764,61673.439,,,
Sounds,html.Screen,1_3_3_0,2022-02-01T16:11:28.017Z,,,,,,,,,,,,,,,,,,,,,,,,,,,,,,,4247.956000000006,,timeout,,,,,,,,,2,,,,,,,,I,S,O,,65915,65914.524,61666.462,61672,61673.439,65921.395,,,
Judgement,html.Screen,1_3_3_1,2022-02-01T16:11:28.862Z,,,,,,,,,,,,,,,,,,,,,,,,,,,,true,2,,838.1049999999959,,response,,,,,,,,,2,,2,click #choice-2,,,,,I,S,O,,66760.10000002384,66759.5,65914.524,65915.19999998808,65921.395,66761.28,,,
Trial,flow.Sequence,1_3_3,2022-02-01T16:11:28.863Z,,,,,,,,,,,,,,,,,,,,,,,,,,,,,,,5086.0610000000015,,completion,,,,,,,,,2,,,,,,,,I,S,O,,66760.30000001192,66759.5,61666.462,61672,61673.439,66761.28,,,
Sounds,html.Screen,1_3_4_0,2022-02-01T16:11:33.105Z,,,,,,,,,,,,,,,,,,,,,,,,,,,,,,,4248.065000000002,,timeout,,,,,,,,,3,,,,,,,,I,O,S,,71003,71002.519,66754.357,66760.39999997616,66761.28,71009.345,,,
Judgement,html.Screen,1_3_4_1,2022-02-01T16:11:33.697Z,,,,,,,,,,,,,,,,,,,,,,,,,,,,true,3,,585.1549999999988,,response,,,,,,,,,3,,3,click #choice-3,,,,,I,O,S,,71595,71594.5,71002.519,71003.10000002384,71009.345,71599.232,,,
Trial,flow.Sequence,1_3_4,2022-02-01T16:11:33.697Z,,,,,,,,,,,,,,,,,,,,,,,,,,,,,,,4833.220000000001,,completion,,,,,,,,,3,,,,,,,,I,O,S,,71595.10000002384,71594.5,66754.357,66760.39999997616,66761.28,71599.232,,,
Sounds,html.Screen,1_3_5_0,2022-02-01T16:11:37.944Z,,,,,,,,,,,,,,,,,,,,,,,,,,,,,,,4248.203999999998,,timeout,,,,,,,,,2,,,,,,,,O,S,I,,75841.10000002384,75840.615,71592.315,71595.19999998808,71599.232,75847.436,,,
Judgement,html.Screen,1_3_5_1,2022-02-01T16:11:38.926Z,,,,,,,,,,,,,,,,,,,,,,,,,,,,true,2,,975.1640000238403,,response,,,,,,,,,2,,2,click #choice-2,,,,,O,S,I,,76823.19999998808,76822.60000002384,75840.615,75841.30000001192,75847.436,76825.973,,,
Trial,flow.Sequence,1_3_5,2022-02-01T16:11:38.926Z,,,,,,,,,,,,,,,,,,,,,,,,,,,,,,,5223.368000023838,,completion,,,,,,,,,2,,,,,,,,O,S,I,,76823.30000001192,76822.60000002384,71592.315,71595.19999998808,71599.232,76825.973,,,
Task,flow.Loop,1_3,2022-02-01T16:11:38.929Z,,,,,,,,,,,,,,,,,,,,,,,,,,,,,,,31426.222000023845,,completion,,,1,,,,,,,,,,,,,,,,,,76826.60000002384,76822.60000002384,45389.453,45382.80000001192,45396.378,76825.973,,,
Trap,html.Screen,1_4,2022-02-01T16:11:38.930Z,,,,,,,,,,,,,,,,,,,,,,,,,,,,,,,NaN,,skipped,,,,,,,,,,,,,,,,,,,,,76827.39999997616,76822.60000002384,,76827.30000001192,,76825.973,,,
Thanks,html.Screen,1_5,2022-02-01T16:11:52.464Z,,,,,,,,,,,,,,,,,,,,,,,,,,,,,,,13534.42699997616,,response,,,,,,,,,,,continue,click button,,,,,,,,,90361,90360.39999997616,76819.017,76827.5,76825.973,94116.505,,,
Headphone screening,flow.Sequence,1,2022-02-01T16:11:52.464Z,,,,,,,,,,,,,,,,,,,,,,,,,,,,,,,78049.06999997616,,completion,,,,,,,,,,,,,,,,,,,,,90361.19999998808,90360.39999997616,12294.054,12302.300000011921,12311.33,94116.505,,,
Instructions,html.Page,2_0,2022-02-01T16:12:10.634Z,,,,,,,,,,,,,,,,,,,,,,,,,,,,,,,14414.595000023837,,form submission,,,,,,,,,,,,,,,,,,,,,108531.30000001192,108531.10000002384,94112.942,94111.69999998808,94116.505,108533.138,,,
Holding screen,html.Screen,2_1_0_0,2022-02-01T16:12:20.632Z,,,,,,,,,,,,,,,,,,,,,,,,,,,,,,,10009.197,,timeout,,,,,,,,,,,,,,,,,,,,,118529,118528.667,108526.191,108531.5,108533.138,118542.335,,,
screen,html.Screen,2_1_0_1_0,2022-02-01T16:12:21.568Z,,,,,,,,,,,,,,,,,53,,,,,,,,,,,,,,921.7650000238355,,response,,,,99,,,,,,,Space,keypress(Space),,,,,,,,When -- ----- -- ------ - ------- --- ----------<br>------------- ------ ------ ---- ---- ------- ----- -- ----<br>-------- ------- -- ---------- --- - --- ----- ----- ----<br>---- --- --- ----- --- ---- ---- ------- ----- ---- -------<br>--- --- -- ----- -- --- ---- -- --- ---- -- ------ ------<br>--- ----- -- ----,119465.80000001192,119464.10000002384,118528.667,118529.19999998808,118542.335,119472.419,,0,When
screen,html.Screen,2_1_0_1_1,2022-02-01T16:12:21.918Z,,,,,,,,,,,,,,,,,53,,,,,,,,,,,,,,342.8810000119265,,response,,,,99,,,,,,,Space,keypress(Space),,,,,,,,---- it ----- -- ------ - ------- --- ----------<br>------------- ------ ------ ---- ---- ------- ----- -- ----<br>-------- ------- -- ---------- --- - --- ----- ----- ----<br>---- --- --- ----- --- ---- ---- ------- ----- ---- -------<br>--- --- -- ----- -- --- ---- -- --- ---- -- ------ ------<br>--- ----- -- ----,119815.69999998808,119815.30000001192,119465.947,119465.89999997616,119472.419,119819.458,,1,it
screen,html.Screen,2_1_0_1_2,2022-02-01T16:12:22.282Z,,,,,,,,,,,,,,,,,53,,,,,,,,,,,,,,359.8420000119222,,response,,,,99,,,,,,,Space,keypress(Space),,,,,,,,---- -- comes -- ------ - ------- --- ----------<br>------------- ------ ------ ---- ---- ------- ----- -- ----<br>-------- ------- -- ---------- --- - --- ----- ----- ----<br>---- --- --- ----- --- ---- ---- ------- ----- ---- -------<br>--- --- -- ----- -- --- ---- -- --- ---- -- ------ ------<br>--- ----- -- ----,120179.69999998808,120179.30000001192,119812.847,119815.69999998808,119819.458,120191.746,,2,comes
screen,html.Screen,2_1_0_1_3,2022-02-01T16:12:22.590Z,,,,,,,,,,,,,,,,,53,,,,,,,,,,,,,,295.4539999880799,,response,,,,99,,,,,,,Space,keypress(Space),,,,,,,,---- -- ----- to ------ - ------- --- ----------<br>------------- ------ ------ ---- ---- ------- ----- -- ----<br>-------- ------- -- ---------- --- - --- ----- ----- ----<br>---- --- --- ----- --- ---- ---- ------- ----- ---- -------<br>--- --- -- ----- -- --- ---- -- --- ---- -- ------ ------<br>--- ----- -- ----,120487.60000002384,120487.19999998808,120173.775,120179.80000001192,120191.746,120492.745,,3,to
screen,html.Screen,2_1_0_1_4,2022-02-01T16:12:22.966Z,,,,,,,,,,,,,,,,,53,,,,,,,,,,,,,,370.4549999880837,,response,,,,99,,,,,,,Space,keypress(Space),,,,,,,,---- -- ----- -- having - ------- --- ----------<br>------------- ------ ------ ---- ---- ------- ----- -- ----<br>-------- ------- -- ---------- --- - --- ----- ----- ----<br>---- --- --- ----- --- ---- ---- ------- ----- ---- -------<br>--- --- -- ----- -- --- ---- -- --- ---- -- ------ ------<br>--- ----- -- ----,120863.60000002384,120863.19999998808,120485.978,120487.69999998808,120492.745,120867.528,,4,having
screen,html.Screen,2_1_0_1_5,2022-02-01T16:12:23.286Z,,,,,,,,,,,,,,,,,53,,,,,,,,,,,,,,315.7720000119152,,response,,,,99,,,,,,,Space,keypress(Space),,,,,,,,---- -- ----- -- ------ a ------- --- ----------<br>------------- ------ ------ ---- ---- ------- ----- -- ----<br>-------- ------- -- ---------- --- - --- ----- ----- ----<br>---- --- --- ----- --- ---- ---- ------- ----- ---- -------<br>--- --- -- ----- -- --- ---- -- --- ---- -- ------ ------<br>--- ----- -- ----,121183.69999998808,121183.30000001192,120860.835,120863.69999998808,120867.528,121186.839,,5,a
screen,html.Screen,2_1_0_1_6,2022-02-01T16:12:23.661Z,,,,,,,,,,,,,,,,,53,,,,,,,,,,,,,,371.76100002383464,,response,,,,99,,,,,,,Space,keypress(Space),,,,,,,,---- -- ----- -- ------ - lasting --- ----------<br>------------- ------ ------ ---- ---- ------- ----- -- ----<br>-------- ------- -- ---------- --- - --- ----- ----- ----<br>---- --- --- ----- --- ---- ---- ------- ----- ---- -------<br>--- --- -- ----- -- --- ---- -- --- ---- -- ------ ------<br>--- ----- -- ----,121559,121558.60000002384,121180.041,121183.80000001192,121186.839,121561.68,,6,lasting
screen,html.Screen,2_1_0_1_7,2022-02-01T16:12:24.014Z,,,,,,,,,,,,,,,,,53,,,,,,,,,,,,,,349.51999998808606,,response,,,,99,,,,,,,Space,keypress(Space),,,,,,,,---- -- ----- -- ------ - ------- and ----------<br>------------- ------ ------ ---- ---- ------- ----- -- ----<br>-------- ------- -- ---------- --- - --- ----- ----- ----<br>---- --- --- ----- --- ---- ---- ------- ----- ---- -------<br>--- --- -- ----- -- --- ---- -- --- ---- -- ------ ------<br>--- ----- -- ----,121911.60000002384,121911.19999998808,121554.97,121559,121561.68,121915.671,,7,and
screen,html.Screen,2_1_0_1_8,2022-02-01T16:12:24.374Z,,,,,,,,,,,,,,,,,53,,,,,,,,,,,,,,355.92900002383976,,response,,,,99,,,,,,,Space,keypress(Space),,,,,,,,---- -- ----- -- ------ - ------- --- fulfilling<br>------------- ------ ------ ---- ---- ------- ----- -- ----<br>-------- ------- -- ---------- --- - --- ----- ----- ----<br>---- --- --- ----- --- ---- ---- ------- ----- ---- -------<br>--- --- -- ----- -- --- ---- -- --- ---- -- ------ ------<br>--- ----- -- ----,122271.89999997616,122271.60000002384,121908.958,121911.69999998808,121915.671,122276.68,,8,fulfilling
screen,html.Screen,2_1_0_1_9,2022-02-01T16:12:24.754Z,,,,,,,,,,,,,,,,,53,,,,,,,,,,,,,,374.320000000007,,response,,,,99,,,,,,,Space,keypress(Space),,,,,,,,"---- -- ----- -- ------ - ------- --- ----------<br>relationship, ------ ------ ---- ---- ------- ----- -- ----<br>-------- ------- -- ---------- --- - --- ----- ----- ----<br>---- --- --- ----- --- ---- ---- ------- ----- ---- -------<br>--- --- -- ----- -- --- ---- -- --- ---- -- ------ ------<br>--- ----- -- ----",122651.39999997616,122651,122270.061,122272,122276.68,122665.354,,9,"relationship,"
screen,html.Screen,2_1_0_1_10,2022-02-01T16:12:25.174Z,,,,,,,,,,,,,,,,,53,,,,,,,,,,,,,,405.9460000119143,,response,,,,99,,,,,,,Space,keypress(Space),,,,,,,,---- -- ----- -- ------ - ------- --- ----------<br>------------- common ------ ---- ---- ------- ----- -- ----<br>-------- ------- -- ---------- --- - --- ----- ----- ----<br>---- --- --- ----- --- ---- ---- ------- ----- ---- -------<br>--- --- -- ----- -- --- ---- -- --- ---- -- ------ ------<br>--- ----- -- ----,123071.69999998808,123071.30000001192,122658.41,122651.5,122665.354,123074.839,,10,common
screen,html.Screen,2_1_0_1_11,2022-02-01T16:12:25.630Z,,,,,,,,,,,,,,,,,53,,,,,,,,,,,,,,451.86099998807185,,response,,,,99,,,,,,,Space,keypress(Space),,,,,,,,---- -- ----- -- ------ - ------- --- ----------<br>------------- ------ wisdom ---- ---- ------- ----- -- ----<br>-------- ------- -- ---------- --- - --- ----- ----- ----<br>---- --- --- ----- --- ---- ---- ------- ----- ---- -------<br>--- --- -- ----- -- --- ---- -- --- ---- -- ------ ------<br>--- ----- -- ----,123527.10000002384,123526.69999998808,123068.257,123071.80000001192,123074.839,123532.992,,11,wisdom
screen,html.Screen,2_1_0_1_12,2022-02-01T16:12:26.066Z,,,,,,,,,,,,,,,,,53,,,,,,,,,,,,,,430.1080000238435,,response,,,,99,,,,,,,Space,keypress(Space),,,,,,,,---- -- ----- -- ------ - ------- --- ----------<br>------------- ------ ------ says ---- ------- ----- -- ----<br>-------- ------- -- ---------- --- - --- ----- ----- ----<br>---- --- --- ----- --- ---- ---- ------- ----- ---- -------<br>--- --- -- ----- -- --- ---- -- --- ---- -- ------ ------<br>--- ----- -- ----,123963.60000002384,123963.10000002384,123526.277,123527.19999998808,123532.992,123970.261,,12,says
screen,html.Screen,2_1_0_1_13,2022-02-01T16:12:26.474Z,,,,,,,,,,,,,,,,,53,,,,,,,,,,,,,,400.93899998808047,,response,,,,99,,,,,,,Space,keypress(Space),,,,,,,,---- -- ----- -- ------ - ------- --- ----------<br>------------- ------ ------ ---- that ------- ----- -- ----<br>-------- ------- -- ---------- --- - --- ----- ----- ----<br>---- --- --- ----- --- ---- ---- ------- ----- ---- -------<br>--- --- -- ----- -- --- ---- -- --- ---- -- ------ ------<br>--- ----- -- ----,124371.60000002384,124371.19999998808,123963.72,123963.60000002384,123970.261,124392.04,,13,that
screen,html.Screen,2_1_0_1_14,2022-02-01T16:12:26.926Z,,,,,,,,,,,,,,,,,53,,,,,,,,,,,,,,431.26000001192733,,response,,,,99,,,,,,,Space,keypress(Space),,,,,,,,---- -- ----- -- ------ - ------- --- ----------<br>------------- ------ ------ ---- ---- feeling ----- -- ----<br>-------- ------- -- ---------- --- - --- ----- ----- ----<br>---- --- --- ----- --- ---- ---- ------- ----- ---- -------<br>--- --- -- ----- -- --- ---- -- --- ---- -- ------ ------<br>--- ----- -- ----,124823.69999998808,124823.30000001192,124366.276,124371.60000002384,124392.04,124831.022,,14,feeling
screen,html.Screen,2_1_0_1_15,2022-02-01T16:12:27.334Z,,,,,,,,,,,,,,,,,53,,,,,,,,,,,,,,400.2780000119237,,response,,,,99,,,,,,,Space,keypress(Space),,,,,,,,---- -- ----- -- ------ - ------- --- ----------<br>------------- ------ ------ ---- ---- ------- close -- ----<br>-------- ------- -- ---------- --- - --- ----- ----- ----<br>---- --- --- ----- --- ---- ---- ------- ----- ---- -------<br>--- --- -- ----- -- --- ---- -- --- ---- -- ------ ------<br>--- ----- -- ----,125231.69999998808,125231.30000001192,124817.457,124823.80000001192,124831.022,125233.566,,15,close
screen,html.Screen,2_1_0_1_16,2022-02-01T16:12:27.650Z,,,,,,,,,,,,,,,,,53,,,,,,,,,,,,,,313.5340000238357,,response,,,,99,,,,,,,Space,keypress(Space),,,,,,,,---- -- ----- -- ------ - ------- --- ----------<br>------------- ------ ------ ---- ---- ------- ----- to ----<br>-------- ------- -- ---------- --- - --- ----- ----- ----<br>---- --- --- ----- --- ---- ---- ------- ----- ---- -------<br>--- --- -- ----- -- --- ---- -- --- ---- -- ------ ------<br>--- ----- -- ----,125547.39999997616,125547.10000002384,125226.988,125231.80000001192,125233.566,125552.813,,16,to
screen,html.Screen,2_1_0_1_17,2022-02-01T16:12:27.998Z,,,,,,,,,,,,,,,,,53,,,,,,,,,,,,,,342.2870000238472,,response,,,,99,,,,,,,Space,keypress(Space),,,,,,,,---- -- ----- -- ------ - ------- --- ----------<br>------------- ------ ------ ---- ---- ------- ----- -- your<br>-------- ------- -- ---------- --- - --- ----- ----- ----<br>---- --- --- ----- --- ---- ---- ------- ----- ---- -------<br>--- --- -- ----- -- --- ---- -- --- ---- -- ------ ------<br>--- ----- -- ----,125895.5,125895.10000002384,125546.279,125547.5,125552.813,125899.898,,17,your
screen,html.Screen,2_1_0_1_18,2022-02-01T16:12:28.358Z,,,,,,,,,,,,,,,,,53,,,,,,,,,,,,,,355.2020000238408,,response,,,,99,,,,,,,Space,keypress(Space),,,,,,,,---- -- ----- -- ------ - ------- --- ----------<br>------------- ------ ------ ---- ---- ------- ----- -- ----<br>romantic ------- -- ---------- --- - --- ----- ----- ----<br>---- --- --- ----- --- ---- ---- ------- ----- ---- -------<br>--- --- -- ----- -- --- ---- -- --- ---- -- ------ ------<br>--- ----- -- ----,126255.39999997616,126255.10000002384,125893.218,125895.5,125899.898,126260.85,,18,romantic
screen,html.Screen,2_1_0_1_19,2022-02-01T16:12:28.710Z,,,,,,,,,,,,,,,,,53,,,,,,,,,,,,,,346.4500000119151,,response,,,,99,,,,,,,Space,keypress(Space),,,,,,,,---- -- ----- -- ------ - ------- --- ----------<br>------------- ------ ------ ---- ---- ------- ----- -- ----<br>-------- partner -- ---------- --- - --- ----- ----- ----<br>---- --- --- ----- --- ---- ---- ------- ----- ---- -------<br>--- --- -- ----- -- --- ---- -- --- ---- -- ------ ------<br>--- ----- -- ----,126607.80000001192,126607.30000001192,126254.242,126255.5,126260.85,126621.845,,19,partner
screen,html.Screen,2_1_0_1_20,2022-02-01T16:12:29.086Z,,,,,,,,,,,,,,,,,53,,,,,,,,,,,,,,361.554999976157,,response,,,,99,,,,,,,Space,keypress(Space),,,,,,,,---- -- ----- -- ------ - ------- --- ----------<br>------------- ------ ------ ---- ---- ------- ----- -- ----<br>-------- ------- is ---------- --- - --- ----- ----- ----<br>---- --- --- ----- --- ---- ---- ------- ----- ---- -------<br>--- --- -- ----- -- --- ---- -- --- ---- -- ------ ------<br>--- ----- -- ----,126983.80000001192,126983.39999997616,126614.896,126607.80000001192,126621.845,126989.668,,20,is
screen,html.Screen,2_1_0_1_21,2022-02-01T16:12:29.462Z,,,,,,,,,,,,,,,,,53,,,,,,,,,,,,,,369.43200002383674,,response,,,,99,,,,,,,Space,keypress(Space),,,,,,,,---- -- ----- -- ------ - ------- --- ----------<br>------------- ------ ------ ---- ---- ------- ----- -- ----<br>-------- ------- -- paramount. --- - --- ----- ----- ----<br>---- --- --- ----- --- ---- ---- ------- ----- ---- -------<br>--- --- -- ----- -- --- ---- -- --- ---- -- ------ ------<br>--- ----- -- ----,127359.39999997616,127359.10000002384,126983.077,126983.80000001192,126989.668,127364.538,,21,paramount.
screen,html.Screen,2_1_0_1_22,2022-02-01T16:12:29.978Z,,,,,,,,,,,,,,,,,53,,,,,,,,,,,,,,510.6619999880786,,response,,,,99,,,,,,,Space,keypress(Space),,,,,,,,---- -- ----- -- ------ - ------- --- ----------<br>------------- ------ ------ ---- ---- ------- ----- -- ----<br>-------- ------- -- ---------- But - --- ----- ----- ----<br>---- --- --- ----- --- ---- ---- ------- ----- ---- -------<br>--- --- -- ----- -- --- ---- -- --- ---- -- ------ ------<br>--- ----- -- ----,127875.5,127875.19999998808,127357.779,127359.60000002384,127364.538,127878.152,,22,But
screen,html.Screen,2_1_0_1_23,2022-02-01T16:12:30.362Z,,,,,,,,,,,,,,,,,53,,,,,,,,,,,,,,381.0479999880772,,response,,,,99,,,,,,,Space,keypress(Space),,,,,,,,---- -- ----- -- ------ - ------- --- ----------<br>------------- ------ ------ ---- ---- ------- ----- -- ----<br>-------- ------- -- ---------- --- a --- ----- ----- ----<br>---- --- --- ----- --- ---- ---- ------- ----- ---- -------<br>--- --- -- ----- -- --- ---- -- --- ---- -- ------ ------<br>--- ----- -- ----,128259.60000002384,128259.19999998808,127871.645,127875.5,127878.152,128266.899,,23,a
screen,html.Screen,2_1_0_1_24,2022-02-01T16:12:30.714Z,,,,,,,,,,,,,,,,,53,,,,,,,,,,,,,,344.40100001191604,,response,,,,99,,,,,,,Space,keypress(Space),,,,,,,,---- -- ----- -- ------ - ------- --- ----------<br>------------- ------ ------ ---- ---- ------- ----- -- ----<br>-------- ------- -- ---------- --- - new ----- ----- ----<br>---- --- --- ----- --- ---- ---- ------- ----- ---- -------<br>--- --- -- ----- -- --- ---- -- --- ---- -- ------ ------<br>--- ----- -- ----,128611.69999998808,128611.30000001192,128253.233,128259.69999998808,128266.899,128613.871,,24,new
screen,html.Screen,2_1_0_1_25,2022-02-01T16:12:31.066Z,,,,,,,,,,,,,,,,,53,,,,,,,,,,,,,,349.3289999880799,,response,,,,99,,,,,,,Space,keypress(Space),,,,,,,,---- -- ----- -- ------ - ------- --- ----------<br>------------- ------ ------ ---- ---- ------- ----- -- ----<br>-------- ------- -- ---------- --- - --- study ----- ----<br>---- --- --- ----- --- ---- ---- ------- ----- ---- -------<br>--- --- -- ----- -- --- ---- -- --- ---- -- ------ ------<br>--- ----- -- ----,128963.60000002384,128963.19999998808,128607.391,128611.80000001192,128613.871,128967.966,,25,study
screen,html.Screen,2_1_0_1_26,2022-02-01T16:12:31.438Z,,,,,,,,,,,,,,,,,53,,,,,,,,,,,,,,367.3340000119206,,response,,,,99,,,,,,,Space,keypress(Space),,,,,,,,---- -- ----- -- ------ - ------- --- ----------<br>------------- ------ ------ ---- ---- ------- ----- -- ----<br>-------- ------- -- ---------- --- - --- ----- finds ----<br>---- --- --- ----- --- ---- ---- ------- ----- ---- -------<br>--- --- -- ----- -- --- ---- -- --- ---- -- ------ ------<br>--- ----- -- ----,129335.69999998808,129335.30000001192,128961.077,128963.69999998808,128967.966,129342.684,,26,finds
screen,html.Screen,2_1_0_1_27,2022-02-01T16:12:31.794Z,,,,,,,,,,,,,,,,,53,,,,,,,,,,,,,,348.81600000000617,,response,,,,99,,,,,,,Space,keypress(Space),,,,,,,,---- -- ----- -- ------ - ------- --- ----------<br>------------- ------ ------ ---- ---- ------- ----- -- ----<br>-------- ------- -- ---------- --- - --- ----- ----- that<br>---- --- --- ----- --- ---- ---- ------- ----- ---- -------<br>--- --- -- ----- -- --- ---- -- --- ---- -- ------ ------<br>--- ----- -- ----,129692,129691.5,129336.031,129335.80000001192,129342.684,129696.693,,27,that
screen,html.Screen,2_1_0_1_28,2022-02-01T16:12:32.538Z,,,,,,,,,,,,,,,,,53,,,,,,,,,,,,,,738.6070000119216,,response,,,,99,,,,,,,Space,keypress(Space),,,,,,,,---- -- ----- -- ------ - ------- --- ----------<br>------------- ------ ------ ---- ---- ------- ----- -- ----<br>-------- ------- -- ---------- --- - --- ----- ----- ----<br>it's --- --- ----- --- ---- ---- ------- ----- ---- -------<br>--- --- -- ----- -- --- ---- -- --- ---- -- ------ ------<br>--- ----- -- ----,130435.60000002384,130435.30000001192,129689.925,129692.10000002384,129696.693,130439.385,,28,it's
screen,html.Screen,2_1_0_1_29,2022-02-01T16:12:32.898Z,,,,,,,,,,,,,,,,,53,,,,,,,,,,,,,,355.91500001192617,,response,,,,99,,,,,,,Space,keypress(Space),,,,,,,,---- -- ----- -- ------ - ------- --- ----------<br>------------- ------ ------ ---- ---- ------- ----- -- ----<br>-------- ------- -- ---------- --- - --- ----- ----- ----<br>---- not --- ----- --- ---- ---- ------- ----- ---- -------<br>--- --- -- ----- -- --- ---- -- --- ---- -- ------ ------<br>--- ----- -- ----,130795.60000002384,130795.30000001192,130432.922,130435.69999998808,130439.385,130800.359,,29,not
screen,html.Screen,2_1_0_1_30,2022-02-01T16:12:33.222Z,,,,,,,,,,,,,,,,,53,,,,,,,,,,,,,,318.5409999761614,,response,,,,99,,,,,,,Space,keypress(Space),,,,,,,,---- -- ----- -- ------ - ------- --- ----------<br>------------- ------ ------ ---- ---- ------- ----- -- ----<br>-------- ------- -- ---------- --- - --- ----- ----- ----<br>---- --- how ----- --- ---- ---- ------- ----- ---- -------<br>--- --- -- ----- -- --- ---- -- --- ---- -- ------ ------<br>--- ----- -- ----,131119.30000001192,131118.89999997616,130793.647,130795.80000001192,130800.359,131126.565,,30,how
screen,html.Screen,2_1_0_1_31,2022-02-01T16:12:33.546Z,,,,,,,,,,,,,,,,,53,,,,,,,,,,,,,,316.4349999999977,,response,,,,99,,,,,,,Space,keypress(Space),,,,,,,,---- -- ----- -- ------ - ------- --- ----------<br>------------- ------ ------ ---- ---- ------- ----- -- ----<br>-------- ------- -- ---------- --- - --- ----- ----- ----<br>---- --- --- close --- ---- ---- ------- ----- ---- -------<br>--- --- -- ----- -- --- ---- -- --- ---- -- ------ ------<br>--- ----- -- ----,131443.39999997616,131443,131113.027,131119.39999997616,131126.565,131445.86,,31,close
screen,html.Screen,2_1_0_1_32,2022-02-01T16:12:33.854Z,,,,,,,,,,,,,,,,,53,,,,,,,,,,,,,,305.0399999761721,,response,,,,99,,,,,,,Space,keypress(Space),,,,,,,,---- -- ----- -- ------ - ------- --- ----------<br>------------- ------ ------ ---- ---- ------- ----- -- ----<br>-------- ------- -- ---------- --- - --- ----- ----- ----<br>---- --- --- ----- you ---- ---- ------- ----- ---- -------<br>--- --- -- ----- -- --- ---- -- --- ---- -- ------ ------<br>--- ----- -- ----,131751.30000001192,131750.89999997616,131439.089,131443.5,131445.86,131765.21,,32,you
screen,html.Screen,2_1_0_1_33,2022-02-01T16:12:34.178Z,,,,,,,,,,,,,,,,,53,,,,,,,,,,,,,,309.89000002385,,response,,,,99,,,,,,,Space,keypress(Space),,,,,,,,---- -- ----- -- ------ - ------- --- ----------<br>------------- ------ ------ ---- ---- ------- ----- -- ----<br>-------- ------- -- ---------- --- - --- ----- ----- ----<br>---- --- --- ----- --- feel ---- ------- ----- ---- -------<br>--- --- -- ----- -- --- ---- -- --- ---- -- ------ ------<br>--- ----- -- ----,132075.39999997616,132075.10000002384,131758.298,131751.30000001192,131765.21,132077.515,,33,feel
screen,html.Screen,2_1_0_1_34,2022-02-01T16:12:34.498Z,,,,,,,,,,,,,,,,,53,,,,,,,,,,,,,,317.78500001190696,,response,,,,99,,,,,,,Space,keypress(Space),,,,,,,,---- -- ----- -- ------ - ------- --- ----------<br>------------- ------ ------ ---- ---- ------- ----- -- ----<br>-------- ------- -- ---------- --- - --- ----- ----- ----<br>---- --- --- ----- --- ---- that ------- ----- ---- -------<br>--- --- -- ----- -- --- ---- -- --- ---- -- ------ ------<br>--- ----- -- ----,132395.60000002384,132395.30000001192,132070.711,132075.39999997616,132077.515,132405.881,,34,that
screen,html.Screen,2_1_0_1_35,2022-02-01T16:12:34.790Z,,,,,,,,,,,,,,,,,53,,,,,,,,,,,,,,281.61900000000605,,response,,,,99,,,,,,,Space,keypress(Space),,,,,,,,---- -- ----- -- ------ - ------- --- ----------<br>------------- ------ ------ ---- ---- ------- ----- -- ----<br>-------- ------- -- ---------- --- - --- ----- ----- ----<br>---- --- --- ----- --- ---- ---- matters ----- ---- -------<br>--- --- -- ----- -- --- ---- -- --- ---- -- ------ ------<br>--- ----- -- ----,132687.80000001192,132687.5,132390.223,132395.80000001192,132405.881,132701.366,,35,matters
screen,html.Screen,2_1_0_1_36,2022-02-01T16:12:35.094Z,,,,,,,,,,,,,,,,,53,,,,,,,,,,,,,,289.83399998807,,response,,,,99,,,,,,,Space,keypress(Space),,,,,,,,"---- -- ----- -- ------ - ------- --- ----------<br>------------- ------ ------ ---- ---- ------- ----- -- ----<br>-------- ------- -- ---------- --- - --- ----- ----- ----<br>---- --- --- ----- --- ---- ---- ------- most, ---- -------<br>--- --- -- ----- -- --- ---- -- --- ---- -- ------ ------<br>--- ----- -- ----",132991.60000002384,132991.19999998808,132681.61,132687.89999997616,132701.366,132993.763,,36,"most,"
screen,html.Screen,2_1_0_1_37,2022-02-01T16:12:35.569Z,,,,,,,,,,,,,,,,,53,,,,,,,,,,,,,,472.7369999999937,,response,,,,99,,,,,,,Space,keypress(Space),,,,,,,,---- -- ----- -- ------ - ------- --- ----------<br>------------- ------ ------ ---- ---- ------- ----- -- ----<br>-------- ------- -- ---------- --- - --- ----- ----- ----<br>---- --- --- ----- --- ---- ---- ------- ----- it's -------<br>--- --- -- ----- -- --- ---- -- --- ---- -- ------ ------<br>--- ----- -- ----,133466.89999997616,133466.5,132987.072,132991.69999998808,132993.763,133472.672,,37,it's
screen,html.Screen,2_1_0_1_38,2022-02-01T16:12:35.866Z,,,,,,,,,,,,,,,,,53,,,,,,,,,,,,,,290.3280000000086,,response,,,,99,,,,,,,Space,keypress(Space),,,,,,,,---- -- ----- -- ------ - ------- --- ----------<br>------------- ------ ------ ---- ---- ------- ----- -- ----<br>-------- ------- -- ---------- --- - --- ----- ----- ----<br>---- --- --- ----- --- ---- ---- ------- ----- ---- whether<br>--- --- -- ----- -- --- ---- -- --- ---- -- ------ ------<br>--- ----- -- ----,133763.39999997616,133763,133466.004,133467,133472.672,133776.245,,38,whether
screen,html.Screen,2_1_0_1_39,2022-02-01T16:12:36.207Z,,,,,,,,,,,,,,,,,53,,,,,,,,,,,,,,327.5550000119256,,response,,,,99,,,,,,,Space,keypress(Space),,,,,,,,---- -- ----- -- ------ - ------- --- ----------<br>------------- ------ ------ ---- ---- ------- ----- -- ----<br>-------- ------- -- ---------- --- - --- ----- ----- ----<br>---- --- --- ----- --- ---- ---- ------- ----- ---- -------<br>you --- -- ----- -- --- ---- -- --- ---- -- ------ ------<br>--- ----- -- ----,134104.10000002384,134103.80000001192,133757.365,133763.60000002384,133776.245,134111.32,,39,you
screen,html.Screen,2_1_0_1_40,2022-02-01T16:12:36.542Z,,,,,,,,,,,,,,,,,53,,,,,,,,,,,,,,327.57999997615116,,response,,,,99,,,,,,,Space,keypress(Space),,,,,,,,---- -- ----- -- ------ - ------- --- ----------<br>------------- ------ ------ ---- ---- ------- ----- -- ----<br>-------- ------- -- ---------- --- - --- ----- ----- ----<br>---- --- --- ----- --- ---- ---- ------- ----- ---- -------<br>--- are -- ----- -- --- ---- -- --- ---- -- ------ ------<br>--- ----- -- ----,134439.30000001192,134438.89999997616,134097.661,134104.19999998808,134111.32,134444.464,,40,are
screen,html.Screen,2_1_0_1_41,2022-02-01T16:12:36.834Z,,,,,,,,,,,,,,,,,53,,,,,,,,,,,,,,286.3360000119137,,response,,,,99,,,,,,,Space,keypress(Space),,,,,,,,---- -- ----- -- ------ - ------- --- ----------<br>------------- ------ ------ ---- ---- ------- ----- -- ----<br>-------- ------- -- ---------- --- - --- ----- ----- ----<br>---- --- --- ----- --- ---- ---- ------- ----- ---- -------<br>--- --- as ----- -- --- ---- -- --- ---- -- ------ ------<br>--- ----- -- ----,134731.19999998808,134730.80000001192,134437.884,134439.5,134444.464,134735.99,,41,as
screen,html.Screen,2_1_0_1_42,2022-02-01T16:12:37.254Z,,,,,,,,,,,,,,,,,53,,,,,,,,,,,,,,415.40999997616746,,response,,,,99,,,,,,,Space,keypress(Space),,,,,,,,---- -- ----- -- ------ - ------- --- ----------<br>------------- ------ ------ ---- ---- ------- ----- -- ----<br>-------- ------- -- ---------- --- - --- ----- ----- ----<br>---- --- --- ----- --- ---- ---- ------- ----- ---- -------<br>--- --- -- close -- --- ---- -- --- ---- -- ------ ------<br>--- ----- -- ----,135151.69999998808,135151.39999997616,134729.2,134731.30000001192,134735.99,135160.284,,42,close
screen,html.Screen,2_1_0_1_43,2022-02-01T16:12:37.570Z,,,,,,,,,,,,,,,,,53,,,,,,,,,,,,,,306.91599998806487,,response,,,,99,,,,,,,Space,keypress(Space),,,,,,,,---- -- ----- -- ------ - ------- --- ----------<br>------------- ------ ------ ---- ---- ------- ----- -- ----<br>-------- ------- -- ---------- --- - --- ----- ----- ----<br>---- --- --- ----- --- ---- ---- ------- ----- ---- -------<br>--- --- -- ----- as --- ---- -- --- ---- -- ------ ------<br>--- ----- -- ----,135467.60000002384,135467.19999998808,135145.643,135151.80000001192,135160.284,135471.722,,43,as
screen,html.Screen,2_1_0_1_44,2022-02-01T16:12:37.902Z,,,,,,,,,,,,,,,,,53,,,,,,,,,,,,,,327.6779999761493,,response,,,,99,,,,,,,Space,keypress(Space),,,,,,,,---- -- ----- -- ------ - ------- --- ----------<br>------------- ------ ------ ---- ---- ------- ----- -- ----<br>-------- ------- -- ---------- --- - --- ----- ----- ----<br>---- --- --- ----- --- ---- ---- ------- ----- ---- -------<br>--- --- -- ----- -- you ---- -- --- ---- -- ------ ------<br>--- ----- -- ----,135799.80000001192,135799.39999997616,135464.984,135467.69999998808,135471.722,135804.929,,44,you
screen,html.Screen,2_1_0_1_45,2022-02-01T16:12:38.222Z,,,,,,,,,,,,,,,,,53,,,,,,,,,,,,,,314.17100002383813,,response,,,,99,,,,,,,Space,keypress(Space),,,,,,,,---- -- ----- -- ------ - ------- --- ----------<br>------------- ------ ------ ---- ---- ------- ----- -- ----<br>-------- ------- -- ---------- --- - --- ----- ----- ----<br>---- --- --- ----- --- ---- ---- ------- ----- ---- -------<br>--- --- -- ----- -- --- want -- --- ---- -- ------ ------<br>--- ----- -- ----,136119.5,136119.10000002384,135798.175,135799.89999997616,135804.929,136124.187,,45,want
screen,html.Screen,2_1_0_1_46,2022-02-01T16:12:38.634Z,,,,,,,,,,,,,,,,,53,,,,,,,,,,,,,,407.1130000119156,,response,,,,99,,,,,,,Space,keypress(Space),,,,,,,,---- -- ----- -- ------ - ------- --- ----------<br>------------- ------ ------ ---- ---- ------- ----- -- ----<br>-------- ------- -- ---------- --- - --- ----- ----- ----<br>---- --- --- ----- --- ---- ---- ------- ----- ---- -------<br>--- --- -- ----- -- --- ---- to --- ---- -- ------ ------<br>--- ----- -- ----,136531.69999998808,136531.30000001192,136117.416,136119.60000002384,136124.187,136533.733,,46,to
screen,html.Screen,2_1_0_1_47,2022-02-01T16:12:39.022Z,,,,,,,,,,,,,,,,,53,,,,,,,,,,,,,,385.0670000119135,,response,,,,99,,,,,,,Space,keypress(Space),,,,,,,,"---- -- ----- -- ------ - ------- --- ----------<br>------------- ------ ------ ---- ---- ------- ----- -- ----<br>-------- ------- -- ---------- --- - --- ----- ----- ----<br>---- --- --- ----- --- ---- ---- ------- ----- ---- -------<br>--- --- -- ----- -- --- ---- -- be, ---- -- ------ ------<br>--- ----- -- ----",136919.19999998808,136918.80000001192,136526.969,136531.80000001192,136533.733,136922.47,,47,"be,"
screen,html.Screen,2_1_0_1_48,2022-02-01T16:12:39.354Z,,,,,,,,,,,,,,,,,53,,,,,,,,,,,,,,328.7299999880779,,response,,,,99,,,,,,,Space,keypress(Space),,,,,,,,---- -- ----- -- ------ - ------- --- ----------<br>------------- ------ ------ ---- ---- ------- ----- -- ----<br>-------- ------- -- ---------- --- - --- ----- ----- ----<br>---- --- --- ----- --- ---- ---- ------- ----- ---- -------<br>--- --- -- ----- -- --- ---- -- --- even -- ------ ------<br>--- ----- -- ----,137251.60000002384,137251.19999998808,136915.73,136919.19999998808,136922.47,137255.65,,48,even
screen,html.Screen,2_1_0_1_49,2022-02-01T16:12:39.730Z,,,,,,,,,,,,,,,,,53,,,,,,,,,,,,,,371.5499999880849,,response,,,,99,,,,,,,Space,keypress(Space),,,,,,,,---- -- ----- -- ------ - ------- --- ----------<br>------------- ------ ------ ---- ---- ------- ----- -- ----<br>-------- ------- -- ---------- --- - --- ----- ----- ----<br>---- --- --- ----- --- ---- ---- ------- ----- ---- -------<br>--- --- -- ----- -- --- ---- -- --- ---- if ------ ------<br>--- ----- -- ----,137627.69999998808,137627.19999998808,137248.831,137251.69999998808,137255.65,137630.476,,49,if
screen,html.Screen,2_1_0_1_50,2022-02-01T16:12:40.094Z,,,,,,,,,,,,,,,,,53,,,,,,,,,,,,,,360.5240000000049,,response,,,,99,,,,,,,Space,keypress(Space),,,,,,,,---- -- ----- -- ------ - ------- --- ----------<br>------------- ------ ------ ---- ---- ------- ----- -- ----<br>-------- ------- -- ---------- --- - --- ----- ----- ----<br>---- --- --- ----- --- ---- ---- ------- ----- ---- -------<br>--- --- -- ----- -- --- ---- -- --- ---- -- that's ------<br>--- ----- -- ----,137991.39999997616,137991,137623.849,137627.80000001192,137630.476,137998.361,,50,that's
screen,html.Screen,2_1_0_1_51,2022-02-01T16:12:40.534Z,,,,,,,,,,,,,,,,,53,,,,,,,,,,,,,,433.23900002383743,,response,,,,99,,,,,,,Space,keypress(Space),,,,,,,,---- -- ----- -- ------ - ------- --- ----------<br>------------- ------ ------ ---- ---- ------- ----- -- ----<br>-------- ------- -- ---------- --- - --- ----- ----- ----<br>---- --- --- ----- --- ---- ---- ------- ----- ---- -------<br>--- --- -- ----- -- --- ---- -- --- ---- -- ------ really<br>--- ----- -- ----,138431.80000001192,138431.60000002384,137991.556,137991.5,137998.361,138435.589,,51,really
screen,html.Screen,2_1_0_1_52,2022-02-01T16:12:40.890Z,,,,,,,,,,,,,,,,,53,,,,,,,,,,,,,,351.61099998807185,,response,,,,99,,,,,,,Space,keypress(Space),,,,,,,,---- -- ----- -- ------ - ------- --- ----------<br>------------- ------ ------ ---- ---- ------- ----- -- ----<br>-------- ------- -- ---------- --- - --- ----- ----- ----<br>---- --- --- ----- --- ---- ---- ------- ----- ---- -------<br>--- --- -- ----- -- --- ---- -- --- ---- -- ------ ------<br>not ----- -- ----,138787.5,138787.19999998808,138429.069,138431.89999997616,138435.589,138789.625,,52,not
screen,html.Screen,2_1_0_1_53,2022-02-01T16:12:41.250Z,,,,,,,,,,,,,,,,,53,,,,,,,,,,,,,,357.67500001192093,,response,,,,99,,,,,,,Space,keypress(Space),,,,,,,,---- -- ----- -- ------ - ------- --- ----------<br>------------- ------ ------ ---- ---- ------- ----- -- ----<br>-------- ------- -- ---------- --- - --- ----- ----- ----<br>---- --- --- ----- --- ---- ---- ------- ----- ---- -------<br>--- --- -- ----- -- --- ---- -- --- ---- -- ------ ------<br>--- close -- ----,139147.60000002384,139147.30000001192,138782.904,138787.60000002384,138789.625,139150.546,,53,close
screen,html.Screen,2_1_0_1_54,2022-02-01T16:12:41.658Z,,,,,,,,,,,,,,,,,53,,,,,,,,,,,,,,404.153999988077,,response,,,,99,,,,,,,Space,keypress(Space),,,,,,,,---- -- ----- -- ------ - ------- --- ----------<br>------------- ------ ------ ---- ---- ------- ----- -- ----<br>-------- ------- -- ---------- --- - --- ----- ----- ----<br>---- --- --- ----- --- ---- ---- ------- ----- ---- -------<br>--- --- -- ----- -- --- ---- -- --- ---- -- ------ ------<br>--- ----- at ----,139555.10000002384,139554.69999998808,139143.854,139147.80000001192,139150.546,139560.096,,54,at
screen,html.Screen,2_1_0_1_55,2022-02-01T16:12:42.038Z,,,,,,,,,,,,,,,,,53,,,,,,,,,,,,,,375.5040000238514,,response,,,,99,,,,,,,Space,keypress(Space),,,,,,,,---- -- ----- -- ------ - ------- --- ----------<br>------------- ------ ------ ---- ---- ------- ----- -- ----<br>-------- ------- -- ---------- --- - --- ----- ----- ----<br>---- --- --- ----- --- ---- ---- ------- ----- ---- -------<br>--- --- -- ----- -- --- ---- -- --- ---- -- ------ ------<br>--- ----- -- all.,139936,139935.60000002384,139553.332,139555.19999998808,139560.096,139941.863,,55,all.
Item 99,flow.Loop,2_1_0_1,2022-02-01T16:12:42.039Z,,,,,,,,,,,,,,,,,,,,,,,,,,,,,,,21393.265000023835,,completion,,,,,A,,,,,,,,,,,silence,,,,,139936.10000002384,139935.60000002384,118528.667,118529.19999998808,118542.335,139941.863,,,
Question 1,html.Screen,2_1_0_2,2022-02-01T16:12:46.611Z,,,,,,,,,,,,,,,,,,,,,,,,,,,,true,FALSE,,4565.536999976146,,response,,,,99,A,,,,,,FALSE,click #choice-2,,,,silence,,,,,144508.10000002384,144507.39999997616,139935.101,139936.30000001192,139941.863,144509.161,,,
Question 2,html.Screen,2_1_0_3,2022-02-01T16:12:54.823Z,,,,,,,,,,,,,,,,,,,,,,,,,,,,true,TRUE,,8211.139000011928,,response,,,,99,A,,,,,,TRUE,click #choice-1,,,,silence,,,,,152720.89999997616,152720.30000001192,144502.196,144508.19999998808,144509.161,152727.459,,,
Item 99,flow.Sequence,2_1_0,2022-02-01T16:12:54.824Z,,,,,,,,,,,,,,,,,,,,,,,,,,,,,,,44187.162000011915,,completion,,,,,,,,,,,,,,,,,,,,,152721,152720.30000001192,108526.191,108531.5,108533.138,152727.459,,,
Holding screen,html.Screen,2_1_1_0,2022-02-01T16:13:04.826Z,,,,,,,,,,,,,,,,,,,,,,,,,,,,,,,10002.277999999991,,timeout,,,,,,,,,,,,,,,,,,,,,162723.30000001192,162722.915,152720.526,152721.19999998808,152727.459,162729.737,,,
screen,html.Screen,2_1_1_1_0,2022-02-01T16:13:05.754Z,,,,,,,,,,,,,,,,,54,,,,,,,,,,,,,,921.7630000000063,,response,,,,100,,,,,,,Space,keypress(Space),,,,,,,,At --- ---- --- ------ ----- ------- ---- -- --- ------- --<br>------- ---------- ------ -- ----- -- ----- -- ---- ------<br>--- ----- --- --- ------ -------- ----- --- ------ ----- --<br>----- ----- ---------- --- --- ------ ------ ---- -- ------<br>------- --- ------ ----- --- ---- ------- -- ---- --- --<br>------- ------,163651.89999997616,163651.5,162722.915,162723.5,162729.737,163669.845,,0,At
screen,html.Screen,2_1_1_1_1,2022-02-01T16:13:06.067Z,,,,,,,,,,,,,,,,,54,,,,,,,,,,,,,,293.8549999880779,,response,,,,100,,,,,,,Space,keypress(Space),,,,,,,,-- the ---- --- ------ ----- ------- ---- -- --- ------- --<br>------- ---------- ------ -- ----- -- ----- -- ---- ------<br>--- ----- --- --- ------ -------- ----- --- ------ ----- --<br>----- ----- ---------- --- --- ------ ------ ---- -- ------<br>------- --- ------ ----- --- ---- ------- -- ---- --- --<br>------- ------,163964.10000002384,163963.69999998808,163646.468,163651.89999997616,163669.845,163977.777,,1,the
screen,html.Screen,2_1_1_1_2,2022-02-01T16:13:06.418Z,,,,,,,,,,,,,,,,,54,,,,,,,,,,,,,,337.4229999880772,,response,,,,100,,,,,,,Space,keypress(Space),,,,,,,,-- --- time --- ------ ----- ------- ---- -- --- ------- --<br>------- ---------- ------ -- ----- -- ----- -- ---- ------<br>--- ----- --- --- ------ -------- ----- --- ------ ----- --<br>----- ----- ---------- --- --- ------ ------ ---- -- ------<br>------- --- ------ ----- --- ---- ------- -- ---- --- --<br>------- ------,164315.60000002384,164315.19999998808,163958.639,163964.10000002384,163977.777,164319.17,,2,time
screen,html.Screen,2_1_1_1_3,2022-02-01T16:13:06.746Z,,,,,,,,,,,,,,,,,54,,,,,,,,,,,,,,323.93000002382905,,response,,,,100,,,,,,,Space,keypress(Space),,,,,,,,-- --- ---- the ------ ----- ------- ---- -- --- ------- --<br>------- ---------- ------ -- ----- -- ----- -- ---- ------<br>--- ----- --- --- ------ -------- ----- --- ------ ----- --<br>----- ----- ---------- --- --- ------ ------ ---- -- ------<br>------- --- ------ ----- --- ---- ------- -- ---- --- --<br>------- ------,164643.39999997616,164643.10000002384,164312.596,164315.69999998808,164319.17,164645.411,,3,the
screen,html.Screen,2_1_1_1_4,2022-02-01T16:13:07.114Z,,,,,,,,,,,,,,,,,54,,,,,,,,,,,,,,365.98899997616536,,response,,,,100,,,,,,,Space,keypress(Space),,,,,,,,-- --- ---- --- French ----- ------- ---- -- --- ------- --<br>------- ---------- ------ -- ----- -- ----- -- ---- ------<br>--- ----- --- --- ------ -------- ----- --- ------ ----- --<br>----- ----- ---------- --- --- ------ ------ ---- -- ------<br>------- --- ------ ----- --- ---- ------- -- ---- --- --<br>------- ------,165011.69999998808,165011.39999997616,164638.71,164643.5,164645.411,165013.282,,4,French
screen,html.Screen,2_1_1_1_5,2022-02-01T16:13:07.462Z,,,,,,,,,,,,,,,,,54,,,,,,,,,,,,,,346.0180000119144,,response,,,,100,,,,,,,Space,keypress(Space),,,,,,,,-- --- ---- --- ------ crown ------- ---- -- --- ------- --<br>------- ---------- ------ -- ----- -- ----- -- ---- ------<br>--- ----- --- --- ------ -------- ----- --- ------ ----- --<br>----- ----- ---------- --- --- ------ ------ ---- -- ------<br>------- --- ------ ----- --- ---- ------- -- ---- --- --<br>------- ------,165359.69999998808,165359.30000001192,165006.599,165011.80000001192,165013.282,165378.561,,5,crown
screen,html.Screen,2_1_1_1_6,2022-02-01T16:13:07.859Z,,,,,,,,,,,,,,,,,54,,,,,,,,,,,,,,377.0390000238549,,response,,,,100,,,,,,,Space,keypress(Space),,,,,,,,-- --- ---- --- ------ ----- secured ---- -- --- ------- --<br>------- ---------- ------ -- ----- -- ----- -- ---- ------<br>--- ----- --- --- ------ -------- ----- --- ------ ----- --<br>----- ----- ---------- --- --- ------ ------ ---- -- ------<br>------- --- ------ ----- --- ---- ------- -- ---- --- --<br>------- ------,165756,165755.60000002384,165353.696,165359.80000001192,165378.561,165762.982,,6,secured
screen,html.Screen,2_1_1_1_7,2022-02-01T16:13:08.226Z,,,,,,,,,,,,,,,,,54,,,,,,,,,,,,,,360.3180000119319,,response,,,,100,,,,,,,Space,keypress(Space),,,,,,,,-- --- ---- --- ------ ----- ------- much -- --- ------- --<br>------- ---------- ------ -- ----- -- ----- -- ---- ------<br>--- ----- --- --- ------ -------- ----- --- ------ ----- --<br>----- ----- ---------- --- --- ------ ------ ---- -- ------<br>------- --- ------ ----- --- ---- ------- -- ---- --- --<br>------- ------,166123.69999998808,166123.30000001192,165749.488,165756.10000002384,165762.982,166137.866,,7,much
screen,html.Screen,2_1_1_1_8,2022-02-01T16:13:08.594Z,,,,,,,,,,,,,,,,,54,,,,,,,,,,,,,,353.33399998807,,response,,,,100,,,,,,,Space,keypress(Space),,,,,,,,-- --- ---- --- ------ ----- ------- ---- of --- ------- --<br>------- ---------- ------ -- ----- -- ----- -- ---- ------<br>--- ----- --- --- ------ -------- ----- --- ------ ----- --<br>----- ----- ---------- --- --- ------ ------ ---- -- ------<br>------- --- ------ ----- --- ---- ------- -- ---- --- --<br>------- ------,166491.5,166491.19999998808,166130.922,166123.80000001192,166137.866,166498.784,,8,of
screen,html.Screen,2_1_1_1_9,2022-02-01T16:13:08.894Z,,,,,,,,,,,,,,,,,54,,,,,,,,,,,,,,292.31600002382766,,response,,,,100,,,,,,,Space,keypress(Space),,,,,,,,-- --- ---- --- ------ ----- ------- ---- -- its ------- --<br>------- ---------- ------ -- ----- -- ----- -- ---- ------<br>--- ----- --- --- ------ -------- ----- --- ------ ----- --<br>----- ----- ---------- --- --- ------ ------ ---- -- ------<br>------- --- ------ ----- --- ---- ------- -- ---- --- --<br>------- ------,166791.39999997616,166791.10000002384,166485.2,166491.60000002384,166498.784,166797.152,,9,its
screen,html.Screen,2_1_1_1_10,2022-02-01T16:13:09.214Z,,,,,,,,,,,,,,,,,54,,,,,,,,,,,,,,313.94800002384,,response,,,,100,,,,,,,Space,keypress(Space),,,,,,,,-- --- ---- --- ------ ----- ------- ---- -- --- revenue --<br>------- ---------- ------ -- ----- -- ----- -- ---- ------<br>--- ----- --- --- ------ -------- ----- --- ------ ----- --<br>----- ----- ---------- --- --- ------ ------ ---- -- ------<br>------- --- ------ ----- --- ---- ------- -- ---- --- --<br>------- ------,167111.39999997616,167111.10000002384,166790.418,166791.5,166797.152,167116.476,,10,revenue
screen,html.Screen,2_1_1_1_11,2022-02-01T16:13:09.554Z,,,,,,,,,,,,,,,,,54,,,,,,,,,,,,,,334.92399997616303,,response,,,,100,,,,,,,Space,keypress(Space),,,,,,,,-- --- ---- --- ------ ----- ------- ---- -- --- ------- by<br>------- ---------- ------ -- ----- -- ----- -- ---- ------<br>--- ----- --- --- ------ -------- ----- --- ------ ----- --<br>----- ----- ---------- --- --- ------ ------ ---- -- ------<br>------- --- ------ ----- --- ---- ------- -- ---- --- --<br>------- ------,167451.69999998808,167451.39999997616,167109.617,167111.39999997616,167116.476,167456.596,,11,by
screen,html.Screen,2_1_1_1_12,2022-02-01T16:13:09.898Z,,,,,,,,,,,,,,,,,54,,,,,,,,,,,,,,338.7040000119305,,response,,,,100,,,,,,,Space,keypress(Space),,,,,,,,-- --- ---- --- ------ ----- ------- ---- -- --- ------- --<br>issuing ---------- ------ -- ----- -- ----- -- ---- ------<br>--- ----- --- --- ------ -------- ----- --- ------ ----- --<br>----- ----- ---------- --- --- ------ ------ ---- -- ------<br>------- --- ------ ----- --- ---- ------- -- ---- --- --<br>------- ------,167795.69999998808,167795.30000001192,167450.057,167451.80000001192,167456.596,167808.73,,12,issuing
screen,html.Screen,2_1_1_1_13,2022-02-01T16:13:10.250Z,,,,,,,,,,,,,,,,,54,,,,,,,,,,,,,,338.2699999999895,,response,,,,100,,,,,,,Space,keypress(Space),,,,,,,,-- --- ---- --- ------ ----- ------- ---- -- --- ------- --<br>------- government ------ -- ----- -- ----- -- ---- ------<br>--- ----- --- --- ------ -------- ----- --- ------ ----- --<br>----- ----- ---------- --- --- ------ ------ ---- -- ------<br>------- --- ------ ----- --- ---- ------- -- ---- --- --<br>------- ------,168147.30000001192,168147,167789.95,167795.80000001192,167808.73,168150.72,,13,government
screen,html.Screen,2_1_1_1_14,2022-02-01T16:13:10.658Z,,,,,,,,,,,,,,,,,54,,,,,,,,,,,,,,404.27999999999884,,response,,,,100,,,,,,,Space,keypress(Space),,,,,,,,-- --- ---- --- ------ ----- ------- ---- -- --- ------- --<br>------- ---------- bonds. -- ----- -- ----- -- ---- ------<br>--- ----- --- --- ------ -------- ----- --- ------ ----- --<br>----- ----- ---------- --- --- ------ ------ ---- -- ------<br>------- --- ------ ----- --- ---- ------- -- ---- --- --<br>------- ------,168555.39999997616,168555,168143.994,168147.39999997616,168150.72,168560.263,,14,bonds.
screen,html.Screen,2_1_1_1_15,2022-02-01T16:13:11.066Z,,,,,,,,,,,,,,,,,54,,,,,,,,,,,,,,403.03700001191464,,response,,,,100,,,,,,,Space,keypress(Space),,,,,,,,-- --- ---- --- ------ ----- ------- ---- -- --- ------- --<br>------- ---------- ------ In ----- -- ----- -- ---- ------<br>--- ----- --- --- ------ -------- ----- --- ------ ----- --<br>----- ----- ---------- --- --- ------ ------ ---- -- ------<br>------- --- ------ ----- --- ---- ------- -- ---- --- --<br>------- ------,168963.69999998808,168963.30000001192,168553.677,168555.5,168560.263,168969.769,,15,In
screen,html.Screen,2_1_1_1_16,2022-02-01T16:13:11.542Z,,,,,,,,,,,,,,,,,54,,,,,,,,,,,,,,469.6309999761579,,response,,,,100,,,,,,,Space,keypress(Space),,,,,,,,"-- --- ---- --- ------ ----- ------- ---- -- --- ------- --<br>------- ---------- ------ -- 1727, -- ----- -- ---- ------<br>--- ----- --- --- ------ -------- ----- --- ------ ----- --<br>----- ----- ---------- --- --- ------ ------ ---- -- ------<br>------- --- ------ ----- --- ---- ------- -- ---- --- --<br>------- ------",169439.80000001192,169439.39999997616,168963.066,168963.69999998808,168969.769,169441.738,,16,"1727,"
screen,html.Screen,2_1_1_1_17,2022-02-01T16:13:11.942Z,,,,,,,,,,,,,,,,,54,,,,,,,,,,,,,,397.2619999999879,,response,,,,100,,,,,,,Space,keypress(Space),,,,,,,,-- --- ---- --- ------ ----- ------- ---- -- --- ------- --<br>------- ---------- ------ -- ----- in ----- -- ---- ------<br>--- ----- --- --- ------ -------- ----- --- ------ ----- --<br>----- ----- ---------- --- --- ------ ------ ---- -- ------<br>------- --- ------ ----- --- ---- ------- -- ---- --- --<br>------- ------,169839.39999997616,169839,169435.062,169439.80000001192,169441.738,169844.402,,17,in
screen,html.Screen,2_1_1_1_18,2022-02-01T16:13:12.338Z,,,,,,,,,,,,,,,,,54,,,,,,,,,,,,,,390.59799999999814,,response,,,,100,,,,,,,Space,keypress(Space),,,,,,,,-- --- ---- --- ------ ----- ------- ---- -- --- ------- --<br>------- ---------- ------ -- ----- -- order -- ---- ------<br>--- ----- --- --- ------ -------- ----- --- ------ ----- --<br>----- ----- ---------- --- --- ------ ------ ---- -- ------<br>------- --- ------ ----- --- ---- ------- -- ---- --- --<br>------- ------,170235.39999997616,170235,169837.667,169839.5,169844.402,170239.963,,18,order
screen,html.Screen,2_1_1_1_19,2022-02-01T16:13:12.666Z,,,,,,,,,,,,,,,,,54,,,,,,,,,,,,,,323.3370000119321,,response,,,,100,,,,,,,Space,keypress(Space),,,,,,,,-- --- ---- --- ------ ----- ------- ---- -- --- ------- --<br>------- ---------- ------ -- ----- -- ----- to ---- ------<br>--- ----- --- --- ------ -------- ----- --- ------ ----- --<br>----- ----- ---------- --- --- ------ ------ ---- -- ------<br>------- --- ------ ----- --- ---- ------- -- ---- --- --<br>------- ------,170563.69999998808,170563.30000001192,170233.239,170235.5,170239.963,170566.211,,19,to
screen,html.Screen,2_1_1_1_20,2022-02-01T16:13:14.762Z,,,,,,,,,,,,,,,,,54,,,,,,,,,,,,,,2093.3890000238316,,response,,,,100,,,,,,,Space,keypress(Space),,,,,,,,-- --- ---- --- ------ ----- ------- ---- -- --- ------- --<br>------- ---------- ------ -- ----- -- ----- -- save ------<br>--- ----- --- --- ------ -------- ----- --- ------ ----- --<br>----- ----- ---------- --- --- ------ ------ ---- -- ------<br>------- --- ------ ----- --- ---- ------- -- ---- --- --<br>------- ------,172659.89999997616,172659.60000002384,170559.396,170563.80000001192,170566.211,172662.433,,20,save
screen,html.Screen,2_1_1_1_21,2022-02-01T16:13:15.130Z,,,,,,,,,,,,,,,,,54,,,,,,,,,,,,,,364.56700000001,,response,,,,100,,,,,,,Space,keypress(Space),,,,,,,,"-- --- ---- --- ------ ----- ------- ---- -- --- ------- --<br>------- ---------- ------ -- ----- -- ----- -- ---- money,<br>--- ----- --- --- ------ -------- ----- --- ------ ----- --<br>----- ----- ---------- --- --- ------ ------ ---- -- ------<br>------- --- ------ ----- --- ---- ------- -- ---- --- --<br>------- ------",173027.39999997616,173027,172656.42,172660,172662.433,173030.354,,21,"money,"
screen,html.Screen,2_1_1_1_22,2022-02-01T16:13:15.534Z,,,,,,,,,,,,,,,,,54,,,,,,,,,,,,,,401.1460000000079,,response,,,,100,,,,,,,Space,keypress(Space),,,,,,,,-- --- ---- --- ------ ----- ------- ---- -- --- ------- --<br>------- ---------- ------ -- ----- -- ----- -- ---- ------<br>the ----- --- --- ------ -------- ----- --- ------ ----- --<br>----- ----- ---------- --- --- ------ ------ ---- -- ------<br>------- --- ------ ----- --- ---- ------- -- ---- --- --<br>------- ------,173431.80000001192,173431.5,173023.765,173027.5,173030.354,173452.041,,22,the
screen,html.Screen,2_1_1_1_23,2022-02-01T16:13:15.915Z,,,,,,,,,,,,,,,,,54,,,,,,,,,,,,,,360.2590000119235,,response,,,,100,,,,,,,Space,keypress(Space),,,,,,,,-- --- ---- --- ------ ----- ------- ---- -- --- ------- --<br>------- ---------- ------ -- ----- -- ----- -- ---- ------<br>--- state --- --- ------ -------- ----- --- ------ ----- --<br>----- ----- ---------- --- --- ------ ------ ---- -- ------<br>------- --- ------ ----- --- ---- ------- -- ---- --- --<br>------- ------,173812.69999998808,173812.30000001192,173426.168,173431.89999997616,173452.041,173814.685,,23,state
screen,html.Screen,2_1_1_1_24,2022-02-01T16:13:16.294Z,,,,,,,,,,,,,,,,,54,,,,,,,,,,,,,,376.4150000238442,,response,,,,100,,,,,,,Space,keypress(Space),,,,,,,,-- --- ---- --- ------ ----- ------- ---- -- --- ------- --<br>------- ---------- ------ -- ----- -- ----- -- ---- ------<br>--- ----- cut --- ------ -------- ----- --- ------ ----- --<br>----- ----- ---------- --- --- ------ ------ ---- -- ------<br>------- --- ------ ----- --- ---- ------- -- ---- --- --<br>------- ------,174191.5,174191.10000002384,173808.104,173812.80000001192,173814.685,174196.535,,24,cut
screen,html.Screen,2_1_1_1_25,2022-02-01T16:13:16.642Z,,,,,,,,,,,,,,,,,54,,,,,,,,,,,,,,342.86499997615465,,response,,,,100,,,,,,,Space,keypress(Space),,,,,,,,-- --- ---- --- ------ ----- ------- ---- -- --- ------- --<br>------- ---------- ------ -- ----- -- ----- -- ---- ------<br>--- ----- --- the ------ -------- ----- --- ------ ----- --<br>----- ----- ---------- --- --- ------ ------ ---- -- ------<br>------- --- ------ ----- --- ---- ------- -- ---- --- --<br>------- ------,174539.69999998808,174539.39999997616,174189.733,174191.60000002384,174196.535,174543.489,,25,the
screen,html.Screen,2_1_1_1_26,2022-02-01T16:13:17.038Z,,,,,,,,,,,,,,,,,54,,,,,,,,,,,,,,391.81100001191953,,response,,,,100,,,,,,,Space,keypress(Space),,,,,,,,-- --- ---- --- ------ ----- ------- ---- -- --- ------- --<br>------- ---------- ------ -- ----- -- ----- -- ---- ------<br>--- ----- --- --- bonds' -------- ----- --- ------ ----- --<br>----- ----- ---------- --- --- ------ ------ ---- -- ------<br>------- --- ------ ----- --- ---- ------- -- ---- --- --<br>------- ------,174935.80000001192,174935.30000001192,174536.803,174539.80000001192,174543.489,174939.161,,26,bonds'
screen,html.Screen,2_1_1_1_27,2022-02-01T16:13:17.450Z,,,,,,,,,,,,,,,,,54,,,,,,,,,,,,,,408.0389999880863,,response,,,,100,,,,,,,Space,keypress(Space),,,,,,,,-- --- ---- --- ------ ----- ------- ---- -- --- ------- --<br>------- ---------- ------ -- ----- -- ----- -- ---- ------<br>--- ----- --- --- ------ interest ----- --- ------ ----- --<br>----- ----- ---------- --- --- ------ ------ ---- -- ------<br>------- --- ------ ----- --- ---- ------- -- ---- --- --<br>------- ------,175347.5,175347.19999998808,174932.561,174935.89999997616,174939.161,175364.961,,27,interest
screen,html.Screen,2_1_1_1_28,2022-02-01T16:13:17.802Z,,,,,,,,,,,,,,,,,54,,,,,,,,,,,,,,334.3390000119107,,response,,,,100,,,,,,,Space,keypress(Space),,,,,,,,-- --- ---- --- ------ ----- ------- ---- -- --- ------- --<br>------- ---------- ------ -- ----- -- ----- -- ---- ------<br>--- ----- --- --- ------ -------- rate. --- ------ ----- --<br>----- ----- ---------- --- --- ------ ------ ---- -- ------<br>------- --- ------ ----- --- ---- ------- -- ---- --- --<br>------- ------,175699.69999998808,175699.30000001192,175341.986,175347.60000002384,175364.961,175702.71,,28,rate.
screen,html.Screen,2_1_1_1_29,2022-02-01T16:13:18.154Z,,,,,,,,,,,,,,,,,54,,,,,,,,,,,,,,348.4899999880872,,response,,,,100,,,,,,,Space,keypress(Space),,,,,,,,-- --- ---- --- ------ ----- ------- ---- -- --- ------- --<br>------- ---------- ------ -- ----- -- ----- -- ---- ------<br>--- ----- --- --- ------ -------- ----- The ------ ----- --<br>----- ----- ---------- --- --- ------ ------ ---- -- ------<br>------- --- ------ ----- --- ---- ------- -- ---- --- --<br>------- ------,176051.60000002384,176051.19999998808,175696.094,175699.80000001192,175702.71,176056.68,,29,The
screen,html.Screen,2_1_1_1_30,2022-02-01T16:13:18.574Z,,,,,,,,,,,,,,,,,54,,,,,,,,,,,,,,414.820000000007,,response,,,,100,,,,,,,Space,keypress(Space),,,,,,,,-- --- ---- --- ------ ----- ------- ---- -- --- ------- --<br>------- ---------- ------ -- ----- -- ----- -- ---- ------<br>--- ----- --- --- ------ -------- ----- --- market ----- --<br>----- ----- ---------- --- --- ------ ------ ---- -- ------<br>------- --- ------ ----- --- ---- ------- -- ---- --- --<br>------- ------,176471.80000001192,176471.5,176049.925,176051.69999998808,176056.68,176485.851,,30,market
screen,html.Screen,2_1_1_1_31,2022-02-01T16:13:18.938Z,,,,,,,,,,,,,,,,,54,,,,,,,,,,,,,,349.24900002384675,,response,,,,100,,,,,,,Space,keypress(Space),,,,,,,,-- --- ---- --- ------ ----- ------- ---- -- --- ------- --<br>------- ---------- ------ -- ----- -- ----- -- ---- ------<br>--- ----- --- --- ------ -------- ----- --- ------ value --<br>----- ----- ---------- --- --- ------ ------ ---- -- ------<br>------- --- ------ ----- --- ---- ------- -- ---- --- --<br>------- ------,176835.39999997616,176835.10000002384,176466.571,176471.89999997616,176485.851,176841.023,,31,value
screen,html.Screen,2_1_1_1_32,2022-02-01T16:13:19.310Z,,,,,,,,,,,,,,,,,54,,,,,,,,,,,,,,366.07700002385536,,response,,,,100,,,,,,,Space,keypress(Space),,,,,,,,-- --- ---- --- ------ ----- ------- ---- -- --- ------- --<br>------- ---------- ------ -- ----- -- ----- -- ---- ------<br>--- ----- --- --- ------ -------- ----- --- ------ ----- of<br>----- ----- ---------- --- --- ------ ------ ---- -- ------<br>------- --- ------ ----- --- ---- ------- -- ---- --- --<br>------- ------,177207.39999997616,177207.10000002384,176834.275,176835.5,176841.023,177208.923,,32,of
screen,html.Screen,2_1_1_1_33,2022-02-01T16:13:19.590Z,,,,,,,,,,,,,,,,,54,,,,,,,,,,,,,,278.47699997614836,,response,,,,100,,,,,,,Space,keypress(Space),,,,,,,,-- --- ---- --- ------ ----- ------- ---- -- --- ------- --<br>------- ---------- ------ -- ----- -- ----- -- ---- ------<br>--- ----- --- --- ------ -------- ----- --- ------ ----- --<br>these ----- ---------- --- --- ------ ------ ---- -- ------<br>------- --- ------ ----- --- ---- ------- -- ---- --- --<br>------- ------,177487.80000001192,177487.39999997616,177202.116,177207.5,177208.923,177493.569,,33,these
screen,html.Screen,2_1_1_1_34,2022-02-01T16:13:19.922Z,,,,,,,,,,,,,,,,,54,,,,,,,,,,,,,,325.53100002385327,,response,,,,100,,,,,,,Space,keypress(Space),,,,,,,,-- --- ---- --- ------ ----- ------- ---- -- --- ------- --<br>------- ---------- ------ -- ----- -- ----- -- ---- ------<br>--- ----- --- --- ------ -------- ----- --- ------ ----- --<br>----- bonds ---------- --- --- ------ ------ ---- -- ------<br>------- --- ------ ----- --- ---- ------- -- ---- --- --<br>------- ------,177819.5,177819.10000002384,177486.861,177487.89999997616,177493.569,177840.233,,34,bonds
screen,html.Screen,2_1_1_1_35,2022-02-01T16:13:20.202Z,,,,,,,,,,,,,,,,,54,,,,,,,,,,,,,,258.9669999880716,,response,,,,100,,,,,,,Space,keypress(Space),,,,,,,,"-- --- ---- --- ------ ----- ------- ---- -- --- ------- --<br>------- ---------- ------ -- ----- -- ----- -- ---- ------<br>--- ----- --- --- ------ -------- ----- --- ------ ----- --<br>----- ----- plummeted, --- --- ------ ------ ---- -- ------<br>------- --- ------ ----- --- ---- ------- -- ---- --- --<br>------- ------",178099.60000002384,178099.19999998808,177812.991,177819.5,177840.233,178104.326,,35,"plummeted,"
screen,html.Screen,2_1_1_1_36,2022-02-01T16:13:20.582Z,,,,,,,,,,,,,,,,,54,,,,,,,,,,,,,,374.67399999999907,,response,,,,100,,,,,,,Space,keypress(Space),,,,,,,,-- --- ---- --- ------ ----- ------- ---- -- --- ------- --<br>------- ---------- ------ -- ----- -- ----- -- ---- ------<br>--- ----- --- --- ------ -------- ----- --- ------ ----- --<br>----- ----- ---------- and --- ------ ------ ---- -- ------<br>------- --- ------ ----- --- ---- ------- -- ---- --- --<br>------- ------,178479.30000001192,178479,178097.508,178099.69999998808,178104.326,178486.092,,36,and
screen,html.Screen,2_1_1_1_37,2022-02-01T16:13:20.946Z,,,,,,,,,,,,,,,,,54,,,,,,,,,,,,,,357.20800001191674,,response,,,,100,,,,,,,Space,keypress(Space),,,,,,,,-- --- ---- --- ------ ----- ------- ---- -- --- ------- --<br>------- ---------- ------ -- ----- -- ----- -- ---- ------<br>--- ----- --- --- ------ -------- ----- --- ------ ----- --<br>----- ----- ---------- --- the ------ ------ ---- -- ------<br>------- --- ------ ----- --- ---- ------- -- ---- --- --<br>------- ------,178843.60000002384,178843.30000001192,178479.325,178479.39999997616,178486.092,178847.059,,37,the
screen,html.Screen,2_1_1_1_38,2022-02-01T16:13:21.274Z,,,,,,,,,,,,,,,,,54,,,,,,,,,,,,,,324.34099997614976,,response,,,,100,,,,,,,Space,keypress(Space),,,,,,,,-- --- ---- --- ------ ----- ------- ---- -- --- ------- --<br>------- ---------- ------ -- ----- -- ----- -- ---- ------<br>--- ----- --- --- ------ -------- ----- --- ------ ----- --<br>----- ----- ---------- --- --- market ------ ---- -- ------<br>------- --- ------ ----- --- ---- ------- -- ---- --- --<br>------- ------,179171.69999998808,179171.39999997616,178840.392,178843.80000001192,178847.059,179173.266,,38,market
screen,html.Screen,2_1_1_1_39,2022-02-01T16:13:21.634Z,,,,,,,,,,,,,,,,,54,,,,,,,,,,,,,,358.1339999761549,,response,,,,100,,,,,,,Space,keypress(Space),,,,,,,,-- --- ---- --- ------ ----- ------- ---- -- --- ------- --<br>------- ---------- ------ -- ----- -- ----- -- ---- ------<br>--- ----- --- --- ------ -------- ----- --- ------ ----- --<br>----- ----- ---------- --- --- ------ became ---- -- ------<br>------- --- ------ ----- --- ---- ------- -- ---- --- --<br>------- ------,179531.80000001192,179531.39999997616,179166.48,179171.80000001192,179173.266,179534.237,,39,became
screen,html.Screen,2_1_1_1_40,2022-02-01T16:13:21.962Z,,,,,,,,,,,,,,,,,54,,,,,,,,,,,,,,324.7630000000063,,response,,,,100,,,,,,,Space,keypress(Space),,,,,,,,-- --- ---- --- ------ ----- ------- ---- -- --- ------- --<br>------- ---------- ------ -- ----- -- ----- -- ---- ------<br>--- ----- --- --- ------ -------- ----- --- ------ ----- --<br>----- ----- ---------- --- --- ------ ------ wary -- ------<br>------- --- ------ ----- --- ---- ------- -- ---- --- --<br>------- ------,179859.30000001192,179859,179527.6,179531.80000001192,179534.237,179868.454,,40,wary
screen,html.Screen,2_1_1_1_41,2022-02-01T16:13:22.286Z,,,,,,,,,,,,,,,,,54,,,,,,,,,,,,,,314.74599998808117,,response,,,,100,,,,,,,Space,keypress(Space),,,,,,,,-- --- ---- --- ------ ----- ------- ---- -- --- ------- --<br>------- ---------- ------ -- ----- -- ----- -- ---- ------<br>--- ----- --- --- ------ -------- ----- --- ------ ----- --<br>----- ----- ---------- --- --- ------ ------ ---- of ------<br>------- --- ------ ----- --- ---- ------- -- ---- --- --<br>------- ------,180183.5,180183.19999998808,179853.879,179859.39999997616,179868.454,180186.701,,41,of
screen,html.Screen,2_1_1_1_42,2022-02-01T16:13:22.634Z,,,,,,,,,,,,,,,,,54,,,,,,,,,,,,,,344.29899999999907,,response,,,,100,,,,,,,Space,keypress(Space),,,,,,,,-- --- ---- --- ------ ----- ------- ---- -- --- ------- --<br>------- ---------- ------ -- ----- -- ----- -- ---- ------<br>--- ----- --- --- ------ -------- ----- --- ------ ----- --<br>----- ----- ---------- --- --- ------ ------ ---- -- French<br>------- --- ------ ----- --- ---- ------- -- ---- --- --<br>------- ------,180531.30000001192,180531,180180.179,180183.60000002384,180186.701,180533.698,,42,French
screen,html.Screen,2_1_1_1_43,2022-02-01T16:13:23.026Z,,,,,,,,,,,,,,,,,54,,,,,,,,,,,,,,389.60200001191697,,response,,,,100,,,,,,,Space,keypress(Space),,,,,,,,-- --- ---- --- ------ ----- ------- ---- -- --- ------- --<br>------- ---------- ------ -- ----- -- ----- -- ---- ------<br>--- ----- --- --- ------ -------- ----- --- ------ ----- --<br>----- ----- ---------- --- --- ------ ------ ---- -- ------<br>credit. --- ------ ----- --- ---- ------- -- ---- --- --<br>------- ------,180923.60000002384,180923.30000001192,180527.142,180531.39999997616,180533.698,180929.446,,43,credit.
screen,html.Screen,2_1_1_1_44,2022-02-01T16:13:23.498Z,,,,,,,,,,,,,,,,,54,,,,,,,,,,,,,,465.85400001192465,,response,,,,100,,,,,,,Space,keypress(Space),,,,,,,,-- --- ---- --- ------ ----- ------- ---- -- --- ------- --<br>------- ---------- ------ -- ----- -- ----- -- ---- ------<br>--- ----- --- --- ------ -------- ----- --- ------ ----- --<br>----- ----- ---------- --- --- ------ ------ ---- -- ------<br>------- The ------ ----- --- ---- ------- -- ---- --- --<br>------- ------,181395.60000002384,181395.30000001192,180922.796,180923.69999998808,180929.446,181401.393,,44,The
screen,html.Screen,2_1_1_1_45,2022-02-01T16:13:24.162Z,,,,,,,,,,,,,,,,,54,,,,,,,,,,,,,,657.90700001191,,response,,,,100,,,,,,,Space,keypress(Space),,,,,,,,-- --- ---- --- ------ ----- ------- ---- -- --- ------- --<br>------- ---------- ------ -- ----- -- ----- -- ---- ------<br>--- ----- --- --- ------ -------- ----- --- ------ ----- --<br>----- ----- ---------- --- --- ------ ------ ---- -- ------<br>------- --- French ----- --- ---- ------- -- ---- --- --<br>------- ------,182059.80000001192,182059.30000001192,181394.817,181395.69999998808,181401.393,182077.118,,45,French
screen,html.Screen,2_1_1_1_46,2022-02-01T16:13:24.570Z,,,,,,,,,,,,,,,,,54,,,,,,,,,,,,,,390.18200001193327,,response,,,,100,,,,,,,Space,keypress(Space),,,,,,,,-- --- ---- --- ------ ----- ------- ---- -- --- ------- --<br>------- ---------- ------ -- ----- -- ----- -- ---- ------<br>--- ----- --- --- ------ -------- ----- --- ------ ----- --<br>----- ----- ---------- --- --- ------ ------ ---- -- ------<br>------- --- ------ state --- ---- ------- -- ---- --- --<br>------- ------,182467.69999998808,182467.30000001192,182054.161,182059.80000001192,182077.118,182470.354,,46,state
screen,html.Screen,2_1_1_1_47,2022-02-01T16:13:24.934Z,,,,,,,,,,,,,,,,,54,,,,,,,,,,,,,,361.04599997616606,,response,,,,100,,,,,,,Space,keypress(Space),,,,,,,,-- --- ---- --- ------ ----- ------- ---- -- --- ------- --<br>------- ---------- ------ -- ----- -- ----- -- ---- ------<br>--- ----- --- --- ------ -------- ----- --- ------ ----- --<br>----- ----- ---------- --- --- ------ ------ ---- -- ------<br>------- --- ------ ----- was ---- ------- -- ---- --- --<br>------- ------,182831.69999998808,182831.39999997616,182463.616,182467.80000001192,182470.354,182838.195,,47,was
screen,html.Screen,2_1_1_1_48,2022-02-01T16:13:25.390Z,,,,,,,,,,,,,,,,,54,,,,,,,,,,,,,,449.0049999880721,,response,,,,100,,,,,,,Space,keypress(Space),,,,,,,,-- --- ---- --- ------ ----- ------- ---- -- --- ------- --<br>------- ---------- ------ -- ----- -- ----- -- ---- ------<br>--- ----- --- --- ------ -------- ----- --- ------ ----- --<br>----- ----- ---------- --- --- ------ ------ ---- -- ------<br>------- --- ------ ----- --- left ------- -- ---- --- --<br>------- ------,183287.60000002384,183287.19999998808,182831.416,182831.80000001192,182838.195,183289.389,,48,left
screen,html.Screen,2_1_1_1_49,2022-02-01T16:13:25.714Z,,,,,,,,,,,,,,,,,54,,,,,,,,,,,,,,322.01099997616257,,response,,,,100,,,,,,,Space,keypress(Space),,,,,,,,-- --- ---- --- ------ ----- ------- ---- -- --- ------- --<br>------- ---------- ------ -- ----- -- ----- -- ---- ------<br>--- ----- --- --- ------ -------- ----- --- ------ ----- --<br>----- ----- ---------- --- --- ------ ------ ---- -- ------<br>------- --- ------ ----- --- ---- without -- ---- --- --<br>------- ------,183611.80000001192,183611.39999997616,183282.721,183287.60000002384,183289.389,183615.588,,49,without
screen,html.Screen,2_1_1_1_50,2022-02-01T16:13:26.058Z,,,,,,,,,,,,,,,,,54,,,,,,,,,,,,,,339.8119999761693,,response,,,,100,,,,,,,Space,keypress(Space),,,,,,,,-- --- ---- --- ------ ----- ------- ---- -- --- ------- --<br>------- ---------- ------ -- ----- -- ----- -- ---- ------<br>--- ----- --- --- ------ -------- ----- --- ------ ----- --<br>----- ----- ---------- --- --- ------ ------ ---- -- ------<br>------- --- ------ ----- --- ---- ------- an ---- --- --<br>------- ------,183955.80000001192,183955.39999997616,183608.882,183611.80000001192,183615.588,183962.708,,50,an
screen,html.Screen,2_1_1_1_51,2022-02-01T16:13:26.482Z,,,,,,,,,,,,,,,,,54,,,,,,,,,,,,,,416.3920000238286,,response,,,,100,,,,,,,Space,keypress(Space),,,,,,,,-- --- ---- --- ------ ----- ------- ---- -- --- ------- --<br>------- ---------- ------ -- ----- -- ----- -- ---- ------<br>--- ----- --- --- ------ -------- ----- --- ------ ----- --<br>----- ----- ---------- --- --- ------ ------ ---- -- ------<br>------- --- ------ ----- --- ---- ------- -- easy --- --<br>------- ------,184379.5,184379.10000002384,183955.832,183955.89999997616,183962.708,184386.142,,51,easy
screen,html.Screen,2_1_1_1_52,2022-02-01T16:13:26.786Z,,,,,,,,,,,,,,,,,54,,,,,,,,,,,,,,296.85800000000745,,response,,,,100,,,,,,,Space,keypress(Space),,,,,,,,-- --- ---- --- ------ ----- ------- ---- -- --- ------- --<br>------- ---------- ------ -- ----- -- ----- -- ---- ------<br>--- ----- --- --- ------ -------- ----- --- ------ ----- --<br>----- ----- ---------- --- --- ------ ------ ---- -- ------<br>------- --- ------ ----- --- ---- ------- -- ---- way --<br>------- ------,184683.30000001192,184683,184379.279,184379.5,184386.142,184701.927,,52,way
screen,html.Screen,2_1_1_1_53,2022-02-01T16:13:27.110Z,,,,,,,,,,,,,,,,,54,,,,,,,,,,,,,,305.07300000000396,,response,,,,100,,,,,,,Space,keypress(Space),,,,,,,,-- --- ---- --- ------ ----- ------- ---- -- --- ------- --<br>------- ---------- ------ -- ----- -- ----- -- ---- ------<br>--- ----- --- --- ------ -------- ----- --- ------ ----- --<br>----- ----- ---------- --- --- ------ ------ ---- -- ------<br>------- --- ------ ----- --- ---- ------- -- ---- --- of<br>------- ------,185007.30000001192,185007,184677.763,184683.39999997616,184701.927,185010.811,,53,of
screen,html.Screen,2_1_1_1_54,2022-02-01T16:13:28.398Z,,,,,,,,,,,,,,,,,54,,,,,,,,,,,,,,1284.388999988092,,response,,,,100,,,,,,,Space,keypress(Space),,,,,,,,-- --- ---- --- ------ ----- ------- ---- -- --- ------- --<br>------- ---------- ------ -- ----- -- ----- -- ---- ------<br>--- ----- --- --- ------ -------- ----- --- ------ ----- --<br>----- ----- ---------- --- --- ------ ------ ---- -- ------<br>------- --- ------ ----- --- ---- ------- -- ---- --- --<br>raising ------,186295.60000002384,186295.19999998808,185004.155,185007.39999997616,185010.811,186301.844,,54,raising
screen,html.Screen,2_1_1_1_55,2022-02-01T16:13:28.722Z,,,,,,,,,,,,,,,,,54,,,,,,,,,,,,,,317.45600001190905,,response,,,,100,,,,,,,Space,keypress(Space),,,,,,,,-- --- ---- --- ------ ----- ------- ---- -- --- ------- --<br>------- ---------- ------ -- ----- -- ----- -- ---- ------<br>--- ----- --- --- ------ -------- ----- --- ------ ----- --<br>----- ----- ---------- --- --- ------ ------ ---- -- ------<br>------- --- ------ ----- --- ---- ------- -- ---- --- --<br>------- money.,186619.60000002384,186619.30000001192,186295.471,186295.69999998808,186301.844,186643.373,,55,money.
Item 100,flow.Loop,2_1_1_1,2022-02-01T16:13:28.722Z,,,,,,,,,,,,,,,,,,,,,,,,,,,,,,,23889.563000011927,,completion,,,,,A,,,,,,,,,,,silence,,,,,186619.80000001192,186619.30000001192,162722.915,162723.5,162729.737,186643.373,,,
Question 1,html.Screen,2_1_1_2,2022-02-01T16:13:31.083Z,,,,,,,,,,,,,,,,,,,,,,,,,,,,true,TRUE,,2337.026999976166,,response,,,,100,A,,,,,,TRUE,click #choice-1,,,,silence,,,,,188981,188980.39999997616,186614.404,186619.80000001192,186643.373,189002.827,,,
Question 2,html.Screen,2_1_1_3,2022-02-01T16:13:34.550Z,,,,,,,,,,,,,,,,,,,,,,,,,,,,true,FALSE,,3444.572999976168,,response,,,,100,A,,,,,,FALSE,click #choice-2,,,,silence,,,,,192448,192447.39999997616,188974.188,188981.10000002384,189002.827,192451.675,,,
Item 100,flow.Sequence,2_1_1,2022-02-01T16:13:34.551Z,,,,,,,,,,,,,,,,,,,,,,,,,,,,,,,39719.940999976156,,completion,,,,,,,,,,,,,,,,,,,,,192448.10000002384,192447.39999997616,152720.526,152721.10000002384,152727.459,192451.675,,,
End of Practice,html.Page,2_1_2,2022-02-01T16:13:38.596Z,,,,,,,,,,,,,,,,,,,,,,,,,,,,,,,4041.4250000238535,,form submission,,,,,,,,,,,,,,,,,,,,,196493.19999998808,196493.10000002384,192444.738,192448.10000002384,192451.675,196498.35,,,
Practice,flow.Sequence,2_1,2022-02-01T16:13:38.596Z,,,,,,,,,,,,,,,,,,,,,,,,,,,,,,,87959.96200002384,,completion,,,,,,,,,,,,,,,,,,,,,196493.39999997616,196493.10000002384,108526.191,108531.39999997616,108533.138,196498.35,,,
Trap_instruction,html.Page,2_2_0,2022-02-01T16:13:41.838Z,,,,,,,,,,,,,,,,,,,,,,,,,,,,,,,3235.950000011915,,form submission,,,,,,,,,,,,,,,,,,,,,199734.5,199734.30000001192,196491.443,196493.5,196498.35,199739.879,,,
trap_trial,html.Screen,2_2_1,2022-02-01T16:13:46.102Z,,,,,,,,,,,,,,,,,,,,,,,,,,,,true,1,,4258.421000011935,,response,,,,,,,,,,,1,click #choice-1,,,,,,,,,203999,203998.30000001192,199732.962,199734.60000002384,199739.879,204001.779,,,
end of trap trial,html.Page,2_2_2,2022-02-01T16:13:47.687Z,,,,,,,,,,,,,,,,,,,,,,,,,,,,,,,1581.6209999761486,,form submission,,,,,,,,,,,,,,,,,,,,,205583.5,205583.39999997616,203994.842,203999,204001.779,205584.353,,,
Trap 1,flow.Sequence,2_2,2022-02-01T16:13:47.687Z,,,,,,,,,,,,,,,,,,,,,,,,,,,,,,,9085.049999976152,,completion,,,,,,,,,,,,,,,,,,,,,205583.69999998808,205583.39999997616,196491.443,196493.5,196498.35,205584.353,,,
Standby,html.Page,2_3_0,2022-02-01T16:13:55.684Z,,,,,,,,,,,,,,,,,,,,,,,,,,,,,,,8003.2119999999995,,timeout,,,,,,,,,,,,,,,,,,,,,213581,213580.649,205577.487,205583.69999998808,205584.353,213587.565,,,
Holding screen,html.Screen,2_3_1_0_0,2022-02-01T16:14:02.681Z,,,,,,,,,,,,,,,,,,,,,,,,,,,,,,,6996.611000000004,,timeout,,,,,,,,,,,,,,,,,,,,,220577.80000001192,220577.429,213580.649,213581.19999998808,213587.565,220584.176,,,
screen,html.Screen,2_3_1_0_1_0,2022-02-01T16:14:03.371Z,,,,,,,,,,,,,,,,,51,,,,,,,,,,,,,,683.3239999999932,,response,,,,13,A,,,,,,Space,keypress(Space),,,,silence,,,,American -------- --- --- ---- --- --- ------ -- --------<br>---- --------- --- ------- ------------ ---------- ---------<br>--- ---------- ------- ---------- ------- -- -------- ----<br>---- --- ------ ----- ------ -- ---- --- ----- -- - -------<br>-------- -- --- --- -- ----- ----------- ----- -----------<br>---- --- ---------- --- ---- --- -- ----------,221267.89999997616,221267.5,220577.429,220578,220584.176,221271.368,,0,American
screen,html.Screen,2_3_1_0_1_1,2022-02-01T16:14:03.746Z,,,,,,,,,,,,,,,,,51,,,,,,,,,,,,,,371.63200000001234,,response,,,,13,A,,,,,,Space,keypress(Space),,,,silence,,,,-------- industry --- --- ---- --- --- ------ -- --------<br>---- --------- --- ------- ------------ ---------- ---------<br>--- ---------- ------- ---------- ------- -- -------- ----<br>---- --- ------ ----- ------ -- ---- --- ----- -- - -------<br>-------- -- --- --- -- ----- ----------- ----- -----------<br>---- --- ---------- --- ---- --- -- ----------,221643.39999997616,221643,221264.754,221268,221271.368,221646.201,,1,industry
screen,html.Screen,2_3_1_0_1_2,2022-02-01T16:14:04.079Z,,,,,,,,,,,,,,,,,51,,,,,,,,,,,,,,329.09900001192,,response,,,,13,A,,,,,,Space,keypress(Space),,,,silence,,,,-------- -------- may --- ---- --- --- ------ -- --------<br>---- --------- --- ------- ------------ ---------- ---------<br>--- ---------- ------- ---------- ------- -- -------- ----<br>---- --- ------ ----- ------ -- ---- --- ----- -- - -------<br>-------- -- --- --- -- ----- ----------- ----- -----------<br>---- --- ---------- --- ---- --- -- ----------,221975.69999998808,221975.30000001192,221639.452,221643.5,221646.201,221979.336,,2,may
screen,html.Screen,2_3_1_0_1_3,2022-02-01T16:14:04.419Z,,,,,,,,,,,,,,,,,51,,,,,,,,,,,,,,335.66399999998976,,response,,,,13,A,,,,,,Space,keypress(Space),,,,silence,,,,-------- -------- --- not ---- --- --- ------ -- --------<br>---- --------- --- ------- ------------ ---------- ---------<br>--- ---------- ------- ---------- ------- -- -------- ----<br>---- --- ------ ----- ------ -- ---- --- ----- -- - -------<br>-------- -- --- --- -- ----- ----------- ----- -----------<br>---- --- ---------- --- ---- --- -- ----------,222315.39999997616,222315,221972.62,221975.80000001192,221979.336,222319.488,,3,not
screen,html.Screen,2_3_1_0_1_4,2022-02-01T16:14:04.747Z,,,,,,,,,,,,,,,,,51,,,,,,,,,,,,,,323.8120000119088,,response,,,,13,A,,,,,,Space,keypress(Space),,,,silence,,,,-------- -------- --- --- know --- --- ------ -- --------<br>---- --------- --- ------- ------------ ---------- ---------<br>--- ---------- ------- ---------- ------- -- -------- ----<br>---- --- ------ ----- ------ -- ---- --- ----- -- - -------<br>-------- -- --- --- -- ----- ----------- ----- -----------<br>---- --- ---------- --- ---- --- -- ----------,222643.69999998808,222643.30000001192,222312.725,222315.5,222319.488,222645.682,,4,know
screen,html.Screen,2_3_1_0_1_5,2022-02-01T16:14:05.071Z,,,,,,,,,,,,,,,,,51,,,,,,,,,,,,,,321.5179999880784,,response,,,,13,A,,,,,,Space,keypress(Space),,,,silence,,,,"-------- -------- --- --- ---- it, --- ------ -- --------<br>---- --------- --- ------- ------------ ---------- ---------<br>--- ---------- ------- ---------- ------- -- -------- ----<br>---- --- ------ ----- ------ -- ---- --- ----- -- - -------<br>-------- -- --- --- -- ----- ----------- ----- -----------<br>---- --- ---------- --- ---- --- -- ----------",222967.60000002384,222967.19999998808,222638.939,222643.80000001192,222645.682,222971.947,,5,"it,"
screen,html.Screen,2_3_1_0_1_6,2022-02-01T16:14:05.751Z,,,,,,,,,,,,,,,,,51,,,,,,,,,,,,,,675.1530000238563,,response,,,,13,A,,,,,,Space,keypress(Space),,,,silence,,,,-------- -------- --- --- ---- --- but ------ -- --------<br>---- --------- --- ------- ------------ ---------- ---------<br>--- ---------- ------- ---------- ------- -- -------- ----<br>---- --- ------ ----- ------ -- ---- --- ----- -- - -------<br>-------- -- --- --- -- ----- ----------- ----- -----------<br>---- --- ---------- --- ---- --- -- ----------,223647.5,223647.10000002384,222965.179,222967.69999998808,222971.947,223652.238,,6,but
screen,html.Screen,2_3_1_0_1_7,2022-02-01T16:14:06.066Z,,,,,,,,,,,,,,,,,51,,,,,,,,,,,,,,310.2619999999879,,response,,,,13,A,,,,,,Space,keypress(Space),,,,silence,,,,-------- -------- --- --- ---- --- --- debate -- --------<br>---- --------- --- ------- ------------ ---------- ---------<br>--- ---------- ------- ---------- ------- -- -------- ----<br>---- --- ------ ----- ------ -- ---- --- ----- -- - -------<br>-------- -- --- --- -- ----- ----------- ----- -----------<br>---- --- ---------- --- ---- --- -- ----------,223962.80000001192,223962.5,223645.558,223647.60000002384,223652.238,223964.518,,7,debate
screen,html.Screen,2_3_1_0_1_8,2022-02-01T16:14:06.394Z,,,,,,,,,,,,,,,,,51,,,,,,,,,,,,,,326.28200001191,,response,,,,13,A,,,,,,Space,keypress(Space),,,,silence,,,,-------- -------- --- --- ---- --- --- ------ in --------<br>---- --------- --- ------- ------------ ---------- ---------<br>--- ---------- ------- ---------- ------- -- -------- ----<br>---- --- ------ ----- ------ -- ---- --- ----- -- - -------<br>-------- -- --- --- -- ----- ----------- ----- -----------<br>---- --- ---------- --- ---- --- -- ----------,224291.19999998808,224290.80000001192,223957.971,223962.89999997616,223964.518,224297.692,,8,in
screen,html.Screen,2_3_1_0_1_9,2022-02-01T16:14:06.731Z,,,,,,,,,,,,,,,,,51,,,,,,,,,,,,,,329.6080000119109,,response,,,,13,A,,,,,,Space,keypress(Space),,,,silence,,,,-------- -------- --- --- ---- --- --- ------ -- Congress<br>---- --------- --- ------- ------------ ---------- ---------<br>--- ---------- ------- ---------- ------- -- -------- ----<br>---- --- ------ ----- ------ -- ---- --- ----- -- - -------<br>-------- -- --- --- -- ----- ----------- ----- -----------<br>---- --- ---------- --- ---- --- -- ----------,224627.69999998808,224627.30000001192,224291.073,224291.19999998808,224297.692,224630.909,,9,Congress
screen,html.Screen,2_3_1_0_1_10,2022-02-01T16:14:07.063Z,,,,,,,,,,,,,,,,,51,,,,,,,,,,,,,,328.19100002382766,,response,,,,13,A,,,,,,Space,keypress(Space),,,,silence,,,,-------- -------- --- --- ---- --- --- ------ -- --------<br>over --------- --- ------- ------------ ---------- ---------<br>--- ---------- ------- ---------- ------- -- -------- ----<br>---- --- ------ ----- ------ -- ---- --- ----- -- - -------<br>-------- -- --- --- -- ----- ----------- ----- -----------<br>---- --- ---------- --- ---- --- -- ----------,224959.5,224959.10000002384,224624.267,224627.69999998808,224630.909,224964.047,,10,over
screen,html.Screen,2_3_1_0_1_11,2022-02-01T16:14:07.406Z,,,,,,,,,,,,,,,,,51,,,,,,,,,,,,,,338.85299997616676,,response,,,,13,A,,,,,,Space,keypress(Space),,,,silence,,,,-------- -------- --- --- ---- --- --- ------ -- --------<br>---- reforming --- ------- ------------ ---------- ---------<br>--- ---------- ------- ---------- ------- -- -------- ----<br>---- --- ------ ----- ------ -- ---- --- ----- -- - -------<br>-------- -- --- --- -- ----- ----------- ----- -----------<br>---- --- ---------- --- ---- --- -- ----------,225303.19999998808,225302.89999997616,224957.502,224959.60000002384,224964.047,225314.071,,11,reforming
screen,html.Screen,2_3_1_0_1_12,2022-02-01T16:14:07.731Z,,,,,,,,,,,,,,,,,51,,,,,,,,,,,,,,313.5290000238456,,response,,,,13,A,,,,,,Space,keypress(Space),,,,silence,,,,-------- -------- --- --- ---- --- --- ------ -- --------<br>---- --------- the ------- ------------ ---------- ---------<br>--- ---------- ------- ---------- ------- -- -------- ----<br>---- --- ------ ----- ------ -- ---- --- ----- -- - -------<br>-------- -- --- --- -- ----- ----------- ----- -----------<br>---- --- ---------- --- ---- --- -- ----------,225628,225627.60000002384,225297.397,225303.30000001192,225314.071,225630.418,,12,the
screen,html.Screen,2_3_1_0_1_13,2022-02-01T16:14:08.051Z,,,,,,,,,,,,,,,,,51,,,,,,,,,,,,,,316.68200002383674,,response,,,,13,A,,,,,,Space,keypress(Space),,,,silence,,,,-------- -------- --- --- ---- --- --- ------ -- --------<br>---- --------- --- federal ------------ ---------- ---------<br>--- ---------- ------- ---------- ------- -- -------- ----<br>---- --- ------ ----- ------ -- ---- --- ----- -- - -------<br>-------- -- --- --- -- ----- ----------- ----- -----------<br>---- --- ---------- --- ---- --- -- ----------,225947.60000002384,225947.10000002384,225623.824,225628,225630.418,225949.672,,13,federal
screen,html.Screen,2_3_1_0_1_14,2022-02-01T16:14:08.351Z,,,,,,,,,,,,,,,,,51,,,,,,,,,,,,,,297.62800001192954,,response,,,,13,A,,,,,,Space,keypress(Space),,,,silence,,,,-------- -------- --- --- ---- --- --- ------ -- --------<br>---- --------- --- ------- government's ---------- ---------<br>--- ---------- ------- ---------- ------- -- -------- ----<br>---- --- ------ ----- ------ -- ---- --- ----- -- - -------<br>-------- -- --- --- -- ----- ----------- ----- -----------<br>---- --- ---------- --- ---- --- -- ----------,226247.69999998808,226247.30000001192,225942.934,225947.60000002384,225949.672,226270.188,,14,government's
screen,html.Screen,2_3_1_0_1_15,2022-02-01T16:14:08.674Z,,,,,,,,,,,,,,,,,51,,,,,,,,,,,,,,300.7119999761635,,response,,,,13,A,,,,,,Space,keypress(Space),,,,silence,,,,-------- -------- --- --- ---- --- --- ------ -- --------<br>---- --------- --- ------- ------------ regulatory ---------<br>--- ---------- ------- ---------- ------- -- -------- ----<br>---- --- ------ ----- ------ -- ---- --- ----- -- - -------<br>-------- -- --- --- -- ----- ----------- ----- -----------<br>---- --- ---------- --- ---- --- -- ----------,226571.19999998808,226570.89999997616,226241.415,226247.80000001192,226270.188,226574.406,,15,regulatory
screen,html.Screen,2_3_1_0_1_16,2022-02-01T16:14:09.015Z,,,,,,,,,,,,,,,,,51,,,,,,,,,,,,,,336.69400002385373,,response,,,,13,A,,,,,,Space,keypress(Space),,,,silence,,,,-------- -------- --- --- ---- --- --- ------ -- --------<br>---- --------- --- ------- ------------ ---------- apparatus<br>--- ---------- ------- ---------- ------- -- -------- ----<br>---- --- ------ ----- ------ -- ---- --- ----- -- - -------<br>-------- -- --- --- -- ----- ----------- ----- -----------<br>---- --- ---------- --- ---- --- -- ----------,226911.5,226911.10000002384,226567.645,226571.19999998808,226574.406,226914.494,,16,apparatus
screen,html.Screen,2_3_1_0_1_17,2022-02-01T16:14:09.375Z,,,,,,,,,,,,,,,,,51,,,,,,,,,,,,,,356.6060000238358,,response,,,,13,A,,,,,,Space,keypress(Space),,,,silence,,,,-------- -------- --- --- ---- --- --- ------ -- --------<br>---- --------- --- ------- ------------ ---------- ---------<br>may ---------- ------- ---------- ------- -- -------- ----<br>---- --- ------ ----- ------ -- ---- --- ----- -- - -------<br>-------- -- --- --- -- ----- ----------- ----- -----------<br>---- --- ---------- --- ---- --- -- ----------,227271.39999997616,227271.10000002384,226907.963,226911.60000002384,226914.494,227275.42,,17,may
screen,html.Screen,2_3_1_0_1_18,2022-02-01T16:14:09.702Z,,,,,,,,,,,,,,,,,51,,,,,,,,,,,,,,323.27999998806627,,response,,,,13,A,,,,,,Space,keypress(Space),,,,silence,,,,-------- -------- --- --- ---- --- --- ------ -- --------<br>---- --------- --- ------- ------------ ---------- ---------<br>--- profoundly ------- ---------- ------- -- -------- ----<br>---- --- ------ ----- ------ -- ---- --- ----- -- - -------<br>-------- -- --- --- -- ----- ----------- ----- -----------<br>---- --- ---------- --- ---- --- -- ----------,227599.19999998808,227598.69999998808,227268.713,227271.5,227275.42,227601.67,,18,profoundly
screen,html.Screen,2_3_1_0_1_19,2022-02-01T16:14:10.015Z,,,,,,,,,,,,,,,,,51,,,,,,,,,,,,,,309.72999997614534,,response,,,,13,A,,,,,,Space,keypress(Space),,,,silence,,,,-------- -------- --- --- ---- --- --- ------ -- --------<br>---- --------- --- ------- ------------ ---------- ---------<br>--- ---------- improve ---------- ------- -- -------- ----<br>---- --- ------ ----- ------ -- ---- --- ----- -- - -------<br>-------- -- --- --- -- ----- ----------- ----- -----------<br>---- --- ---------- --- ---- --- -- ----------,227911.69999998808,227911.39999997616,227594.907,227599.19999998808,227601.67,227914.04,,19,improve
screen,html.Screen,2_3_1_0_1_20,2022-02-01T16:14:10.331Z,,,,,,,,,,,,,,,,,51,,,,,,,,,,,,,,313.2600000119128,,response,,,,13,A,,,,,,Space,keypress(Space),,,,silence,,,,-------- -------- --- --- ---- --- --- ------ -- --------<br>---- --------- --- ------- ------------ ---------- ---------<br>--- ---------- ------- companies' ------- -- -------- ----<br>---- --- ------ ----- ------ -- ---- --- ----- -- - -------<br>-------- -- --- --- -- ----- ----------- ----- -----------<br>---- --- ---------- --- ---- --- -- ----------,228227.69999998808,228227.30000001192,227907.266,227911.80000001192,227914.04,228233.358,,20,companies'
screen,html.Screen,2_3_1_0_1_21,2022-02-01T16:14:10.655Z,,,,,,,,,,,,,,,,,51,,,,,,,,,,,,,,317.8419999880716,,response,,,,13,A,,,,,,Space,keypress(Space),,,,silence,,,,-------- -------- --- --- ---- --- --- ------ -- --------<br>---- --------- --- ------- ------------ ---------- ---------<br>--- ---------- ------- ---------- ability -- -------- ----<br>---- --- ------ ----- ------ -- ---- --- ----- -- - -------<br>-------- -- --- --- -- ----- ----------- ----- -----------<br>---- --- ---------- --- ---- --- -- ----------,228551.69999998808,228551.19999998808,228226.809,228227.80000001192,228233.358,228574.698,,21,ability
screen,html.Screen,2_3_1_0_1_22,2022-02-01T16:14:10.963Z,,,,,,,,,,,,,,,,,51,,,,,,,,,,,,,,284.5019999880751,,response,,,,13,A,,,,,,Space,keypress(Space),,,,silence,,,,-------- -------- --- --- ---- --- --- ------ -- --------<br>---- --------- --- ------- ------------ ---------- ---------<br>--- ---------- ------- ---------- ------- to -------- ----<br>---- --- ------ ----- ------ -- ---- --- ----- -- - -------<br>-------- -- --- --- -- ----- ----------- ----- -----------<br>---- --- ---------- --- ---- --- -- ----------,228859.60000002384,228859.19999998808,228545.971,228551.69999998808,228574.698,228865.053,,22,to
screen,html.Screen,2_3_1_0_1_23,2022-02-01T16:14:11.283Z,,,,,,,,,,,,,,,,,51,,,,,,,,,,,,,,314.14699998806464,,response,,,,13,A,,,,,,Space,keypress(Space),,,,silence,,,,-------- -------- --- --- ---- --- --- ------ -- --------<br>---- --------- --- ------- ------------ ---------- ---------<br>--- ---------- ------- ---------- ------- -- survive. ----<br>---- --- ------ ----- ------ -- ---- --- ----- -- - -------<br>-------- -- --- --- -- ----- ----------- ----- -----------<br>---- --- ---------- --- ---- --- -- ----------,229179.60000002384,229179.19999998808,228858.419,228859.60000002384,228865.053,229184.244,,23,survive.
screen,html.Screen,2_3_1_0_1_24,2022-02-01T16:14:11.663Z,,,,,,,,,,,,,,,,,51,,,,,,,,,,,,,,375.0560000119149,,response,,,,13,A,,,,,,Space,keypress(Space),,,,silence,,,,-------- -------- --- --- ---- --- --- ------ -- --------<br>---- --------- --- ------- ------------ ---------- ---------<br>--- ---------- ------- ---------- ------- -- -------- This<br>---- --- ------ ----- ------ -- ---- --- ----- -- - -------<br>-------- -- --- --- -- ----- ----------- ----- -----------<br>---- --- ---------- --- ---- --- -- ----------,229559.69999998808,229559.30000001192,229177.617,229179.69999998808,229184.244,229566.054,,24,This
screen,html.Screen,2_3_1_0_1_25,2022-02-01T16:14:12.015Z,,,,,,,,,,,,,,,,,51,,,,,,,,,,,,,,345.04600002383813,,response,,,,13,A,,,,,,Space,keypress(Space),,,,silence,,,,-------- -------- --- --- ---- --- --- ------ -- --------<br>---- --------- --- ------- ------------ ---------- ---------<br>--- ---------- ------- ---------- ------- -- -------- ----<br>week --- ------ ----- ------ -- ---- --- ----- -- - -------<br>-------- -- --- --- -- ----- ----------- ----- -----------<br>---- --- ---------- --- ---- --- -- ----------,229911.5,229911.10000002384,229559.23,229559.69999998808,229566.054,229913.079,,25,week
screen,html.Screen,2_3_1_0_1_26,2022-02-01T16:14:12.407Z,,,,,,,,,,,,,,,,,51,,,,,,,,,,,,,,390.4210000000021,,response,,,,13,A,,,,,,Space,keypress(Space),,,,silence,,,,-------- -------- --- --- ---- --- --- ------ -- --------<br>---- --------- --- ------- ------------ ---------- ---------<br>--- ---------- ------- ---------- ------- -- -------- ----<br>---- the ------ ----- ------ -- ---- --- ----- -- - -------<br>-------- -- --- --- -- ----- ----------- ----- -----------<br>---- --- ---------- --- ---- --- -- ----------,230303.89999997616,230303.5,229906.308,229911.60000002384,229913.079,230308.741,,26,the
screen,html.Screen,2_3_1_0_1_27,2022-02-01T16:14:12.759Z,,,,,,,,,,,,,,,,,51,,,,,,,,,,,,,,346.65899997614906,,response,,,,13,A,,,,,,Space,keypress(Space),,,,silence,,,,-------- -------- --- --- ---- --- --- ------ -- --------<br>---- --------- --- ------- ------------ ---------- ---------<br>--- ---------- ------- ---------- ------- -- -------- ----<br>---- --- Senate ----- ------ -- ---- --- ----- -- - -------<br>-------- -- --- --- -- ----- ----------- ----- -----------<br>---- --- ---------- --- ---- --- -- ----------,230655.80000001192,230655.39999997616,230301.937,230304.10000002384,230308.741,230669.788,,27,Senate
screen,html.Screen,2_3_1_0_1_28,2022-02-01T16:14:13.031Z,,,,,,,,,,,,,,,,,51,,,,,,,,,,,,,,257.51200001192046,,response,,,,13,A,,,,,,Space,keypress(Space),,,,silence,,,,-------- -------- --- --- ---- --- --- ------ -- --------<br>---- --------- --- ------- ------------ ---------- ---------<br>--- ---------- ------- ---------- ------- -- -------- ----<br>---- --- ------ seems ------ -- ---- --- ----- -- - -------<br>-------- -- --- --- -- ----- ----------- ----- -----------<br>---- --- ---------- --- ---- --- -- ----------,230927.69999998808,230927.30000001192,230662.76,230655.89999997616,230669.788,230933.525,,28,seems
screen,html.Screen,2_3_1_0_1_29,2022-02-01T16:14:13.395Z,,,,,,,,,,,,,,,,,51,,,,,,,,,,,,,,357.6749999880849,,response,,,,13,A,,,,,,Space,keypress(Space),,,,silence,,,,-------- -------- --- --- ---- --- --- ------ -- --------<br>---- --------- --- ------- ------------ ---------- ---------<br>--- ---------- ------- ---------- ------- -- -------- ----<br>---- --- ------ ----- poised -- ---- --- ----- -- - -------<br>-------- -- --- --- -- ----- ----------- ----- -----------<br>---- --- ---------- --- ---- --- -- ----------,231291.60000002384,231291.19999998808,230926.688,230927.80000001192,230933.525,231294.387,,29,poised
screen,html.Screen,2_3_1_0_1_30,2022-02-01T16:14:13.699Z,,,,,,,,,,,,,,,,,51,,,,,,,,,,,,,,300.71300002385397,,response,,,,13,A,,,,,,Space,keypress(Space),,,,silence,,,,-------- -------- --- --- ---- --- --- ------ -- --------<br>---- --------- --- ------- ------------ ---------- ---------<br>--- ---------- ------- ---------- ------- -- -------- ----<br>---- --- ------ ----- ------ to ---- --- ----- -- - -------<br>-------- -- --- --- -- ----- ----------- ----- -----------<br>---- --- ---------- --- ---- --- -- ----------,231595.5,231595.10000002384,231287.866,231291.69999998808,231294.387,231599.758,,30,to
screen,html.Screen,2_3_1_0_1_31,2022-02-01T16:14:14.047Z,,,,,,,,,,,,,,,,,51,,,,,,,,,,,,,,343.5420000119193,,response,,,,13,A,,,,,,Space,keypress(Space),,,,silence,,,,-------- -------- --- --- ---- --- --- ------ -- --------<br>---- --------- --- ------- ------------ ---------- ---------<br>--- ---------- ------- ---------- ------- -- -------- ----<br>---- --- ------ ----- ------ -- join --- ----- -- - -------<br>-------- -- --- --- -- ----- ----------- ----- -----------<br>---- --- ---------- --- ---- --- -- ----------,231943.60000002384,231943.30000001192,231593.187,231595.60000002384,231599.758,231946.888,,31,join
screen,html.Screen,2_3_1_0_1_32,2022-02-01T16:14:14.471Z,,,,,,,,,,,,,,,,,51,,,,,,,,,,,,,,420.41200001191464,,response,,,,13,A,,,,,,Space,keypress(Space),,,,silence,,,,-------- -------- --- --- ---- --- --- ------ -- --------<br>---- --------- --- ------- ------------ ---------- ---------<br>--- ---------- ------- ---------- ------- -- -------- ----<br>---- --- ------ ----- ------ -- ---- the ----- -- - -------<br>-------- -- --- --- -- ----- ----------- ----- -----------<br>---- --- ---------- --- ---- --- -- ----------,232367.69999998808,232367.30000001192,231940.051,231943.69999998808,231946.888,232370.262,,32,the
screen,html.Screen,2_3_1_0_1_33,2022-02-01T16:14:14.895Z,,,,,,,,,,,,,,,,,51,,,,,,,,,,,,,,420.9379999880912,,response,,,,13,A,,,,,,Space,keypress(Space),,,,silence,,,,-------- -------- --- --- ---- --- --- ------ -- --------<br>---- --------- --- ------- ------------ ---------- ---------<br>--- ---------- ------- ---------- ------- -- -------- ----<br>---- --- ------ ----- ------ -- ---- --- House -- - -------<br>-------- -- --- --- -- ----- ----------- ----- -----------<br>---- --- ---------- --- ---- --- -- ----------,232791.60000002384,232791.19999998808,232363.622,232367.69999998808,232370.262,232793.652,,33,House
screen,html.Screen,2_3_1_0_1_34,2022-02-01T16:14:15.206Z,,,,,,,,,,,,,,,,,51,,,,,,,,,,,,,,309.34799999999814,,response,,,,13,A,,,,,,Space,keypress(Space),,,,silence,,,,-------- -------- --- --- ---- --- --- ------ -- --------<br>---- --------- --- ------- ------------ ---------- ---------<br>--- ---------- ------- ---------- ------- -- -------- ----<br>---- --- ------ ----- ------ -- ---- --- ----- in - -------<br>-------- -- --- --- -- ----- ----------- ----- -----------<br>---- --- ---------- --- ---- --- -- ----------,233103.39999997616,233103,232786.915,232791.69999998808,232793.652,233106.085,,34,in
screen,html.Screen,2_3_1_0_1_35,2022-02-01T16:14:15.527Z,,,,,,,,,,,,,,,,,51,,,,,,,,,,,,,,317.3149999761663,,response,,,,13,A,,,,,,Space,keypress(Space),,,,silence,,,,-------- -------- --- --- ---- --- --- ------ -- --------<br>---- --------- --- ------- ------------ ---------- ---------<br>--- ---------- ------- ---------- ------- -- -------- ----<br>---- --- ------ ----- ------ -- ---- --- ----- -- a -------<br>-------- -- --- --- -- ----- ----------- ----- -----------<br>---- --- ---------- --- ---- --- -- ----------,233423.80000001192,233423.39999997616,233099.23,233103.5,233106.085,233425.308,,35,a
screen,html.Screen,2_3_1_0_1_36,2022-02-01T16:14:15.803Z,,,,,,,,,,,,,,,,,51,,,,,,,,,,,,,,274.29200002385187,,response,,,,13,A,,,,,,Space,keypress(Space),,,,silence,,,,-------- -------- --- --- ---- --- --- ------ -- --------<br>---- --------- --- ------- ------------ ---------- ---------<br>--- ---------- ------- ---------- ------- -- -------- ----<br>---- --- ------ ----- ------ -- ---- --- ----- -- - massive<br>-------- -- --- --- -- ----- ----------- ----- -----------<br>---- --- ---------- --- ---- --- -- ----------,233699.89999997616,233699.60000002384,233418.621,233423.80000001192,233425.308,233702.966,,36,massive
screen,html.Screen,2_3_1_0_1_37,2022-02-01T16:14:16.119Z,,,,,,,,,,,,,,,,,51,,,,,,,,,,,,,,312.13400002385606,,response,,,,13,A,,,,,,Space,keypress(Space),,,,silence,,,,-------- -------- --- --- ---- --- --- ------ -- --------<br>---- --------- --- ------- ------------ ---------- ---------<br>--- ---------- ------- ---------- ------- -- -------- ----<br>---- --- ------ ----- ------ -- ---- --- ----- -- - -------<br>overhaul -- --- --- -- ----- ----------- ----- -----------<br>---- --- ---------- --- ---- --- -- ----------,234015.60000002384,234015.10000002384,233696.315,233700,233702.966,234022.27,,37,overhaul
screen,html.Screen,2_3_1_0_1_38,2022-02-01T16:14:16.483Z,,,,,,,,,,,,,,,,,51,,,,,,,,,,,,,,357.0300000119314,,response,,,,13,A,,,,,,Space,keypress(Space),,,,silence,,,,-------- -------- --- --- ---- --- --- ------ -- --------<br>---- --------- --- ------- ------------ ---------- ---------<br>--- ---------- ------- ---------- ------- -- -------- ----<br>---- --- ------ ----- ------ -- ---- --- ----- -- - -------<br>-------- of --- --- -- ----- ----------- ----- -----------<br>---- --- ---------- --- ---- --- -- ----------,234379.69999998808,234379.30000001192,234015.498,234015.60000002384,234022.27,234383.206,,38,of
