sender,sender_type,sender_id,timestamp,meta,,Blues,Classical,Country,Dance,Electronic,Folk,Gospel,Hip-Hop,Jazz,Latin,Musical/Film,New-age,Pop,Prolific_id,Provo_ID,R&B,Rap,Reggae,Religious,Rock,Soul,Swing,Traditional,age,artist_name,correct,correctResponse,distraction,duration,education,ended_on,familiarity,gender,headphone_check_performance,item,list,music_frequency,offensiveness,pleasantness,position_correct,preference,response,response_action,snippet_file,song_name,song_rating,sound,stimulus_1,stimulus_2,stimulus_3,text,time_commit,time_end,time_render,time_run,time_show,time_switch,url,word,word_ID
Prolific ID,html.Form,0,2022-02-02T13:26:53.270Z,"{""labjs_version"":""20.2.2"",""labjs_build"":{""flavor"":""production"",""commit"":""a25486e0c714a0ae2ce03ff94b7bb6896854dcfa""},""location"":""https://run.pavlovia.org/mvasilev/prolific2_music_b/"",""userAgent"":""Mozilla/5.0 (Windows NT 10.0; Win64; x64) AppleWebKit/537.36 (KHTML, like Gecko) Chrome/97.0.4692.99 Safari/537.36"",""platform"":""Win32"",""language"":""en-GB"",""locale"":""en-GB"",""timeZone"":""Europe/London"",""timezoneOffset"":0,""screen_width"":1536,""screen_height"":864,""scroll_width"":1536,""scroll_height"":666,""window_innerWidth"":1536,""window_innerHeight"":714,""devicePixelRatio"":1.25}",,,,,,,,,,,,,,,5c1575e62a407b0001ff2a4c,,,,,,,,,,,,,,,5207.59599998808,,form submission,,,,,,,,,,,,,,,,,,,,,15551.699999988079,15547.199999988079,10324.937,10329.699999988079,10339.604,15554.746,{},,
Introduction,html.Screen,1_0,2022-02-02T13:27:04.793Z,,,,,,,,,,,,,,,,,,,,,,,,,,,,,,,11515.45399998808,,response,,,,,,,,,,,continue,click button,,,,,,,,,27074.299999952316,27070.19999998808,15538.397,15552.099999964237,15554.746,27084.718,,,
Volume calibration,html.Screen,1_1,2022-02-02T13:27:39.002Z,,,,,,,,,,,,,,,,,,,,,,,,,,,,,,,34195.282,,response,,,,,,,,,,,continue,click button,,,,,,,,,61283.89999997616,61280,27068.05,27074.5,27084.718,61291.397,,,
Task instructions,html.Screen,1_2,2022-02-02T13:27:51.739Z,,,,,,,,,,,,,,,,,,,,,,,,,,,,,,,12728.70299996424,,response,,,,,,,,,,,continue,click button,,,,,,,,,74020.79999995232,74020.09999996424,61274.723,61284.09999996424,61291.397,74041.228,,,
Sounds,html.Screen,1_3_0_0,2022-02-02T13:27:55.998Z,,,,,,,,,,,,,,,,,,,,,,,,,,,,,,,4245.160999999993,,timeout,,,,,,,,,1,,,,,,,,S,I,O,,78279.59999996424,78269.863,74004.31,74021,74041.228,78286.389,,,
Judgement,html.Screen,1_3_0_1,2022-02-02T13:27:57.960Z,,,,,,,,,,,,,,,,,,,,,,,,,,,,true,1,,1953.7109999642416,,response,,,,,,,,,1,,1,click #choice-1,,,,,S,I,O,,80241.39999997616,80240.09999996424,78269.863,78279.89999997616,78286.389,80252.906,,,
Trial,flow.Sequence,1_3_0,2022-02-02T13:27:57.960Z,,,,,,,,,,,,,,,,,,,,,,,,,,,,,,,6198.871999964234,,completion,,,,,,,,,1,,,,,,,,S,I,O,,80241.89999997616,80240.09999996424,74004.31,74021,74041.228,80252.906,,,
Sounds,html.Screen,1_3_1_0,2022-02-02T13:28:02.204Z,,,,,,,,,,,,,,,,,,,,,,,,,,,,,,,4248.396999999997,,timeout,,,,,,,,,3,,,,,,,,O,I,S,,84485.59999996424,84484.643,80236.267,80242.29999995232,80252.906,84501.303,,,
Judgement,html.Screen,1_3_1_1,2022-02-02T13:28:02.834Z,,,,,,,,,,,,,,,,,,,,,,,,,,,,true,3,,613.0969999761583,,response,,,,,,,,,3,,3,click #choice-3,,,,,O,I,S,,85115.89999997616,85114.39999997616,84484.643,84485.79999995232,84501.303,85117.733,,,
Trial,flow.Sequence,1_3_1,2022-02-02T13:28:02.835Z,,,,,,,,,,,,,,,,,,,,,,,,,,,,,,,4861.4939999761555,,completion,,,,,,,,,3,,,,,,,,O,I,S,,85116.19999998808,85114.39999997616,80236.267,80242,80252.906,85117.733,,,
Sounds,html.Screen,1_3_2_0,2022-02-02T13:28:07.070Z,,,,,,,,,,,,,,,,,,,,,,,,,,,,,,,4248.827000000005,,timeout,,,,,,,,,2,,,,,,,,O,S,I,,89351.09999996424,89349.966,85101.384,85116.39999997616,85117.733,89366.56,,,
Judgement,html.Screen,1_3_2_1,2022-02-02T13:28:07.854Z,,,,,,,,,,,,,,,,,,,,,,,,,,,,true,2,,767.7399999523186,,response,,,,,,,,,2,,2,click #choice-2,,,,,O,S,I,,90135.5,90134.29999995232,89349.966,89351.29999995232,89366.56,90149.703,,,
Trial,flow.Sequence,1_3_2,2022-02-02T13:28:07.854Z,,,,,,,,,,,,,,,,,,,,,,,,,,,,,,,5016.566999952323,,completion,,,,,,,,,2,,,,,,,,O,S,I,,90135.89999997616,90134.29999995232,85101.384,85116.29999995232,85117.733,90149.703,,,
Sounds,html.Screen,1_3_3_0,2022-02-02T13:28:12.102Z,,,,,,,,,,,,,,,,,,,,,,,,,,,,,,,4248.739000000001,,timeout,,,,,,,,,2,,,,,,,,I,S,O,,94383.19999998808,94381.831,90132.954,90136.09999996424,90149.703,94398.442,,,
Judgement,html.Screen,1_3_3_1,2022-02-02T13:28:12.710Z,,,,,,,,,,,,,,,,,,,,,,,,,,,,true,2,,591.7579999880836,,response,,,,,,,,,2,,2,click #choice-2,,,,,I,S,O,,94991.39999997616,94990.19999998808,94381.831,94383.39999997616,94398.442,94998.189,,,
Trial,flow.Sequence,1_3_3,2022-02-02T13:28:12.710Z,,,,,,,,,,,,,,,,,,,,,,,,,,,,,,,4840.496999988085,,completion,,,,,,,,,2,,,,,,,,I,S,O,,94991.79999995232,94990.19999998808,90132.954,90136.09999996424,90149.703,94998.189,,,
Sounds,html.Screen,1_3_4_0,2022-02-02T13:28:16.951Z,,,,,,,,,,,,,,,,,,,,,,,,,,,,,,,4249.144,,timeout,,,,,,,,,3,,,,,,,,I,O,S,,99231.89999997616,99230.485,94981.716,94991.89999997616,94998.189,99247.333,,,
Judgement,html.Screen,1_3_4_1,2022-02-02T13:28:17.512Z,,,,,,,,,,,,,,,,,,,,,,,,,,,,true,3,,545.0669999761594,,response,,,,,,,,,3,,3,click #choice-3,,,,,I,O,S,,99793.5,99792.39999997616,99230.485,99232.09999996424,99247.333,99796.788,,,
Trial,flow.Sequence,1_3_4,2022-02-02T13:28:17.512Z,,,,,,,,,,,,,,,,,,,,,,,,,,,,,,,4794.21099997616,,completion,,,,,,,,,3,,,,,,,,I,O,S,,99793.79999995232,99792.39999997616,94981.716,94991.79999995232,94998.189,99796.788,,,
Sounds,html.Screen,1_3_5_0,2022-02-02T13:28:21.749Z,,,,,,,,,,,,,,,,,,,,,,,,,,,,,,,4249.051000000007,,timeout,,,,,,,,,1,,,,,,,,S,O,I,,104030.29999995232,104028.958,99780.57,99794,99796.788,104045.839,,,
Judgement,html.Screen,1_3_5_1,2022-02-02T13:28:22.362Z,,,,,,,,,,,,,,,,,,,,,,,,,,,,true,1,,596.4609999523091,,response,,,,,,,,,1,,1,click #choice-1,,,,,S,O,I,,104643.69999998808,104642.29999995232,104028.958,104030.59999996424,104045.839,104645.403,,,
Trial,flow.Sequence,1_3_5,2022-02-02T13:28:22.363Z,,,,,,,,,,,,,,,,,,,,,,,,,,,,,,,4845.511999952316,,completion,,,,,,,,,1,,,,,,,,S,O,I,,104644,104642.29999995232,99780.57,99793.89999997616,99796.788,104645.403,,,
Task,flow.Loop,1_3,2022-02-02T13:28:22.368Z,,,,,,,,,,,,,,,,,,,,,,,,,,,,,,,30601.071999952313,,completion,,,1,,,,,,,,,,,,,,,,,,104649.5,104642.29999995232,74004.31,74021,74041.228,104645.403,,,
Trap,html.Screen,1_4,2022-02-02T13:28:22.369Z,,,,,,,,,,,,,,,,,,,,,,,,,,,,,,,NaN,,skipped,,,,,,,,,,,,,,,,,,,,,104650.09999996424,104642.29999995232,,104650,,104645.403,,,
Thanks,html.Screen,1_5,2022-02-02T13:28:25.080Z,,,,,,,,,,,,,,,,,,,,,,,,,,,,,,,2714.6969999642315,,response,,,,,,,,,,,continue,click button,,,,,,,,,107361.19999998808,107360.09999996424,104628.8,104650.29999995232,104645.403,109493.922,,,
Headphone screening,flow.Sequence,1,2022-02-02T13:28:25.080Z,,,,,,,,,,,,,,,,,,,,,,,,,,,,,,,91805.35399996424,,completion,,,,,,,,,,,,,,,,,,,,,107361.89999997616,107360.09999996424,15538.397,15552.099999964237,15554.746,109493.922,,,
Instructions,html.Page,2_0,2022-02-02T13:29:04.367Z,,,,,,,,,,,,,,,,,,,,,,,,,,,,,,,37153.77799998807,,form submission,,,,,,,,,,,,,,,,,,,,,146648.09999996424,146647.69999998808,109477.31,109487.69999998808,109493.922,146649.828,,,
Holding screen,html.Screen,2_1_0_0,2022-02-02T13:29:14.350Z,,,,,,,,,,,,,,,,,,,,,,,,,,,,,,,9997.046999999991,,timeout,,,,,,,,,,,,,,,,,,,,,156631.19999998808,156630.269,146633.147,146648.39999997616,146649.828,156646.875,,,
screen,html.Screen,2_1_0_1_0,2022-02-02T13:29:15.259Z,,,,,,,,,,,,,,,,,53,,,,,,,,,,,,,,889.9249999523163,,response,,,,99,,,,,,,Space,keypress(Space),,,,,,,,When -- ----- -- ------ - ------- --- ----------<br>------------- ------ ------ ---- ---- ------- ----- -- ----<br>-------- ------- -- ---------- --- - --- ----- ----- ----<br>---- --- --- ----- --- ---- ---- ------- ----- ---- -------<br>--- --- -- ----- -- --- ---- -- --- ---- -- ------ ------<br>--- ----- -- ----,157540.5,157536.79999995232,156630.269,156631.5,156646.875,157546.661,,0,When
screen,html.Screen,2_1_0_1_1,2022-02-02T13:29:15.670Z,,,,,,,,,,,,,,,,,53,,,,,,,,,,,,,,403.8390000000072,,response,,,,99,,,,,,,Space,keypress(Space),,,,,,,,---- it ----- -- ------ - ------- --- ----------<br>------------- ------ ------ ---- ---- ------- ----- -- ----<br>-------- ------- -- ---------- --- - --- ----- ----- ----<br>---- --- --- ----- --- ---- ---- ------- ----- ---- -------<br>--- --- -- ----- -- --- ---- -- --- ---- -- ------ ------<br>--- ----- -- ----,157951.09999996424,157950.5,157530.149,157540.79999995232,157546.661,157963.213,,1,it
screen,html.Screen,2_1_0_1_2,2022-02-02T13:29:16.323Z,,,,,,,,,,,,,,,,,53,,,,,,,,,,,,,,640.3869999642484,,response,,,,99,,,,,,,Space,keypress(Space),,,,,,,,---- -- comes -- ------ - ------- --- ----------<br>------------- ------ ------ ---- ---- ------- ----- -- ----<br>-------- ------- -- ---------- --- - --- ----- ----- ----<br>---- --- --- ----- --- ---- ---- ------- ----- ---- -------<br>--- --- -- ----- -- --- ---- -- --- ---- -- ------ ------<br>--- ----- -- ----,158604.39999997616,158603.59999996424,157946.583,157951.39999997616,157963.213,158612.941,,2,comes
screen,html.Screen,2_1_0_1_3,2022-02-02T13:29:16.775Z,,,,,,,,,,,,,,,,,53,,,,,,,,,,,,,,442.0590000000084,,response,,,,99,,,,,,,Space,keypress(Space),,,,,,,,---- -- ----- to ------ - ------- --- ----------<br>------------- ------ ------ ---- ---- ------- ----- -- ----<br>-------- ------- -- ---------- --- - --- ----- ----- ----<br>---- --- --- ----- --- ---- ---- ------- ----- ---- -------<br>--- --- -- ----- -- --- ---- -- --- ---- -- ------ ------<br>--- ----- -- ----,159055.89999997616,159055,158596.271,158604.59999996424,158612.941,159062.81,,3,to
screen,html.Screen,2_1_0_1_4,2022-02-02T13:29:17.212Z,,,,,,,,,,,,,,,,,53,,,,,,,,,,,,,,430.1900000000023,,response,,,,99,,,,,,,Space,keypress(Space),,,,,,,,---- -- ----- -- having - ------- --- ----------<br>------------- ------ ------ ---- ---- ------- ----- -- ----<br>-------- ------- -- ---------- --- - --- ----- ----- ----<br>---- --- --- ----- --- ---- ---- ------- ----- ---- -------<br>--- --- -- ----- -- --- ---- -- --- ---- -- ------ ------<br>--- ----- -- ----,159493.79999995232,159493,159046.146,159056.09999996424,159062.81,159496.04,,4,having
screen,html.Screen,2_1_0_1_5,2022-02-02T13:29:17.636Z,,,,,,,,,,,,,,,,,53,,,,,,,,,,,,,,421.05999996422906,,response,,,,99,,,,,,,Space,keypress(Space),,,,,,,,---- -- ----- -- ------ a ------- --- ----------<br>------------- ------ ------ ---- ---- ------- ----- -- ----<br>-------- ------- -- ---------- --- - --- ----- ----- ----<br>---- --- --- ----- --- ---- ---- ------- ----- ---- -------<br>--- --- -- ----- -- --- ---- -- --- ---- -- ------ ------<br>--- ----- -- ----,159917.89999997616,159917.09999996424,159479.339,159494,159496.04,159929.323,,5,a
screen,html.Screen,2_1_0_1_6,2022-02-02T13:29:18.038Z,,,,,,,,,,,,,,,,,53,,,,,,,,,,,,,,388.77699996423326,,response,,,,99,,,,,,,Space,keypress(Space),,,,,,,,---- -- ----- -- ------ - lasting --- ----------<br>------------- ------ ------ ---- ---- ------- ----- -- ----<br>-------- ------- -- ---------- --- - --- ----- ----- ----<br>---- --- --- ----- --- ---- ---- ------- ----- ---- -------<br>--- --- -- ----- -- --- ---- -- --- ---- -- ------ ------<br>--- ----- -- ----,160318.89999997616,160318.09999996424,159912.528,159918.09999996424,159929.323,160329.278,,6,lasting
screen,html.Screen,2_1_0_1_7,2022-02-02T13:29:18.398Z,,,,,,,,,,,,,,,,,53,,,,,,,,,,,,,,349.52199995232513,,response,,,,99,,,,,,,Space,keypress(Space),,,,,,,,---- -- ----- -- ------ - ------- and ----------<br>------------- ------ ------ ---- ---- ------- ----- -- ----<br>-------- ------- -- ---------- --- - --- ----- ----- ----<br>---- --- --- ----- --- ---- ---- ------- ----- ---- -------<br>--- --- -- ----- -- --- ---- -- --- ---- -- ------ ------<br>--- ----- -- ----,160679.5,160678.79999995232,160312.697,160319.09999996424,160329.278,160695.841,,7,and
screen,html.Screen,2_1_0_1_8,2022-02-02T13:29:18.846Z,,,,,,,,,,,,,,,,,53,,,,,,,,,,,,,,430.7589999642514,,response,,,,99,,,,,,,Space,keypress(Space),,,,,,,,---- -- ----- -- ------ - ------- --- fulfilling<br>------------- ------ ------ ---- ---- ------- ----- -- ----<br>-------- ------- -- ---------- --- - --- ----- ----- ----<br>---- --- --- ----- --- ---- ---- ------- ----- ---- -------<br>--- --- -- ----- -- --- ---- -- --- ---- -- ------ ------<br>--- ----- -- ----,161127.39999997616,161126.59999996424,160678.947,160679.69999998808,160695.841,161154.801,,8,fulfilling
screen,html.Screen,2_1_0_1_9,2022-02-02T13:29:19.238Z,,,,,,,,,,,,,,,,,53,,,,,,,,,,,,,,363.99899995230953,,response,,,,99,,,,,,,Space,keypress(Space),,,,,,,,"---- -- ----- -- ------ - ------- --- ----------<br>relationship, ------ ------ ---- ---- ------- ----- -- ----<br>-------- ------- -- ---------- --- - --- ----- ----- ----<br>---- --- --- ----- --- ---- ---- ------- ----- ---- -------<br>--- --- -- ----- -- --- ---- -- --- ---- -- ------ ------<br>--- ----- -- ----",161519.59999996424,161518.79999995232,161112.253,161127.59999996424,161154.801,161528.908,,9,"relationship,"
screen,html.Screen,2_1_0_1_10,2022-02-02T13:29:19.722Z,,,,,,,,,,,,,,,,,53,,,,,,,,,,,,,,473.5920000000042,,response,,,,99,,,,,,,Space,keypress(Space),,,,,,,,---- -- ----- -- ------ - ------- --- ----------<br>------------- common ------ ---- ---- ------- ----- -- ----<br>-------- ------- -- ---------- --- - --- ----- ----- ----<br>---- --- --- ----- --- ---- ---- ------- ----- ---- -------<br>--- --- -- ----- -- --- ---- -- --- ---- -- ------ ------<br>--- ----- -- ----,162003.29999995232,162002.5,161512.09,161519.79999995232,161528.908,162012.089,,10,common
screen,html.Screen,2_1_0_1_11,2022-02-02T13:29:20.187Z,,,,,,,,,,,,,,,,,53,,,,,,,,,,,,,,455.4109999999928,,response,,,,99,,,,,,,Space,keypress(Space),,,,,,,,---- -- ----- -- ------ - ------- --- ----------<br>------------- ------ wisdom ---- ---- ------- ----- -- ----<br>-------- ------- -- ---------- --- - --- ----- ----- ----<br>---- --- --- ----- --- ---- ---- ------- ----- ---- -------<br>--- --- -- ----- -- --- ---- -- --- ---- -- ------ ------<br>--- ----- -- ----,162468.29999995232,162467.5,161995.419,162003.59999996424,162012.089,162478.58,,11,wisdom
screen,html.Screen,2_1_0_1_12,2022-02-02T13:29:20.785Z,,,,,,,,,,,,,,,,,53,,,,,,,,,,,,,,587.4200000000128,,response,,,,99,,,,,,,Space,keypress(Space),,,,,,,,---- -- ----- -- ------ - ------- --- ----------<br>------------- ------ ------ says ---- ------- ----- -- ----<br>-------- ------- -- ---------- --- - --- ----- ----- ----<br>---- --- --- ----- --- ---- ---- ------- ----- ---- -------<br>--- --- -- ----- -- --- ---- -- --- ---- -- ------ ------<br>--- ----- -- ----,163066.79999995232,163066,162461.867,162468.39999997616,162478.58,163078.448,,12,says
screen,html.Screen,2_1_0_1_13,2022-02-02T13:29:21.180Z,,,,,,,,,,,,,,,,,53,,,,,,,,,,,,,,382.15199996423326,,response,,,,99,,,,,,,Space,keypress(Space),,,,,,,,---- -- ----- -- ------ - ------- --- ----------<br>------------- ------ ------ ---- that ------- ----- -- ----<br>-------- ------- -- ---------- --- - --- ----- ----- ----<br>---- --- --- ----- --- ---- ---- ------- ----- ---- -------<br>--- --- -- ----- -- --- ---- -- --- ---- -- ------ ------<br>--- ----- -- ----,163461.29999995232,163460.59999996424,163061.618,163066.89999997616,163078.448,163478.293,,13,that
screen,html.Screen,2_1_0_1_14,2022-02-02T13:29:21.634Z,,,,,,,,,,,,,,,,,53,,,,,,,,,,,,,,436.106999976153,,response,,,,99,,,,,,,Space,keypress(Space),,,,,,,,---- -- ----- -- ------ - ------- --- ----------<br>------------- ------ ------ ---- ---- feeling ----- -- ----<br>-------- ------- -- ---------- --- - --- ----- ----- ----<br>---- --- --- ----- --- ---- ---- ------- ----- ---- -------<br>--- --- -- ----- -- --- ---- -- --- ---- -- ------ ------<br>--- ----- -- ----,163915.19999998808,163914.39999997616,163461.618,163461.5,163478.293,163928.164,,14,feeling
screen,html.Screen,2_1_0_1_15,2022-02-02T13:29:21.993Z,,,,,,,,,,,,,,,,,53,,,,,,,,,,,,,,345.0359999880893,,response,,,,99,,,,,,,Space,keypress(Space),,,,,,,,---- -- ----- -- ------ - ------- --- ----------<br>------------- ------ ------ ---- ---- ------- close -- ----<br>-------- ------- -- ---------- --- - --- ----- ----- ----<br>---- --- --- ----- --- ---- ---- ------- ----- ---- -------<br>--- --- -- ----- -- --- ---- -- --- ---- -- ------ ------<br>--- ----- -- ----,164274.09999996424,164273.19999998808,163911.607,163915.39999997616,163928.164,164277.996,,15,close
screen,html.Screen,2_1_0_1_16,2022-02-02T13:29:22.358Z,,,,,,,,,,,,,,,,,53,,,,,,,,,,,,,,360.70399998806533,,response,,,,99,,,,,,,Space,keypress(Space),,,,,,,,---- -- ----- -- ------ - ------- --- ----------<br>------------- ------ ------ ---- ---- ------- ----- to ----<br>-------- ------- -- ---------- --- - --- ----- ----- ----<br>---- --- --- ----- --- ---- ---- ------- ----- ---- -------<br>--- --- -- ----- -- --- ---- -- --- ---- -- ------ ------<br>--- ----- -- ----,164639.59999996424,164638.69999998808,164261.315,164274.29999995232,164277.996,164644.445,,16,to
screen,html.Screen,2_1_0_1_17,2022-02-02T13:29:22.706Z,,,,,,,,,,,,,,,,,53,,,,,,,,,,,,,,341.7549999880721,,response,,,,99,,,,,,,Space,keypress(Space),,,,,,,,---- -- ----- -- ------ - ------- --- ----------<br>------------- ------ ------ ---- ---- ------- ----- -- your<br>-------- ------- -- ---------- --- - --- ----- ----- ----<br>---- --- --- ----- --- ---- ---- ------- ----- ---- -------<br>--- --- -- ----- -- --- ---- -- --- ---- -- ------ ------<br>--- ----- -- ----,164986.89999997616,164986.19999998808,164627.884,164639.69999998808,164644.445,164994.413,,17,your
screen,html.Screen,2_1_0_1_18,2022-02-02T13:29:23.124Z,,,,,,,,,,,,,,,,,53,,,,,,,,,,,,,,410.58699999999953,,response,,,,99,,,,,,,Space,keypress(Space),,,,,,,,---- -- ----- -- ------ - ------- --- ----------<br>------------- ------ ------ ---- ---- ------- ----- -- ----<br>romantic ------- -- ---------- --- - --- ----- ----- ----<br>---- --- --- ----- --- ---- ---- ------- ----- ---- -------<br>--- --- -- ----- -- --- ---- -- --- ---- -- ------ ------<br>--- ----- -- ----,165405.89999997616,165405,164977.78,164987.19999998808,164994.413,165411.016,,18,romantic
screen,html.Screen,2_1_0_1_19,2022-02-02T13:29:23.489Z,,,,,,,,,,,,,,,,,53,,,,,,,,,,,,,,359.08399996423395,,response,,,,99,,,,,,,Space,keypress(Space),,,,,,,,---- -- ----- -- ------ - ------- --- ----------<br>------------- ------ ------ ---- ---- ------- ----- -- ----<br>-------- partner -- ---------- --- - --- ----- ----- ----<br>---- --- --- ----- --- ---- ---- ------- ----- ---- -------<br>--- --- -- ----- -- --- ---- -- --- ---- -- ------ ------<br>--- ----- -- ----,165770.79999995232,165770.09999996424,165394.295,165406.09999996424,165411.016,165777.533,,19,partner
screen,html.Screen,2_1_0_1_20,2022-02-02T13:29:23.899Z,,,,,,,,,,,,,,,,,53,,,,,,,,,,,,,,401.7669999523205,,response,,,,99,,,,,,,Space,keypress(Space),,,,,,,,---- -- ----- -- ------ - ------- --- ----------<br>------------- ------ ------ ---- ---- ------- ----- -- ----<br>-------- ------- is ---------- --- - --- ----- ----- ----<br>---- --- --- ----- --- ---- ---- ------- ----- ---- -------<br>--- --- -- ----- -- --- ---- -- --- ---- -- ------ ------<br>--- ----- -- ----,166180,166179.29999995232,165760.818,165771,165777.533,166194.411,,20,is
screen,html.Screen,2_1_0_1_21,2022-02-02T13:29:24.439Z,,,,,,,,,,,,,,,,,53,,,,,,,,,,,,,,525.4889999761654,,response,,,,99,,,,,,,Space,keypress(Space),,,,,,,,---- -- ----- -- ------ - ------- --- ----------<br>------------- ------ ------ ---- ---- ------- ----- -- ----<br>-------- ------- -- paramount. --- - --- ----- ----- ----<br>---- --- --- ----- --- ---- ---- ------- ----- ---- -------<br>--- --- -- ----- -- --- ---- -- --- ---- -- ------ ------<br>--- ----- -- ----,166720.69999998808,166719.89999997616,166177.445,166180.19999998808,166194.411,166727.225,,21,paramount.
screen,html.Screen,2_1_0_1_22,2022-02-02T13:29:24.808Z,,,,,,,,,,,,,,,,,53,,,,,,,,,,,,,,360.97499998807325,,response,,,,99,,,,,,,Space,keypress(Space),,,,,,,,---- -- ----- -- ------ - ------- --- ----------<br>------------- ------ ------ ---- ---- ------- ----- -- ----<br>-------- ------- -- ---------- But - --- ----- ----- ----<br>---- --- --- ----- --- ---- ---- ------- ----- ---- -------<br>--- --- -- ----- -- --- ---- -- --- ---- -- ------ ------<br>--- ----- -- ----,167089,167088.19999998808,166710.514,166720.79999995232,166727.225,167093.879,,22,But
screen,html.Screen,2_1_0_1_23,2022-02-02T13:29:25.128Z,,,,,,,,,,,,,,,,,53,,,,,,,,,,,,,,315.12100000001374,,response,,,,99,,,,,,,Space,keypress(Space),,,,,,,,---- -- ----- -- ------ - ------- --- ----------<br>------------- ------ ------ ---- ---- ------- ----- -- ----<br>-------- ------- -- ---------- --- a --- ----- ----- ----<br>---- --- --- ----- --- ---- ---- ------- ----- ---- -------<br>--- --- -- ----- -- --- ---- -- --- ---- -- ------ ------<br>--- ----- -- ----,167409.89999997616,167409,167077.186,167089.09999996424,167093.879,167427.159,,23,a
screen,html.Screen,2_1_0_1_24,2022-02-02T13:29:25.486Z,,,,,,,,,,,,,,,,,53,,,,,,,,,,,,,,338.940999964223,,response,,,,99,,,,,,,Space,keypress(Space),,,,,,,,---- -- ----- -- ------ - ------- --- ----------<br>------------- ------ ------ ---- ---- ------- ----- -- ----<br>-------- ------- -- ---------- --- - new ----- ----- ----<br>---- --- --- ----- --- ---- ---- ------- ----- ---- -------<br>--- --- -- ----- -- --- ---- -- --- ---- -- ------ ------<br>--- ----- -- ----,167767,167766.09999996424,167410.496,167410,167427.159,167777.032,,24,new
screen,html.Screen,2_1_0_1_25,2022-02-02T13:29:25.886Z,,,,,,,,,,,,,,,,,53,,,,,,,,,,,,,,389.8679999761516,,response,,,,99,,,,,,,Space,keypress(Space),,,,,,,,---- -- ----- -- ------ - ------- --- ----------<br>------------- ------ ------ ---- ---- ------- ----- -- ----<br>-------- ------- -- ---------- --- - --- study ----- ----<br>---- --- --- ----- --- ---- ---- ------- ----- ---- -------<br>--- --- -- ----- -- --- ---- -- --- ---- -- ------ ------<br>--- ----- -- ----,168167.79999995232,168166.89999997616,167760.311,167767.19999998808,167777.032,168177.205,,25,study
screen,html.Screen,2_1_0_1_26,2022-02-02T13:29:26.171Z,,,,,,,,,,,,,,,,,53,,,,,,,,,,,,,,274.89499996425,,response,,,,99,,,,,,,Space,keypress(Space),,,,,,,,---- -- ----- -- ------ - ------- --- ----------<br>------------- ------ ------ ---- ---- ------- ----- -- ----<br>-------- ------- -- ---------- --- - --- ----- finds ----<br>---- --- --- ----- --- ---- ---- ------- ----- ---- -------<br>--- --- -- ----- -- --- ---- -- --- ---- -- ------ ------<br>--- ----- -- ----,168452.79999995232,168452.09999996424,168160.062,168167.89999997616,168177.205,168460.365,,26,finds
screen,html.Screen,2_1_0_1_27,2022-02-02T13:29:26.577Z,,,,,,,,,,,,,,,,,53,,,,,,,,,,,,,,397.6350000000093,,response,,,,99,,,,,,,Space,keypress(Space),,,,,,,,---- -- ----- -- ------ - ------- --- ----------<br>------------- ------ ------ ---- ---- ------- ----- -- ----<br>-------- ------- -- ---------- --- - --- ----- ----- that<br>---- --- --- ----- --- ---- ---- ------- ----- ---- -------<br>--- --- -- ----- -- --- ---- -- --- ---- -- ------ ------<br>--- ----- -- ----,168858.79999995232,168858,168443.495,168452.89999997616,168460.365,168877.642,,27,that
screen,html.Screen,2_1_0_1_28,2022-02-02T13:29:26.944Z,,,,,,,,,,,,,,,,,53,,,,,,,,,,,,,,346.95799996424466,,response,,,,99,,,,,,,Space,keypress(Space),,,,,,,,---- -- ----- -- ------ - ------- --- ----------<br>------------- ------ ------ ---- ---- ------- ----- -- ----<br>-------- ------- -- ---------- --- - --- ----- ----- ----<br>it's --- --- ----- --- ---- ---- ------- ----- ---- -------<br>--- --- -- ----- -- --- ---- -- --- ---- -- ------ ------<br>--- ----- -- ----,169225.29999995232,169224.59999996424,168843.53,168859,168877.642,169248.307,,28,it's
screen,html.Screen,2_1_0_1_29,2022-02-02T13:29:27.272Z,,,,,,,,,,,,,,,,,53,,,,,,,,,,,,,,304.6929999999993,,response,,,,99,,,,,,,Space,keypress(Space),,,,,,,,---- -- ----- -- ------ - ------- --- ----------<br>------------- ------ ------ ---- ---- ------- ----- -- ----<br>-------- ------- -- ---------- --- - --- ----- ----- ----<br>---- not --- ----- --- ---- ---- ------- ----- ---- -------<br>--- --- -- ----- -- --- ---- -- --- ---- -- ------ ------<br>--- ----- -- ----,169553.79999995232,169553,169209.849,169225.39999997616,169248.307,169559.973,,29,not
screen,html.Screen,2_1_0_1_30,2022-02-02T13:29:27.756Z,,,,,,,,,,,,,,,,,53,,,,,,,,,,,,,,476.42699997616,,response,,,,99,,,,,,,Space,keypress(Space),,,,,,,,---- -- ----- -- ------ - ------- --- ----------<br>------------- ------ ------ ---- ---- ------- ----- -- ----<br>-------- ------- -- ---------- --- - --- ----- ----- ----<br>---- --- how ----- --- ---- ---- ------- ----- ---- -------<br>--- --- -- ----- -- --- ---- -- --- ---- -- ------ ------<br>--- ----- -- ----,170037.19999998808,170036.39999997616,169543.338,169553.89999997616,169559.973,170043.067,,30,how
screen,html.Screen,2_1_0_1_31,2022-02-02T13:29:28.112Z,,,,,,,,,,,,,,,,,53,,,,,,,,,,,,,,349.7329999523063,,response,,,,99,,,,,,,Space,keypress(Space),,,,,,,,---- -- ----- -- ------ - ------- --- ----------<br>------------- ------ ------ ---- ---- ------- ----- -- ----<br>-------- ------- -- ---------- --- - --- ----- ----- ----<br>---- --- --- close --- ---- ---- ------- ----- ---- -------<br>--- --- -- ----- -- --- ---- -- --- ---- -- ------ ------<br>--- ----- -- ----,170393.69999998808,170392.79999995232,170026.336,170037.29999995232,170043.067,170409.487,,31,close
screen,html.Screen,2_1_0_1_32,2022-02-02T13:29:28.443Z,,,,,,,,,,,,,,,,,53,,,,,,,,,,,,,,313.81299995232257,,response,,,,99,,,,,,,Space,keypress(Space),,,,,,,,---- -- ----- -- ------ - ------- --- ----------<br>------------- ------ ------ ---- ---- ------- ----- -- ----<br>-------- ------- -- ---------- --- - --- ----- ----- ----<br>---- --- --- ----- you ---- ---- ------- ----- ---- -------<br>--- --- -- ----- -- --- ---- -- --- ---- -- ------ ------<br>--- ----- -- ----,170724.09999996424,170723.29999995232,170392.888,170393.89999997616,170409.487,170726.066,,32,you
screen,html.Screen,2_1_0_1_33,2022-02-02T13:29:28.743Z,,,,,,,,,,,,,,,,,53,,,,,,,,,,,,,,297.9340000000084,,response,,,,99,,,,,,,Space,keypress(Space),,,,,,,,---- -- ----- -- ------ - ------- --- ----------<br>------------- ------ ------ ---- ---- ------- ----- -- ----<br>-------- ------- -- ---------- --- - --- ----- ----- ----<br>---- --- --- ----- --- feel ---- ------- ----- ---- -------<br>--- --- -- ----- -- --- ---- -- --- ---- -- ------ ------<br>--- ----- -- ----,171024.79999995232,171024,170709.495,170724.29999995232,170726.066,171045.067,,33,feel
screen,html.Screen,2_1_0_1_34,2022-02-02T13:29:29.074Z,,,,,,,,,,,,,,,,,53,,,,,,,,,,,,,,309.83299997614813,,response,,,,99,,,,,,,Space,keypress(Space),,,,,,,,---- -- ----- -- ------ - ------- --- ----------<br>------------- ------ ------ ---- ---- ------- ----- -- ----<br>-------- ------- -- ---------- --- - --- ----- ----- ----<br>---- --- --- ----- --- ---- that ------- ----- ---- -------<br>--- --- -- ----- -- --- ---- -- --- ---- -- ------ ------<br>--- ----- -- ----,171355.69999998808,171354.89999997616,171009.282,171024.89999997616,171045.067,171359.194,,34,that
screen,html.Screen,2_1_0_1_35,2022-02-02T13:29:29.398Z,,,,,,,,,,,,,,,,,53,,,,,,,,,,,,,,319.4059999642486,,response,,,,99,,,,,,,Space,keypress(Space),,,,,,,,---- -- ----- -- ------ - ------- --- ----------<br>------------- ------ ------ ---- ---- ------- ----- -- ----<br>-------- ------- -- ---------- --- - --- ----- ----- ----<br>---- --- --- ----- --- ---- ---- matters ----- ---- -------<br>--- --- -- ----- -- --- ---- -- --- ---- -- ------ ------<br>--- ----- -- ----,171679.39999997616,171678.59999996424,171342.566,171356,171359.194,171692.806,,35,matters
screen,html.Screen,2_1_0_1_36,2022-02-02T13:29:29.981Z,,,,,,,,,,,,,,,,,53,,,,,,,,,,,,,,568.6939999999886,,response,,,,99,,,,,,,Space,keypress(Space),,,,,,,,"---- -- ----- -- ------ - ------- --- ----------<br>------------- ------ ------ ---- ---- ------- ----- -- ----<br>-------- ------- -- ---------- --- - --- ----- ----- ----<br>---- --- --- ----- --- ---- ---- ------- most, ---- -------<br>--- --- -- ----- -- --- ---- -- --- ---- -- ------ ------<br>--- ----- -- ----",172262.19999998808,172261.5,171676.035,171680.89999997616,171692.806,172276.085,,36,"most,"
screen,html.Screen,2_1_0_1_37,2022-02-02T13:29:30.380Z,,,,,,,,,,,,,,,,,53,,,,,,,,,,,,,,384.21499995232443,,response,,,,99,,,,,,,Space,keypress(Space),,,,,,,,---- -- ----- -- ------ - ------- --- ----------<br>------------- ------ ------ ---- ---- ------- ----- -- ----<br>-------- ------- -- ---------- --- - --- ----- ----- ----<br>---- --- --- ----- --- ---- ---- ------- ----- it's -------<br>--- --- -- ----- -- --- ---- -- --- ---- -- ------ ------<br>--- ----- -- ----,172660.89999997616,172660.29999995232,172259.674,172262.39999997616,172276.085,172675.809,,37,it's
screen,html.Screen,2_1_0_1_38,2022-02-02T13:29:30.735Z,,,,,,,,,,,,,,,,,53,,,,,,,,,,,,,,340.09099997614976,,response,,,,99,,,,,,,Space,keypress(Space),,,,,,,,---- -- ----- -- ------ - ------- --- ----------<br>------------- ------ ------ ---- ---- ------- ----- -- ----<br>-------- ------- -- ---------- --- - --- ----- ----- ----<br>---- --- --- ----- --- ---- ---- ------- ----- ---- whether<br>--- --- -- ----- -- --- ---- -- --- ---- -- ------ ------<br>--- ----- -- ----,173016.69999998808,173015.89999997616,172658.895,172661.09999996424,172675.809,173025.692,,38,whether
screen,html.Screen,2_1_0_1_39,2022-02-02T13:29:31.109Z,,,,,,,,,,,,,,,,,53,,,,,,,,,,,,,,363.9079999642272,,response,,,,99,,,,,,,Space,keypress(Space),,,,,,,,---- -- ----- -- ------ - ------- --- ----------<br>------------- ------ ------ ---- ---- ------- ----- -- ----<br>-------- ------- -- ---------- --- - --- ----- ----- ----<br>---- --- --- ----- --- ---- ---- ------- ----- ---- -------<br>you --- -- ----- -- --- ---- -- --- ---- -- ------ ------<br>--- ----- -- ----,173390.29999995232,173389.59999996424,173008.969,173016.89999997616,173025.692,173417.563,,39,you
screen,html.Screen,2_1_0_1_40,2022-02-02T13:29:31.471Z,,,,,,,,,,,,,,,,,53,,,,,,,,,,,,,,334.1369999880844,,response,,,,99,,,,,,,Space,keypress(Space),,,,,,,,---- -- ----- -- ------ - ------- --- ----------<br>------------- ------ ------ ---- ---- ------- ----- -- ----<br>-------- ------- -- ---------- --- - --- ----- ----- ----<br>---- --- --- ----- --- ---- ---- ------- ----- ---- -------<br>--- are -- ----- -- --- ---- -- --- ---- -- ------ ------<br>--- ----- -- ----,173752.5,173751.69999998808,173375.352,173390.59999996424,173417.563,173758.655,,40,are
screen,html.Screen,2_1_0_1_41,2022-02-02T13:29:31.814Z,,,,,,,,,,,,,,,,,53,,,,,,,,,,,,,,335.64499995231745,,response,,,,99,,,,,,,Space,keypress(Space),,,,,,,,---- -- ----- -- ------ - ------- --- ----------<br>------------- ------ ------ ---- ---- ------- ----- -- ----<br>-------- ------- -- ---------- --- - --- ----- ----- ----<br>---- --- --- ----- --- ---- ---- ------- ----- ---- -------<br>--- --- as ----- -- --- ---- -- --- ---- -- ------ ------<br>--- ----- -- ----,174095.09999996424,174094.29999995232,173742.119,173752.69999998808,173758.655,174108.474,,41,as
screen,html.Screen,2_1_0_1_42,2022-02-02T13:29:32.184Z,,,,,,,,,,,,,,,,,53,,,,,,,,,,,,,,356.72599998809164,,response,,,,99,,,,,,,Space,keypress(Space),,,,,,,,---- -- ----- -- ------ - ------- --- ----------<br>------------- ------ ------ ---- ---- ------- ----- -- ----<br>-------- ------- -- ---------- --- - --- ----- ----- ----<br>---- --- --- ----- --- ---- ---- ------- ----- ---- -------<br>--- --- -- close -- --- ---- -- --- ---- -- ------ ------<br>--- ----- -- ----,174465.89999997616,174465.19999998808,174091.82,174095.19999998808,174108.474,174475.252,,42,close
screen,html.Screen,2_1_0_1_43,2022-02-02T13:29:32.504Z,,,,,,,,,,,,,,,,,53,,,,,,,,,,,,,,309.0479999523086,,response,,,,99,,,,,,,Space,keypress(Space),,,,,,,,---- -- ----- -- ------ - ------- --- ----------<br>------------- ------ ------ ---- ---- ------- ----- -- ----<br>-------- ------- -- ---------- --- - --- ----- ----- ----<br>---- --- --- ----- --- ---- ---- ------- ----- ---- -------<br>--- --- -- ----- as --- ---- -- --- ---- -- ------ ------<br>--- ----- -- ----,174785.09999996424,174784.29999995232,174458.682,174466,174475.252,174791.732,,43,as
screen,html.Screen,2_1_0_1_44,2022-02-02T13:29:32.915Z,,,,,,,,,,,,,,,,,53,,,,,,,,,,,,,,403.96799998809,,response,,,,99,,,,,,,Space,keypress(Space),,,,,,,,---- -- ----- -- ------ - ------- --- ----------<br>------------- ------ ------ ---- ---- ------- ----- -- ----<br>-------- ------- -- ---------- --- - --- ----- ----- ----<br>---- --- --- ----- --- ---- ---- ------- ----- ---- -------<br>--- --- -- ----- -- you ---- -- --- ---- -- ------ ------<br>--- ----- -- ----,175196.5,175195.69999998808,174774.97,174785.19999998808,174791.732,175208.217,,44,you
screen,html.Screen,2_1_0_1_45,2022-02-02T13:29:33.241Z,,,,,,,,,,,,,,,,,53,,,,,,,,,,,,,,313.68299997615395,,response,,,,99,,,,,,,Space,keypress(Space),,,,,,,,---- -- ----- -- ------ - ------- --- ----------<br>------------- ------ ------ ---- ---- ------- ----- -- ----<br>-------- ------- -- ---------- --- - --- ----- ----- ----<br>---- --- --- ----- --- ---- ---- ------- ----- ---- -------<br>--- --- -- ----- -- --- want -- --- ---- -- ------ ------<br>--- ----- -- ----,175522.69999998808,175521.89999997616,175191.442,175196.59999996424,175208.217,175524.676,,45,want
screen,html.Screen,2_1_0_1_46,2022-02-02T13:29:33.567Z,,,,,,,,,,,,,,,,,53,,,,,,,,,,,,,,322.92399996423046,,response,,,,99,,,,,,,Space,keypress(Space),,,,,,,,---- -- ----- -- ------ - ------- --- ----------<br>------------- ------ ------ ---- ---- ------- ----- -- ----<br>-------- ------- -- ---------- --- - --- ----- ----- ----<br>---- --- --- ----- --- ---- ---- ------- ----- ---- -------<br>--- --- -- ----- -- --- ---- to --- ---- -- ------ ------<br>--- ----- -- ----,175848.39999997616,175847.59999996424,175508.19,175522.79999995232,175524.676,175858.133,,46,to
screen,html.Screen,2_1_0_1_47,2022-02-02T13:29:33.931Z,,,,,,,,,,,,,,,,,53,,,,,,,,,,,,,,352.9669999642356,,response,,,,99,,,,,,,Space,keypress(Space),,,,,,,,"---- -- ----- -- ------ - ------- --- ----------<br>------------- ------ ------ ---- ---- ------- ----- -- ----<br>-------- ------- -- ---------- --- - --- ----- ----- ----<br>---- --- --- ----- --- ---- ---- ------- ----- ---- -------<br>--- --- -- ----- -- --- ---- -- be, ---- -- ------ ------<br>--- ----- -- ----",176211.89999997616,176211.09999996424,175841.316,175848.59999996424,175858.133,176224.708,,47,"be,"
screen,html.Screen,2_1_0_1_48,2022-02-02T13:29:34.272Z,,,,,,,,,,,,,,,,,53,,,,,,,,,,,,,,327.69199997614487,,response,,,,99,,,,,,,Space,keypress(Space),,,,,,,,---- -- ----- -- ------ - ------- --- ----------<br>------------- ------ ------ ---- ---- ------- ----- -- ----<br>-------- ------- -- ---------- --- - --- ----- ----- ----<br>---- --- --- ----- --- ---- ---- ------- ----- ---- -------<br>--- --- -- ----- -- --- ---- -- --- even -- ------ ------<br>--- ----- -- ----,176553.19999998808,176552.39999997616,176207.886,176212.09999996424,176224.708,176557.723,,48,even
screen,html.Screen,2_1_0_1_49,2022-02-02T13:29:34.588Z,,,,,,,,,,,,,,,,,53,,,,,,,,,,,,,,310.97699998808093,,response,,,,99,,,,,,,Space,keypress(Space),,,,,,,,---- -- ----- -- ------ - ------- --- ----------<br>------------- ------ ------ ---- ---- ------- ----- -- ----<br>-------- ------- -- ---------- --- - --- ----- ----- ----<br>---- --- --- ----- --- ---- ---- ------- ----- ---- -------<br>--- --- -- ----- -- --- ---- -- --- ---- if ------ ------<br>--- ----- -- ----,176869.39999997616,176868.69999998808,176541.101,176553.29999995232,176557.723,176874.358,,49,if
screen,html.Screen,2_1_0_1_50,2022-02-02T13:29:34.931Z,,,,,,,,,,,,,,,,,53,,,,,,,,,,,,,,337.14199999999255,,response,,,,99,,,,,,,Space,keypress(Space),,,,,,,,---- -- ----- -- ------ - ------- --- ----------<br>------------- ------ ------ ---- ---- ------- ----- -- ----<br>-------- ------- -- ---------- --- - --- ----- ----- ----<br>---- --- --- ----- --- ---- ---- ------- ----- ---- -------<br>--- --- -- ----- -- --- ---- -- --- ---- -- that's ------<br>--- ----- -- ----,177212.39999997616,177211.5,176857.915,176869.59999996424,176874.358,177224.231,,50,that's
screen,html.Screen,2_1_0_1_51,2022-02-02T13:29:35.294Z,,,,,,,,,,,,,,,,,53,,,,,,,,,,,,,,349.9689999880793,,response,,,,99,,,,,,,Space,keypress(Space),,,,,,,,---- -- ----- -- ------ - ------- --- ----------<br>------------- ------ ------ ---- ---- ------- ----- -- ----<br>-------- ------- -- ---------- --- - --- ----- ----- ----<br>---- --- --- ----- --- ---- ---- ------- ----- ---- -------<br>--- --- -- ----- -- --- ---- -- --- ---- -- ------ really<br>--- ----- -- ----,177575,177574.19999998808,177207.536,177212.5,177224.231,177591.063,,51,really
screen,html.Screen,2_1_0_1_52,2022-02-02T13:29:35.644Z,,,,,,,,,,,,,,,,,53,,,,,,,,,,,,,,333.3369999761635,,response,,,,99,,,,,,,Space,keypress(Space),,,,,,,,---- -- ----- -- ------ - ------- --- ----------<br>------------- ------ ------ ---- ---- ------- ----- -- ----<br>-------- ------- -- ---------- --- - --- ----- ----- ----<br>---- --- --- ----- --- ---- ---- ------- ----- ---- -------<br>--- --- -- ----- -- --- ---- -- --- ---- -- ------ ------<br>not ----- -- ----,177925.19999998808,177924.39999997616,177574.057,177575.09999996424,177591.063,177940.734,,52,not
screen,html.Screen,2_1_0_1_53,2022-02-02T13:29:35.983Z,,,,,,,,,,,,,,,,,53,,,,,,,,,,,,,,322.8659999642405,,response,,,,99,,,,,,,Space,keypress(Space),,,,,,,,---- -- ----- -- ------ - ------- --- ----------<br>------------- ------ ------ ---- ---- ------- ----- -- ----<br>-------- ------- -- ---------- --- - --- ----- ----- ----<br>---- --- --- ----- --- ---- ---- ------- ----- ---- -------<br>--- --- -- ----- -- --- ---- -- --- ---- -- ------ ------<br>--- close -- ----,178264.39999997616,178263.59999996424,177924.256,177925.39999997616,177940.734,178274.295,,53,close
screen,html.Screen,2_1_0_1_54,2022-02-02T13:29:36.419Z,,,,,,,,,,,,,,,,,53,,,,,,,,,,,,,,425.7049999999872,,response,,,,99,,,,,,,Space,keypress(Space),,,,,,,,---- -- ----- -- ------ - ------- --- ----------<br>------------- ------ ------ ---- ---- ------- ----- -- ----<br>-------- ------- -- ---------- --- - --- ----- ----- ----<br>---- --- --- ----- --- ---- ---- ------- ----- ---- -------<br>--- --- -- ----- -- --- ---- -- --- ---- -- ------ ------<br>--- ----- at ----,178700.69999998808,178700,178257.795,178264.59999996424,178274.295,178707.275,,54,at
screen,html.Screen,2_1_0_1_55,2022-02-02T13:29:36.856Z,,,,,,,,,,,,,,,,,53,,,,,,,,,,,,,,429.7250000000058,,response,,,,99,,,,,,,Space,keypress(Space),,,,,,,,---- -- ----- -- ------ - ------- --- ----------<br>------------- ------ ------ ---- ---- ------- ----- -- ----<br>-------- ------- -- ---------- --- - --- ----- ----- ----<br>---- --- --- ----- --- ---- ---- ------- ----- ---- -------<br>--- --- -- ----- -- --- ---- -- --- ---- -- ------ ------<br>--- ----- -- all.,179137.79999995232,179137,178690.508,178700.89999997616,178707.275,179140.232,,55,all.
Item 99,flow.Loop,2_1_0_1,2022-02-02T13:29:36.857Z,,,,,,,,,,,,,,,,,,,,,,,,,,,,,,,22490.125,,completion,,,,,B,,,,,,,,,,,silence,,,,,179138.19999998808,179137,156630.269,156631.39999997616,156646.875,179140.232,,,
Question 1,html.Screen,2_1_0_2,2022-02-02T13:29:47.589Z,,,,,,,,,,,,,,,,,,,,,,,,,,,,true,FALSE,,10728.768000000011,,response,,,,99,B,,,,,,FALSE,click #choice-2,,,,silence,,,,,189870.19999998808,189869,179123.587,179138.39999997616,179140.232,189897.221,,,
Question 2,html.Screen,2_1_0_3,2022-02-02T13:29:51.074Z,,,,,,,,,,,,,,,,,,,,,,,,,,,,true,TRUE,,3457.078999952326,,response,,,,99,B,,,,,,TRUE,click #choice-1,,,,silence,,,,,193355.39999997616,193354.29999995232,189853.856,189870.39999997616,189897.221,193369.67,,,
Item 99,flow.Sequence,2_1_0,2022-02-02T13:29:51.074Z,,,,,,,,,,,,,,,,,,,,,,,,,,,,,,,46704.47199995231,,completion,,,,,,,,,,,,,,,,,,,,,193355.5,193354.29999995232,146633.147,146648.39999997616,146649.828,193369.67,,,
Holding screen,html.Screen,2_1_1_0,2022-02-02T13:30:01.070Z,,,,,,,,,,,,,,,,,,,,,,,,,,,,,,,9997.180999999982,,timeout,,,,,,,,,,,,,,,,,,,,,203351,203350.055,193352.833,193355.69999998808,193369.67,203366.851,,,
screen,html.Screen,2_1_1_1_0,2022-02-02T13:30:02.518Z,,,,,,,,,,,,,,,,,54,,,,,,,,,,,,,,1431.4489999523212,,response,,,,100,,,,,,,Space,keypress(Space),,,,,,,,At --- ---- --- ------ ----- ------- ---- -- --- ------- --<br>------- ---------- ------ -- ----- -- ----- -- ---- ------<br>--- ----- --- --- ------ -------- ----- --- ------ ----- --<br>----- ----- ---------- --- --- ------ ------ ---- -- ------<br>------- --- ------ ----- --- ---- ------- -- ---- --- --<br>------- ------,204799,204798.29999995232,203350.055,203351.09999996424,203366.851,204824.441,,0,At
screen,html.Screen,2_1_1_1_1,2022-02-02T13:30:02.891Z,,,,,,,,,,,,,,,,,54,,,,,,,,,,,,,,347.1589999642456,,response,,,,100,,,,,,,Space,keypress(Space),,,,,,,,-- the ---- --- ------ ----- ------- ---- -- --- ------- --<br>------- ---------- ------ -- ----- -- ----- -- ---- ------<br>--- ----- --- --- ------ -------- ----- --- ------ ----- --<br>----- ----- ---------- --- --- ------ ------ ---- -- ------<br>------- --- ------ ----- --- ---- ------- -- ---- --- --<br>------- ------,205172.29999995232,205171.59999996424,204782.831,204799.19999998808,204824.441,205182.987,,1,the
screen,html.Screen,2_1_1_1_2,2022-02-02T13:30:03.201Z,,,,,,,,,,,,,,,,,54,,,,,,,,,,,,,,298.1129999642435,,response,,,,100,,,,,,,Space,keypress(Space),,,,,,,,-- --- time --- ------ ----- ------- ---- -- --- ------- --<br>------- ---------- ------ -- ----- -- ----- -- ---- ------<br>--- ----- --- --- ------ -------- ----- --- ------ ----- --<br>----- ----- ---------- --- --- ------ ------ ---- -- ------<br>------- --- ------ ----- --- ---- ------- -- ---- --- --<br>------- ------,205482,205481.09999996424,205166.039,205172.5,205182.987,205516.179,,2,time
screen,html.Screen,2_1_1_1_3,2022-02-02T13:30:03.613Z,,,,,,,,,,,,,,,,,54,,,,,,,,,,,,,,377.62099995231256,,response,,,,100,,,,,,,Space,keypress(Space),,,,,,,,-- --- ---- the ------ ----- ------- ---- -- --- ------- --<br>------- ---------- ------ -- ----- -- ----- -- ---- ------<br>--- ----- --- --- ------ -------- ----- --- ------ ----- --<br>----- ----- ---------- --- --- ------ ------ ---- -- ------<br>------- --- ------ ----- --- ---- ------- -- ---- --- --<br>------- ------,205894.59999996424,205893.79999995232,205499.312,205482.09999996424,205516.179,205899.155,,3,the
screen,html.Screen,2_1_1_1_4,2022-02-02T13:30:04.059Z,,,,,,,,,,,,,,,,,54,,,,,,,,,,,,,,440.54499998808024,,response,,,,100,,,,,,,Space,keypress(Space),,,,,,,,-- --- ---- --- French ----- ------- ---- -- --- ------- --<br>------- ---------- ------ -- ----- -- ----- -- ---- ------<br>--- ----- --- --- ------ -------- ----- --- ------ ----- --<br>----- ----- ---------- --- --- ------ ------ ---- -- ------<br>------- --- ------ ----- --- ---- ------- -- ---- --- --<br>------- ------,206340.39999997616,206339.69999998808,205882.451,205894.69999998808,205899.155,206348.961,,4,French
screen,html.Screen,2_1_1_1_5,2022-02-02T13:30:04.387Z,,,,,,,,,,,,,,,,,54,,,,,,,,,,,,,,319.03899999998976,,response,,,,100,,,,,,,Space,keypress(Space),,,,,,,,-- --- ---- --- ------ crown ------- ---- -- --- ------- --<br>------- ---------- ------ -- ----- -- ----- -- ---- ------<br>--- ----- --- --- ------ -------- ----- --- ------ ----- --<br>----- ----- ---------- --- --- ------ ------ ---- -- ------<br>------- --- ------ ----- --- ---- ------- -- ---- --- --<br>------- ------,206668.79999995232,206668,206332.376,206340.5,206348.961,206682.299,,5,crown
screen,html.Screen,2_1_1_1_6,2022-02-02T13:30:04.777Z,,,,,,,,,,,,,,,,,54,,,,,,,,,,,,,,375.90099998808,,response,,,,100,,,,,,,Space,keypress(Space),,,,,,,,-- --- ---- --- ------ ----- secured ---- -- --- ------- --<br>------- ---------- ------ -- ----- -- ----- -- ---- ------<br>--- ----- --- --- ------ -------- ----- --- ------ ----- --<br>----- ----- ---------- --- --- ------ ------ ---- -- ------<br>------- --- ------ ----- --- ---- ------- -- ---- --- --<br>------- ------,207059,207058.19999998808,206665.572,206668.89999997616,206682.299,207065.511,,6,secured
screen,html.Screen,2_1_1_1_7,2022-02-02T13:30:05.280Z,,,,,,,,,,,,,,,,,54,,,,,,,,,,,,,,495.2889999523177,,response,,,,100,,,,,,,Space,keypress(Space),,,,,,,,-- --- ---- --- ------ ----- ------- much -- --- ------- --<br>------- ---------- ------ -- ----- -- ----- -- ---- ------<br>--- ----- --- --- ------ -------- ----- --- ------ ----- --<br>----- ----- ---------- --- --- ------ ------ ---- -- ------<br>------- --- ------ ----- --- ---- ------- -- ---- --- --<br>------- ------,207561.5,207560.79999995232,207049.038,207059.19999998808,207065.511,207566.16,,7,much
screen,html.Screen,2_1_1_1_8,2022-02-02T13:30:05.593Z,,,,,,,,,,,,,,,,,54,,,,,,,,,,,,,,307.73999997615465,,response,,,,100,,,,,,,Space,keypress(Space),,,,,,,,-- --- ---- --- ------ ----- ------- ---- of --- ------- --<br>------- ---------- ------ -- ----- -- ----- -- ---- ------<br>--- ----- --- --- ------ -------- ----- --- ------ ----- --<br>----- ----- ---------- --- --- ------ ------ ---- -- ------<br>------- --- ------ ----- --- ---- ------- -- ---- --- --<br>------- ------,207874.59999996424,207873.89999997616,207548.654,207561.69999998808,207566.16,207881.822,,8,of
screen,html.Screen,2_1_1_1_9,2022-02-02T13:30:05.923Z,,,,,,,,,,,,,,,,,54,,,,,,,,,,,,,,321.8779999880935,,response,,,,100,,,,,,,Space,keypress(Space),,,,,,,,-- --- ---- --- ------ ----- ------- ---- -- its ------- --<br>------- ---------- ------ -- ----- -- ----- -- ---- ------<br>--- ----- --- --- ------ -------- ----- --- ------ ----- --<br>----- ----- ---------- --- --- ------ ------ ---- -- ------<br>------- --- ------ ----- --- ---- ------- -- ---- --- --<br>------- ------,208204.59999996424,208203.69999998808,207865.243,207874.69999998808,207881.822,208215.464,,9,its
screen,html.Screen,2_1_1_1_10,2022-02-02T13:30:06.242Z,,,,,,,,,,,,,,,,,54,,,,,,,,,,,,,,307.5359999999928,,response,,,,100,,,,,,,Space,keypress(Space),,,,,,,,-- --- ---- --- ------ ----- ------- ---- -- --- revenue --<br>------- ---------- ------ -- ----- -- ----- -- ---- ------<br>--- ----- --- --- ------ -------- ----- --- ------ ----- --<br>----- ----- ---------- --- --- ------ ------ ---- -- ------<br>------- --- ------ ----- --- ---- ------- -- ---- --- --<br>------- ------,208523.69999998808,208523,208198.491,208204.89999997616,208215.464,208532.344,,10,revenue
screen,html.Screen,2_1_1_1_11,2022-02-02T13:30:06.624Z,,,,,,,,,,,,,,,,,54,,,,,,,,,,,,,,373.05599997614627,,response,,,,100,,,,,,,Space,keypress(Space),,,,,,,,-- --- ---- --- ------ ----- ------- ---- -- --- ------- by<br>------- ---------- ------ -- ----- -- ----- -- ---- ------<br>--- ----- --- --- ------ -------- ----- --- ------ ----- --<br>----- ----- ---------- --- --- ------ ------ ---- -- ------<br>------- --- ------ ----- --- ---- ------- -- ---- --- --<br>------- ------,208906.09999996424,208905.39999997616,208515.137,208523.89999997616,208532.344,208915.176,,11,by
screen,html.Screen,2_1_1_1_12,2022-02-02T13:30:06.950Z,,,,,,,,,,,,,,,,,54,,,,,,,,,,,,,,315.32399999999325,,response,,,,100,,,,,,,Space,keypress(Space),,,,,,,,-- --- ---- --- ------ ----- ------- ---- -- --- ------- --<br>issuing ---------- ------ -- ----- -- ----- -- ---- ------<br>--- ----- --- --- ------ -------- ----- --- ------ ----- --<br>----- ----- ---------- --- --- ------ ------ ---- -- ------<br>------- --- ------ ----- --- ---- ------- -- ---- --- --<br>------- ------,209231.29999995232,209230.5,208898.45,208906.29999995232,208915.176,209248.281,,12,issuing
screen,html.Screen,2_1_1_1_13,2022-02-02T13:30:07.390Z,,,,,,,,,,,,,,,,,54,,,,,,,,,,,,,,423.11899997617,,response,,,,100,,,,,,,Space,keypress(Space),,,,,,,,-- --- ---- --- ------ ----- ------- ---- -- --- ------- --<br>------- government ------ -- ----- -- ----- -- ---- ------<br>--- ----- --- --- ------ -------- ----- --- ------ ----- --<br>----- ----- ---------- --- --- ------ ------ ---- -- ------<br>------- --- ------ ----- --- ---- ------- -- ---- --- --<br>------- ------,209672.09999996424,209671.39999997616,209231.551,209231.5,209248.281,209681.469,,13,government
screen,html.Screen,2_1_1_1_14,2022-02-02T13:30:07.785Z,,,,,,,,,,,,,,,,,54,,,,,,,,,,,,,,384.3309999523044,,response,,,,100,,,,,,,Space,keypress(Space),,,,,,,,-- --- ---- --- ------ ----- ------- ---- -- --- ------- --<br>------- ---------- bonds. -- ----- -- ----- -- ---- ------<br>--- ----- --- --- ------ -------- ----- --- ------ ----- --<br>----- ----- ---------- --- --- ------ ------ ---- -- ------<br>------- --- ------ ----- --- ---- ------- -- ---- --- --<br>------- ------,210066.59999996424,210065.79999995232,209665.042,209672.29999995232,209681.469,210081.368,,14,bonds.
screen,html.Screen,2_1_1_1_15,2022-02-02T13:30:08.151Z,,,,,,,,,,,,,,,,,54,,,,,,,,,,,,,,350.3319999880914,,response,,,,100,,,,,,,Space,keypress(Space),,,,,,,,-- --- ---- --- ------ ----- ------- ---- -- --- ------- --<br>------- ---------- ------ In ----- -- ----- -- ---- ------<br>--- ----- --- --- ------ -------- ----- --- ------ ----- --<br>----- ----- ---------- --- --- ------ ------ ---- -- ------<br>------- --- ------ ----- --- ---- ------- -- ---- --- --<br>------- ------,210432.79999995232,210431.69999998808,210064.629,210066.79999995232,210081.368,210447.841,,15,In
screen,html.Screen,2_1_1_1_16,2022-02-02T13:30:08.646Z,,,,,,,,,,,,,,,,,54,,,,,,,,,,,,,,478.8589999880933,,response,,,,100,,,,,,,Space,keypress(Space),,,,,,,,"-- --- ---- --- ------ ----- ------- ---- -- --- ------- --<br>------- ---------- ------ -- 1727, -- ----- -- ---- ------<br>--- ----- --- --- ------ -------- ----- --- ------ ----- --<br>----- ----- ---------- --- --- ------ ------ ---- -- ------<br>------- --- ------ ----- --- ---- ------- -- ---- --- --<br>------- ------",210927.5,210926.69999998808,210431.431,210432.89999997616,210447.841,210931.02,,16,"1727,"
screen,html.Screen,2_1_1_1_17,2022-02-02T13:30:09.039Z,,,,,,,,,,,,,,,,,54,,,,,,,,,,,,,,389.0799999642477,,response,,,,100,,,,,,,Space,keypress(Space),,,,,,,,-- --- ---- --- ------ ----- ------- ---- -- --- ------- --<br>------- ---------- ------ -- ----- in ----- -- ---- ------<br>--- ----- --- --- ------ -------- ----- --- ------ ----- --<br>----- ----- ---------- --- --- ------ ------ ---- -- ------<br>------- --- ------ ----- --- ---- ------- -- ---- --- --<br>------- ------,211320.89999997616,211320.09999996424,210914.377,210927.59999996424,210931.02,211331.015,,17,in
screen,html.Screen,2_1_1_1_18,2022-02-02T13:30:09.653Z,,,,,,,,,,,,,,,,,54,,,,,,,,,,,,,,602.984999999986,,response,,,,100,,,,,,,Space,keypress(Space),,,,,,,,-- --- ---- --- ------ ----- ------- ---- -- --- ------- --<br>------- ---------- ------ -- ----- -- order -- ---- ------<br>--- ----- --- --- ------ -------- ----- --- ------ ----- --<br>----- ----- ---------- --- --- ------ ------ ---- -- ------<br>------- --- ------ ----- --- ---- ------- -- ---- --- --<br>------- ------,211934.89999997616,211934,211314.493,211321.09999996424,211331.015,211947.415,,18,order
screen,html.Screen,2_1_1_1_19,2022-02-02T13:30:10.121Z,,,,,,,,,,,,,,,,,54,,,,,,,,,,,,,,454.08499999999185,,response,,,,100,,,,,,,Space,keypress(Space),,,,,,,,-- --- ---- --- ------ ----- ------- ---- -- --- ------- --<br>------- ---------- ------ -- ----- -- ----- to ---- ------<br>--- ----- --- --- ------ -------- ----- --- ------ ----- --<br>----- ----- ---------- --- --- ------ ------ ---- -- ------<br>------- --- ------ ----- --- ---- ------- -- ---- --- --<br>------- ------,212402.19999998808,212401.5,211930.958,211935.19999998808,211947.415,212414.055,,19,to
screen,html.Screen,2_1_1_1_20,2022-02-02T13:30:10.619Z,,,,,,,,,,,,,,,,,54,,,,,,,,,,,,,,485.5449999642442,,response,,,,100,,,,,,,Space,keypress(Space),,,,,,,,-- --- ---- --- ------ ----- ------- ---- -- --- ------- --<br>------- ---------- ------ -- ----- -- ----- -- save ------<br>--- ----- --- --- ------ -------- ----- --- ------ ----- --<br>----- ----- ---------- --- --- ------ ------ ---- -- ------<br>------- --- ------ ----- --- ---- ------- -- ---- --- --<br>------- ------,212900.29999995232,212899.59999996424,212397.48,212402.39999997616,212414.055,212914.186,,20,save
screen,html.Screen,2_1_1_1_21,2022-02-02T13:30:10.940Z,,,,,,,,,,,,,,,,,54,,,,,,,,,,,,,,306.6139999523293,,response,,,,100,,,,,,,Space,keypress(Space),,,,,,,,"-- --- ---- --- ------ ----- ------- ---- -- --- ------- --<br>------- ---------- ------ -- ----- -- ----- -- ---- money,<br>--- ----- --- --- ------ -------- ----- --- ------ ----- --<br>----- ----- ---------- --- --- ------ ------ ---- -- ------<br>------- --- ------ ----- --- ---- ------- -- ---- --- --<br>------- ------",213221.59999996424,213220.79999995232,212897.187,212900.5,212914.186,213230.43,,21,"money,"
screen,html.Screen,2_1_1_1_22,2022-02-02T13:30:11.505Z,,,,,,,,,,,,,,,,,54,,,,,,,,,,,,,,555.269999988086,,response,,,,100,,,,,,,Space,keypress(Space),,,,,,,,-- --- ---- --- ------ ----- ------- ---- -- --- ------- --<br>------- ---------- ------ -- ----- -- ----- -- ---- ------<br>the ----- --- --- ------ -------- ----- --- ------ ----- --<br>----- ----- ---------- --- --- ------ ------ ---- -- ------<br>------- --- ------ ----- --- ---- ------- -- ---- --- --<br>------- ------,213786.39999997616,213785.69999998808,213213.735,213221.79999995232,213230.43,213797.173,,22,the
screen,html.Screen,2_1_1_1_23,2022-02-02T13:30:11.985Z,,,,,,,,,,,,,,,,,54,,,,,,,,,,,,,,468.92699996422743,,response,,,,100,,,,,,,Space,keypress(Space),,,,,,,,-- --- ---- --- ------ ----- ------- ---- -- --- ------- --<br>------- ---------- ------ -- ----- -- ----- -- ---- ------<br>--- state --- --- ------ -------- ----- --- ------ ----- --<br>----- ----- ---------- --- --- ------ ------ ---- -- ------<br>------- --- ------ ----- --- ---- ------- -- ---- --- --<br>------- ------,214267,214266.09999996424,213780.286,213786.69999998808,213797.173,214280.145,,23,state
screen,html.Screen,2_1_1_1_24,2022-02-02T13:30:12.551Z,,,,,,,,,,,,,,,,,54,,,,,,,,,,,,,,552.0549999880895,,response,,,,100,,,,,,,Space,keypress(Space),,,,,,,,-- --- ---- --- ------ ----- ------- ---- -- --- ------- --<br>------- ---------- ------ -- ----- -- ----- -- ---- ------<br>--- ----- cut --- ------ -------- ----- --- ------ ----- --<br>----- ----- ---------- --- --- ------ ------ ---- -- ------<br>------- --- ------ ----- --- ---- ------- -- ---- --- --<br>------- ------,214832.89999997616,214832.19999998808,214263.63,214267.19999998808,214280.145,214846.626,,24,cut
screen,html.Screen,2_1_1_1_25,2022-02-02T13:30:13.056Z,,,,,,,,,,,,,,,,,54,,,,,,,,,,,,,,490.0739999880898,,response,,,,100,,,,,,,Space,keypress(Space),,,,,,,,-- --- ---- --- ------ ----- ------- ---- -- --- ------- --<br>------- ---------- ------ -- ----- -- ----- -- ---- ------<br>--- ----- --- the ------ -------- ----- --- ------ ----- --<br>----- ----- ---------- --- --- ------ ------ ---- -- ------<br>------- --- ------ ----- --- ---- ------- -- ---- --- --<br>------- ------,215337.59999996424,215336.69999998808,214830.094,214833,214846.626,215346.397,,25,the
screen,html.Screen,2_1_1_1_26,2022-02-02T13:30:13.693Z,,,,,,,,,,,,,,,,,54,,,,,,,,,,,,,,627.5029999761609,,response,,,,100,,,,,,,Space,keypress(Space),,,,,,,,-- --- ---- --- ------ ----- ------- ---- -- --- ------- --<br>------- ---------- ------ -- ----- -- ----- -- ---- ------<br>--- ----- --- --- bonds' -------- ----- --- ------ ----- --<br>----- ----- ---------- --- --- ------ ------ ---- -- ------<br>------- --- ------ ----- --- ---- ------- -- ---- --- --<br>------- ------,215974.69999998808,215973.89999997616,215329.8,215337.69999998808,215346.397,215979.545,,26,bonds'
screen,html.Screen,2_1_1_1_27,2022-02-02T13:30:14.042Z,,,,,,,,,,,,,,,,,54,,,,,,,,,,,,,,343.7549999523035,,response,,,,100,,,,,,,Space,keypress(Space),,,,,,,,-- --- ---- --- ------ ----- ------- ---- -- --- ------- --<br>------- ---------- ------ -- ----- -- ----- -- ---- ------<br>--- ----- --- --- ------ interest ----- --- ------ ----- --<br>----- ----- ---------- --- --- ------ ------ ---- -- ------<br>------- --- ------ ----- --- ---- ------- -- ---- --- --<br>------- ------,216324.09999996424,216323.29999995232,215962.893,215975,215979.545,216329.557,,27,interest
screen,html.Screen,2_1_1_1_28,2022-02-02T13:30:14.501Z,,,,,,,,,,,,,,,,,54,,,,,,,,,,,,,,451.9429999999993,,response,,,,100,,,,,,,Space,keypress(Space),,,,,,,,-- --- ---- --- ------ ----- ------- ---- -- --- ------- --<br>------- ---------- ------ -- ----- -- ----- -- ---- ------<br>--- ----- --- --- ------ -------- rate. --- ------ ----- --<br>----- ----- ---------- --- --- ------ ------ ---- -- ------<br>------- --- ------ ----- --- ---- ------- -- ---- --- --<br>------- ------,216782.29999995232,216781.5,216312.975,216324.29999995232,216329.557,216796.253,,28,rate.
screen,html.Screen,2_1_1_1_29,2022-02-02T13:30:14.927Z,,,,,,,,,,,,,,,,,54,,,,,,,,,,,,,,412.0469999523193,,response,,,,100,,,,,,,Space,keypress(Space),,,,,,,,-- --- ---- --- ------ ----- ------- ---- -- --- ------- --<br>------- ---------- ------ -- ----- -- ----- -- ---- ------<br>--- ----- --- --- ------ -------- ----- The ------ ----- --<br>----- ----- ---------- --- --- ------ ------ ---- -- ------<br>------- --- ------ ----- --- ---- ------- -- ---- --- --<br>------- ------,217209.09999996424,217208.29999995232,216779.275,216782.39999997616,216796.253,217212.509,,29,The
screen,html.Screen,2_1_1_1_30,2022-02-02T13:30:15.377Z,,,,,,,,,,,,,,,,,54,,,,,,,,,,,,,,445.4910000000091,,response,,,,100,,,,,,,Space,keypress(Space),,,,,,,,-- --- ---- --- ------ ----- ------- ---- -- --- ------- --<br>------- ---------- ------ -- ----- -- ----- -- ---- ------<br>--- ----- --- --- ------ -------- ----- --- market ----- --<br>----- ----- ---------- --- --- ------ ------ ---- -- ------<br>------- --- ------ ----- --- ---- ------- -- ---- --- --<br>------- ------,217658.69999998808,217658,217195.842,217209.19999998808,217212.509,217662.343,,30,market
screen,html.Screen,2_1_1_1_31,2022-02-02T13:30:15.723Z,,,,,,,,,,,,,,,,,54,,,,,,,,,,,,,,341.55699997616466,,response,,,,100,,,,,,,Space,keypress(Space),,,,,,,,-- --- ---- --- ------ ----- ------- ---- -- --- ------- --<br>------- ---------- ------ -- ----- -- ----- -- ---- ------<br>--- ----- --- --- ------ -------- ----- --- ------ value --<br>----- ----- ---------- --- --- ------ ------ ---- -- ------<br>------- --- ------ ----- --- ---- ------- -- ---- --- --<br>------- ------,218004.59999996424,218003.89999997616,217645.75,217658.79999995232,217662.343,218012.326,,31,value
screen,html.Screen,2_1_1_1_32,2022-02-02T13:30:16.125Z,,,,,,,,,,,,,,,,,54,,,,,,,,,,,,,,394.0739999761572,,response,,,,100,,,,,,,Space,keypress(Space),,,,,,,,-- --- ---- --- ------ ----- ------- ---- -- --- ------- --<br>------- ---------- ------ -- ----- -- ----- -- ---- ------<br>--- ----- --- --- ------ -------- ----- --- ------ ----- of<br>----- ----- ---------- --- --- ------ ------ ---- -- ------<br>------- --- ------ ----- --- ---- ------- -- ---- --- --<br>------- ------,218407.09999996424,218406.39999997616,217995.659,218004.79999995232,218012.326,218412.118,,32,of
screen,html.Screen,2_1_1_1_33,2022-02-02T13:30:16.482Z,,,,,,,,,,,,,,,,,54,,,,,,,,,,,,,,350.6819999523286,,response,,,,100,,,,,,,Space,keypress(Space),,,,,,,,-- --- ---- --- ------ ----- ------- ---- -- --- ------- --<br>------- ---------- ------ -- ----- -- ----- -- ---- ------<br>--- ----- --- --- ------ -------- ----- --- ------ ----- --<br>these ----- ---------- --- --- ------ ------ ---- -- ------<br>------- --- ------ ----- --- ---- ------- -- ---- --- --<br>------- ------,218763.5,218762.79999995232,218395.795,218407.19999998808,218412.118,218778.846,,33,these
screen,html.Screen,2_1_1_1_34,2022-02-02T13:30:16.782Z,,,,,,,,,,,,,,,,,54,,,,,,,,,,,,,,284.0539999761677,,response,,,,100,,,,,,,Space,keypress(Space),,,,,,,,-- --- ---- --- ------ ----- ------- ---- -- --- ------- --<br>------- ---------- ------ -- ----- -- ----- -- ---- ------<br>--- ----- --- --- ------ -------- ----- --- ------ ----- --<br>----- bonds ---------- --- --- ------ ------ ---- -- ------<br>------- --- ------ ----- --- ---- ------- -- ---- --- --<br>------- ------,219063.69999998808,219062.89999997616,218762.04,218763.69999998808,218778.846,219078.672,,34,bonds
screen,html.Screen,2_1_1_1_35,2022-02-02T13:30:17.259Z,,,,,,,,,,,,,,,,,54,,,,,,,,,,,,,,461.0279999880877,,response,,,,100,,,,,,,Space,keypress(Space),,,,,,,,"-- --- ---- --- ------ ----- ------- ---- -- --- ------- --<br>------- ---------- ------ -- ----- -- ----- -- ---- ------<br>--- ----- --- --- ------ -------- ----- --- ------ ----- --<br>----- ----- plummeted, --- --- ------ ------ ---- -- ------<br>------- --- ------ ----- --- ---- ------- -- ---- --- --<br>------- ------",219540.39999997616,219539.69999998808,219062.128,219063.89999997616,219078.672,219545.196,,35,"plummeted,"
screen,html.Screen,2_1_1_1_36,2022-02-02T13:30:17.604Z,,,,,,,,,,,,,,,,,54,,,,,,,,,,,,,,339.60399995232,,response,,,,100,,,,,,,Space,keypress(Space),,,,,,,,-- --- ---- --- ------ ----- ------- ---- -- --- ------- --<br>------- ---------- ------ -- ----- -- ----- -- ---- ------<br>--- ----- --- --- ------ -------- ----- --- ------ ----- --<br>----- ----- ---------- and --- ------ ------ ---- -- ------<br>------- --- ------ ----- --- ---- ------- -- ---- --- --<br>------- ------,219885.69999998808,219884.79999995232,219528.422,219540.59999996424,219545.196,219895.385,,36,and
screen,html.Screen,2_1_1_1_37,2022-02-02T13:30:17.924Z,,,,,,,,,,,,,,,,,54,,,,,,,,,,,,,,309.7149999642279,,response,,,,100,,,,,,,Space,keypress(Space),,,,,,,,-- --- ---- --- ------ ----- ------- ---- -- --- ------- --<br>------- ---------- ------ -- ----- -- ----- -- ---- ------<br>--- ----- --- --- ------ -------- ----- --- ------ ----- --<br>----- ----- ---------- --- the ------ ------ ---- -- ------<br>------- --- ------ ----- --- ---- ------- -- ---- --- --<br>------- ------,220205.79999995232,220205.09999996424,219878.685,219885.79999995232,219895.385,220211.705,,37,the
screen,html.Screen,2_1_1_1_38,2022-02-02T13:30:18.279Z,,,,,,,,,,,,,,,,,54,,,,,,,,,,,,,,348.0949999523291,,response,,,,100,,,,,,,Space,keypress(Space),,,,,,,,-- --- ---- --- ------ ----- ------- ---- -- --- ------- --<br>------- ---------- ------ -- ----- -- ----- -- ---- ------<br>--- ----- --- --- ------ -------- ----- --- ------ ----- --<br>----- ----- ---------- --- --- market ------ ---- -- ------<br>------- --- ------ ----- --- ---- ------- -- ---- --- --<br>------- ------,220560.69999998808,220559.79999995232,220195.029,220205.89999997616,220211.705,220578.243,,38,market
screen,html.Screen,2_1_1_1_39,2022-02-02T13:30:18.601Z,,,,,,,,,,,,,,,,,54,,,,,,,,,,,,,,303.4569999880914,,response,,,,100,,,,,,,Space,keypress(Space),,,,,,,,-- --- ---- --- ------ ----- ------- ---- -- --- ------- --<br>------- ---------- ------ -- ----- -- ----- -- ---- ------<br>--- ----- --- --- ------ -------- ----- --- ------ ----- --<br>----- ----- ---------- --- --- ------ became ---- -- ------<br>------- --- ------ ----- --- ---- ------- -- ---- --- --<br>------- ------,220882.5,220881.69999998808,220545.052,220560.89999997616,220578.243,220895.071,,39,became
screen,html.Screen,2_1_1_1_40,2022-02-02T13:30:19.005Z,,,,,,,,,,,,,,,,,54,,,,,,,,,,,,,,391.22899995232,,response,,,,100,,,,,,,Space,keypress(Space),,,,,,,,-- --- ---- --- ------ ----- ------- ---- -- --- ------- --<br>------- ---------- ------ -- ----- -- ----- -- ---- ------<br>--- ----- --- --- ------ -------- ----- --- ------ ----- --<br>----- ----- ---------- --- --- ------ ------ wary -- ------<br>------- --- ------ ----- --- ---- ------- -- ---- --- --<br>------- ------,221287.09999996424,221286.29999995232,220878.31,220882.69999998808,220895.071,221294.737,,40,wary
screen,html.Screen,2_1_1_1_41,2022-02-02T13:30:19.353Z,,,,,,,,,,,,,,,,,54,,,,,,,,,,,,,,339.46299998808536,,response,,,,100,,,,,,,Space,keypress(Space),,,,,,,,-- --- ---- --- ------ ----- ------- ---- -- --- ------- --<br>------- ---------- ------ -- ----- -- ----- -- ---- ------<br>--- ----- --- --- ------ -------- ----- --- ------ ----- --<br>----- ----- ---------- --- --- ------ ------ ---- of ------<br>------- --- ------ ----- --- ---- ------- -- ---- --- --<br>------- ------,221635,221634.19999998808,221277.983,221287.29999995232,221294.737,221644.64,,41,of
screen,html.Screen,2_1_1_1_42,2022-02-02T13:30:19.701Z,,,,,,,,,,,,,,,,,54,,,,,,,,,,,,,,337.35999999998603,,response,,,,100,,,,,,,Space,keypress(Space),,,,,,,,-- --- ---- --- ------ ----- ------- ---- -- --- ------- --<br>------- ---------- ------ -- ----- -- ----- -- ---- ------<br>--- ----- --- --- ------ -------- ----- --- ------ ----- --<br>----- ----- ---------- --- --- ------ ------ ---- -- French<br>------- --- ------ ----- --- ---- ------- -- ---- --- --<br>------- ------,221982.69999998808,221982,221627.999,221635.09999996424,221644.64,221994.58,,42,French
screen,html.Screen,2_1_1_1_43,2022-02-02T13:30:20.055Z,,,,,,,,,,,,,,,,,54,,,,,,,,,,,,,,341.7199999523291,,response,,,,100,,,,,,,Space,keypress(Space),,,,,,,,-- --- ---- --- ------ ----- ------- ---- -- --- ------- --<br>------- ---------- ------ -- ----- -- ----- -- ---- ------<br>--- ----- --- --- ------ -------- ----- --- ------ ----- --<br>----- ----- ---------- --- --- ------ ------ ---- -- ------<br>credit. --- ------ ----- --- ---- ------- -- ---- --- --<br>------- ------,222337,222336.29999995232,221977.731,221982.79999995232,221994.58,222344.321,,43,credit.
screen,html.Screen,2_1_1_1_44,2022-02-02T13:30:20.481Z,,,,,,,,,,,,,,,,,54,,,,,,,,,,,,,,417.97899995232,,response,,,,100,,,,,,,Space,keypress(Space),,,,,,,,-- --- ---- --- ------ ----- ------- ---- -- --- ------- --<br>------- ---------- ------ -- ----- -- ----- -- ---- ------<br>--- ----- --- --- ------ -------- ----- --- ------ ----- --<br>----- ----- ---------- --- --- ------ ------ ---- -- ------<br>------- The ------ ----- --- ---- ------- -- ---- --- --<br>------- ------,222763.09999996424,222762.29999995232,222327.672,222337.09999996424,222344.321,222777.631,,44,The
screen,html.Screen,2_1_1_1_45,2022-02-02T13:30:20.888Z,,,,,,,,,,,,,,,,,54,,,,,,,,,,,,,,391.0689999880851,,response,,,,100,,,,,,,Space,keypress(Space),,,,,,,,-- --- ---- --- ------ ----- ------- ---- -- --- ------- --<br>------- ---------- ------ -- ----- -- ----- -- ---- ------<br>--- ----- --- --- ------ -------- ----- --- ------ ----- --<br>----- ----- ---------- --- --- ------ ------ ---- -- ------<br>------- --- French ----- --- ---- ------- -- ---- --- --<br>------- ------,223169.39999997616,223168.69999998808,222760.873,222763.29999995232,222777.631,223177.432,,45,French
screen,html.Screen,2_1_1_1_46,2022-02-02T13:30:21.191Z,,,,,,,,,,,,,,,,,54,,,,,,,,,,,,,,294.1679999642365,,response,,,,100,,,,,,,Space,keypress(Space),,,,,,,,-- --- ---- --- ------ ----- ------- ---- -- --- ------- --<br>------- ---------- ------ -- ----- -- ----- -- ---- ------<br>--- ----- --- --- ------ -------- ----- --- ------ ----- --<br>----- ----- ---------- --- --- ------ ------ ---- -- ------<br>------- --- ------ state --- ---- ------- -- ---- --- --<br>------- ------,223472.29999995232,223471.59999996424,223160.783,223169.5,223177.432,223477.453,,46,state
screen,html.Screen,2_1_1_1_47,2022-02-02T13:30:21.506Z,,,,,,,,,,,,,,,,,54,,,,,,,,,,,,,,309.84699995230767,,response,,,,100,,,,,,,Space,keypress(Space),,,,,,,,-- --- ---- --- ------ ----- ------- ---- -- --- ------- --<br>------- ---------- ------ -- ----- -- ----- -- ---- ------<br>--- ----- --- --- ------ -------- ----- --- ------ ----- --<br>----- ----- ---------- --- --- ------ ------ ---- -- ------<br>------- --- ------ ----- was ---- ------- -- ---- --- --<br>------- ------,223788,223787.29999995232,223460.789,223472.39999997616,223477.453,223794.017,,47,was
screen,html.Screen,2_1_1_1_48,2022-02-02T13:30:21.815Z,,,,,,,,,,,,,,,,,54,,,,,,,,,,,,,,301.8829999761656,,response,,,,100,,,,,,,Space,keypress(Space),,,,,,,,-- --- ---- --- ------ ----- ------- ---- -- --- ------- --<br>------- ---------- ------ -- ----- -- ----- -- ---- ------<br>--- ----- --- --- ------ -------- ----- --- ------ ----- --<br>----- ----- ---------- --- --- ------ ------ ---- -- ------<br>------- --- ------ ----- --- left ------- -- ---- --- --<br>------- ------,224096.69999998808,224095.89999997616,223777.317,223788.19999998808,223794.017,224110.612,,48,left
screen,html.Screen,2_1_1_1_49,2022-02-02T13:30:22.137Z,,,,,,,,,,,,,,,,,54,,,,,,,,,,,,,,307.18799995232257,,response,,,,100,,,,,,,Space,keypress(Space),,,,,,,,-- --- ---- --- ------ ----- ------- ---- -- --- ------- --<br>------- ---------- ------ -- ----- -- ----- -- ---- ------<br>--- ----- --- --- ------ -------- ----- --- ------ ----- --<br>----- ----- ---------- --- --- ------ ------ ---- -- ------<br>------- --- ------ ----- --- ---- without -- ---- --- --<br>------- ------,224418.5,224417.79999995232,224093.845,224096.79999995232,224110.612,224427.134,,49,without
screen,html.Screen,2_1_1_1_50,2022-02-02T13:30:22.470Z,,,,,,,,,,,,,,,,,54,,,,,,,,,,,,,,323.9659999642463,,response,,,,100,,,,,,,Space,keypress(Space),,,,,,,,-- --- ---- --- ------ ----- ------- ---- -- --- ------- --<br>------- ---------- ------ -- ----- -- ----- -- ---- ------<br>--- ----- --- --- ------ -------- ----- --- ------ ----- --<br>----- ----- ---------- --- --- ------ ------ ---- -- ------<br>------- --- ------ ----- --- ---- ------- an ---- --- --<br>------- ------,224751.89999997616,224751.09999996424,224410.45,224418.69999998808,224427.134,224760.396,,50,an
screen,html.Screen,2_1_1_1_51,2022-02-02T13:30:22.748Z,,,,,,,,,,,,,,,,,54,,,,,,,,,,,,,,268.6039999999921,,response,,,,100,,,,,,,Space,keypress(Space),,,,,,,,-- --- ---- --- ------ ----- ------- ---- -- --- ------- --<br>------- ---------- ------ -- ----- -- ----- -- ---- ------<br>--- ----- --- --- ------ -------- ----- --- ------ ----- --<br>----- ----- ---------- --- --- ------ ------ ---- -- ------<br>------- --- ------ ----- --- ---- ------- -- easy --- --<br>------- ------,225029.69999998808,225029,224743.662,224752.09999996424,224760.396,225044.026,,51,easy
screen,html.Screen,2_1_1_1_52,2022-02-02T13:30:23.053Z,,,,,,,,,,,,,,,,,54,,,,,,,,,,,,,,290.07399996422464,,response,,,,100,,,,,,,Space,keypress(Space),,,,,,,,-- --- ---- --- ------ ----- ------- ---- -- --- ------- --<br>------- ---------- ------ -- ----- -- ----- -- ---- ------<br>--- ----- --- --- ------ -------- ----- --- ------ ----- --<br>----- ----- ---------- --- --- ------ ------ ---- -- ------<br>------- --- ------ ----- --- ---- ------- -- ---- way --<br>------- ------,225334.89999997616,225334.09999996424,225027.195,225029.79999995232,225044.026,225343.617,,52,way
screen,html.Screen,2_1_1_1_53,2022-02-02T13:30:23.358Z,,,,,,,,,,,,,,,,,54,,,,,,,,,,,,,,295.2829999761598,,response,,,,100,,,,,,,Space,keypress(Space),,,,,,,,-- --- ---- --- ------ ----- ------- ---- -- --- ------- --<br>------- ---------- ------ -- ----- -- ----- -- ---- ------<br>--- ----- --- --- ------ -------- ----- --- ------ ----- --<br>----- ----- ---------- --- --- ------ ------ ---- -- ------<br>------- --- ------ ----- --- ---- ------- -- ---- --- of<br>------- ------,225639.5,225638.89999997616,225327.09,225335,225343.617,225643.38,,53,of
screen,html.Screen,2_1_1_1_54,2022-02-02T13:30:23.729Z,,,,,,,,,,,,,,,,,54,,,,,,,,,,,,,,366.8199999880744,,response,,,,100,,,,,,,Space,keypress(Space),,,,,,,,-- --- ---- --- ------ ----- ------- ---- -- --- ------- --<br>------- ---------- ------ -- ----- -- ----- -- ---- ------<br>--- ----- --- --- ------ -------- ----- --- ------ ----- --<br>----- ----- ---------- --- --- ------ ------ ---- -- ------<br>------- --- ------ ----- --- ---- ------- -- ---- --- --<br>raising ------,226011,226010.19999998808,225627.024,225639.69999998808,225643.38,226026.979,,54,raising
screen,html.Screen,2_1_1_1_55,2022-02-02T13:30:24.210Z,,,,,,,,,,,,,,,,,54,,,,,,,,,,,,,,463.8209999523242,,response,,,,100,,,,,,,Space,keypress(Space),,,,,,,,-- --- ---- --- ------ ----- ------- ---- -- --- ------- --<br>------- ---------- ------ -- ----- -- ----- -- ---- ------<br>--- ----- --- --- ------ -------- ----- --- ------ ----- --<br>----- ----- ---------- --- --- ------ ------ ---- -- ------<br>------- --- ------ ----- --- ---- ------- -- ---- --- --<br>------- money.,226491.59999996424,226490.79999995232,226010.006,226011.09999996424,226026.979,226524.628,,55,money.
Item 100,flow.Loop,2_1_1_1,2022-02-02T13:30:24.210Z,,,,,,,,,,,,,,,,,,,,,,,,,,,,,,,23123.94899995232,,completion,,,,,B,,,,,,,,,,,silence,,,,,226491.89999997616,226490.79999995232,203350.055,203351.09999996424,203366.851,226524.628,,,
Question 1,html.Screen,2_1_1_2,2022-02-02T13:30:26.349Z,,,,,,,,,,,,,,,,,,,,,,,,,,,,true,TRUE,,2105.271999976161,,response,,,,100,B,,,,,,TRUE,click #choice-1,,,,silence,,,,,228631.09999996424,228629.89999997616,226476.512,226492,226524.628,228642.576,,,
Question 2,html.Screen,2_1_1_3,2022-02-02T13:30:28.586Z,,,,,,,,,,,,,,,,,,,,,,,,,,,,true,FALSE,,2223.5239999642363,,response,,,,100,B,,,,,,FALSE,click #choice-2,,,,silence,,,,,230867.39999997616,230866.09999996424,228625.881,228631.19999998808,228642.576,230875.137,,,
Item 100,flow.Sequence,2_1_1,2022-02-02T13:30:28.586Z,,,,,,,,,,,,,,,,,,,,,,,,,,,,,,,37496.429999964224,,completion,,,,,,,,,,,,,,,,,,,,,230867.69999998808,230866.09999996424,193352.833,193355.69999998808,193369.67,230875.137,,,
End of Practice,html.Page,2_1_2,2022-02-02T13:30:32.466Z,,,,,,,,,,,,,,,,,,,,,,,,,,,,,,,3872.6629999523284,,form submission,,,,,,,,,,,,,,,,,,,,,234748,234747.79999995232,230858.789,230867.79999995232,230875.137,234757.414,,,
Practice,flow.Sequence,2_1,2022-02-02T13:30:32.467Z,,,,,,,,,,,,,,,,,,,,,,,,,,,,,,,88097.97199995231,,completion,,,,,,,,,,,,,,,,,,,,,234748.29999995232,234747.79999995232,146633.147,146648.39999997616,146649.828,234757.414,,,
Trap_instruction,html.Page,2_2_0,2022-02-02T13:30:35.968Z,,,,,,,,,,,,,,,,,,,,,,,,,,,,,,,3491.6859999642475,,form submission,,,,,,,,,,,,,,,,,,,,,238249.39999997616,238249.09999996424,234740.706,234748.39999997616,234757.414,238256.376,,,
trap_trial,html.Screen,2_2_1,2022-02-02T13:30:39.628Z,,,,,,,,,,,,,,,,,,,,,,,,,,,,true,1,,3651.723999964248,,response,,,,,,,,,,,1,click #choice-1,,,,,,,,,241909.19999998808,241908.09999996424,238239.955,238249.59999996424,238256.376,241922.17,,,
end of trap trial,html.Page,2_2_2,2022-02-02T13:30:41.006Z,,,,,,,,,,,,,,,,,,,,,,,,,,,,,,,1365.1299999523035,,form submission,,,,,,,,,,,,,,,,,,,,,243287.69999998808,243287.29999995232,241905.477,241909.39999997616,241922.17,243288.238,,,
Trap 1,flow.Sequence,2_2,2022-02-02T13:30:41.006Z,,,,,,,,,,,,,,,,,,,,,,,,,,,,,,,8529.885999952327,,completion,,,,,,,,,,,,,,,,,,,,,243287.89999997616,243287.29999995232,234740.706,234748.29999995232,234757.414,243288.238,,,
Standby,html.Page,2_3_0,2022-02-02T13:30:48.989Z,,,,,,,,,,,,,,,,,,,,,,,,,,,,,,,7997.690000000002,,timeout,,,,,,,,,,,,,,,,,,,,,251270.29999995232,251269.263,243271.644,243288,243288.238,251285.928,,,
Holding screen,html.Screen,2_3_1_0_0,2022-02-02T13:30:55.987Z,,,,,,,,,,,,,,,,,,,,,,,,,,,,,,,6997.997999999992,,timeout,,,,,,,,,,,,,,,,,,,,,258268.09999996424,258267.225,251269.263,251270.5,251285.928,258283.926,,,
screen,html.Screen,2_3_1_0_1_0,2022-02-02T13:30:57.441Z,,,,,,,,,,,,,,,,,15,,,,,,,,,,,,,,1437.6739999642305,,response,,,,7,B,,,,,,Space,keypress(Space),,,,lyrical,,,,Greg --------- ---------- - --- ------- -- --- ------------<br>----- -- -------- ------- ---- ------ - -------- ---- -----<br>--- ------- ---- -- --- -------- --- - ----- ------ ---- --<br>-------- --- -------- -------- --- -------- ---- -- ----- -<br>-------- ---- --- ---------- --------- -- ------- ------ -<br>--------- ----- -----,259722.39999997616,259721.59999996424,258267.225,258268.39999997616,258283.926,259733.804,,0,Greg
screen,html.Screen,2_3_1_0_1_1,2022-02-02T13:30:58.077Z,,,,,,,,,,,,,,,,,15,,,,,,,,,,,,,,624.4959999523126,,response,,,,7,B,,,,,,Space,keypress(Space),,,,lyrical,,,,"---- Anderson, ---------- - --- ------- -- --- ------------<br>----- -- -------- ------- ---- ------ - -------- ---- -----<br>--- ------- ---- -- --- -------- --- - ----- ------ ---- --<br>-------- --- -------- -------- --- -------- ---- -- ----- -<br>-------- ---- --- ---------- --------- -- ------- ------ -<br>--------- ----- -----",260359.09999996424,260358.29999995232,259716.588,259722.5,259733.804,260366.699,,1,"Anderson,"
screen,html.Screen,2_3_1_0_1_2,2022-02-02T13:30:58.584Z,,,,,,,,,,,,,,,,,15,,,,,,,,,,,,,,497.7009999761649,,response,,,,7,B,,,,,,Space,keypress(Space),,,,lyrical,,,,---- --------- considered - --- ------- -- --- ------------<br>----- -- -------- ------- ---- ------ - -------- ---- -----<br>--- ------- ---- -- --- -------- --- - ----- ------ ---- --<br>-------- --- -------- -------- --- -------- ---- -- ----- -<br>-------- ---- --- ---------- --------- -- ------- ------ -<br>--------- ----- -----,260865.19999998808,260864.39999997616,260350.152,260359.29999995232,260366.699,260891.268,,2,considered
screen,html.Screen,2_3_1_0_1_3,2022-02-02T13:30:59.185Z,,,,,,,,,,,,,,,,,15,,,,,,,,,,,,,,574.3319999642263,,response,,,,7,B,,,,,,Space,keypress(Space),,,,lyrical,,,,---- --------- ---------- a --- ------- -- --- ------------<br>----- -- -------- ------- ---- ------ - -------- ---- -----<br>--- ------- ---- -- --- -------- --- - ----- ------ ---- --<br>-------- --- -------- -------- --- -------- ---- -- ----- -<br>-------- ---- --- ---------- --------- -- ------- ------ -<br>--------- ----- -----,261466.39999997616,261465.59999996424,260849.952,260865.39999997616,260891.268,261483.019,,3,a
screen,html.Screen,2_3_1_0_1_4,2022-02-02T13:30:59.901Z,,,,,,,,,,,,,,,,,15,,,,,,,,,,,,,,698.780999952316,,response,,,,7,B,,,,,,Space,keypress(Space),,,,lyrical,,,,---- --------- ---------- - key ------- -- --- ------------<br>----- -- -------- ------- ---- ------ - -------- ---- -----<br>--- ------- ---- -- --- -------- --- - ----- ------ ---- --<br>-------- --- -------- -------- --- -------- ---- -- ----- -<br>-------- ---- --- ---------- --------- -- ------- ------ -<br>--------- ----- -----,262182.7999999523,262181.7999999523,261466.55,261466.5,261483.019,262199.426,,4,key
screen,html.Screen,2_3_1_0_1_5,2022-02-02T13:31:01.593Z,,,,,,,,,,,,,,,,,15,,,,,,,,,,,,,,1673.9739999761805,,response,,,,7,B,,,,,,Space,keypress(Space),,,,lyrical,,,,---- --------- ---------- - --- witness -- --- ------------<br>----- -- -------- ------- ---- ------ - -------- ---- -----<br>--- ------- ---- -- --- -------- --- - ----- ------ ---- --<br>-------- --- -------- -------- --- -------- ---- -- ----- -<br>-------- ---- --- ---------- --------- -- ------- ------ -<br>--------- ----- -----,263874.2999999523,263873.39999997616,262182.651,262182.89999997616,262199.426,263882.31,,5,witness
screen,html.Screen,2_3_1_0_1_6,2022-02-02T13:31:02.057Z,,,,,,,,,,,,,,,,,15,,,,,,,,,,,,,,455.6900000000023,,response,,,,7,B,,,,,,Space,keypress(Space),,,,lyrical,,,,---- --------- ---------- - --- ------- by --- ------------<br>----- -- -------- ------- ---- ------ - -------- ---- -----<br>--- ------- ---- -- --- -------- --- - ----- ------ ---- --<br>-------- --- -------- -------- --- -------- ---- -- ----- -<br>-------- ---- --- ---------- --------- -- ------- ------ -<br>--------- ----- -----,264338.6999999881,264338,263865.422,263874.5,263882.31,264348.895,,6,by
screen,html.Screen,2_3_1_0_1_7,2022-02-02T13:31:02.394Z,,,,,,,,,,,,,,,,,15,,,,,,,,,,,,,,325.80499998806044,,response,,,,7,B,,,,,,Space,keypress(Space),,,,lyrical,,,,---- --------- ---------- - --- ------- -- the ------------<br>----- -- -------- ------- ---- ------ - -------- ---- -----<br>--- ------- ---- -- --- -------- --- - ----- ------ ---- --<br>-------- --- -------- -------- --- -------- ---- -- ----- -<br>-------- ---- --- ---------- --------- -- ------- ------ -<br>--------- ----- -----,264675.5,264674.6999999881,264332.289,264339,264348.895,264682.04,,7,the
screen,html.Screen,2_3_1_0_1_8,2022-02-02T13:31:03.056Z,,,,,,,,,,,,,,,,,15,,,,,,,,,,,,,,654.7599999523372,,response,,,,7,B,,,,,,Space,keypress(Space),,,,lyrical,,,,"---- --------- ---------- - --- ------- -- --- prosecution,<br>----- -- -------- ------- ---- ------ - -------- ---- -----<br>--- ------- ---- -- --- -------- --- - ----- ------ ---- --<br>-------- --- -------- -------- --- -------- ---- -- ----- -<br>-------- ---- --- ---------- --------- -- ------- ------ -<br>--------- ----- -----",265337.6999999881,265336.7999999523,264665.596,264675.59999996424,264682.04,265348.493,,8,"prosecution,"
screen,html.Screen,2_3_1_0_1_9,2022-02-02T13:31:03.923Z,,,,,,,,,,,,,,,,,15,,,,,,,,,,,,,,855.2069999880623,,response,,,,7,B,,,,,,Space,keypress(Space),,,,lyrical,,,,---- --------- ---------- - --- ------- -- --- ------------<br>vowed -- -------- ------- ---- ------ - -------- ---- -----<br>--- ------- ---- -- --- -------- --- - ----- ------ ---- --<br>-------- --- -------- -------- --- -------- ---- -- ----- -<br>-------- ---- --- ---------- --------- -- ------- ------ -<br>--------- ----- -----,266204.5,266203.6999999881,265332.269,265337.7999999523,265348.493,266215.17,,9,vowed
screen,html.Screen,2_3_1_0_1_10,2022-02-02T13:31:04.299Z,,,,,,,,,,,,,,,,,15,,,,,,,,,,,,,,364.52999998809537,,response,,,,7,B,,,,,,Space,keypress(Space),,,,lyrical,,,,---- --------- ---------- - --- ------- -- --- ------------<br>----- he -------- ------- ---- ------ - -------- ---- -----<br>--- ------- ---- -- --- -------- --- - ----- ------ ---- --<br>-------- --- -------- -------- --- -------- ---- -- ----- -<br>-------- ---- --- ---------- --------- -- ------- ------ -<br>--------- ----- -----,266580.5,266579.6999999881,266198.488,266204.59999996424,266215.17,266615.062,,10,he
screen,html.Screen,2_3_1_0_1_11,2022-02-02T13:31:04.759Z,,,,,,,,,,,,,,,,,15,,,,,,,,,,,,,,424.8379999761819,,response,,,,7,B,,,,,,Space,keypress(Space),,,,lyrical,,,,---- --------- ---------- - --- ------- -- --- ------------<br>----- -- wouldn't ------- ---- ------ - -------- ---- -----<br>--- ------- ---- -- --- -------- --- - ----- ------ ---- --<br>-------- --- -------- -------- --- -------- ---- -- ----- -<br>-------- ---- --- ---------- --------- -- ------- ------ -<br>--------- ----- -----,267040.6999999881,267039.89999997616,266598.225,266580.7999999523,266615.062,267048.094,,11,wouldn't
screen,html.Screen,2_3_1_0_1_12,2022-02-02T13:31:05.294Z,,,,,,,,,,,,,,,,,15,,,,,,,,,,,,,,526.2059999523335,,response,,,,7,B,,,,,,Space,keypress(Space),,,,lyrical,,,,---- --------- ---------- - --- ------- -- --- ------------<br>----- -- -------- testify ---- ------ - -------- ---- -----<br>--- ------- ---- -- --- -------- --- - ----- ------ ---- --<br>-------- --- -------- -------- --- -------- ---- -- ----- -<br>-------- ---- --- ---------- --------- -- ------- ------ -<br>--------- ----- -----,267575.09999996424,267574.2999999523,267031.305,267040.7999999523,267048.094,267581.219,,12,testify
screen,html.Screen,2_3_1_0_1_13,2022-02-02T13:31:05.702Z,,,,,,,,,,,,,,,,,15,,,,,,,,,,,,,,401.0809999523335,,response,,,,7,B,,,,,,Space,keypress(Space),,,,lyrical,,,,---- --------- ---------- - --- ------- -- --- ------------<br>----- -- -------- ------- when ------ - -------- ---- -----<br>--- ------- ---- -- --- -------- --- - ----- ------ ---- --<br>-------- --- -------- -------- --- -------- ---- -- ----- -<br>-------- ---- --- ---------- --------- -- ------- ------ -<br>--------- ----- -----,267983.09999996424,267982.2999999523,267564.471,267575.1999999881,267581.219,267997.924,,13,when
screen,html.Screen,2_3_1_0_1_14,2022-02-02T13:31:06.144Z,,,,,,,,,,,,,,,,,15,,,,,,,,,,,,,,427.17599996423814,,response,,,,7,B,,,,,,Space,keypress(Space),,,,lyrical,,,,---- --------- ---------- - --- ------- -- --- ------------<br>----- -- -------- ------- ---- served - -------- ---- -----<br>--- ------- ---- -- --- -------- --- - ----- ------ ---- --<br>-------- --- -------- -------- --- -------- ---- -- ----- -<br>-------- ---- --- ---------- --------- -- ------- ------ -<br>--------- ----- -----,268425.89999997616,268425.09999996424,267981.213,267983.2999999523,267997.924,268430.903,,14,served
screen,html.Screen,2_3_1_0_1_15,2022-02-02T13:31:06.470Z,,,,,,,,,,,,,,,,,15,,,,,,,,,,,,,,320.09700000000885,,response,,,,7,B,,,,,,Space,keypress(Space),,,,lyrical,,,,---- --------- ---------- - --- ------- -- --- ------------<br>----- -- -------- ------- ---- ------ a -------- ---- -----<br>--- ------- ---- -- --- -------- --- - ----- ------ ---- --<br>-------- --- -------- -------- --- -------- ---- -- ----- -<br>-------- ---- --- ---------- --------- -- ------- ------ -<br>--------- ----- -----,268751.7999999523,268751,268414.422,268426.09999996424,268430.903,268764.133,,15,a
screen,html.Screen,2_3_1_0_1_16,2022-02-02T13:31:06.984Z,,,,,,,,,,,,,,,,,15,,,,,,,,,,,,,,501.06699998810655,,response,,,,7,B,,,,,,Space,keypress(Space),,,,lyrical,,,,---- --------- ---------- - --- ------- -- --- ------------<br>----- -- -------- ------- ---- ------ - subpoena ---- -----<br>--- ------- ---- -- --- -------- --- - ----- ------ ---- --<br>-------- --- -------- -------- --- -------- ---- -- ----- -<br>-------- ---- --- ---------- --------- -- ------- ------ -<br>--------- ----- -----,269266,269265.1999999881,268747.455,268751.89999997616,268764.133,269280.92,,16,subpoena
screen,html.Screen,2_3_1_0_1_17,2022-02-02T13:31:07.351Z,,,,,,,,,,,,,,,,,15,,,,,,,,,,,,,,350.5800000000163,,response,,,,7,B,,,,,,Space,keypress(Space),,,,lyrical,,,,---- --------- ---------- - --- ------- -- --- ------------<br>----- -- -------- ------- ---- ------ - -------- last -----<br>--- ------- ---- -- --- -------- --- - ----- ------ ---- --<br>-------- --- -------- -------- --- -------- ---- -- ----- -<br>-------- ---- --- ---------- --------- -- ------- ------ -<br>--------- ----- -----,269632.39999997616,269631.5,269263.975,269266.09999996424,269280.92,269647.199,,17,last
screen,html.Screen,2_3_1_0_1_18,2022-02-02T13:31:07.663Z,,,,,,,,,,,,,,,,,15,,,,,,,,,,,,,,296.90099996421486,,response,,,,7,B,,,,,,Space,keypress(Space),,,,lyrical,,,,---- --------- ---------- - --- ------- -- --- ------------<br>----- -- -------- ------- ---- ------ - -------- ---- week.<br>--- ------- ---- -- --- -------- --- - ----- ------ ---- --<br>-------- --- -------- -------- --- -------- ---- -- ----- -<br>-------- ---- --- ---------- --------- -- ------- ------ -<br>--------- ----- -----,269944.6999999881,269944.09999996424,269630.886,269632.5,269647.199,269947.12,,18,week.
screen,html.Screen,2_3_1_0_1_19,2022-02-02T13:31:08.055Z,,,,,,,,,,,,,,,,,15,,,,,,,,,,,,,,388.0799999880837,,response,,,,7,B,,,,,,Space,keypress(Space),,,,lyrical,,,,---- --------- ---------- - --- ------- -- --- ------------<br>----- -- -------- ------- ---- ------ - -------- ---- -----<br>His ------- ---- -- --- -------- --- - ----- ------ ---- --<br>-------- --- -------- -------- --- -------- ---- -- ----- -<br>-------- ---- --- ---------- --------- -- ------- ------ -<br>--------- ----- -----,270336,270335.1999999881,269930.518,269944.89999997616,269947.12,270347.033,,19,His
screen,html.Screen,2_3_1_0_1_20,2022-02-02T13:31:08.372Z,,,,,,,,,,,,,,,,,15,,,,,,,,,,,,,,305.2669999523205,,response,,,,7,B,,,,,,Space,keypress(Space),,,,lyrical,,,,---- --------- ---------- - --- ------- -- --- ------------<br>----- -- -------- ------- ---- ------ - -------- ---- -----<br>--- lawyers ---- -- --- -------- --- - ----- ------ ---- --<br>-------- --- -------- -------- --- -------- ---- -- ----- -<br>-------- ---- --- ---------- --------- -- ------- ------ -<br>--------- ----- -----,270653,270652.2999999523,270330.355,270336.1999999881,270347.033,270663.612,,20,lawyers
screen,html.Screen,2_3_1_0_1_21,2022-02-02T13:31:08.796Z,,,,,,,,,,,,,,,,,15,,,,,,,,,,,,,,413.3879999999772,,response,,,,7,B,,,,,,Space,keypress(Space),,,,lyrical,,,,---- --------- ---------- - --- ------- -- --- ------------<br>----- -- -------- ------- ---- ------ - -------- ---- -----<br>--- ------- said -- --- -------- --- - ----- ------ ---- --<br>-------- --- -------- -------- --- -------- ---- -- ----- -<br>-------- ---- --- ---------- --------- -- ------- ------ -<br>--------- ----- -----,271077.89999997616,271077,270646.959,270653.1999999881,270663.612,271080.075,,21,said
screen,html.Screen,2_3_1_0_1_22,2022-02-02T13:31:09.104Z,,,,,,,,,,,,,,,,,15,,,,,,,,,,,,,,304.62499998806743,,response,,,,7,B,,,,,,Space,keypress(Space),,,,lyrical,,,,---- --------- ---------- - --- ------- -- --- ------------<br>----- -- -------- ------- ---- ------ - -------- ---- -----<br>--- ------- ---- he --- -------- --- - ----- ------ ---- --<br>-------- --- -------- -------- --- -------- ---- -- ----- -<br>-------- ---- --- ---------- --------- -- ------- ------ -<br>--------- ----- -----,271385.59999996424,271384.6999999881,271063.472,271078,271080.075,271397.121,,22,he
screen,html.Screen,2_3_1_0_1_23,2022-02-02T13:31:09.432Z,,,,,,,,,,,,,,,,,15,,,,,,,,,,,,,,315.7789999761735,,response,,,,7,B,,,,,,Space,keypress(Space),,,,lyrical,,,,---- --------- ---------- - --- ------- -- --- ------------<br>----- -- -------- ------- ---- ------ - -------- ---- -----<br>--- ------- ---- -- was -------- --- - ----- ------ ---- --<br>-------- --- -------- -------- --- -------- ---- -- ----- -<br>-------- ---- --- ---------- --------- -- ------- ------ -<br>--------- ----- -----,271713.7999999523,271712.89999997616,271380.008,271385.6999999881,271397.121,271730.178,,23,was
screen,html.Screen,2_3_1_0_1_24,2022-02-02T13:31:09.767Z,,,,,,,,,,,,,,,,,15,,,,,,,,,,,,,,316.9219999642228,,response,,,,7,B,,,,,,Space,keypress(Space),,,,lyrical,,,,---- --------- ---------- - --- ------- -- --- ------------<br>----- -- -------- ------- ---- ------ - -------- ---- -----<br>--- ------- ---- -- --- prepared --- - ----- ------ ---- --<br>-------- --- -------- -------- --- -------- ---- -- ----- -<br>-------- ---- --- ---------- --------- -- ------- ------ -<br>--------- ----- -----,272048.09999996424,272047.09999996424,271713.562,271713.89999997616,271730.178,272063.211,,24,prepared
screen,html.Screen,2_3_1_0_1_25,2022-02-02T13:31:10.467Z,,,,,,,,,,,,,,,,,15,,,,,,,,,,,,,,684.888999964227,,response,,,,7,B,,,,,,Space,keypress(Space),,,,lyrical,,,,---- --------- ---------- - --- ------- -- --- ------------<br>----- -- -------- ------- ---- ------ - -------- ---- -----<br>--- ------- ---- -- --- -------- for - ----- ------ ---- --<br>-------- --- -------- -------- --- -------- ---- -- ----- -<br>-------- ---- --- ---------- --------- -- ------- ------ -<br>--------- ----- -----,272749,272748.09999996424,272046.52,272048.2999999523,272063.211,272763.028,,25,for
screen,html.Screen,2_3_1_0_1_26,2022-02-02T13:31:10.931Z,,,,,,,,,,,,,,,,,15,,,,,,,,,,,,,,448.77199995232513,,response,,,,7,B,,,,,,Space,keypress(Space),,,,lyrical,,,,---- --------- ---------- - --- ------- -- --- ------------<br>----- -- -------- ------- ---- ------ - -------- ---- -----<br>--- ------- ---- -- --- -------- --- a ----- ------ ---- --<br>-------- --- -------- -------- --- -------- ---- -- ----- -<br>-------- ---- --- ---------- --------- -- ------- ------ -<br>--------- ----- -----,273212.59999996424,273211.7999999523,272746.284,272749.09999996424,272763.028,273229.662,,26,a
screen,html.Screen,2_3_1_0_1_27,2022-02-02T13:31:11.588Z,,,,,,,,,,,,,,,,,15,,,,,,,,,,,,,,639.0379999880679,,response,,,,7,B,,,,,,Space,keypress(Space),,,,lyrical,,,,---- --------- ---------- - --- ------- -- --- ------------<br>----- -- -------- ------- ---- ------ - -------- ---- -----<br>--- ------- ---- -- --- -------- --- - third ------ ---- --<br>-------- --- -------- -------- --- -------- ---- -- ----- -<br>-------- ---- --- ---------- --------- -- ------- ------ -<br>--------- ----- -----,273869.39999997616,273868.6999999881,273212.889,273212.6999999881,273229.662,273879.359,,27,third
screen,html.Screen,2_3_1_0_1_28,2022-02-02T13:31:11.994Z,,,,,,,,,,,,,,,,,15,,,,,,,,,,,,,,394.94099995231954,,response,,,,7,B,,,,,,Space,keypress(Space),,,,lyrical,,,,---- --------- ---------- - --- ------- -- --- ------------<br>----- -- -------- ------- ---- ------ - -------- ---- -----<br>--- ------- ---- -- --- -------- --- - ----- prison ---- --<br>-------- --- -------- -------- --- -------- ---- -- ----- -<br>-------- ---- --- ---------- --------- -- ------- ------ -<br>--------- ----- -----,274275.09999996424,274274.2999999523,273862.642,273869.59999996424,273879.359,274279.181,,28,prison
screen,html.Screen,2_3_1_0_1_29,2022-02-02T13:31:12.515Z,,,,,,,,,,,,,,,,,15,,,,,,,,,,,,,,516.4189999642549,,response,,,,7,B,,,,,,Space,keypress(Space),,,,lyrical,,,,---- --------- ---------- - --- ------- -- --- ------------<br>----- -- -------- ------- ---- ------ - -------- ---- -----<br>--- ------- ---- -- --- -------- --- - ----- ------ stay --<br>-------- --- -------- -------- --- -------- ---- -- ----- -<br>-------- ---- --- ---------- --------- -- ------- ------ -<br>--------- ----- -----,274796.39999997616,274795.59999996424,274262.753,274275.1999999881,274279.181,274812.7,,29,stay
screen,html.Screen,2_3_1_0_1_30,2022-02-02T13:31:12.871Z,,,,,,,,,,,,,,,,,15,,,,,,,,,,,,,,338.99999998806743,,response,,,,7,B,,,,,,Space,keypress(Space),,,,lyrical,,,,---- --------- ---------- - --- ------- -- --- ------------<br>----- -- -------- ------- ---- ------ - -------- ---- -----<br>--- ------- ---- -- --- -------- --- - ----- ------ ---- to<br>-------- --- -------- -------- --- -------- ---- -- ----- -<br>-------- ---- --- ---------- --------- -- ------- ------ -<br>--------- ----- -----,275152.39999997616,275151.6999999881,274795.877,274796.59999996424,274812.7,275162.633,,30,to
screen,html.Screen,2_3_1_0_1_31,2022-02-02T13:31:13.281Z,,,,,,,,,,,,,,,,,15,,,,,,,,,,,,,,399.2669999761856,,response,,,,7,B,,,,,,Space,keypress(Space),,,,lyrical,,,,---- --------- ---------- - --- ------- -- --- ------------<br>----- -- -------- ------- ---- ------ - -------- ---- -----<br>--- ------- ---- -- --- -------- --- - ----- ------ ---- --<br>maintain --- -------- -------- --- -------- ---- -- ----- -<br>-------- ---- --- ---------- --------- -- ------- ------ -<br>--------- ----- -----,275562.6999999881,275561.89999997616,275145.762,275152.59999996424,275162.633,275578.87,,31,maintain
screen,html.Screen,2_3_1_0_1_32,2022-02-02T13:31:13.685Z,,,,,,,,,,,,,,,,,15,,,,,,,,,,,,,,386.5299999761628,,response,,,,7,B,,,,,,Space,keypress(Space),,,,lyrical,,,,---- --------- ---------- - --- ------- -- --- ------------<br>----- -- -------- ------- ---- ------ - -------- ---- -----<br>--- ------- ---- -- --- -------- --- - ----- ------ ---- --<br>-------- his -------- -------- --- -------- ---- -- ----- -<br>-------- ---- --- ---------- --------- -- ------- ------ -<br>--------- ----- -----,275966.09999996424,275965.39999997616,275562.125,275562.7999999523,275578.87,275978.714,,32,his
screen,html.Screen,2_3_1_0_1_33,2022-02-02T13:31:14.185Z,,,,,,,,,,,,,,,,,15,,,,,,,,,,,,,,486.8859999642591,,response,,,,7,B,,,,,,Space,keypress(Space),,,,lyrical,,,,---- --------- ---------- - --- ------- -- --- ------------<br>----- -- -------- ------- ---- ------ - -------- ---- -----<br>--- ------- ---- -- --- -------- --- - ----- ------ ---- --<br>-------- --- silence. -------- --- -------- ---- -- ----- -<br>-------- ---- --- ---------- --------- -- ------- ------ -<br>--------- ----- -----,276466.39999997616,276465.59999996424,275962.31,275966.1999999881,275978.714,276478.642,,33,silence.
screen,html.Screen,2_3_1_0_1_34,2022-02-02T13:31:14.775Z,,,,,,,,,,,,,,,,,15,,,,,,,,,,,,,,576.6579999523237,,response,,,,7,B,,,,,,Space,keypress(Space),,,,lyrical,,,,---- --------- ---------- - --- ------- -- --- ------------<br>----- -- -------- ------- ---- ------ - -------- ---- -----<br>--- ------- ---- -- --- -------- --- - ----- ------ ---- --<br>-------- --- -------- Anderson --- -------- ---- -- ----- -<br>-------- ---- --- ---------- --------- -- ------- ------ -<br>--------- ----- -----,277056.1999999881,277055.2999999523,276461.859,276466.5,276478.642,277061.703,,34,Anderson
screen,html.Screen,2_3_1_0_1_35,2022-02-02T13:31:15.173Z,,,,,,,,,,,,,,,,,15,,,,,,,,,,,,,,391.5969999523368,,response,,,,7,B,,,,,,Space,keypress(Space),,,,lyrical,,,,---- --------- ---------- - --- ------- -- --- ------------<br>----- -- -------- ------- ---- ------ - -------- ---- -----<br>--- ------- ---- -- --- -------- --- - ----- ------ ---- --<br>-------- --- -------- -------- was -------- ---- -- ----- -<br>-------- ---- --- ---------- --------- -- ------- ------ -<br>--------- ----- -----,277454.09999996424,277453.2999999523,277045.119,277056.39999997616,277061.703,277461.984,,35,was
screen,html.Screen,2_3_1_0_1_36,2022-02-02T13:31:15.778Z,,,,,,,,,,,,,,,,,15,,,,,,,,,,,,,,596.8159999523195,,response,,,,7,B,,,,,,Space,keypress(Space),,,,lyrical,,,,---- --------- ---------- - --- ------- -- --- ------------<br>----- -- -------- ------- ---- ------ - -------- ---- -----<br>--- ------- ---- -- --- -------- --- - ----- ------ ---- --<br>-------- --- -------- -------- --- released ---- -- ----- -<br>-------- ---- --- ---------- --------- -- ------- ------ -<br>--------- ----- -----,278059.59999996424,278058.7999999523,277444.942,277454.1999999881,277461.984,278061.392,,36,released
screen,html.Screen,2_3_1_0_1_37,2022-02-02T13:31:16.138Z,,,,,,,,,,,,,,,,,15,,,,,,,,,,,,,,356.8079999880865,,response,,,,7,B,,,,,,Space,keypress(Space),,,,lyrical,,,,---- --------- ---------- - --- ------- -- --- ------------<br>----- -- -------- ------- ---- ------ - -------- ---- -----<br>--- ------- ---- -- --- -------- --- - ----- ------ ---- --<br>-------- --- -------- -------- --- -------- July -- ----- -<br>-------- ---- --- ---------- --------- -- ------- ------ -<br>--------- ----- -----,278419,278418.1999999881,278044.915,278059.6999999881,278061.392,278428.053,,37,July
screen,html.Screen,2_3_1_0_1_38,2022-02-02T13:31:16.623Z,,,,,,,,,,,,,,,,,15,,,,,,,,,,,,,,475.44699999998556,,response,,,,7,B,,,,,,Space,keypress(Space),,,,lyrical,,,,---- --------- ---------- - --- ------- -- --- ------------<br>----- -- -------- ------- ---- ------ - -------- ---- -----<br>--- ------- ---- -- --- -------- --- - ----- ------ ---- --<br>-------- --- -------- -------- --- -------- ---- 20 ----- -<br>-------- ---- --- ---------- --------- -- ------- ------ -<br>--------- ----- -----,278904.2999999523,278903.5,278411.277,278419.09999996424,278428.053,278911.182,,38,20
screen,html.Screen,2_3_1_0_1_39,2022-02-02T13:31:17.147Z,,,,,,,,,,,,,,,,,15,,,,,,,,,,,,,,516.0179999881075,,response,,,,7,B,,,,,,Space,keypress(Space),,,,lyrical,,,,---- --------- ---------- - --- ------- -- --- ------------<br>----- -- -------- ------- ---- ------ - -------- ---- -----<br>--- ------- ---- -- --- -------- --- - ----- ------ ---- --<br>-------- --- -------- -------- --- -------- ---- -- after -<br>-------- ---- --- ---------- --------- -- ------- ------ -<br>--------- ----- -----,279428.09999996424,279427.1999999881,278894.45,278904.5,278911.182,279444.537,,39,after
screen,html.Screen,2_3_1_0_1_40,2022-02-02T13:31:17.842Z,,,,,,,,,,,,,,,,,15,,,,,,,,,,,,,,677.7629999523051,,response,,,,7,B,,,,,,Space,keypress(Space),,,,lyrical,,,,---- --------- ---------- - --- ------- -- --- ------------<br>----- -- -------- ------- ---- ------ - -------- ---- -----<br>--- ------- ---- -- --- -------- --- - ----- ------ ---- --<br>-------- --- -------- -------- --- -------- ---- -- ----- a<br>-------- ---- --- ---------- --------- -- ------- ------ -<br>--------- ----- -----,280123.09999996424,280122.2999999523,279427.667,279428.2999999523,279444.537,280127.401,,40,a
