sender,sender_type,sender_id,timestamp,meta,,Blues,Classical,Country,Dance,Electronic,Folk,Gospel,Hip-Hop,Jazz,Latin,Musical/Film,New-age,Pop,Prolific_id,Provo_ID,R&B,Rap,Reggae,Religious,Rock,Soul,Swing,Traditional,age,artist_name,correct,correctResponse,distraction,duration,education,ended_on,familiarity,gender,headphone_check_performance,item,list,music_frequency,offensiveness,pleasantness,position_correct,preference,response,response_action,snippet_file,song_name,song_rating,sound,stimulus_1,stimulus_2,stimulus_3,text,time_commit,time_end,time_render,time_run,time_show,time_switch,url,word,word_ID
Prolific ID,html.Form,0,2022-02-21T15:53:38.427Z,"{""labjs_version"":""20.2.2"",""labjs_build"":{""flavor"":""production"",""commit"":""a25486e0c714a0ae2ce03ff94b7bb6896854dcfa""},""location"":""https://run.pavlovia.org/mvasilev/prolific2_music_d/"",""userAgent"":""Mozilla/5.0 (Windows NT 10.0; Win64; x64; rv:97.0) Gecko/20100101 Firefox/97.0"",""platform"":""Win32"",""language"":""en-GB"",""locale"":""en-US"",""timeZone"":""Europe/London"",""timezoneOffset"":0,""screen_width"":1366,""screen_height"":768,""scroll_width"":1366,""scroll_height"":587,""window_innerWidth"":1366,""window_innerHeight"":587,""devicePixelRatio"":1}",,,,,,,,,,,,,,,5be883c833f40a0001032d5f,,,,,,,,,,,,,,,10026.419999999998,,form submission,,,,,,,,,,,,,,,,,,,,,29426,29425,19390.3,19390,19398.58,29437.9,{},,
Introduction,html.Screen,1_0,2022-02-21T15:53:46.590Z,,,,,,,,,,,,,,,,,,,,,,,,,,,,,,,8132.0999999999985,,response,,,,,,,,,,,continue,click button,,,,,,,,,37588,37570,29417.72,29427,29437.9,37589.7,,,
Volume calibration,html.Screen,1_1,2022-02-21T15:54:06.455Z,,,,,,,,,,,,,,,,,,,,,,,,,,,,,,,19855.300000000003,,response,,,,,,,,,,,continue,click button,,,,,,,,,57453,57445,37585.68,37588,37589.7,57451.3,,,
Task instructions,html.Screen,1_2,2022-02-21T15:54:19.750Z,,,,,,,,,,,,,,,,,,,,,,,,,,,,,,,13290.699999999997,,response,,,,,,,,,,,continue,click button,,,,,,,,,70747,70742,57449.2,57453,57451.3,70748.04,,,
Sounds,html.Screen,1_3_0_0,2022-02-21T15:54:23.979Z,,,,,,,,,,,,,,,,,,,,,,,,,,,,,,,4242.720000000001,,timeout,,,,,,,,,1,,,,,,,,S,I,O,,74976,74974.1,70745.46,70749,70748.04,74990.76,,,
Judgement,html.Screen,1_3_0_1,2022-02-21T15:54:27.799Z,,,,,,,,,,,,,,,,,,,,,,,,,,,,true,1,,3798.2400000000052,,response,,,,,,,,,1,,1,click #choice-1,,,,,S,I,O,,78796,78789,74974.1,74978,74990.76,78798.34,,,
Trial,flow.Sequence,1_3_0,2022-02-21T15:54:27.799Z,,,,,,,,,,,,,,,,,,,,,,,,,,,,,,,8040.960000000006,,completion,,,,,,,,,1,,,,,,,,S,I,O,,78797,78789,70745.46,70749,70748.04,78798.34,,,
Sounds,html.Screen,1_3_1_0,2022-02-21T15:54:32.029Z,,,,,,,,,,,,,,,,,,,,,,,,,,,,,,,4243.9800000000105,,timeout,,,,,,,,,3,,,,,,,,I,O,S,,83026,83025.66,78793.16,78798,78798.34,83042.32,,,
Judgement,html.Screen,1_3_1_1,2022-02-21T15:54:33.861Z,,,,,,,,,,,,,,,,,,,,,,,,,,,,true,3,,1808.679999999993,,response,,,,,,,,,3,,3,click #choice-3,,,,,I,O,S,,84860,84851,83025.66,83028,83042.32,84863.08,,,
Trial,flow.Sequence,1_3_1,2022-02-21T15:54:33.862Z,,,,,,,,,,,,,,,,,,,,,,,,,,,,,,,6052.6600000000035,,completion,,,,,,,,,3,,,,,,,,I,O,S,,84860,84851,78793.16,78798,78798.34,84863.08,,,
Sounds,html.Screen,1_3_2_0,2022-02-21T15:54:38.093Z,,,,,,,,,,,,,,,,,,,,,,,,,,,,,,,4242.860000000001,,timeout,,,,,,,,,2,,,,,,,,O,S,I,,89091,89089.28,84857.26,84861,84863.08,89105.94,,,
Judgement,html.Screen,1_3_2_1,2022-02-21T15:54:38.966Z,,,,,,,,,,,,,,,,,,,,,,,,,,,,true,2,,839.0599999999977,,response,,,,,,,,,2,,2,click #choice-2,,,,,O,S,I,,89963,89945,89089.28,89092,89105.94,89974.92,,,
Trial,flow.Sequence,1_3_2,2022-02-21T15:54:38.966Z,,,,,,,,,,,,,,,,,,,,,,,,,,,,,,,5081.919999999998,,completion,,,,,,,,,2,,,,,,,,O,S,I,,89964,89945,84857.26,84861,84863.08,89974.92,,,
Sounds,html.Screen,1_3_3_0,2022-02-21T15:54:43.205Z,,,,,,,,,,,,,,,,,,,,,,,,,,,,,,,4242.639999999999,,timeout,,,,,,,,,3,,,,,,,,O,I,S,,94202,94200.9,89960.94,89964,89974.92,94217.56,,,
Judgement,html.Screen,1_3_3_1,2022-02-21T15:54:43.805Z,,,,,,,,,,,,,,,,,,,,,,,,,,,,true,3,,572.4400000000023,,response,,,,,,,,,3,,3,click #choice-3,,,,,O,I,S,,94803,94790,94200.9,94203,94217.56,94802.48,,,
Trial,flow.Sequence,1_3_3,2022-02-21T15:54:43.805Z,,,,,,,,,,,,,,,,,,,,,,,,,,,,,,,4815.080000000002,,completion,,,,,,,,,3,,,,,,,,O,I,S,,94804,94790,89960.94,89964,89974.92,94802.48,,,
Sounds,html.Screen,1_3_4_0,2022-02-21T15:54:48.031Z,,,,,,,,,,,,,,,,,,,,,,,,,,,,,,,4242.580000000002,,timeout,,,,,,,,,1,,,,,,,,S,O,I,,99030,99028.38,94800.8,94804,94802.48,99045.06,,,
Judgement,html.Screen,1_3_4_1,2022-02-21T15:54:48.564Z,,,,,,,,,,,,,,,,,,,,,,,,,,,,true,1,,508.9400000000023,,response,,,,,,,,,1,,1,click #choice-1,,,,,S,O,I,,99563,99554,99028.38,99030,99045.06,99563.24,,,
Trial,flow.Sequence,1_3_4,2022-02-21T15:54:48.565Z,,,,,,,,,,,,,,,,,,,,,,,,,,,,,,,4751.520000000004,,completion,,,,,,,,,1,,,,,,,,S,O,I,,99563,99554,94800.8,94804,94802.48,99563.24,,,
Sounds,html.Screen,1_3_5_0,2022-02-21T15:54:52.792Z,,,,,,,,,,,,,,,,,,,,,,,,,,,,,,,4242.399999999994,,timeout,,,,,,,,,2,,,,,,,,I,S,O,,103791,103788.98,99560.88,99564,99563.24,103805.64,,,
Judgement,html.Screen,1_3_5_1,2022-02-21T15:54:53.478Z,,,,,,,,,,,,,,,,,,,,,,,,,,,,true,2,,655.3600000000006,,response,,,,,,,,,2,,2,click #choice-2,,,,,I,S,O,,104476,104461,103788.98,103791,103805.64,104474.34,,,
Trial,flow.Sequence,1_3_5,2022-02-21T15:54:53.478Z,,,,,,,,,,,,,,,,,,,,,,,,,,,,,,,4897.759999999995,,completion,,,,,,,,,2,,,,,,,,I,S,O,,104476,104461,99560.88,99564,99563.24,104474.34,,,
Task,flow.Loop,1_3,2022-02-21T15:54:53.479Z,,,,,,,,,,,,,,,,,,,,,,,,,,,,,,,33712.96000000001,,completion,,,1,,,,,,,,,,,,,,,,,,104477,104461,70745.46,70748,70748.04,104474.34,,,
Trap,html.Screen,1_4,2022-02-21T15:54:53.483Z,,,,,,,,,,,,,,,,,,,,,,,,,,,,,,,NaN,,skipped,,,,,,,,,,,,,,,,,,,,,104480,104461,,104480,,104474.34,,,
Thanks,html.Screen,1_5,2022-02-21T15:54:57.572Z,,,,,,,,,,,,,,,,,,,,,,,,,,,,,,,4079.6600000000035,,response,,,,,,,,,,,continue,click button,,,,,,,,,108571,108554,104472.9,104481,104474.34,111105.94,,,
Headphone screening,flow.Sequence,1,2022-02-21T15:54:57.573Z,,,,,,,,,,,,,,,,,,,,,,,,,,,,,,,79116.1,,completion,,,,,,,,,,,,,,,,,,,,,108572,108554,29417.72,29427,29437.9,111105.94,,,
Instructions,html.Page,2_0,2022-02-21T15:55:32.809Z,,,,,,,,,,,,,,,,,,,,,,,,,,,,,,,32700.059999999998,,form submission,,,,,,,,,,,,,,,,,,,,,143808,143806,111089.28,111086,111105.94,143813.32,,,
Holding screen,html.Screen,2_1_0_0,2022-02-21T15:55:42.806Z,,,,,,,,,,,,,,,,,,,,,,,,,,,,,,,10005.660000000003,,timeout,,,,,,,,,,,,,,,,,,,,,153803,153802.3,143800.34,143808,143813.32,153818.98,,,
screen,html.Screen,2_1_0_1_0,2022-02-21T15:55:43.571Z,,,,,,,,,,,,,,,,,53,,,,,,,,,,,,,,736.0199999999895,,response,,,,99,,,,,,,Space,keypress(Space),,,,,,,,When -- ----- -- ------ - ------- --- ----------<br>------------- ------ ------ ---- ---- ------- ----- -- ----<br>-------- ------- -- ---------- --- - --- ----- ----- ----<br>---- --- --- ----- --- ---- ---- ------- ----- ---- -------<br>--- --- -- ----- -- --- ---- -- --- ---- -- ------ ------<br>--- ----- -- ----,154570,154555,153802.3,153804,153818.98,154570.62,,0,When
screen,html.Screen,2_1_0_1_1,2022-02-21T15:55:44.190Z,,,,,,,,,,,,,,,,,53,,,,,,,,,,,,,,608.3800000000047,,response,,,,99,,,,,,,Space,keypress(Space),,,,,,,,---- it ----- -- ------ - ------- --- ----------<br>------------- ------ ------ ---- ---- ------- ----- -- ----<br>-------- ------- -- ---------- --- - --- ----- ----- ----<br>---- --- --- ----- --- ---- ---- ------- ----- ---- -------<br>--- --- -- ----- -- --- ---- -- --- ---- -- ------ ------<br>--- ----- -- ----,155188,155179,154570.44,154570,154570.62,155188.82,,1,it
screen,html.Screen,2_1_0_1_2,2022-02-21T15:55:44.588Z,,,,,,,,,,,,,,,,,53,,,,,,,,,,,,,,381.179999999993,,response,,,,99,,,,,,,Space,keypress(Space),,,,,,,,---- -- comes -- ------ - ------- --- ----------<br>------------- ------ ------ ---- ---- ------- ----- -- ----<br>-------- ------- -- ---------- --- - --- ----- ----- ----<br>---- --- --- ----- --- ---- ---- ------- ----- ---- -------<br>--- --- -- ----- -- --- ---- -- --- ---- -- ------ ------<br>--- ----- -- ----,155587,155570,155188.62,155189,155188.82,155586.76,,2,comes
screen,html.Screen,2_1_0_1_3,2022-02-21T15:55:45.047Z,,,,,,,,,,,,,,,,,53,,,,,,,,,,,,,,452.2399999999907,,response,,,,99,,,,,,,Space,keypress(Space),,,,,,,,---- -- ----- to ------ - ------- --- ----------<br>------------- ------ ------ ---- ---- ------- ----- -- ----<br>-------- ------- -- ---------- --- - --- ----- ----- ----<br>---- --- --- ----- --- ---- ---- ------- ----- ---- -------<br>--- --- -- ----- -- --- ---- -- --- ---- -- ------ ------<br>--- ----- -- ----,156045,156039,155586.54,155587,155586.76,156045.64,,3,to
screen,html.Screen,2_1_0_1_4,2022-02-21T15:55:45.592Z,,,,,,,,,,,,,,,,,53,,,,,,,,,,,,,,541.359999999986,,response,,,,99,,,,,,,Space,keypress(Space),,,,,,,,---- -- ----- -- having - ------- --- ----------<br>------------- ------ ------ ---- ---- ------- ----- -- ----<br>-------- ------- -- ---------- --- - --- ----- ----- ----<br>---- --- --- ----- --- ---- ---- ------- ----- ---- -------<br>--- --- -- ----- -- --- ---- -- --- ---- -- ------ ------<br>--- ----- -- ----,156590,156587,156045.4,156046,156045.64,156592.22,,4,having
screen,html.Screen,2_1_0_1_5,2022-02-21T15:55:46.341Z,,,,,,,,,,,,,,,,,53,,,,,,,,,,,,,,743.7799999999988,,response,,,,99,,,,,,,Space,keypress(Space),,,,,,,,---- -- ----- -- ------ a ------- --- ----------<br>------------- ------ ------ ---- ---- ------- ----- -- ----<br>-------- ------- -- ---------- --- - --- ----- ----- ----<br>---- --- --- ----- --- ---- ---- ------- ----- ---- -------<br>--- --- -- ----- -- --- ---- -- --- ---- -- ------ ------<br>--- ----- -- ----,157339,157336,156590.34,156590,156592.22,157339.48,,5,a
screen,html.Screen,2_1_0_1_6,2022-02-21T15:55:46.892Z,,,,,,,,,,,,,,,,,53,,,,,,,,,,,,,,543.5199999999895,,response,,,,99,,,,,,,Space,keypress(Space),,,,,,,,---- -- ----- -- ------ - lasting --- ----------<br>------------- ------ ------ ---- ---- ------- ----- -- ----<br>-------- ------- -- ---------- --- - --- ----- ----- ----<br>---- --- --- ----- --- ---- ---- ------- ----- ---- -------<br>--- --- -- ----- -- --- ---- -- --- ---- -- ------ ------<br>--- ----- -- ----,157890,157883,157339.24,157339,157339.48,157890.66,,6,lasting
screen,html.Screen,2_1_0_1_7,2022-02-21T15:55:47.431Z,,,,,,,,,,,,,,,,,53,,,,,,,,,,,,,,524.3399999999965,,response,,,,99,,,,,,,Space,keypress(Space),,,,,,,,---- -- ----- -- ------ - ------- and ----------<br>------------- ------ ------ ---- ---- ------- ----- -- ----<br>-------- ------- -- ---------- --- - --- ----- ----- ----<br>---- --- --- ----- --- ---- ---- ------- ----- ---- -------<br>--- --- -- ----- -- --- ---- -- --- ---- -- ------ ------<br>--- ----- -- ----,158429,158415,157890.44,157890,157890.66,158429.62,,7,and
screen,html.Screen,2_1_0_1_8,2022-02-21T15:55:47.932Z,,,,,,,,,,,,,,,,,53,,,,,,,,,,,,,,485.38000000000466,,response,,,,99,,,,,,,Space,keypress(Space),,,,,,,,---- -- ----- -- ------ - ------- --- fulfilling<br>------------- ------ ------ ---- ---- ------- ----- -- ----<br>-------- ------- -- ---------- --- - --- ----- ----- ----<br>---- --- --- ----- --- ---- ---- ------- ----- ---- -------<br>--- --- -- ----- -- --- ---- -- --- ---- -- ------ ------<br>--- ----- -- ----,158931,158915,158429.42,158429,158429.62,158931.2,,8,fulfilling
screen,html.Screen,2_1_0_1_9,2022-02-21T15:55:48.546Z,,,,,,,,,,,,,,,,,53,,,,,,,,,,,,,,608.7999999999884,,response,,,,99,,,,,,,Space,keypress(Space),,,,,,,,"---- -- ----- -- ------ - ------- --- ----------<br>relationship, ------ ------ ---- ---- ------- ----- -- ----<br>-------- ------- -- ---------- --- - --- ----- ----- ----<br>---- --- --- ----- --- ---- ---- ------- ----- ---- -------<br>--- --- -- ----- -- --- ---- -- --- ---- -- ------ ------<br>--- ----- -- ----",159544,159540,158931,158931,158931.2,159544.26,,9,"relationship,"
screen,html.Screen,2_1_0_1_10,2022-02-21T15:55:49.008Z,,,,,,,,,,,,,,,,,53,,,,,,,,,,,,,,448.7399999999907,,response,,,,99,,,,,,,Space,keypress(Space),,,,,,,,---- -- ----- -- ------ - ------- --- ----------<br>------------- common ------ ---- ---- ------- ----- -- ----<br>-------- ------- -- ---------- --- - --- ----- ----- ----<br>---- --- --- ----- --- ---- ---- ------- ----- ---- -------<br>--- --- -- ----- -- --- ---- -- --- ---- -- ------ ------<br>--- ----- -- ----,160006,159993,159544.02,159544,159544.26,160005.96,,10,common
screen,html.Screen,2_1_0_1_11,2022-02-21T15:55:49.479Z,,,,,,,,,,,,,,,,,53,,,,,,,,,,,,,,455.04000000000815,,response,,,,99,,,,,,,Space,keypress(Space),,,,,,,,---- -- ----- -- ------ - ------- --- ----------<br>------------- ------ wisdom ---- ---- ------- ----- -- ----<br>-------- ------- -- ---------- --- - --- ----- ----- ----<br>---- --- --- ----- --- ---- ---- ------- ----- ---- -------<br>--- --- -- ----- -- --- ---- -- --- ---- -- ------ ------<br>--- ----- -- ----,160478,160461,160005.72,160006,160005.96,160477.92,,11,wisdom
screen,html.Screen,2_1_0_1_12,2022-02-21T15:55:49.848Z,,,,,,,,,,,,,,,,,53,,,,,,,,,,,,,,358.0799999999872,,response,,,,99,,,,,,,Space,keypress(Space),,,,,,,,---- -- ----- -- ------ - ------- --- ----------<br>------------- ------ ------ says ---- ------- ----- -- ----<br>-------- ------- -- ---------- --- - --- ----- ----- ----<br>---- --- --- ----- --- ---- ---- ------- ----- ---- -------<br>--- --- -- ----- -- --- ---- -- --- ---- -- ------ ------<br>--- ----- -- ----,160846,160836,160477.74,160478,160477.92,160846.46,,12,says
screen,html.Screen,2_1_0_1_13,2022-02-21T15:55:50.287Z,,,,,,,,,,,,,,,,,53,,,,,,,,,,,,,,427.54000000000815,,response,,,,99,,,,,,,Space,keypress(Space),,,,,,,,---- -- ----- -- ------ - ------- --- ----------<br>------------- ------ ------ ---- that ------- ----- -- ----<br>-------- ------- -- ---------- --- - --- ----- ----- ----<br>---- --- --- ----- --- ---- ---- ------- ----- ---- -------<br>--- --- -- ----- -- --- ---- -- --- ---- -- ------ ------<br>--- ----- -- ----,161286,161274,160846.24,160847,160846.46,161285.92,,13,that
screen,html.Screen,2_1_0_1_14,2022-02-21T15:55:50.944Z,,,,,,,,,,,,,,,,,53,,,,,,,,,,,,,,644.0799999999872,,response,,,,99,,,,,,,Space,keypress(Space),,,,,,,,---- -- ----- -- ------ - ------- --- ----------<br>------------- ------ ------ ---- ---- feeling ----- -- ----<br>-------- ------- -- ---------- --- - --- ----- ----- ----<br>---- --- --- ----- --- ---- ---- ------- ----- ---- -------<br>--- --- -- ----- -- --- ---- -- --- ---- -- ------ ------<br>--- ----- -- ----,161941,161930,161285.68,161286,161285.92,161941.9,,14,feeling
screen,html.Screen,2_1_0_1_15,2022-02-21T15:55:51.514Z,,,,,,,,,,,,,,,,,53,,,,,,,,,,,,,,566.1000000000058,,response,,,,99,,,,,,,Space,keypress(Space),,,,,,,,---- -- ----- -- ------ - ------- --- ----------<br>------------- ------ ------ ---- ---- ------- close -- ----<br>-------- ------- -- ---------- --- - --- ----- ----- ----<br>---- --- --- ----- --- ---- ---- ------- ----- ---- -------<br>--- --- -- ----- -- --- ---- -- --- ---- -- ------ ------<br>--- ----- -- ----,162512,162508,161941.7,161942,161941.9,162512.36,,15,close
screen,html.Screen,2_1_0_1_16,2022-02-21T15:55:51.835Z,,,,,,,,,,,,,,,,,53,,,,,,,,,,,,,,308.64000000001397,,response,,,,99,,,,,,,Space,keypress(Space),,,,,,,,---- -- ----- -- ------ - ------- --- ----------<br>------------- ------ ------ ---- ---- ------- ----- to ----<br>-------- ------- -- ---------- --- - --- ----- ----- ----<br>---- --- --- ----- --- ---- ---- ------- ----- ---- -------<br>--- --- -- ----- -- --- ---- -- --- ---- -- ------ ------<br>--- ----- -- ----,162833,162821,162512.18,162512,162512.36,162833.42,,16,to
screen,html.Screen,2_1_0_1_17,2022-02-21T15:55:52.241Z,,,,,,,,,,,,,,,,,53,,,,,,,,,,,,,,392.5799999999872,,response,,,,99,,,,,,,Space,keypress(Space),,,,,,,,---- -- ----- -- ------ - ------- --- ----------<br>------------- ------ ------ ---- ---- ------- ----- -- your<br>-------- ------- -- ---------- --- - --- ----- ----- ----<br>---- --- --- ----- --- ---- ---- ------- ----- ---- -------<br>--- --- -- ----- -- --- ---- -- --- ---- -- ------ ------<br>--- ----- -- ----,163239,163226,162833.22,162833,162833.42,163239.64,,17,your
screen,html.Screen,2_1_0_1_18,2022-02-21T15:55:52.959Z,,,,,,,,,,,,,,,,,53,,,,,,,,,,,,,,705.359999999986,,response,,,,99,,,,,,,Space,keypress(Space),,,,,,,,---- -- ----- -- ------ - ------- --- ----------<br>------------- ------ ------ ---- ---- ------- ----- -- ----<br>romantic ------- -- ---------- --- - --- ----- ----- ----<br>---- --- --- ----- --- ---- ---- ------- ----- ---- -------<br>--- --- -- ----- -- --- ---- -- --- ---- -- ------ ------<br>--- ----- -- ----,163958,163945,163239.42,163239,163239.64,163958.12,,18,romantic
screen,html.Screen,2_1_0_1_19,2022-02-21T15:55:53.734Z,,,,,,,,,,,,,,,,,53,,,,,,,,,,,,,,768.8800000000047,,response,,,,99,,,,,,,Space,keypress(Space),,,,,,,,---- -- ----- -- ------ - ------- --- ----------<br>------------- ------ ------ ---- ---- ------- ----- -- ----<br>-------- partner -- ---------- --- - --- ----- ----- ----<br>---- --- --- ----- --- ---- ---- ------- ----- ---- -------<br>--- --- -- ----- -- --- ---- -- --- ---- -- ------ ------<br>--- ----- -- ----,164733,164727,163957.9,163958,163958.12,164732.84,,19,partner
screen,html.Screen,2_1_0_1_20,2022-02-21T15:55:54.182Z,,,,,,,,,,,,,,,,,53,,,,,,,,,,,,,,432.1600000000035,,response,,,,99,,,,,,,Space,keypress(Space),,,,,,,,---- -- ----- -- ------ - ------- --- ----------<br>------------- ------ ------ ---- ---- ------- ----- -- ----<br>-------- ------- is ---------- --- - --- ----- ----- ----<br>---- --- --- ----- --- ---- ---- ------- ----- ---- -------<br>--- --- -- ----- -- --- ---- -- --- ---- -- ------ ------<br>--- ----- -- ----,165180,165165,164732.64,164733,164732.84,165180.84,,20,is
screen,html.Screen,2_1_0_1_21,2022-02-21T15:55:54.711Z,,,,,,,,,,,,,,,,,53,,,,,,,,,,,,,,514.1600000000035,,response,,,,99,,,,,,,Space,keypress(Space),,,,,,,,---- -- ----- -- ------ - ------- --- ----------<br>------------- ------ ------ ---- ---- ------- ----- -- ----<br>-------- ------- -- paramount. --- - --- ----- ----- ----<br>---- --- --- ----- --- ---- ---- ------- ----- ---- -------<br>--- --- -- ----- -- --- ---- -- --- ---- -- ------ ------<br>--- ----- -- ----,165709,165695,165180.62,165181,165180.84,165709.58,,21,paramount.
screen,html.Screen,2_1_0_1_22,2022-02-21T15:55:55.195Z,,,,,,,,,,,,,,,,,53,,,,,,,,,,,,,,469.4200000000128,,response,,,,99,,,,,,,Space,keypress(Space),,,,,,,,---- -- ----- -- ------ - ------- --- ----------<br>------------- ------ ------ ---- ---- ------- ----- -- ----<br>-------- ------- -- ---------- But - --- ----- ----- ----<br>---- --- --- ----- --- ---- ---- ------- ----- ---- -------<br>--- --- -- ----- -- --- ---- -- --- ---- -- ------ ------<br>--- ----- -- ----,166192,166179,165709.38,165709,165709.58,166193.24,,22,But
screen,html.Screen,2_1_0_1_23,2022-02-21T15:55:55.644Z,,,,,,,,,,,,,,,,,53,,,,,,,,,,,,,,439.7600000000093,,response,,,,99,,,,,,,Space,keypress(Space),,,,,,,,---- -- ----- -- ------ - ------- --- ----------<br>------------- ------ ------ ---- ---- ------- ----- -- ----<br>-------- ------- -- ---------- --- a --- ----- ----- ----<br>---- --- --- ----- --- ---- ---- ------- ----- ---- -------<br>--- --- -- ----- -- --- ---- -- --- ---- -- ------ ------<br>--- ----- -- ----,166642,166633,166193.04,166192,166193.24,166642.88,,23,a
screen,html.Screen,2_1_0_1_24,2022-02-21T15:55:56.058Z,,,,,,,,,,,,,,,,,53,,,,,,,,,,,,,,412.11999999999534,,response,,,,99,,,,,,,Space,keypress(Space),,,,,,,,---- -- ----- -- ------ - ------- --- ----------<br>------------- ------ ------ ---- ---- ------- ----- -- ----<br>-------- ------- -- ---------- --- - new ----- ----- ----<br>---- --- --- ----- --- ---- ---- ------- ----- ---- -------<br>--- --- -- ----- -- --- ---- -- --- ---- -- ------ ------<br>--- ----- -- ----,167056,167055,166642.66,166642,166642.88,167056.64,,24,new
screen,html.Screen,2_1_0_1_25,2022-02-21T15:55:56.420Z,,,,,,,,,,,,,,,,,53,,,,,,,,,,,,,,357.35999999998603,,response,,,,99,,,,,,,Space,keypress(Space),,,,,,,,---- -- ----- -- ------ - ------- --- ----------<br>------------- ------ ------ ---- ---- ------- ----- -- ----<br>-------- ------- -- ---------- --- - --- study ----- ----<br>---- --- --- ----- --- ---- ---- ------- ----- ---- -------<br>--- --- -- ----- -- --- ---- -- --- ---- -- ------ ------<br>--- ----- -- ----,167418,167414,167056.42,167057,167056.64,167418.34,,25,study
screen,html.Screen,2_1_0_1_26,2022-02-21T15:55:56.794Z,,,,,,,,,,,,,,,,,53,,,,,,,,,,,,,,371.6600000000035,,response,,,,99,,,,,,,Space,keypress(Space),,,,,,,,---- -- ----- -- ------ - ------- --- ----------<br>------------- ------ ------ ---- ---- ------- ----- -- ----<br>-------- ------- -- ---------- --- - --- ----- finds ----<br>---- --- --- ----- --- ---- ---- ------- ----- ---- -------<br>--- --- -- ----- -- --- ---- -- --- ---- -- ------ ------<br>--- ----- -- ----,167793,167790,167418.14,167418,167418.34,167793.1,,26,finds
screen,html.Screen,2_1_0_1_27,2022-02-21T15:55:57.127Z,,,,,,,,,,,,,,,,,53,,,,,,,,,,,,,,323.8999999999942,,response,,,,99,,,,,,,Space,keypress(Space),,,,,,,,---- -- ----- -- ------ - ------- --- ----------<br>------------- ------ ------ ---- ---- ------- ----- -- ----<br>-------- ------- -- ---------- --- - --- ----- ----- that<br>---- --- --- ----- --- ---- ---- ------- ----- ---- -------<br>--- --- -- ----- -- --- ---- -- --- ---- -- ------ ------<br>--- ----- -- ----,168126,168117,167792.9,167793,167793.1,168125.8,,27,that
screen,html.Screen,2_1_0_1_28,2022-02-21T15:55:57.554Z,,,,,,,,,,,,,,,,,53,,,,,,,,,,,,,,414.20000000001164,,response,,,,99,,,,,,,Space,keypress(Space),,,,,,,,---- -- ----- -- ------ - ------- --- ----------<br>------------- ------ ------ ---- ---- ------- ----- -- ----<br>-------- ------- -- ---------- --- - --- ----- ----- ----<br>it's --- --- ----- --- ---- ---- ------- ----- ---- -------<br>--- --- -- ----- -- --- ---- -- --- ---- -- ------ ------<br>--- ----- -- ----,168552,168540,168125.58,168126,168125.8,168552.36,,28,it's
screen,html.Screen,2_1_0_1_29,2022-02-21T15:55:57.920Z,,,,,,,,,,,,,,,,,53,,,,,,,,,,,,,,362.64000000001397,,response,,,,99,,,,,,,Space,keypress(Space),,,,,,,,---- -- ----- -- ------ - ------- --- ----------<br>------------- ------ ------ ---- ---- ------- ----- -- ----<br>-------- ------- -- ---------- --- - --- ----- ----- ----<br>---- not --- ----- --- ---- ---- ------- ----- ---- -------<br>--- --- -- ----- -- --- ---- -- --- ---- -- ------ ------<br>--- ----- -- ----,168918,168915,168552.16,168552,168552.36,168919.42,,29,not
screen,html.Screen,2_1_0_1_30,2022-02-21T15:55:58.803Z,,,,,,,,,,,,,,,,,53,,,,,,,,,,,,,,869.5799999999872,,response,,,,99,,,,,,,Space,keypress(Space),,,,,,,,---- -- ----- -- ------ - ------- --- ----------<br>------------- ------ ------ ---- ---- ------- ----- -- ----<br>-------- ------- -- ---------- --- - --- ----- ----- ----<br>---- --- how ----- --- ---- ---- ------- ----- ---- -------<br>--- --- -- ----- -- --- ---- -- --- ---- -- ------ ------<br>--- ----- -- ----,169801,169789,168918.54,168918,168919.42,169801.88,,30,how
screen,html.Screen,2_1_0_1_31,2022-02-21T15:55:59.367Z,,,,,,,,,,,,,,,,,53,,,,,,,,,,,,,,549.1199999999953,,response,,,,99,,,,,,,Space,keypress(Space),,,,,,,,---- -- ----- -- ------ - ------- --- ----------<br>------------- ------ ------ ---- ---- ------- ----- -- ----<br>-------- ------- -- ---------- --- - --- ----- ----- ----<br>---- --- --- close --- ---- ---- ------- ----- ---- -------<br>--- --- -- ----- -- --- ---- -- --- ---- -- ------ ------<br>--- ----- -- ----,170365,170351,169801.68,169802,169801.88,170365.48,,31,close
screen,html.Screen,2_1_0_1_32,2022-02-21T15:56:00.092Z,,,,,,,,,,,,,,,,,53,,,,,,,,,,,,,,721.5199999999895,,response,,,,99,,,,,,,Space,keypress(Space),,,,,,,,---- -- ----- -- ------ - ------- --- ----------<br>------------- ------ ------ ---- ---- ------- ----- -- ----<br>-------- ------- -- ---------- --- - --- ----- ----- ----<br>---- --- --- ----- you ---- ---- ------- ----- ---- -------<br>--- --- -- ----- -- --- ---- -- --- ---- -- ------ ------<br>--- ----- -- ----,171091,171087,170365.26,170365,170365.48,171091.68,,32,you
screen,html.Screen,2_1_0_1_33,2022-02-21T15:56:00.711Z,,,,,,,,,,,,,,,,,53,,,,,,,,,,,,,,604.320000000007,,response,,,,99,,,,,,,Space,keypress(Space),,,,,,,,---- -- ----- -- ------ - ------- --- ----------<br>------------- ------ ------ ---- ---- ------- ----- -- ----<br>-------- ------- -- ---------- --- - --- ----- ----- ----<br>---- --- --- ----- --- feel ---- ------- ----- ---- -------<br>--- --- -- ----- -- --- ---- -- --- ---- -- ------ ------<br>--- ----- -- ----,171709,171696,171090.38,171091,171091.68,171709.42,,33,feel
screen,html.Screen,2_1_0_1_34,2022-02-21T15:56:01.109Z,,,,,,,,,,,,,,,,,53,,,,,,,,,,,,,,391.5799999999872,,response,,,,99,,,,,,,Space,keypress(Space),,,,,,,,---- -- ----- -- ------ - ------- --- ----------<br>------------- ------ ------ ---- ---- ------- ----- -- ----<br>-------- ------- -- ---------- --- - --- ----- ----- ----<br>---- --- --- ----- --- ---- that ------- ----- ---- -------<br>--- --- -- ----- -- --- ---- -- --- ---- -- ------ ------<br>--- ----- -- ----,172107,172101,171709.18,171710,171709.42,172107.72,,34,that
screen,html.Screen,2_1_0_1_35,2022-02-21T15:56:01.615Z,,,,,,,,,,,,,,,,,53,,,,,,,,,,,,,,493.27999999999884,,response,,,,99,,,,,,,Space,keypress(Space),,,,,,,,---- -- ----- -- ------ - ------- --- ----------<br>------------- ------ ------ ---- ---- ------- ----- -- ----<br>-------- ------- -- ---------- --- - --- ----- ----- ----<br>---- --- --- ----- --- ---- ---- matters ----- ---- -------<br>--- --- -- ----- -- --- ---- -- --- ---- -- ------ ------<br>--- ----- -- ----,172614,172601,172107.52,172107,172107.72,172613.74,,35,matters
screen,html.Screen,2_1_0_1_36,2022-02-21T15:56:02.130Z,,,,,,,,,,,,,,,,,53,,,,,,,,,,,,,,503.2600000000093,,response,,,,99,,,,,,,Space,keypress(Space),,,,,,,,"---- -- ----- -- ------ - ------- --- ----------<br>------------- ------ ------ ---- ---- ------- ----- -- ----<br>-------- ------- -- ---------- --- - --- ----- ----- ----<br>---- --- --- ----- --- ---- ---- ------- most, ---- -------<br>--- --- -- ----- -- --- ---- -- --- ---- -- ------ ------<br>--- ----- -- ----",173128,173117,172613.52,172614,172613.74,173128.88,,36,"most,"
screen,html.Screen,2_1_0_1_37,2022-02-21T15:56:02.594Z,,,,,,,,,,,,,,,,,53,,,,,,,,,,,,,,457.11999999999534,,response,,,,99,,,,,,,Space,keypress(Space),,,,,,,,---- -- ----- -- ------ - ------- --- ----------<br>------------- ------ ------ ---- ---- ------- ----- -- ----<br>-------- ------- -- ---------- --- - --- ----- ----- ----<br>---- --- --- ----- --- ---- ---- ------- ----- it's -------<br>--- --- -- ----- -- --- ---- -- --- ---- -- ------ ------<br>--- ----- -- ----,173592,173586,173128.7,173129,173128.88,173592.02,,37,it's
screen,html.Screen,2_1_0_1_38,2022-02-21T15:56:02.995Z,,,,,,,,,,,,,,,,,53,,,,,,,,,,,,,,383.9800000000105,,response,,,,99,,,,,,,Space,keypress(Space),,,,,,,,---- -- ----- -- ------ - ------- --- ----------<br>------------- ------ ------ ---- ---- ------- ----- -- ----<br>-------- ------- -- ---------- --- - --- ----- ----- ----<br>---- --- --- ----- --- ---- ---- ------- ----- ---- whether<br>--- --- -- ----- -- --- ---- -- --- ---- -- ------ ------<br>--- ----- -- ----,173993,173976,173591.84,173592,173592.02,173993.74,,38,whether
screen,html.Screen,2_1_0_1_39,2022-02-21T15:56:03.395Z,,,,,,,,,,,,,,,,,53,,,,,,,,,,,,,,390.2600000000093,,response,,,,99,,,,,,,Space,keypress(Space),,,,,,,,---- -- ----- -- ------ - ------- --- ----------<br>------------- ------ ------ ---- ---- ------- ----- -- ----<br>-------- ------- -- ---------- --- - --- ----- ----- ----<br>---- --- --- ----- --- ---- ---- ------- ----- ---- -------<br>you --- -- ----- -- --- ---- -- --- ---- -- ------ ------<br>--- ----- -- ----,174394,174384,173993.52,173993,173993.74,174394.28,,39,you
screen,html.Screen,2_1_0_1_40,2022-02-21T15:56:03.745Z,,,,,,,,,,,,,,,,,53,,,,,,,,,,,,,,332.72000000000116,,response,,,,99,,,,,,,Space,keypress(Space),,,,,,,,---- -- ----- -- ------ - ------- --- ----------<br>------------- ------ ------ ---- ---- ------- ----- -- ----<br>-------- ------- -- ---------- --- - --- ----- ----- ----<br>---- --- --- ----- --- ---- ---- ------- ----- ---- -------<br>--- are -- ----- -- --- ---- -- --- ---- -- ------ ------<br>--- ----- -- ----,174743,174727,174394.06,174394,174394.28,174744.06,,40,are
screen,html.Screen,2_1_0_1_41,2022-02-21T15:56:04.181Z,,,,,,,,,,,,,,,,,53,,,,,,,,,,,,,,420.9400000000023,,response,,,,99,,,,,,,Space,keypress(Space),,,,,,,,---- -- ----- -- ------ - ------- --- ----------<br>------------- ------ ------ ---- ---- ------- ----- -- ----<br>-------- ------- -- ---------- --- - --- ----- ----- ----<br>---- --- --- ----- --- ---- ---- ------- ----- ---- -------<br>--- --- as ----- -- --- ---- -- --- ---- -- ------ ------<br>--- ----- -- ----,175179,175165,174743.84,174743,174744.06,175178.96,,41,as
screen,html.Screen,2_1_0_1_42,2022-02-21T15:56:05.356Z,,,,,,,,,,,,,,,,,53,,,,,,,,,,,,,,1172.0400000000081,,response,,,,99,,,,,,,Space,keypress(Space),,,,,,,,---- -- ----- -- ------ - ------- --- ----------<br>------------- ------ ------ ---- ---- ------- ----- -- ----<br>-------- ------- -- ---------- --- - --- ----- ----- ----<br>---- --- --- ----- --- ---- ---- ------- ----- ---- -------<br>--- --- -- close -- --- ---- -- --- ---- -- ------ ------<br>--- ----- -- ----,176354,176351,175178.74,175179,175178.96,176355.36,,42,close
screen,html.Screen,2_1_0_1_43,2022-02-21T15:56:06.220Z,,,,,,,,,,,,,,,,,53,,,,,,,,,,,,,,855.640000000014,,response,,,,99,,,,,,,Space,keypress(Space),,,,,,,,---- -- ----- -- ------ - ------- --- ----------<br>------------- ------ ------ ---- ---- ------- ----- -- ----<br>-------- ------- -- ---------- --- - --- ----- ----- ----<br>---- --- --- ----- --- ---- ---- ------- ----- ---- -------<br>--- --- -- ----- as --- ---- -- --- ---- -- ------ ------<br>--- ----- -- ----,177218,177211,176355.14,176355,176355.36,177219.38,,43,as
screen,html.Screen,2_1_0_1_44,2022-02-21T15:56:06.969Z,,,,,,,,,,,,,,,,,53,,,,,,,,,,,,,,741.6199999999953,,response,,,,99,,,,,,,Space,keypress(Space),,,,,,,,---- -- ----- -- ------ - ------- --- ----------<br>------------- ------ ------ ---- ---- ------- ----- -- ----<br>-------- ------- -- ---------- --- - --- ----- ----- ----<br>---- --- --- ----- --- ---- ---- ------- ----- ---- -------<br>--- --- -- ----- -- you ---- -- --- ---- -- ------ ------<br>--- ----- -- ----,177967,177961,177219.16,177219,177219.38,177967.84,,44,you
screen,html.Screen,2_1_0_1_45,2022-02-21T15:56:07.328Z,,,,,,,,,,,,,,,,,53,,,,,,,,,,,,,,352.1600000000035,,response,,,,99,,,,,,,Space,keypress(Space),,,,,,,,---- -- ----- -- ------ - ------- --- ----------<br>------------- ------ ------ ---- ---- ------- ----- -- ----<br>-------- ------- -- ---------- --- - --- ----- ----- ----<br>---- --- --- ----- --- ---- ---- ------- ----- ---- -------<br>--- --- -- ----- -- --- want -- --- ---- -- ------ ------<br>--- ----- -- ----,178327,178320,177967.64,177968,177967.84,178327.44,,45,want
screen,html.Screen,2_1_0_1_46,2022-02-21T15:56:07.747Z,,,,,,,,,,,,,,,,,53,,,,,,,,,,,,,,415.5599999999977,,response,,,,99,,,,,,,Space,keypress(Space),,,,,,,,---- -- ----- -- ------ - ------- --- ----------<br>------------- ------ ------ ---- ---- ------- ----- -- ----<br>-------- ------- -- ---------- --- - --- ----- ----- ----<br>---- --- --- ----- --- ---- ---- ------- ----- ---- -------<br>--- --- -- ----- -- --- ---- to --- ---- -- ------ ------<br>--- ----- -- ----,178746,178743,178327.24,178327,178327.44,178745.64,,46,to
screen,html.Screen,2_1_0_1_47,2022-02-21T15:56:08.119Z,,,,,,,,,,,,,,,,,53,,,,,,,,,,,,,,356.35999999998603,,response,,,,99,,,,,,,Space,keypress(Space),,,,,,,,"---- -- ----- -- ------ - ------- --- ----------<br>------------- ------ ------ ---- ---- ------- ----- -- ----<br>-------- ------- -- ---------- --- - --- ----- ----- ----<br>---- --- --- ----- --- ---- ---- ------- ----- ---- -------<br>--- --- -- ----- -- --- ---- -- be, ---- -- ------ ------<br>--- ----- -- ----",179117,179102,178745.44,178746,178745.64,179117.2,,47,"be,"
screen,html.Screen,2_1_0_1_48,2022-02-21T15:56:08.522Z,,,,,,,,,,,,,,,,,53,,,,,,,,,,,,,,391.79999999998836,,response,,,,99,,,,,,,Space,keypress(Space),,,,,,,,---- -- ----- -- ------ - ------- --- ----------<br>------------- ------ ------ ---- ---- ------- ----- -- ----<br>-------- ------- -- ---------- --- - --- ----- ----- ----<br>---- --- --- ----- --- ---- ---- ------- ----- ---- -------<br>--- --- -- ----- -- --- ---- -- --- even -- ------ ------<br>--- ----- -- ----,179520,179509,179117.02,179117,179117.2,179520.78,,48,even
screen,html.Screen,2_1_0_1_49,2022-02-21T15:56:09.007Z,,,,,,,,,,,,,,,,,53,,,,,,,,,,,,,,471.22000000000116,,response,,,,99,,,,,,,Space,keypress(Space),,,,,,,,---- -- ----- -- ------ - ------- --- ----------<br>------------- ------ ------ ---- ---- ------- ----- -- ----<br>-------- ------- -- ---------- --- - --- ----- ----- ----<br>---- --- --- ----- --- ---- ---- ------- ----- ---- -------<br>--- --- -- ----- -- --- ---- -- --- ---- if ------ ------<br>--- ----- -- ----,180006,179992,179520.56,179520,179520.78,180006.14,,49,if
screen,html.Screen,2_1_0_1_50,2022-02-21T15:56:09.420Z,,,,,,,,,,,,,,,,,53,,,,,,,,,,,,,,407.85999999998603,,response,,,,99,,,,,,,Space,keypress(Space),,,,,,,,---- -- ----- -- ------ - ------- --- ----------<br>------------- ------ ------ ---- ---- ------- ----- -- ----<br>-------- ------- -- ---------- --- - --- ----- ----- ----<br>---- --- --- ----- --- ---- ---- ------- ----- ---- -------<br>--- --- -- ----- -- --- ---- -- --- ---- -- that's ------<br>--- ----- -- ----,180418,180414,180005.96,180006,180006.14,180418.6,,50,that's
screen,html.Screen,2_1_0_1_51,2022-02-21T15:56:09.804Z,,,,,,,,,,,,,,,,,53,,,,,,,,,,,,,,370.3999999999942,,response,,,,99,,,,,,,Space,keypress(Space),,,,,,,,---- -- ----- -- ------ - ------- --- ----------<br>------------- ------ ------ ---- ---- ------- ----- -- ----<br>-------- ------- -- ---------- --- - --- ----- ----- ----<br>---- --- --- ----- --- ---- ---- ------- ----- ---- -------<br>--- --- -- ----- -- --- ---- -- --- ---- -- ------ really<br>--- ----- -- ----,180803,180789,180418.4,180418,180418.6,180803.42,,51,really
screen,html.Screen,2_1_0_1_52,2022-02-21T15:56:10.228Z,,,,,,,,,,,,,,,,,53,,,,,,,,,,,,,,407.5799999999872,,response,,,,99,,,,,,,Space,keypress(Space),,,,,,,,---- -- ----- -- ------ - ------- --- ----------<br>------------- ------ ------ ---- ---- ------- ----- -- ----<br>-------- ------- -- ---------- --- - --- ----- ----- ----<br>---- --- --- ----- --- ---- ---- ------- ----- ---- -------<br>--- --- -- ----- -- --- ---- -- --- ---- -- ------ ------<br>not ----- -- ----,181226,181211,180803.22,180803,180803.42,181226.88,,52,not
screen,html.Screen,2_1_0_1_53,2022-02-21T15:56:10.626Z,,,,,,,,,,,,,,,,,53,,,,,,,,,,,,,,391.11999999999534,,response,,,,99,,,,,,,Space,keypress(Space),,,,,,,,---- -- ----- -- ------ - ------- --- ----------<br>------------- ------ ------ ---- ---- ------- ----- -- ----<br>-------- ------- -- ---------- --- - --- ----- ----- ----<br>---- --- --- ----- --- ---- ---- ------- ----- ---- -------<br>--- --- -- ----- -- --- ---- -- --- ---- -- ------ ------<br>--- close -- ----,181623,181618,181226.66,181226,181226.88,181624.14,,53,close
screen,html.Screen,2_1_0_1_54,2022-02-21T15:56:10.979Z,,,,,,,,,,,,,,,,,53,,,,,,,,,,,,,,337.85999999998603,,response,,,,99,,,,,,,Space,keypress(Space),,,,,,,,---- -- ----- -- ------ - ------- --- ----------<br>------------- ------ ------ ---- ---- ------- ----- -- ----<br>-------- ------- -- ---------- --- - --- ----- ----- ----<br>---- --- --- ----- --- ---- ---- ------- ----- ---- -------<br>--- --- -- ----- -- --- ---- -- --- ---- -- ------ ------<br>--- ----- at ----,181977,181962,181623.96,181624,181624.14,181978.2,,54,at
screen,html.Screen,2_1_0_1_55,2022-02-21T15:56:12.391Z,,,,,,,,,,,,,,,,,53,,,,,,,,,,,,,,1404.7999999999884,,response,,,,99,,,,,,,Space,keypress(Space),,,,,,,,---- -- ----- -- ------ - ------- --- ----------<br>------------- ------ ------ ---- ---- ------- ----- -- ----<br>-------- ------- -- ---------- --- - --- ----- ----- ----<br>---- --- --- ----- --- ---- ---- ------- ----- ---- -------<br>--- --- -- ----- -- --- ---- -- --- ---- -- ------ ------<br>--- ----- -- all.,183389,183383,181978,181978,181978.2,183390.3,,55,all.
Item 99,flow.Loop,2_1_0_1,2022-02-21T15:56:12.392Z,,,,,,,,,,,,,,,,,,,,,,,,,,,,,,,29564.01999999999,,completion,,,,,D,,,,,,,,,,,silence,,,,,183390,183383,153802.3,153804,153818.98,183390.3,,,
Question 1,html.Screen,2_1_0_2,2022-02-21T15:56:22.196Z,,,,,,,,,,,,,,,,,,,,,,,,,,,,true,FALSE,,9788.700000000012,,response,,,,99,D,,,,,,FALSE,click #choice-2,,,,silence,,,,,193194,193179,183390.08,183390,183390.3,193208.36,,,
Question 2,html.Screen,2_1_0_3,2022-02-21T15:56:25.748Z,,,,,,,,,,,,,,,,,,,,,,,,,,,,true,TRUE,,3533.640000000014,,response,,,,99,D,,,,,,TRUE,click #choice-1,,,,silence,,,,,196745,196742,193191.78,193194,193208.36,196749.7,,,
Item 99,flow.Sequence,2_1_0,2022-02-21T15:56:25.748Z,,,,,,,,,,,,,,,,,,,,,,,,,,,,,,,52928.67999999999,,completion,,,,,,,,,,,,,,,,,,,,,196746,196742,143800.34,143808,143813.32,196749.7,,,
Holding screen,html.Screen,2_1_1_0,2022-02-21T15:56:35.741Z,,,,,,,,,,,,,,,,,,,,,,,,,,,,,,,10005.440000000002,,timeout,,,,,,,,,,,,,,,,,,,,,206740,206738.46,196743.78,196746,196749.7,206755.14,,,
screen,html.Screen,2_1_1_1_0,2022-02-21T15:56:36.241Z,,,,,,,,,,,,,,,,,54,,,,,,,,,,,,,,470.85999999998603,,response,,,,100,,,,,,,Space,keypress(Space),,,,,,,,At --- ---- --- ------ ----- ------- ---- -- --- ------- --<br>------- ---------- ------ -- ----- -- ----- -- ---- ------<br>--- ----- --- --- ------ -------- ----- --- ------ ----- --<br>----- ----- ---------- --- --- ------ ------ ---- -- ------<br>------- --- ------ ----- --- ---- ------- -- ---- --- --<br>------- ------,207239,207226,206738.46,206740,206755.14,207239.76,,0,At
screen,html.Screen,2_1_1_1_1,2022-02-21T15:56:36.607Z,,,,,,,,,,,,,,,,,54,,,,,,,,,,,,,,361.2399999999907,,response,,,,100,,,,,,,Space,keypress(Space),,,,,,,,-- the ---- --- ------ ----- ------- ---- -- --- ------- --<br>------- ---------- ------ -- ----- -- ----- -- ---- ------<br>--- ----- --- --- ------ -------- ----- --- ------ ----- --<br>----- ----- ---------- --- --- ------ ------ ---- -- ------<br>------- --- ------ ----- --- ---- ------- -- ---- --- --<br>------- ------,207606,207601,207239.54,207239,207239.76,207607.6,,1,the
screen,html.Screen,2_1_1_1_2,2022-02-21T15:56:36.873Z,,,,,,,,,,,,,,,,,54,,,,,,,,,,,,,,259.3999999999942,,response,,,,100,,,,,,,Space,keypress(Space),,,,,,,,-- --- time --- ------ ----- ------- ---- -- --- ------- --<br>------- ---------- ------ -- ----- -- ----- -- ---- ------<br>--- ----- --- --- ------ -------- ----- --- ------ ----- --<br>----- ----- ---------- --- --- ------ ------ ---- -- ------<br>------- --- ------ ----- --- ---- ------- -- ---- --- --<br>------- ------,207872,207867,207606,207606,207607.6,207872.02,,2,time
screen,html.Screen,2_1_1_1_3,2022-02-21T15:56:37.224Z,,,,,,,,,,,,,,,,,54,,,,,,,,,,,,,,338.9800000000105,,response,,,,100,,,,,,,Space,keypress(Space),,,,,,,,-- --- ---- the ------ ----- ------- ---- -- --- ------- --<br>------- ---------- ------ -- ----- -- ----- -- ---- ------<br>--- ----- --- --- ------ -------- ----- --- ------ ----- --<br>----- ----- ---------- --- --- ------ ------ ---- -- ------<br>------- --- ------ ----- --- ---- ------- -- ---- --- --<br>------- ------,208221,208211,207871.84,207872,207872.02,208222.02,,3,the
screen,html.Screen,2_1_1_1_4,2022-02-21T15:56:37.638Z,,,,,,,,,,,,,,,,,54,,,,,,,,,,,,,,410.9800000000105,,response,,,,100,,,,,,,Space,keypress(Space),,,,,,,,-- --- ---- --- French ----- ------- ---- -- --- ------- --<br>------- ---------- ------ -- ----- -- ----- -- ---- ------<br>--- ----- --- --- ------ -------- ----- --- ------ ----- --<br>----- ----- ---------- --- --- ------ ------ ---- -- ------<br>------- --- ------ ----- --- ---- ------- -- ---- --- --<br>------- ------,208637,208633,208221.8,208221,208222.02,208636.86,,4,French
screen,html.Screen,2_1_1_1_5,2022-02-21T15:56:38.089Z,,,,,,,,,,,,,,,,,54,,,,,,,,,,,,,,433.14000000001397,,response,,,,100,,,,,,,Space,keypress(Space),,,,,,,,-- --- ---- --- ------ crown ------- ---- -- --- ------- --<br>------- ---------- ------ -- ----- -- ----- -- ---- ------<br>--- ----- --- --- ------ -------- ----- --- ------ ----- --<br>----- ----- ---------- --- --- ------ ------ ---- -- ------<br>------- --- ------ ----- --- ---- ------- -- ---- --- --<br>------- ------,209087,209070,208636.66,208637,208636.86,209087.64,,5,crown
screen,html.Screen,2_1_1_1_6,2022-02-21T15:56:38.536Z,,,,,,,,,,,,,,,,,54,,,,,,,,,,,,,,435.35999999998603,,response,,,,100,,,,,,,Space,keypress(Space),,,,,,,,-- --- ---- --- ------ ----- secured ---- -- --- ------- --<br>------- ---------- ------ -- ----- -- ----- -- ---- ------<br>--- ----- --- --- ------ -------- ----- --- ------ ----- --<br>----- ----- ---------- --- --- ------ ------ ---- -- ------<br>------- --- ------ ----- --- ---- ------- -- ---- --- --<br>------- ------,209534,209523,209087.44,209088,209087.64,209535.14,,6,secured
screen,html.Screen,2_1_1_1_7,2022-02-21T15:56:39.004Z,,,,,,,,,,,,,,,,,54,,,,,,,,,,,,,,456.85999999998603,,response,,,,100,,,,,,,Space,keypress(Space),,,,,,,,-- --- ---- --- ------ ----- ------- much -- --- ------- --<br>------- ---------- ------ -- ----- -- ----- -- ---- ------<br>--- ----- --- --- ------ -------- ----- --- ------ ----- --<br>----- ----- ---------- --- --- ------ ------ ---- -- ------<br>------- --- ------ ----- --- ---- ------- -- ---- --- --<br>------- ------,210003,209992,209534.92,209535,209535.14,210003.62,,7,much
screen,html.Screen,2_1_1_1_8,2022-02-21T15:56:39.368Z,,,,,,,,,,,,,,,,,54,,,,,,,,,,,,,,348.38000000000466,,response,,,,100,,,,,,,Space,keypress(Space),,,,,,,,-- --- ---- --- ------ ----- ------- ---- of --- ------- --<br>------- ---------- ------ -- ----- -- ----- -- ---- ------<br>--- ----- --- --- ------ -------- ----- --- ------ ----- --<br>----- ----- ---------- --- --- ------ ------ ---- -- ------<br>------- --- ------ ----- --- ---- ------- -- ---- --- --<br>------- ------,210365,210352,210003.42,210003,210003.62,210365.96,,8,of
screen,html.Screen,2_1_1_1_9,2022-02-21T15:56:39.688Z,,,,,,,,,,,,,,,,,54,,,,,,,,,,,,,,313.04000000000815,,response,,,,100,,,,,,,Space,keypress(Space),,,,,,,,-- --- ---- --- ------ ----- ------- ---- -- its ------- --<br>------- ---------- ------ -- ----- -- ----- -- ---- ------<br>--- ----- --- --- ------ -------- ----- --- ------ ----- --<br>----- ----- ---------- --- --- ------ ------ ---- -- ------<br>------- --- ------ ----- --- ---- ------- -- ---- --- --<br>------- ------,210685,210679,210365.76,210366,210365.96,210685.94,,9,its
screen,html.Screen,2_1_1_1_10,2022-02-21T15:56:40.125Z,,,,,,,,,,,,,,,,,54,,,,,,,,,,,,,,431.0599999999977,,response,,,,100,,,,,,,Space,keypress(Space),,,,,,,,-- --- ---- --- ------ ----- ------- ---- -- --- revenue --<br>------- ---------- ------ -- ----- -- ----- -- ---- ------<br>--- ----- --- --- ------ -------- ----- --- ------ ----- --<br>----- ----- ---------- --- --- ------ ------ ---- -- ------<br>------- --- ------ ----- --- ---- ------- -- ---- --- --<br>------- ------,211123,211117,210685.72,210685,210685.94,211123.44,,10,revenue
screen,html.Screen,2_1_1_1_11,2022-02-21T15:56:40.552Z,,,,,,,,,,,,,,,,,54,,,,,,,,,,,,,,415.5599999999977,,response,,,,100,,,,,,,Space,keypress(Space),,,,,,,,-- --- ---- --- ------ ----- ------- ---- -- --- ------- by<br>------- ---------- ------ -- ----- -- ----- -- ---- ------<br>--- ----- --- --- ------ -------- ----- --- ------ ----- --<br>----- ----- ---------- --- --- ------ ------ ---- -- ------<br>------- --- ------ ----- --- ---- ------- -- ---- --- --<br>------- ------,211550,211539,211123.2,211123,211123.44,211550.3,,11,by
screen,html.Screen,2_1_1_1_12,2022-02-21T15:56:40.992Z,,,,,,,,,,,,,,,,,54,,,,,,,,,,,,,,426.70000000001164,,response,,,,100,,,,,,,Space,keypress(Space),,,,,,,,-- --- ---- --- ------ ----- ------- ---- -- --- ------- --<br>issuing ---------- ------ -- ----- -- ----- -- ---- ------<br>--- ----- --- --- ------ -------- ----- --- ------ ----- --<br>----- ----- ---------- --- --- ------ ------ ---- -- ------<br>------- --- ------ ----- --- ---- ------- -- ---- --- --<br>------- ------,211990,211977,211550.06,211550,211550.3,211991.24,,12,issuing
screen,html.Screen,2_1_1_1_13,2022-02-21T15:56:41.489Z,,,,,,,,,,,,,,,,,54,,,,,,,,,,,,,,485.7600000000093,,response,,,,100,,,,,,,Space,keypress(Space),,,,,,,,-- --- ---- --- ------ ----- ------- ---- -- --- ------- --<br>------- government ------ -- ----- -- ----- -- ---- ------<br>--- ----- --- --- ------ -------- ----- --- ------ ----- --<br>----- ----- ---------- --- --- ------ ------ ---- -- ------<br>------- --- ------ ----- --- ---- ------- -- ---- --- --<br>------- ------,212488,212477,211991.06,211991,211991.24,212487.66,,13,government
screen,html.Screen,2_1_1_1_14,2022-02-21T15:56:42.917Z,,,,,,,,,,,,,,,,,54,,,,,,,,,,,,,,1411.3399999999965,,response,,,,100,,,,,,,Space,keypress(Space),,,,,,,,-- --- ---- --- ------ ----- ------- ---- -- --- ------- --<br>------- ---------- bonds. -- ----- -- ----- -- ---- ------<br>--- ----- --- --- ------ -------- ----- --- ------ ----- --<br>----- ----- ---------- --- --- ------ ------ ---- -- ------<br>------- --- ------ ----- --- ---- ------- -- ---- --- --<br>------- ------,213915,213899,212487.46,212488,212487.66,213915.78,,14,bonds.
screen,html.Screen,2_1_1_1_15,2022-02-21T15:56:43.420Z,,,,,,,,,,,,,,,,,54,,,,,,,,,,,,,,498.22000000000116,,response,,,,100,,,,,,,Space,keypress(Space),,,,,,,,-- --- ---- --- ------ ----- ------- ---- -- --- ------- --<br>------- ---------- ------ In ----- -- ----- -- ---- ------<br>--- ----- --- --- ------ -------- ----- --- ------ ----- --<br>----- ----- ---------- --- --- ------ ------ ---- -- ------<br>------- --- ------ ----- --- ---- ------- -- ---- --- --<br>------- ------,214420,214414,213915.56,213916,213915.78,214419.7,,15,In
screen,html.Screen,2_1_1_1_16,2022-02-21T15:56:44.143Z,,,,,,,,,,,,,,,,,54,,,,,,,,,,,,,,713.2999999999884,,response,,,,100,,,,,,,Space,keypress(Space),,,,,,,,"-- --- ---- --- ------ ----- ------- ---- -- --- ------- --<br>------- ---------- ------ -- 1727, -- ----- -- ---- ------<br>--- ----- --- --- ------ -------- ----- --- ------ ----- --<br>----- ----- ---------- --- --- ------ ------ ---- -- ------<br>------- --- ------ ----- --- ---- ------- -- ---- --- --<br>------- ------",215141,215133,214419.48,214420,214419.7,215141.32,,16,"1727,"
screen,html.Screen,2_1_1_1_17,2022-02-21T15:56:44.569Z,,,,,,,,,,,,,,,,,54,,,,,,,,,,,,,,413.679999999993,,response,,,,100,,,,,,,Space,keypress(Space),,,,,,,,-- --- ---- --- ------ ----- ------- ---- -- --- ------- --<br>------- ---------- ------ -- ----- in ----- -- ---- ------<br>--- ----- --- --- ------ -------- ----- --- ------ ----- --<br>----- ----- ---------- --- --- ------ ------ ---- -- ------<br>------- --- ------ ----- --- ---- ------- -- ---- --- --<br>------- ------,215567,215555,215141.16,215141,215141.32,215567.54,,17,in
screen,html.Screen,2_1_1_1_18,2022-02-21T15:56:44.957Z,,,,,,,,,,,,,,,,,54,,,,,,,,,,,,,,377.45999999999185,,response,,,,100,,,,,,,Space,keypress(Space),,,,,,,,-- --- ---- --- ------ ----- ------- ---- -- --- ------- --<br>------- ---------- ------ -- ----- -- order -- ---- ------<br>--- ----- --- --- ------ -------- ----- --- ------ ----- --<br>----- ----- ---------- --- --- ------ ------ ---- -- ------<br>------- --- ------ ----- --- ---- ------- -- ---- --- --<br>------- ------,215955,215945,215567.32,215568,215567.54,215956.22,,18,order
screen,html.Screen,2_1_1_1_19,2022-02-21T15:56:45.318Z,,,,,,,,,,,,,,,,,54,,,,,,,,,,,,,,347.77999999999884,,response,,,,100,,,,,,,Space,keypress(Space),,,,,,,,-- --- ---- --- ------ ----- ------- ---- -- --- ------- --<br>------- ---------- ------ -- ----- -- ----- to ---- ------<br>--- ----- --- --- ------ -------- ----- --- ------ ----- --<br>----- ----- ---------- --- --- ------ ------ ---- -- ------<br>------- --- ------ ----- --- ---- ------- -- ---- --- --<br>------- ------,216316,216304,215956,215956,215956.22,216316.66,,19,to
screen,html.Screen,2_1_1_1_20,2022-02-21T15:56:45.706Z,,,,,,,,,,,,,,,,,54,,,,,,,,,,,,,,379.3399999999965,,response,,,,100,,,,,,,Space,keypress(Space),,,,,,,,-- --- ---- --- ------ ----- ------- ---- -- --- ------- --<br>------- ---------- ------ -- ----- -- ----- -- save ------<br>--- ----- --- --- ------ -------- ----- --- ------ ----- --<br>----- ----- ---------- --- --- ------ ------ ---- -- ------<br>------- --- ------ ----- --- ---- ------- -- ---- --- --<br>------- ------,216705,216696,216316.44,216316,216316.66,216705.54,,20,save
screen,html.Screen,2_1_1_1_21,2022-02-21T15:56:46.097Z,,,,,,,,,,,,,,,,,54,,,,,,,,,,,,,,381.45999999999185,,response,,,,100,,,,,,,Space,keypress(Space),,,,,,,,"-- --- ---- --- ------ ----- ------- ---- -- --- ------- --<br>------- ---------- ------ -- ----- -- ----- -- ---- money,<br>--- ----- --- --- ------ -------- ----- --- ------ ----- --<br>----- ----- ---------- --- --- ------ ------ ---- -- ------<br>------- --- ------ ----- --- ---- ------- -- ---- --- --<br>------- ------",217095,217087,216705.32,216705,216705.54,217095.5,,21,"money,"
screen,html.Screen,2_1_1_1_22,2022-02-21T15:56:46.474Z,,,,,,,,,,,,,,,,,54,,,,,,,,,,,,,,365.5,,response,,,,100,,,,,,,Space,keypress(Space),,,,,,,,-- --- ---- --- ------ ----- ------- ---- -- --- ------- --<br>------- ---------- ------ -- ----- -- ----- -- ---- ------<br>the ----- --- --- ------ -------- ----- --- ------ ----- --<br>----- ----- ---------- --- --- ------ ------ ---- -- ------<br>------- --- ------ ----- --- ---- ------- -- ---- --- --<br>------- ------,217472,217461,217095.28,217095,217095.5,217472.68,,22,the
screen,html.Screen,2_1_1_1_23,2022-02-21T15:56:46.820Z,,,,,,,,,,,,,,,,,54,,,,,,,,,,,,,,332.320000000007,,response,,,,100,,,,,,,Space,keypress(Space),,,,,,,,-- --- ---- --- ------ ----- ------- ---- -- --- ------- --<br>------- ---------- ------ -- ----- -- ----- -- ---- ------<br>--- state --- --- ------ -------- ----- --- ------ ----- --<br>----- ----- ---------- --- --- ------ ------ ---- -- ------<br>------- --- ------ ----- --- ---- ------- -- ---- --- --<br>------- ------,217818,217805,217472.48,217473,217472.68,217818.42,,23,state
screen,html.Screen,2_1_1_1_24,2022-02-21T15:56:47.228Z,,,,,,,,,,,,,,,,,54,,,,,,,,,,,,,,393.5799999999872,,response,,,,100,,,,,,,Space,keypress(Space),,,,,,,,-- --- ---- --- ------ ----- ------- ---- -- --- ------- --<br>------- ---------- ------ -- ----- -- ----- -- ---- ------<br>--- ----- cut --- ------ -------- ----- --- ------ ----- --<br>----- ----- ---------- --- --- ------ ------ ---- -- ------<br>------- --- ------ ----- --- ---- ------- -- ---- --- --<br>------- ------,218226,218212,217818.22,217818,217818.42,218226.36,,24,cut
screen,html.Screen,2_1_1_1_25,2022-02-21T15:56:47.557Z,,,,,,,,,,,,,,,,,54,,,,,,,,,,,,,,312.64000000001397,,response,,,,100,,,,,,,Space,keypress(Space),,,,,,,,-- --- ---- --- ------ ----- ------- ---- -- --- ------- --<br>------- ---------- ------ -- ----- -- ----- -- ---- ------<br>--- ----- --- the ------ -------- ----- --- ------ ----- --<br>----- ----- ---------- --- --- ------ ------ ---- -- ------<br>------- --- ------ ----- --- ---- ------- -- ---- --- --<br>------- ------,218555,218539,218226.14,218226,218226.36,218555.8,,25,the
screen,html.Screen,2_1_1_1_26,2022-02-21T15:56:47.814Z,,,,,,,,,,,,,,,,,54,,,,,,,,,,,,,,249.20000000001164,,response,,,,100,,,,,,,Space,keypress(Space),,,,,,,,-- --- ---- --- ------ ----- ------- ---- -- --- ------- --<br>------- ---------- ------ -- ----- -- ----- -- ---- ------<br>--- ----- --- --- bonds' -------- ----- --- ------ ----- --<br>----- ----- ---------- --- --- ------ ------ ---- -- ------<br>------- --- ------ ----- --- ---- ------- -- ---- --- --<br>------- ------,218812,218805,218555.58,218555,218555.8,218812.18,,26,bonds'
screen,html.Screen,2_1_1_1_27,2022-02-21T15:56:48.374Z,,,,,,,,,,,,,,,,,54,,,,,,,,,,,,,,554.820000000007,,response,,,,100,,,,,,,Space,keypress(Space),,,,,,,,-- --- ---- --- ------ ----- ------- ---- -- --- ------- --<br>------- ---------- ------ -- ----- -- ----- -- ---- ------<br>--- ----- --- --- ------ interest ----- --- ------ ----- --<br>----- ----- ---------- --- --- ------ ------ ---- -- ------<br>------- --- ------ ----- --- ---- ------- -- ---- --- --<br>------- ------,219373,219367,218812,218812,218812.18,219373.52,,27,interest
screen,html.Screen,2_1_1_1_28,2022-02-21T15:56:48.772Z,,,,,,,,,,,,,,,,,54,,,,,,,,,,,,,,384.4800000000105,,response,,,,100,,,,,,,Space,keypress(Space),,,,,,,,-- --- ---- --- ------ ----- ------- ---- -- --- ------- --<br>------- ---------- ------ -- ----- -- ----- -- ---- ------<br>--- ----- --- --- ------ -------- rate. --- ------ ----- --<br>----- ----- ---------- --- --- ------ ------ ---- -- ------<br>------- --- ------ ----- --- ---- ------- -- ---- --- --<br>------- ------,219769,219758,219373.34,219373,219373.52,219770.04,,28,rate.
screen,html.Screen,2_1_1_1_29,2022-02-21T15:56:49.277Z,,,,,,,,,,,,,,,,,54,,,,,,,,,,,,,,502.95999999999185,,response,,,,100,,,,,,,Space,keypress(Space),,,,,,,,-- --- ---- --- ------ ----- ------- ---- -- --- ------- --<br>------- ---------- ------ -- ----- -- ----- -- ---- ------<br>--- ----- --- --- ------ -------- ----- The ------ ----- --<br>----- ----- ---------- --- --- ------ ------ ---- -- ------<br>------- --- ------ ----- --- ---- ------- -- ---- --- --<br>------- ------,220276,220273,219769.82,219770,219770.04,220275.92,,29,The
screen,html.Screen,2_1_1_1_30,2022-02-21T15:56:49.661Z,,,,,,,,,,,,,,,,,54,,,,,,,,,,,,,,373.0799999999872,,response,,,,100,,,,,,,Space,keypress(Space),,,,,,,,-- --- ---- --- ------ ----- ------- ---- -- --- ------- --<br>------- ---------- ------ -- ----- -- ----- -- ---- ------<br>--- ----- --- --- ------ -------- ----- --- market ----- --<br>----- ----- ---------- --- --- ------ ------ ---- -- ------<br>------- --- ------ ----- --- ---- ------- -- ---- --- --<br>------- ------,220659,220649,220275.72,220276,220275.92,220659.28,,30,market
screen,html.Screen,2_1_1_1_31,2022-02-21T15:56:50.116Z,,,,,,,,,,,,,,,,,54,,,,,,,,,,,,,,442.72000000000116,,response,,,,100,,,,,,,Space,keypress(Space),,,,,,,,-- --- ---- --- ------ ----- ------- ---- -- --- ------- --<br>------- ---------- ------ -- ----- -- ----- -- ---- ------<br>--- ----- --- --- ------ -------- ----- --- ------ value --<br>----- ----- ---------- --- --- ------ ------ ---- -- ------<br>------- --- ------ ----- --- ---- ------- -- ---- --- --<br>------- ------,221115,221102,220659.06,220659,220659.28,221115.48,,31,value
screen,html.Screen,2_1_1_1_32,2022-02-21T15:56:50.494Z,,,,,,,,,,,,,,,,,54,,,,,,,,,,,,,,360.5199999999895,,response,,,,100,,,,,,,Space,keypress(Space),,,,,,,,-- --- ---- --- ------ ----- ------- ---- -- --- ------- --<br>------- ---------- ------ -- ----- -- ----- -- ---- ------<br>--- ----- --- --- ------ -------- ----- --- ------ ----- of<br>----- ----- ---------- --- --- ------ ------ ---- -- ------<br>------- --- ------ ----- --- ---- ------- -- ---- --- --<br>------- ------,221492,221476,221115.26,221115,221115.48,221492.18,,32,of
screen,html.Screen,2_1_1_1_33,2022-02-21T15:56:50.895Z,,,,,,,,,,,,,,,,,54,,,,,,,,,,,,,,390.820000000007,,response,,,,100,,,,,,,Space,keypress(Space),,,,,,,,-- --- ---- --- ------ ----- ------- ---- -- --- ------- --<br>------- ---------- ------ -- ----- -- ----- -- ---- ------<br>--- ----- --- --- ------ -------- ----- --- ------ ----- --<br>these ----- ---------- --- --- ------ ------ ---- -- ------<br>------- --- ------ ----- --- ---- ------- -- ---- --- --<br>------- ------,221893,221883,221491.96,221492,221492.18,221893.22,,33,these
screen,html.Screen,2_1_1_1_34,2022-02-21T15:56:51.314Z,,,,,,,,,,,,,,,,,54,,,,,,,,,,,,,,410.77999999999884,,response,,,,100,,,,,,,Space,keypress(Space),,,,,,,,-- --- ---- --- ------ ----- ------- ---- -- --- ------- --<br>------- ---------- ------ -- ----- -- ----- -- ---- ------<br>--- ----- --- --- ------ -------- ----- --- ------ ----- --<br>----- bonds ---------- --- --- ------ ------ ---- -- ------<br>------- --- ------ ----- --- ---- ------- -- ---- --- --<br>------- ------,222312,222304,221893.02,221893,221893.22,222312.42,,34,bonds
screen,html.Screen,2_1_1_1_35,2022-02-21T15:56:51.795Z,,,,,,,,,,,,,,,,,54,,,,,,,,,,,,,,476.5799999999872,,response,,,,100,,,,,,,Space,keypress(Space),,,,,,,,"-- --- ---- --- ------ ----- ------- ---- -- --- ------- --<br>------- ---------- ------ -- ----- -- ----- -- ---- ------<br>--- ----- --- --- ------ -------- ----- --- ------ ----- --<br>----- ----- plummeted, --- --- ------ ------ ---- -- ------<br>------- --- ------ ----- --- ---- ------- -- ---- --- --<br>------- ------",222793,222789,222312.22,222312,222312.42,222793.76,,35,"plummeted,"
screen,html.Screen,2_1_1_1_36,2022-02-21T15:56:52.275Z,,,,,,,,,,,,,,,,,54,,,,,,,,,,,,,,465.2399999999907,,response,,,,100,,,,,,,Space,keypress(Space),,,,,,,,-- --- ---- --- ------ ----- ------- ---- -- --- ------- --<br>------- ---------- ------ -- ----- -- ----- -- ---- ------<br>--- ----- --- --- ------ -------- ----- --- ------ ----- --<br>----- ----- ---------- and --- ------ ------ ---- -- ------<br>------- --- ------ ----- --- ---- ------- -- ---- --- --<br>------- ------,223272,223259,222793.56,222793,222793.76,223273.4,,36,and
screen,html.Screen,2_1_1_1_37,2022-02-21T15:56:52.785Z,,,,,,,,,,,,,,,,,54,,,,,,,,,,,,,,499.6000000000058,,response,,,,100,,,,,,,Space,keypress(Space),,,,,,,,-- --- ---- --- ------ ----- ------- ---- -- --- ------- --<br>------- ---------- ------ -- ----- -- ----- -- ---- ------<br>--- ----- --- --- ------ -------- ----- --- ------ ----- --<br>----- ----- ---------- --- the ------ ------ ---- -- ------<br>------- --- ------ ----- --- ---- ------- -- ---- --- --<br>------- ------,223782,223773,223273.18,223273,223273.4,223783.14,,37,the
screen,html.Screen,2_1_1_1_38,2022-02-21T15:56:53.565Z,,,,,,,,,,,,,,,,,54,,,,,,,,,,,,,,770.859999999986,,response,,,,100,,,,,,,Space,keypress(Space),,,,,,,,-- --- ---- --- ------ ----- ------- ---- -- --- ------- --<br>------- ---------- ------ -- ----- -- ----- -- ---- ------<br>--- ----- --- --- ------ -------- ----- --- ------ ----- --<br>----- ----- ---------- --- --- market ------ ---- -- ------<br>------- --- ------ ----- --- ---- ------- -- ---- --- --<br>------- ------,224563,224554,223782.94,223783,223783.14,224563.36,,38,market
screen,html.Screen,2_1_1_1_39,2022-02-21T15:56:54.007Z,,,,,,,,,,,,,,,,,54,,,,,,,,,,,,,,429.64000000001397,,response,,,,100,,,,,,,Space,keypress(Space),,,,,,,,-- --- ---- --- ------ ----- ------- ---- -- --- ------- --<br>------- ---------- ------ -- ----- -- ----- -- ---- ------<br>--- ----- --- --- ------ -------- ----- --- ------ ----- --<br>----- ----- ---------- --- --- ------ became ---- -- ------<br>------- --- ------ ----- --- ---- ------- -- ---- --- --<br>------- ------,225005,224993,224563.14,224564,224563.36,225005.54,,39,became
screen,html.Screen,2_1_1_1_40,2022-02-21T15:56:54.378Z,,,,,,,,,,,,,,,,,54,,,,,,,,,,,,,,362.45999999999185,,response,,,,100,,,,,,,Space,keypress(Space),,,,,,,,-- --- ---- --- ------ ----- ------- ---- -- --- ------- --<br>------- ---------- ------ -- ----- -- ----- -- ---- ------<br>--- ----- --- --- ------ -------- ----- --- ------ ----- --<br>----- ----- ---------- --- --- ------ ------ wary -- ------<br>------- --- ------ ----- --- ---- ------- -- ---- --- --<br>------- ------,225376,225368,225005.3,225005,225005.54,225377.26,,40,wary
screen,html.Screen,2_1_1_1_41,2022-02-21T15:56:54.771Z,,,,,,,,,,,,,,,,,54,,,,,,,,,,,,,,381.7399999999907,,response,,,,100,,,,,,,Space,keypress(Space),,,,,,,,-- --- ---- --- ------ ----- ------- ---- -- --- ------- --<br>------- ---------- ------ -- ----- -- ----- -- ---- ------<br>--- ----- --- --- ------ -------- ----- --- ------ ----- --<br>----- ----- ---------- --- --- ------ ------ ---- of ------<br>------- --- ------ ----- --- ---- ------- -- ---- --- --<br>------- ------,225769,225759,225377.04,225377,225377.26,225769.56,,41,of
screen,html.Screen,2_1_1_1_42,2022-02-21T15:56:55.157Z,,,,,,,,,,,,,,,,,54,,,,,,,,,,,,,,378.4400000000023,,response,,,,100,,,,,,,Space,keypress(Space),,,,,,,,-- --- ---- --- ------ ----- ------- ---- -- --- ------- --<br>------- ---------- ------ -- ----- -- ----- -- ---- ------<br>--- ----- --- --- ------ -------- ----- --- ------ ----- --<br>----- ----- ---------- --- --- ------ ------ ---- -- French<br>------- --- ------ ----- --- ---- ------- -- ---- --- --<br>------- ------,226154,226148,225769.32,225769,225769.56,226155.1,,42,French
screen,html.Screen,2_1_1_1_43,2022-02-21T15:56:55.668Z,,,,,,,,,,,,,,,,,54,,,,,,,,,,,,,,508.8999999999942,,response,,,,100,,,,,,,Space,keypress(Space),,,,,,,,-- --- ---- --- ------ ----- ------- ---- -- --- ------- --<br>------- ---------- ------ -- ----- -- ----- -- ---- ------<br>--- ----- --- --- ------ -------- ----- --- ------ ----- --<br>----- ----- ---------- --- --- ------ ------ ---- -- ------<br>credit. --- ------ ----- --- ---- ------- -- ---- --- --<br>------- ------,226666,226664,226154.88,226154,226155.1,226666.38,,43,credit.
screen,html.Screen,2_1_1_1_44,2022-02-21T15:56:56.195Z,,,,,,,,,,,,,,,,,54,,,,,,,,,,,,,,512.6199999999953,,response,,,,100,,,,,,,Space,keypress(Space),,,,,,,,-- --- ---- --- ------ ----- ------- ---- -- --- ------- --<br>------- ---------- ------ -- ----- -- ----- -- ---- ------<br>--- ----- --- --- ------ -------- ----- --- ------ ----- --<br>----- ----- ---------- --- --- ------ ------ ---- -- ------<br>------- The ------ ----- --- ---- ------- -- ---- --- --<br>------- ------,227192,227179,226666.18,226666,226666.38,227192.96,,44,The
screen,html.Screen,2_1_1_1_45,2022-02-21T15:56:56.660Z,,,,,,,,,,,,,,,,,54,,,,,,,,,,,,,,456.04000000000815,,response,,,,100,,,,,,,Space,keypress(Space),,,,,,,,-- --- ---- --- ------ ----- ------- ---- -- --- ------- --<br>------- ---------- ------ -- ----- -- ----- -- ---- ------<br>--- ----- --- --- ------ -------- ----- --- ------ ----- --<br>----- ----- ---------- --- --- ------ ------ ---- -- ------<br>------- --- French ----- --- ---- ------- -- ---- --- --<br>------- ------,227658,227649,227192.78,227192,227192.96,227658.32,,45,French
screen,html.Screen,2_1_1_1_46,2022-02-21T15:56:57.088Z,,,,,,,,,,,,,,,,,54,,,,,,,,,,,,,,411.679999999993,,response,,,,100,,,,,,,Space,keypress(Space),,,,,,,,-- --- ---- --- ------ ----- ------- ---- -- --- ------- --<br>------- ---------- ------ -- ----- -- ----- -- ---- ------<br>--- ----- --- --- ------ -------- ----- --- ------ ----- --<br>----- ----- ---------- --- --- ------ ------ ---- -- ------<br>------- --- ------ state --- ---- ------- -- ---- --- --<br>------- ------,228087,228070,227658.08,227658,227658.32,228086.72,,46,state
screen,html.Screen,2_1_1_1_47,2022-02-21T15:56:57.445Z,,,,,,,,,,,,,,,,,54,,,,,,,,,,,,,,342.27999999999884,,response,,,,100,,,,,,,Space,keypress(Space),,,,,,,,-- --- ---- --- ------ ----- ------- ---- -- --- ------- --<br>------- ---------- ------ -- ----- -- ----- -- ---- ------<br>--- ----- --- --- ------ -------- ----- --- ------ ----- --<br>----- ----- ---------- --- --- ------ ------ ---- -- ------<br>------- --- ------ ----- was ---- ------- -- ---- --- --<br>------- ------,228442,228429,228086.52,228087,228086.72,228443.08,,47,was
screen,html.Screen,2_1_1_1_48,2022-02-21T15:56:57.811Z,,,,,,,,,,,,,,,,,54,,,,,,,,,,,,,,360.9200000000128,,response,,,,100,,,,,,,Space,keypress(Space),,,,,,,,-- --- ---- --- ------ ----- ------- ---- -- --- ------- --<br>------- ---------- ------ -- ----- -- ----- -- ---- ------<br>--- ----- --- --- ------ -------- ----- --- ------ ----- --<br>----- ----- ---------- --- --- ------ ------ ---- -- ------<br>------- --- ------ ----- --- left ------- -- ---- --- --<br>------- ------,228809,228804,228442.88,228442,228443.08,228809.6,,48,left
screen,html.Screen,2_1_1_1_49,2022-02-21T15:56:58.198Z,,,,,,,,,,,,,,,,,54,,,,,,,,,,,,,,369.3999999999942,,response,,,,100,,,,,,,Space,keypress(Space),,,,,,,,-- --- ---- --- ------ ----- ------- ---- -- --- ------- --<br>------- ---------- ------ -- ----- -- ----- -- ---- ------<br>--- ----- --- --- ------ -------- ----- --- ------ ----- --<br>----- ----- ---------- --- --- ------ ------ ---- -- ------<br>------- --- ------ ----- --- ---- without -- ---- --- --<br>------- ------,229197,229179,228809.38,228810,228809.6,229197.32,,49,without
screen,html.Screen,2_1_1_1_50,2022-02-21T15:56:58.586Z,,,,,,,,,,,,,,,,,54,,,,,,,,,,,,,,372.679999999993,,response,,,,100,,,,,,,Space,keypress(Space),,,,,,,,-- --- ---- --- ------ ----- ------- ---- -- --- ------- --<br>------- ---------- ------ -- ----- -- ----- -- ---- ------<br>--- ----- --- --- ------ -------- ----- --- ------ ----- --<br>----- ----- ---------- --- --- ------ ------ ---- -- ------<br>------- --- ------ ----- --- ---- ------- an ---- --- --<br>------- ------,229584,229570,229197.1,229197,229197.32,229584.14,,50,an
screen,html.Screen,2_1_1_1_51,2022-02-21T15:56:58.990Z,,,,,,,,,,,,,,,,,54,,,,,,,,,,,,,,391.85999999998603,,response,,,,100,,,,,,,Space,keypress(Space),,,,,,,,-- --- ---- --- ------ ----- ------- ---- -- --- ------- --<br>------- ---------- ------ -- ----- -- ----- -- ---- ------<br>--- ----- --- --- ------ -------- ----- --- ------ ----- --<br>----- ----- ---------- --- --- ------ ------ ---- -- ------<br>------- --- ------ ----- --- ---- ------- -- easy --- --<br>------- ------,229988,229976,229583.96,229584,229584.14,229988.5,,51,easy
screen,html.Screen,2_1_1_1_52,2022-02-21T15:56:59.421Z,,,,,,,,,,,,,,,,,54,,,,,,,,,,,,,,425.5,,response,,,,100,,,,,,,Space,keypress(Space),,,,,,,,-- --- ---- --- ------ ----- ------- ---- -- --- ------- --<br>------- ---------- ------ -- ----- -- ----- -- ---- ------<br>--- ----- --- --- ------ -------- ----- --- ------ ----- --<br>----- ----- ---------- --- --- ------ ------ ---- -- ------<br>------- --- ------ ----- --- ---- ------- -- ---- way --<br>------- ------,230419,230414,229988.28,229988,229988.5,230419.34,,52,way
screen,html.Screen,2_1_1_1_53,2022-02-21T15:56:59.833Z,,,,,,,,,,,,,,,,,54,,,,,,,,,,,,,,400.6600000000035,,response,,,,100,,,,,,,Space,keypress(Space),,,,,,,,-- --- ---- --- ------ ----- ------- ---- -- --- ------- --<br>------- ---------- ------ -- ----- -- ----- -- ---- ------<br>--- ----- --- --- ------ -------- ----- --- ------ ----- --<br>----- ----- ---------- --- --- ------ ------ ---- -- ------<br>------- --- ------ ----- --- ---- ------- -- ---- --- of<br>------- ------,230832,230820,230419.12,230419,230419.34,230831.94,,53,of
screen,html.Screen,2_1_1_1_54,2022-02-21T15:57:00.324Z,,,,,,,,,,,,,,,,,54,,,,,,,,,,,,,,489.0599999999977,,response,,,,100,,,,,,,Space,keypress(Space),,,,,,,,-- --- ---- --- ------ ----- ------- ---- -- --- ------- --<br>------- ---------- ------ -- ----- -- ----- -- ---- ------<br>--- ----- --- --- ------ -------- ----- --- ------ ----- --<br>----- ----- ---------- --- --- ------ ------ ---- -- ------<br>------- --- ------ ----- --- ---- ------- -- ---- --- --<br>raising ------,231323,231321,230831.74,230832,230831.94,231322.92,,54,raising
screen,html.Screen,2_1_1_1_55,2022-02-21T15:57:00.854Z,,,,,,,,,,,,,,,,,54,,,,,,,,,,,,,,513.0799999999872,,response,,,,100,,,,,,,Space,keypress(Space),,,,,,,,-- --- ---- --- ------ ----- ------- ---- -- --- ------- --<br>------- ---------- ------ -- ----- -- ----- -- ---- ------<br>--- ----- --- --- ------ -------- ----- --- ------ ----- --<br>----- ----- ---------- --- --- ------ ------ ---- -- ------<br>------- --- ------ ----- --- ---- ------- -- ---- --- --<br>------- money.,231852,231836,231322.74,231323,231322.92,231853.08,,55,money.
Item 100,flow.Loop,2_1_1_1,2022-02-21T15:57:00.854Z,,,,,,,,,,,,,,,,,,,,,,,,,,,,,,,25080.859999999986,,completion,,,,,D,,,,,,,,,,,silence,,,,,231852,231836,206738.46,206740,206755.14,231853.08,,,
Question 1,html.Screen,2_1_1_2,2022-02-21T15:57:05.195Z,,,,,,,,,,,,,,,,,,,,,,,,,,,,true,TRUE,,4325.920000000013,,response,,,,100,D,,,,,,TRUE,click #choice-1,,,,silence,,,,,236193,236179,231852.84,231853,231853.08,236205.68,,,
Question 2,html.Screen,2_1_1_3,2022-02-21T15:57:08.539Z,,,,,,,,,,,,,,,,,,,,,,,,,,,,true,FALSE,,3318.320000000007,,response,,,,100,D,,,,,,FALSE,click #choice-2,,,,silence,,,,,239537,239524,236191.32,236193,236205.68,239546.54,,,
Item 100,flow.Sequence,2_1_1,2022-02-21T15:57:08.539Z,,,,,,,,,,,,,,,,,,,,,,,,,,,,,,,42774.29999999999,,completion,,,,,,,,,,,,,,,,,,,,,239537,239524,196743.78,196746,196749.7,239546.54,,,
End of Practice,html.Page,2_1_2,2022-02-21T15:57:13.624Z,,,,,,,,,,,,,,,,,,,,,,,,,,,,,,,5073.459999999992,,form submission,,,,,,,,,,,,,,,,,,,,,244622,244620,239535.18,239538,239546.54,244624.66,,,
Practice,flow.Sequence,2_1,2022-02-21T15:57:13.624Z,,,,,,,,,,,,,,,,,,,,,,,,,,,,,,,100806.68,,completion,,,,,,,,,,,,,,,,,,,,,244622,244620,143800.34,143808,143813.32,244624.66,,,
Trap_instruction,html.Page,2_2_0,2022-02-21T15:57:18.141Z,,,,,,,,,,,,,,,,,,,,,,,,,,,,,,,4514.3399999999965,,form submission,,,,,,,,,,,,,,,,,,,,,249139,249139,244615.2,244622,244624.66,249151.58,,,
trap_trial,html.Screen,2_2_1,2022-02-21T15:57:22.075Z,,,,,,,,,,,,,,,,,,,,,,,,,,,,true,1,,3902.420000000013,,response,,,,,,,,,,,1,click #choice-1,,,,,,,,,253074,253054,249134.9,249139,249151.58,253077.1,,,
end of trap trial,html.Page,2_2_2,2022-02-21T15:57:23.807Z,,,,,,,,,,,,,,,,,,,,,,,,,,,,,,,1725.8999999999942,,form submission,,,,,,,,,,,,,,,,,,,,,254804,254803,253070.72,253074,253077.1,254814.32,,,
Trap 1,flow.Sequence,2_2,2022-02-21T15:57:23.807Z,,,,,,,,,,,,,,,,,,,,,,,,,,,,,,,10178.339999999997,,completion,,,,,,,,,,,,,,,,,,,,,254805,254803,244615.2,244622,244624.66,254814.32,,,
Standby,html.Page,2_3_0,2022-02-21T15:57:31.802Z,,,,,,,,,,,,,,,,,,,,,,,,,,,,,,,8001.200000000012,,timeout,,,,,,,,,,,,,,,,,,,,,262800,262798.86,254798.98,254805,254814.32,262815.52,,,
Holding screen,html.Screen,2_3_1_0_0,2022-02-21T15:57:38.800Z,,,,,,,,,,,,,,,,,,,,,,,,,,,,,,,6999.179999999993,,timeout,,,,,,,,,,,,,,,,,,,,,269799,269798.04,262798.86,262800,262815.52,269814.7,,,
screen,html.Screen,2_3_1_0_1_0,2022-02-21T15:57:39.640Z,,,,,,,,,,,,,,,,,11,,,,,,,,,,,,,,819.2999999999884,,response,,,,4,D,,,,,,Space,keypress(Space),,,,silence,,,,Known -- ---- --- -- --- -------- ------------ ---------- --<br>- ------- ------ --------- -- ------------ -- --- ---- -----<br>------ ---- ---- ------ ------ ------- --- ----- ---------<br>---- --- -------- -------- --- --- -- ------- --- --- -----<br>-- --- ------ ------- --- --- -------- ---- --------- --<br>---------- -- -------- ----------------,270638,270634,269798.04,269799,269814.7,270639.02,,0,Known
screen,html.Screen,2_3_1_0_1_1,2022-02-21T15:57:40.124Z,,,,,,,,,,,,,,,,,11,,,,,,,,,,,,,,478.9799999999814,,response,,,,4,D,,,,,,Space,keypress(Space),,,,silence,,,,----- as ---- --- -- --- -------- ------------ ---------- --<br>- ------- ------ --------- -- ------------ -- --- ---- -----<br>------ ---- ---- ------ ------ ------- --- ----- ---------<br>---- --- -------- -------- --- --- -- ------- --- --- -----<br>-- --- ------ ------- --- --- -------- ---- --------- --<br>---------- -- -------- ----------------,271123,271118,270638.78,270639,270639.02,271122.98,,1,as
screen,html.Screen,2_3_1_0_1_2,2022-02-21T15:57:40.682Z,,,,,,,,,,,,,,,,,11,,,,,,,,,,,,,,541.0200000000186,,response,,,,4,D,,,,,,Space,keypress(Space),,,,silence,,,,----- -- Rapa --- -- --- -------- ------------ ---------- --<br>- ------- ------ --------- -- ------------ -- --- ---- -----<br>------ ---- ---- ------ ------ ------- --- ----- ---------<br>---- --- -------- -------- --- --- -- ------- --- --- -----<br>-- --- ------ ------- --- --- -------- ---- --------- --<br>---------- -- -------- ----------------,271680,271664,271122.78,271123,271122.98,271680.52,,2,Rapa
screen,html.Screen,2_3_1_0_1_3,2022-02-21T15:57:41.150Z,,,,,,,,,,,,,,,,,11,,,,,,,,,,,,,,452.4799999999814,,response,,,,4,D,,,,,,Space,keypress(Space),,,,silence,,,,----- -- ---- Nui -- --- -------- ------------ ---------- --<br>- ------- ------ --------- -- ------------ -- --- ---- -----<br>------ ---- ---- ------ ------ ------- --- ----- ---------<br>---- --- -------- -------- --- --- -- ------- --- --- -----<br>-- --- ------ ------- --- --- -------- ---- --------- --<br>---------- -- -------- ----------------,272148,272133,271680.3,271681,271680.52,272148.62,,3,Nui
screen,html.Screen,2_3_1_0_1_4,2022-02-21T15:57:41.568Z,,,,,,,,,,,,,,,,,11,,,,,,,,,,,,,,406.38000000000466,,response,,,,4,D,,,,,,Space,keypress(Space),,,,silence,,,,----- -- ---- --- to --- -------- ------------ ---------- --<br>- ------- ------ --------- -- ------------ -- --- ---- -----<br>------ ---- ---- ------ ------ ------- --- ----- ---------<br>---- --- -------- -------- --- --- -- ------- --- --- -----<br>-- --- ------ ------- --- --- -------- ---- --------- --<br>---------- -- -------- ----------------,272567,272555,272148.42,272149,272148.62,272567.48,,4,to
screen,html.Screen,2_3_1_0_1_5,2022-02-21T15:57:41.943Z,,,,,,,,,,,,,,,,,11,,,,,,,,,,,,,,361.5200000000186,,response,,,,4,D,,,,,,Space,keypress(Space),,,,silence,,,,----- -- ---- --- -- the -------- ------------ ---------- --<br>- ------- ------ --------- -- ------------ -- --- ---- -----<br>------ ---- ---- ------ ------ ------- --- ----- ---------<br>---- --- -------- -------- --- --- -- ------- --- --- -----<br>-- --- ------ ------- --- --- -------- ---- --------- --<br>---------- -- -------- ----------------,272942,272929,272567.3,272568,272567.48,272942.4,,5,the
screen,html.Screen,2_3_1_0_1_6,2022-02-21T15:57:42.334Z,,,,,,,,,,,,,,,,,11,,,,,,,,,,,,,,378.5999999999767,,response,,,,4,D,,,,,,Space,keypress(Space),,,,silence,,,,----- -- ---- --- -- --- island's ------------ ---------- --<br>- ------- ------ --------- -- ------------ -- --- ---- -----<br>------ ---- ---- ------ ------ ------- --- ----- ---------<br>---- --- -------- -------- --- --- -- ------- --- --- -----<br>-- --- ------ ------- --- --- -------- ---- --------- --<br>---------- -- -------- ----------------,273331,273321,272942.18,272943,272942.4,273332.34,,6,island's
screen,html.Screen,2_3_1_0_1_7,2022-02-21T15:57:42.778Z,,,,,,,,,,,,,,,,,11,,,,,,,,,,,,,,440.6599999999744,,response,,,,4,D,,,,,,Space,keypress(Space),,,,silence,,,,"----- -- ---- --- -- --- -------- inhabitants, ---------- --<br>- ------- ------ --------- -- ------------ -- --- ---- -----<br>------ ---- ---- ------ ------ ------- --- ----- ---------<br>---- --- -------- -------- --- --- -- ------- --- --- -----<br>-- --- ------ ------- --- --- -------- ---- --------- --<br>---------- -- -------- ----------------",273776,273773,273332.12,273333,273332.34,273777,,7,"inhabitants,"
screen,html.Screen,2_3_1_0_1_8,2022-02-21T15:57:43.734Z,,,,,,,,,,,,,,,,,11,,,,,,,,,,,,,,950,,response,,,,4,D,,,,,,Space,keypress(Space),,,,silence,,,,----- -- ---- --- -- --- -------- ------------ Rongorongo --<br>- ------- ------ --------- -- ------------ -- --- ---- -----<br>------ ---- ---- ------ ------ ------- --- ----- ---------<br>---- --- -------- -------- --- --- -- ------- --- --- -----<br>-- --- ------ ------- --- --- -------- ---- --------- --<br>---------- -- -------- ----------------,274733,274727,273776.8,273777,273777,274732.88,,8,Rongorongo
screen,html.Screen,2_3_1_0_1_9,2022-02-21T15:57:44.572Z,,,,,,,,,,,,,,,,,11,,,,,,,,,,,,,,821.1199999999953,,response,,,,4,D,,,,,,Space,keypress(Space),,,,silence,,,,----- -- ---- --- -- --- -------- ------------ ---------- is<br>- ------- ------ --------- -- ------------ -- --- ---- -----<br>------ ---- ---- ------ ------ ------- --- ----- ---------<br>---- --- -------- -------- --- --- -- ------- --- --- -----<br>-- --- ------ ------- --- --- -------- ---- --------- --<br>---------- -- -------- ----------------,275570,275554,274732.7,274733,274732.88,275570.96,,9,is
screen,html.Screen,2_3_1_0_1_10,2022-02-21T15:57:44.958Z,,,,,,,,,,,,,,,,,11,,,,,,,,,,,,,,375.03999999997905,,response,,,,4,D,,,,,,Space,keypress(Space),,,,silence,,,,----- -- ---- --- -- --- -------- ------------ ---------- --<br>a ------- ------ --------- -- ------------ -- --- ---- -----<br>------ ---- ---- ------ ------ ------- --- ----- ---------<br>---- --- -------- -------- --- --- -- ------- --- --- -----<br>-- --- ------ ------- --- --- -------- ---- --------- --<br>---------- -- -------- ----------------,275957,275946,275570.76,275570,275570.96,275956.9,,10,a
screen,html.Screen,2_3_1_0_1_11,2022-02-21T15:57:45.345Z,,,,,,,,,,,,,,,,,11,,,,,,,,,,,,,,380.0999999999767,,response,,,,4,D,,,,,,Space,keypress(Space),,,,silence,,,,----- -- ---- --- -- --- -------- ------------ ---------- --<br>- writing ------ --------- -- ------------ -- --- ---- -----<br>------ ---- ---- ------ ------ ------- --- ----- ---------<br>---- --- -------- -------- --- --- -- ------- --- --- -----<br>-- --- ------ ------- --- --- -------- ---- --------- --<br>---------- -- -------- ----------------,276343,276337,275956.7,275957,275956.9,276343.52,,11,writing
screen,html.Screen,2_3_1_0_1_12,2022-02-21T15:57:45.793Z,,,,,,,,,,,,,,,,,11,,,,,,,,,,,,,,445.4799999999814,,response,,,,4,D,,,,,,Space,keypress(Space),,,,silence,,,,----- -- ---- --- -- --- -------- ------------ ---------- --<br>- ------- system --------- -- ------------ -- --- ---- -----<br>------ ---- ---- ------ ------ ------- --- ----- ---------<br>---- --- -------- -------- --- --- -- ------- --- --- -----<br>-- --- ------ ------- --- --- -------- ---- --------- --<br>---------- -- -------- ----------------,276792,276789,276343.3,276343,276343.52,276792.14,,12,system
screen,html.Screen,2_3_1_0_1_13,2022-02-21T15:57:46.262Z,,,,,,,,,,,,,,,,,11,,,,,,,,,,,,,,465.85999999998603,,response,,,,4,D,,,,,,Space,keypress(Space),,,,silence,,,,----- -- ---- --- -- --- -------- ------------ ---------- --<br>- ------- ------ comprised -- ------------ -- --- ---- -----<br>------ ---- ---- ------ ------ ------- --- ----- ---------<br>---- --- -------- -------- --- --- -- ------- --- --- -----<br>-- --- ------ ------- --- --- -------- ---- --------- --<br>---------- -- -------- ----------------,277260,277258,276791.92,276792,276792.14,277260.68,,13,comprised
screen,html.Screen,2_3_1_0_1_14,2022-02-21T15:57:46.849Z,,,,,,,,,,,,,,,,,11,,,,,,,,,,,,,,575.320000000007,,response,,,,4,D,,,,,,Space,keypress(Space),,,,silence,,,,----- -- ---- --- -- --- -------- ------------ ---------- --<br>- ------- ------ --------- of ------------ -- --- ---- -----<br>------ ---- ---- ------ ------ ------- --- ----- ---------<br>---- --- -------- -------- --- --- -- ------- --- --- -----<br>-- --- ------ ------- --- --- -------- ---- --------- --<br>---------- -- -------- ----------------,277847,277836,277260.48,277260,277260.68,277847.14,,14,of
screen,html.Screen,2_3_1_0_1_15,2022-02-21T15:57:47.595Z,,,,,,,,,,,,,,,,,11,,,,,,,,,,,,,,739.859999999986,,response,,,,4,D,,,,,,Space,keypress(Space),,,,silence,,,,----- -- ---- --- -- --- -------- ------------ ---------- --<br>- ------- ------ --------- -- pictographs. -- --- ---- -----<br>------ ---- ---- ------ ------ ------- --- ----- ---------<br>---- --- -------- -------- --- --- -- ------- --- --- -----<br>-- --- ------ ------- --- --- -------- ---- --------- --<br>---------- -- -------- ----------------,278593,278587,277846.94,277847,277847.14,278593.18,,15,pictographs.
screen,html.Screen,2_3_1_0_1_16,2022-02-21T15:57:47.973Z,,,,,,,,,,,,,,,,,11,,,,,,,,,,,,,,367.820000000007,,response,,,,4,D,,,,,,Space,keypress(Space),,,,silence,,,,----- -- ---- --- -- --- -------- ------------ ---------- --<br>- ------- ------ --------- -- ------------ It --- ---- -----<br>------ ---- ---- ------ ------ ------- --- ----- ---------<br>---- --- -------- -------- --- --- -- ------- --- --- -----<br>-- --- ------ ------- --- --- -------- ---- --------- --<br>---------- -- -------- ----------------,278970,278961,278593,278593,278593.18,278971.04,,16,It
screen,html.Screen,2_3_1_0_1_17,2022-02-21T15:57:48.394Z,,,,,,,,,,,,,,,,,11,,,,,,,,,,,,,,412.96000000002095,,response,,,,4,D,,,,,,Space,keypress(Space),,,,silence,,,,----- -- ---- --- -- --- -------- ------------ ---------- --<br>- ------- ------ --------- -- ------------ -- has ---- -----<br>------ ---- ---- ------ ------ ------- --- ----- ---------<br>---- --- -------- -------- --- --- -- ------- --- --- -----<br>-- --- ------ ------- --- --- -------- ---- --------- --<br>---------- -- -------- ----------------,279392,279384,278970.86,278970,278971.04,279393,,17,has
screen,html.Screen,2_3_1_0_1_18,2022-02-21T15:57:48.829Z,,,,,,,,,,,,,,,,,11,,,,,,,,,,,,,,428,,response,,,,4,D,,,,,,Space,keypress(Space),,,,silence,,,,----- -- ---- --- -- --- -------- ------------ ---------- --<br>- ------- ------ --------- -- ------------ -- --- been -----<br>------ ---- ---- ------ ------ ------- --- ----- ---------<br>---- --- -------- -------- --- --- -- ------- --- --- -----<br>-- --- ------ ------- --- --- -------- ---- --------- --<br>---------- -- -------- ----------------,279827,279821,279392.8,279393,279393,279827.72,,18,been
screen,html.Screen,2_3_1_0_1_19,2022-02-21T15:57:49.392Z,,,,,,,,,,,,,,,,,11,,,,,,,,,,,,,,556.2800000000279,,response,,,,4,D,,,,,,Space,keypress(Space),,,,silence,,,,----- -- ---- --- -- --- -------- ------------ ---------- --<br>- ------- ------ --------- -- ------------ -- --- ---- found<br>------ ---- ---- ------ ------ ------- --- ----- ---------<br>---- --- -------- -------- --- --- -- ------- --- --- -----<br>-- --- ------ ------- --- --- -------- ---- --------- --<br>---------- -- -------- ----------------,280391,280384,279827.46,279828,279827.72,280391.1,,19,found
screen,html.Screen,2_3_1_0_1_20,2022-02-21T15:57:49.982Z,,,,,,,,,,,,,,,,,11,,,,,,,,,,,,,,584.9000000000233,,response,,,,4,D,,,,,,Space,keypress(Space),,,,silence,,,,----- -- ---- --- -- --- -------- ------------ ---------- --<br>- ------- ------ --------- -- ------------ -- --- ---- -----<br>carved ---- ---- ------ ------ ------- --- ----- ---------<br>---- --- -------- -------- --- --- -- ------- --- --- -----<br>-- --- ------ ------- --- --- -------- ---- --------- --<br>---------- -- -------- ----------------,280981,280976,280390.88,280391,280391.1,280980.8,,20,carved
screen,html.Screen,2_3_1_0_1_21,2022-02-21T15:57:50.393Z,,,,,,,,,,,,,,,,,11,,,,,,,,,,,,,,403.20000000001164,,response,,,,4,D,,,,,,Space,keypress(Space),,,,silence,,,,----- -- ---- --- -- --- -------- ------------ ---------- --<br>- ------- ------ --------- -- ------------ -- --- ---- -----<br>------ into ---- ------ ------ ------- --- ----- ---------<br>---- --- -------- -------- --- --- -- ------- --- --- -----<br>-- --- ------ ------- --- --- -------- ---- --------- --<br>---------- -- -------- ----------------,281392,281384,280980.6,280981,280980.8,281392.02,,21,into
screen,html.Screen,2_3_1_0_1_22,2022-02-21T15:57:50.827Z,,,,,,,,,,,,,,,,,11,,,,,,,,,,,,,,428.9799999999814,,response,,,,4,D,,,,,,Space,keypress(Space),,,,silence,,,,----- -- ---- --- -- --- -------- ------------ ---------- --<br>- ------- ------ --------- -- ------------ -- --- ---- -----<br>------ ---- many ------ ------ ------- --- ----- ---------<br>---- --- -------- -------- --- --- -- ------- --- --- -----<br>-- --- ------ ------- --- --- -------- ---- --------- --<br>---------- -- -------- ----------------,281825,281821,281391.84,281392,281392.02,281825.8,,22,many
screen,html.Screen,2_3_1_0_1_23,2022-02-21T15:57:51.470Z,,,,,,,,,,,,,,,,,11,,,,,,,,,,,,,,635.2000000000116,,response,,,,4,D,,,,,,Space,keypress(Space),,,,silence,,,,----- -- ---- --- -- --- -------- ------------ ---------- --<br>- ------- ------ --------- -- ------------ -- --- ---- -----<br>------ ---- ---- oblong ------ ------- --- ----- ---------<br>---- --- -------- -------- --- --- -- ------- --- --- -----<br>-- --- ------ ------- --- --- -------- ---- --------- --<br>---------- -- -------- ----------------,282468,282461,281825.58,281825,281825.8,282468.5,,23,oblong
screen,html.Screen,2_3_1_0_1_24,2022-02-21T15:57:51.968Z,,,,,,,,,,,,,,,,,11,,,,,,,,,,,,,,493.5,,response,,,,4,D,,,,,,Space,keypress(Space),,,,silence,,,,----- -- ---- --- -- --- -------- ------------ ---------- --<br>- ------- ------ --------- -- ------------ -- --- ---- -----<br>------ ---- ---- ------ wooden ------- --- ----- ---------<br>---- --- -------- -------- --- --- -- ------- --- --- -----<br>-- --- ------ ------- --- --- -------- ---- --------- --<br>---------- -- -------- ----------------,282966,282962,282468.28,282468,282468.5,282966,,24,wooden
screen,html.Screen,2_3_1_0_1_25,2022-02-21T15:57:52.385Z,,,,,,,,,,,,,,,,,11,,,,,,,,,,,,,,401,,response,,,,4,D,,,,,,Space,keypress(Space),,,,silence,,,,----- -- ---- --- -- --- -------- ------------ ---------- --<br>- ------- ------ --------- -- ------------ -- --- ---- -----<br>------ ---- ---- ------ ------ tablets --- ----- ---------<br>---- --- -------- -------- --- --- -- ------- --- --- -----<br>-- --- ------ ------- --- --- -------- ---- --------- --<br>---------- -- -------- ----------------,283383,283367,282965.78,282966,282966,283383.46,,25,tablets
screen,html.Screen,2_3_1_0_1_26,2022-02-21T15:57:52.816Z,,,,,,,,,,,,,,,,,11,,,,,,,,,,,,,,420.53999999997905,,response,,,,4,D,,,,,,Space,keypress(Space),,,,silence,,,,----- -- ---- --- -- --- -------- ------------ ---------- --<br>- ------- ------ --------- -- ------------ -- --- ---- -----<br>------ ---- ---- ------ ------ ------- and ----- ---------<br>---- --- -------- -------- --- --- -- ------- --- --- -----<br>-- --- ------ ------- --- --- -------- ---- --------- --<br>---------- -- -------- ----------------,283814,283804,283383.24,283383,283383.46,283814.12,,26,and
screen,html.Screen,2_3_1_0_1_27,2022-02-21T15:57:53.315Z,,,,,,,,,,,,,,,,,11,,,,,,,,,,,,,,490.88000000000466,,response,,,,4,D,,,,,,Space,keypress(Space),,,,silence,,,,----- -- ---- --- -- --- -------- ------------ ---------- --<br>- ------- ------ --------- -- ------------ -- --- ---- -----<br>------ ---- ---- ------ ------ ------- --- other ---------<br>---- --- -------- -------- --- --- -- ------- --- --- -----<br>-- --- ------ ------- --- --- -------- ---- --------- --<br>---------- -- -------- ----------------,284313,284305,283813.94,283814,283814.12,284314.44,,27,other
screen,html.Screen,2_3_1_0_1_28,2022-02-21T15:57:53.856Z,,,,,,,,,,,,,,,,,11,,,,,,,,,,,,,,537.5599999999977,,response,,,,4,D,,,,,,Space,keypress(Space),,,,silence,,,,----- -- ---- --- -- --- -------- ------------ ---------- --<br>- ------- ------ --------- -- ------------ -- --- ---- -----<br>------ ---- ---- ------ ------ ------- --- ----- artifacts<br>---- --- -------- -------- --- --- -- ------- --- --- -----<br>-- --- ------ ------- --- --- -------- ---- --------- --<br>---------- -- -------- ----------------,284854,284852,284313.18,284313,284314.44,284854.72,,28,artifacts
screen,html.Screen,2_3_1_0_1_29,2022-02-21T15:57:54.271Z,,,,,,,,,,,,,,,,,11,,,,,,,,,,,,,,404.28000000002794,,response,,,,4,D,,,,,,Space,keypress(Space),,,,silence,,,,----- -- ---- --- -- --- -------- ------------ ---------- --<br>- ------- ------ --------- -- ------------ -- --- ---- -----<br>------ ---- ---- ------ ------ ------- --- ----- ---------<br>from --- -------- -------- --- --- -- ------- --- --- -----<br>-- --- ------ ------- --- --- -------- ---- --------- --<br>---------- -- -------- ----------------,285269,285259,284854.5,284854,284854.72,285270.26,,29,from
screen,html.Screen,2_3_1_0_1_30,2022-02-21T15:57:54.670Z,,,,,,,,,,,,,,,,,11,,,,,,,,,,,,,,393.7399999999907,,response,,,,4,D,,,,,,Space,keypress(Space),,,,silence,,,,----- -- ---- --- -- --- -------- ------------ ---------- --<br>- ------- ------ --------- -- ------------ -- --- ---- -----<br>------ ---- ---- ------ ------ ------- --- ----- ---------<br>---- the -------- -------- --- --- -- ------- --- --- -----<br>-- --- ------ ------- --- --- -------- ---- --------- --<br>---------- -- -------- ----------------,285669,285664,285270.08,285270,285270.26,285669.26,,30,the
screen,html.Screen,2_3_1_0_1_31,2022-02-21T15:57:55.387Z,,,,,,,,,,,,,,,,,11,,,,,,,,,,,,,,713.7399999999907,,response,,,,4,D,,,,,,Space,keypress(Space),,,,silence,,,,----- -- ---- --- -- --- -------- ------------ ---------- --<br>- ------- ------ --------- -- ------------ -- --- ---- -----<br>------ ---- ---- ------ ------ ------- --- ----- ---------<br>---- --- island's -------- --- --- -- ------- --- --- -----<br>-- --- ------ ------- --- --- -------- ---- --------- --<br>---------- -- -------- ----------------,286386,286383,285669.06,285669,285669.26,286385.58,,31,island's
screen,html.Screen,2_3_1_0_1_32,2022-02-21T15:57:56.321Z,,,,,,,,,,,,,,,,,11,,,,,,,,,,,,,,918.4199999999837,,response,,,,4,D,,,,,,Space,keypress(Space),,,,silence,,,,----- -- ---- --- -- --- -------- ------------ ---------- --<br>- ------- ------ --------- -- ------------ -- --- ---- -----<br>------ ---- ---- ------ ------ ------- --- ----- ---------<br>---- --- -------- history. --- --- -- ------- --- --- -----<br>-- --- ------ ------- --- --- -------- ---- --------- --<br>---------- -- -------- ----------------,287319,287304,286385.34,286386,286385.58,287319.32,,32,history.
screen,html.Screen,2_3_1_0_1_33,2022-02-21T15:57:56.830Z,,,,,,,,,,,,,,,,,11,,,,,,,,,,,,,,500.679999999993,,response,,,,4,D,,,,,,Space,keypress(Space),,,,silence,,,,----- -- ---- --- -- --- -------- ------------ ---------- --<br>- ------- ------ --------- -- ------------ -- --- ---- -----<br>------ ---- ---- ------ ------ ------- --- ----- ---------<br>---- --- -------- -------- The --- -- ------- --- --- -----<br>-- --- ------ ------- --- --- -------- ---- --------- --<br>---------- -- -------- ----------------,287828,287820,287319.1,287319,287319.32,287828.38,,33,The
screen,html.Screen,2_3_1_0_1_34,2022-02-21T15:57:57.343Z,,,,,,,,,,,,,,,,,11,,,,,,,,,,,,,,508.61999999999534,,response,,,,4,D,,,,,,Space,keypress(Space),,,,silence,,,,----- -- ---- --- -- --- -------- ------------ ---------- --<br>- ------- ------ --------- -- ------------ -- --- ---- -----<br>------ ---- ---- ------ ------ ------- --- ----- ---------<br>---- --- -------- -------- --- art -- ------- --- --- -----<br>-- --- ------ ------- --- --- -------- ---- --------- --<br>---------- -- -------- ----------------,288341,288337,287828.18,287828,287828.38,288341.76,,34,art
screen,html.Screen,2_3_1_0_1_35,2022-02-21T15:57:57.749Z,,,,,,,,,,,,,,,,,11,,,,,,,,,,,,,,400.2399999999907,,response,,,,4,D,,,,,,Space,keypress(Space),,,,silence,,,,----- -- ---- --- -- --- -------- ------------ ---------- --<br>- ------- ------ --------- -- ------------ -- --- ---- -----<br>------ ---- ---- ------ ------ ------- --- ----- ---------<br>---- --- -------- -------- --- --- of ------- --- --- -----<br>-- --- ------ ------- --- --- -------- ---- --------- --<br>---------- -- -------- ----------------,288747,288742,288341.52,288342,288341.76,288748.14,,35,of
screen,html.Screen,2_3_1_0_1_36,2022-02-21T15:57:58.384Z,,,,,,,,,,,,,,,,,11,,,,,,,,,,,,,,619.859999999986,,response,,,,4,D,,,,,,Space,keypress(Space),,,,silence,,,,----- -- ---- --- -- --- -------- ------------ ---------- --<br>- ------- ------ --------- -- ------------ -- --- ---- -----<br>------ ---- ---- ------ ------ ------- --- ----- ---------<br>---- --- -------- -------- --- --- -- writing --- --- -----<br>-- --- ------ ------- --- --- -------- ---- --------- --<br>---------- -- -------- ----------------,289382,289368,288747.88,288748,288748.14,289382.2,,36,writing
screen,html.Screen,2_3_1_0_1_37,2022-02-21T15:57:58.825Z,,,,,,,,,,,,,,,,,11,,,,,,,,,,,,,,437.79999999998836,,response,,,,4,D,,,,,,Space,keypress(Space),,,,silence,,,,----- -- ---- --- -- --- -------- ------------ ---------- --<br>- ------- ------ --------- -- ------------ -- --- ---- -----<br>------ ---- ---- ------ ------ ------- --- ----- ---------<br>---- --- -------- -------- --- --- -- ------- was --- -----<br>-- --- ------ ------- --- --- -------- ---- --------- --<br>---------- -- -------- ----------------,289823,289820,289382.02,289382,289382.2,289823.86,,37,was
screen,html.Screen,2_3_1_0_1_38,2022-02-21T15:57:59.291Z,,,,,,,,,,,,,,,,,11,,,,,,,,,,,,,,449.14000000001397,,response,,,,4,D,,,,,,Space,keypress(Space),,,,silence,,,,----- -- ---- --- -- --- -------- ------------ ---------- --<br>- ------- ------ --------- -- ------------ -- --- ---- -----<br>------ ---- ---- ------ ------ ------- --- ----- ---------<br>---- --- -------- -------- --- --- -- ------- --- not -----<br>-- --- ------ ------- --- --- -------- ---- --------- --<br>---------- -- -------- ----------------,290289,290273,289823.62,289823,289823.86,290290.34,,38,not
screen,html.Screen,2_3_1_0_1_39,2022-02-21T15:57:59.719Z,,,,,,,,,,,,,,,,,11,,,,,,,,,,,,,,421.6599999999744,,response,,,,4,D,,,,,,Space,keypress(Space),,,,silence,,,,----- -- ---- --- -- --- -------- ------------ ---------- --<br>- ------- ------ --------- -- ------------ -- --- ---- -----<br>------ ---- ---- ------ ------ ------- --- ----- ---------<br>---- --- -------- -------- --- --- -- ------- --- --- known<br>-- --- ------ ------- --- --- -------- ---- --------- --<br>---------- -- -------- ----------------,290718,290712,290290.14,290291,290290.34,290718.12,,39,known
screen,html.Screen,2_3_1_0_1_40,2022-02-21T15:58:00.177Z,,,,,,,,,,,,,,,,,11,,,,,,,,,,,,,,446.88000000000466,,response,,,,4,D,,,,,,Space,keypress(Space),,,,silence,,,,----- -- ---- --- -- --- -------- ------------ ---------- --<br>- ------- ------ --------- -- ------------ -- --- ---- -----<br>------ ---- ---- ------ ------ ------- --- ----- ---------<br>---- --- -------- -------- --- --- -- ------- --- --- -----<br>in --- ------ ------- --- --- -------- ---- --------- --<br>---------- -- -------- ----------------,291175,291165,290717.9,290718,290718.12,291175.6,,40,in
screen,html.Screen,2_3_1_0_1_41,2022-02-21T15:58:00.396Z,,,,,,,,,,,,,,,,,11,,,,,,,,,,,,,,207.40000000002328,,response,,,,4,D,,,,,,Space,keypress(Space),,,,silence,,,,----- -- ---- --- -- --- -------- ------------ ---------- --<br>- ------- ------ --------- -- ------------ -- --- ---- -----<br>------ ---- ---- ------ ------ ------- --- ----- ---------<br>---- --- -------- -------- --- --- -- ------- --- --- -----<br>-- any ------ ------- --- --- -------- ---- --------- --<br>---------- -- -------- ----------------,291394,291383,291175.42,291176,291175.6,291394.1,,41,any
screen,html.Screen,2_3_1_0_1_42,2022-02-21T15:58:00.890Z,,,,,,,,,,,,,,,,,11,,,,,,,,,,,,,,488.9000000000233,,response,,,,4,D,,,,,,Space,keypress(Space),,,,silence,,,,----- -- ---- --- -- --- -------- ------------ ---------- --<br>- ------- ------ --------- -- ------------ -- --- ---- -----<br>------ ---- ---- ------ ------ ------- --- ----- ---------<br>---- --- -------- -------- --- --- -- ------- --- --- -----<br>-- --- nearby ------- --- --- -------- ---- --------- --<br>---------- -- -------- ----------------,291889,291883,291393.88,291394,291394.1,291888.88,,42,nearby
screen,html.Screen,2_3_1_0_1_43,2022-02-21T15:58:01.328Z,,,,,,,,,,,,,,,,,11,,,,,,,,,,,,,,431.11999999999534,,response,,,,4,D,,,,,,Space,keypress(Space),,,,silence,,,,----- -- ---- --- -- --- -------- ------------ ---------- --<br>- ------- ------ --------- -- ------------ -- --- ---- -----<br>------ ---- ---- ------ ------ ------- --- ----- ---------<br>---- --- -------- -------- --- --- -- ------- --- --- -----<br>-- --- ------ islands --- --- -------- ---- --------- --<br>---------- -- -------- ----------------,292327,292320,291888.66,291889,291888.88,292327.1,,43,islands
screen,html.Screen,2_3_1_0_1_44,2022-02-21T15:58:01.767Z,,,,,,,,,,,,,,,,,11,,,,,,,,,,,,,,430.9000000000233,,response,,,,4,D,,,,,,Space,keypress(Space),,,,silence,,,,----- -- ---- --- -- --- -------- ------------ ---------- --<br>- ------- ------ --------- -- ------------ -- --- ---- -----<br>------ ---- ---- ------ ------ ------- --- ----- ---------<br>---- --- -------- -------- --- --- -- ------- --- --- -----<br>-- --- ------ ------- and --- -------- ---- --------- --<br>---------- -- -------- ----------------,292765,292758,292326.9,292327,292327.1,292766.88,,44,and
screen,html.Screen,2_3_1_0_1_45,2022-02-21T15:58:02.113Z,,,,,,,,,,,,,,,,,11,,,,,,,,,,,,,,334.11999999999534,,response,,,,4,D,,,,,,Space,keypress(Space),,,,silence,,,,----- -- ---- --- -- --- -------- ------------ ---------- --<br>- ------- ------ --------- -- ------------ -- --- ---- -----<br>------ ---- ---- ------ ------ ------- --- ----- ---------<br>---- --- -------- -------- --- --- -- ------- --- --- -----<br>-- --- ------ ------- --- the -------- ---- --------- --<br>---------- -- -------- ----------------,293112,293101,292765.56,292765,292766.88,293112.5,,45,the
screen,html.Screen,2_3_1_0_1_46,2022-02-21T15:58:02.385Z,,,,,,,,,,,,,,,,,11,,,,,,,,,,,,,,255.5,,response,,,,4,D,,,,,,Space,keypress(Space),,,,silence,,,,----- -- ---- --- -- --- -------- ------------ ---------- --<br>- ------- ------ --------- -- ------------ -- --- ---- -----<br>------ ---- ---- ------ ------ ------- --- ----- ---------<br>---- --- -------- -------- --- --- -- ------- --- --- -----<br>-- --- ------ ------- --- --- script's ---- --------- --<br>---------- -- -------- ----------------,293384,293368,293112.26,293112,293112.5,293384.5,,46,script's
screen,html.Screen,2_3_1_0_1_47,2022-02-21T15:58:02.833Z,,,,,,,,,,,,,,,,,11,,,,,,,,,,,,,,435.5,,response,,,,4,D,,,,,,Space,keypress(Space),,,,silence,,,,----- -- ---- --- -- --- -------- ------------ ---------- --<br>- ------- ------ --------- -- ------------ -- --- ---- -----<br>------ ---- ---- ------ ------ ------- --- ----- ---------<br>---- --- -------- -------- --- --- -- ------- --- --- -----<br>-- --- ------ ------- --- --- -------- mere --------- --<br>---------- -- -------- ----------------,293831,293820,293384.3,293384,293384.5,293831.9,,47,mere
screen,html.Screen,2_3_1_0_1_48,2022-02-21T15:58:03.313Z,,,,,,,,,,,,,,,,,11,,,,,,,,,,,,,,473.0999999999767,,response,,,,4,D,,,,,,Space,keypress(Space),,,,silence,,,,----- -- ---- --- -- --- -------- ------------ ---------- --<br>- ------- ------ --------- -- ------------ -- --- ---- -----<br>------ ---- ---- ------ ------ ------- --- ----- ---------<br>---- --- -------- -------- --- --- -- ------- --- --- -----<br>-- --- ------ ------- --- --- -------- ---- existence --<br>---------- -- -------- ----------------,294311,294305,293831.7,293831,293831.9,294312.26,,48,existence
screen,html.Screen,2_3_1_0_1_49,2022-02-21T15:58:03.706Z,,,,,,,,,,,,,,,,,11,,,,,,,,,,,,,,382.7399999999907,,response,,,,4,D,,,,,,Space,keypress(Space),,,,silence,,,,----- -- ---- --- -- --- -------- ------------ ---------- --<br>- ------- ------ --------- -- ------------ -- --- ---- -----<br>------ ---- ---- ------ ------ ------- --- ----- ---------<br>---- --- -------- -------- --- --- -- ------- --- --- -----<br>-- --- ------ ------- --- --- -------- ---- --------- is<br>---------- -- -------- ----------------,294704,294695,294312.04,294312,294312.26,294704.58,,49,is
screen,html.Screen,2_3_1_0_1_50,2022-02-21T15:58:04.225Z,,,,,,,,,,,,,,,,,11,,,,,,,,,,,,,,507.4199999999837,,response,,,,4,D,,,,,,Space,keypress(Space),,,,silence,,,,----- -- ---- --- -- --- -------- ------------ ---------- --<br>- ------- ------ --------- -- ------------ -- --- ---- -----<br>------ ---- ---- ------ ------ ------- --- ----- ---------<br>---- --- -------- -------- --- --- -- ------- --- --- -----<br>-- --- ------ ------- --- --- -------- ---- --------- --<br>sufficient -- -------- ----------------,295223,295212,294704.38,294705,294704.58,295223.52,,50,sufficient
