sender,sender_type,sender_id,timestamp,meta,,Blues,Classical,Country,Dance,Electronic,Folk,Gospel,Hip-Hop,Jazz,Latin,Musical/Film,New-age,Pop,Prolific_id,Provo_ID,R&B,Rap,Reggae,Religious,Rock,Soul,Swing,Traditional,age,artist_name,correct,correctResponse,distraction,duration,education,ended_on,familiarity,gender,headphone_check_performance,item,list,music_frequency,offensiveness,pleasantness,position_correct,preference,response,response_action,snippet_file,song_name,song_rating,sound,stimulus_1,stimulus_2,stimulus_3,text,time_commit,time_end,time_render,time_run,time_show,time_switch,url,word,word_ID
Prolific ID,html.Form,0,2022-02-01T14:03:29.854Z,"{""labjs_version"":""20.2.2"",""labjs_build"":{""flavor"":""production"",""commit"":""a25486e0c714a0ae2ce03ff94b7bb6896854dcfa""},""location"":""https://run.pavlovia.org/mvasilev/prolific2_music_e/"",""userAgent"":""Mozilla/5.0 (Macintosh; Intel Mac OS X 10_15_7) AppleWebKit/537.36 (KHTML, like Gecko) Chrome/97.0.4692.99 Safari/537.36"",""platform"":""MacIntel"",""language"":""en-GB"",""locale"":""en-GB"",""timeZone"":""Europe/London"",""timezoneOffset"":0,""screen_width"":1440,""screen_height"":900,""scroll_width"":1424,""scroll_height"":659,""window_innerWidth"":1424,""window_innerHeight"":707,""devicePixelRatio"":2}",,,,,,,,,,,,,,,5deb9c5a4de9422935efe5e7,,,,,,,,,,,,,,,10746.141999856949,,form submission,,,,,,,,,,,,,,,,,,,,,18975.89999985695,18975.39999985695,8212.592,8219.899999856949,8229.258,18979.89,{},,
Introduction,html.Screen,1_0,2022-02-01T14:03:34.048Z,,,,,,,,,,,,,,,,,,,,,,,,,,,,,,,4184.509999856949,,response,,,,,,,,,,,continue,click button,,,,,,,,,23169.89999985695,23164.39999985695,18963.224,18976.200000047684,18979.89,23179.722,,,
Volume calibration,html.Screen,1_1,2022-02-01T14:04:05.880Z,,,,,,,,,,,,,,,,,,,,,,,,,,,,,,,31814.37799990463,,response,,,,,,,,,,,continue,click button,,,,,,,,,55003.09999990463,54994.09999990463,23163.056,23170.099999904633,23179.722,54997.095,,,
Task instructions,html.Screen,1_2,2022-02-01T14:04:14.688Z,,,,,,,,,,,,,,,,,,,,,,,,,,,,,,,8811.304999856948,,response,,,,,,,,,,,continue,click button,,,,,,,,,63810.799999952316,63808.39999985695,54980.429,55003.59999990463,54997.095,63813.409,,,
Sounds,html.Screen,1_3_0_0,2022-02-01T14:04:18.929Z,,,,,,,,,,,,,,,,,,,,,,,,,,,,,,,4250.398000000001,,timeout,,,,,,,,,2,,,,,,,,O,S,I,,68052,68047.141,63796.743,63811.09999990463,63813.409,68063.807,,,
Judgement,html.Screen,1_3_0_1,2022-02-01T14:04:20.381Z,,,,,,,,,,,,,,,,,,,,,,,,,,,,true,2,,1435.9929999523156,,response,,,,,,,,,2,,2,click #choice-2,,,,,O,S,I,,69503.59999990463,69499.79999995232,68047.141,68052.29999995232,68063.807,69513.749,,,
Trial,flow.Sequence,1_3_0,2022-02-01T14:04:20.381Z,,,,,,,,,,,,,,,,,,,,,,,,,,,,,,,5686.390999952317,,completion,,,,,,,,,2,,,,,,,,O,S,I,,69504.29999995232,69499.79999995232,63796.743,63811.09999990463,63813.409,69513.749,,,
Sounds,html.Screen,1_3_1_0,2022-02-01T14:04:24.627Z,,,,,,,,,,,,,,,,,,,,,,,,,,,,,,,4249.830000000002,,timeout,,,,,,,,,3,,,,,,,,I,O,S,,73750.20000004768,73746.913,69497.083,69504.5,69513.749,73763.579,,,
Judgement,html.Screen,1_3_1_1,2022-02-01T14:04:25.985Z,,,,,,,,,,,,,,,,,,,,,,,,,,,,true,3,,1341.921000000002,,response,,,,,,,,,3,,3,click #choice-3,,,,,I,O,S,,75108.29999995232,75105.5,73746.913,73750.5,73763.579,75113.525,,,
Trial,flow.Sequence,1_3_1,2022-02-01T14:04:25.986Z,,,,,,,,,,,,,,,,,,,,,,,,,,,,,,,5591.751000000004,,completion,,,,,,,,,3,,,,,,,,I,O,S,,75108.59999990463,75105.5,69497.083,69504.29999995232,69513.749,75113.525,,,
Sounds,html.Screen,1_3_2_0,2022-02-01T14:04:30.227Z,,,,,,,,,,,,,,,,,,,,,,,,,,,,,,,4250.40800000001,,timeout,,,,,,,,,1,,,,,,,,S,I,O,,79350.20000004768,79347.267,75096.859,75108.79999995232,75113.525,79363.933,,,
Judgement,html.Screen,1_3_2_1,2022-02-01T14:04:32.662Z,,,,,,,,,,,,,,,,,,,,,,,,,,,,true,1,,2419.0669999999955,,response,,,,,,,,,1,,1,click #choice-1,,,,,S,I,O,,81785,81783,79347.267,79350.39999985695,79363.933,81797.169,,,
Trial,flow.Sequence,1_3_2,2022-02-01T14:04:32.662Z,,,,,,,,,,,,,,,,,,,,,,,,,,,,,,,6669.475000000006,,completion,,,,,,,,,1,,,,,,,,S,I,O,,81785,81783,75096.859,75108.79999995232,75113.525,81797.169,,,
Sounds,html.Screen,1_3_3_0,2022-02-01T14:04:36.910Z,,,,,,,,,,,,,,,,,,,,,,,,,,,,,,,4249.830000000002,,timeout,,,,,,,,,2,,,,,,,,I,S,O,,86033.5,86030.333,81780.503,81785,81797.169,86046.999,,,
Judgement,html.Screen,1_3_3_1,2022-02-01T14:04:38.099Z,,,,,,,,,,,,,,,,,,,,,,,,,,,,true,2,,1173.7010000476876,,response,,,,,,,,,2,,2,click #choice-2,,,,,I,S,O,,87222.5,87220.70000004768,86030.333,86033.79999995232,86046.999,87230.954,,,
Trial,flow.Sequence,1_3_3,2022-02-01T14:04:38.099Z,,,,,,,,,,,,,,,,,,,,,,,,,,,,,,,5423.531000047689,,completion,,,,,,,,,2,,,,,,,,I,S,O,,87222.70000004768,87220.70000004768,81780.503,81785,81797.169,87230.954,,,
Sounds,html.Screen,1_3_4_0,2022-02-01T14:04:42.343Z,,,,,,,,,,,,,,,,,,,,,,,,,,,,,,,4249.830000000002,,timeout,,,,,,,,,3,,,,,,,,O,I,S,,91466.39999985695,91464.118,87214.288,87222.79999995232,87230.954,91480.784,,,
Judgement,html.Screen,1_3_4_1,2022-02-01T14:04:43.285Z,,,,,,,,,,,,,,,,,,,,,,,,,,,,true,3,,925.1159998569492,,response,,,,,,,,,3,,3,click #choice-3,,,,,O,I,S,,92408.70000004768,92405.89999985695,91464.118,91466.70000004768,91480.784,92414.08,,,
Trial,flow.Sequence,1_3_4,2022-02-01T14:04:43.285Z,,,,,,,,,,,,,,,,,,,,,,,,,,,,,,,5174.945999856951,,completion,,,,,,,,,3,,,,,,,,O,I,S,,92408.89999985695,92405.89999985695,87214.288,87222.79999995232,87230.954,92414.08,,,
Sounds,html.Screen,1_3_5_0,2022-02-01T14:04:47.526Z,,,,,,,,,,,,,,,,,,,,,,,,,,,,,,,4249.830000000002,,timeout,,,,,,,,,1,,,,,,,,S,O,I,,96649.29999995232,96647.244,92397.414,92409.09999990463,92414.08,96663.91,,,
Judgement,html.Screen,1_3_5_1,2022-02-01T14:04:48.359Z,,,,,,,,,,,,,,,,,,,,,,,,,,,,true,1,,815.2900000476802,,response,,,,,,,,,1,,1,click #choice-1,,,,,S,O,I,,97482.29999995232,97479.20000004768,96647.244,96649.5,96663.91,97497.718,,,
Trial,flow.Sequence,1_3_5,2022-02-01T14:04:48.359Z,,,,,,,,,,,,,,,,,,,,,,,,,,,,,,,5065.120000047682,,completion,,,,,,,,,1,,,,,,,,S,O,I,,97482.59999990463,97479.20000004768,92397.414,92408.89999985695,92414.08,97497.718,,,
Task,flow.Loop,1_3,2022-02-01T14:04:48.366Z,,,,,,,,,,,,,,,,,,,,,,,,,,,,,,,33665.791000047684,,completion,,,1,,,,,,,,,,,,,,,,,,97489,97479.20000004768,63796.743,63811.09999990463,63813.409,97497.718,,,
Trap,html.Screen,1_4,2022-02-01T14:04:48.367Z,,,,,,,,,,,,,,,,,,,,,,,,,,,,,,,NaN,,skipped,,,,,,,,,,,,,,,,,,,,,97490.79999995232,97479.20000004768,,97490.70000004768,,97497.718,,,
Thanks,html.Screen,1_5,2022-02-01T14:04:52.003Z,,,,,,,,,,,,,,,,,,,,,,,,,,,,,,,3625.2820000000065,,response,,,,,,,,,,,continue,click button,,,,,,,,,101126.09999990463,101123,97481.052,97491,97497.718,104214.116,,,
Headphone screening,flow.Sequence,1,2022-02-01T14:04:52.003Z,,,,,,,,,,,,,,,,,,,,,,,,,,,,,,,82143.11,,completion,,,,,,,,,,,,,,,,,,,,,101126.29999995232,101123,18963.224,18976.200000047684,18979.89,104214.116,,,
Instructions,html.Page,2_0,2022-02-01T14:05:26.704Z,,,,,,,,,,,,,,,,,,,,,,,,,,,,,,,31613.884000000005,,form submission,,,,,,,,,,,,,,,,,,,,,135828.29999995232,135828,104197.45,104212.09999990463,104214.116,135829.518,,,
Holding screen,html.Screen,2_1_0_0,2022-02-01T14:05:36.693Z,,,,,,,,,,,,,,,,,,,,,,,,,,,,,,,10018.353000000003,,timeout,,,,,,,,,,,,,,,,,,,,,145817.59999990463,145814.539,135812.852,135828.5,135829.518,145847.871,,,
screen,html.Screen,2_1_0_1_0,2022-02-01T14:05:37.784Z,,,,,,,,,,,,,,,,,53,,,,,,,,,,,,,,1052.9289999523025,,response,,,,99,,,,,,,Space,keypress(Space),,,,,,,,When -- ----- -- ------ - ------- --- ----------<br>------------- ------ ------ ---- ---- ------- ----- -- ----<br>-------- ------- -- ---------- --- - --- ----- ----- ----<br>---- --- --- ----- --- ---- ---- ------- ----- ---- -------<br>--- --- -- ----- -- --- ---- -- --- ---- -- ------ ------<br>--- ----- -- ----,146908.5,146900.79999995232,145814.539,145818,145847.871,146914.495,,0,When
screen,html.Screen,2_1_0_1_1,2022-02-01T14:05:38.743Z,,,,,,,,,,,,,,,,,53,,,,,,,,,,,,,,950.8049999523209,,response,,,,99,,,,,,,Space,keypress(Space),,,,,,,,---- it ----- -- ------ - ------- --- ----------<br>------------- ------ ------ ---- ---- ------- ----- -- ----<br>-------- ------- -- ---------- --- - --- ----- ----- ----<br>---- --- --- ----- --- ---- ---- ------- ----- ---- -------<br>--- --- -- ----- -- --- ---- -- --- ---- -- ------ ------<br>--- ----- -- ----,147867.79999995232,147865.29999995232,146897.829,146908.70000004768,146914.495,147881.754,,1,it
screen,html.Screen,2_1_0_1_2,2022-02-01T14:05:39.684Z,,,,,,,,,,,,,,,,,53,,,,,,,,,,,,,,922.8459999046463,,response,,,,99,,,,,,,Space,keypress(Space),,,,,,,,---- -- comes -- ------ - ------- --- ----------<br>------------- ------ ------ ---- ---- ------- ----- -- ----<br>-------- ------- -- ---------- --- - --- ----- ----- ----<br>---- --- --- ----- --- ---- ---- ------- ----- ---- -------<br>--- --- -- ----- -- --- ---- -- --- ---- -- ------ ------<br>--- ----- -- ----,148808.20000004768,148804.59999990463,147865.088,147867.89999985695,147881.754,148815.05,,2,comes
screen,html.Screen,2_1_0_1_3,2022-02-01T14:05:40.723Z,,,,,,,,,,,,,,,,,53,,,,,,,,,,,,,,1029.4500000000116,,response,,,,99,,,,,,,Space,keypress(Space),,,,,,,,---- -- ----- to ------ - ------- --- ----------<br>------------- ------ ------ ---- ---- ------- ----- -- ----<br>-------- ------- -- ---------- --- - --- ----- ----- ----<br>---- --- --- ----- --- ---- ---- ------- ----- ---- -------<br>--- --- -- ----- -- --- ---- -- --- ---- -- ------ ------<br>--- ----- -- ----,149847.79999995232,149844.5,148798.384,148808.29999995232,148815.05,149865.008,,3,to
screen,html.Screen,2_1_0_1_4,2022-02-01T14:05:42.379Z,,,,,,,,,,,,,,,,,53,,,,,,,,,,,,,,1635.091999904631,,response,,,,99,,,,,,,Space,keypress(Space),,,,,,,,---- -- ----- -- having - ------- --- ----------<br>------------- ------ ------ ---- ---- ------- ----- -- ----<br>-------- ------- -- ---------- --- - --- ----- ----- ----<br>---- --- --- ----- --- ---- ---- ------- ----- ---- -------<br>--- --- -- ----- -- --- ---- -- --- ---- -- ------ ------<br>--- ----- -- ----,151503.5,151500.09999990463,149848.342,149848,149865.008,151514.942,,4,having
screen,html.Screen,2_1_0_1_5,2022-02-01T14:05:43.030Z,,,,,,,,,,,,,,,,,53,,,,,,,,,,,,,,636.7580000476737,,response,,,,99,,,,,,,Space,keypress(Space),,,,,,,,---- -- ----- -- ------ a ------- --- ----------<br>------------- ------ ------ ---- ---- ------- ----- -- ----<br>-------- ------- -- ---------- --- - --- ----- ----- ----<br>---- --- --- ----- --- ---- ---- ------- ----- ---- -------<br>--- --- -- ----- -- --- ---- -- --- ---- -- ------ ------<br>--- ----- -- ----,152154.79999995232,152151.70000004768,151498.276,151503.79999995232,151514.942,152164.916,,5,a
screen,html.Screen,2_1_0_1_6,2022-02-01T14:05:43.911Z,,,,,,,,,,,,,,,,,53,,,,,,,,,,,,,,867.3839999523188,,response,,,,99,,,,,,,Space,keypress(Space),,,,,,,,---- -- ----- -- ------ - lasting --- ----------<br>------------- ------ ------ ---- ---- ------- ----- -- ----<br>-------- ------- -- ---------- --- - --- ----- ----- ----<br>---- --- --- ----- --- ---- ---- ------- ----- ---- -------<br>--- --- -- ----- -- --- ---- -- --- ---- -- ------ ------<br>--- ----- -- ----,153035.5,153032.29999995232,152148.25,152155.09999990463,152164.916,153048.214,,6,lasting
screen,html.Screen,2_1_0_1_7,2022-02-01T14:05:44.523Z,,,,,,,,,,,,,,,,,53,,,,,,,,,,,,,,596.0859999523091,,response,,,,99,,,,,,,Space,keypress(Space),,,,,,,,---- -- ----- -- ------ - ------- and ----------<br>------------- ------ ------ ---- ---- ------- ----- -- ----<br>-------- ------- -- ---------- --- - --- ----- ----- ----<br>---- --- --- ----- --- ---- ---- ------- ----- ---- -------<br>--- --- -- ----- -- --- ---- -- --- ---- -- ------ ------<br>--- ----- -- ----,153647.70000004768,153644.29999995232,153031.548,153035.70000004768,153048.214,153664.856,,7,and
screen,html.Screen,2_1_0_1_8,2022-02-01T14:05:45.364Z,,,,,,,,,,,,,,,,,53,,,,,,,,,,,,,,820.844000047684,,response,,,,99,,,,,,,Space,keypress(Space),,,,,,,,---- -- ----- -- ------ - ------- --- fulfilling<br>------------- ------ ------ ---- ---- ------- ----- -- ----<br>-------- ------- -- ---------- --- - --- ----- ----- ----<br>---- --- --- ----- --- ---- ---- ------- ----- ---- -------<br>--- --- -- ----- -- --- ---- -- --- ---- -- ------ ------<br>--- ----- -- ----,154488.79999995232,154485.70000004768,153648.19,153648.09999990463,153664.856,154498.156,,8,fulfilling
screen,html.Screen,2_1_0_1_9,2022-02-01T14:05:46.950Z,,,,,,,,,,,,,,,,,53,,,,,,,,,,,,,,1573.0440000476956,,response,,,,99,,,,,,,Space,keypress(Space),,,,,,,,"---- -- ----- -- ------ - ------- --- ----------<br>relationship, ------ ------ ---- ---- ------- ----- -- ----<br>-------- ------- -- ---------- --- - --- ----- ----- ----<br>---- --- --- ----- --- ---- ---- ------- ----- ---- -------<br>--- --- -- ----- -- --- ---- -- --- ---- -- ------ ------<br>--- ----- -- ----",156074.70000004768,156071.20000004768,154481.49,154489.29999995232,154498.156,156081.426,,9,"relationship,"
screen,html.Screen,2_1_0_1_10,2022-02-01T14:05:47.647Z,,,,,,,,,,,,,,,,,53,,,,,,,,,,,,,,686.774000047677,,response,,,,99,,,,,,,Space,keypress(Space),,,,,,,,---- -- ----- -- ------ - ------- --- ----------<br>------------- common ------ ---- ---- ------- ----- -- ----<br>-------- ------- -- ---------- --- - --- ----- ----- ----<br>---- --- --- ----- --- ---- ---- ------- ----- ---- -------<br>--- --- -- ----- -- --- ---- -- --- ---- -- ------ ------<br>--- ----- -- ----,156771,156768.20000004768,156064.76,156074.89999985695,156081.426,156781.398,,10,common
screen,html.Screen,2_1_0_1_11,2022-02-01T14:05:48.358Z,,,,,,,,,,,,,,,,,53,,,,,,,,,,,,,,696.9019999523298,,response,,,,99,,,,,,,Space,keypress(Space),,,,,,,,---- -- ----- -- ------ - ------- --- ----------<br>------------- ------ wisdom ---- ---- ------- ----- -- ----<br>-------- ------- -- ---------- --- - --- ----- ----- ----<br>---- --- --- ----- --- ---- ---- ------- ----- ---- -------<br>--- --- -- ----- -- --- ---- -- --- ---- -- ------ ------<br>--- ----- -- ----,157482.09999990463,157478.29999995232,156764.732,156771.29999995232,156781.398,157498.612,,11,wisdom
screen,html.Screen,2_1_0_1_12,2022-02-01T14:05:49.262Z,,,,,,,,,,,,,,,,,53,,,,,,,,,,,,,,885.6879999523226,,response,,,,99,,,,,,,Space,keypress(Space),,,,,,,,---- -- ----- -- ------ - ------- --- ----------<br>------------- ------ ------ says ---- ------- ----- -- ----<br>-------- ------- -- ---------- --- - --- ----- ----- ----<br>---- --- --- ----- --- ---- ---- ------- ----- ---- -------<br>--- --- -- ----- -- --- ---- -- --- ---- -- ------ ------<br>--- ----- -- ----,158386.39999985695,158384.29999995232,157481.946,157482.39999985695,157498.612,158398.576,,12,says
screen,html.Screen,2_1_0_1_13,2022-02-01T14:05:49.921Z,,,,,,,,,,,,,,,,,53,,,,,,,,,,,,,,643.5239999046316,,response,,,,99,,,,,,,Space,keypress(Space),,,,,,,,---- -- ----- -- ------ - ------- --- ----------<br>------------- ------ ------ ---- that ------- ----- -- ----<br>-------- ------- -- ---------- --- - --- ----- ----- ----<br>---- --- --- ----- --- ---- ---- ------- ----- ---- -------<br>--- --- -- ----- -- --- ---- -- --- ---- -- ------ ------<br>--- ----- -- ----,159045.70000004768,159042.09999990463,158381.91,158386.59999990463,158398.576,159048.55,,13,that
screen,html.Screen,2_1_0_1_14,2022-02-01T14:05:50.612Z,,,,,,,,,,,,,,,,,53,,,,,,,,,,,,,,685.2499999523279,,response,,,,99,,,,,,,Space,keypress(Space),,,,,,,,---- -- ----- -- ------ - ------- --- ----------<br>------------- ------ ------ ---- ---- feeling ----- -- ----<br>-------- ------- -- ---------- --- - --- ----- ----- ----<br>---- --- --- ----- --- ---- ---- ------- ----- ---- -------<br>--- --- -- ----- -- --- ---- -- --- ---- -- ------ ------<br>--- ----- -- ----,159736.89999985695,159733.79999995232,159031.884,159046,159048.55,159748.522,,14,feeling
screen,html.Screen,2_1_0_1_15,2022-02-01T14:05:51.406Z,,,,,,,,,,,,,,,,,53,,,,,,,,,,,,,,778.1780000476865,,response,,,,99,,,,,,,Space,keypress(Space),,,,,,,,---- -- ----- -- ------ - ------- --- ----------<br>------------- ------ ------ ---- ---- ------- close -- ----<br>-------- ------- -- ---------- --- - --- ----- ----- ----<br>---- --- --- ----- --- ---- ---- ------- ----- ---- -------<br>--- --- -- ----- -- --- ---- -- --- ---- -- ------ ------<br>--- ----- -- ----,160530.5,160526.70000004768,159731.856,159737.59999990463,159748.522,160531.824,,15,close
screen,html.Screen,2_1_0_1_16,2022-02-01T14:05:51.898Z,,,,,,,,,,,,,,,,,53,,,,,,,,,,,,,,487.0759998569556,,response,,,,99,,,,,,,Space,keypress(Space),,,,,,,,---- -- ----- -- ------ - ------- --- ----------<br>------------- ------ ------ ---- ---- ------- ----- to ----<br>-------- ------- -- ---------- --- - --- ----- ----- ----<br>---- --- --- ----- --- ---- ---- ------- ----- ---- -------<br>--- --- -- ----- -- --- ---- -- --- ---- -- ------ ------<br>--- ----- -- ----,161022.59999990463,161018.89999985695,160515.158,160530.59999990463,160531.824,161031.804,,16,to
screen,html.Screen,2_1_0_1_17,2022-02-01T14:05:52.545Z,,,,,,,,,,,,,,,,,53,,,,,,,,,,,,,,633.7959999046288,,response,,,,99,,,,,,,Space,keypress(Space),,,,,,,,---- -- ----- -- ------ - ------- --- ----------<br>------------- ------ ------ ---- ---- ------- ----- -- your<br>-------- ------- -- ---------- --- - --- ----- ----- ----<br>---- --- --- ----- --- ---- ---- ------- ----- ---- -------<br>--- --- -- ----- -- --- ---- -- --- ---- -- ------ ------<br>--- ----- -- ----,161669.39999985695,161665.59999990463,161015.138,161022.89999985695,161031.804,161681.778,,17,your
screen,html.Screen,2_1_0_1_18,2022-02-01T14:05:53.361Z,,,,,,,,,,,,,,,,,53,,,,,,,,,,,,,,800.5219999523251,,response,,,,99,,,,,,,Space,keypress(Space),,,,,,,,---- -- ----- -- ------ - ------- --- ----------<br>------------- ------ ------ ---- ---- ------- ----- -- ----<br>romantic ------- -- ---------- --- - --- ----- ----- ----<br>---- --- --- ----- --- ---- ---- ------- ----- ---- -------<br>--- --- -- ----- -- --- ---- -- --- ---- -- ------ ------<br>--- ----- -- ----,162485.59999990463,162482.29999995232,161665.112,161669.59999990463,161681.778,162498.412,,18,romantic
screen,html.Screen,2_1_0_1_19,2022-02-01T14:05:54.160Z,,,,,,,,,,,,,,,,,53,,,,,,,,,,,,,,783.6879999046214,,response,,,,99,,,,,,,Space,keypress(Space),,,,,,,,---- -- ----- -- ------ - ------- --- ----------<br>------------- ------ ------ ---- ---- ------- ----- -- ----<br>-------- partner -- ---------- --- - --- ----- ----- ----<br>---- --- --- ----- --- ---- ---- ------- ----- ---- -------<br>--- --- -- ----- -- --- ---- -- --- ---- -- ------ ------<br>--- ----- -- ----,163284.89999985695,163282.09999990463,162481.746,162486,162498.412,163298.38,,19,partner
screen,html.Screen,2_1_0_1_20,2022-02-01T14:05:54.696Z,,,,,,,,,,,,,,,,,53,,,,,,,,,,,,,,518.9199999523116,,response,,,,99,,,,,,,Space,keypress(Space),,,,,,,,---- -- ----- -- ------ - ------- --- ----------<br>------------- ------ ------ ---- ---- ------- ----- -- ----<br>-------- ------- is ---------- --- - --- ----- ----- ----<br>---- --- --- ----- --- ---- ---- ------- ----- ---- -------<br>--- --- -- ----- -- --- ---- -- --- ---- -- ------ ------<br>--- ----- -- ----,163820.29999995232,163817.29999995232,163281.714,163285.09999990463,163298.38,163831.692,,20,is
screen,html.Screen,2_1_0_1_21,2022-02-01T14:05:55.889Z,,,,,,,,,,,,,,,,,53,,,,,,,,,,,,,,1178.9079999046226,,response,,,,99,,,,,,,Space,keypress(Space),,,,,,,,---- -- ----- -- ------ - ------- --- ----------<br>------------- ------ ------ ---- ---- ------- ----- -- ----<br>-------- ------- -- paramount. --- - --- ----- ----- ----<br>---- --- --- ----- --- ---- ---- ------- ----- ---- -------<br>--- --- -- ----- -- --- ---- -- --- ---- -- ------ ------<br>--- ----- -- ----,165014,165010.59999990463,163815.026,163820.79999995232,163831.692,165031.644,,21,paramount.
screen,html.Screen,2_1_0_1_22,2022-02-01T14:05:56.366Z,,,,,,,,,,,,,,,,,53,,,,,,,,,,,,,,456.2559998569486,,response,,,,99,,,,,,,Space,keypress(Space),,,,,,,,---- -- ----- -- ------ - ------- --- ----------<br>------------- ------ ------ ---- ---- ------- ----- -- ----<br>-------- ------- -- ---------- But - --- ----- ----- ----<br>---- --- --- ----- --- ---- ---- ------- ----- ---- -------<br>--- --- -- ----- -- --- ---- -- --- ---- -- ------ ------<br>--- ----- -- ----,165491.09999990463,165487.89999985695,165014.978,165014.29999995232,165031.644,165498.292,,22,But
screen,html.Screen,2_1_0_1_23,2022-02-01T14:05:56.774Z,,,,,,,,,,,,,,,,,53,,,,,,,,,,,,,,397.70800000001327,,response,,,,99,,,,,,,Space,keypress(Space),,,,,,,,---- -- ----- -- ------ - ------- --- ----------<br>------------- ------ ------ ---- ---- ------- ----- -- ----<br>-------- ------- -- ---------- --- a --- ----- ----- ----<br>---- --- --- ----- --- ---- ---- ------- ----- ---- -------<br>--- --- -- ----- -- --- ---- -- --- ---- -- ------ ------<br>--- ----- -- ----,165898.79999995232,165896,165481.626,165491.39999985695,165498.292,165914.942,,23,a
screen,html.Screen,2_1_0_1_24,2022-02-01T14:05:57.164Z,,,,,,,,,,,,,,,,,53,,,,,,,,,,,,,,371.2580000476737,,response,,,,99,,,,,,,Space,keypress(Space),,,,,,,,---- -- ----- -- ------ - ------- --- ----------<br>------------- ------ ------ ---- ---- ------- ----- -- ----<br>-------- ------- -- ---------- --- - new ----- ----- ----<br>---- --- --- ----- --- ---- ---- ------- ----- ---- -------<br>--- --- -- ----- -- --- ---- -- --- ---- -- ------ ------<br>--- ----- -- ----,166289.09999990463,166286.20000004768,165898.276,165899.20000004768,165914.942,166298.26,,24,new
screen,html.Screen,2_1_0_1_25,2022-02-01T14:05:57.602Z,,,,,,,,,,,,,,,,,53,,,,,,,,,,,,,,425.53999995230697,,response,,,,99,,,,,,,Space,keypress(Space),,,,,,,,---- -- ----- -- ------ - ------- --- ----------<br>------------- ------ ------ ---- ---- ------- ----- -- ----<br>-------- ------- -- ---------- --- - --- study ----- ----<br>---- --- --- ----- --- ---- ---- ------- ----- ---- -------<br>--- --- -- ----- -- --- ---- -- --- ---- -- ------ ------<br>--- ----- -- ----,166727,166723.79999995232,166281.594,166289.5,166298.26,166731.576,,25,study
screen,html.Screen,2_1_0_1_26,2022-02-01T14:05:58.191Z,,,,,,,,,,,,,,,,,53,,,,,,,,,,,,,,581.5239999046316,,response,,,,99,,,,,,,Space,keypress(Space),,,,,,,,---- -- ----- -- ------ - ------- --- ----------<br>------------- ------ ------ ---- ---- ------- ----- -- ----<br>-------- ------- -- ---------- --- - --- ----- finds ----<br>---- --- --- ----- --- ---- ---- ------- ----- ---- -------<br>--- --- -- ----- -- --- ---- -- --- ---- -- ------ ------<br>--- ----- -- ----,167316,167313.09999990463,166714.91,166727.20000004768,166731.576,167332.085,,26,finds
screen,html.Screen,2_1_0_1_27,2022-02-01T14:05:58.787Z,,,,,,,,,,,,,,,,,53,,,,,,,,,,,,,,575.1150000476919,,response,,,,99,,,,,,,Space,keypress(Space),,,,,,,,---- -- ----- -- ------ - ------- --- ----------<br>------------- ------ ------ ---- ---- ------- ----- -- ----<br>-------- ------- -- ---------- --- - --- ----- ----- that<br>---- --- --- ----- --- ---- ---- ------- ----- ---- -------<br>--- --- -- ----- -- --- ---- -- --- ---- -- ------ ------<br>--- ----- -- ----,167912.09999990463,167907.20000004768,167315.419,167316.5,167332.085,167915.395,,27,that
screen,html.Screen,2_1_0_1_28,2022-02-01T14:05:59.318Z,,,,,,,,,,,,,,,,,53,,,,,,,,,,,,,,524.3050000476942,,response,,,,99,,,,,,,Space,keypress(Space),,,,,,,,---- -- ----- -- ------ - ------- --- ----------<br>------------- ------ ------ ---- ---- ------- ----- -- ----<br>-------- ------- -- ---------- --- - --- ----- ----- ----<br>it's --- --- ----- --- ---- ---- ------- ----- ---- -------<br>--- --- -- ----- -- --- ---- -- --- ---- -- ------ ------<br>--- ----- -- ----,168443.09999990463,168439.70000004768,167898.729,167912.29999995232,167915.395,168448.707,,28,it's
screen,html.Screen,2_1_0_1_29,2022-02-01T14:05:59.946Z,,,,,,,,,,,,,,,,,53,,,,,,,,,,,,,,619.4930000476888,,response,,,,99,,,,,,,Space,keypress(Space),,,,,,,,---- -- ----- -- ------ - ------- --- ----------<br>------------- ------ ------ ---- ---- ------- ----- -- ----<br>-------- ------- -- ---------- --- - --- ----- ----- ----<br>---- not --- ----- --- ---- ---- ------- ----- ---- -------<br>--- --- -- ----- -- --- ---- -- --- ---- -- ------ ------<br>--- ----- -- ----,169071.29999995232,169068.20000004768,168432.041,168443.20000004768,168448.707,169082.015,,29,not
screen,html.Screen,2_1_0_1_30,2022-02-01T14:06:00.557Z,,,,,,,,,,,,,,,,,53,,,,,,,,,,,,,,597.5849999046186,,response,,,,99,,,,,,,Space,keypress(Space),,,,,,,,---- -- ----- -- ------ - ------- --- ----------<br>------------- ------ ------ ---- ---- ------- ----- -- ----<br>-------- ------- -- ---------- --- - --- ----- ----- ----<br>---- --- how ----- --- ---- ---- ------- ----- ---- -------<br>--- --- -- ----- -- --- ---- -- --- ---- -- ------ ------<br>--- ----- -- ----,169682.20000004768,169679.59999990463,169065.349,169071.39999985695,169082.015,169698.657,,30,how
screen,html.Screen,2_1_0_1_31,2022-02-01T14:06:01.099Z,,,,,,,,,,,,,,,,,53,,,,,,,,,,,,,,521.942999904626,,response,,,,99,,,,,,,Space,keypress(Space),,,,,,,,---- -- ----- -- ------ - ------- --- ----------<br>------------- ------ ------ ---- ---- ------- ----- -- ----<br>-------- ------- -- ---------- --- - --- ----- ----- ----<br>---- --- --- close --- ---- ---- ------- ----- ---- -------<br>--- --- -- ----- -- --- ---- -- --- ---- -- ------ ------<br>--- ----- -- ----,170224.29999995232,170220.59999990463,169681.991,169682.29999995232,169698.657,170231.969,,31,close
screen,html.Screen,2_1_0_1_32,2022-02-01T14:06:01.564Z,,,,,,,,,,,,,,,,,53,,,,,,,,,,,,,,453.430999856937,,response,,,,99,,,,,,,Space,keypress(Space),,,,,,,,---- -- ----- -- ------ - ------- --- ----------<br>------------- ------ ------ ---- ---- ------- ----- -- ----<br>-------- ------- -- ---------- --- - --- ----- ----- ----<br>---- --- --- ----- you ---- ---- ------- ----- ---- -------<br>--- --- -- ----- -- --- ---- -- --- ---- -- ------ ------<br>--- ----- -- ----,170688.79999995232,170685.39999985695,170215.303,170224.5,170231.969,170698.617,,32,you
screen,html.Screen,2_1_0_1_33,2022-02-01T14:06:02.043Z,,,,,,,,,,,,,,,,,53,,,,,,,,,,,,,,466.08300004768535,,response,,,,99,,,,,,,Space,keypress(Space),,,,,,,,---- -- ----- -- ------ - ------- --- ----------<br>------------- ------ ------ ---- ---- ------- ----- -- ----<br>-------- ------- -- ---------- --- - --- ----- ----- ----<br>---- --- --- ----- --- feel ---- ------- ----- ---- -------<br>--- --- -- ----- -- --- ---- -- --- ---- -- ------ ------<br>--- ----- -- ----,171167.89999985695,171164.70000004768,170681.951,170689.09999990463,170698.617,171181.931,,33,feel
screen,html.Screen,2_1_0_1_34,2022-02-01T14:06:02.542Z,,,,,,,,,,,,,,,,,53,,,,,,,,,,,,,,480.96899985693744,,response,,,,99,,,,,,,Space,keypress(Space),,,,,,,,---- -- ----- -- ------ - ------- --- ----------<br>------------- ------ ------ ---- ---- ------- ----- -- ----<br>-------- ------- -- ---------- --- - --- ----- ----- ----<br>---- --- --- ----- --- ---- that ------- ----- ---- -------<br>--- --- -- ----- -- --- ---- -- --- ---- -- ------ ------<br>--- ----- -- ----,171666.5,171662.89999985695,171165.265,171168.09999990463,171181.931,171681.911,,34,that
screen,html.Screen,2_1_0_1_35,2022-02-01T14:06:03.038Z,,,,,,,,,,,,,,,,,53,,,,,,,,,,,,,,477.28900004769093,,response,,,,99,,,,,,,Space,keypress(Space),,,,,,,,---- -- ----- -- ------ - ------- --- ----------<br>------------- ------ ------ ---- ---- ------- ----- -- ----<br>-------- ------- -- ---------- --- - --- ----- ----- ----<br>---- --- --- ----- --- ---- ---- matters ----- ---- -------<br>--- --- -- ----- -- --- ---- -- --- ---- -- ------ ------<br>--- ----- -- ----,172163,172159.20000004768,171665.245,171666.89999985695,171681.911,172165.225,,35,matters
screen,html.Screen,2_1_0_1_36,2022-02-01T14:06:03.706Z,,,,,,,,,,,,,,,,,53,,,,,,,,,,,,,,662.7749999999942,,response,,,,99,,,,,,,Space,keypress(Space),,,,,,,,"---- -- ----- -- ------ - ------- --- ----------<br>------------- ------ ------ ---- ---- ------- ----- -- ----<br>-------- ------- -- ---------- --- - --- ----- ----- ----<br>---- --- --- ----- --- ---- ---- ------- most, ---- -------<br>--- --- -- ----- -- --- ---- -- --- ---- -- ------ ------<br>--- ----- -- ----",172830.89999985695,172828,172148.559,172163.5,172165.225,172848.531,,36,"most,"
screen,html.Screen,2_1_0_1_37,2022-02-01T14:06:04.219Z,,,,,,,,,,,,,,,,,53,,,,,,,,,,,,,,491.76899995232816,,response,,,,99,,,,,,,Space,keypress(Space),,,,,,,,---- -- ----- -- ------ - ------- --- ----------<br>------------- ------ ------ ---- ---- ------- ----- -- ----<br>-------- ------- -- ---------- --- - --- ----- ----- ----<br>---- --- --- ----- --- ---- ---- ------- ----- it's -------<br>--- --- -- ----- -- --- ---- -- --- ---- -- ------ ------<br>--- ----- -- ----,173343.39999985695,173340.29999995232,172831.865,172831.20000004768,172848.531,173348.511,,37,it's
screen,html.Screen,2_1_0_1_38,2022-02-01T14:06:04.730Z,,,,,,,,,,,,,,,,,53,,,,,,,,,,,,,,503.08899990463397,,response,,,,99,,,,,,,Space,keypress(Space),,,,,,,,---- -- ----- -- ------ - ------- --- ----------<br>------------- ------ ------ ---- ---- ------- ----- -- ----<br>-------- ------- -- ---------- --- - --- ----- ----- ----<br>---- --- --- ----- --- ---- ---- ------- ----- ---- whether<br>--- --- -- ----- -- --- ---- -- --- ---- -- ------ ------<br>--- ----- -- ----,173854.89999985695,173851.59999990463,173331.845,173343.79999995232,173348.511,173865.157,,38,whether
screen,html.Screen,2_1_0_1_39,2022-02-01T14:06:05.178Z,,,,,,,,,,,,,,,,,53,,,,,,,,,,,,,,434.74299985694233,,response,,,,99,,,,,,,Space,keypress(Space),,,,,,,,---- -- ----- -- ------ - ------- --- ----------<br>------------- ------ ------ ---- ---- ------- ----- -- ----<br>-------- ------- -- ---------- --- - --- ----- ----- ----<br>---- --- --- ----- --- ---- ---- ------- ----- ---- -------<br>you --- -- ----- -- --- ---- -- --- ---- -- ------ ------<br>--- ----- -- ----,174303,174299.89999985695,173848.491,173855.20000004768,173865.157,174315.139,,39,you
screen,html.Screen,2_1_0_1_40,2022-02-01T14:06:05.621Z,,,,,,,,,,,,,,,,,53,,,,,,,,,,,,,,427.2609998569533,,response,,,,99,,,,,,,Space,keypress(Space),,,,,,,,---- -- ----- -- ------ - ------- --- ----------<br>------------- ------ ------ ---- ---- ------- ----- -- ----<br>-------- ------- -- ---------- --- - --- ----- ----- ----<br>---- --- --- ----- --- ---- ---- ------- ----- ---- -------<br>--- are -- ----- -- --- ---- -- --- ---- -- ------ ------<br>--- ----- -- ----,174746.29999995232,174742.39999985695,174298.473,174303.20000004768,174315.139,174748.455,,40,are
screen,html.Screen,2_1_0_1_41,2022-02-01T14:06:06.057Z,,,,,,,,,,,,,,,,,53,,,,,,,,,,,,,,430.5450000000128,,response,,,,99,,,,,,,Space,keypress(Space),,,,,,,,---- -- ----- -- ------ - ------- --- ----------<br>------------- ------ ------ ---- ---- ------- ----- -- ----<br>-------- ------- -- ---------- --- - --- ----- ----- ----<br>---- --- --- ----- --- ---- ---- ------- ----- ---- -------<br>--- --- as ----- -- --- ---- -- --- ---- -- ------ ------<br>--- ----- -- ----,175181.70000004768,175179,174731.789,174746.5,174748.455,175198.437,,41,as
screen,html.Screen,2_1_0_1_42,2022-02-01T14:06:06.522Z,,,,,,,,,,,,,,,,,53,,,,,,,,,,,,,,445.4629998569435,,response,,,,99,,,,,,,Space,keypress(Space),,,,,,,,---- -- ----- -- ------ - ------- --- ----------<br>------------- ------ ------ ---- ---- ------- ----- -- ----<br>-------- ------- -- ---------- --- - --- ----- ----- ----<br>---- --- --- ----- --- ---- ---- ------- ----- ---- -------<br>--- --- -- close -- --- ---- -- --- ---- -- ------ ------<br>--- ----- -- ----,175646.79999995232,175643.89999985695,175181.771,175181.79999995232,175198.437,175648.419,,42,close
screen,html.Screen,2_1_0_1_43,2022-02-01T14:06:06.983Z,,,,,,,,,,,,,,,,,53,,,,,,,,,,,,,,456.48099985695444,,response,,,,99,,,,,,,Space,keypress(Space),,,,,,,,---- -- ----- -- ------ - ------- --- ----------<br>------------- ------ ------ ---- ---- ------- ----- -- ----<br>-------- ------- -- ---------- --- - --- ----- ----- ----<br>---- --- --- ----- --- ---- ---- ------- ----- ---- -------<br>--- --- -- ----- as --- ---- -- --- ---- -- ------ ------<br>--- ----- -- ----,176108.20000004768,176104.89999985695,175631.753,175647.09999990463,175648.419,176115.067,,43,as
screen,html.Screen,2_1_0_1_44,2022-02-01T14:06:07.445Z,,,,,,,,,,,,,,,,,53,,,,,,,,,,,,,,451.7329999523063,,response,,,,99,,,,,,,Space,keypress(Space),,,,,,,,---- -- ----- -- ------ - ------- --- ----------<br>------------- ------ ------ ---- ---- ------- ----- -- ----<br>-------- ------- -- ---------- --- - --- ----- ----- ----<br>---- --- --- ----- --- ---- ---- ------- ----- ---- -------<br>--- --- -- ----- -- you ---- -- --- ---- -- ------ ------<br>--- ----- -- ----,176570.20000004768,176566.79999995232,176098.401,176108.29999995232,176115.067,176581.715,,44,you
screen,html.Screen,2_1_0_1_45,2022-02-01T14:06:07.922Z,,,,,,,,,,,,,,,,,53,,,,,,,,,,,,,,462.0849999523198,,response,,,,99,,,,,,,Space,keypress(Space),,,,,,,,---- -- ----- -- ------ - ------- --- ----------<br>------------- ------ ------ ---- ---- ------- ----- -- ----<br>-------- ------- -- ---------- --- - --- ----- ----- ----<br>---- --- --- ----- --- ---- ---- ------- ----- ---- -------<br>--- --- -- ----- -- --- want -- --- ---- -- ------ ------<br>--- ----- -- ----,177046.89999985695,177043.79999995232,176565.049,176570.5,176581.715,177048.363,,45,want
screen,html.Screen,2_1_0_1_46,2022-02-01T14:06:08.425Z,,,,,,,,,,,,,,,,,53,,,,,,,,,,,,,,498.03699985693675,,response,,,,99,,,,,,,Space,keypress(Space),,,,,,,,---- -- ----- -- ------ - ------- --- ----------<br>------------- ------ ------ ---- ---- ------- ----- -- ----<br>-------- ------- -- ---------- --- - --- ----- ----- ----<br>---- --- --- ----- --- ---- ---- ------- ----- ---- -------<br>--- --- -- ----- -- --- ---- to --- ---- -- ------ ------<br>--- ----- -- ----,177550,177546.39999985695,177031.697,177047.09999990463,177048.363,177565.587,,46,to
screen,html.Screen,2_1_0_1_47,2022-02-01T14:06:10.155Z,,,,,,,,,,,,,,,,,53,,,,,,,,,,,,,,1710.2129999523167,,response,,,,99,,,,,,,Space,keypress(Space),,,,,,,,"---- -- ----- -- ------ - ------- --- ----------<br>------------- ------ ------ ---- ---- ------- ----- -- ----<br>-------- ------- -- ---------- --- - --- ----- ----- ----<br>---- --- --- ----- --- ---- ---- ------- ----- ---- -------<br>--- --- -- ----- -- --- ---- -- be, ---- -- ------ ------<br>--- ----- -- ----",179279.59999990463,179275.79999995232,177548.921,177550.20000004768,177565.587,179282.185,,47,"be,"
screen,html.Screen,2_1_0_1_48,2022-02-01T14:06:10.583Z,,,,,,,,,,,,,,,,,53,,,,,,,,,,,,,,423.8150000000023,,response,,,,99,,,,,,,Space,keypress(Space),,,,,,,,---- -- ----- -- ------ - ------- --- ----------<br>------------- ------ ------ ---- ---- ------- ----- -- ----<br>-------- ------- -- ---------- --- - --- ----- ----- ----<br>---- --- --- ----- --- ---- ---- ------- ----- ---- -------<br>--- --- -- ----- -- --- ---- -- --- even -- ------ ------<br>--- ----- -- ----,179708.09999990463,179706,179265.519,179279.79999995232,179282.185,179715.501,,48,even
screen,html.Screen,2_1_0_1_49,2022-02-01T14:06:10.980Z,,,,,,,,,,,,,,,,,53,,,,,,,,,,,,,,386.39899985695956,,response,,,,99,,,,,,,Space,keypress(Space),,,,,,,,---- -- ----- -- ------ - ------- --- ----------<br>------------- ------ ------ ---- ---- ------- ----- -- ----<br>-------- ------- -- ---------- --- - --- ----- ----- ----<br>---- --- --- ----- --- ---- ---- ------- ----- ---- -------<br>--- --- -- ----- -- --- ---- -- --- ---- if ------ ------<br>--- ----- -- ----,180105.29999995232,180101.89999985695,179698.835,179708.20000004768,179715.501,180115.485,,49,if
screen,html.Screen,2_1_0_1_50,2022-02-01T14:06:11.382Z,,,,,,,,,,,,,,,,,53,,,,,,,,,,,,,,388.4149998569628,,response,,,,99,,,,,,,Space,keypress(Space),,,,,,,,---- -- ----- -- ------ - ------- --- ----------<br>------------- ------ ------ ---- ---- ------- ----- -- ----<br>-------- ------- -- ---------- --- - --- ----- ----- ----<br>---- --- --- ----- --- ---- ---- ------- ----- ---- -------<br>--- --- -- ----- -- --- ---- -- --- ---- -- that's ------<br>--- ----- -- ----,180507.20000004768,180503.89999985695,180098.819,180105.39999985695,180115.485,180515.469,,50,that's
screen,html.Screen,2_1_0_1_51,2022-02-01T14:06:11.799Z,,,,,,,,,,,,,,,,,53,,,,,,,,,,,,,,406.8309999523044,,response,,,,99,,,,,,,Space,keypress(Space),,,,,,,,---- -- ----- -- ------ - ------- --- ----------<br>------------- ------ ------ ---- ---- ------- ----- -- ----<br>-------- ------- -- ---------- --- - --- ----- ----- ----<br>---- --- --- ----- --- ---- ---- ------- ----- ---- -------<br>--- --- -- ----- -- --- ---- -- --- ---- -- ------ really<br>--- ----- -- ----,180923.70000004768,180922.29999995232,180498.803,180507.59999990463,180515.469,180932.119,,51,really
screen,html.Screen,2_1_0_1_52,2022-02-01T14:06:12.252Z,,,,,,,,,,,,,,,,,53,,,,,,,,,,,,,,440.08100004767766,,response,,,,99,,,,,,,Space,keypress(Space),,,,,,,,---- -- ----- -- ------ - ------- --- ----------<br>------------- ------ ------ ---- ---- ------- ----- -- ----<br>-------- ------- -- ---------- --- - --- ----- ----- ----<br>---- --- --- ----- --- ---- ---- ------- ----- ---- -------<br>--- --- -- ----- -- --- ---- -- --- ---- -- ------ ------<br>not ----- -- ----,181377,181372.20000004768,180915.453,180923.79999995232,180932.119,181382.101,,52,not
screen,html.Screen,2_1_0_1_53,2022-02-01T14:06:12.664Z,,,,,,,,,,,,,,,,,53,,,,,,,,,,,,,,403.0990000476886,,response,,,,99,,,,,,,Space,keypress(Space),,,,,,,,---- -- ----- -- ------ - ------- --- ----------<br>------------- ------ ------ ---- ---- ------- ----- -- ----<br>-------- ------- -- ---------- --- - --- ----- ----- ----<br>---- --- --- ----- --- ---- ---- ------- ----- ---- -------<br>--- --- -- ----- -- --- ---- -- --- ---- -- ------ ------<br>--- close -- ----,181788.59999990463,181785.20000004768,181365.435,181377.09999990463,181382.101,181798.751,,53,close
screen,html.Screen,2_1_0_1_54,2022-02-01T14:06:13.088Z,,,,,,,,,,,,,,,,,53,,,,,,,,,,,,,,411.64899985695956,,response,,,,99,,,,,,,Space,keypress(Space),,,,,,,,---- -- ----- -- ------ - ------- --- ----------<br>------------- ------ ------ ---- ---- ------- ----- -- ----<br>-------- ------- -- ---------- --- - --- ----- ----- ----<br>---- --- --- ----- --- ---- ---- ------- ----- ---- -------<br>--- --- -- ----- -- --- ---- -- --- ---- -- ------ ------<br>--- ----- at ----,182213.39999985695,182210.39999985695,181782.085,181789.09999990463,181798.751,182215.401,,54,at
screen,html.Screen,2_1_0_1_55,2022-02-01T14:06:16.936Z,,,,,,,,,,,,,,,,,53,,,,,,,,,,,,,,3840.69899990462,,response,,,,99,,,,,,,Space,keypress(Space),,,,,,,,---- -- ----- -- ------ - ------- --- ----------<br>------------- ------ ------ ---- ---- ------- ----- -- ----<br>-------- ------- -- ---------- --- - --- ----- ----- ----<br>---- --- --- ----- --- ---- ---- ------- ----- ---- -------<br>--- --- -- ----- -- --- ---- -- --- ---- -- ------ ------<br>--- ----- -- all.,186061,186056.09999990463,182198.735,182213.59999990463,182215.401,186065.247,,55,all.
Item 99,flow.Loop,2_1_0_1,2022-02-01T14:06:16.936Z,,,,,,,,,,,,,,,,,,,,,,,,,,,,,,,40208.22899990462,,completion,,,,,E,,,,,,,,,,,silence,,,,,186061.39999985695,186056.09999990463,145814.539,145817.79999995232,145847.871,186065.247,,,
Question 1,html.Screen,2_1_0_2,2022-02-01T14:06:24.407Z,,,,,,,,,,,,,,,,,,,,,,,,,,,,true,FALSE,,7463.052999952313,,response,,,,99,E,,,,,,FALSE,click #choice-2,,,,silence,,,,,193532,193528.29999995232,186048.581,186061.5,186065.247,193532.16,,,
Question 2,html.Screen,2_1_0_3,2022-02-01T14:06:30.252Z,,,,,,,,,,,,,,,,,,,,,,,,,,,,true,TRUE,,5840.04000004768,,response,,,,99,E,,,,,,TRUE,click #choice-1,,,,silence,,,,,199377.59999990463,199372.20000004768,193515.494,193532.09999990463,193532.16,199382.553,,,
Item 99,flow.Sequence,2_1_0,2022-02-01T14:06:30.254Z,,,,,,,,,,,,,,,,,,,,,,,,,,,,,,,63542.68200004767,,completion,,,,,,,,,,,,,,,,,,,,,199378.89999985695,199372.20000004768,135812.852,135828.5,135829.518,199382.553,,,
Holding screen,html.Screen,2_1_1_0,2022-02-01T14:06:40.241Z,,,,,,,,,,,,,,,,,,,,,,,,,,,,,,,9999.599999999977,,timeout,,,,,,,,,,,,,,,,,,,,,209367,209365.487,199365.887,199379.29999995232,199382.553,209382.153,,,
screen,html.Screen,2_1_1_1_0,2022-02-01T14:06:41.232Z,,,,,,,,,,,,,,,,,54,,,,,,,,,,,,,,971.6469999523251,,response,,,,100,,,,,,,Space,keypress(Space),,,,,,,,At --- ---- --- ------ ----- ------- ---- -- --- ------- --<br>------- ---------- ------ -- ----- -- ----- -- ---- ------<br>--- ----- --- --- ------ -------- ----- --- ------ ----- --<br>----- ----- ---------- --- --- ------ ------ ---- -- ------<br>------- --- ------ ----- --- ---- ------- -- ---- --- --<br>------- ------,210357.39999985695,210353.79999995232,209365.487,209367.09999990463,209382.153,210366.006,,0,At
screen,html.Screen,2_1_1_1_1,2022-02-01T14:06:41.865Z,,,,,,,,,,,,,,,,,54,,,,,,,,,,,,,,621.994000000006,,response,,,,100,,,,,,,Space,keypress(Space),,,,,,,,-- the ---- --- ------ ----- ------- ---- -- --- ------- --<br>------- ---------- ------ -- ----- -- ----- -- ---- ------<br>--- ----- --- --- ------ -------- ----- --- ------ ----- --<br>----- ----- ---------- --- --- ------ ------ ---- -- ------<br>------- --- ------ ----- --- ---- ------- -- ---- --- --<br>------- ------,210991.09999990463,210988,210349.34,210357.5,210366.006,210999.314,,1,the
screen,html.Screen,2_1_1_1_2,2022-02-01T14:06:42.455Z,,,,,,,,,,,,,,,,,54,,,,,,,,,,,,,,578.4859999523032,,response,,,,100,,,,,,,Space,keypress(Space),,,,,,,,-- --- time --- ------ ----- ------- ---- -- --- ------- --<br>------- ---------- ------ -- ----- -- ----- -- ---- ------<br>--- ----- --- --- ------ -------- ----- --- ------ ----- --<br>----- ----- ---------- --- --- ------ ------ ---- -- ------<br>------- --- ------ ----- --- ---- ------- -- ---- --- --<br>------- ------,211581.09999990463,211577.79999995232,210982.648,210991.39999985695,210999.314,211582.624,,2,time
screen,html.Screen,2_1_1_1_3,2022-02-01T14:06:43.163Z,,,,,,,,,,,,,,,,,54,,,,,,,,,,,,,,703.3759999999893,,response,,,,100,,,,,,,Space,keypress(Space),,,,,,,,-- --- ---- the ------ ----- ------- ---- -- --- ------- --<br>------- ---------- ------ -- ----- -- ----- -- ---- ------<br>--- ----- --- --- ------ -------- ----- --- ------ ----- --<br>----- ----- ---------- --- --- ------ ------ ---- -- ------<br>------- --- ------ ----- --- ---- ------- -- ---- --- --<br>------- ------,212288.39999985695,212286,211565.958,211581.29999995232,211582.624,212299.262,,3,the
screen,html.Screen,2_1_1_1_4,2022-02-01T14:06:43.826Z,,,,,,,,,,,,,,,,,54,,,,,,,,,,,,,,648.4380000476958,,response,,,,100,,,,,,,Space,keypress(Space),,,,,,,,-- --- ---- --- French ----- ------- ---- -- --- ------- --<br>------- ---------- ------ -- ----- -- ----- -- ---- ------<br>--- ----- --- --- ------ -------- ----- --- ------ ----- --<br>----- ----- ---------- --- --- ------ ------ ---- -- ------<br>------- --- ------ ----- --- ---- ------- -- ---- --- --<br>------- ------,212951.20000004768,212947.70000004768,212282.596,212288.70000004768,212299.262,212965.902,,4,French
screen,html.Screen,2_1_1_1_5,2022-02-01T14:06:44.328Z,,,,,,,,,,,,,,,,,54,,,,,,,,,,,,,,485.1979999046307,,response,,,,100,,,,,,,Space,keypress(Space),,,,,,,,-- --- ---- --- ------ crown ------- ---- -- --- ------- --<br>------- ---------- ------ -- ----- -- ----- -- ---- ------<br>--- ----- --- --- ------ -------- ----- --- ------ ----- --<br>----- ----- ---------- --- --- ------ ------ ---- -- ------<br>------- --- ------ ----- --- ---- ------- -- ---- --- --<br>------- ------,213454,213451.09999990463,212949.236,212951.5,212965.902,213465.882,,5,crown
screen,html.Screen,2_1_1_1_6,2022-02-01T14:06:44.865Z,,,,,,,,,,,,,,,,,54,,,,,,,,,,,,,,521.5179998569365,,response,,,,100,,,,,,,Space,keypress(Space),,,,,,,,-- --- ---- --- ------ ----- secured ---- -- --- ------- --<br>------- ---------- ------ -- ----- -- ----- -- ---- ------<br>--- ----- --- --- ------ -------- ----- --- ------ ----- --<br>----- ----- ---------- --- --- ------ ------ ---- -- ------<br>------- --- ------ ----- --- ---- ------- -- ---- --- --<br>------- ------,213990.29999995232,213987.39999985695,213449.216,213454.09999990463,213465.882,213999.194,,6,secured
screen,html.Screen,2_1_1_1_7,2022-02-01T14:06:45.383Z,,,,,,,,,,,,,,,,,54,,,,,,,,,,,,,,506.6059999523277,,response,,,,100,,,,,,,Space,keypress(Space),,,,,,,,-- --- ---- --- ------ ----- ------- much -- --- ------- --<br>------- ---------- ------ -- ----- -- ----- -- ---- ------<br>--- ----- --- --- ------ -------- ----- --- ------ ----- --<br>----- ----- ---------- --- --- ------ ------ ---- -- ------<br>------- --- ------ ----- --- ---- ------- -- ---- --- --<br>------- ------,214508.5,214505.79999995232,213982.528,213990.70000004768,213999.194,214515.84,,7,much
screen,html.Screen,2_1_1_1_8,2022-02-01T14:06:45.858Z,,,,,,,,,,,,,,,,,54,,,,,,,,,,,,,,465.1600000000035,,response,,,,100,,,,,,,Space,keypress(Space),,,,,,,,-- --- ---- --- ------ ----- ------- ---- of --- ------- --<br>------- ---------- ------ -- ----- -- ----- -- ---- ------<br>--- ----- --- --- ------ -------- ----- --- ------ ----- --<br>----- ----- ---------- --- --- ------ ------ ---- -- ------<br>------- --- ------ ----- --- ---- ------- -- ---- --- --<br>------- ------,214983.59999990463,214981,214499.174,214508.70000004768,214515.84,214999.154,,8,of
screen,html.Screen,2_1_1_1_9,2022-02-01T14:06:46.308Z,,,,,,,,,,,,,,,,,54,,,,,,,,,,,,,,430.7459998569393,,response,,,,100,,,,,,,Space,keypress(Space),,,,,,,,-- --- ---- --- ------ ----- ------- ---- -- its ------- --<br>------- ---------- ------ -- ----- -- ----- -- ---- ------<br>--- ----- --- --- ------ -------- ----- --- ------ ----- --<br>----- ----- ---------- --- --- ------ ------ ---- -- ------<br>------- --- ------ ----- --- ---- ------- -- ---- --- --<br>------- ------,215433.29999995232,215429.89999985695,214982.488,214983.79999995232,214999.154,215449.136,,9,its
screen,html.Screen,2_1_1_1_10,2022-02-01T14:06:47.036Z,,,,,,,,,,,,,,,,,54,,,,,,,,,,,,,,708.963999904634,,response,,,,100,,,,,,,Space,keypress(Space),,,,,,,,-- --- ---- --- ------ ----- ------- ---- -- --- revenue --<br>------- ---------- ------ -- ----- -- ----- -- ---- ------<br>--- ----- --- --- ------ -------- ----- --- ------ ----- --<br>----- ----- ---------- --- --- ------ ------ ---- -- ------<br>------- --- ------ ----- --- ---- ------- -- ---- --- --<br>------- ------,216161.5,216158.09999990463,215432.47,215433.5,215449.136,216165.774,,10,revenue
screen,html.Screen,2_1_1_1_11,2022-02-01T14:06:47.545Z,,,,,,,,,,,,,,,,,54,,,,,,,,,,,,,,501.8259999046277,,response,,,,100,,,,,,,Space,keypress(Space),,,,,,,,-- --- ---- --- ------ ----- ------- ---- -- --- ------- by<br>------- ---------- ------ -- ----- -- ----- -- ---- ------<br>--- ----- --- --- ------ -------- ----- --- ------ ----- --<br>----- ----- ---------- --- --- ------ ------ ---- -- ------<br>------- --- ------ ----- --- ---- ------- -- ---- --- --<br>------- ------,216670.29999995232,216667.59999990463,216149.108,216161.89999985695,216165.774,216682.42,,11,by
screen,html.Screen,2_1_1_1_12,2022-02-01T14:06:48.325Z,,,,,,,,,,,,,,,,,54,,,,,,,,,,,,,,765.6799999046198,,response,,,,100,,,,,,,Space,keypress(Space),,,,,,,,-- --- ---- --- ------ ----- ------- ---- -- --- ------- --<br>issuing ---------- ------ -- ----- -- ----- -- ---- ------<br>--- ----- --- --- ------ -------- ----- --- ------ ----- --<br>----- ----- ---------- --- --- ------ ------ ---- -- ------<br>------- --- ------ ----- --- ---- ------- -- ---- --- --<br>------- ------,217450.59999990463,217448.09999990463,216665.754,216670.39999985695,216682.42,217465.722,,12,issuing
screen,html.Screen,2_1_1_1_13,2022-02-01T14:06:48.969Z,,,,,,,,,,,,,,,,,54,,,,,,,,,,,,,,625.67799985694,,response,,,,100,,,,,,,Space,keypress(Space),,,,,,,,-- --- ---- --- ------ ----- ------- ---- -- --- ------- --<br>------- government ------ -- ----- -- ----- -- ---- ------<br>--- ----- --- --- ------ -------- ----- --- ------ ----- --<br>----- ----- ---------- --- --- ------ ------ ---- -- ------<br>------- --- ------ ----- --- ---- ------- -- ---- --- --<br>------- ------,218094.70000004768,218091.39999985695,217449.056,217451,217465.722,218099.03,,13,government
screen,html.Screen,2_1_1_1_14,2022-02-01T14:06:51.259Z,,,,,,,,,,,,,,,,,54,,,,,,,,,,,,,,2282.470000000001,,response,,,,100,,,,,,,Space,keypress(Space),,,,,,,,-- --- ---- --- ------ ----- ------- ---- -- --- ------- --<br>------- ---------- bonds. -- ----- -- ----- -- ---- ------<br>--- ----- --- --- ------ -------- ----- --- ------ ----- --<br>----- ----- ---------- --- --- ------ ------ ---- -- ------<br>------- --- ------ ----- --- ---- ------- -- ---- --- --<br>------- ------,220384.5,220381.5,218082.364,218095,218099.03,220398.938,,14,bonds.
screen,html.Screen,2_1_1_1_15,2022-02-01T14:06:51.661Z,,,,,,,,,,,,,,,,,54,,,,,,,,,,,,,,385.26200004768907,,response,,,,100,,,,,,,Space,keypress(Space),,,,,,,,-- --- ---- --- ------ ----- ------- ---- -- --- ------- --<br>------- ---------- ------ In ----- -- ----- -- ---- ------<br>--- ----- --- --- ------ -------- ----- --- ------ ----- --<br>----- ----- ---------- --- --- ------ ------ ---- -- ------<br>------- --- ------ ----- --- ---- ------- -- ---- --- --<br>------- ------,220787.20000004768,220784.20000004768,220382.272,220384.59999990463,220398.938,220798.922,,15,In
screen,html.Screen,2_1_1_1_16,2022-02-01T14:06:52.069Z,,,,,,,,,,,,,,,,,54,,,,,,,,,,,,,,392.6779999046412,,response,,,,100,,,,,,,Space,keypress(Space),,,,,,,,"-- --- ---- --- ------ ----- ------- ---- -- --- ------- --<br>------- ---------- ------ -- 1727, -- ----- -- ---- ------<br>--- ----- --- --- ------ -------- ----- --- ------ ----- --<br>----- ----- ---------- --- --- ------ ------ ---- -- ------<br>------- --- ------ ----- --- ---- ------- -- ---- --- --<br>------- ------",221195,221191.59999990463,220782.256,220787.5,220798.922,221199.636,,16,"1727,"
screen,html.Screen,2_1_1_1_17,2022-02-01T14:06:53.480Z,,,,,,,,,,,,,,,,,54,,,,,,,,,,,,,,1402.463999904634,,response,,,,100,,,,,,,Space,keypress(Space),,,,,,,,-- --- ---- --- ------ ----- ------- ---- -- --- ------- --<br>------- ---------- ------ -- ----- in ----- -- ---- ------<br>--- ----- --- --- ------ -------- ----- --- ------ ----- --<br>----- ----- ---------- --- --- ------ ------ ---- -- ------<br>------- --- ------ ----- --- ---- ------- -- ---- --- --<br>------- ------,222605.29999995232,222602.09999990463,221182.97,221195.29999995232,221199.636,222616.246,,17,in
screen,html.Screen,2_1_1_1_18,2022-02-01T14:06:53.948Z,,,,,,,,,,,,,,,,,54,,,,,,,,,,,,,,454.6539998569351,,response,,,,100,,,,,,,Space,keypress(Space),,,,,,,,-- --- ---- --- ------ ----- ------- ---- -- --- ------- --<br>------- ---------- ------ -- ----- -- order -- ---- ------<br>--- ----- --- --- ------ -------- ----- --- ------ ----- --<br>----- ----- ---------- --- --- ------ ------ ---- -- ------<br>------- --- ------ ----- --- ---- ------- -- ---- --- --<br>------- ------,223074,223070.89999985695,222599.58,222605.59999990463,222616.246,223082.894,,18,order
screen,html.Screen,2_1_1_1_19,2022-02-01T14:06:54.361Z,,,,,,,,,,,,,,,,,54,,,,,,,,,,,,,,401.5059998569486,,response,,,,100,,,,,,,Space,keypress(Space),,,,,,,,-- --- ---- --- ------ ----- ------- ---- -- --- ------- --<br>------- ---------- ------ -- ----- -- ----- to ---- ------<br>--- ----- --- --- ------ -------- ----- --- ------ ----- --<br>----- ----- ---------- --- --- ------ ------ ---- -- ------<br>------- --- ------ ----- --- ---- ------- -- ---- --- --<br>------- ------,223486.79999995232,223484.39999985695,223066.228,223074.09999990463,223082.894,223499.544,,19,to
screen,html.Screen,2_1_1_1_20,2022-02-01T14:06:54.717Z,,,,,,,,,,,,,,,,,54,,,,,,,,,,,,,,339.7559999523219,,response,,,,100,,,,,,,Space,keypress(Space),,,,,,,,-- --- ---- --- ------ ----- ------- ---- -- --- ------- --<br>------- ---------- ------ -- ----- -- ----- -- save ------<br>--- ----- --- --- ------ -------- ----- --- ------ ----- --<br>----- ----- ---------- --- --- ------ ------ ---- -- ------<br>------- --- ------ ----- --- ---- ------- -- ---- --- --<br>------- ------,223842.59999990463,223839.29999995232,223482.878,223487.09999990463,223499.544,223849.53,,20,save
screen,html.Screen,2_1_1_1_21,2022-02-01T14:06:55.139Z,,,,,,,,,,,,,,,,,54,,,,,,,,,,,,,,411.6700000476849,,response,,,,100,,,,,,,Space,keypress(Space),,,,,,,,"-- --- ---- --- ------ ----- ------- ---- -- --- ------- --<br>------- ---------- ------ -- ----- -- ----- -- ---- money,<br>--- ----- --- --- ------ -------- ----- --- ------ ----- --<br>----- ----- ---------- --- --- ------ ------ ---- -- ------<br>------- --- ------ ----- --- ---- ------- -- ---- --- --<br>------- ------",224264.59999990463,224261.20000004768,223832.864,223843,223849.53,224266.18,,21,"money,"
screen,html.Screen,2_1_1_1_22,2022-02-01T14:06:55.557Z,,,,,,,,,,,,,,,,,54,,,,,,,,,,,,,,413.61999995232327,,response,,,,100,,,,,,,Space,keypress(Space),,,,,,,,-- --- ---- --- ------ ----- ------- ---- -- --- ------- --<br>------- ---------- ------ -- ----- -- ----- -- ---- ------<br>the ----- --- --- ------ -------- ----- --- ------ ----- --<br>----- ----- ---------- --- --- ------ ------ ---- -- ------<br>------- --- ------ ----- --- ---- ------- -- ---- --- --<br>------- ------,224682.89999985695,224679.79999995232,224249.514,224265,224266.18,224699.496,,22,the
screen,html.Screen,2_1_1_1_23,2022-02-01T14:06:55.925Z,,,,,,,,,,,,,,,,,54,,,,,,,,,,,,,,348.10399990461883,,response,,,,100,,,,,,,Space,keypress(Space),,,,,,,,-- --- ---- --- ------ ----- ------- ---- -- --- ------- --<br>------- ---------- ------ -- ----- -- ----- -- ---- ------<br>--- state --- --- ------ -------- ----- --- ------ ----- --<br>----- ----- ---------- --- --- ------ ------ ---- -- ------<br>------- --- ------ ----- --- ---- ------- -- ---- --- --<br>------- ------,225050.39999985695,225047.59999990463,224682.83,224683.09999990463,224699.496,225066.148,,23,state
screen,html.Screen,2_1_1_1_24,2022-02-01T14:06:56.308Z,,,,,,,,,,,,,,,,,54,,,,,,,,,,,,,,364.4519999046461,,response,,,,100,,,,,,,Space,keypress(Space),,,,,,,,-- --- ---- --- ------ ----- ------- ---- -- --- ------- --<br>------- ---------- ------ -- ----- -- ----- -- ---- ------<br>--- ----- cut --- ------ -------- ----- --- ------ ----- --<br>----- ----- ---------- --- --- ------ ------ ---- -- ------<br>------- --- ------ ----- --- ---- ------- -- ---- --- --<br>------- ------,225433.79999995232,225430.59999990463,225049.482,225050.70000004768,225066.148,225449.466,,24,cut
screen,html.Screen,2_1_1_1_25,2022-02-01T14:06:56.703Z,,,,,,,,,,,,,,,,,54,,,,,,,,,,,,,,375.3339999523305,,response,,,,100,,,,,,,Space,keypress(Space),,,,,,,,-- --- ---- --- ------ ----- ------- ---- -- --- ------- --<br>------- ---------- ------ -- ----- -- ----- -- ---- ------<br>--- ----- --- the ------ -------- ----- --- ------ ----- --<br>----- ----- ---------- --- --- ------ ------ ---- -- ------<br>------- --- ------ ----- --- ---- ------- -- ---- --- --<br>------- ------,225828.39999985695,225824.79999995232,225432.8,225434,225449.466,225832.784,,25,the
screen,html.Screen,2_1_1_1_26,2022-02-01T14:06:57.112Z,,,,,,,,,,,,,,,,,54,,,,,,,,,,,,,,401.81599990461837,,response,,,,100,,,,,,,Space,keypress(Space),,,,,,,,-- --- ---- --- ------ ----- ------- ---- -- --- ------- --<br>------- ---------- ------ -- ----- -- ----- -- ---- ------<br>--- ----- --- --- bonds' -------- ----- --- ------ ----- --<br>----- ----- ---------- --- --- ------ ------ ---- -- ------<br>------- --- ------ ----- --- ---- ------- -- ---- --- --<br>------- ------,226237.89999985695,226234.59999990463,225816.118,225828.70000004768,225832.784,226249.434,,26,bonds'
screen,html.Screen,2_1_1_1_27,2022-02-01T14:06:57.656Z,,,,,,,,,,,,,,,,,54,,,,,,,,,,,,,,528.9659998569405,,response,,,,100,,,,,,,Space,keypress(Space),,,,,,,,-- --- ---- --- ------ ----- ------- ---- -- --- ------- --<br>------- ---------- ------ -- ----- -- ----- -- ---- ------<br>--- ----- --- --- ------ interest ----- --- ------ ----- --<br>----- ----- ---------- --- --- ------ ------ ---- -- ------<br>------- --- ------ ----- --- ---- ------- -- ---- --- --<br>------- ------,226782.09999990463,226778.39999985695,226232.768,226238.29999995232,226249.434,226799.412,,27,interest
screen,html.Screen,2_1_1_1_28,2022-02-01T14:06:58.217Z,,,,,,,,,,,,,,,,,54,,,,,,,,,,,,,,539.9879998569377,,response,,,,100,,,,,,,Space,keypress(Space),,,,,,,,-- --- ---- --- ------ ----- ------- ---- -- --- ------- --<br>------- ---------- ------ -- ----- -- ----- -- ---- ------<br>--- ----- --- --- ------ -------- rate. --- ------ ----- --<br>----- ----- ---------- --- --- ------ ------ ---- -- ------<br>------- --- ------ ----- --- ---- ------- -- ---- --- --<br>------- ------,227342.5,227339.39999985695,226782.746,226782.39999985695,226799.412,227349.39,,28,rate.
screen,html.Screen,2_1_1_1_29,2022-02-01T14:07:00.055Z,,,,,,,,,,,,,,,,,54,,,,,,,,,,,,,,1828.3100000476697,,response,,,,100,,,,,,,Space,keypress(Space),,,,,,,,-- --- ---- --- ------ ----- ------- ---- -- --- ------- --<br>------- ---------- ------ -- ----- -- ----- -- ---- ------<br>--- ----- --- --- ------ -------- ----- The ------ ----- --<br>----- ----- ---------- --- --- ------ ------ ---- -- ------<br>------- --- ------ ----- --- ---- ------- -- ---- --- --<br>------- ------,229180.70000004768,229177.70000004768,227332.724,227342.79999995232,227349.39,229182.65,,29,The
screen,html.Screen,2_1_1_1_30,2022-02-01T14:07:00.474Z,,,,,,,,,,,,,,,,,54,,,,,,,,,,,,,,414.2499998569547,,response,,,,100,,,,,,,Space,keypress(Space),,,,,,,,-- --- ---- --- ------ ----- ------- ---- -- --- ------- --<br>------- ---------- ------ -- ----- -- ----- -- ---- ------<br>--- ----- --- --- ------ -------- ----- --- market ----- --<br>----- ----- ---------- --- --- ------ ------ ---- -- ------<br>------- --- ------ ----- --- ---- ------- -- ---- --- --<br>------- ------,229600.29999995232,229596.89999985695,229165.984,229180.89999985695,229182.65,229615.966,,30,market
screen,html.Screen,2_1_1_1_31,2022-02-01T14:07:00.825Z,,,,,,,,,,,,,,,,,54,,,,,,,,,,,,,,332.0340000000142,,response,,,,100,,,,,,,Space,keypress(Space),,,,,,,,-- --- ---- --- ------ ----- ------- ---- -- --- ------- --<br>------- ---------- ------ -- ----- -- ----- -- ---- ------<br>--- ----- --- --- ------ -------- ----- --- ------ value --<br>----- ----- ---------- --- --- ------ ------ ---- -- ------<br>------- --- ------ ----- --- ---- ------- -- ---- --- --<br>------- ------,229951.39999985695,229948,229599.3,229600.39999985695,229615.966,229965.952,,31,value
screen,html.Screen,2_1_1_1_32,2022-02-01T14:07:01.233Z,,,,,,,,,,,,,,,,,54,,,,,,,,,,,,,,390.84799995232606,,response,,,,100,,,,,,,Space,keypress(Space),,,,,,,,-- --- ---- --- ------ ----- ------- ---- -- --- ------- --<br>------- ---------- ------ -- ----- -- ----- -- ---- ------<br>--- ----- --- --- ------ -------- ----- --- ------ ----- of<br>----- ----- ---------- --- --- ------ ------ ---- -- ------<br>------- --- ------ ----- --- ---- ------- -- ---- --- --<br>------- ------,230359.29999995232,230356.79999995232,229949.286,229951.70000004768,229965.952,230365.936,,32,of
screen,html.Screen,2_1_1_1_33,2022-02-01T14:07:01.654Z,,,,,,,,,,,,,,,,,54,,,,,,,,,,,,,,410.4639998569619,,response,,,,100,,,,,,,Space,keypress(Space),,,,,,,,-- --- ---- --- ------ ----- ------- ---- -- --- ------- --<br>------- ---------- ------ -- ----- -- ----- -- ---- ------<br>--- ----- --- --- ------ -------- ----- --- ------ ----- --<br>these ----- ---------- --- --- ------ ------ ---- -- ------<br>------- --- ------ ----- --- ---- ------- -- ---- --- --<br>------- ------,230779.70000004768,230776.39999985695,230349.27,230359.59999990463,230365.936,230782.586,,33,these
screen,html.Screen,2_1_1_1_34,2022-02-01T14:07:02.048Z,,,,,,,,,,,,,,,,,54,,,,,,,,,,,,,,388.71399995230604,,response,,,,100,,,,,,,Space,keypress(Space),,,,,,,,-- --- ---- --- ------ ----- ------- ---- -- --- ------- --<br>------- ---------- ------ -- ----- -- ----- -- ---- ------<br>--- ----- --- --- ------ -------- ----- --- ------ ----- --<br>----- bonds ---------- --- --- ------ ------ ---- -- ------<br>------- --- ------ ----- --- ---- ------- -- ---- --- --<br>------- ------,231173.70000004768,231171.29999995232,230765.92,230779.89999985695,230782.586,231182.57,,34,bonds
screen,html.Screen,2_1_1_1_35,2022-02-01T14:07:02.470Z,,,,,,,,,,,,,,,,,54,,,,,,,,,,,,,,410.2299999523093,,response,,,,100,,,,,,,Space,keypress(Space),,,,,,,,"-- --- ---- --- ------ ----- ------- ---- -- --- ------- --<br>------- ---------- ------ -- ----- -- ----- -- ---- ------<br>--- ----- --- --- ------ -------- ----- --- ------ ----- --<br>----- ----- plummeted, --- --- ------ ------ ---- -- ------<br>------- --- ------ ----- --- ---- ------- -- ---- --- --<br>------- ------",231595.39999985695,231592.79999995232,231165.904,231173.89999985695,231182.57,231599.761,,35,"plummeted,"
screen,html.Screen,2_1_1_1_36,2022-02-01T14:07:03.040Z,,,,,,,,,,,,,,,,,54,,,,,,,,,,,,,,563.0389999523177,,response,,,,100,,,,,,,Space,keypress(Space),,,,,,,,-- --- ---- --- ------ ----- ------- ---- -- --- ------- --<br>------- ---------- ------ -- ----- -- ----- -- ---- ------<br>--- ----- --- --- ------ -------- ----- --- ------ ----- --<br>----- ----- ---------- and --- ------ ------ ---- -- ------<br>------- --- ------ ----- --- ---- ------- -- ---- --- --<br>------- ------,232166.29999995232,232162.79999995232,231583.095,231595.79999995232,231599.761,232183.071,,36,and
screen,html.Screen,2_1_1_1_37,2022-02-01T14:07:03.503Z,,,,,,,,,,,,,,,,,54,,,,,,,,,,,,,,443.5289999046363,,response,,,,100,,,,,,,Space,keypress(Space),,,,,,,,-- --- ---- --- ------ ----- ------- ---- -- --- ------- --<br>------- ---------- ------ -- ----- -- ----- -- ---- ------<br>--- ----- --- --- ------ -------- ----- --- ------ ----- --<br>----- ----- ---------- --- the ------ ------ ---- -- ------<br>------- --- ------ ----- --- ---- ------- -- ---- --- --<br>------- ------,232629.29999995232,232626.59999990463,232166.405,232166.59999990463,232183.071,232633.053,,37,the
screen,html.Screen,2_1_1_1_38,2022-02-01T14:07:03.999Z,,,,,,,,,,,,,,,,,54,,,,,,,,,,,,,,488.04699990461813,,response,,,,100,,,,,,,Space,keypress(Space),,,,,,,,-- --- ---- --- ------ ----- ------- ---- -- --- ------- --<br>------- ---------- ------ -- ----- -- ----- -- ---- ------<br>--- ----- --- --- ------ -------- ----- --- ------ ----- --<br>----- ----- ---------- --- --- market ------ ---- -- ------<br>------- --- ------ ----- --- ---- ------- -- ---- --- --<br>------- ------,233124.39999985695,233121.09999990463,232616.387,232629.70000004768,232633.053,233133.033,,38,market
screen,html.Screen,2_1_1_1_39,2022-02-01T14:07:04.495Z,,,,,,,,,,,,,,,,,54,,,,,,,,,,,,,,483.7669999523205,,response,,,,100,,,,,,,Space,keypress(Space),,,,,,,,-- --- ---- --- ------ ----- ------- ---- -- --- ------- --<br>------- ---------- ------ -- ----- -- ----- -- ---- ------<br>--- ----- --- --- ------ -------- ----- --- ------ ----- --<br>----- ----- ---------- --- --- ------ became ---- -- ------<br>------- --- ------ ----- --- ---- ------- -- ---- --- --<br>------- ------,233620.39999985695,233616.79999995232,233116.367,233124.79999995232,233133.033,233633.013,,39,became
screen,html.Screen,2_1_1_1_40,2022-02-01T14:07:04.910Z,,,,,,,,,,,,,,,,,54,,,,,,,,,,,,,,399.0869999046263,,response,,,,100,,,,,,,Space,keypress(Space),,,,,,,,-- --- ---- --- ------ ----- ------- ---- -- --- ------- --<br>------- ---------- ------ -- ----- -- ----- -- ---- ------<br>--- ----- --- --- ------ -------- ----- --- ------ ----- --<br>----- ----- ---------- --- --- ------ ------ wary -- ------<br>------- --- ------ ----- --- ---- ------- -- ---- --- --<br>------- ------,234035.5,234032.09999990463,233616.347,233620.70000004768,233633.013,234049.663,,40,wary
screen,html.Screen,2_1_1_1_41,2022-02-01T14:07:05.314Z,,,,,,,,,,,,,,,,,54,,,,,,,,,,,,,,387.03700004768325,,response,,,,100,,,,,,,Space,keypress(Space),,,,,,,,-- --- ---- --- ------ ----- ------- ---- -- --- ------- --<br>------- ---------- ------ -- ----- -- ----- -- ---- ------<br>--- ----- --- --- ------ -------- ----- --- ------ ----- --<br>----- ----- ---------- --- --- ------ ------ ---- of ------<br>------- --- ------ ----- --- ---- ------- -- ---- --- --<br>------- ------,234440.09999990463,234436.70000004768,234032.997,234035.79999995232,234049.663,234449.647,,41,of
screen,html.Screen,2_1_1_1_42,2022-02-01T14:07:05.759Z,,,,,,,,,,,,,,,,,54,,,,,,,,,,,,,,431.25299985695165,,response,,,,100,,,,,,,Space,keypress(Space),,,,,,,,-- --- ---- --- ------ ----- ------- ---- -- --- ------- --<br>------- ---------- ------ -- ----- -- ----- -- ---- ------<br>--- ----- --- --- ------ -------- ----- --- ------ ----- --<br>----- ----- ---------- --- --- ------ ------ ---- -- French<br>------- --- ------ ----- --- ---- ------- -- ---- --- --<br>------- ------,234884.59999990463,234880.89999985695,234432.981,234440.09999990463,234449.647,234899.629,,42,French
screen,html.Screen,2_1_1_1_43,2022-02-01T14:07:08.069Z,,,,,,,,,,,,,,,,,54,,,,,,,,,,,,,,2291.5710000476975,,response,,,,100,,,,,,,Space,keypress(Space),,,,,,,,-- --- ---- --- ------ ----- ------- ---- -- --- ------- --<br>------- ---------- ------ -- ----- -- ----- -- ---- ------<br>--- ----- --- --- ------ -------- ----- --- ------ ----- --<br>----- ----- ---------- --- --- ------ ------ ---- -- ------<br>credit. --- ------ ----- --- ---- ------- -- ---- --- --<br>------- ------,237195.09999990463,237191.20000004768,234882.963,234884.89999985695,234899.629,237199.537,,43,credit.
screen,html.Screen,2_1_1_1_44,2022-02-01T14:07:08.523Z,,,,,,,,,,,,,,,,,54,,,,,,,,,,,,,,445.66300004767254,,response,,,,100,,,,,,,Space,keypress(Space),,,,,,,,-- --- ---- --- ------ ----- ------- ---- -- --- ------- --<br>------- ---------- ------ -- ----- -- ----- -- ---- ------<br>--- ----- --- --- ------ -------- ----- --- ------ ----- --<br>----- ----- ---------- --- --- ------ ------ ---- -- ------<br>------- The ------ ----- --- ---- ------- -- ---- --- --<br>------- ------,237649,237645.20000004768,237182.871,237195.29999995232,237199.537,237666.185,,44,The
screen,html.Screen,2_1_1_1_45,2022-02-01T14:07:08.996Z,,,,,,,,,,,,,,,,,54,,,,,,,,,,,,,,453.4149999046349,,response,,,,100,,,,,,,Space,keypress(Space),,,,,,,,-- --- ---- --- ------ ----- ------- ---- -- --- ------- --<br>------- ---------- ------ -- ----- -- ----- -- ---- ------<br>--- ----- --- --- ------ -------- ----- --- ------ ----- --<br>----- ----- ---------- --- --- ------ ------ ---- -- ------<br>------- --- French ----- --- ---- ------- -- ---- --- --<br>------- ------,238122.29999995232,238119.59999990463,237649.519,237649.09999990463,237666.185,238132.833,,45,French
screen,html.Screen,2_1_1_1_46,2022-02-01T14:07:09.421Z,,,,,,,,,,,,,,,,,54,,,,,,,,,,,,,,410.466999952303,,response,,,,100,,,,,,,Space,keypress(Space),,,,,,,,-- --- ---- --- ------ ----- ------- ---- -- --- ------- --<br>------- ---------- ------ -- ----- -- ----- -- ---- ------<br>--- ----- --- --- ------ -------- ----- --- ------ ----- --<br>----- ----- ---------- --- --- ------ ------ ---- -- ------<br>------- --- ------ state --- ---- ------- -- ---- --- --<br>------- ------,238547,238543.29999995232,238116.167,238122.59999990463,238132.833,238549.483,,46,state
screen,html.Screen,2_1_1_1_47,2022-02-01T14:07:09.846Z,,,,,,,,,,,,,,,,,54,,,,,,,,,,,,,,419.21700004767627,,response,,,,100,,,,,,,Space,keypress(Space),,,,,,,,-- --- ---- --- ------ ----- ------- ---- -- --- ------- --<br>------- ---------- ------ -- ----- -- ----- -- ---- ------<br>--- ----- --- --- ------ -------- ----- --- ------ ----- --<br>----- ----- ---------- --- --- ------ ------ ---- -- ------<br>------- --- ------ ----- was ---- ------- -- ---- --- --<br>------- ------,238972.09999990463,238968.70000004768,238532.817,238547.20000004768,238549.483,238982.799,,47,was
screen,html.Screen,2_1_1_1_48,2022-02-01T14:07:10.243Z,,,,,,,,,,,,,,,,,54,,,,,,,,,,,,,,384.1009998569498,,response,,,,100,,,,,,,Space,keypress(Space),,,,,,,,-- --- ---- --- ------ ----- ------- ---- -- --- ------- --<br>------- ---------- ------ -- ----- -- ----- -- ---- ------<br>--- ----- --- --- ------ -------- ----- --- ------ ----- --<br>----- ----- ---------- --- --- ------ ------ ---- -- ------<br>------- --- ------ ----- --- left ------- -- ---- --- --<br>------- ------,239369.29999995232,239366.89999985695,238966.133,238972.5,238982.799,239382.783,,48,left
screen,html.Screen,2_1_1_1_49,2022-02-01T14:07:10.734Z,,,,,,,,,,,,,,,,,54,,,,,,,,,,,,,,474.0169999523205,,response,,,,100,,,,,,,Space,keypress(Space),,,,,,,,-- --- ---- --- ------ ----- ------- ---- -- --- ------- --<br>------- ---------- ------ -- ----- -- ----- -- ---- ------<br>--- ----- --- --- ------ -------- ----- --- ------ ----- --<br>----- ----- ---------- --- --- ------ ------ ---- -- ------<br>------- --- ------ ----- --- ---- without -- ---- --- --<br>------- ------,239859.89999985695,239856.79999995232,239366.117,239369.5,239382.783,239866.097,,49,without
screen,html.Screen,2_1_1_1_50,2022-02-01T14:07:11.189Z,,,,,,,,,,,,,,,,,54,,,,,,,,,,,,,,445.60300004767487,,response,,,,100,,,,,,,Space,keypress(Space),,,,,,,,-- --- ---- --- ------ ----- ------- ---- -- --- ------- --<br>------- ---------- ------ -- ----- -- ----- -- ---- ------<br>--- ----- --- --- ------ -------- ----- --- ------ ----- --<br>----- ----- ---------- --- --- ------ ------ ---- -- ------<br>------- --- ------ ----- --- ---- ------- an ---- --- --<br>------- ------,240315.29999995232,240311.70000004768,239849.431,239860.29999995232,239866.097,240332.745,,50,an
screen,html.Screen,2_1_1_1_51,2022-02-01T14:07:11.596Z,,,,,,,,,,,,,,,,,54,,,,,,,,,,,,,,386.05499995232094,,response,,,,100,,,,,,,Space,keypress(Space),,,,,,,,-- --- ---- --- ------ ----- ------- ---- -- --- ------- --<br>------- ---------- ------ -- ----- -- ----- -- ---- ------<br>--- ----- --- --- ------ -------- ----- --- ------ ----- --<br>----- ----- ---------- --- --- ------ ------ ---- -- ------<br>------- --- ------ ----- --- ---- ------- -- easy --- --<br>------- ------,240722.39999985695,240718.79999995232,240316.079,240315.39999985695,240332.745,240732.729,,51,easy
screen,html.Screen,2_1_1_1_52,2022-02-01T14:07:12.015Z,,,,,,,,,,,,,,,,,54,,,,,,,,,,,,,,404.3709999046405,,response,,,,100,,,,,,,Space,keypress(Space),,,,,,,,-- --- ---- --- ------ ----- ------- ---- -- --- ------- --<br>------- ---------- ------ -- ----- -- ----- -- ---- ------<br>--- ----- --- --- ------ -------- ----- --- ------ ----- --<br>----- ----- ---------- --- --- ------ ------ ---- -- ------<br>------- --- ------ ----- --- ---- ------- -- ---- way --<br>------- ------,241141.5,241137.09999990463,240716.063,240722.59999990463,240732.729,241149.379,,52,way
screen,html.Screen,2_1_1_1_53,2022-02-01T14:07:12.406Z,,,,,,,,,,,,,,,,,54,,,,,,,,,,,,,,379.2209999046463,,response,,,,100,,,,,,,Space,keypress(Space),,,,,,,,-- --- ---- --- ------ ----- ------- ---- -- --- ------- --<br>------- ---------- ------ -- ----- -- ----- -- ---- ------<br>--- ----- --- --- ------ -------- ----- --- ------ ----- --<br>----- ----- ---------- --- --- ------ ------ ---- -- ------<br>------- --- ------ ----- --- ---- ------- -- ---- --- of<br>------- ------,241532.20000004768,241528.59999990463,241132.713,241141.70000004768,241149.379,241549.363,,53,of
screen,html.Screen,2_1_1_1_54,2022-02-01T14:07:12.949Z,,,,,,,,,,,,,,,,,54,,,,,,,,,,,,,,522.9369999523042,,response,,,,100,,,,,,,Space,keypress(Space),,,,,,,,-- --- ---- --- ------ ----- ------- ---- -- --- ------- --<br>------- ---------- ------ -- ----- -- ----- -- ---- ------<br>--- ----- --- --- ------ -------- ----- --- ------ ----- --<br>----- ----- ---------- --- --- ------ ------ ---- -- ------<br>------- --- ------ ----- --- ---- ------- -- ---- --- --<br>raising ------,242075.20000004768,242072.29999995232,241532.697,241532.59999990463,241549.363,242083.214,,54,raising
screen,html.Screen,2_1_1_1_55,2022-02-01T14:07:13.862Z,,,,,,,,,,,,,,,,,54,,,,,,,,,,,,,,902.9860000476765,,response,,,,100,,,,,,,Space,keypress(Space),,,,,,,,-- --- ---- --- ------ ----- ------- ---- -- --- ------- --<br>------- ---------- ------ -- ----- -- ----- -- ---- ------<br>--- ----- --- --- ------ -------- ----- --- ------ ----- --<br>----- ----- ---------- --- --- ------ ------ ---- -- ------<br>------- --- ------ ----- --- ---- ------- -- ---- --- --<br>------- money.,242988.39999985695,242986.20000004768,242066.548,242075.29999995232,242083.214,242999.844,,55,money.
Item 100,flow.Loop,2_1_1_1,2022-02-01T14:07:13.863Z,,,,,,,,,,,,,,,,,,,,,,,,,,,,,,,33604.04700004769,,completion,,,,,E,,,,,,,,,,,silence,,,,,242988.89999985695,242986.20000004768,209365.487,209367.09999990463,209382.153,242999.844,,,
Question 1,html.Screen,2_1_1_2,2022-02-01T14:07:19.650Z,,,,,,,,,,,,,,,,,,,,,,,,,,,,true,TRUE,,5773.555999856937,,response,,,,100,E,,,,,,TRUE,click #choice-1,,,,silence,,,,,248776.39999985695,248773.39999985695,242983.178,242989,242999.844,248782.946,,,
Question 2,html.Screen,2_1_1_3,2022-02-01T14:07:24.156Z,,,,,,,,,,,,,,,,,,,,,,,,,,,,true,FALSE,,4496.153999904636,,response,,,,100,E,,,,,,FALSE,click #choice-2,,,,silence,,,,,253282.39999985695,253279.09999990463,248766.28,248776.70000004768,248782.946,253283.313,,,
Item 100,flow.Sequence,2_1_1,2022-02-01T14:07:24.156Z,,,,,,,,,,,,,,,,,,,,,,,,,,,,,,,53896.54699990462,,completion,,,,,,,,,,,,,,,,,,,,,253282.70000004768,253279.09999990463,199365.887,199379.09999990463,199382.553,253283.313,,,
End of Practice,html.Page,2_1_2,2022-02-01T14:07:29.535Z,,,,,,,,,,,,,,,,,,,,,,,,,,,,,,,5377.687000000005,,form submission,,,,,,,,,,,,,,,,,,,,,258661.5,258661,253266.647,253282.79999995232,253283.313,258666.431,,,
Practice,flow.Sequence,2_1,2022-02-01T14:07:29.535Z,,,,,,,,,,,,,,,,,,,,,,,,,,,,,,,122831.48199999999,,completion,,,,,,,,,,,,,,,,,,,,,258661.79999995232,258661,135812.852,135828.5,135829.518,258666.431,,,
Trap_instruction,html.Page,2_2_0,2022-02-01T14:07:48.053Z,,,,,,,,,,,,,,,,,,,,,,,,,,,,,,,18512.769000047672,,form submission,,,,,,,,,,,,,,,,,,,,,277179.59999990463,277179.2000000477,258649.765,258662,258666.431,277182.357,,,
trap_trial,html.Screen,2_2_1,2022-02-01T14:07:51.974Z,,,,,,,,,,,,,,,,,,,,,,,,,,,,true,1,,3915.642999999982,,response,,,,,,,,,,,1,click #choice-1,,,,,,,,,281100.59999990463,281098,277165.691,277180,277182.357,281100.179,,,
end of trap trial,html.Page,2_2_2,2022-02-01T14:07:56.204Z,,,,,,,,,,,,,,,,,,,,,,,,,,,,,,,4229.820999999996,,form submission,,,,,,,,,,,,,,,,,,,,,285330.59999990463,285330,281083.513,281100.7999999523,281100.179,285333.343,,,
Trap 1,flow.Sequence,2_2,2022-02-01T14:07:56.204Z,,,,,,,,,,,,,,,,,,,,,,,,,,,,,,,26663.56899999999,,completion,,,,,,,,,,,,,,,,,,,,,285330.7999999523,285330,258649.765,258661.89999985695,258666.431,285333.343,,,
Standby,html.Page,2_3_0,2022-02-01T14:08:04.192Z,,,,,,,,,,,,,,,,,,,,,,,,,,,,,,,7999.679999999993,,timeout,,,,,,,,,,,,,,,,,,,,,293318.7000000477,293316.357,285316.677,285330.89999985695,285333.343,293333.023,,,
Holding screen,html.Screen,2_3_1_0_0,2022-02-01T14:08:11.192Z,,,,,,,,,,,,,,,,,,,,,,,,,,,,,,,7000.859999999986,,timeout,,,,,,,,,,,,,,,,,,,,,300319,300317.217,293316.357,293319.09999990463,293333.023,300333.883,,,
screen,html.Screen,2_3_1_0_1_0,2022-02-01T14:08:12.147Z,,,,,,,,,,,,,,,,,48,,,,,,,,,,,,,,935.8170000477112,,response,,,,10,E,,,,,,Space,keypress(Space),,,,lyrical,,,,As -- --- ------ ------- --------- ----------- --------<br>--------- -------- --- ------- -- ------- ---- -- ------<br>-- --- -------- -------- ---------- ---- ---- ---- ------<br>-- --------- -- ---- -- --- -- --- ------- -- - -----<br>---------- -- -- -- ---- ----- -- ------ -- --- ------<br>-------,301274.59999990463,301269.7000000477,300317.217,300319.2999999523,300333.883,301283.845,,0,As
screen,html.Screen,2_3_1_0_1_1,2022-02-01T14:08:12.576Z,,,,,,,,,,,,,,,,,48,,,,,,,,,,,,,,416.85500004771166,,response,,,,10,E,,,,,,Space,keypress(Space),,,,lyrical,,,,-- in --- ------ ------- --------- ----------- --------<br>--------- -------- --- ------- -- ------- ---- -- ------<br>-- --- -------- -------- ---------- ---- ---- ---- ------<br>-- --------- -- ---- -- --- -- --- ------- -- - -----<br>---------- -- -- -- ---- ----- -- ------ -- --- ------<br>-------,301703.59999990463,301700.7000000477,301267.179,301274.59999990463,301283.845,301717.161,,1,in
screen,html.Screen,2_3_1_0_1_2,2022-02-01T14:08:13.067Z,,,,,,,,,,,,,,,,,48,,,,,,,,,,,,,,473.4389999046107,,response,,,,10,E,,,,,,Space,keypress(Space),,,,lyrical,,,,-- -- the ------ ------- --------- ----------- --------<br>--------- -------- --- ------- -- ------- ---- -- ------<br>-- --- -------- -------- ---------- ---- ---- ---- ------<br>-- --------- -- ---- -- --- -- --- ------- -- - -----<br>---------- -- -- -- ---- ----- -- ------ -- --- ------<br>-------,302194.7000000477,302190.59999990463,301700.495,301704,301717.161,302200.475,,2,the
screen,html.Screen,2_3_1_0_1_3,2022-02-01T14:08:13.492Z,,,,,,,,,,,,,,,,,48,,,,,,,,,,,,,,414.725000047707,,response,,,,10,E,,,,,,Space,keypress(Space),,,,lyrical,,,,-- -- --- United ------- --------- ----------- --------<br>--------- -------- --- ------- -- ------- ---- -- ------<br>-- --- -------- -------- ---------- ---- ---- ---- ------<br>-- --------- -- ---- -- --- -- --- ------- -- - -----<br>---------- -- -- -- ---- ----- -- ------ -- --- ------<br>-------,302618.89999985695,302615.2000000477,302183.809,302194.7999999523,302200.475,302633.791,,3,United
screen,html.Screen,2_3_1_0_1_4,2022-02-01T14:08:13.933Z,,,,,,,,,,,,,,,,,48,,,,,,,,,,,,,,422.808999904606,,response,,,,10,E,,,,,,Space,keypress(Space),,,,lyrical,,,,"-- -- --- ------ States, --------- ----------- --------<br>--------- -------- --- ------- -- ------- ---- -- ------<br>-- --- -------- -------- ---------- ---- ---- ---- ------<br>-- --------- -- ---- -- --- -- --- ------- -- - -----<br>---------- -- -- -- ---- ----- -- ------ -- --- ------<br>-------",303060.09999990463,303056.59999990463,302617.125,302619.09999990463,302633.791,303067.107,,4,"States,"
screen,html.Screen,2_3_1_0_1_5,2022-02-01T14:08:14.450Z,,,,,,,,,,,,,,,,,48,,,,,,,,,,,,,,507.39299999998184,,response,,,,10,E,,,,,,Space,keypress(Space),,,,lyrical,,,,-- -- --- ------ ------- Colombian ----------- --------<br>--------- -------- --- ------- -- ------- ---- -- ------<br>-- --- -------- -------- ---------- ---- ---- ---- ------<br>-- --------- -- ---- -- --- -- --- ------- -- - -----<br>---------- -- -- -- ---- ----- -- ------ -- --- ------<br>-------,303577.59999990463,303574.5,303050.441,303060.39999985695,303067.107,303583.753,,5,Colombian
screen,html.Screen,2_3_1_0_1_6,2022-02-01T14:08:15.077Z,,,,,,,,,,,,,,,,,48,,,,,,,,,,,,,,617.1469998569228,,response,,,,10,E,,,,,,Space,keypress(Space),,,,lyrical,,,,-- -- --- ------ ------- --------- legislation --------<br>--------- -------- --- ------- -- ------- ---- -- ------<br>-- --- -------- -------- ---------- ---- ---- ---- ------<br>-- --------- -- ---- -- --- -- --- ------- -- - -----<br>---------- -- -- -- ---- ----- -- ------ -- --- ------<br>-------,304204,304200.89999985695,303567.087,303577.7999999523,303583.753,304217.061,,6,legislation
screen,html.Screen,2_3_1_0_1_7,2022-02-01T14:08:15.587Z,,,,,,,,,,,,,,,,,48,,,,,,,,,,,,,,494.13900004769675,,response,,,,10,E,,,,,,Space,keypress(Space),,,,lyrical,,,,-- -- --- ------ ------- --------- ----------- requires<br>--------- -------- --- ------- -- ------- ---- -- ------<br>-- --- -------- -------- ---------- ---- ---- ---- ------<br>-- --------- -- ---- -- --- -- --- ------- -- - -----<br>---------- -- -- -- ---- ----- -- ------ -- --- ------<br>-------,304714.2000000477,304711.2000000477,304200.395,304204.2000000477,304217.061,304717.041,,7,requires
screen,html.Screen,2_3_1_0_1_8,2022-02-01T14:08:16.110Z,,,,,,,,,,,,,,,,,48,,,,,,,,,,,,,,516.8589998569223,,response,,,,10,E,,,,,,Space,keypress(Space),,,,lyrical,,,,-- -- --- ------ ------- --------- ----------- --------<br>travelers -------- --- ------- -- ------- ---- -- ------<br>-- --- -------- -------- ---------- ---- ---- ---- ------<br>-- --------- -- ---- -- --- -- --- ------- -- - -----<br>---------- -- -- -- ---- ----- -- ------ -- --- ------<br>-------,305237.5,305233.89999985695,304700.375,304714.5,304717.041,305250.353,,8,travelers
screen,html.Screen,2_3_1_0_1_9,2022-02-01T14:08:16.635Z,,,,,,,,,,,,,,,,,48,,,,,,,,,,,,,,508.2469999046298,,response,,,,10,E,,,,,,Space,keypress(Space),,,,lyrical,,,,-- -- --- ------ ------- --------- ----------- --------<br>--------- entering --- ------- -- ------- ---- -- ------<br>-- --- -------- -------- ---------- ---- ---- ---- ------<br>-- --------- -- ---- -- --- -- --- ------- -- - -----<br>---------- -- -- -- ---- ----- -- ------ -- --- ------<br>-------,305762,305758.59999990463,305233.687,305237.7999999523,305250.353,305766.999,,9,entering
screen,html.Screen,2_3_1_0_1_10,2022-02-01T14:08:17.104Z,,,,,,,,,,,,,,,,,48,,,,,,,,,,,,,,460.5009999999893,,response,,,,10,E,,,,,,Space,keypress(Space),,,,lyrical,,,,-- -- --- ------ ------- --------- ----------- --------<br>--------- -------- the ------- -- ------- ---- -- ------<br>-- --- -------- -------- ---------- ---- ---- ---- ------<br>-- --------- -- ---- -- --- -- --- ------- -- - -----<br>---------- -- -- -- ---- ----- -- ------ -- --- ------<br>-------,306230.7999999523,306227.5,305750.333,305762.5,305766.999,306233.647,,10,the
screen,html.Screen,2_3_1_0_1_11,2022-02-01T14:08:17.526Z,,,,,,,,,,,,,,,,,48,,,,,,,,,,,,,,416.45299990463536,,response,,,,10,E,,,,,,Space,keypress(Space),,,,lyrical,,,,-- -- --- ------ ------- --------- ----------- --------<br>--------- -------- --- country -- ------- ---- -- ------<br>-- --- -------- -------- ---------- ---- ---- ---- ------<br>-- --------- -- ---- -- --- -- --- ------- -- - -----<br>---------- -- -- -- ---- ----- -- ------ -- --- ------<br>-------,306653.7000000477,306650.09999990463,306216.981,306231.09999990463,306233.647,306666.963,,11,country
screen,html.Screen,2_3_1_0_1_12,2022-02-01T14:08:17.952Z,,,,,,,,,,,,,,,,,48,,,,,,,,,,,,,,409.5370000000112,,response,,,,10,E,,,,,,Space,keypress(Space),,,,lyrical,,,,-- -- --- ------ ------- --------- ----------- --------<br>--------- -------- --- ------- to ------- ---- -- ------<br>-- --- -------- -------- ---------- ---- ---- ---- ------<br>-- --------- -- ---- -- --- -- --- ------- -- - -----<br>---------- -- -- -- ---- ----- -- ------ -- --- ------<br>-------,307079.5,307076.5,306650.297,306654,306666.963,307083.613,,12,to
screen,html.Screen,2_3_1_0_1_13,2022-02-01T14:08:18.335Z,,,,,,,,,,,,,,,,,48,,,,,,,,,,,,,,375.6869999523042,,response,,,,10,E,,,,,,Space,keypress(Space),,,,lyrical,,,,-- -- --- ------ ------- --------- ----------- --------<br>--------- -------- --- ------- -- declare ---- -- ------<br>-- --- -------- -------- ---------- ---- ---- ---- ------<br>-- --------- -- ---- -- --- -- --- ------- -- - -----<br>---------- -- -- -- ---- ----- -- ------ -- --- ------<br>-------,307462.7000000477,307459.2999999523,307066.947,307079.7999999523,307083.613,307467.511,,13,declare
screen,html.Screen,2_3_1_0_1_14,2022-02-01T14:08:18.743Z,,,,,,,,,,,,,,,,,48,,,,,,,,,,,,,,399.38899985695025,,response,,,,10,E,,,,,,Space,keypress(Space),,,,lyrical,,,,-- -- --- ------ ------- --------- ----------- --------<br>--------- -------- --- ------- -- ------- cash -- ------<br>-- --- -------- -------- ---------- ---- ---- ---- ------<br>-- --------- -- ---- -- --- -- --- ------- -- - -----<br>---------- -- -- -- ---- ----- -- ------ -- --- ------<br>-------,307870.59999990463,307866.89999985695,307450.845,307463.09999990463,307467.511,307884.161,,14,cash
screen,html.Screen,2_3_1_0_1_15,2022-02-01T14:08:19.134Z,,,,,,,,,,,,,,,,,48,,,,,,,,,,,,,,373.73899985692697,,response,,,,10,E,,,,,,Space,keypress(Space),,,,lyrical,,,,-- -- --- ------ ------- --------- ----------- --------<br>--------- -------- --- ------- -- ------- ---- in ------<br>-- --- -------- -------- ---------- ---- ---- ---- ------<br>-- --------- -- ---- -- --- -- --- ------- -- - -----<br>---------- -- -- -- ---- ----- -- ------ -- --- ------<br>-------,308261.59999990463,308257.89999985695,307867.495,307870.7999999523,307884.161,308267.479,,15,in
screen,html.Screen,2_3_1_0_1_16,2022-02-01T14:08:19.570Z,,,,,,,,,,,,,,,,,48,,,,,,,,,,,,,,426.22100004769163,,response,,,,10,E,,,,,,Space,keypress(Space),,,,lyrical,,,,-- -- --- ------ ------- --------- ----------- --------<br>--------- -------- --- ------- -- ------- ---- -- excess<br>-- --- -------- -------- ---------- ---- ---- ---- ------<br>-- --------- -- ---- -- --- -- --- ------- -- - -----<br>---------- -- -- -- ---- ----- -- ------ -- --- ------<br>-------,308697.39999985695,308693.7000000477,308250.813,308262.09999990463,308267.479,308700.795,,16,excess
screen,html.Screen,2_3_1_0_1_17,2022-02-01T14:08:20.038Z,,,,,,,,,,,,,,,,,48,,,,,,,,,,,,,,461.30499990464887,,response,,,,10,E,,,,,,Space,keypress(Space),,,,lyrical,,,,-- -- --- ------ ------- --------- ----------- --------<br>--------- -------- --- ------- -- ------- ---- -- ------<br>of --- -------- -------- ---------- ---- ---- ---- ------<br>-- --------- -- ---- -- --- -- --- ------- -- - -----<br>---------- -- -- -- ---- ----- -- ------ -- --- ------<br>-------,309165.7000000477,309162.09999990463,308684.129,308697.7000000477,308700.795,309184.109,,17,of
screen,html.Screen,2_3_1_0_1_18,2022-02-01T14:08:20.464Z,,,,,,,,,,,,,,,,,48,,,,,,,,,,,,,,403.89100000000326,,response,,,,10,E,,,,,,Space,keypress(Space),,,,lyrical,,,,-- -- --- ------ ------- --------- ----------- --------<br>--------- -------- --- ------- -- ------- ---- -- ------<br>-- ten -------- -------- ---------- ---- ---- ---- ------<br>-- --------- -- ---- -- --- -- --- ------- -- - -----<br>---------- -- -- -- ---- ----- -- ------ -- --- ------<br>-------,309591.59999990463,309588,309167.443,309167.39999985695,309184.109,309600.759,,18,ten
screen,html.Screen,2_3_1_0_1_19,2022-02-01T14:08:20.897Z,,,,,,,,,,,,,,,,,48,,,,,,,,,,,,,,419.74099999998,,response,,,,10,E,,,,,,Space,keypress(Space),,,,lyrical,,,,-- -- --- ------ ------- --------- ----------- --------<br>--------- -------- --- ------- -- ------- ---- -- ------<br>-- --- thousand -------- ---------- ---- ---- ---- ------<br>-- --------- -- ---- -- --- -- --- ------- -- - -----<br>---------- -- -- -- ---- ----- -- ------ -- --- ------<br>-------,310024.2999999523,310020.5,309584.093,309591.89999985695,309600.759,310034.075,,19,thousand
screen,html.Screen,2_3_1_0_1_20,2022-02-01T14:08:21.394Z,,,,,,,,,,,,,,,,,48,,,,,,,,,,,,,,484.0249999046209,,response,,,,10,E,,,,,,Space,keypress(Space),,,,lyrical,,,,-- -- --- ------ ------- --------- ----------- --------<br>--------- -------- --- ------- -- ------- ---- -- ------<br>-- --- -------- dollars. ---------- ---- ---- ---- ------<br>-- --------- -- ---- -- --- -- --- ------- -- - -----<br>---------- -- -- -- ---- ----- -- ------ -- --- ------<br>-------,310521.59999990463,310518.09999990463,310017.409,310024.5,310034.075,310534.055,,20,dollars.
screen,html.Screen,2_3_1_0_1_21,2022-02-01T14:08:21.946Z,,,,,,,,,,,,,,,,,48,,,,,,,,,,,,,,535.8449998569558,,response,,,,10,E,,,,,,Space,keypress(Space),,,,lyrical,,,,-- -- --- ------ ------- --------- ----------- --------<br>--------- -------- --- ------- -- ------- ---- -- ------<br>-- --- -------- -------- Concealing ---- ---- ---- ------<br>-- --------- -- ---- -- --- -- --- ------- -- - -----<br>---------- -- -- -- ---- ----- -- ------ -- --- ------<br>-------,311073.2999999523,311069.89999985695,310517.389,310521.89999985695,310534.055,311084.033,,21,Concealing
screen,html.Screen,2_3_1_0_1_22,2022-02-01T14:08:22.361Z,,,,,,,,,,,,,,,,,48,,,,,,,,,,,,,,399.06699990463676,,response,,,,10,E,,,,,,Space,keypress(Space),,,,lyrical,,,,-- -- --- ------ ------- --------- ----------- --------<br>--------- -------- --- ------- -- ------- ---- -- ------<br>-- --- -------- -------- ---------- more ---- ---- ------<br>-- --------- -- ---- -- --- -- --- ------- -- - -----<br>---------- -- -- -- ---- ----- -- ------ -- --- ------<br>-------,311488.09999990463,311483.09999990463,311067.367,311073.5,311084.033,311500.683,,22,more
screen,html.Screen,2_3_1_0_1_23,2022-02-01T14:08:22.783Z,,,,,,,,,,,,,,,,,48,,,,,,,,,,,,,,406.6169999522972,,response,,,,10,E,,,,,,Space,keypress(Space),,,,lyrical,,,,-- -- --- ------ ------- --------- ----------- --------<br>--------- -------- --- ------- -- ------- ---- -- ------<br>-- --- -------- -------- ---------- ---- than ---- ------<br>-- --------- -- ---- -- --- -- --- ------- -- - -----<br>---------- -- -- -- ---- ----- -- ------ -- --- ------<br>-------,311910.39999985695,311907.2999999523,311484.017,311488.2999999523,311500.683,311917.333,,23,than
screen,html.Screen,2_3_1_0_1_24,2022-02-01T14:08:23.170Z,,,,,,,,,,,,,,,,,48,,,,,,,,,,,,,,378.9669999523321,,response,,,,10,E,,,,,,Space,keypress(Space),,,,lyrical,,,,-- -- --- ------ ------- --------- ----------- --------<br>--------- -------- --- ------- -- ------- ---- -- ------<br>-- --- -------- -------- ---------- ---- ---- that ------<br>-- --------- -- ---- -- --- -- --- ------- -- - -----<br>---------- -- -- -- ---- ----- -- ------ -- --- ------<br>-------,312297.59999990463,312296.2999999523,311900.667,311910.5,311917.333,312300.651,,24,that
screen,html.Screen,2_3_1_0_1_25,2022-02-01T14:08:23.626Z,,,,,,,,,,,,,,,,,48,,,,,,,,,,,,,,449.8489999999874,,response,,,,10,E,,,,,,Space,keypress(Space),,,,lyrical,,,,-- -- --- ------ ------- --------- ----------- --------<br>--------- -------- --- ------- -- ------- ---- -- ------<br>-- --- -------- -------- ---------- ---- ---- ---- amount<br>-- --------- -- ---- -- --- -- --- ------- -- - -----<br>---------- -- -- -- ---- ----- -- ------ -- --- ------<br>-------,312753.5,312750.5,312283.985,312297.59999990463,312300.651,312767.299,,25,amount
screen,html.Screen,2_3_1_0_1_26,2022-02-01T14:08:24.064Z,,,,,,,,,,,,,,,,,48,,,,,,,,,,,,,,419.90100004768465,,response,,,,10,E,,,,,,Space,keypress(Space),,,,lyrical,,,,-- -- --- ------ ------- --------- ----------- --------<br>--------- -------- --- ------- -- ------- ---- -- ------<br>-- --- -------- -------- ---------- ---- ---- ---- ------<br>to --------- -- ---- -- --- -- --- ------- -- - -----<br>---------- -- -- -- ---- ----- -- ------ -- --- ------<br>-------,313191.2000000477,313187.2000000477,312750.633,312753.7999999523,312767.299,313200.615,,26,to
screen,html.Screen,2_3_1_0_1_27,2022-02-01T14:08:24.458Z,,,,,,,,,,,,,,,,,48,,,,,,,,,,,,,,381.08500004769303,,response,,,,10,E,,,,,,Space,keypress(Space),,,,lyrical,,,,-- -- --- ------ ------- --------- ----------- --------<br>--------- -------- --- ------- -- ------- ---- -- ------<br>-- --- -------- -------- ---------- ---- ---- ---- ------<br>-- transport -- ---- -- --- -- --- ------- -- - -----<br>---------- -- -- -- ---- ----- -- ------ -- --- ------<br>-------,313584.89999985695,313581.7000000477,313183.949,313191.39999985695,313200.615,313600.599,,27,transport
screen,html.Screen,2_3_1_0_1_28,2022-02-01T14:08:24.928Z,,,,,,,,,,,,,,,,,48,,,,,,,,,,,,,,450.8009998569614,,response,,,,10,E,,,,,,Space,keypress(Space),,,,lyrical,,,,-- -- --- ------ ------- --------- ----------- --------<br>--------- -------- --- ------- -- ------- ---- -- ------<br>-- --- -------- -------- ---------- ---- ---- ---- ------<br>-- --------- it ---- -- --- -- --- ------- -- - -----<br>---------- -- -- -- ---- ----- -- ------ -- --- ------<br>-------,314055.09999990463,314051.39999985695,313583.933,313585.2999999523,313600.599,314067.247,,28,it
screen,html.Screen,2_3_1_0_1_29,2022-02-01T14:08:25.366Z,,,,,,,,,,,,,,,,,48,,,,,,,,,,,,,,422.7530000000261,,response,,,,10,E,,,,,,Space,keypress(Space),,,,lyrical,,,,-- -- --- ------ ------- --------- ----------- --------<br>--------- -------- --- ------- -- ------- ---- -- ------<br>-- --- -------- -------- ---------- ---- ---- ---- ------<br>-- --------- -- into -- --- -- --- ------- -- - -----<br>---------- -- -- -- ---- ----- -- ------ -- --- ------<br>-------,314493.7999999523,314490,314050.581,314055.5,314067.247,314500.563,,29,into
screen,html.Screen,2_3_1_0_1_30,2022-02-01T14:08:25.815Z,,,,,,,,,,,,,,,,,48,,,,,,,,,,,,,,438.73699995229254,,response,,,,10,E,,,,,,Space,keypress(Space),,,,lyrical,,,,-- -- --- ------ ------- --------- ----------- --------<br>--------- -------- --- ------- -- ------- ---- -- ------<br>-- --- -------- -------- ---------- ---- ---- ---- ------<br>-- --------- -- ---- or --- -- --- ------- -- - -----<br>---------- -- -- -- ---- ----- -- ------ -- --- ------<br>-------,314942.5,314939.2999999523,314483.897,314494,314500.563,314950.545,,30,or
screen,html.Screen,2_3_1_0_1_31,2022-02-01T14:08:26.311Z,,,,,,,,,,,,,,,,,48,,,,,,,,,,,,,,484.2549999523326,,response,,,,10,E,,,,,,Space,keypress(Space),,,,lyrical,,,,-- -- --- ------ ------- --------- ----------- --------<br>--------- -------- --- ------- -- ------- ---- -- ------<br>-- --- -------- -------- ---------- ---- ---- ---- ------<br>-- --------- -- ---- -- out -- --- ------- -- - -----<br>---------- -- -- -- ---- ----- -- ------ -- --- ------<br>-------,315438.2000000477,315434.7999999523,314933.879,314942.89999985695,314950.545,315450.525,,31,out
screen,html.Screen,2_3_1_0_1_32,2022-02-01T14:08:26.727Z,,,,,,,,,,,,,,,,,48,,,,,,,,,,,,,,400.5749999046093,,response,,,,10,E,,,,,,Space,keypress(Space),,,,lyrical,,,,-- -- --- ------ ------- --------- ----------- --------<br>--------- -------- --- ------- -- ------- ---- -- ------<br>-- --- -------- -------- ---------- ---- ---- ---- ------<br>-- --------- -- ---- -- --- of --- ------- -- - -----<br>---------- -- -- -- ---- ----- -- ------ -- --- ------<br>-------,315854.2000000477,315851.09999990463,315433.859,315438.39999985695,315450.525,315867.175,,32,of
screen,html.Screen,2_3_1_0_1_33,2022-02-01T14:08:27.088Z,,,,,,,,,,,,,,,,,48,,,,,,,,,,,,,,344.82500000001164,,response,,,,10,E,,,,,,Space,keypress(Space),,,,lyrical,,,,-- -- --- ------ ------- --------- ----------- --------<br>--------- -------- --- ------- -- ------- ---- -- ------<br>-- --- -------- -------- ---------- ---- ---- ---- ------<br>-- --------- -- ---- -- --- -- the ------- -- - -----<br>---------- -- -- -- ---- ----- -- ------ -- --- ------<br>-------,316215.2000000477,316212,315850.509,315854.39999985695,315867.175,316217.161,,33,the
screen,html.Screen,2_3_1_0_1_34,2022-02-01T14:08:27.479Z,,,,,,,,,,,,,,,,,48,,,,,,,,,,,,,,386.8389999999781,,response,,,,10,E,,,,,,Space,keypress(Space),,,,lyrical,,,,-- -- --- ------ ------- --------- ----------- --------<br>--------- -------- --- ------- -- ------- ---- -- ------<br>-- --- -------- -------- ---------- ---- ---- ---- ------<br>-- --------- -- ---- -- --- -- --- country -- - -----<br>---------- -- -- -- ---- ----- -- ------ -- --- ------<br>-------,316606.7000000477,316604,316200.495,316215.5,316217.161,316617.145,,34,country
screen,html.Screen,2_3_1_0_1_35,2022-02-01T14:08:27.925Z,,,,,,,,,,,,,,,,,48,,,,,,,,,,,,,,432.5550000476651,,response,,,,10,E,,,,,,Space,keypress(Space),,,,lyrical,,,,-- -- --- ------ ------- --------- ----------- --------<br>--------- -------- --- ------- -- ------- ---- -- ------<br>-- --- -------- -------- ---------- ---- ---- ---- ------<br>-- --------- -- ---- -- --- -- --- ------- is - -----<br>---------- -- -- -- ---- ----- -- ------ -- --- ------<br>-------,317052.7000000477,317049.7000000477,316600.479,316606.7999999523,316617.145,317067.127,,35,is
screen,html.Screen,2_3_1_0_1_36,2022-02-01T14:08:28.346Z,,,,,,,,,,,,,,,,,48,,,,,,,,,,,,,,402.6729999523377,,response,,,,10,E,,,,,,Space,keypress(Space),,,,lyrical,,,,-- -- --- ------ ------- --------- ----------- --------<br>--------- -------- --- ------- -- ------- ---- -- ------<br>-- --- -------- -------- ---------- ---- ---- ---- ------<br>-- --------- -- ---- -- --- -- --- ------- -- a -----<br>---------- -- -- -- ---- ----- -- ------ -- --- ------<br>-------,317473.2000000477,317469.7999999523,317050.461,317052.89999985695,317067.127,317483.777,,36,a
screen,html.Screen,2_3_1_0_1_37,2022-02-01T14:08:28.791Z,,,,,,,,,,,,,,,,,48,,,,,,,,,,,,,,430.622999856947,,response,,,,10,E,,,,,,Space,keypress(Space),,,,lyrical,,,,-- -- --- ------ ------- --------- ----------- --------<br>--------- -------- --- ------- -- ------- ---- -- ------<br>-- --- -------- -------- ---------- ---- ---- ---- ------<br>-- --------- -- ---- -- --- -- --- ------- -- - crime<br>---------- -- -- -- ---- ----- -- ------ -- --- ------<br>-------,317918.09999990463,317914.39999985695,317467.111,317473.39999985695,317483.777,317934.425,,37,crime
screen,html.Screen,2_3_1_0_1_38,2022-02-01T14:08:29.218Z,,,,,,,,,,,,,,,,,48,,,,,,,,,,,,,,408.77500004769536,,response,,,,10,E,,,,,,Space,keypress(Space),,,,lyrical,,,,-- -- --- ------ ------- --------- ----------- --------<br>--------- -------- --- ------- -- ------- ---- -- ------<br>-- --- -------- -------- ---------- ---- ---- ---- ------<br>-- --------- -- ---- -- --- -- --- ------- -- - -----<br>punishable -- -- -- ---- ----- -- ------ -- --- ------<br>-------,318345.7999999523,318343.2000000477,317917.759,317918.5,317934.425,318351.075,,38,punishable
screen,html.Screen,2_3_1_0_1_39,2022-02-01T14:08:29.688Z,,,,,,,,,,,,,,,,,48,,,,,,,,,,,,,,461.0249999046209,,response,,,,10,E,,,,,,Space,keypress(Space),,,,lyrical,,,,-- -- --- ------ ------- --------- ----------- --------<br>--------- -------- --- ------- -- ------- ---- -- ------<br>-- --- -------- -------- ---------- ---- ---- ---- ------<br>-- --------- -- ---- -- --- -- --- ------- -- - -----<br>---------- by -- -- ---- ----- -- ------ -- --- ------<br>-------,318815.5,318812.09999990463,318334.409,318346,318351.075,318817.723,,39,by
screen,html.Screen,2_3_1_0_1_40,2022-02-01T14:08:30.120Z,,,,,,,,,,,,,,,,,48,,,,,,,,,,,,,,426.27700000000186,,response,,,,10,E,,,,,,Space,keypress(Space),,,,lyrical,,,,-- -- --- ------ ------- --------- ----------- --------<br>--------- -------- --- ------- -- ------- ---- -- ------<br>-- --- -------- -------- ---------- ---- ---- ---- ------<br>-- --------- -- ---- -- --- -- --- ------- -- - -----<br>---------- -- up -- ---- ----- -- ------ -- --- ------<br>-------,319247.7999999523,319244,318801.057,318815.7000000477,318817.723,319251.039,,40,up
screen,html.Screen,2_3_1_0_1_41,2022-02-01T14:08:30.505Z,,,,,,,,,,,,,,,,,48,,,,,,,,,,,,,,377.5609999046428,,response,,,,10,E,,,,,,Space,keypress(Space),,,,lyrical,,,,-- -- --- ------ ------- --------- ----------- --------<br>--------- -------- --- ------- -- ------- ---- -- ------<br>-- --- -------- -------- ---------- ---- ---- ---- ------<br>-- --------- -- ---- -- --- -- --- ------- -- - -----<br>---------- -- -- to ---- ----- -- ------ -- --- ------<br>-------,319632.09999990463,319628.59999990463,319234.373,319248,319251.039,319634.357,,41,to
screen,html.Screen,2_3_1_0_1_42,2022-02-01T14:08:30.869Z,,,,,,,,,,,,,,,,,48,,,,,,,,,,,,,,358.0429998569307,,response,,,,10,E,,,,,,Space,keypress(Space),,,,lyrical,,,,-- -- --- ------ ------- --------- ----------- --------<br>--------- -------- --- ------- -- ------- ---- -- ------<br>-- --- -------- -------- ---------- ---- ---- ---- ------<br>-- --------- -- ---- -- --- -- --- ------- -- - -----<br>---------- -- -- -- five ----- -- ------ -- --- ------<br>-------,319996.2999999523,319992.39999985695,319617.691,319632.39999985695,319634.357,320001.009,,42,five
screen,html.Screen,2_3_1_0_1_43,2022-02-01T14:08:31.270Z,,,,,,,,,,,,,,,,,48,,,,,,,,,,,,,,393.39099985692883,,response,,,,10,E,,,,,,Space,keypress(Space),,,,lyrical,,,,-- -- --- ------ ------- --------- ----------- --------<br>--------- -------- --- ------- -- ------- ---- -- ------<br>-- --- -------- -------- ---------- ---- ---- ---- ------<br>-- --------- -- ---- -- --- -- --- ------- -- - -----<br>---------- -- -- -- ---- years -- ------ -- --- ------<br>-------,320397.5,320394.39999985695,319984.343,319996.39999985695,320001.009,320400.993,,43,years
