sender,sender_type,sender_id,timestamp,meta,,Blues,Classical,Country,Dance,Electronic,Folk,Gospel,Hip-Hop,Jazz,Latin,Musical/Film,New-age,Pop,Prolific_id,Provo_ID,R&B,Rap,Reggae,Religious,Rock,Soul,Swing,Traditional,age,artist_name,correct,correctResponse,distraction,duration,education,ended_on,familiarity,gender,headphone_check_performance,item,list,music_frequency,offensiveness,pleasantness,position_correct,preference,response,response_action,snippet_file,song_name,song_rating,sound,stimulus_1,stimulus_2,stimulus_3,text,time_commit,time_end,time_render,time_run,time_show,time_switch,url,word,word_ID
Prolific ID,html.Form,0,2022-02-18T13:42:56.283Z,"{""labjs_version"":""20.2.2"",""labjs_build"":{""flavor"":""production"",""commit"":""a25486e0c714a0ae2ce03ff94b7bb6896854dcfa""},""location"":""https://run.pavlovia.org/mvasilev/prolific2_music_f/"",""userAgent"":""Mozilla/5.0 (Macintosh; Intel Mac OS X 10_15_7) AppleWebKit/537.36 (KHTML, like Gecko) Chrome/98.0.4758.80 Safari/537.36"",""platform"":""MacIntel"",""language"":""en-GB"",""locale"":""en-GB"",""timeZone"":""Europe/London"",""timezoneOffset"":0,""screen_width"":1440,""screen_height"":900,""scroll_width"":1440,""scroll_height"":773,""window_innerWidth"":1440,""window_innerHeight"":821,""devicePixelRatio"":1}",,,,,,,,,,,,,,,611adf7c7e7be43825a0676a,,,,,,,,,,,,,,,39625.75100000298,,form submission,,,,,,,,,,,,,,,,,,,,,60357.80000000447,60357.20000000298,20698.115,20711.5,20731.449,60365.575,{},,
Introduction,html.Screen,1_0,2022-02-18T13:43:00.077Z,,,,,,,,,,,,,,,,,,,,,,,,,,,,,,,3769.824999998513,,response,,,,,,,,,,,continue,click button,,,,,,,,,64151.70000000298,64135.39999999851,60348.908,60358.39999999851,60365.575,64165.651,,,
Volume calibration,html.Screen,1_1,2022-02-18T13:43:14.186Z,,,,,,,,,,,,,,,,,,,,,,,,,,,,,,,14068.449000001492,,response,,,,,,,,,,,continue,click button,,,,,,,,,78259.89999999851,78234.10000000149,64148.984,64152,64165.651,78265.933,,,
Task instructions,html.Screen,1_2,2022-02-18T13:43:22.979Z,,,,,,,,,,,,,,,,,,,,,,,,,,,,,,,8769.267000002976,,response,,,,,,,,,,,continue,click button,,,,,,,,,87053.30000000447,87035.20000000298,78249.266,78260,78265.933,87066.109,,,
Sounds,html.Screen,1_3_0_0,2022-02-18T13:43:27.231Z,,,,,,,,,,,,,,,,,,,,,,,,,,,,,,,4250.085000000006,,timeout,,,,,,,,,2,,,,,,,,O,S,I,,91304.89999999851,91299.527,87049.442,87053.60000000149,87066.109,91316.194,,,
Judgement,html.Screen,1_3_0_1,2022-02-18T13:43:28.446Z,,,,,,,,,,,,,,,,,,,,,,,,,,,,true,2,,1194.8059999999969,,response,,,,,,,,,2,,2,click #choice-2,,,,,O,S,I,,92520.60000000149,92511,91299.527,91305.20000000298,91316.194,92532.885,,,
Trial,flow.Sequence,1_3_0,2022-02-18T13:43:28.447Z,,,,,,,,,,,,,,,,,,,,,,,,,,,,,,,5444.891000000003,,completion,,,,,,,,,2,,,,,,,,O,S,I,,92521.10000000149,92511,87049.442,87053.5,87066.109,92532.885,,,
Sounds,html.Screen,1_3_1_0,2022-02-18T13:43:32.695Z,,,,,,,,,,,,,,,,,,,,,,,,,,,,,,,4250.085000000006,,timeout,,,,,,,,,1,,,,,,,,S,I,O,,96769.20000000298,96766.303,92516.218,92521.60000000149,92532.885,96782.97,,,
Judgement,html.Screen,1_3_1_1,2022-02-18T13:43:33.713Z,,,,,,,,,,,,,,,,,,,,,,,,,,,,true,1,,997.630000001489,,response,,,,,,,,,1,,1,click #choice-1,,,,,S,I,O,,97787.39999999851,97780.60000000149,96766.303,96769.39999999851,96782.97,97799.657,,,
Trial,flow.Sequence,1_3_1,2022-02-18T13:43:33.714Z,,,,,,,,,,,,,,,,,,,,,,,,,,,,,,,5247.715000001495,,completion,,,,,,,,,1,,,,,,,,S,I,O,,97787.80000000447,97780.60000000149,92516.218,92521.30000000447,92532.885,97799.657,,,
Sounds,html.Screen,1_3_2_0,2022-02-18T13:43:37.961Z,,,,,,,,,,,,,,,,,,,,,,,,,,,,,,,4250.084999999992,,timeout,,,,,,,,,3,,,,,,,,I,O,S,,102035.5,102033.075,97782.99,97788,97799.657,102049.742,,,
Judgement,html.Screen,1_3_2_1,2022-02-18T13:43:38.714Z,,,,,,,,,,,,,,,,,,,,,,,,,,,,true,3,,727.3580000014917,,response,,,,,,,,,3,,3,click #choice-3,,,,,I,O,S,,102787.80000000447,102777.10000000149,102033.075,102035.70000000298,102049.742,102799.757,,,
Trial,flow.Sequence,1_3_2,2022-02-18T13:43:38.714Z,,,,,,,,,,,,,,,,,,,,,,,,,,,,,,,4977.443000001484,,completion,,,,,,,,,3,,,,,,,,I,O,S,,102788.10000000149,102777.10000000149,97782.99,97787.89999999851,97799.657,102799.757,,,
Sounds,html.Screen,1_3_3_0,2022-02-18T13:43:42.962Z,,,,,,,,,,,,,,,,,,,,,,,,,,,,,,,4250.085000000006,,timeout,,,,,,,,,3,,,,,,,,O,I,S,,107035.60000000149,107033.175,102783.09,102788.39999999851,102799.757,107049.842,,,
Judgement,html.Screen,1_3_3_1,2022-02-18T13:43:43.997Z,,,,,,,,,,,,,,,,,,,,,,,,,,,,true,3,,1005.0579999985057,,response,,,,,,,,,3,,3,click #choice-3,,,,,O,I,S,,108071.30000000447,108054.89999999851,107033.175,107035.70000000298,107049.842,108083.196,,,
Trial,flow.Sequence,1_3_3,2022-02-18T13:43:43.998Z,,,,,,,,,,,,,,,,,,,,,,,,,,,,,,,5255.142999998512,,completion,,,,,,,,,3,,,,,,,,O,I,S,,108071.60000000149,108054.89999999851,102783.09,102788.30000000447,102799.757,108083.196,,,
Sounds,html.Screen,1_3_4_0,2022-02-18T13:43:48.245Z,,,,,,,,,,,,,,,,,,,,,,,,,,,,,,,4250.085000000006,,timeout,,,,,,,,,2,,,,,,,,I,S,O,,112318.89999999851,112316.614,108066.529,108071.89999999851,108083.196,112333.281,,,
Judgement,html.Screen,1_3_4_1,2022-02-18T13:43:48.752Z,,,,,,,,,,,,,,,,,,,,,,,,,,,,true,2,,482.1189999985072,,response,,,,,,,,,2,,2,click #choice-2,,,,,I,S,O,,112825.5,112815.39999999851,112316.614,112319.10000000149,112333.281,112833.291,,,
Trial,flow.Sequence,1_3_4,2022-02-18T13:43:48.752Z,,,,,,,,,,,,,,,,,,,,,,,,,,,,,,,4732.203999998514,,completion,,,,,,,,,2,,,,,,,,I,S,O,,112825.70000000298,112815.39999999851,108066.529,108071.70000000298,108083.196,112833.291,,,
Sounds,html.Screen,1_3_5_0,2022-02-18T13:43:52.995Z,,,,,,,,,,,,,,,,,,,,,,,,,,,,,,,4250.085000000006,,timeout,,,,,,,,,1,,,,,,,,S,O,I,,117069,117066.709,112816.624,112825.80000000447,112833.291,117083.376,,,
Judgement,html.Screen,1_3_5_1,2022-02-18T13:43:53.685Z,,,,,,,,,,,,,,,,,,,,,,,,,,,,true,1,,664.523999998506,,response,,,,,,,,,1,,1,click #choice-1,,,,,S,O,I,,117758.70000000298,117747.89999999851,117066.709,117070.30000000447,117083.376,117766.723,,,
Trial,flow.Sequence,1_3_5,2022-02-18T13:43:53.685Z,,,,,,,,,,,,,,,,,,,,,,,,,,,,,,,4914.608999998512,,completion,,,,,,,,,1,,,,,,,,S,O,I,,117759,117747.89999999851,112816.624,112825.80000000447,112833.291,117766.723,,,
Task,flow.Loop,1_3,2022-02-18T13:43:53.691Z,,,,,,,,,,,,,,,,,,,,,,,,,,,,,,,30681.790999998513,,completion,,,1,,,,,,,,,,,,,,,,,,117764.89999999851,117747.89999999851,87049.442,87053.5,87066.109,117766.723,,,
Trap,html.Screen,1_4,2022-02-18T13:43:53.692Z,,,,,,,,,,,,,,,,,,,,,,,,,,,,,,,NaN,,skipped,,,,,,,,,,,,,,,,,,,,,117766.10000000149,117747.89999999851,,117766,,117766.723,,,
Thanks,html.Screen,1_5,2022-02-18T13:44:23.917Z,,,,,,,,,,,,,,,,,,,,,,,,,,,,,,,30206.077000004472,,response,,,,,,,,,,,continue,click button,,,,,,,,,147990.80000000447,147972.80000000447,117750.056,117766.20000000298,117766.723,150234.039,,,
Headphone screening,flow.Sequence,1,2022-02-18T13:44:23.918Z,,,,,,,,,,,,,,,,,,,,,,,,,,,,,,,87607.22500000447,,completion,,,,,,,,,,,,,,,,,,,,,147991,147972.80000000447,60348.908,60358.30000000447,60365.575,150234.039,,,
Instructions,html.Page,2_0,2022-02-18T13:44:35.675Z,,,,,,,,,,,,,,,,,,,,,,,,,,,,,,,9514.0610000015,,form submission,,,,,,,,,,,,,,,,,,,,,159748.6000000015,159748.1000000015,150217.372,150242.20000000298,150234.039,159750.896,,,
Holding screen,html.Screen,2_1_0_0,2022-02-18T13:44:45.663Z,,,,,,,,,,,,,,,,,,,,,,,,,,,,,,,10000.199999999983,,timeout,,,,,,,,,,,,,,,,,,,,,169736,169734.429,159734.229,159748.70000000298,159750.896,169751.096,,,
screen,html.Screen,2_1_0_1_0,2022-02-18T13:44:46.578Z,,,,,,,,,,,,,,,,,53,,,,,,,,,,,,,,889.4040000000095,,response,,,,99,,,,,,,Space,keypress(Space),,,,,,,,When -- ----- -- ------ - ------- --- ----------<br>------------- ------ ------ ---- ---- ------- ----- -- ----<br>-------- ------- -- ---------- --- - --- ----- ----- ----<br>---- --- --- ----- --- ---- ---- ------- ----- ---- -------<br>--- --- -- ----- -- --- ---- -- --- ---- -- ------ ------<br>--- ----- -- ----,170651.1000000015,170640.5,169734.429,169736.30000000447,169751.096,170667.781,,0,When
screen,html.Screen,2_1_0_1_1,2022-02-18T13:44:46.723Z,,,,,,,,,,,,,,,,,53,,,,,,,,,,,,,,119.4190000029921,,response,,,,99,,,,,,,Space,keypress(Space),,,,,,,,---- it ----- -- ------ - ------- --- ----------<br>------------- ------ ------ ---- ---- ------- ----- -- ----<br>-------- ------- -- ---------- --- - --- ----- ----- ----<br>---- --- --- ----- --- ---- ---- ------- ----- ---- -------<br>--- --- -- ----- -- --- ---- -- --- ---- -- ------ ------<br>--- ----- -- ----,170796.1000000015,170787.20000000298,170651.114,170651.20000000298,170667.781,170801.117,,1,it
screen,html.Screen,2_1_0_1_2,2022-02-18T13:44:46.964Z,,,,,,,,,,,,,,,,,53,,,,,,,,,,,,,,228.98300000149175,,response,,,,99,,,,,,,Space,keypress(Space),,,,,,,,---- -- comes -- ------ - ------- --- ----------<br>------------- ------ ------ ---- ---- ------- ----- -- ----<br>-------- ------- -- ---------- --- - --- ----- ----- ----<br>---- --- --- ----- --- ---- ---- ------- ----- ---- -------<br>--- --- -- ----- -- --- ---- -- --- ---- -- ------ ------<br>--- ----- -- ----,171037.1000000015,171030.1000000015,170784.45,170796.30000000447,170801.117,171051.122,,2,comes
screen,html.Screen,2_1_0_1_3,2022-02-18T13:44:47.213Z,,,,,,,,,,,,,,,,,53,,,,,,,,,,,,,,227.9780000014871,,response,,,,99,,,,,,,Space,keypress(Space),,,,,,,,---- -- ----- to ------ - ------- --- ----------<br>------------- ------ ------ ---- ---- ------- ----- -- ----<br>-------- ------- -- ---------- --- - --- ----- ----- ----<br>---- --- --- ----- --- ---- ---- ------- ----- ---- -------<br>--- --- -- ----- -- --- ---- -- --- ---- -- ------ ------<br>--- ----- -- ----,171286,171279.1000000015,171034.455,171037.30000000447,171051.122,171301.127,,3,to
screen,html.Screen,2_1_0_1_4,2022-02-18T13:44:47.467Z,,,,,,,,,,,,,,,,,53,,,,,,,,,,,,,,231.97300000148243,,response,,,,99,,,,,,,Space,keypress(Space),,,,,,,,---- -- ----- -- having - ------- --- ----------<br>------------- ------ ------ ---- ---- ------- ----- -- ----<br>-------- ------- -- ---------- --- - --- ----- ----- ----<br>---- --- --- ----- --- ---- ---- ------- ----- ---- -------<br>--- --- -- ----- -- --- ---- -- --- ---- -- ------ ------<br>--- ----- -- ----,171540.1000000015,171533.1000000015,171284.46,171286.1000000015,171301.127,171551.132,,4,having
screen,html.Screen,2_1_0_1_5,2022-02-18T13:44:47.643Z,,,,,,,,,,,,,,,,,53,,,,,,,,,,,,,,158.0680000029679,,response,,,,99,,,,,,,Space,keypress(Space),,,,,,,,---- -- ----- -- ------ a ------- --- ----------<br>------------- ------ ------ ---- ---- ------- ----- -- ----<br>-------- ------- -- ---------- --- - --- ----- ----- ----<br>---- --- --- ----- --- ---- ---- ------- ----- ---- -------<br>--- --- -- ----- -- --- ---- -- --- ---- -- ------ ------<br>--- ----- -- ----,171716,171709.20000000298,171534.465,171540.20000000298,171551.132,171717.802,,5,a
screen,html.Screen,2_1_0_1_6,2022-02-18T13:44:48.110Z,,,,,,,,,,,,,,,,,53,,,,,,,,,,,,,,458.2980000014941,,response,,,,99,,,,,,,Space,keypress(Space),,,,,,,,---- -- ----- -- ------ - lasting --- ----------<br>------------- ------ ------ ---- ---- ------- ----- -- ----<br>-------- ------- -- ---------- --- - --- ----- ----- ----<br>---- --- --- ----- --- ---- ---- ------- ----- ---- -------<br>--- --- -- ----- -- --- ---- -- --- ---- -- ------ ------<br>--- ----- -- ----,172182.8999999985,172176.1000000015,171701.135,171716.1000000015,171717.802,172184.478,,6,lasting
screen,html.Screen,2_1_0_1_7,2022-02-18T13:44:48.413Z,,,,,,,,,,,,,,,,,53,,,,,,,,,,,,,,294.5219999999972,,response,,,,99,,,,,,,Space,keypress(Space),,,,,,,,---- -- ----- -- ------ - ------- and ----------<br>------------- ------ ------ ---- ---- ------- ----- -- ----<br>-------- ------- -- ---------- --- - --- ----- ----- ----<br>---- --- --- ----- --- ---- ---- ------- ----- ---- -------<br>--- --- -- ----- -- --- ---- -- --- ---- -- ------ ------<br>--- ----- -- ----,172486,172479,172167.811,172183.1000000015,172184.478,172501.151,,7,and
screen,html.Screen,2_1_0_1_8,2022-02-18T13:44:48.567Z,,,,,,,,,,,,,,,,,53,,,,,,,,,,,,,,131.7489999984973,,response,,,,99,,,,,,,Space,keypress(Space),,,,,,,,---- -- ----- -- ------ - ------- --- fulfilling<br>------------- ------ ------ ---- ---- ------- ----- -- ----<br>-------- ------- -- ---------- --- - --- ----- ----- ----<br>---- --- --- ----- --- ---- ---- ------- ----- ---- -------<br>--- --- -- ----- -- --- ---- -- --- ---- -- ------ ------<br>--- ----- -- ----,172639.80000000447,172632.8999999985,172484.484,172486.20000000298,172501.151,172651.154,,8,fulfilling
screen,html.Screen,2_1_0_1_9,2022-02-18T13:44:48.846Z,,,,,,,,,,,,,,,,,53,,,,,,,,,,,,,,260.84599999999045,,response,,,,99,,,,,,,Space,keypress(Space),,,,,,,,"---- -- ----- -- ------ - ------- --- ----------<br>relationship, ------ ------ ---- ---- ------- ----- -- ----<br>-------- ------- -- ---------- --- - --- ----- ----- ----<br>---- --- --- ----- --- ---- ---- ------- ----- ---- -------<br>--- --- -- ----- -- --- ---- -- --- ---- -- ------ ------<br>--- ----- -- ----",172918.80000000447,172912,172634.487,172639.8999999985,172651.154,172934.493,,9,"relationship,"
screen,html.Screen,2_1_0_1_10,2022-02-18T13:44:49.115Z,,,,,,,,,,,,,,,,,53,,,,,,,,,,,,,,246.50700000001234,,response,,,,99,,,,,,,Space,keypress(Space),,,,,,,,---- -- ----- -- ------ - ------- --- ----------<br>------------- common ------ ---- ---- ------- ----- -- ----<br>-------- ------- -- ---------- --- - --- ----- ----- ----<br>---- --- --- ----- --- ---- ---- ------- ----- ---- -------<br>--- --- -- ----- -- --- ---- -- --- ---- -- ------ ------<br>--- ----- -- ----,173188,173181,172917.826,172918.8999999985,172934.493,173201.165,,10,common
screen,html.Screen,2_1_0_1_11,2022-02-18T13:44:49.423Z,,,,,,,,,,,,,,,,,53,,,,,,,,,,,,,,287.83499999999185,,response,,,,99,,,,,,,Space,keypress(Space),,,,,,,,---- -- ----- -- ------ - ------- --- ----------<br>------------- ------ wisdom ---- ---- ------- ----- -- ----<br>-------- ------- -- ---------- --- - --- ----- ----- ----<br>---- --- --- ----- --- ---- ---- ------- ----- ---- -------<br>--- --- -- ----- -- --- ---- -- --- ---- -- ------ ------<br>--- ----- -- ----,173496,173489,173184.498,173188.20000000298,173201.165,173501.171,,11,wisdom
screen,html.Screen,2_1_0_1_12,2022-02-18T13:44:49.685Z,,,,,,,,,,,,,,,,,53,,,,,,,,,,,,,,249.8289999999979,,response,,,,99,,,,,,,Space,keypress(Space),,,,,,,,---- -- ----- -- ------ - ------- --- ----------<br>------------- ------ ------ says ---- ------- ----- -- ----<br>-------- ------- -- ---------- --- - --- ----- ----- ----<br>---- --- --- ----- --- ---- ---- ------- ----- ---- -------<br>--- --- -- ----- -- --- ---- -- --- ---- -- ------ ------<br>--- ----- -- ----,173758,173751,173484.504,173496.20000000298,173501.171,173767.843,,12,says
screen,html.Screen,2_1_0_1_13,2022-02-18T13:44:49.906Z,,,,,,,,,,,,,,,,,53,,,,,,,,,,,,,,204.15700000000652,,response,,,,99,,,,,,,Space,keypress(Space),,,,,,,,---- -- ----- -- ------ - ------- --- ----------<br>------------- ------ ------ ---- that ------- ----- -- ----<br>-------- ------- -- ---------- --- - --- ----- ----- ----<br>---- --- --- ----- --- ---- ---- ------- ----- ---- -------<br>--- --- -- ----- -- --- ---- -- --- ---- -- ------ ------<br>--- ----- -- ----,173979,173972,173751.176,173758.1000000015,173767.843,173984.514,,13,that
screen,html.Screen,2_1_0_1_14,2022-02-18T13:44:50.154Z,,,,,,,,,,,,,,,,,53,,,,,,,,,,,,,,235.48600000000442,,response,,,,99,,,,,,,Space,keypress(Space),,,,,,,,---- -- ----- -- ------ - ------- --- ----------<br>------------- ------ ------ ---- ---- feeling ----- -- ----<br>-------- ------- -- ---------- --- - --- ----- ----- ----<br>---- --- --- ----- --- ---- ---- ------- ----- ---- -------<br>--- --- -- ----- -- --- ---- -- --- ---- -- ------ ------<br>--- ----- -- ----,174227,174220,173967.847,173979.1000000015,173984.514,174234.519,,14,feeling
screen,html.Screen,2_1_0_1_15,2022-02-18T13:44:50.388Z,,,,,,,,,,,,,,,,,53,,,,,,,,,,,,,,219.38099999850965,,response,,,,99,,,,,,,Space,keypress(Space),,,,,,,,---- -- ----- -- ------ - ------- --- ----------<br>------------- ------ ------ ---- ---- ------- close -- ----<br>-------- ------- -- ---------- --- - --- ----- ----- ----<br>---- --- --- ----- --- ---- ---- ------- ----- ---- -------<br>--- --- -- ----- -- --- ---- -- --- ---- -- ------ ------<br>--- ----- -- ----,174460.8999999985,174453.8999999985,174217.852,174227.1000000015,174234.519,174467.857,,15,close
screen,html.Screen,2_1_0_1_16,2022-02-18T13:44:50.721Z,,,,,,,,,,,,,,,,,53,,,,,,,,,,,,,,319.0429999985208,,response,,,,99,,,,,,,Space,keypress(Space),,,,,,,,---- -- ----- -- ------ - ------- --- ----------<br>------------- ------ ------ ---- ---- ------- ----- to ----<br>-------- ------- -- ---------- --- - --- ----- ----- ----<br>---- --- --- ----- --- ---- ---- ------- ----- ---- -------<br>--- --- -- ----- -- --- ---- -- --- ---- -- ------ ------<br>--- ----- -- ----,174793.70000000298,174786.8999999985,174451.19,174461,174467.857,174801.197,,16,to
screen,html.Screen,2_1_0_1_17,2022-02-18T13:44:51.010Z,,,,,,,,,,,,,,,,,53,,,,,,,,,,,,,,274.7029999985243,,response,,,,99,,,,,,,Space,keypress(Space),,,,,,,,---- -- ----- -- ------ - ------- --- ----------<br>------------- ------ ------ ---- ---- ------- ----- -- your<br>-------- ------- -- ---------- --- - --- ----- ----- ----<br>---- --- --- ----- --- ---- ---- ------- ----- ---- -------<br>--- --- -- ----- -- --- ---- -- --- ---- -- ------ ------<br>--- ----- -- ----,175082.8999999985,175075.8999999985,174784.53,174793.8999999985,174801.197,175084.536,,17,your
screen,html.Screen,2_1_0_1_18,2022-02-18T13:44:51.304Z,,,,,,,,,,,,,,,,,53,,,,,,,,,,,,,,285.26400000447757,,response,,,,99,,,,,,,Space,keypress(Space),,,,,,,,---- -- ----- -- ------ - ------- --- ----------<br>------------- ------ ------ ---- ---- ------- ----- -- ----<br>romantic ------- -- ---------- --- - --- ----- ----- ----<br>---- --- --- ----- --- ---- ---- ------- ----- ---- -------<br>--- --- -- ----- -- --- ---- -- --- ---- -- ------ ------<br>--- ----- -- ----,175376.8999999985,175369.80000000447,175067.869,175083,175084.536,175384.542,,18,romantic
screen,html.Screen,2_1_0_1_19,2022-02-18T13:44:51.508Z,,,,,,,,,,,,,,,,,53,,,,,,,,,,,,,,189.25800000448362,,response,,,,99,,,,,,,Space,keypress(Space),,,,,,,,---- -- ----- -- ------ - ------- --- ----------<br>------------- ------ ------ ---- ---- ------- ----- -- ----<br>-------- partner -- ---------- --- - --- ----- ----- ----<br>---- --- --- ----- --- ---- ---- ------- ----- ---- -------<br>--- --- -- ----- -- --- ---- -- --- ---- -- ------ ------<br>--- ----- -- ----,175580.70000000298,175573.80000000447,175367.875,175377.1000000015,175384.542,175584.546,,19,partner
screen,html.Screen,2_1_0_1_20,2022-02-18T13:44:51.769Z,,,,,,,,,,,,,,,,,53,,,,,,,,,,,,,,250.25400000446825,,response,,,,99,,,,,,,Space,keypress(Space),,,,,,,,---- -- ----- -- ------ - ------- --- ----------<br>------------- ------ ------ ---- ---- ------- ----- -- ----<br>-------- ------- is ---------- --- - --- ----- ----- ----<br>---- --- --- ----- --- ---- ---- ------- ----- ---- -------<br>--- --- -- ----- -- --- ---- -- --- ---- -- ------ ------<br>--- ----- -- ----,175841.80000000447,175834.80000000447,175567.879,175580.80000000447,175584.546,175851.218,,20,is
screen,html.Screen,2_1_0_1_21,2022-02-18T13:44:52.008Z,,,,,,,,,,,,,,,,,53,,,,,,,,,,,,,,222.58200000447687,,response,,,,99,,,,,,,Space,keypress(Space),,,,,,,,---- -- ----- -- ------ - ------- --- ----------<br>------------- ------ ------ ---- ---- ------- ----- -- ----<br>-------- ------- -- paramount. --- - --- ----- ----- ----<br>---- --- --- ----- --- ---- ---- ------- ----- ---- -------<br>--- --- -- ----- -- --- ---- -- --- ---- -- ------ ------<br>--- ----- -- ----,176080.8999999985,176073.80000000447,175834.551,175842.1000000015,175851.218,176084.556,,21,paramount.
screen,html.Screen,2_1_0_1_22,2022-02-18T13:44:52.276Z,,,,,,,,,,,,,,,,,53,,,,,,,,,,,,,,257.24400000445894,,response,,,,99,,,,,,,Space,keypress(Space),,,,,,,,---- -- ----- -- ------ - ------- --- ----------<br>------------- ------ ------ ---- ---- ------- ----- -- ----<br>-------- ------- -- ---------- But - --- ----- ----- ----<br>---- --- --- ----- --- ---- ---- ------- ----- ---- -------<br>--- --- -- ----- -- --- ---- -- --- ---- -- ------ ------<br>--- ----- -- ----,176349.30000000447,176341.80000000447,176067.889,176081.1000000015,176084.556,176351.228,,22,But
screen,html.Screen,2_1_0_1_23,2022-02-18T13:44:52.577Z,,,,,,,,,,,,,,,,,53,,,,,,,,,,,,,,291.47200000297744,,response,,,,99,,,,,,,Space,keypress(Space),,,,,,,,---- -- ----- -- ------ - ------- --- ----------<br>------------- ------ ------ ---- ---- ------- ----- -- ----<br>-------- ------- -- ---------- --- a --- ----- ----- ----<br>---- --- --- ----- --- ---- ---- ------- ----- ---- -------<br>--- --- -- ----- -- --- ---- -- --- ---- -- ------ ------<br>--- ----- -- ----,176649.70000000298,176642.70000000298,176334.561,176349.5,176351.228,176651.234,,23,a
screen,html.Screen,2_1_0_1_24,2022-02-18T13:44:52.848Z,,,,,,,,,,,,,,,,,53,,,,,,,,,,,,,,262.4660000029835,,response,,,,99,,,,,,,Space,keypress(Space),,,,,,,,---- -- ----- -- ------ - ------- --- ----------<br>------------- ------ ------ ---- ---- ------- ----- -- ----<br>-------- ------- -- ---------- --- - new ----- ----- ----<br>---- --- --- ----- --- ---- ---- ------- ----- ---- -------<br>--- --- -- ----- -- --- ---- -- --- ---- -- ------ ------<br>--- ----- -- ----,176920.5,176913.70000000298,176634.567,176649.8999999985,176651.234,176934.573,,24,new
screen,html.Screen,2_1_0_1_25,2022-02-18T13:44:53.038Z,,,,,,,,,,,,,,,,,53,,,,,,,,,,,,,,169.12700000297627,,response,,,,99,,,,,,,Space,keypress(Space),,,,,,,,---- -- ----- -- ------ - ------- --- ----------<br>------------- ------ ------ ---- ---- ------- ----- -- ----<br>-------- ------- -- ---------- --- - --- study ----- ----<br>---- --- --- ----- --- ---- ---- ------- ----- ---- -------<br>--- --- -- ----- -- --- ---- -- --- ---- -- ------ ------<br>--- ----- -- ----,177110.80000000447,177103.70000000298,176917.906,176920.70000000298,176934.573,177117.91,,25,study
screen,html.Screen,2_1_0_1_26,2022-02-18T13:44:53.250Z,,,,,,,,,,,,,,,,,53,,,,,,,,,,,,,,197.79000000297674,,response,,,,99,,,,,,,Space,keypress(Space),,,,,,,,---- -- ----- -- ------ - ------- --- ----------<br>------------- ------ ------ ---- ---- ------- ----- -- ----<br>-------- ------- -- ---------- --- - --- ----- finds ----<br>---- --- --- ----- --- ---- ---- ------- ----- ---- -------<br>--- --- -- ----- -- --- ---- -- --- ---- -- ------ ------<br>--- ----- -- ----,177322.8999999985,177315.70000000298,177101.243,177110.8999999985,177117.91,177334.581,,26,finds
screen,html.Screen,2_1_0_1_27,2022-02-18T13:44:53.529Z,,,,,,,,,,,,,,,,,53,,,,,,,,,,,,,,261.11900000297464,,response,,,,99,,,,,,,Space,keypress(Space),,,,,,,,---- -- ----- -- ------ - ------- --- ----------<br>------------- ------ ------ ---- ---- ------- ----- -- ----<br>-------- ------- -- ---------- --- - --- ----- ----- that<br>---- --- --- ----- --- ---- ---- ------- ----- ---- -------<br>--- --- -- ----- -- --- ---- -- --- ---- -- ------ ------<br>--- ----- -- ----,177602.3999999985,177595.70000000298,177317.914,177323.1000000015,177334.581,177617.92,,27,that
screen,html.Screen,2_1_0_1_28,2022-02-18T13:44:53.800Z,,,,,,,,,,,,,,,,,53,,,,,,,,,,,,,,248.78000000296743,,response,,,,99,,,,,,,Space,keypress(Space),,,,,,,,---- -- ----- -- ------ - ------- --- ----------<br>------------- ------ ------ ---- ---- ------- ----- -- ----<br>-------- ------- -- ---------- --- - --- ----- ----- ----<br>it's --- --- ----- --- ---- ---- ------- ----- ---- -------<br>--- --- -- ----- -- --- ---- -- --- ---- -- ------ ------<br>--- ----- -- ----,177873.3999999985,177866.70000000298,177601.253,177602.6000000015,177617.92,177884.592,,28,it's
screen,html.Screen,2_1_0_1_29,2022-02-18T13:44:54.023Z,,,,,,,,,,,,,,,,,53,,,,,,,,,,,,,,204.10800000297604,,response,,,,99,,,,,,,Space,keypress(Space),,,,,,,,---- -- ----- -- ------ - ------- --- ----------<br>------------- ------ ------ ---- ---- ------- ----- -- ----<br>-------- ------- -- ---------- --- - --- ----- ----- ----<br>---- not --- ----- --- ---- ---- ------- ----- ---- -------<br>--- --- -- ----- -- --- ---- -- --- ---- -- ------ ------<br>--- ----- -- ----,178095.70000000298,178088.70000000298,177867.925,177873.6000000015,177884.592,178101.263,,29,not
screen,html.Screen,2_1_0_1_30,2022-02-18T13:44:54.425Z,,,,,,,,,,,,,,,,,53,,,,,,,,,,,,,,390.33700000148383,,response,,,,99,,,,,,,Space,keypress(Space),,,,,,,,---- -- ----- -- ------ - ------- --- ----------<br>------------- ------ ------ ---- ---- ------- ----- -- ----<br>-------- ------- -- ---------- --- - --- ----- ----- ----<br>---- --- how ----- --- ---- ---- ------- ----- ---- -------<br>--- --- -- ----- -- --- ---- -- --- ---- -- ------ ------<br>--- ----- -- ----,178498.5,178491.6000000015,178084.596,178095.80000000447,178101.263,178501.271,,30,how
screen,html.Screen,2_1_0_1_31,2022-02-18T13:44:54.619Z,,,,,,,,,,,,,,,,,53,,,,,,,,,,,,,,183.3290000014822,,response,,,,99,,,,,,,Space,keypress(Space),,,,,,,,---- -- ----- -- ------ - ------- --- ----------<br>------------- ------ ------ ---- ---- ------- ----- -- ----<br>-------- ------- -- ---------- --- - --- ----- ----- ----<br>---- --- --- close --- ---- ---- ------- ----- ---- -------<br>--- --- -- ----- -- --- ---- -- --- ---- -- ------ ------<br>--- ----- -- ----,178691.5,178684.6000000015,178484.604,178498.70000000298,178501.271,178701.275,,31,close
screen,html.Screen,2_1_0_1_32,2022-02-18T13:44:54.789Z,,,,,,,,,,,,,,,,,53,,,,,,,,,,,,,,153.42500000298605,,response,,,,99,,,,,,,Space,keypress(Space),,,,,,,,---- -- ----- -- ------ - ------- --- ----------<br>------------- ------ ------ ---- ---- ------- ----- -- ----<br>-------- ------- -- ---------- --- - --- ----- ----- ----<br>---- --- --- ----- you ---- ---- ------- ----- ---- -------<br>--- --- -- ----- -- --- ---- -- --- ---- -- ------ ------<br>--- ----- -- ----,178861.8999999985,178854.70000000298,178684.608,178691.6000000015,178701.275,178867.945,,32,you
screen,html.Screen,2_1_0_1_33,2022-02-18T13:44:55.015Z,,,,,,,,,,,,,,,,,53,,,,,,,,,,,,,,213.65500000148313,,response,,,,99,,,,,,,Space,keypress(Space),,,,,,,,---- -- ----- -- ------ - ------- --- ----------<br>------------- ------ ------ ---- ---- ------- ----- -- ----<br>-------- ------- -- ---------- --- - --- ----- ----- ----<br>---- --- --- ----- --- feel ---- ------- ----- ---- -------<br>--- --- -- ----- -- --- ---- -- --- ---- -- ------ ------<br>--- ----- -- ----,179088.20000000298,179081.6000000015,178851.278,178862.20000000298,178867.945,179101.283,,33,feel
screen,html.Screen,2_1_0_1_34,2022-02-18T13:44:55.185Z,,,,,,,,,,,,,,,,,53,,,,,,,,,,,,,,150.3170000014943,,response,,,,99,,,,,,,Space,keypress(Space),,,,,,,,---- -- ----- -- ------ - ------- --- ----------<br>------------- ------ ------ ---- ---- ------- ----- -- ----<br>-------- ------- -- ---------- --- - --- ----- ----- ----<br>---- --- --- ----- --- ---- that ------- ----- ---- -------<br>--- --- -- ----- -- --- ---- -- --- ---- -- ------ ------<br>--- ----- -- ----,179258.3999999985,179251.6000000015,179084.616,179088.3999999985,179101.283,179267.953,,34,that
screen,html.Screen,2_1_0_1_35,2022-02-18T13:44:55.392Z,,,,,,,,,,,,,,,,,53,,,,,,,,,,,,,,192.34700000446173,,response,,,,99,,,,,,,Space,keypress(Space),,,,,,,,---- -- ----- -- ------ - ------- --- ----------<br>------------- ------ ------ ---- ---- ------- ----- -- ----<br>-------- ------- -- ---------- --- - --- ----- ----- ----<br>---- --- --- ----- --- ---- ---- matters ----- ---- -------<br>--- --- -- ----- -- --- ---- -- --- ---- -- ------ ------<br>--- ----- -- ----,179464.6000000015,179460.30000000447,179251.286,179258.6000000015,179267.953,179484.624,,35,matters
screen,html.Screen,2_1_0_1_36,2022-02-18T13:44:55.579Z,,,,,,,,,,,,,,,,,53,,,,,,,,,,,,,,161.67600000445964,,response,,,,99,,,,,,,Space,keypress(Space),,,,,,,,"---- -- ----- -- ------ - ------- --- ----------<br>------------- ------ ------ ---- ---- ------- ----- -- ----<br>-------- ------- -- ---------- --- - --- ----- ----- ----<br>---- --- --- ----- --- ---- ---- ------- most, ---- -------<br>--- --- -- ----- -- --- ---- -- --- ---- -- ------ ------<br>--- ----- -- ----",179651.5,179646.30000000447,179467.957,179464.70000000298,179484.624,179667.961,,36,"most,"
screen,html.Screen,2_1_0_1_37,2022-02-18T13:44:55.824Z,,,,,,,,,,,,,,,,,53,,,,,,,,,,,,,,222.53899999998976,,response,,,,99,,,,,,,Space,keypress(Space),,,,,,,,---- -- ----- -- ------ - ------- --- ----------<br>------------- ------ ------ ---- ---- ------- ----- -- ----<br>-------- ------- -- ---------- --- - --- ----- ----- ----<br>---- --- --- ----- --- ---- ---- ------- ----- it's -------<br>--- --- -- ----- -- --- ---- -- --- ---- -- ------ ------<br>--- ----- -- ----,179897.3999999985,179890.5,179651.294,179652.80000000447,179667.961,179901.299,,37,it's
screen,html.Screen,2_1_0_1_38,2022-02-18T13:44:56.158Z,,,,,,,,,,,,,,,,,53,,,,,,,,,,,,,,323.1009999985108,,response,,,,99,,,,,,,Space,keypress(Space),,,,,,,,---- -- ----- -- ------ - ------- --- ----------<br>------------- ------ ------ ---- ---- ------- ----- -- ----<br>-------- ------- -- ---------- --- - --- ----- ----- ----<br>---- --- --- ----- --- ---- ---- ------- ----- ---- whether<br>--- --- -- ----- -- --- ---- -- --- ---- -- ------ ------<br>--- ----- -- ----,180231.30000000447,180224.3999999985,179884.632,179897.5,179901.299,180234.639,,38,whether
screen,html.Screen,2_1_0_1_39,2022-02-18T13:44:56.387Z,,,,,,,,,,,,,,,,,53,,,,,,,,,,,,,,218.86100000000442,,response,,,,99,,,,,,,Space,keypress(Space),,,,,,,,---- -- ----- -- ------ - ------- --- ----------<br>------------- ------ ------ ---- ---- ------- ----- -- ----<br>-------- ------- -- ---------- --- - --- ----- ----- ----<br>---- --- --- ----- --- ---- ---- ------- ----- ---- -------<br>you --- -- ----- -- --- ---- -- --- ---- -- ------ ------<br>--- ----- -- ----,180460.3999999985,180453.5,180217.972,180231.3999999985,180234.639,180467.977,,39,you
screen,html.Screen,2_1_0_1_40,2022-02-18T13:44:56.594Z,,,,,,,,,,,,,,,,,53,,,,,,,,,,,,,,191.5229999999865,,response,,,,99,,,,,,,Space,keypress(Space),,,,,,,,---- -- ----- -- ------ - ------- --- ----------<br>------------- ------ ------ ---- ---- ------- ----- -- ----<br>-------- ------- -- ---------- --- - --- ----- ----- ----<br>---- --- --- ----- --- ---- ---- ------- ----- ---- -------<br>--- are -- ----- -- --- ---- -- --- ---- -- ------ ------<br>--- ----- -- ----,180666.80000000447,180659.5,180451.31,180460.5,180467.977,180684.648,,40,are
screen,html.Screen,2_1_0_1_41,2022-02-18T13:44:56.780Z,,,,,,,,,,,,,,,,,53,,,,,,,,,,,,,,163.55200000299374,,response,,,,99,,,,,,,Space,keypress(Space),,,,,,,,---- -- ----- -- ------ - ------- --- ----------<br>------------- ------ ------ ---- ---- ------- ----- -- ----<br>-------- ------- -- ---------- --- - --- ----- ----- ----<br>---- --- --- ----- --- ---- ---- ------- ----- ---- -------<br>--- --- as ----- -- --- ---- -- --- ---- -- ------ ------<br>--- ----- -- ----,180852.6000000015,180848.20000000298,180667.981,180667,180684.648,180867.985,,41,as
screen,html.Screen,2_1_0_1_42,2022-02-18T13:44:56.995Z,,,,,,,,,,,,,,,,,53,,,,,,,,,,,,,,192.41499999852385,,response,,,,99,,,,,,,Space,keypress(Space),,,,,,,,---- -- ----- -- ------ - ------- --- ----------<br>------------- ------ ------ ---- ---- ------- ----- -- ----<br>-------- ------- -- ---------- --- - --- ----- ----- ----<br>---- --- --- ----- --- ---- ---- ------- ----- ---- -------<br>--- --- -- close -- --- ---- -- --- ---- -- ------ ------<br>--- ----- -- ----,181067.3999999985,181060.3999999985,180851.318,180852.6000000015,180867.985,181084.656,,42,close
screen,html.Screen,2_1_0_1_43,2022-02-18T13:44:57.202Z,,,,,,,,,,,,,,,,,53,,,,,,,,,,,,,,183.74399999852176,,response,,,,99,,,,,,,Space,keypress(Space),,,,,,,,---- -- ----- -- ------ - ------- --- ----------<br>------------- ------ ------ ---- ---- ------- ----- -- ----<br>-------- ------- -- ---------- --- - --- ----- ----- ----<br>---- --- --- ----- --- ---- ---- ------- ----- ---- -------<br>--- --- -- ----- as --- ---- -- --- ---- -- ------ ------<br>--- ----- -- ----,181275.30000000447,181268.3999999985,181067.989,181067.70000000298,181084.656,181284.66,,43,as
screen,html.Screen,2_1_0_1_44,2022-02-18T13:44:57.399Z,,,,,,,,,,,,,,,,,53,,,,,,,,,,,,,,180.7399999985064,,response,,,,99,,,,,,,Space,keypress(Space),,,,,,,,---- -- ----- -- ------ - ------- --- ----------<br>------------- ------ ------ ---- ---- ------- ----- -- ----<br>-------- ------- -- ---------- --- - --- ----- ----- ----<br>---- --- --- ----- --- ---- ---- ------- ----- ---- -------<br>--- --- -- ----- -- you ---- -- --- ---- -- ------ ------<br>--- ----- -- ----,181472.20000000298,181465.3999999985,181267.993,181275.80000000447,181284.66,181484.664,,44,you
screen,html.Screen,2_1_0_1_45,2022-02-18T13:44:57.595Z,,,,,,,,,,,,,,,,,53,,,,,,,,,,,,,,176.73599999852013,,response,,,,99,,,,,,,Space,keypress(Space),,,,,,,,---- -- ----- -- ------ - ------- --- ----------<br>------------- ------ ------ ---- ---- ------- ----- -- ----<br>-------- ------- -- ---------- --- - --- ----- ----- ----<br>---- --- --- ----- --- ---- ---- ------- ----- ---- -------<br>--- --- -- ----- -- --- want -- --- ---- -- ------ ------<br>--- ----- -- ----,181668.20000000298,181661.3999999985,181467.997,181472.3999999985,181484.664,181684.668,,45,want
screen,html.Screen,2_1_0_1_46,2022-02-18T13:44:57.818Z,,,,,,,,,,,,,,,,,53,,,,,,,,,,,,,,199.73199999850476,,response,,,,99,,,,,,,Space,keypress(Space),,,,,,,,---- -- ----- -- ------ - ------- --- ----------<br>------------- ------ ------ ---- ---- ------- ----- -- ----<br>-------- ------- -- ---------- --- - --- ----- ----- ----<br>---- --- --- ----- --- ---- ---- ------- ----- ---- -------<br>--- --- -- ----- -- --- ---- to --- ---- -- ------ ------<br>--- ----- -- ----,181891.3999999985,181884.3999999985,181668.001,181668.30000000447,181684.668,181901.339,,46,to
screen,html.Screen,2_1_0_1_47,2022-02-18T13:44:58.020Z,,,,,,,,,,,,,,,,,53,,,,,,,,,,,,,,184.96100000446313,,response,,,,99,,,,,,,Space,keypress(Space),,,,,,,,"---- -- ----- -- ------ - ------- --- ----------<br>------------- ------ ------ ---- ---- ------- ----- -- ----<br>-------- ------- -- ---------- --- - --- ----- ----- ----<br>---- --- --- ----- --- ---- ---- ------- ----- ---- -------<br>--- --- -- ----- -- --- ---- -- be, ---- -- ------ ------<br>--- ----- -- ----",182093.20000000298,182086.30000000447,181884.672,181891.6000000015,181901.339,182101.343,,47,"be,"
screen,html.Screen,2_1_0_1_48,2022-02-18T13:44:58.211Z,,,,,,,,,,,,,,,,,53,,,,,,,,,,,,,,175.0569999985164,,response,,,,99,,,,,,,Space,keypress(Space),,,,,,,,---- -- ----- -- ------ - ------- --- ----------<br>------------- ------ ------ ---- ---- ------- ----- -- ----<br>-------- ------- -- ---------- --- - --- ----- ----- ----<br>---- --- --- ----- --- ---- ---- ------- ----- ---- -------<br>--- --- -- ----- -- --- ---- -- --- even -- ------ ------<br>--- ----- -- ----,182283.5,182276.3999999985,182084.676,182093.3999999985,182101.343,182301.347,,48,even
screen,html.Screen,2_1_0_1_49,2022-02-18T13:44:58.412Z,,,,,,,,,,,,,,,,,53,,,,,,,,,,,,,,176.85300000297138,,response,,,,99,,,,,,,Space,keypress(Space),,,,,,,,---- -- ----- -- ------ - ------- --- ----------<br>------------- ------ ------ ---- ---- ------- ----- -- ----<br>-------- ------- -- ---------- --- - --- ----- ----- ----<br>---- --- --- ----- --- ---- ---- ------- ----- ---- -------<br>--- --- -- ----- -- --- ---- -- --- ---- if ------ ------<br>--- ----- -- ----,182484.8999999985,182478.20000000298,182284.68,182283.6000000015,182301.347,182501.351,,49,if
screen,html.Screen,2_1_0_1_50,2022-02-18T13:44:58.636Z,,,,,,,,,,,,,,,,,53,,,,,,,,,,,,,,201.04899999851477,,response,,,,99,,,,,,,Space,keypress(Space),,,,,,,,---- -- ----- -- ------ - ------- --- ----------<br>------------- ------ ------ ---- ---- ------- ----- -- ----<br>-------- ------- -- ---------- --- - --- ----- ----- ----<br>---- --- --- ----- --- ---- ---- ------- ----- ---- -------<br>--- --- -- ----- -- --- ---- -- --- ---- -- that's ------<br>--- ----- -- ----,182709.30000000447,182702.3999999985,182484.684,182485.1000000015,182501.351,182718.022,,50,that's
screen,html.Screen,2_1_0_1_51,2022-02-18T13:44:58.841Z,,,,,,,,,,,,,,,,,53,,,,,,,,,,,,,,189.27800000447314,,response,,,,99,,,,,,,Space,keypress(Space),,,,,,,,---- -- ----- -- ------ - ------- --- ----------<br>------------- ------ ------ ---- ---- ------- ----- -- ----<br>-------- ------- -- ---------- --- - --- ----- ----- ----<br>---- --- --- ----- --- ---- ---- ------- ----- ---- -------<br>--- --- -- ----- -- --- ---- -- --- ---- -- ------ really<br>--- ----- -- ----,182914.30000000447,182907.30000000447,182701.355,182709.6000000015,182718.022,182918.026,,51,really
screen,html.Screen,2_1_0_1_52,2022-02-18T13:44:59.239Z,,,,,,,,,,,,,,,,,53,,,,,,,,,,,,,,387.2740000044578,,response,,,,99,,,,,,,Space,keypress(Space),,,,,,,,---- -- ----- -- ------ - ------- --- ----------<br>------------- ------ ------ ---- ---- ------- ----- -- ----<br>-------- ------- -- ---------- --- - --- ----- ----- ----<br>---- --- --- ----- --- ---- ---- ------- ----- ---- -------<br>--- --- -- ----- -- --- ---- -- --- ---- -- ------ ------<br>not ----- -- ----,183312.20000000298,183305.30000000447,182901.359,182914.6000000015,182918.026,183318.034,,52,not
screen,html.Screen,2_1_0_1_53,2022-02-18T13:44:59.435Z,,,,,,,,,,,,,,,,,53,,,,,,,,,,,,,,183.0660000014759,,response,,,,99,,,,,,,Space,keypress(Space),,,,,,,,---- -- ----- -- ------ - ------- --- ----------<br>------------- ------ ------ ---- ---- ------- ----- -- ----<br>-------- ------- -- ---------- --- - --- ----- ----- ----<br>---- --- --- ----- --- ---- ---- ------- ----- ---- -------<br>--- --- -- ----- -- --- ---- -- --- ---- -- ------ ------<br>--- close -- ----,183508.1000000015,183501.1000000015,183301.367,183312.3999999985,183318.034,183518.038,,53,close
screen,html.Screen,2_1_0_1_54,2022-02-18T13:44:59.626Z,,,,,,,,,,,,,,,,,53,,,,,,,,,,,,,,174.16200000297977,,response,,,,99,,,,,,,Space,keypress(Space),,,,,,,,---- -- ----- -- ------ - ------- --- ----------<br>------------- ------ ------ ---- ---- ------- ----- -- ----<br>-------- ------- -- ---------- --- - --- ----- ----- ----<br>---- --- --- ----- --- ---- ---- ------- ----- ---- -------<br>--- --- -- ----- -- --- ---- -- --- ---- -- ------ ------<br>--- ----- at ----,183699,183692.20000000298,183501.371,183508.30000000447,183518.038,183701.375,,54,at
screen,html.Screen,2_1_0_1_55,2022-02-18T13:44:59.931Z,,,,,,,,,,,,,,,,,53,,,,,,,,,,,,,,295.82500000298023,,response,,,,99,,,,,,,Space,keypress(Space),,,,,,,,---- -- ----- -- ------ - ------- --- ----------<br>------------- ------ ------ ---- ---- ------- ----- -- ----<br>-------- ------- -- ---------- --- - --- ----- ----- ----<br>---- --- --- ----- --- ---- ---- ------- ----- ---- -------<br>--- --- -- ----- -- --- ---- -- --- ---- -- ------ ------<br>--- ----- -- all.,184004.20000000298,183997.20000000298,183684.708,183699.20000000298,183701.375,184018.048,,55,all.
Item 99,flow.Loop,2_1_0_1,2022-02-18T13:44:59.932Z,,,,,,,,,,,,,,,,,,,,,,,,,,,,,,,14246.10400000299,,completion,,,,,F,,,,,,,,,,,silence,,,,,184004.6000000015,183997.20000000298,169734.429,169736.30000000447,169751.096,184018.048,,,
Question 1,html.Screen,2_1_0_2,2022-02-18T13:45:03.923Z,,,,,,,,,,,,,,,,,,,,,,,,,,,,true,FALSE,,3964.0520000014803,,response,,,,99,F,,,,,,FALSE,click #choice-2,,,,silence,,,,,187995.8999999985,187982.1000000015,184001.381,184004.70000000298,184018.048,188001.461,,,
Question 2,html.Screen,2_1_0_3,2022-02-18T13:45:07.808Z,,,,,,,,,,,,,,,,,,,,,,,,,,,,true,TRUE,,3868.33900000446,,response,,,,99,F,,,,,,TRUE,click #choice-1,,,,silence,,,,,191881.1000000015,191869.80000000447,187984.794,187996.1000000015,188001.461,191884.872,,,
Item 99,flow.Sequence,2_1_0,2022-02-18T13:45:07.809Z,,,,,,,,,,,,,,,,,,,,,,,,,,,,,,,32118.904000004462,,completion,,,,,,,,,,,,,,,,,,,,,191881.3999999985,191869.80000000447,159734.229,159748.70000000298,159750.896,191884.872,,,
Holding screen,html.Screen,2_1_1_0,2022-02-18T13:45:17.798Z,,,,,,,,,,,,,,,,,,,,,,,,,,,,,,,10000.199999999983,,timeout,,,,,,,,,,,,,,,,,,,,,201870.80000000447,201868.405,191868.205,191881.5,191884.872,201885.072,,,
screen,html.Screen,2_1_1_1_0,2022-02-18T13:45:18.632Z,,,,,,,,,,,,,,,,,54,,,,,,,,,,,,,,811.3279999985243,,response,,,,100,,,,,,,Space,keypress(Space),,,,,,,,At --- ---- --- ------ ----- ------- ---- -- --- ------- --<br>------- ---------- ------ -- ----- -- ----- -- ---- ------<br>--- ----- --- --- ------ -------- ----- --- ------ ----- --<br>----- ----- ---------- --- --- ------ ------ ---- -- ------<br>------- --- ------ ----- --- ---- ------- -- ---- --- --<br>------- ------,202704.70000000298,202696.3999999985,201868.405,201871,201885.072,202718.422,,0,At
screen,html.Screen,2_1_1_1_1,2022-02-18T13:45:18.879Z,,,,,,,,,,,,,,,,,54,,,,,,,,,,,,,,226.57800000000861,,response,,,,100,,,,,,,Space,keypress(Space),,,,,,,,-- the ---- --- ------ ----- ------- ---- -- --- ------- --<br>------- ---------- ------ -- ----- -- ----- -- ---- ------<br>--- ----- --- --- ------ -------- ----- --- ------ ----- --<br>----- ----- ---------- --- --- ------ ------ ---- -- ------<br>------- --- ------ ----- --- ---- ------- -- ---- --- --<br>------- ------,202951.80000000447,202945,202701.755,202704.8999999985,202718.422,202968.427,,1,the
screen,html.Screen,2_1_1_1_2,2022-02-18T13:45:19.131Z,,,,,,,,,,,,,,,,,54,,,,,,,,,,,,,,228.57300000000396,,response,,,,100,,,,,,,Space,keypress(Space),,,,,,,,-- --- time --- ------ ----- ------- ---- -- --- ------- --<br>------- ---------- ------ -- ----- -- ----- -- ---- ------<br>--- ----- --- --- ------ -------- ----- --- ------ ----- --<br>----- ----- ---------- --- --- ------ ------ ---- -- ------<br>------- --- ------ ----- --- ---- ------- -- ---- --- --<br>------- ------,203203.80000000447,203197,202951.76,202952,202968.427,203218.432,,2,time
screen,html.Screen,2_1_1_1_3,2022-02-18T13:45:19.296Z,,,,,,,,,,,,,,,,,54,,,,,,,,,,,,,,143.46799999850919,,response,,,,100,,,,,,,Space,keypress(Space),,,,,,,,-- --- ---- the ------ ----- ------- ---- -- --- ------- --<br>------- ---------- ------ -- ----- -- ----- -- ---- ------<br>--- ----- --- --- ------ -------- ----- --- ------ ----- --<br>----- ----- ---------- --- --- ------ ------ ---- -- ------<br>------- --- ------ ----- --- ---- ------- -- ---- --- --<br>------- ------,203368.80000000447,203361.8999999985,203201.765,203203.80000000447,203218.432,203385.102,,3,the
screen,html.Screen,2_1_1_1_4,2022-02-18T13:45:19.488Z,,,,,,,,,,,,,,,,,54,,,,,,,,,,,,,,168.79799999849638,,response,,,,100,,,,,,,Space,keypress(Space),,,,,,,,-- --- ---- --- French ----- ------- ---- -- --- ------- --<br>------- ---------- ------ -- ----- -- ----- -- ---- ------<br>--- ----- --- --- ------ -------- ----- --- ------ ----- --<br>----- ----- ---------- --- --- ------ ------ ---- -- ------<br>------- --- ------ ----- --- ---- ------- -- ---- --- --<br>------- ------,203560.8999999985,203553.8999999985,203368.435,203369,203385.102,203568.439,,4,French
screen,html.Screen,2_1_1_1_5,2022-02-18T13:45:19.705Z,,,,,,,,,,,,,,,,,54,,,,,,,,,,,,,,202.3610000044573,,response,,,,100,,,,,,,Space,keypress(Space),,,,,,,,-- --- ---- --- ------ crown ------- ---- -- --- ------- --<br>------- ---------- ------ -- ----- -- ----- -- ---- ------<br>--- ----- --- --- ------ -------- ----- --- ------ ----- --<br>----- ----- ---------- --- --- ------ ------ ---- -- ------<br>------- --- ------ ----- --- ---- ------- -- ---- --- --<br>------- ------,203777.6000000015,203770.80000000447,203551.772,203561,203568.439,203785.11,,5,crown
screen,html.Screen,2_1_1_1_6,2022-02-18T13:45:19.913Z,,,,,,,,,,,,,,,,,54,,,,,,,,,,,,,,193.78999999852385,,response,,,,100,,,,,,,Space,keypress(Space),,,,,,,,-- --- ---- --- ------ ----- secured ---- -- --- ------- --<br>------- ---------- ------ -- ----- -- ----- -- ---- ------<br>--- ----- --- --- ------ -------- ----- --- ------ ----- --<br>----- ----- ---------- --- --- ------ ------ ---- -- ------<br>------- --- ------ ----- --- ---- ------- -- ---- --- --<br>------- ------,203985.8999999985,203978.8999999985,203768.443,203777.70000000298,203785.11,204001.781,,6,secured
screen,html.Screen,2_1_1_1_7,2022-02-18T13:45:20.108Z,,,,,,,,,,,,,,,,,54,,,,,,,,,,,,,,172.21900000001187,,response,,,,100,,,,,,,Space,keypress(Space),,,,,,,,-- --- ---- --- ------ ----- ------- much -- --- ------- --<br>------- ---------- ------ -- ----- -- ----- -- ---- ------<br>--- ----- --- --- ------ -------- ----- --- ------ ----- --<br>----- ----- ---------- --- --- ------ ------ ---- -- ------<br>------- --- ------ ----- --- ---- ------- -- ---- --- --<br>------- ------,204181,204174,203985.114,203986.1000000015,204001.781,204185.118,,7,much
screen,html.Screen,2_1_1_1_8,2022-02-18T13:45:20.588Z,,,,,,,,,,,,,,,,,54,,,,,,,,,,,,,,468.7819999985222,,response,,,,100,,,,,,,Space,keypress(Space),,,,,,,,-- --- ---- --- ------ ----- ------- ---- of --- ------- --<br>------- ---------- ------ -- ----- -- ----- -- ---- ------<br>--- ----- --- --- ------ -------- ----- --- ------ ----- --<br>----- ----- ---------- --- --- ------ ------ ---- -- ------<br>------- --- ------ ----- --- ---- ------- -- ---- --- --<br>------- ------,204660.6000000015,204653.8999999985,204168.451,204181.20000000298,204185.118,204668.461,,8,of
screen,html.Screen,2_1_1_1_9,2022-02-18T13:45:20.861Z,,,,,,,,,,,,,,,,,54,,,,,,,,,,,,,,258.43899999849964,,response,,,,100,,,,,,,Space,keypress(Space),,,,,,,,-- --- ---- --- ------ ----- ------- ---- -- its ------- --<br>------- ---------- ------ -- ----- -- ----- -- ---- ------<br>--- ----- --- --- ------ -------- ----- --- ------ ----- --<br>----- ----- ---------- --- --- ------ ------ ---- -- ------<br>------- --- ------ ----- --- ---- ------- -- ---- --- --<br>------- ------,204933.70000000298,204926.8999999985,204651.794,204660.80000000447,204668.461,204935.133,,9,its
screen,html.Screen,2_1_1_1_10,2022-02-18T13:45:21.173Z,,,,,,,,,,,,,,,,,54,,,,,,,,,,,,,,303.6670000044687,,response,,,,100,,,,,,,Space,keypress(Space),,,,,,,,-- --- ---- --- ------ ----- ------- ---- -- --- revenue --<br>------- ---------- ------ -- ----- -- ----- -- ---- ------<br>--- ----- --- --- ------ -------- ----- --- ------ ----- --<br>----- ----- ---------- --- --- ------ ------ ---- -- ------<br>------- --- ------ ----- --- ---- ------- -- ---- --- --<br>------- ------,205245.70000000298,205238.80000000447,204918.466,204933.8999999985,204935.133,205251.806,,10,revenue
screen,html.Screen,2_1_1_1_11,2022-02-18T13:45:21.562Z,,,,,,,,,,,,,,,,,54,,,,,,,,,,,,,,375.99400000445894,,response,,,,100,,,,,,,Space,keypress(Space),,,,,,,,-- --- ---- --- ------ ----- ------- ---- -- --- ------- by<br>------- ---------- ------ -- ----- -- ----- -- ---- ------<br>--- ----- --- --- ------ -------- ----- --- ------ ----- --<br>----- ----- ---------- --- --- ------ ------ ---- -- ------<br>------- --- ------ ----- --- ---- ------- -- ---- --- --<br>------- ------,205634.6000000015,205627.80000000447,205235.139,205245.80000000447,205251.806,205651.814,,11,by
screen,html.Screen,2_1_1_1_12,2022-02-18T13:45:21.984Z,,,,,,,,,,,,,,,,,54,,,,,,,,,,,,,,397.9860000044573,,response,,,,100,,,,,,,Space,keypress(Space),,,,,,,,-- --- ---- --- ------ ----- ------- ---- -- --- ------- --<br>issuing ---------- ------ -- ----- -- ----- -- ---- ------<br>--- ----- --- --- ------ -------- ----- --- ------ ----- --<br>----- ----- ---------- --- --- ------ ------ ---- -- ------<br>------- --- ------ ----- --- ---- ------- -- ---- --- --<br>------- ------,206056.6000000015,206049.80000000447,205635.147,205634.70000000298,205651.814,206068.489,,12,issuing
screen,html.Screen,2_1_1_1_13,2022-02-18T13:45:22.219Z,,,,,,,,,,,,,,,,,54,,,,,,,,,,,,,,216.11100000148872,,response,,,,100,,,,,,,Space,keypress(Space),,,,,,,,-- --- ---- --- ------ ----- ------- ---- -- --- ------- --<br>------- government ------ -- ----- -- ----- -- ---- ------<br>--- ----- --- --- ------ -------- ----- --- ------ ----- --<br>----- ----- ---------- --- --- ------ ------ ---- -- ------<br>------- --- ------ ----- --- ---- ------- -- ---- --- --<br>------- ------,206291.6000000015,206284.6000000015,206051.822,206056.80000000447,206068.489,206301.827,,13,government
screen,html.Screen,2_1_1_1_14,2022-02-18T13:45:22.492Z,,,,,,,,,,,,,,,,,54,,,,,,,,,,,,,,254.87300000299,,response,,,,100,,,,,,,Space,keypress(Space),,,,,,,,-- --- ---- --- ------ ----- ------- ---- -- --- ------- --<br>------- ---------- bonds. -- ----- -- ----- -- ---- ------<br>--- ----- --- --- ------ -------- ----- --- ------ ----- --<br>----- ----- ---------- --- --- ------ ------ ---- -- ------<br>------- --- ------ ----- --- ---- ------- -- ---- --- --<br>------- ------,206564.6000000015,206556.70000000298,206285.16,206293.1000000015,206301.827,206568.499,,14,bonds.
screen,html.Screen,2_1_1_1_15,2022-02-18T13:45:22.802Z,,,,,,,,,,,,,,,,,54,,,,,,,,,,,,,,299.2010000029695,,response,,,,100,,,,,,,Space,keypress(Space),,,,,,,,-- --- ---- --- ------ ----- ------- ---- -- --- ------- --<br>------- ---------- ------ In ----- -- ----- -- ---- ------<br>--- ----- --- --- ------ -------- ----- --- ------ ----- --<br>----- ----- ---------- --- --- ------ ------ ---- -- ------<br>------- --- ------ ----- --- ---- ------- -- ---- --- --<br>------- ------,206874.70000000298,206867.70000000298,206551.832,206564.80000000447,206568.499,206885.172,,15,In
screen,html.Screen,2_1_1_1_16,2022-02-18T13:45:23.096Z,,,,,,,,,,,,,,,,,54,,,,,,,,,,,,,,276.52800000298885,,response,,,,100,,,,,,,Space,keypress(Space),,,,,,,,"-- --- ---- --- ------ ----- ------- ---- -- --- ------- --<br>------- ---------- ------ -- 1727, -- ----- -- ---- ------<br>--- ----- --- --- ------ -------- ----- --- ------ ----- --<br>----- ----- ---------- --- --- ------ ------ ---- -- ------<br>------- --- ------ ----- --- ---- ------- -- ---- --- --<br>------- ------",207168.3999999985,207161.70000000298,206868.505,206875,206885.172,207185.178,,16,"1727,"
screen,html.Screen,2_1_1_1_17,2022-02-18T13:45:23.353Z,,,,,,,,,,,,,,,,,54,,,,,,,,,,,,,,233.5220000029658,,response,,,,100,,,,,,,Space,keypress(Space),,,,,,,,-- --- ---- --- ------ ----- ------- ---- -- --- ------- --<br>------- ---------- ------ -- ----- in ----- -- ---- ------<br>--- ----- --- --- ------ -------- ----- --- ------ ----- --<br>----- ----- ---------- --- --- ------ ------ ---- -- ------<br>------- --- ------ ----- --- ---- ------- -- ---- --- --<br>------- ------,207425.6000000015,207418.70000000298,207168.511,207168.6000000015,207185.178,207435.183,,17,in
screen,html.Screen,2_1_1_1_18,2022-02-18T13:45:23.599Z,,,,,,,,,,,,,,,,,54,,,,,,,,,,,,,,229.41700000150013,,response,,,,100,,,,,,,Space,keypress(Space),,,,,,,,-- --- ---- --- ------ ----- ------- ---- -- --- ------- --<br>------- ---------- ------ -- ----- -- order -- ---- ------<br>--- ----- --- --- ------ -------- ----- --- ------ ----- --<br>----- ----- ---------- --- --- ------ ------ ---- -- ------<br>------- --- ------ ----- --- ---- ------- -- ---- --- --<br>------- ------,207671.70000000298,207664.6000000015,207418.516,207425.80000000447,207435.183,207685.188,,18,order
screen,html.Screen,2_1_1_1_19,2022-02-18T13:45:23.892Z,,,,,,,,,,,,,,,,,54,,,,,,,,,,,,,,272.5120000029856,,response,,,,100,,,,,,,Space,keypress(Space),,,,,,,,-- --- ---- --- ------ ----- ------- ---- -- --- ------- --<br>------- ---------- ------ -- ----- -- ----- to ---- ------<br>--- ----- --- --- ------ -------- ----- --- ------ ----- --<br>----- ----- ---------- --- --- ------ ------ ---- -- ------<br>------- --- ------ ----- --- ---- ------- -- ---- --- --<br>------- ------,207964.6000000015,207957.70000000298,207668.521,207671.8999999985,207685.188,207968.527,,19,to
screen,html.Screen,2_1_1_1_20,2022-02-18T13:45:24.140Z,,,,,,,,,,,,,,,,,54,,,,,,,,,,,,,,237.07300000148825,,response,,,,100,,,,,,,Space,keypress(Space),,,,,,,,-- --- ---- --- ------ ----- ------- ---- -- --- ------- --<br>------- ---------- ------ -- ----- -- ----- -- save ------<br>--- ----- --- --- ------ -------- ----- --- ------ ----- --<br>----- ----- ---------- --- --- ------ ------ ---- -- ------<br>------- --- ------ ----- --- ---- ------- -- ---- --- --<br>------- ------,208212.3999999985,208205.6000000015,207951.86,207964.70000000298,207968.527,208218.532,,20,save
screen,html.Screen,2_1_1_1_21,2022-02-18T13:45:24.412Z,,,,,,,,,,,,,,,,,54,,,,,,,,,,,,,,258.9679999999935,,response,,,,100,,,,,,,Space,keypress(Space),,,,,,,,"-- --- ---- --- ------ ----- ------- ---- -- --- ------- --<br>------- ---------- ------ -- ----- -- ----- -- ---- money,<br>--- ----- --- --- ------ -------- ----- --- ------ ----- --<br>----- ----- ---------- --- --- ------ ------ ---- -- ------<br>------- --- ------ ----- --- ---- ------- -- ---- --- --<br>------- ------",208484.3999999985,208477.5,208201.865,208212.70000000298,208218.532,208501.871,,21,"money,"
screen,html.Screen,2_1_1_1_22,2022-02-18T13:45:24.701Z,,,,,,,,,,,,,,,,,54,,,,,,,,,,,,,,264.7290000014764,,response,,,,100,,,,,,,Space,keypress(Space),,,,,,,,-- --- ---- --- ------ ----- ------- ---- -- --- ------- --<br>------- ---------- ------ -- ----- -- ----- -- ---- ------<br>the ----- --- --- ------ -------- ----- --- ------ ----- --<br>----- ----- ---------- --- --- ------ ------ ---- -- ------<br>------- --- ------ ----- --- ---- ------- -- ---- --- --<br>------- ------,208773.6000000015,208766.6000000015,208485.204,208484.6000000015,208501.871,208785.21,,22,the
screen,html.Screen,2_1_1_1_23,2022-02-18T13:45:24.933Z,,,,,,,,,,,,,,,,,54,,,,,,,,,,,,,,213.39000000149827,,response,,,,100,,,,,,,Space,keypress(Space),,,,,,,,-- --- ---- --- ------ ----- ------- ---- -- --- ------- --<br>------- ---------- ------ -- ----- -- ----- -- ---- ------<br>--- state --- --- ------ -------- ----- --- ------ ----- --<br>----- ----- ---------- --- --- ------ ------ ---- -- ------<br>------- --- ------ ----- --- ---- ------- -- ---- --- --<br>------- ------,209005.70000000298,208998.6000000015,208768.543,208773.80000000447,208785.21,209018.548,,23,state
screen,html.Screen,2_1_1_1_24,2022-02-18T13:45:25.130Z,,,,,,,,,,,,,,,,,54,,,,,,,,,,,,,,176.95199999999022,,response,,,,100,,,,,,,Space,keypress(Space),,,,,,,,-- --- ---- --- ------ ----- ------- ---- -- --- ------- --<br>------- ---------- ------ -- ----- -- ----- -- ---- ------<br>--- ----- cut --- ------ -------- ----- --- ------ ----- --<br>----- ----- ---------- --- --- ------ ------ ---- -- ------<br>------- --- ------ ----- --- ---- ------- -- ---- --- --<br>------- ------,209202.3999999985,209195.5,209001.881,209005.80000000447,209018.548,209218.552,,24,cut
screen,html.Screen,2_1_1_1_25,2022-02-18T13:45:25.350Z,,,,,,,,,,,,,,,,,54,,,,,,,,,,,,,,197.04800000149407,,response,,,,100,,,,,,,Space,keypress(Space),,,,,,,,-- --- ---- --- ------ ----- ------- ---- -- --- ------- --<br>------- ---------- ------ -- ----- -- ----- -- ---- ------<br>--- ----- --- the ------ -------- ----- --- ------ ----- --<br>----- ----- ---------- --- --- ------ ------ ---- -- ------<br>------- --- ------ ----- --- ---- ------- -- ---- --- --<br>------- ------,209422.6000000015,209415.6000000015,209201.885,209202.5,209218.552,209435.223,,25,the
screen,html.Screen,2_1_1_1_26,2022-02-18T13:45:25.582Z,,,,,,,,,,,,,,,,,54,,,,,,,,,,,,,,212.27700000000186,,response,,,,100,,,,,,,Space,keypress(Space),,,,,,,,-- --- ---- --- ------ ----- ------- ---- -- --- ------- --<br>------- ---------- ------ -- ----- -- ----- -- ---- ------<br>--- ----- --- --- bonds' -------- ----- --- ------ ----- --<br>----- ----- ---------- --- --- ------ ------ ---- -- ------<br>------- --- ------ ----- --- ---- ------- -- ---- --- --<br>------- ------,209654.3999999985,209647.5,209418.556,209422.70000000298,209435.223,209668.561,,26,bonds'
screen,html.Screen,2_1_1_1_27,2022-02-18T13:45:26.021Z,,,,,,,,,,,,,,,,,54,,,,,,,,,,,,,,417.8389999985229,,response,,,,100,,,,,,,Space,keypress(Space),,,,,,,,-- --- ---- --- ------ ----- ------- ---- -- --- ------- --<br>------- ---------- ------ -- ----- -- ----- -- ---- ------<br>--- ----- --- --- ------ interest ----- --- ------ ----- --<br>----- ----- ---------- --- --- ------ ------ ---- -- ------<br>------- --- ------ ----- --- ---- ------- -- ---- --- --<br>------- ------,210093.5,210086.3999999985,209651.894,209654.5,209668.561,210101.903,,27,interest
screen,html.Screen,2_1_1_1_28,2022-02-18T13:45:26.454Z,,,,,,,,,,,,,,,,,54,,,,,,,,,,,,,,417.49699999851873,,response,,,,100,,,,,,,Space,keypress(Space),,,,,,,,-- --- ---- --- ------ ----- ------- ---- -- --- ------- --<br>------- ---------- ------ -- ----- -- ----- -- ---- ------<br>--- ----- --- --- ------ -------- rate. --- ------ ----- --<br>----- ----- ---------- --- --- ------ ------ ---- -- ------<br>------- --- ------ ----- --- ---- ------- -- ---- --- --<br>------- ------,210526.3999999985,210519.3999999985,210085.236,210093.70000000298,210101.903,210535.245,,28,rate.
screen,html.Screen,2_1_1_1_29,2022-02-18T13:45:26.945Z,,,,,,,,,,,,,,,,,54,,,,,,,,,,,,,,475.15499999851454,,response,,,,100,,,,,,,Space,keypress(Space),,,,,,,,-- --- ---- --- ------ ----- ------- ---- -- --- ------- --<br>------- ---------- ------ -- ----- -- ----- -- ---- ------<br>--- ----- --- --- ------ -------- ----- The ------ ----- --<br>----- ----- ---------- --- --- ------ ------ ---- -- ------<br>------- --- ------ ----- --- ---- ------- -- ---- --- --<br>------- ------,211017.1000000015,211010.3999999985,210518.578,210526.5,210535.245,211018.588,,29,The
screen,html.Screen,2_1_1_1_30,2022-02-18T13:45:27.829Z,,,,,,,,,,,,,,,,,54,,,,,,,,,,,,,,875.8119999985211,,response,,,,100,,,,,,,Space,keypress(Space),,,,,,,,-- --- ---- --- ------ ----- ------- ---- -- --- ------- --<br>------- ---------- ------ -- ----- -- ----- -- ---- ------<br>--- ----- --- --- ------ -------- ----- --- market ----- --<br>----- ----- ---------- --- --- ------ ------ ---- -- ------<br>------- --- ------ ----- --- ---- ------- -- ---- --- --<br>------- ------,211901.30000000447,211894.3999999985,211001.921,211017.30000000447,211018.588,211918.606,,30,market
screen,html.Screen,2_1_1_1_31,2022-02-18T13:45:28.086Z,,,,,,,,,,,,,,,,,54,,,,,,,,,,,,,,232.69400000447058,,response,,,,100,,,,,,,Space,keypress(Space),,,,,,,,-- --- ---- --- ------ ----- ------- ---- -- --- ------- --<br>------- ---------- ------ -- ----- -- ----- -- ---- ------<br>--- ----- --- --- ------ -------- ----- --- ------ value --<br>----- ----- ---------- --- --- ------ ------ ---- -- ------<br>------- --- ------ ----- --- ---- ------- -- ---- --- --<br>------- ------,212158.30000000447,212151.30000000447,211901.939,211901.3999999985,211918.606,212168.611,,31,value
screen,html.Screen,2_1_1_1_32,2022-02-18T13:45:28.400Z,,,,,,,,,,,,,,,,,54,,,,,,,,,,,,,,296.6890000044659,,response,,,,100,,,,,,,Space,keypress(Space),,,,,,,,-- --- ---- --- ------ ----- ------- ---- -- --- ------- --<br>------- ---------- ------ -- ----- -- ----- -- ---- ------<br>--- ----- --- --- ------ -------- ----- --- ------ ----- of<br>----- ----- ---------- --- --- ------ ------ ---- -- ------<br>------- --- ------ ----- --- ---- ------- -- ---- --- --<br>------- ------,212472.30000000447,212465.30000000447,212151.944,212158.3999999985,212168.611,212485.284,,32,of
screen,html.Screen,2_1_1_1_33,2022-02-18T13:45:28.659Z,,,,,,,,,,,,,,,,,54,,,,,,,,,,,,,,239.01600000445615,,response,,,,100,,,,,,,Space,keypress(Space),,,,,,,,-- --- ---- --- ------ ----- ------- ---- -- --- ------- --<br>------- ---------- ------ -- ----- -- ----- -- ---- ------<br>--- ----- --- --- ------ -------- ----- --- ------ ----- --<br>these ----- ---------- --- --- ------ ------ ---- -- ------<br>------- --- ------ ----- --- ---- ------- -- ---- --- --<br>------- ------,212731.5,212724.30000000447,212468.617,212472.30000000447,212485.284,212735.289,,33,these
screen,html.Screen,2_1_1_1_34,2022-02-18T13:45:28.885Z,,,,,,,,,,,,,,,,,54,,,,,,,,,,,,,,215.0110000044806,,response,,,,100,,,,,,,Space,keypress(Space),,,,,,,,-- --- ---- --- ------ ----- ------- ---- -- --- ------- --<br>------- ---------- ------ -- ----- -- ----- -- ---- ------<br>--- ----- --- --- ------ -------- ----- --- ------ ----- --<br>----- bonds ---------- --- --- ------ ------ ---- -- ------<br>------- --- ------ ----- --- ---- ------- -- ---- --- --<br>------- ------,212957.1000000015,212950.30000000447,212718.622,212731.6000000015,212735.289,212968.627,,34,bonds
screen,html.Screen,2_1_1_1_35,2022-02-18T13:45:29.087Z,,,,,,,,,,,,,,,,,54,,,,,,,,,,,,,,183.67300000446266,,response,,,,100,,,,,,,Space,keypress(Space),,,,,,,,"-- --- ---- --- ------ ----- ------- ---- -- --- ------- --<br>------- ---------- ------ -- ----- -- ----- -- ---- ------<br>--- ----- --- --- ------ -------- ----- --- ------ ----- --<br>----- ----- plummeted, --- --- ------ ------ ---- -- ------<br>------- --- ------ ----- --- ---- ------- -- ---- --- --<br>------- ------",213159.1000000015,213152.30000000447,212951.96,212957.20000000298,212968.627,213168.631,,35,"plummeted,"
screen,html.Screen,2_1_1_1_36,2022-02-18T13:45:29.301Z,,,,,,,,,,,,,,,,,54,,,,,,,,,,,,,,197.5690000029863,,response,,,,100,,,,,,,Space,keypress(Space),,,,,,,,-- --- ---- --- ------ ----- ------- ---- -- --- ------- --<br>------- ---------- ------ -- ----- -- ----- -- ---- ------<br>--- ----- --- --- ------ -------- ----- --- ------ ----- --<br>----- ----- ---------- and --- ------ ------ ---- -- ------<br>------- --- ------ ----- --- ---- ------- -- ---- --- --<br>------- ------,213373.1000000015,213366.20000000298,213151.964,213159.30000000447,213168.631,213385.302,,36,and
screen,html.Screen,2_1_1_1_37,2022-02-18T13:45:29.517Z,,,,,,,,,,,,,,,,,54,,,,,,,,,,,,,,196.8980000029842,,response,,,,100,,,,,,,Space,keypress(Space),,,,,,,,-- --- ---- --- ------ ----- ------- ---- -- --- ------- --<br>------- ---------- ------ -- ----- -- ----- -- ---- ------<br>--- ----- --- --- ------ -------- ----- --- ------ ----- --<br>----- ----- ---------- --- the ------ ------ ---- -- ------<br>------- --- ------ ----- --- ---- ------- -- ---- --- --<br>------- ------,213589.1000000015,213582.20000000298,213368.635,213373.20000000298,213385.302,213601.973,,37,the
screen,html.Screen,2_1_1_1_38,2022-02-18T13:45:29.737Z,,,,,,,,,,,,,,,,,54,,,,,,,,,,,,,,199.2270000029821,,response,,,,100,,,,,,,Space,keypress(Space),,,,,,,,-- --- ---- --- ------ ----- ------- ---- -- --- ------- --<br>------- ---------- ------ -- ----- -- ----- -- ---- ------<br>--- ----- --- --- ------ -------- ----- --- ------ ----- --<br>----- ----- ---------- --- --- market ------ ---- -- ------<br>------- --- ------ ----- --- ---- ------- -- ---- --- --<br>------- ------,213809.30000000447,213801.20000000298,213585.306,213589.20000000298,213601.973,213818.644,,38,market
screen,html.Screen,2_1_1_1_39,2022-02-18T13:45:29.934Z,,,,,,,,,,,,,,,,,54,,,,,,,,,,,,,,180.45600000148988,,response,,,,100,,,,,,,Space,keypress(Space),,,,,,,,-- --- ---- --- ------ ----- ------- ---- -- --- ------- --<br>------- ---------- ------ -- ----- -- ----- -- ---- ------<br>--- ----- --- --- ------ -------- ----- --- ------ ----- --<br>----- ----- ---------- --- --- ------ became ---- -- ------<br>------- --- ------ ----- --- ---- ------- -- ---- --- --<br>------- ------,214006.1000000015,213999.1000000015,213801.977,213809.5,213818.644,214018.648,,39,became
screen,html.Screen,2_1_1_1_40,2022-02-18T13:45:30.121Z,,,,,,,,,,,,,,,,,54,,,,,,,,,,,,,,167.55200000299374,,response,,,,100,,,,,,,Space,keypress(Space),,,,,,,,-- --- ---- --- ------ ----- ------- ---- -- --- ------- --<br>------- ---------- ------ -- ----- -- ----- -- ---- ------<br>--- ----- --- --- ------ -------- ----- --- ------ ----- --<br>----- ----- ---------- --- --- ------ ------ wary -- ------<br>------- --- ------ ----- --- ---- ------- -- ---- --- --<br>------- ------,214193.20000000298,214186.20000000298,214001.981,214006.20000000298,214018.648,214201.985,,40,wary
screen,html.Screen,2_1_1_1_41,2022-02-18T13:45:30.488Z,,,,,,,,,,,,,,,,,54,,,,,,,,,,,,,,351.2150000029942,,response,,,,100,,,,,,,Space,keypress(Space),,,,,,,,-- --- ---- --- ------ ----- ------- ---- -- --- ------- --<br>------- ---------- ------ -- ----- -- ----- -- ---- ------<br>--- ----- --- --- ------ -------- ----- --- ------ ----- --<br>----- ----- ---------- --- --- ------ ------ ---- of ------<br>------- --- ------ ----- --- ---- ------- -- ---- --- --<br>------- ------,214560.1000000015,214553.20000000298,214185.318,214193.3999999985,214201.985,214568.659,,41,of
screen,html.Screen,2_1_1_1_42,2022-02-18T13:45:30.751Z,,,,,,,,,,,,,,,,,54,,,,,,,,,,,,,,248.54100000296603,,response,,,,100,,,,,,,Space,keypress(Space),,,,,,,,-- --- ---- --- ------ ----- ------- ---- -- --- ------- --<br>------- ---------- ------ -- ----- -- ----- -- ---- ------<br>--- ----- --- --- ------ -------- ----- --- ------ ----- --<br>----- ----- ---------- --- --- ------ ------ ---- -- French<br>------- --- ------ ----- --- ---- ------- -- ---- --- --<br>------- ------,214823.8999999985,214817.20000000298,214551.992,214560.30000000447,214568.659,214835.331,,42,French
screen,html.Screen,2_1_1_1_43,2022-02-18T13:45:31.059Z,,,,,,,,,,,,,,,,,54,,,,,,,,,,,,,,289.6689999999944,,response,,,,100,,,,,,,Space,keypress(Space),,,,,,,,-- --- ---- --- ------ ----- ------- ---- -- --- ------- --<br>------- ---------- ------ -- ----- -- ----- -- ---- ------<br>--- ----- --- --- ------ -------- ----- --- ------ ----- --<br>----- ----- ---------- --- --- ------ ------ ---- -- ------<br>credit. --- ------ ----- --- ---- ------- -- ---- --- --<br>------- ------,215131.8999999985,215125,214818.664,214824.1000000015,214835.331,215135.337,,43,credit.
screen,html.Screen,2_1_1_1_44,2022-02-18T13:45:31.297Z,,,,,,,,,,,,,,,,,54,,,,,,,,,,,,,,225.76300000149058,,response,,,,100,,,,,,,Space,keypress(Space),,,,,,,,-- --- ---- --- ------ ----- ------- ---- -- --- ------- --<br>------- ---------- ------ -- ----- -- ----- -- ---- ------<br>--- ----- --- --- ------ -------- ----- --- ------ ----- --<br>----- ----- ---------- --- --- ------ ------ ---- -- ------<br>------- The ------ ----- --- ---- ------- -- ---- --- --<br>------- ------,215369.20000000298,215361.1000000015,215118.67,215132.1000000015,215135.337,215385.342,,44,The
screen,html.Screen,2_1_1_1_45,2022-02-18T13:45:31.583Z,,,,,,,,,,,,,,,,,54,,,,,,,,,,,,,,263.6579999999958,,response,,,,100,,,,,,,Space,keypress(Space),,,,,,,,-- --- ---- --- ------ ----- ------- ---- -- --- ------- --<br>------- ---------- ------ -- ----- -- ----- -- ---- ------<br>--- ----- --- --- ------ -------- ----- --- ------ ----- --<br>----- ----- ---------- --- --- ------ ------ ---- -- ------<br>------- --- French ----- --- ---- ------- -- ---- --- --<br>------- ------,215655.8999999985,215649,215368.675,215369.3999999985,215385.342,215668.681,,45,French
screen,html.Screen,2_1_1_1_46,2022-02-18T13:45:31.825Z,,,,,,,,,,,,,,,,,54,,,,,,,,,,,,,,222.3189999999886,,response,,,,100,,,,,,,Space,keypress(Space),,,,,,,,-- --- ---- --- ------ ----- ------- ---- -- --- ------- --<br>------- ---------- ------ -- ----- -- ----- -- ---- ------<br>--- ----- --- --- ------ -------- ----- --- ------ ----- --<br>----- ----- ---------- --- --- ------ ------ ---- -- ------<br>------- --- ------ state --- ---- ------- -- ---- --- --<br>------- ------,215897.80000000447,215891,215652.014,215656,215668.681,215902.019,,46,state
screen,html.Screen,2_1_1_1_47,2022-02-18T13:45:32.075Z,,,,,,,,,,,,,,,,,54,,,,,,,,,,,,,,238.88099999850965,,response,,,,100,,,,,,,Space,keypress(Space),,,,,,,,-- --- ---- --- ------ ----- ------- ---- -- --- ------- --<br>------- ---------- ------ -- ----- -- ----- -- ---- ------<br>--- ----- --- --- ------ -------- ----- --- ------ ----- --<br>----- ----- ---------- --- --- ------ ------ ---- -- ------<br>------- --- ------ ----- was ---- ------- -- ---- --- --<br>------- ------,216147.80000000447,216140.8999999985,215885.352,215898,215902.019,216152.024,,47,was
screen,html.Screen,2_1_1_1_48,2022-02-18T13:45:32.306Z,,,,,,,,,,,,,,,,,54,,,,,,,,,,,,,,219.9759999999951,,response,,,,100,,,,,,,Space,keypress(Space),,,,,,,,-- --- ---- --- ------ ----- ------- ---- -- --- ------- --<br>------- ---------- ------ -- ----- -- ----- -- ---- ------<br>--- ----- --- --- ------ -------- ----- --- ------ ----- --<br>----- ----- ---------- --- --- ------ ------ ---- -- ------<br>------- --- ------ ----- --- left ------- -- ---- --- --<br>------- ------,216378.8999999985,216372,216135.357,216148,216152.024,216385.362,,48,left
screen,html.Screen,2_1_1_1_49,2022-02-18T13:45:32.548Z,,,,,,,,,,,,,,,,,54,,,,,,,,,,,,,,228.6380000000063,,response,,,,100,,,,,,,Space,keypress(Space),,,,,,,,-- --- ---- --- ------ ----- ------- ---- -- --- ------- --<br>------- ---------- ------ -- ----- -- ----- -- ---- ------<br>--- ----- --- --- ------ -------- ----- --- ------ ----- --<br>----- ----- ---------- --- --- ------ ------ ---- -- ------<br>------- --- ------ ----- --- ---- without -- ---- --- --<br>------- ------,216620.8999999985,216614,216368.695,216379,216385.362,216635.367,,49,without
screen,html.Screen,2_1_1_1_50,2022-02-18T13:45:32.764Z,,,,,,,,,,,,,,,,,54,,,,,,,,,,,,,,193.5329999985115,,response,,,,100,,,,,,,Space,keypress(Space),,,,,,,,-- --- ---- --- ------ ----- ------- ---- -- --- ------- --<br>------- ---------- ------ -- ----- -- ----- -- ---- ------<br>--- ----- --- --- ------ -------- ----- --- ------ ----- --<br>----- ----- ---------- --- --- ------ ------ ---- -- ------<br>------- --- ------ ----- --- ---- ------- an ---- --- --<br>------- ------,216836.5,216828.8999999985,216618.7,216621,216635.367,216852.038,,50,an
screen,html.Screen,2_1_1_1_51,2022-02-18T13:45:32.965Z,,,,,,,,,,,,,,,,,54,,,,,,,,,,,,,,178.96199999999953,,response,,,,100,,,,,,,Space,keypress(Space),,,,,,,,-- --- ---- --- ------ ----- ------- ---- -- --- ------- --<br>------- ---------- ------ -- ----- -- ----- -- ---- ------<br>--- ----- --- --- ------ -------- ----- --- ------ ----- --<br>----- ----- ---------- --- --- ------ ------ ---- -- ------<br>------- --- ------ ----- --- ---- ------- -- easy --- --<br>------- ------,217038,217031,216835.371,216836.6000000015,216852.038,217052.042,,51,easy
screen,html.Screen,2_1_1_1_52,2022-02-18T13:45:33.328Z,,,,,,,,,,,,,,,,,54,,,,,,,,,,,,,,339.95800000001327,,response,,,,100,,,,,,,Space,keypress(Space),,,,,,,,-- --- ---- --- ------ ----- ------- ---- -- --- ------- --<br>------- ---------- ------ -- ----- -- ----- -- ---- ------<br>--- ----- --- --- ------ -------- ----- --- ------ ----- --<br>----- ----- ---------- --- --- ------ ------ ---- -- ------<br>------- --- ------ ----- --- ---- ------- -- ---- way --<br>------- ------,217400.20000000298,217392,217035.375,217039.30000000447,217052.042,217402.049,,52,way
screen,html.Screen,2_1_1_1_53,2022-02-18T13:45:33.542Z,,,,,,,,,,,,,,,,,54,,,,,,,,,,,,,,204.85099999851082,,response,,,,100,,,,,,,Space,keypress(Space),,,,,,,,-- --- ---- --- ------ ----- ------- ---- -- --- ------- --<br>------- ---------- ------ -- ----- -- ----- -- ---- ------<br>--- ----- --- --- ------ -------- ----- --- ------ ----- --<br>----- ----- ---------- --- --- ------ ------ ---- -- ------<br>------- --- ------ ----- --- ---- ------- -- ---- --- of<br>------- ------,217614.30000000447,217606.8999999985,217385.382,217400.30000000447,217402.049,217618.72,,53,of
screen,html.Screen,2_1_1_1_54,2022-02-18T13:45:33.815Z,,,,,,,,,,,,,,,,,54,,,,,,,,,,,,,,262.1799999985087,,response,,,,100,,,,,,,Space,keypress(Space),,,,,,,,-- --- ---- --- ------ ----- ------- ---- -- --- ------- --<br>------- ---------- ------ -- ----- -- ----- -- ---- ------<br>--- ----- --- --- ------ -------- ----- --- ------ ----- --<br>----- ----- ---------- --- --- ------ ------ ---- -- ------<br>------- --- ------ ----- --- ---- ------- -- ---- --- --<br>raising ------,217887.8999999985,217880.8999999985,217602.053,217614.3999999985,217618.72,217902.059,,54,raising
screen,html.Screen,2_1_1_1_55,2022-02-18T13:45:34.253Z,,,,,,,,,,,,,,,,,54,,,,,,,,,,,,,,416.8409999985015,,response,,,,100,,,,,,,Space,keypress(Space),,,,,,,,-- --- ---- --- ------ ----- ------- ---- -- --- ------- --<br>------- ---------- ------ -- ----- -- ----- -- ---- ------<br>--- ----- --- --- ------ -------- ----- --- ------ ----- --<br>----- ----- ---------- --- --- ------ ------ ---- -- ------<br>------- --- ------ ----- --- ---- ------- -- ---- --- --<br>------- money.,218325.70000000298,218318.8999999985,217885.392,217888.1000000015,217902.059,218335.401,,55,money.
Item 100,flow.Loop,2_1_1_1,2022-02-18T13:45:34.254Z,,,,,,,,,,,,,,,,,,,,,,,,,,,,,,,16433.827999998524,,completion,,,,,F,,,,,,,,,,,silence,,,,,218326,218318.8999999985,201868.405,201870.8999999985,201885.072,218335.401,,,
Question 1,html.Screen,2_1_1_2,2022-02-18T13:45:36.727Z,,,,,,,,,,,,,,,,,,,,,,,,,,,,true,TRUE,,2450.4989999984973,,response,,,,100,F,,,,,,TRUE,click #choice-1,,,,silence,,,,,220799.30000000447,220785.8999999985,218318.734,218326.20000000298,218335.401,220802.117,,,
Question 2,html.Screen,2_1_1_3,2022-02-18T13:45:39.261Z,,,,,,,,,,,,,,,,,,,,,,,,,,,,false,FALSE,,2521.9830000014917,,response,,,,100,F,,,,,,TRUE,click #choice-1,,,,silence,,,,,223333.6000000015,223324.1000000015,220785.45,220799.5,220802.117,223335.501,,,
Item 100,flow.Sequence,2_1_1,2022-02-18T13:45:39.262Z,,,,,,,,,,,,,,,,,,,,,,,,,,,,,,,31439.228000001487,,completion,,,,,,,,,,,,,,,,,,,,,223334,223324.1000000015,191868.205,191881.5,191884.872,223335.501,,,
End of Practice,html.Page,2_1_2,2022-02-18T13:45:41.760Z,,,,,,,,,,,,,,,,,,,,,,,,,,,,,,,2496.599000001501,,form submission,,,,,,,,,,,,,,,,,,,,,225832.30000000447,225832.1000000015,223318.834,223334.30000000447,223335.501,225835.551,,,
Practice,flow.Sequence,2_1,2022-02-18T13:45:41.760Z,,,,,,,,,,,,,,,,,,,,,,,,,,,,,,,66081.20400000148,,completion,,,,,,,,,,,,,,,,,,,,,225832.6000000015,225832.1000000015,159734.229,159748.70000000298,159750.896,225835.551,,,
Trap_instruction,html.Page,2_2_0,2022-02-18T13:45:44.358Z,,,,,,,,,,,,,,,,,,,,,,,,,,,,,,,2594.2490000044636,,form submission,,,,,,,,,,,,,,,,,,,,,228430.1000000015,228429.80000000447,225818.884,225832.80000000447,225835.551,228435.603,,,
trap_trial,html.Screen,2_2_1,2022-02-18T13:45:48.140Z,,,,,,,,,,,,,,,,,,,,,,,,,,,,true,1,,3761.796999998507,,response,,,,,,,,,,,1,click #choice-1,,,,,,,,,232212.70000000298,232197.3999999985,228418.936,228430.20000000298,228435.603,232219.012,,,
end of trap trial,html.Page,2_2_2,2022-02-18T13:45:50.525Z,,,,,,,,,,,,,,,,,,,,,,,,,,,,,,,2377.6880000029923,,form submission,,,,,,,,,,,,,,,,,,,,,234597,234596.70000000298,232202.345,232212.80000000447,232219.012,234602.393,,,
Trap 1,flow.Sequence,2_2,2022-02-18T13:45:50.525Z,,,,,,,,,,,,,,,,,,,,,,,,,,,,,,,8761.149000002973,,completion,,,,,,,,,,,,,,,,,,,,,234597.20000000298,234596.70000000298,225818.884,225832.70000000298,225835.551,234602.393,,,
Standby,html.Page,2_3_0,2022-02-18T13:45:58.516Z,,,,,,,,,,,,,,,,,,,,,,,,,,,,,,,8000.1600000000035,,timeout,,,,,,,,,,,,,,,,,,,,,242588.1000000015,242585.886,234585.726,234597.3999999985,234602.393,242602.553,,,
Holding screen,html.Screen,2_3_1_0_0,2022-02-18T13:46:05.516Z,,,,,,,,,,,,,,,,,,,,,,,,,,,,,,,7000.139999999985,,timeout,,,,,,,,,,,,,,,,,,,,,249588.3999999985,249586.026,242585.886,242588.30000000447,242602.553,249602.693,,,
screen,html.Screen,2_3_1_0_1_0,2022-02-18T13:46:06.222Z,,,,,,,,,,,,,,,,,11,,,,,,,,,,,,,,682.8070000000007,,response,,,,4,F,,,,,,Space,keypress(Space),,,,instrumental,,,,Known -- ---- --- -- --- -------- ------------ ---------- --<br>- ------- ------ --------- -- ------------ -- --- ---- -----<br>------ ---- ---- ------ ------ ------- --- ----- ---------<br>---- --- -------- -------- --- --- -- ------- --- --- -----<br>-- --- ------ ------- --- --- -------- ---- --------- --<br>---------- -- -------- ----------------,250293.6000000015,250285.5,249586.026,249588.70000000298,249602.693,250302.707,,0,Known
screen,html.Screen,2_3_1_0_1_1,2022-02-18T13:46:06.435Z,,,,,,,,,,,,,,,,,11,,,,,,,,,,,,,,197.59300000447547,,response,,,,4,F,,,,,,Space,keypress(Space),,,,instrumental,,,,----- as ---- --- -- --- -------- ------------ ---------- --<br>- ------- ------ --------- -- ------------ -- --- ---- -----<br>------ ---- ---- ------ ------ ------- --- ----- ---------<br>---- --- -------- -------- --- --- -- ------- --- --- -----<br>-- --- ------ ------- --- --- -------- ---- --------- --<br>---------- -- -------- ----------------,250507.3999999985,250500.30000000447,250286.04,250293.8999999985,250302.707,250519.378,,1,as
screen,html.Screen,2_3_1_0_1_2,2022-02-18T13:46:06.661Z,,,,,,,,,,,,,,,,,11,,,,,,,,,,,,,,206.92200000447338,,response,,,,4,F,,,,,,Space,keypress(Space),,,,instrumental,,,,----- -- Rapa --- -- --- -------- ------------ ---------- --<br>- ------- ------ --------- -- ------------ -- --- ---- -----<br>------ ---- ---- ------ ------ ------- --- ----- ---------<br>---- --- -------- -------- --- --- -- ------- --- --- -----<br>-- --- ------ ------- --- --- -------- ---- --------- --<br>---------- -- -------- ----------------,250733.30000000447,250726.30000000447,250502.711,250507.5,250519.378,250736.049,,2,Rapa
screen,html.Screen,2_3_1_0_1_3,2022-02-18T13:46:06.849Z,,,,,,,,,,,,,,,,,11,,,,,,,,,,,,,,178.25100000447128,,response,,,,4,F,,,,,,Space,keypress(Space),,,,instrumental,,,,----- -- ---- Nui -- --- -------- ------------ ---------- --<br>- ------- ------ --------- -- ------------ -- --- ---- -----<br>------ ---- ---- ------ ------ ------- --- ----- ---------<br>---- --- -------- -------- --- --- -- ------- --- --- -----<br>-- --- ------ ------- --- --- -------- ---- --------- --<br>---------- -- -------- ----------------,250921.30000000447,250914.30000000447,250719.382,250733.5,250736.049,250936.053,,3,Nui
screen,html.Screen,2_3_1_0_1_4,2022-02-18T13:46:07.052Z,,,,,,,,,,,,,,,,,11,,,,,,,,,,,,,,181.2470000044559,,response,,,,4,F,,,,,,Space,keypress(Space),,,,instrumental,,,,----- -- ---- --- to --- -------- ------------ ---------- --<br>- ------- ------ --------- -- ------------ -- --- ---- -----<br>------ ---- ---- ------ ------ ------- --- ----- ---------<br>---- --- -------- -------- --- --- -- ------- --- --- -----<br>-- --- ------ ------- --- --- -------- ---- --------- --<br>---------- -- -------- ----------------,251124.20000000298,251117.30000000447,250919.386,250921.5,250936.053,251136.057,,4,to
screen,html.Screen,2_3_1_0_1_5,2022-02-18T13:46:07.254Z,,,,,,,,,,,,,,,,,11,,,,,,,,,,,,,,183.24300000446965,,response,,,,4,F,,,,,,Space,keypress(Space),,,,instrumental,,,,----- -- ---- --- -- the -------- ------------ ---------- --<br>- ------- ------ --------- -- ------------ -- --- ---- -----<br>------ ---- ---- ------ ------ ------- --- ----- ---------<br>---- --- -------- -------- --- --- -- ------- --- --- -----<br>-- --- ------ ------- --- --- -------- ---- --------- --<br>---------- -- -------- ----------------,251326.3999999985,251319.30000000447,251119.39,251124.3999999985,251136.057,251336.061,,5,the
screen,html.Screen,2_3_1_0_1_6,2022-02-18T13:46:07.452Z,,,,,,,,,,,,,,,,,11,,,,,,,,,,,,,,181.2390000044834,,response,,,,4,F,,,,,,Space,keypress(Space),,,,instrumental,,,,----- -- ---- --- -- --- island's ------------ ---------- --<br>- ------- ------ --------- -- ------------ -- --- ---- -----<br>------ ---- ---- ------ ------ ------- --- ----- ---------<br>---- --- -------- -------- --- --- -- ------- --- --- -----<br>-- --- ------ ------- --- --- -------- ---- --------- --<br>---------- -- -------- ----------------,251524.30000000447,251517.30000000447,251319.394,251326.5,251336.061,251536.065,,6,island's
screen,html.Screen,2_3_1_0_1_7,2022-02-18T13:46:07.644Z,,,,,,,,,,,,,,,,,11,,,,,,,,,,,,,,173.23500000446802,,response,,,,4,F,,,,,,Space,keypress(Space),,,,instrumental,,,,"----- -- ---- --- -- --- -------- inhabitants, ---------- --<br>- ------- ------ --------- -- ------------ -- --- ---- -----<br>------ ---- ---- ------ ------ ------- --- ----- ---------<br>---- --- -------- -------- --- --- -- ------- --- --- -----<br>-- --- ------ ------- --- --- -------- ---- --------- --<br>---------- -- -------- ----------------",251716.3999999985,251709.30000000447,251519.398,251524.3999999985,251536.065,251719.402,,7,"inhabitants,"
screen,html.Screen,2_3_1_0_1_8,2022-02-18T13:46:07.891Z,,,,,,,,,,,,,,,,,11,,,,,,,,,,,,,,235.79800000297837,,response,,,,4,F,,,,,,Space,keypress(Space),,,,instrumental,,,,----- -- ---- --- -- --- -------- ------------ Rongorongo --<br>- ------- ------ --------- -- ------------ -- --- ---- -----<br>------ ---- ---- ------ ------ ------- --- ----- ---------<br>---- --- -------- -------- --- --- -- ------- --- --- -----<br>-- --- ------ ------- --- --- -------- ---- --------- --<br>---------- -- -------- ----------------,251962.6000000015,251955.20000000298,251702.735,251716.6000000015,251719.402,251969.407,,8,Rongorongo
screen,html.Screen,2_3_1_0_1_9,2022-02-18T13:46:08.133Z,,,,,,,,,,,,,,,,,11,,,,,,,,,,,,,,228.89300000446383,,response,,,,4,F,,,,,,Space,keypress(Space),,,,instrumental,,,,----- -- ---- --- -- --- -------- ------------ ---------- is<br>- ------- ------ --------- -- ------------ -- --- ---- -----<br>------ ---- ---- ------ ------ ------- --- ----- ---------<br>---- --- -------- -------- --- --- -- ------- --- --- -----<br>-- --- ------ ------- --- --- -------- ---- --------- --<br>---------- -- -------- ----------------,252205.30000000447,252198.30000000447,251952.74,251962.70000000298,251969.407,252219.412,,9,is
screen,html.Screen,2_3_1_0_1_10,2022-02-18T13:46:08.463Z,,,,,,,,,,,,,,,,,11,,,,,,,,,,,,,,307.8880000044592,,response,,,,4,F,,,,,,Space,keypress(Space),,,,instrumental,,,,----- -- ---- --- -- --- -------- ------------ ---------- --<br>a ------- ------ --------- -- ------------ -- --- ---- -----<br>------ ---- ---- ------ ------ ------- --- ----- ---------<br>---- --- -------- -------- --- --- -- ------- --- --- -----<br>-- --- ------ ------- --- --- -------- ---- --------- --<br>---------- -- -------- ----------------,252535.20000000298,252527.30000000447,252202.745,252205.3999999985,252219.412,252552.752,,10,a
screen,html.Screen,2_3_1_0_1_11,2022-02-18T13:46:08.684Z,,,,,,,,,,,,,,,,,11,,,,,,,,,,,,,,196.44800000297255,,response,,,,4,F,,,,,,Space,keypress(Space),,,,instrumental,,,,----- -- ---- --- -- --- -------- ------------ ---------- --<br>- writing ------ --------- -- ------------ -- --- ---- -----<br>------ ---- ---- ------ ------ ------- --- ----- ---------<br>---- --- -------- -------- --- --- -- ------- --- --- -----<br>-- --- ------ ------- --- --- -------- ---- --------- --<br>---------- -- -------- ----------------,252756.30000000447,252749.20000000298,252536.085,252535.3999999985,252552.752,252769.423,,11,writing
screen,html.Screen,2_3_1_0_1_12,2022-02-18T13:46:08.880Z,,,,,,,,,,,,,,,,,11,,,,,,,,,,,,,,175.77700000297045,,response,,,,4,F,,,,,,Space,keypress(Space),,,,instrumental,,,,----- -- ---- --- -- --- -------- ------------ ---------- --<br>- ------- system --------- -- ------------ -- --- ---- -----<br>------ ---- ---- ------ ------ ------- --- ----- ---------<br>---- --- -------- -------- --- --- -- ------- --- --- -----<br>-- --- ------ ------- --- --- -------- ---- --------- --<br>---------- -- -------- ----------------,252952.1000000015,252945.20000000298,252752.756,252756.3999999985,252769.423,252969.427,,12,system
screen,html.Screen,2_3_1_0_1_13,2022-02-18T13:46:09.081Z,,,,,,,,,,,,,,,,,11,,,,,,,,,,,,,,176.7730000029842,,response,,,,4,F,,,,,,Space,keypress(Space),,,,instrumental,,,,----- -- ---- --- -- --- -------- ------------ ---------- --<br>- ------- ------ comprised -- ------------ -- --- ---- -----<br>------ ---- ---- ------ ------ ------- --- ----- ---------<br>---- --- -------- -------- --- --- -- ------- --- --- -----<br>-- --- ------ ------- --- --- -------- ---- --------- --<br>---------- -- -------- ----------------,253153.3999999985,253146.20000000298,252952.76,252952.30000000447,252969.427,253169.431,,13,comprised
screen,html.Screen,2_3_1_0_1_14,2022-02-18T13:46:09.308Z,,,,,,,,,,,,,,,,,11,,,,,,,,,,,,,,202.76900000296882,,response,,,,4,F,,,,,,Space,keypress(Space),,,,instrumental,,,,----- -- ---- --- -- --- -------- ------------ ---------- --<br>- ------- ------ --------- of ------------ -- --- ---- -----<br>------ ---- ---- ------ ------ ------- --- ----- ---------<br>---- --- -------- -------- --- --- -- ------- --- --- -----<br>-- --- ------ ------- --- --- -------- ---- --------- --<br>---------- -- -------- ----------------,253379.6000000015,253372.20000000298,253152.764,253153.5,253169.431,253386.102,,14,of
screen,html.Screen,2_3_1_0_1_15,2022-02-18T13:46:09.596Z,,,,,,,,,,,,,,,,,11,,,,,,,,,,,,,,274.0980000029667,,response,,,,4,F,,,,,,Space,keypress(Space),,,,instrumental,,,,----- -- ---- --- -- --- -------- ------------ ---------- --<br>- ------- ------ --------- -- pictographs. -- --- ---- -----<br>------ ---- ---- ------ ------ ------- --- ----- ---------<br>---- --- -------- -------- --- --- -- ------- --- --- -----<br>-- --- ------ ------- --- --- -------- ---- --------- --<br>---------- -- -------- ----------------,253667.5,253660.20000000298,253369.435,253379.70000000298,253386.102,253686.108,,15,pictographs.
screen,html.Screen,2_3_1_0_1_16,2022-02-18T13:46:10.261Z,,,,,,,,,,,,,,,,,11,,,,,,,,,,,,,,639.9920000014827,,response,,,,4,F,,,,,,Space,keypress(Space),,,,instrumental,,,,----- -- ---- --- -- --- -------- ------------ ---------- --<br>- ------- ------ --------- -- ------------ It --- ---- -----<br>------ ---- ---- ------ ------ ------- --- ----- ---------<br>---- --- -------- -------- --- --- -- ------- --- --- -----<br>-- --- ------ ------- --- --- -------- ---- --------- --<br>---------- -- -------- ----------------,254333.1000000015,254326.1000000015,253669.441,253667.70000000298,253686.108,254336.121,,16,It
screen,html.Screen,2_3_1_0_1_17,2022-02-18T13:46:10.522Z,,,,,,,,,,,,,,,,,11,,,,,,,,,,,,,,250.87899999998626,,response,,,,4,F,,,,,,Space,keypress(Space),,,,instrumental,,,,----- -- ---- --- -- --- -------- ------------ ---------- --<br>- ------- ------ --------- -- ------------ -- has ---- -----<br>------ ---- ---- ------ ------ ------- --- ----- ---------<br>---- --- -------- -------- --- --- -- ------- --- --- -----<br>-- --- ------ ------- --- --- -------- ---- --------- --<br>---------- -- -------- ----------------,254594,254587,254319.454,254333.30000000447,254336.121,254602.793,,17,has
screen,html.Screen,2_3_1_0_1_18,2022-02-18T13:46:10.770Z,,,,,,,,,,,,,,,,,11,,,,,,,,,,,,,,232.20699999999488,,response,,,,4,F,,,,,,Space,keypress(Space),,,,instrumental,,,,----- -- ---- --- -- --- -------- ------------ ---------- --<br>- ------- ------ --------- -- ------------ -- --- been -----<br>------ ---- ---- ------ ------ ------- --- ----- ---------<br>---- --- -------- -------- --- --- -- ------- --- --- -----<br>-- --- ------ ------- --- --- -------- ---- --------- --<br>---------- -- -------- ----------------,254842.30000000447,254835,254586.126,254594.20000000298,254602.793,254852.798,,18,been
screen,html.Screen,2_3_1_0_1_19,2022-02-18T13:46:11.019Z,,,,,,,,,,,,,,,,,11,,,,,,,,,,,,,,231.30200000148034,,response,,,,4,F,,,,,,Space,keypress(Space),,,,instrumental,,,,----- -- ---- --- -- --- -------- ------------ ---------- --<br>- ------- ------ --------- -- ------------ -- --- ---- found<br>------ ---- ---- ------ ------ ------- --- ----- ---------<br>---- --- -------- -------- --- --- -- ------- --- --- -----<br>-- --- ------ ------- --- --- -------- ---- --------- --<br>---------- -- -------- ----------------,255091.30000000447,255084.1000000015,254836.131,254842.3999999985,254852.798,255102.803,,19,found
screen,html.Screen,2_3_1_0_1_20,2022-02-18T13:46:11.262Z,,,,,,,,,,,,,,,,,11,,,,,,,,,,,,,,224.29700000147568,,response,,,,4,F,,,,,,Space,keypress(Space),,,,instrumental,,,,----- -- ---- --- -- --- -------- ------------ ---------- --<br>- ------- ------ --------- -- ------------ -- --- ---- -----<br>carved ---- ---- ------ ------ ------- --- ----- ---------<br>---- --- -------- -------- --- --- -- ------- --- --- -----<br>-- --- ------ ------- --- --- -------- ---- --------- --<br>---------- -- -------- ----------------,255334.20000000298,255327.1000000015,255086.136,255091.3999999985,255102.803,255336.141,,20,carved
screen,html.Screen,2_3_1_0_1_21,2022-02-18T13:46:11.463Z,,,,,,,,,,,,,,,,,11,,,,,,,,,,,,,,191.85899999999674,,response,,,,4,F,,,,,,Space,keypress(Space),,,,instrumental,,,,----- -- ---- --- -- --- -------- ------------ ---------- --<br>- ------- ------ --------- -- ------------ -- --- ---- -----<br>------ into ---- ------ ------ ------- --- ----- ---------<br>---- --- -------- -------- --- --- -- ------- --- --- -----<br>-- --- ------ ------- --- --- -------- ---- --------- --<br>---------- -- -------- ----------------,255535,255528,255319.474,255334.30000000447,255336.141,255552.812,,21,into
screen,html.Screen,2_3_1_0_1_22,2022-02-18T13:46:11.668Z,,,,,,,,,,,,,,,,,11,,,,,,,,,,,,,,180.08799999850453,,response,,,,4,F,,,,,,Space,keypress(Space),,,,instrumental,,,,----- -- ---- --- -- --- -------- ------------ ---------- --<br>- ------- ------ --------- -- ------------ -- --- ---- -----<br>------ ---- many ------ ------ ------- --- ----- ---------<br>---- --- -------- -------- --- --- -- ------- --- --- -----<br>-- --- ------ ------- --- --- -------- ---- --------- --<br>---------- -- -------- ----------------,255740,255732.8999999985,255536.145,255535.20000000298,255552.812,255752.816,,22,many
screen,html.Screen,2_3_1_0_1_23,2022-02-18T13:46:11.898Z,,,,,,,,,,,,,,,,,11,,,,,,,,,,,,,,210.08399999851827,,response,,,,4,F,,,,,,Space,keypress(Space),,,,instrumental,,,,----- -- ---- --- -- --- -------- ------------ ---------- --<br>- ------- ------ --------- -- ------------ -- --- ---- -----<br>------ ---- ---- oblong ------ ------- --- ----- ---------<br>---- --- -------- -------- --- --- -- ------- --- --- -----<br>-- --- ------ ------- --- --- -------- ---- --------- --<br>---------- -- -------- ----------------,255970,255962.8999999985,255736.149,255740.1000000015,255752.816,255986.154,,23,oblong
screen,html.Screen,2_3_1_0_1_24,2022-02-18T13:46:12.117Z,,,,,,,,,,,,,,,,,11,,,,,,,,,,,,,,195.84599999999045,,response,,,,4,F,,,,,,Space,keypress(Space),,,,instrumental,,,,----- -- ---- --- -- --- -------- ------------ ---------- --<br>- ------- ------ --------- -- ------------ -- --- ---- -----<br>------ ---- ---- ------ wooden ------- --- ----- ---------<br>---- --- -------- -------- --- --- -- ------- --- --- -----<br>-- --- ------ ------- --- --- -------- ---- --------- --<br>---------- -- -------- ----------------,256189.1000000015,256182,255969.487,255970.1000000015,255986.154,256202.825,,24,wooden
screen,html.Screen,2_3_1_0_1_25,2022-02-18T13:46:12.340Z,,,,,,,,,,,,,,,,,11,,,,,,,,,,,,,,202.17499999998836,,response,,,,4,F,,,,,,Space,keypress(Space),,,,instrumental,,,,----- -- ---- --- -- --- -------- ------------ ---------- --<br>- ------- ------ --------- -- ------------ -- --- ---- -----<br>------ ---- ---- ------ ------ tablets --- ----- ---------<br>---- --- -------- -------- --- --- -- ------- --- --- -----<br>-- --- ------ ------- --- --- -------- ---- --------- --<br>---------- -- -------- ----------------,256411.80000000447,256405,256186.158,256189.20000000298,256202.825,256419.496,,25,tablets
screen,html.Screen,2_3_1_0_1_26,2022-02-18T13:46:12.574Z,,,,,,,,,,,,,,,,,11,,,,,,,,,,,,,,219.50399999998626,,response,,,,4,F,,,,,,Space,keypress(Space),,,,instrumental,,,,----- -- ---- --- -- --- -------- ------------ ---------- --<br>- ------- ------ --------- -- ------------ -- --- ---- -----<br>------ ---- ---- ------ ------ ------- and ----- ---------<br>---- --- -------- -------- --- --- -- ------- --- --- -----<br>-- --- ------ ------- --- --- -------- ---- --------- --<br>---------- -- -------- ----------------,256646.1000000015,256639,256402.829,256412,256419.496,256652.834,,26,and
screen,html.Screen,2_3_1_0_1_27,2022-02-18T13:46:12.823Z,,,,,,,,,,,,,,,,,11,,,,,,,,,,,,,,234.9660000044678,,response,,,,4,F,,,,,,Space,keypress(Space),,,,instrumental,,,,----- -- ---- --- -- --- -------- ------------ ---------- --<br>- ------- ------ --------- -- ------------ -- --- ---- -----<br>------ ---- ---- ------ ------ ------- --- other ---------<br>---- --- -------- -------- --- --- -- ------- --- --- -----<br>-- --- ------ ------- --- --- -------- ---- --------- --<br>---------- -- -------- ----------------,256894.80000000447,256887.80000000447,256636.167,256647.70000000298,256652.834,256902.839,,27,other
screen,html.Screen,2_3_1_0_1_28,2022-02-18T13:46:13.067Z,,,,,,,,,,,,,,,,,11,,,,,,,,,,,,,,229.06099999850267,,response,,,,4,F,,,,,,Space,keypress(Space),,,,instrumental,,,,----- -- ---- --- -- --- -------- ------------ ---------- --<br>- ------- ------ --------- -- ------------ -- --- ---- -----<br>------ ---- ---- ------ ------ ------- --- ----- artifacts<br>---- --- -------- -------- --- --- -- ------- --- --- -----<br>-- --- ------ ------- --- --- -------- ---- --------- --<br>---------- -- -------- ----------------,257139.20000000298,257131.8999999985,256886.172,256895,256902.839,257152.844,,28,artifacts
screen,html.Screen,2_3_1_0_1_29,2022-02-18T13:46:13.307Z,,,,,,,,,,,,,,,,,11,,,,,,,,,,,,,,219.055999998498,,response,,,,4,F,,,,,,Space,keypress(Space),,,,instrumental,,,,----- -- ---- --- -- --- -------- ------------ ---------- --<br>- ------- ------ --------- -- ------------ -- --- ---- -----<br>------ ---- ---- ------ ------ ------- --- ----- ---------<br>from --- -------- -------- --- --- -- ------- --- --- -----<br>-- --- ------ ------- --- --- -------- ---- --------- --<br>---------- -- -------- ----------------,257379.30000000447,257371.8999999985,257136.177,257139.3999999985,257152.844,257386.182,,29,from
screen,html.Screen,2_3_1_0_1_30,2022-02-18T13:46:13.558Z,,,,,,,,,,,,,,,,,11,,,,,,,,,,,,,,236.61800000446965,,response,,,,4,F,,,,,,Space,keypress(Space),,,,instrumental,,,,----- -- ---- --- -- --- -------- ------------ ---------- --<br>- ------- ------ --------- -- ------------ -- --- ---- -----<br>------ ---- ---- ------ ------ ------- --- ----- ---------<br>---- the -------- -------- --- --- -- ------- --- --- -----<br>-- --- ------ ------- --- --- -------- ---- --------- --<br>---------- -- -------- ----------------,257629.70000000298,257622.80000000447,257369.515,257379.3999999985,257386.182,257636.187,,30,the
screen,html.Screen,2_3_1_0_1_31,2022-02-18T13:46:13.777Z,,,,,,,,,,,,,,,,,11,,,,,,,,,,,,,,205.71299999850453,,response,,,,4,F,,,,,,Space,keypress(Space),,,,instrumental,,,,----- -- ---- --- -- --- -------- ------------ ---------- --<br>- ------- ------ --------- -- ------------ -- --- ---- -----<br>------ ---- ---- ------ ------ ------- --- ----- ---------<br>---- --- island's -------- --- --- -- ------- --- --- -----<br>-- --- ------ ------- --- --- -------- ---- --------- --<br>---------- -- -------- ----------------,257849.1000000015,257841.8999999985,257619.52,257629.8999999985,257636.187,257852.858,,31,island's
screen,html.Screen,2_3_1_0_1_32,2022-02-18T13:46:13.966Z,,,,,,,,,,,,,,,,,11,,,,,,,,,,,,,,177.9420000044629,,response,,,,4,F,,,,,,Space,keypress(Space),,,,instrumental,,,,----- -- ---- --- -- --- -------- ------------ ---------- --<br>- ------- ------ --------- -- ------------ -- --- ---- -----<br>------ ---- ---- ------ ------ ------- --- ----- ---------<br>---- --- -------- history. --- --- -- ------- --- --- -----<br>-- --- ------ ------- --- --- -------- ---- --------- --<br>---------- -- -------- ----------------,258037.80000000447,258030.80000000447,257836.191,257849.30000000447,257852.858,258052.862,,32,history.
screen,html.Screen,2_3_1_0_1_33,2022-02-18T13:46:14.173Z,,,,,,,,,,,,,,,,,11,,,,,,,,,,,,,,184.03799999851617,,response,,,,4,F,,,,,,Space,keypress(Space),,,,instrumental,,,,----- -- ---- --- -- --- -------- ------------ ---------- --<br>- ------- ------ --------- -- ------------ -- --- ---- -----<br>------ ---- ---- ------ ------ ------- --- ----- ---------<br>---- --- -------- -------- The --- -- ------- --- --- -----<br>-- --- ------ ------- --- --- -------- ---- --------- --<br>---------- -- -------- ----------------,258244.80000000447,258236.8999999985,258036.195,258038,258052.862,258252.866,,33,The
screen,html.Screen,2_3_1_0_1_34,2022-02-18T13:46:14.394Z,,,,,,,,,,,,,,,,,11,,,,,,,,,,,,,,205.73400000148104,,response,,,,4,F,,,,,,Space,keypress(Space),,,,instrumental,,,,----- -- ---- --- -- --- -------- ------------ ---------- --<br>- ------- ------ --------- -- ------------ -- --- ---- -----<br>------ ---- ---- ------ ------ ------- --- ----- ---------<br>---- --- -------- -------- --- art -- ------- --- --- -----<br>-- --- ------ ------- --- --- -------- ---- --------- --<br>---------- -- -------- ----------------,258465.5,258458.6000000015,258236.199,258245,258252.866,258469.537,,34,art
screen,html.Screen,2_3_1_0_1_35,2022-02-18T13:46:14.621Z,,,,,,,,,,,,,,,,,11,,,,,,,,,,,,,,216.16300000296906,,response,,,,4,F,,,,,,Space,keypress(Space),,,,instrumental,,,,----- -- ---- --- -- --- -------- ------------ ---------- --<br>- ------- ------ --------- -- ------------ -- --- ---- -----<br>------ ---- ---- ------ ------ ------- --- ----- ---------<br>---- --- -------- -------- --- --- of ------- --- --- -----<br>-- --- ------ ------- --- --- -------- ---- --------- --<br>---------- -- -------- ----------------,258692.80000000447,258685.70000000298,258452.87,258465.70000000298,258469.537,258702.875,,35,of
screen,html.Screen,2_3_1_0_1_36,2022-02-18T13:46:14.814Z,,,,,,,,,,,,,,,,,11,,,,,,,,,,,,,,175.82500000298023,,response,,,,4,F,,,,,,Space,keypress(Space),,,,instrumental,,,,----- -- ---- --- -- --- -------- ------------ ---------- --<br>- ------- ------ --------- -- ------------ -- --- ---- -----<br>------ ---- ---- ------ ------ ------- --- ----- ---------<br>---- --- -------- -------- --- --- -- writing --- --- -----<br>-- --- ------ ------- --- --- -------- ---- --------- --<br>---------- -- -------- ----------------,258885.80000000447,258878.70000000298,258686.208,258692.8999999985,258702.875,258902.879,,36,writing
screen,html.Screen,2_3_1_0_1_37,2022-02-18T13:46:15.014Z,,,,,,,,,,,,,,,,,11,,,,,,,,,,,,,,175.72100000150385,,response,,,,4,F,,,,,,Space,keypress(Space),,,,instrumental,,,,----- -- ---- --- -- --- -------- ------------ ---------- --<br>- ------- ------ --------- -- ------------ -- --- ---- -----<br>------ ---- ---- ------ ------ ------- --- ----- ---------<br>---- --- -------- -------- --- --- -- ------- was --- -----<br>-- --- ------ ------- --- --- -------- ---- --------- --<br>---------- -- -------- ----------------,259086,259078.6000000015,258886.212,258885.8999999985,258902.879,259102.883,,37,was
screen,html.Screen,2_3_1_0_1_38,2022-02-18T13:46:15.226Z,,,,,,,,,,,,,,,,,11,,,,,,,,,,,,,,187.91700000446872,,response,,,,4,F,,,,,,Space,keypress(Space),,,,instrumental,,,,----- -- ---- --- -- --- -------- ------------ ---------- --<br>- ------- ------ --------- -- ------------ -- --- ---- -----<br>------ ---- ---- ------ ------ ------- --- ----- ---------<br>---- --- -------- -------- --- --- -- ------- --- not -----<br>-- --- ------ ------- --- --- -------- ---- --------- --<br>---------- -- -------- ----------------,259297.80000000447,259290.80000000447,259086.216,259086.1000000015,259102.883,259302.887,,38,not
screen,html.Screen,2_3_1_0_1_39,2022-02-18T13:46:15.433Z,,,,,,,,,,,,,,,,,11,,,,,,,,,,,,,,194.71300000150222,,response,,,,4,F,,,,,,Space,keypress(Space),,,,instrumental,,,,----- -- ---- --- -- --- -------- ------------ ---------- --<br>- ------- ------ --------- -- ------------ -- --- ---- -----<br>------ ---- ---- ------ ------ ------- --- ----- ---------<br>---- --- -------- -------- --- --- -- ------- --- --- known<br>-- --- ------ ------- --- --- -------- ---- --------- --<br>---------- -- -------- ----------------,259504.70000000298,259497.6000000015,259286.22,259297.8999999985,259302.887,259519.558,,39,known
