sender,sender_type,sender_id,timestamp,meta,,Blues,Classical,Country,Dance,Electronic,Folk,Gospel,Hip-Hop,Jazz,Latin,Musical/Film,New-age,Pop,Prolific_id,Provo_ID,R&B,Rap,Reggae,Religious,Rock,Soul,Swing,Traditional,age,artist_name,correct,correctResponse,distraction,duration,education,ended_on,familiarity,gender,headphone_check_performance,item,list,music_frequency,offensiveness,pleasantness,position_correct,preference,response,response_action,snippet_file,song_name,song_rating,sound,stimulus_1,stimulus_2,stimulus_3,text,time_commit,time_end,time_render,time_run,time_show,time_switch,url,word,word_ID
Prolific ID,html.Form,0,2022-02-02T16:09:49.404Z,"{""labjs_version"":""20.2.2"",""labjs_build"":{""flavor"":""production"",""commit"":""a25486e0c714a0ae2ce03ff94b7bb6896854dcfa""},""location"":""https://run.pavlovia.org/mvasilev/prolific2_music_d/"",""userAgent"":""Mozilla/5.0 (Windows NT 10.0; Win64; x64) AppleWebKit/537.36 (KHTML, like Gecko) Chrome/97.0.4692.99 Safari/537.36"",""platform"":""Win32"",""language"":""en-GB"",""locale"":""en-GB"",""timeZone"":""Europe/London"",""timezoneOffset"":0,""screen_width"":1920,""screen_height"":1080,""scroll_width"":1920,""scroll_height"":921,""window_innerWidth"":1920,""window_innerHeight"":969,""devicePixelRatio"":1}",,,,,,,,,,,,,,,5c0822f550d77a000164d7ce,,,,,,,,,,,,,,,3364.3520000000008,,form submission,,,,,,,,,,,,,,,,,,,,,17911.29999998212,17911,14513.19,14523.299999982119,14546.648,17916.613,{},,
Introduction,html.Screen,1_0,2022-02-02T16:10:10.276Z,,,,,,,,,,,,,,,,,,,,,,,,,,,,,,,20864.98699999404,,response,,,,,,,,,,,continue,click button,,,,,,,,,38783,38781.59999999404,17900.009,17911.5,17916.613,38787.463,,,
Volume calibration,html.Screen,1_1,2022-02-02T16:10:23.252Z,,,,,,,,,,,,,,,,,,,,,,,,,,,,,,,12970.236999988076,,response,,,,,,,,,,,continue,click button,,,,,,,,,51759.19999998808,51757.69999998808,38770.752,38783,38787.463,51767.378,,,
Task instructions,html.Screen,1_2,2022-02-02T16:10:28.275Z,,,,,,,,,,,,,,,,,,,,,,,,,,,,,,,5014.221999994043,,response,,,,,,,,,,,continue,click button,,,,,,,,,56782,56781.59999999404,51750.355,51759.29999998212,51767.378,56788.753,,,
Sounds,html.Screen,1_3_0_0,2022-02-02T16:10:32.519Z,,,,,,,,,,,,,,,,,,,,,,,,,,,,,,,4254.270000000004,,timeout,,,,,,,,,1,,,,,,,,S,O,I,,61027.59999999404,61026.347,56772.16,56782.09999999404,56788.753,61043.023,,,
Judgement,html.Screen,1_3_0_1,2022-02-02T16:10:35.034Z,,,,,,,,,,,,,,,,,,,,,,,,,,,,true,1,,2498.5769999940385,,response,,,,,,,,,1,,1,click #choice-1,,,,,S,O,I,,63542.19999998808,63541.59999999404,61026.347,61027.69999998808,61043.023,63545.581,,,
Trial,flow.Sequence,1_3_0,2022-02-02T16:10:35.034Z,,,,,,,,,,,,,,,,,,,,,,,,,,,,,,,6752.846999994043,,completion,,,,,,,,,1,,,,,,,,S,O,I,,63542.29999998212,63541.59999999404,56772.16,56782.09999999404,56788.753,63545.581,,,
Sounds,html.Screen,1_3_1_0,2022-02-02T16:10:39.275Z,,,,,,,,,,,,,,,,,,,,,,,,,,,,,,,4254.165000000001,,timeout,,,,,,,,,2,,,,,,,,O,S,I,,67783.59999999404,67783.066,63528.927,63542.40000000596,63545.581,67799.746,,,
Judgement,html.Screen,1_3_1_1,2022-02-02T16:10:39.666Z,,,,,,,,,,,,,,,,,,,,,,,,,,,,true,2,,373.7540000000008,,response,,,,,,,,,2,,2,click #choice-2,,,,,O,S,I,,68174,68173.5,67783.066,67783.59999999404,67799.746,68183.466,,,
Trial,flow.Sequence,1_3_1,2022-02-02T16:10:39.666Z,,,,,,,,,,,,,,,,,,,,,,,,,,,,,,,4627.919000000002,,completion,,,,,,,,,2,,,,,,,,O,S,I,,68174.19999998808,68173.5,63528.927,63542.40000000596,63545.581,68183.466,,,
Sounds,html.Screen,1_3_2_0,2022-02-02T16:10:43.913Z,,,,,,,,,,,,,,,,,,,,,,,,,,,,,,,4254.236000000004,,timeout,,,,,,,,,1,,,,,,,,S,I,O,,72421.5,72421.132,68166.857,68174.29999998212,68183.466,72437.702,,,
Judgement,html.Screen,1_3_2_1,2022-02-02T16:10:44.298Z,,,,,,,,,,,,,,,,,,,,,,,,,,,,true,1,,367.89799999403476,,response,,,,,,,,,1,,1,click #choice-1,,,,,S,I,O,,72806.09999999404,72805.59999999404,72421.132,72421.69999998808,72437.702,72821.459,,,
Trial,flow.Sequence,1_3_2,2022-02-02T16:10:44.298Z,,,,,,,,,,,,,,,,,,,,,,,,,,,,,,,4622.133999994039,,completion,,,,,,,,,1,,,,,,,,S,I,O,,72806.19999998808,72805.59999999404,68166.857,68174.29999998212,68183.466,72821.459,,,
Sounds,html.Screen,1_3_3_0,2022-02-02T16:10:48.551Z,,,,,,,,,,,,,,,,,,,,,,,,,,,,,,,4254.322,,timeout,,,,,,,,,2,,,,,,,,I,S,O,,77059.5,77059.016,72804.769,72806.29999998212,72821.459,77075.781,,,
Judgement,html.Screen,1_3_3_1,2022-02-02T16:10:48.874Z,,,,,,,,,,,,,,,,,,,,,,,,,,,,true,2,,305.81899999403686,,response,,,,,,,,,2,,2,click #choice-2,,,,,I,S,O,,77382.09999999404,77381.59999999404,77059.016,77059.59999999404,77075.781,77392.747,,,
Trial,flow.Sequence,1_3_3,2022-02-02T16:10:48.874Z,,,,,,,,,,,,,,,,,,,,,,,,,,,,,,,4560.140999994037,,completion,,,,,,,,,2,,,,,,,,I,S,O,,77382.19999998808,77381.59999999404,72804.769,72806.29999998212,72821.459,77392.747,,,
Sounds,html.Screen,1_3_4_0,2022-02-02T16:10:53.123Z,,,,,,,,,,,,,,,,,,,,,,,,,,,,,,,4254.195999999996,,timeout,,,,,,,,,3,,,,,,,,I,O,S,,81630.79999998212,81630.258,77376.059,77382.29999998212,77392.747,81646.943,,,
Judgement,html.Screen,1_3_4_1,2022-02-02T16:10:53.642Z,,,,,,,,,,,,,,,,,,,,,,,,,,,,true,3,,502.65699999404023,,response,,,,,,,,,3,,3,click #choice-3,,,,,I,O,S,,82150.09999999404,82149.59999999404,81630.258,81630.79999998212,81646.943,82164.18,,,
Trial,flow.Sequence,1_3_4,2022-02-02T16:10:53.642Z,,,,,,,,,,,,,,,,,,,,,,,,,,,,,,,4756.8529999940365,,completion,,,,,,,,,3,,,,,,,,I,O,S,,82150.09999999404,82149.59999999404,77376.059,77382.29999998212,77392.747,82164.18,,,
Sounds,html.Screen,1_3_5_0,2022-02-02T16:10:57.894Z,,,,,,,,,,,,,,,,,,,,,,,,,,,,,,,4254.191000000006,,timeout,,,,,,,,,3,,,,,,,,O,I,S,,86402.09999999404,86401.743,82147.428,82150.19999998808,82164.18,86418.371,,,
Judgement,html.Screen,1_3_5_1,2022-02-02T16:11:00.300Z,,,,,,,,,,,,,,,,,,,,,,,,,,,,true,3,,2388.4289999821194,,response,,,,,,,,,3,,3,click #choice-3,,,,,O,I,S,,88807.90000000596,88806.79999998212,86401.743,86402.19999998808,86418.371,88820.744,,,
Trial,flow.Sequence,1_3_5,2022-02-02T16:11:00.300Z,,,,,,,,,,,,,,,,,,,,,,,,,,,,,,,6642.619999982126,,completion,,,,,,,,,3,,,,,,,,O,I,S,,88808,88806.79999998212,82147.428,82150.19999998808,82164.18,88820.744,,,
Task,flow.Loop,1_3,2022-02-02T16:11:00.302Z,,,,,,,,,,,,,,,,,,,,,,,,,,,,,,,32018.04699998212,,completion,,,1,,,,,,,,,,,,,,,,,,88810.69999998808,88806.79999998212,56772.16,56782.09999999404,56788.753,88820.744,,,
Trap,html.Screen,1_4,2022-02-02T16:11:00.303Z,,,,,,,,,,,,,,,,,,,,,,,,,,,,,,,NaN,,skipped,,,,,,,,,,,,,,,,,,,,,88811.40000000596,88806.79999998212,,88811.40000000596,,88820.744,,,
Thanks,html.Screen,1_5,2022-02-02T16:11:03.242Z,,,,,,,,,,,,,,,,,,,,,,,,,,,,,,,2928.8559999940335,,response,,,,,,,,,,,continue,click button,,,,,,,,,91749.90000000596,91749.59999999404,88804.096,88811.40000000596,88820.744,93959.238,,,
Headphone screening,flow.Sequence,1,2022-02-02T16:11:03.242Z,,,,,,,,,,,,,,,,,,,,,,,,,,,,,,,73832.98699999404,,completion,,,,,,,,,,,,,,,,,,,,,91750,91749.59999999404,17900.009,17911.5,17916.613,93959.238,,,
Instructions,html.Page,2_0,2022-02-02T16:11:19.258Z,,,,,,,,,,,,,,,,,,,,,,,,,,,,,,,13806.762000000002,,form submission,,,,,,,,,,,,,,,,,,,,,107766.19999998808,107766,93942.555,93966.5,93959.238,107789.702,,,
Holding screen,html.Screen,2_1_0_0,2022-02-02T16:11:29.260Z,,,,,,,,,,,,,,,,,,,,,,,,,,,,,,,9993.512000000002,,timeout,,,,,,,,,,,,,,,,,,,,,117767.69999998808,117766.663,107773.163,107766.29999998212,107789.702,117783.214,,,
screen,html.Screen,2_1_0_1_0,2022-02-02T16:11:30.260Z,,,,,,,,,,,,,,,,,53,,,,,,,,,,,,,,983.1860000059532,,response,,,,99,,,,,,,Space,keypress(Space),,,,,,,,When -- ----- -- ------ - ------- --- ----------<br>------------- ------ ------ ---- ---- ------- ----- -- ----<br>-------- ------- -- ---------- --- - --- ----- ----- ----<br>---- --- --- ----- --- ---- ---- ------- ----- ---- -------<br>--- --- -- ----- -- --- ---- -- --- ---- -- ------ ------<br>--- ----- -- ----,118767.69999998808,118766.40000000596,117766.663,117768,117783.214,118796.411,,0,When
screen,html.Screen,2_1_0_1_1,2022-02-02T16:11:30.787Z,,,,,,,,,,,,,,,,,53,,,,,,,,,,,,,,498.2889999880863,,response,,,,99,,,,,,,Space,keypress(Space),,,,,,,,---- it ----- -- ------ - ------- --- ----------<br>------------- ------ ------ ---- ---- ------- ----- -- ----<br>-------- ------- -- ---------- --- - --- ----- ----- ----<br>---- --- --- ----- --- ---- ---- ------- ----- ---- -------<br>--- --- -- ----- -- --- ---- -- --- ---- -- ------ ------<br>--- ----- -- ----,119295.5,119294.69999998808,118750.852,118767.90000000596,118796.411,119301.266,,1,it
screen,html.Screen,2_1_0_1_2,2022-02-02T16:11:31.314Z,,,,,,,,,,,,,,,,,53,,,,,,,,,,,,,,520.7339999999967,,response,,,,99,,,,,,,Space,keypress(Space),,,,,,,,---- -- comes -- ------ - ------- --- ----------<br>------------- ------ ------ ---- ---- ------- ----- -- ----<br>-------- ------- -- ---------- --- - --- ----- ----- ----<br>---- --- --- ----- --- ---- ---- ------- ----- ---- -------<br>--- --- -- ----- -- --- ---- -- --- ---- -- ------ ------<br>--- ----- -- ----,119822.40000000596,119822,119284.63,119295.79999998212,119301.266,119835.152,,2,comes
screen,html.Screen,2_1_0_1_3,2022-02-02T16:11:31.738Z,,,,,,,,,,,,,,,,,53,,,,,,,,,,,,,,410.7480000059586,,response,,,,99,,,,,,,Space,keypress(Space),,,,,,,,---- -- ----- to ------ - ------- --- ----------<br>------------- ------ ------ ---- ---- ------- ----- -- ----<br>-------- ------- -- ---------- --- - --- ----- ----- ----<br>---- --- --- ----- --- ---- ---- ------- ----- ---- -------<br>--- --- -- ----- -- --- ---- -- --- ---- -- ------ ------<br>--- ----- -- ----,120246.29999998212,120245.90000000596,119818.524,119822.5,119835.152,120252.228,,3,to
screen,html.Screen,2_1_0_1_4,2022-02-02T16:11:32.309Z,,,,,,,,,,,,,,,,,53,,,,,,,,,,,,,,564.3719999940367,,response,,,,99,,,,,,,Space,keypress(Space),,,,,,,,---- -- ----- -- having - ------- --- ----------<br>------------- ------ ------ ---- ---- ------- ----- -- ----<br>-------- ------- -- ---------- --- - --- ----- ----- ----<br>---- --- --- ----- --- ---- ---- ------- ----- ---- -------<br>--- --- -- ----- -- --- ---- -- --- ---- -- ------ ------<br>--- ----- -- ----,120817.40000000596,120816.59999999404,120235.515,120246.29999998212,120252.228,120836.155,,4,having
screen,html.Screen,2_1_0_1_5,2022-02-02T16:11:32.755Z,,,,,,,,,,,,,,,,,53,,,,,,,,,,,,,,426.14499998211977,,response,,,,99,,,,,,,Space,keypress(Space),,,,,,,,---- -- ----- -- ------ a ------- --- ----------<br>------------- ------ ------ ---- ---- ------- ----- -- ----<br>-------- ------- -- ---------- --- - --- ----- ----- ----<br>---- --- --- ----- --- ---- ---- ------- ----- ---- -------<br>--- --- -- ----- -- --- ---- -- --- ---- -- ------ ------<br>--- ----- -- ----,121263,121262.29999998212,120802.979,120818.69999998808,120836.155,121269.92,,5,a
screen,html.Screen,2_1_0_1_6,2022-02-02T16:11:33.179Z,,,,,,,,,,,,,,,,,53,,,,,,,,,,,,,,416.6799999940413,,response,,,,99,,,,,,,Space,keypress(Space),,,,,,,,---- -- ----- -- ------ - lasting --- ----------<br>------------- ------ ------ ---- ---- ------- ----- -- ----<br>-------- ------- -- ---------- --- - --- ----- ----- ----<br>---- --- --- ----- --- ---- ---- ------- ----- ---- -------<br>--- --- -- ----- -- --- ---- -- --- ---- -- ------ ------<br>--- ----- -- ----,121687.40000000596,121686.59999999404,121253.38,121263.29999998212,121269.92,121703.749,,6,lasting
screen,html.Screen,2_1_0_1_7,2022-02-02T16:11:33.587Z,,,,,,,,,,,,,,,,,53,,,,,,,,,,,,,,390.55099998212245,,response,,,,99,,,,,,,Space,keypress(Space),,,,,,,,---- -- ----- -- ------ - ------- and ----------<br>------------- ------ ------ ---- ---- ------- ----- -- ----<br>-------- ------- -- ---------- --- - --- ----- ----- ----<br>---- --- --- ----- --- ---- ---- ------- ----- ---- -------<br>--- --- -- ----- -- --- ---- -- --- ---- -- ------ ------<br>--- ----- -- ----,122095.09999999404,122094.29999998212,121687.186,121687.69999998808,121703.749,122104.072,,7,and
screen,html.Screen,2_1_0_1_8,2022-02-02T16:11:34.026Z,,,,,,,,,,,,,,,,,53,,,,,,,,,,,,,,429.9279999999999,,response,,,,99,,,,,,,Space,keypress(Space),,,,,,,,---- -- ----- -- ------ - ------- --- fulfilling<br>------------- ------ ------ ---- ---- ------- ----- -- ----<br>-------- ------- -- ---------- --- - --- ----- ----- ----<br>---- --- --- ----- --- ---- ---- ------- ----- ---- -------<br>--- --- -- ----- -- --- ---- -- --- ---- -- ------ ------<br>--- ----- -- ----,122534.5,122534,122087.418,122095.29999998212,122104.072,122537.808,,8,fulfilling
screen,html.Screen,2_1_0_1_9,2022-02-02T16:11:34.435Z,,,,,,,,,,,,,,,,,53,,,,,,,,,,,,,,404.5920000059559,,response,,,,99,,,,,,,Space,keypress(Space),,,,,,,,"---- -- ----- -- ------ - ------- --- ----------<br>relationship, ------ ------ ---- ---- ------- ----- -- ----<br>-------- ------- -- ---------- --- - --- ----- ----- ----<br>---- --- --- ----- --- ---- ---- ------- ----- ---- -------<br>--- --- -- ----- -- --- ---- -- --- ---- -- ------ ------<br>--- ----- -- ----",122943.09999999404,122942.40000000596,122521.1,122534.69999998808,122537.808,122955.091,,9,"relationship,"
screen,html.Screen,2_1_0_1_10,2022-02-02T16:11:34.789Z,,,,,,,,,,,,,,,,,53,,,,,,,,,,,,,,341.5089999940392,,response,,,,99,,,,,,,Space,keypress(Space),,,,,,,,---- -- ----- -- ------ - ------- --- ----------<br>------------- common ------ ---- ---- ------- ----- -- ----<br>-------- ------- -- ---------- --- - --- ----- ----- ----<br>---- --- --- ----- --- ---- ---- ------- ----- ---- -------<br>--- --- -- ----- -- --- ---- -- --- ---- -- ------ ------<br>--- ----- -- ----,123297.40000000596,123296.59999999404,122938.456,122943.29999998212,122955.091,123305.325,,10,common
screen,html.Screen,2_1_0_1_11,2022-02-02T16:11:35.170Z,,,,,,,,,,,,,,,,,53,,,,,,,,,,,,,,372.5750000059634,,response,,,,99,,,,,,,Space,keypress(Space),,,,,,,,---- -- ----- -- ------ - ------- --- ----------<br>------------- ------ wisdom ---- ---- ------- ----- -- ----<br>-------- ------- -- ---------- --- - --- ----- ----- ----<br>---- --- --- ----- --- ---- ---- ------- ----- ---- -------<br>--- --- -- ----- -- --- ---- -- --- ---- -- ------ ------<br>--- ----- -- ----,123678.40000000596,123677.90000000596,123288.714,123297.59999999404,123305.325,123688.944,,11,wisdom
screen,html.Screen,2_1_0_1_12,2022-02-02T16:11:35.442Z,,,,,,,,,,,,,,,,,53,,,,,,,,,,,,,,260.6559999940364,,response,,,,99,,,,,,,Space,keypress(Space),,,,,,,,---- -- ----- -- ------ - ------- --- ----------<br>------------- ------ ------ says ---- ------- ----- -- ----<br>-------- ------- -- ---------- --- - --- ----- ----- ----<br>---- --- --- ----- --- ---- ---- ------- ----- ---- -------<br>--- --- -- ----- -- --- ---- -- --- ---- -- ------ ------<br>--- ----- -- ----,123950.09999999404,123949.59999999404,123672.456,123678.5,123688.944,123955.844,,12,says
screen,html.Screen,2_1_0_1_13,2022-02-02T16:11:35.731Z,,,,,,,,,,,,,,,,,53,,,,,,,,,,,,,,282.85599998808175,,response,,,,99,,,,,,,Space,keypress(Space),,,,,,,,---- -- ----- -- ------ - ------- --- ----------<br>------------- ------ ------ ---- that ------- ----- -- ----<br>-------- ------- -- ---------- --- - --- ----- ----- ----<br>---- --- --- ----- --- ---- ---- ------- ----- ---- -------<br>--- --- -- ----- -- --- ---- -- --- ---- -- ------ ------<br>--- ----- -- ----,124239.5,124238.69999998808,123939.253,123950.19999998808,123955.844,124256.197,,13,that
screen,html.Screen,2_1_0_1_14,2022-02-02T16:11:36.003Z,,,,,,,,,,,,,,,,,53,,,,,,,,,,,,,,254.00299998807895,,response,,,,99,,,,,,,Space,keypress(Space),,,,,,,,---- -- ----- -- ------ - ------- --- ----------<br>------------- ------ ------ ---- ---- feeling ----- -- ----<br>-------- ------- -- ---------- --- - --- ----- ----- ----<br>---- --- --- ----- --- ---- ---- ------- ----- ---- -------<br>--- --- -- ----- -- --- ---- -- --- ---- -- ------ ------<br>--- ----- -- ----,124510.90000000596,124510.19999998808,124239.688,124239.69999998808,124256.197,124523.169,,14,feeling
screen,html.Screen,2_1_0_1_15,2022-02-02T16:11:36.210Z,,,,,,,,,,,,,,,,,53,,,,,,,,,,,,,,194.6309999821242,,response,,,,99,,,,,,,Space,keypress(Space),,,,,,,,---- -- ----- -- ------ - ------- --- ----------<br>------------- ------ ------ ---- ---- ------- close -- ----<br>-------- ------- -- ---------- --- - --- ----- ----- ----<br>---- --- --- ----- --- ---- ---- ------- ----- ---- -------<br>--- --- -- ----- -- --- ---- -- --- ---- -- ------ ------<br>--- ----- -- ----,124718.09999999404,124717.79999998212,124506.408,124511.19999998808,124523.169,124723.516,,15,close
screen,html.Screen,2_1_0_1_16,2022-02-02T16:11:36.411Z,,,,,,,,,,,,,,,,,53,,,,,,,,,,,,,,194.8840000059572,,response,,,,99,,,,,,,Space,keypress(Space),,,,,,,,---- -- ----- -- ------ - ------- --- ----------<br>------------- ------ ------ ---- ---- ------- ----- to ----<br>-------- ------- -- ---------- --- - --- ----- ----- ----<br>---- --- --- ----- --- ---- ---- ------- ----- ---- -------<br>--- --- -- ----- -- --- ---- -- --- ---- -- ------ ------<br>--- ----- -- ----,124919,124918.40000000596,124706.818,124718.29999998212,124723.516,124923.521,,16,to
screen,html.Screen,2_1_0_1_17,2022-02-02T16:11:36.651Z,,,,,,,,,,,,,,,,,53,,,,,,,,,,,,,,234.97900000000664,,response,,,,99,,,,,,,Space,keypress(Space),,,,,,,,---- -- ----- -- ------ - ------- --- ----------<br>------------- ------ ------ ---- ---- ------- ----- -- your<br>-------- ------- -- ---------- --- - --- ----- ----- ----<br>---- --- --- ----- --- ---- ---- ------- ----- ---- -------<br>--- --- -- ----- -- --- ---- -- --- ---- -- ------ ------<br>--- ----- -- ----,125159.29999998212,125158.5,124906.902,124919.19999998808,124923.521,125174.001,,17,your
screen,html.Screen,2_1_0_1_18,2022-02-02T16:11:36.843Z,,,,,,,,,,,,,,,,,53,,,,,,,,,,,,,,176.29899998211476,,response,,,,99,,,,,,,Space,keypress(Space),,,,,,,,---- -- ----- -- ------ - ------- --- ----------<br>------------- ------ ------ ---- ---- ------- ----- -- ----<br>romantic ------- -- ---------- --- - --- ----- ----- ----<br>---- --- --- ----- --- ---- ---- ------- ----- ---- -------<br>--- --- -- ----- -- --- ---- -- --- ---- -- ------ ------<br>--- ----- -- ----,125351.09999999404,125350.29999998212,125157.377,125159.79999998212,125174.001,125357.392,,18,romantic
screen,html.Screen,2_1_0_1_19,2022-02-02T16:11:37.115Z,,,,,,,,,,,,,,,,,53,,,,,,,,,,,,,,265.00800000595336,,response,,,,99,,,,,,,Space,keypress(Space),,,,,,,,---- -- ----- -- ------ - ------- --- ----------<br>------------- ------ ------ ---- ---- ------- ----- -- ----<br>-------- partner -- ---------- --- - --- ----- ----- ----<br>---- --- --- ----- --- ---- ---- ------- ----- ---- -------<br>--- --- -- ----- -- --- ---- -- --- ---- -- ------ ------<br>--- ----- -- ----,125623.19999998808,125622.40000000596,125340.624,125351.29999998212,125357.392,125655.211,,19,partner
screen,html.Screen,2_1_0_1_20,2022-02-02T16:11:37.387Z,,,,,,,,,,,,,,,,,53,,,,,,,,,,,,,,239.18900000596477,,response,,,,99,,,,,,,Space,keypress(Space),,,,,,,,---- -- ----- -- ------ - ------- --- ----------<br>------------- ------ ------ ---- ---- ------- ----- -- ----<br>-------- ------- is ---------- --- - --- ----- ----- ----<br>---- --- --- ----- --- ---- ---- ------- ----- ---- -------<br>--- --- -- ----- -- --- ---- -- --- ---- -- ------ ------<br>--- ----- -- ----,125895.09999999404,125894.40000000596,125607.774,125623.29999998212,125655.211,125907.906,,20,is
screen,html.Screen,2_1_0_1_21,2022-02-02T16:11:37.571Z,,,,,,,,,,,,,,,,,53,,,,,,,,,,,,,,170.39399998211593,,response,,,,99,,,,,,,Space,keypress(Space),,,,,,,,---- -- ----- -- ------ - ------- --- ----------<br>------------- ------ ------ ---- ---- ------- ----- -- ----<br>-------- ------- -- paramount. --- - --- ----- ----- ----<br>---- --- --- ----- --- ---- ---- ------- ----- ---- -------<br>--- --- -- ----- -- --- ---- -- --- ---- -- ------ ------<br>--- ----- -- ----,126079.09999999404,126078.29999998212,125891.33,125895.29999998212,125907.906,126091.419,,21,paramount.
screen,html.Screen,2_1_0_1_22,2022-02-02T16:11:37.747Z,,,,,,,,,,,,,,,,,53,,,,,,,,,,,,,,163.0810000000056,,response,,,,99,,,,,,,Space,keypress(Space),,,,,,,,---- -- ----- -- ------ - ------- --- ----------<br>------------- ------ ------ ---- ---- ------- ----- -- ----<br>-------- ------- -- ---------- But - --- ----- ----- ----<br>---- --- --- ----- --- ---- ---- ------- ----- ---- -------<br>--- --- -- ----- -- --- ---- -- --- ---- -- ------ ------<br>--- ----- -- ----,126255.19999998808,126254.5,126074.864,126079.29999998212,126091.419,126258.209,,22,But
screen,html.Screen,2_1_0_1_23,2022-02-02T16:11:37.955Z,,,,,,,,,,,,,,,,,53,,,,,,,,,,,,,,204.09099998211605,,response,,,,99,,,,,,,Space,keypress(Space),,,,,,,,---- -- ----- -- ------ - ------- --- ----------<br>------------- ------ ------ ---- ---- ------- ----- -- ----<br>-------- ------- -- ---------- --- a --- ----- ----- ----<br>---- --- --- ----- --- ---- ---- ------- ----- ---- -------<br>--- --- -- ----- -- --- ---- -- --- ---- -- ------ ------<br>--- ----- -- ----,126463.09999999404,126462.29999998212,126241.668,126255.40000000596,126258.209,126475.26,,23,a
screen,html.Screen,2_1_0_1_24,2022-02-02T16:11:38.243Z,,,,,,,,,,,,,,,,,53,,,,,,,,,,,,,,275.03999998212385,,response,,,,99,,,,,,,Space,keypress(Space),,,,,,,,---- -- ----- -- ------ - ------- --- ----------<br>------------- ------ ------ ---- ---- ------- ----- -- ----<br>-------- ------- -- ---------- --- - new ----- ----- ----<br>---- --- --- ----- --- ---- ---- ------- ----- ---- -------<br>--- --- -- ----- -- --- ---- -- --- ---- -- ------ ------<br>--- ----- -- ----,126751,126750.29999998212,126458.531,126463.40000000596,126475.26,126758.825,,24,new
screen,html.Screen,2_1_0_1_25,2022-02-02T16:11:38.514Z,,,,,,,,,,,,,,,,,53,,,,,,,,,,,,,,262.9749999821215,,response,,,,99,,,,,,,Space,keypress(Space),,,,,,,,---- -- ----- -- ------ - ------- --- ----------<br>------------- ------ ------ ---- ---- ------- ----- -- ----<br>-------- ------- -- ---------- --- - --- study ----- ----<br>---- --- --- ----- --- ---- ---- ------- ----- ---- -------<br>--- --- -- ----- -- --- ---- -- --- ---- -- ------ ------<br>--- ----- -- ----,127022.19999998808,127021.79999998212,126742.005,126751.19999998808,126758.825,127025.71,,25,study
screen,html.Screen,2_1_0_1_26,2022-02-02T16:11:38.811Z,,,,,,,,,,,,,,,,,53,,,,,,,,,,,,,,292.69000000595406,,response,,,,99,,,,,,,Space,keypress(Space),,,,,,,,---- -- ----- -- ------ - ------- --- ----------<br>------------- ------ ------ ---- ---- ------- ----- -- ----<br>-------- ------- -- ---------- --- - --- ----- finds ----<br>---- --- --- ----- --- ---- ---- ------- ----- ---- -------<br>--- --- -- ----- -- --- ---- -- --- ---- -- ------ ------<br>--- ----- -- ----,127319.09999999404,127318.40000000596,127009.169,127022.29999998212,127025.71,127325.976,,26,finds
screen,html.Screen,2_1_0_1_27,2022-02-02T16:11:39.011Z,,,,,,,,,,,,,,,,,53,,,,,,,,,,,,,,192.5240000000049,,response,,,,99,,,,,,,Space,keypress(Space),,,,,,,,---- -- ----- -- ------ - ------- --- ----------<br>------------- ------ ------ ---- ---- ------- ----- -- ----<br>-------- ------- -- ---------- --- - --- ----- ----- that<br>---- --- --- ----- --- ---- ---- ------- ----- ---- -------<br>--- --- -- ----- -- --- ---- -- --- ---- -- ------ ------<br>--- ----- -- ----,127519.19999998808,127518.5,127309.257,127319.5,127325.976,127526.2,,27,that
screen,html.Screen,2_1_0_1_28,2022-02-02T16:11:39.227Z,,,,,,,,,,,,,,,,,53,,,,,,,,,,,,,,208.09999998212152,,response,,,,99,,,,,,,Space,keypress(Space),,,,,,,,---- -- ----- -- ------ - ------- --- ----------<br>------------- ------ ------ ---- ---- ------- ----- -- ----<br>-------- ------- -- ---------- --- - --- ----- ----- ----<br>it's --- --- ----- --- ---- ---- ------- ----- ---- -------<br>--- --- -- ----- -- --- ---- -- --- ---- -- ------ ------<br>--- ----- -- ----,127735.09999999404,127734.29999998212,127509.638,127519.5,127526.2,127743.021,,28,it's
screen,html.Screen,2_1_0_1_29,2022-02-02T16:11:39.435Z,,,,,,,,,,,,,,,,,53,,,,,,,,,,,,,,199.47900000000664,,response,,,,99,,,,,,,Space,keypress(Space),,,,,,,,---- -- ----- -- ------ - ------- --- ----------<br>------------- ------ ------ ---- ---- ------- ----- -- ----<br>-------- ------- -- ---------- --- - --- ----- ----- ----<br>---- not --- ----- --- ---- ---- ------- ----- ---- -------<br>--- --- -- ----- -- --- ---- -- --- ---- -- ------ ------<br>--- ----- -- ----,127943.09999999404,127942.5,127726.494,127735.29999998212,127743.021,127960.02,,29,not
screen,html.Screen,2_1_0_1_30,2022-02-02T16:11:39.602Z,,,,,,,,,,,,,,,,,53,,,,,,,,,,,,,,150.07999999403546,,response,,,,99,,,,,,,Space,keypress(Space),,,,,,,,---- -- ----- -- ------ - ------- --- ----------<br>------------- ------ ------ ---- ---- ------- ----- -- ----<br>-------- ------- -- ---------- --- - --- ----- ----- ----<br>---- --- how ----- --- ---- ---- ------- ----- ---- -------<br>--- --- -- ----- -- --- ---- -- --- ---- -- ------ ------<br>--- ----- -- ----,128110.59999999404,128110.09999999404,127943.272,127943.29999998212,127960.02,128126.976,,30,how
screen,html.Screen,2_1_0_1_31,2022-02-02T16:11:39.787Z,,,,,,,,,,,,,,,,,53,,,,,,,,,,,,,,167.42400000596535,,response,,,,99,,,,,,,Space,keypress(Space),,,,,,,,---- -- ----- -- ------ - ------- --- ----------<br>------------- ------ ------ ---- ---- ------- ----- -- ----<br>-------- ------- -- ---------- --- - --- ----- ----- ----<br>---- --- --- close --- ---- ---- ------- ----- ---- -------<br>--- --- -- ----- -- --- ---- -- --- ---- -- ------ ------<br>--- ----- -- ----,128295.09999999404,128294.40000000596,128110.282,128110.79999998212,128126.976,128310.414,,31,close
screen,html.Screen,2_1_0_1_32,2022-02-02T16:11:40.019Z,,,,,,,,,,,,,,,,,53,,,,,,,,,,,,,,215.8859999821143,,response,,,,99,,,,,,,Space,keypress(Space),,,,,,,,---- -- ----- -- ------ - ------- --- ----------<br>------------- ------ ------ ---- ---- ------- ----- -- ----<br>-------- ------- -- ---------- --- - --- ----- ----- ----<br>---- --- --- ----- you ---- ---- ------- ----- ---- -------<br>--- --- -- ----- -- --- ---- -- --- ---- -- ------ ------<br>--- ----- -- ----,128527.09999999404,128526.29999998212,128293.743,128295.29999998212,128310.414,128544.018,,32,you
screen,html.Screen,2_1_0_1_33,2022-02-02T16:11:40.235Z,,,,,,,,,,,,,,,,,53,,,,,,,,,,,,,,198.38200000596407,,response,,,,99,,,,,,,Space,keypress(Space),,,,,,,,---- -- ----- -- ------ - ------- --- ----------<br>------------- ------ ------ ---- ---- ------- ----- -- ----<br>-------- ------- -- ---------- --- - --- ----- ----- ----<br>---- --- --- ----- --- feel ---- ------- ----- ---- -------<br>--- --- -- ----- -- --- ---- -- --- ---- -- ------ ------<br>--- ----- -- ----,128743.19999998808,128742.40000000596,128527.187,128527.29999998212,128544.018,128770.601,,33,feel
screen,html.Screen,2_1_0_1_34,2022-02-02T16:11:40.485Z,,,,,,,,,,,,,,,,,53,,,,,,,,,,,,,,221.8990000000049,,response,,,,99,,,,,,,Space,keypress(Space),,,,,,,,---- -- ----- -- ------ - ------- --- ----------<br>------------- ------ ------ ---- ---- ------- ----- -- ----<br>-------- ------- -- ---------- --- - --- ----- ----- ----<br>---- --- --- ----- --- ---- that ------- ----- ---- -------<br>--- --- -- ----- -- --- ---- -- --- ---- -- ------ ------<br>--- ----- -- ----,128992.90000000596,128992.5,128727.438,128743.40000000596,128770.601,128994.199,,34,that
screen,html.Screen,2_1_0_1_35,2022-02-02T16:11:41.099Z,,,,,,,,,,,,,,,,,53,,,,,,,,,,,,,,612.2010000059672,,response,,,,99,,,,,,,Space,keypress(Space),,,,,,,,---- -- ----- -- ------ - ------- --- ----------<br>------------- ------ ------ ---- ---- ------- ----- -- ----<br>-------- ------- -- ---------- --- - --- ----- ----- ----<br>---- --- --- ----- --- ---- ---- matters ----- ---- -------<br>--- --- -- ----- -- --- ---- -- --- ---- -- ------ ------<br>--- ----- -- ----,129607.09999999404,129606.40000000596,128977.836,128993,128994.199,129611.584,,35,matters
screen,html.Screen,2_1_0_1_36,2022-02-02T16:11:41.378Z,,,,,,,,,,,,,,,,,53,,,,,,,,,,,,,,274.515999994037,,response,,,,99,,,,,,,Space,keypress(Space),,,,,,,,"---- -- ----- -- ------ - ------- --- ----------<br>------------- ------ ------ ---- ---- ------- ----- -- ----<br>-------- ------- -- ---------- --- - --- ----- ----- ----<br>---- --- --- ----- --- ---- ---- ------- most, ---- -------<br>--- --- -- ----- -- --- ---- -- --- ---- -- ------ ------<br>--- ----- -- ----",129886.5,129886.09999999404,129595,129607.40000000596,129611.584,129895.18,,36,"most,"
screen,html.Screen,2_1_0_1_37,2022-02-02T16:11:41.579Z,,,,,,,,,,,,,,,,,53,,,,,,,,,,,,,,191.1199999821256,,response,,,,99,,,,,,,Space,keypress(Space),,,,,,,,---- -- ----- -- ------ - ------- --- ----------<br>------------- ------ ------ ---- ---- ------- ----- -- ----<br>-------- ------- -- ---------- --- - --- ----- ----- ----<br>---- --- --- ----- --- ---- ---- ------- ----- it's -------<br>--- --- -- ----- -- --- ---- -- --- ---- -- ------ ------<br>--- ----- -- ----,130087.09999999404,130086.29999998212,129878.672,129886.59999999404,129895.18,130095.501,,37,it's
screen,html.Screen,2_1_0_1_38,2022-02-02T16:11:41.821Z,,,,,,,,,,,,,,,,,53,,,,,,,,,,,,,,232.99899999999616,,response,,,,99,,,,,,,Space,keypress(Space),,,,,,,,---- -- ----- -- ------ - ------- --- ----------<br>------------- ------ ------ ---- ---- ------- ----- -- ----<br>-------- ------- -- ---------- --- - --- ----- ----- ----<br>---- --- --- ----- --- ---- ---- ------- ----- ---- whether<br>--- --- -- ----- -- --- ---- -- --- ---- -- ------ ------<br>--- ----- -- ----,130329.19999998808,130328.5,130078.822,130087.40000000596,130095.501,130345.826,,38,whether
screen,html.Screen,2_1_0_1_39,2022-02-02T16:11:42.068Z,,,,,,,,,,,,,,,,,53,,,,,,,,,,,,,,229.97399998211768,,response,,,,99,,,,,,,Space,keypress(Space),,,,,,,,---- -- ----- -- ------ - ------- --- ----------<br>------------- ------ ------ ---- ---- ------- ----- -- ----<br>-------- ------- -- ---------- --- - --- ----- ----- ----<br>---- --- --- ----- --- ---- ---- ------- ----- ---- -------<br>you --- -- ----- -- --- ---- -- --- ---- -- ------ ------<br>--- ----- -- ----,130576.59999999404,130575.79999998212,130328.981,130329.5,130345.826,130579.222,,39,you
screen,html.Screen,2_1_0_1_40,2022-02-02T16:11:42.275Z,,,,,,,,,,,,,,,,,53,,,,,,,,,,,,,,203.0779999821243,,response,,,,99,,,,,,,Space,keypress(Space),,,,,,,,---- -- ----- -- ------ - ------- --- ----------<br>------------- ------ ------ ---- ---- ------- ----- -- ----<br>-------- ------- -- ---------- --- - --- ----- ----- ----<br>---- --- --- ----- --- ---- ---- ------- ----- ---- -------<br>--- are -- ----- -- --- ---- -- --- ---- -- ------ ------<br>--- ----- -- ----,130783.09999999404,130782.29999998212,130562.636,130576.90000000596,130579.222,130796.253,,40,are
screen,html.Screen,2_1_0_1_41,2022-02-02T16:11:42.482Z,,,,,,,,,,,,,,,,,53,,,,,,,,,,,,,,193.74700000000303,,response,,,,99,,,,,,,Space,keypress(Space),,,,,,,,---- -- ----- -- ------ - ------- --- ----------<br>------------- ------ ------ ---- ---- ------- ----- -- ----<br>-------- ------- -- ---------- --- - --- ----- ----- ----<br>---- --- --- ----- --- ---- ---- ------- ----- ---- -------<br>--- --- as ----- -- --- ---- -- --- ---- -- ------ ------<br>--- ----- -- ----,130990.40000000596,130990,130779.617,130783.29999998212,130796.253,130996.317,,41,as
screen,html.Screen,2_1_0_1_42,2022-02-02T16:11:42.659Z,,,,,,,,,,,,,,,,,53,,,,,,,,,,,,,,169.8829999880836,,response,,,,99,,,,,,,Space,keypress(Space),,,,,,,,---- -- ----- -- ------ - ------- --- ----------<br>------------- ------ ------ ---- ---- ------- ----- -- ----<br>-------- ------- -- ---------- --- - --- ----- ----- ----<br>---- --- --- ----- --- ---- ---- ------- ----- ---- -------<br>--- --- -- close -- --- ---- -- --- ---- -- ------ ------<br>--- ----- -- ----,131166.79999998212,131166.19999998808,130979.635,130990.5,130996.317,131179.925,,42,close
screen,html.Screen,2_1_0_1_43,2022-02-02T16:11:42.859Z,,,,,,,,,,,,,,,,,53,,,,,,,,,,,,,,186.4750000059721,,response,,,,99,,,,,,,Space,keypress(Space),,,,,,,,---- -- ----- -- ------ - ------- --- ----------<br>------------- ------ ------ ---- ---- ------- ----- -- ----<br>-------- ------- -- ---------- --- - --- ----- ----- ----<br>---- --- --- ----- --- ---- ---- ------- ----- ---- -------<br>--- --- -- ----- as --- ---- -- --- ---- -- ------ ------<br>--- ----- -- ----,131367.19999998808,131366.40000000596,131163.087,131166.90000000596,131179.925,131379.984,,43,as
screen,html.Screen,2_1_0_1_44,2022-02-02T16:11:43.066Z,,,,,,,,,,,,,,,,,53,,,,,,,,,,,,,,193.91600000596372,,response,,,,99,,,,,,,Space,keypress(Space),,,,,,,,---- -- ----- -- ------ - ------- --- ----------<br>------------- ------ ------ ---- ---- ------- ----- -- ----<br>-------- ------- -- ---------- --- - --- ----- ----- ----<br>---- --- --- ----- --- ---- ---- ------- ----- ---- -------<br>--- --- -- ----- -- you ---- -- --- ---- -- ------ ------<br>--- ----- -- ----,131574.19999998808,131573.90000000596,131363.431,131367.40000000596,131379.984,131580.252,,44,you
screen,html.Screen,2_1_0_1_45,2022-02-02T16:11:43.269Z,,,,,,,,,,,,,,,,,53,,,,,,,,,,,,,,196.34799999403185,,response,,,,99,,,,,,,Space,keypress(Space),,,,,,,,---- -- ----- -- ------ - ------- --- ----------<br>------------- ------ ------ ---- ---- ------- ----- -- ----<br>-------- ------- -- ---------- --- - --- ----- ----- ----<br>---- --- --- ----- --- ---- ---- ------- ----- ---- -------<br>--- --- -- ----- -- --- want -- --- ---- -- ------ ------<br>--- ----- -- ----,131777.40000000596,131776.59999999404,131563.659,131574.29999998212,131580.252,131780.403,,45,want
screen,html.Screen,2_1_0_1_46,2022-02-02T16:11:43.498Z,,,,,,,,,,,,,,,,,53,,,,,,,,,,,,,,225.79699998808792,,response,,,,99,,,,,,,Space,keypress(Space),,,,,,,,---- -- ----- -- ------ - ------- --- ----------<br>------------- ------ ------ ---- ---- ------- ----- -- ----<br>-------- ------- -- ---------- --- - --- ----- ----- ----<br>---- --- --- ----- --- ---- ---- ------- ----- ---- -------<br>--- --- -- ----- -- --- ---- to --- ---- -- ------ ------<br>--- ----- -- ----,132006.59999999404,132006.19999998808,131763.862,131777.5,131780.403,132030.633,,46,to
screen,html.Screen,2_1_0_1_47,2022-02-02T16:11:43.683Z,,,,,,,,,,,,,,,,,53,,,,,,,,,,,,,,159.66699998211698,,response,,,,99,,,,,,,Space,keypress(Space),,,,,,,,"---- -- ----- -- ------ - ------- --- ----------<br>------------- ------ ------ ---- ---- ------- ----- -- ----<br>-------- ------- -- ---------- --- - --- ----- ----- ----<br>---- --- --- ----- --- ---- ---- ------- ----- ---- -------<br>--- --- -- ----- -- --- ---- -- be, ---- -- ------ ------<br>--- ----- -- ----",132191.09999999404,132190.29999998212,132013.933,132006.69999998808,132030.633,132197.573,,47,"be,"
screen,html.Screen,2_1_0_1_48,2022-02-02T16:11:43.882Z,,,,,,,,,,,,,,,,,53,,,,,,,,,,,,,,192.42699999999604,,response,,,,99,,,,,,,Space,keypress(Space),,,,,,,,---- -- ----- -- ------ - ------- --- ----------<br>------------- ------ ------ ---- ---- ------- ----- -- ----<br>-------- ------- -- ---------- --- - --- ----- ----- ----<br>---- --- --- ----- --- ---- ---- ------- ----- ---- -------<br>--- --- -- ----- -- --- ---- -- --- even -- ------ ------<br>--- ----- -- ----,132390.29999998212,132390,132180.975,132191.29999998212,132197.573,132397.664,,48,even
screen,html.Screen,2_1_0_1_49,2022-02-02T16:11:44.098Z,,,,,,,,,,,,,,,,,53,,,,,,,,,,,,,,208.2360000059707,,response,,,,99,,,,,,,Space,keypress(Space),,,,,,,,---- -- ----- -- ------ - ------- --- ----------<br>------------- ------ ------ ---- ---- ------- ----- -- ----<br>-------- ------- -- ---------- --- - --- ----- ----- ----<br>---- --- --- ----- --- ---- ---- ------- ----- ---- -------<br>--- --- -- ----- -- --- ---- -- --- ---- if ------ ------<br>--- ----- -- ----,132606.29999998212,132605.90000000596,132381.143,132390.40000000596,132397.664,132614.73,,49,if
screen,html.Screen,2_1_0_1_50,2022-02-02T16:11:44.275Z,,,,,,,,,,,,,,,,,53,,,,,,,,,,,,,,168.06999998210813,,response,,,,99,,,,,,,Space,keypress(Space),,,,,,,,---- -- ----- -- ------ - ------- --- ----------<br>------------- ------ ------ ---- ---- ------- ----- -- ----<br>-------- ------- -- ---------- --- - --- ----- ----- ----<br>---- --- --- ----- --- ---- ---- ------- ----- ---- -------<br>--- --- -- ----- -- --- ---- -- --- ---- -- that's ------<br>--- ----- -- ----,132783.59999999404,132782.79999998212,132597.932,132606.40000000596,132614.73,132798.221,,50,that's
screen,html.Screen,2_1_0_1_51,2022-02-02T16:11:44.501Z,,,,,,,,,,,,,,,,,53,,,,,,,,,,,,,,209.77900000000955,,response,,,,99,,,,,,,Space,keypress(Space),,,,,,,,---- -- ----- -- ------ - ------- --- ----------<br>------------- ------ ------ ---- ---- ------- ----- -- ----<br>-------- ------- -- ---------- --- - --- ----- ----- ----<br>---- --- --- ----- --- ---- ---- ------- ----- ---- -------<br>--- --- -- ----- -- --- ---- -- --- ---- -- ------ really<br>--- ----- -- ----,133008.79999998212,133008,132781.418,132783.69999998808,132798.221,133014.979,,51,really
screen,html.Screen,2_1_0_1_52,2022-02-02T16:11:44.899Z,,,,,,,,,,,,,,,,,53,,,,,,,,,,,,,,391.4210000059684,,response,,,,99,,,,,,,Space,keypress(Space),,,,,,,,---- -- ----- -- ------ - ------- --- ----------<br>------------- ------ ------ ---- ---- ------- ----- -- ----<br>-------- ------- -- ---------- --- - --- ----- ----- ----<br>---- --- --- ----- --- ---- ---- ------- ----- ---- -------<br>--- --- -- ----- -- --- ---- -- --- ---- -- ------ ------<br>not ----- -- ----,133407.09999999404,133406.40000000596,132998.457,133009,133014.979,133415.395,,52,not
screen,html.Screen,2_1_0_1_53,2022-02-02T16:11:45.114Z,,,,,,,,,,,,,,,,,53,,,,,,,,,,,,,,206.50500000597094,,response,,,,99,,,,,,,Space,keypress(Space),,,,,,,,---- -- ----- -- ------ - ------- --- ----------<br>------------- ------ ------ ---- ---- ------- ----- -- ----<br>-------- ------- -- ---------- --- - --- ----- ----- ----<br>---- --- --- ----- --- ---- ---- ------- ----- ---- -------<br>--- --- -- ----- -- --- ---- -- --- ---- -- ------ ------<br>--- close -- ----,133622.29999998212,133621.90000000596,133398.866,133407.29999998212,133415.395,133632.301,,53,close
screen,html.Screen,2_1_0_1_54,2022-02-02T16:11:45.451Z,,,,,,,,,,,,,,,,,53,,,,,,,,,,,,,,325.8989999880723,,response,,,,99,,,,,,,Space,keypress(Space),,,,,,,,---- -- ----- -- ------ - ------- --- ----------<br>------------- ------ ------ ---- ---- ------- ----- -- ----<br>-------- ------- -- ---------- --- - --- ----- ----- ----<br>---- --- --- ----- --- ---- ---- ------- ----- ---- -------<br>--- --- -- ----- -- --- ---- -- --- ---- -- ------ ------<br>--- ----- at ----,133959,133958.19999998808,133615.713,133622.40000000596,133632.301,133965.898,,54,at
screen,html.Screen,2_1_0_1_55,2022-02-02T16:11:46.098Z,,,,,,,,,,,,,,,,,53,,,,,,,,,,,,,,640.1020000000135,,response,,,,99,,,,,,,Space,keypress(Space),,,,,,,,---- -- ----- -- ------ - ------- --- ----------<br>------------- ------ ------ ---- ---- ------- ----- -- ----<br>-------- ------- -- ---------- --- - --- ----- ----- ----<br>---- --- --- ----- --- ---- ---- ------- ----- ---- -------<br>--- --- -- ----- -- --- ---- -- --- ---- -- ------ ------<br>--- ----- -- all.,134606.40000000596,134606,133949.382,133960.40000000596,133965.898,134616.534,,55,all.
Item 99,flow.Loop,2_1_0_1,2022-02-02T16:11:46.098Z,,,,,,,,,,,,,,,,,,,,,,,,,,,,,,,16822.785999999993,,completion,,,,,D,,,,,,,,,,,silence,,,,,134606.5,134606,117766.663,117768,117783.214,134616.534,,,
Question 1,html.Screen,2_1_0_2,2022-02-02T16:11:49.563Z,,,,,,,,,,,,,,,,,,,,,,,,,,,,true,FALSE,,3453.3660000059463,,response,,,,99,D,,,,,,FALSE,click #choice-2,,,,silence,,,,,138070.79999998212,138069.90000000596,134600.083,134606.59999999404,134616.534,138086.892,,,
Question 2,html.Screen,2_1_0_3,2022-02-02T16:11:52.794Z,,,,,,,,,,,,,,,,,,,,,,,,,,,,true,TRUE,,3214.707999994047,,response,,,,99,D,,,,,,TRUE,click #choice-1,,,,silence,,,,,141302,141301.59999999404,138070.189,138070.90000000596,138086.892,141323.408,,,
Item 99,flow.Sequence,2_1_0,2022-02-02T16:11:52.794Z,,,,,,,,,,,,,,,,,,,,,,,,,,,,,,,33511.897999994035,,completion,,,,,,,,,,,,,,,,,,,,,141302.19999998808,141301.59999999404,107773.163,107766.29999998212,107789.702,141323.408,,,
Holding screen,html.Screen,2_1_1_0,2022-02-02T16:12:02.793Z,,,,,,,,,,,,,,,,,,,,,,,,,,,,,,,9993.140000000014,,timeout,,,,,,,,,,,,,,,,,,,,,151301,151300.073,141306.545,141302.29999998212,141323.408,151316.548,,,
screen,html.Screen,2_1_1_1_0,2022-02-02T16:12:03.362Z,,,,,,,,,,,,,,,,,54,,,,,,,,,,,,,,553.5519999940298,,response,,,,100,,,,,,,Space,keypress(Space),,,,,,,,At --- ---- --- ------ ----- ------- ---- -- --- ------- --<br>------- ---------- ------ -- ----- -- ----- -- ---- ------<br>--- ----- --- --- ------ -------- ----- --- ------ ----- --<br>----- ----- ---------- --- --- ------ ------ ---- -- ------<br>------- --- ------ ----- --- ---- ------- -- ---- --- --<br>------- ------,151870.5,151870.09999999404,151300.073,151301.19999998808,151316.548,151883.835,,0,At
screen,html.Screen,2_1_1_1_1,2022-02-02T16:12:03.690Z,,,,,,,,,,,,,,,,,54,,,,,,,,,,,,,,314.0650000059686,,response,,,,100,,,,,,,Space,keypress(Space),,,,,,,,-- the ---- --- ------ ----- ------- ---- -- --- ------- --<br>------- ---------- ------ -- ----- -- ----- -- ---- ------<br>--- ----- --- --- ------ -------- ----- --- ------ ----- --<br>----- ----- ---------- --- --- ------ ------ ---- -- ------<br>------- --- ------ ----- --- ---- ------- -- ---- --- --<br>------- ------,152198.19999998808,152197.90000000596,151867.292,151870.5,151883.835,152200.808,,1,the
screen,html.Screen,2_1_1_1_2,2022-02-02T16:12:03.915Z,,,,,,,,,,,,,,,,,54,,,,,,,,,,,,,,221.49199998212862,,response,,,,100,,,,,,,Space,keypress(Space),,,,,,,,-- --- time --- ------ ----- ------- ---- -- --- ------- --<br>------- ---------- ------ -- ----- -- ----- -- ---- ------<br>--- ----- --- --- ------ -------- ----- --- ------ ----- --<br>----- ----- ---------- --- --- ------ ------ ---- -- ------<br>------- --- ------ ----- --- ---- ------- -- ---- --- --<br>------- ------,152423.09999999404,152422.29999998212,152184.219,152198.19999998808,152200.808,152434.582,,2,time
screen,html.Screen,2_1_1_1_3,2022-02-02T16:12:04.170Z,,,,,,,,,,,,,,,,,54,,,,,,,,,,,,,,243.3180000059656,,response,,,,100,,,,,,,Space,keypress(Space),,,,,,,,-- --- ---- the ------ ----- ------- ---- -- --- ------- --<br>------- ---------- ------ -- ----- -- ----- -- ---- ------<br>--- ----- --- --- ------ -------- ----- --- ------ ----- --<br>----- ----- ---------- --- --- ------ ------ ---- -- ------<br>------- --- ------ ----- --- ---- ------- -- ---- --- --<br>------- ------,152678.5,152677.90000000596,152417.697,152423.29999998212,152434.582,152684.644,,3,the
screen,html.Screen,2_1_1_1_4,2022-02-02T16:12:04.547Z,,,,,,,,,,,,,,,,,54,,,,,,,,,,,,,,369.75600000596023,,response,,,,100,,,,,,,Space,keypress(Space),,,,,,,,-- --- ---- --- French ----- ------- ---- -- --- ------- --<br>------- ---------- ------ -- ----- -- ----- -- ---- ------<br>--- ----- --- --- ------ -------- ----- --- ------ ----- --<br>----- ----- ---------- --- --- ------ ------ ---- -- ------<br>------- --- ------ ----- --- ---- ------- -- ---- --- --<br>------- ------,153055.09999999404,153054.40000000596,152668.044,152678.5,152684.644,153068.47,,4,French
screen,html.Screen,2_1_1_1_5,2022-02-02T16:12:04.884Z,,,,,,,,,,,,,,,,,54,,,,,,,,,,,,,,322.52999999999884,,response,,,,100,,,,,,,Space,keypress(Space),,,,,,,,-- --- ---- --- ------ crown ------- ---- -- --- ------- --<br>------- ---------- ------ -- ----- -- ----- -- ---- ------<br>--- ----- --- --- ------ -------- ----- --- ------ ----- --<br>----- ----- ---------- --- --- ------ ------ ---- -- ------<br>------- --- ------ ----- --- ---- ------- -- ---- --- --<br>------- ------,153391.69999998808,153391,153051.728,153055.40000000596,153068.47,153402.139,,5,crown
screen,html.Screen,2_1_1_1_6,2022-02-02T16:12:05.117Z,,,,,,,,,,,,,,,,,54,,,,,,,,,,,,,,222.36100000000442,,response,,,,100,,,,,,,Space,keypress(Space),,,,,,,,-- --- ---- --- ------ ----- secured ---- -- --- ------- --<br>------- ---------- ------ -- ----- -- ----- -- ---- ------<br>--- ----- --- --- ------ -------- ----- --- ------ ----- --<br>----- ----- ---------- --- --- ------ ------ ---- -- ------<br>------- --- ------ ----- --- ---- ------- -- ---- --- --<br>------- ------,153625.29999998212,153624.5,153385.452,153392,153402.139,153635.591,,6,secured
screen,html.Screen,2_1_1_1_7,2022-02-02T16:12:05.402Z,,,,,,,,,,,,,,,,,54,,,,,,,,,,,,,,274.2089999821328,,response,,,,100,,,,,,,Space,keypress(Space),,,,,,,,-- --- ---- --- ------ ----- ------- much -- --- ------- --<br>------- ---------- ------ -- ----- -- ----- -- ---- ------<br>--- ----- --- --- ------ -------- ----- --- ------ ----- --<br>----- ----- ---------- --- --- ------ ------ ---- -- ------<br>------- --- ------ ----- --- ---- ------- -- ---- --- --<br>------- ------,153910.19999998808,153909.79999998212,153618.89,153625.40000000596,153635.591,153919.163,,7,much
screen,html.Screen,2_1_1_1_8,2022-02-02T16:12:05.635Z,,,,,,,,,,,,,,,,,54,,,,,,,,,,,,,,223.13699998211814,,response,,,,100,,,,,,,Space,keypress(Space),,,,,,,,-- --- ---- --- ------ ----- ------- ---- of --- ------- --<br>------- ---------- ------ -- ----- -- ----- -- ---- ------<br>--- ----- --- --- ------ -------- ----- --- ------ ----- --<br>----- ----- ---------- --- --- ------ ------ ---- -- ------<br>------- --- ------ ----- --- ---- ------- -- ---- --- --<br>------- ------,154143.09999999404,154142.29999998212,153902.514,153910.29999998212,153919.163,154152.774,,8,of
screen,html.Screen,2_1_1_1_9,2022-02-02T16:12:05.874Z,,,,,,,,,,,,,,,,,54,,,,,,,,,,,,,,228.82599999403465,,response,,,,100,,,,,,,Space,keypress(Space),,,,,,,,-- --- ---- --- ------ ----- ------- ---- -- its ------- --<br>------- ---------- ------ -- ----- -- ----- -- ---- ------<br>--- ----- --- --- ------ -------- ----- --- ------ ----- --<br>----- ----- ---------- --- --- ------ ------ ---- -- ------<br>------- --- ------ ----- --- ---- ------- -- ---- --- --<br>------- ------,154382,154381.59999999404,154136.105,154143.19999998808,154152.774,154386.238,,9,its
screen,html.Screen,2_1_1_1_10,2022-02-02T16:12:06.147Z,,,,,,,,,,,,,,,,,54,,,,,,,,,,,,,,268.0619999821065,,response,,,,100,,,,,,,Space,keypress(Space),,,,,,,,-- --- ---- --- ------ ----- ------- ---- -- --- revenue --<br>------- ---------- ------ -- ----- -- ----- -- ---- ------<br>--- ----- --- --- ------ -------- ----- --- ------ ----- --<br>----- ----- ---------- --- --- ------ ------ ---- -- ------<br>------- --- ------ ----- --- ---- ------- -- ---- --- --<br>------- ------,154655,154654.29999998212,154369.687,154382.09999999404,154386.238,154669.943,,10,revenue
screen,html.Screen,2_1_1_1_11,2022-02-02T16:12:06.635Z,,,,,,,,,,,,,,,,,54,,,,,,,,,,,,,,472.5570000000007,,response,,,,100,,,,,,,Space,keypress(Space),,,,,,,,-- --- ---- --- ------ ----- ------- ---- -- --- ------- by<br>------- ---------- ------ -- ----- -- ----- -- ---- ------<br>--- ----- --- --- ------ -------- ----- --- ------ ----- --<br>----- ----- ---------- --- --- ------ ------ ---- -- ------<br>------- --- ------ ----- --- ---- ------- -- ---- --- --<br>------- ------,155143.19999998808,155142.5,154653.199,154655.19999998808,154669.943,155153.838,,11,by
screen,html.Screen,2_1_1_1_12,2022-02-02T16:12:06.947Z,,,,,,,,,,,,,,,,,54,,,,,,,,,,,,,,300.6620000000112,,response,,,,100,,,,,,,Space,keypress(Space),,,,,,,,-- --- ---- --- ------ ----- ------- ---- -- --- ------- --<br>issuing ---------- ------ -- ----- -- ----- -- ---- ------<br>--- ----- --- --- ------ -------- ----- --- ------ ----- --<br>----- ----- ---------- --- --- ------ ------ ---- -- ------<br>------- --- ------ ----- --- ---- ------- -- ---- --- --<br>------- ------,155455.29999998212,155454.5,155137.078,155143.5,155153.838,155470.779,,12,issuing
screen,html.Screen,2_1_1_1_13,2022-02-02T16:12:07.170Z,,,,,,,,,,,,,,,,,54,,,,,,,,,,,,,,206.82099999403,,response,,,,100,,,,,,,Space,keypress(Space),,,,,,,,-- --- ---- --- ------ ----- ------- ---- -- --- ------- --<br>------- government ------ -- ----- -- ----- -- ---- ------<br>--- ----- --- --- ------ -------- ----- --- ------ ----- --<br>----- ----- ---------- --- --- ------ ------ ---- -- ------<br>------- --- ------ ----- --- ---- ------- -- ---- --- --<br>------- ------,155677.90000000596,155677.59999999404,155454.042,155455.5,155470.779,155687.578,,13,government
screen,html.Screen,2_1_1_1_14,2022-02-02T16:12:07.419Z,,,,,,,,,,,,,,,,,54,,,,,,,,,,,,,,238.72199998211,,response,,,,100,,,,,,,Space,keypress(Space),,,,,,,,-- --- ---- --- ------ ----- ------- ---- -- --- ------- --<br>------- ---------- bonds. -- ----- -- ----- -- ---- ------<br>--- ----- --- --- ------ -------- ----- --- ------ ----- --<br>----- ----- ---------- --- --- ------ ------ ---- -- ------<br>------- --- ------ ----- --- ---- ------- -- ---- --- --<br>------- ------,155927,155926.29999998212,155670.968,155678,155687.578,155937.902,,14,bonds.
screen,html.Screen,2_1_1_1_15,2022-02-02T16:12:07.828Z,,,,,,,,,,,,,,,,,54,,,,,,,,,,,,,,397.2979999880772,,response,,,,100,,,,,,,Space,keypress(Space),,,,,,,,-- --- ---- --- ------ ----- ------- ---- -- --- ------- --<br>------- ---------- ------ In ----- -- ----- -- ---- ------<br>--- ----- --- --- ------ -------- ----- --- ------ ----- --<br>----- ----- ---------- --- --- ------ ------ ---- -- ------<br>------- --- ------ ----- --- ---- ------- -- ---- --- --<br>------- ------,156336.09999999404,156335.19999998808,155921.34,155927.19999998808,155937.902,156338.273,,15,In
screen,html.Screen,2_1_1_1_16,2022-02-02T16:12:08.050Z,,,,,,,,,,,,,,,,,54,,,,,,,,,,,,,,219.32699999405304,,response,,,,100,,,,,,,Space,keypress(Space),,,,,,,,"-- --- ---- --- ------ ----- ------- ---- -- --- ------- --<br>------- ---------- ------ -- 1727, -- ----- -- ---- ------<br>--- ----- --- --- ------ -------- ----- --- ------ ----- --<br>----- ----- ---------- --- --- ------ ------ ---- -- ------<br>------- --- ------ ----- --- ---- ------- -- ---- --- --<br>------- ------",156558,156557.59999999404,156321.628,156336.29999998212,156338.273,156571.957,,16,"1727,"
screen,html.Screen,2_1_1_1_17,2022-02-02T16:12:08.266Z,,,,,,,,,,,,,,,,,54,,,,,,,,,,,,,,202.04300000000512,,response,,,,100,,,,,,,Space,keypress(Space),,,,,,,,-- --- ---- --- ------ ----- ------- ---- -- --- ------- --<br>------- ---------- ------ -- ----- in ----- -- ---- ------<br>--- ----- --- --- ------ -------- ----- --- ------ ----- --<br>----- ----- ---------- --- --- ------ ------ ---- -- ------<br>------- --- ------ ----- --- ---- ------- -- ---- --- --<br>------- ------,156774.29999998212,156774,156555.364,156558.09999999404,156571.957,156788.724,,17,in
screen,html.Screen,2_1_1_1_18,2022-02-02T16:12:08.674Z,,,,,,,,,,,,,,,,,54,,,,,,,,,,,,,,393.0759999821312,,response,,,,100,,,,,,,Space,keypress(Space),,,,,,,,-- --- ---- --- ------ ----- ------- ---- -- --- ------- --<br>------- ---------- ------ -- ----- -- order -- ---- ------<br>--- ----- --- --- ------ -------- ----- --- ------ ----- --<br>----- ----- ---------- --- --- ------ ------ ---- -- ------<br>------- --- ------ ----- --- ---- ------- -- ---- --- --<br>------- ------,157182.19999998808,157181.79999998212,156772.23,156774.40000000596,156788.724,157189.137,,18,order
screen,html.Screen,2_1_1_1_19,2022-02-02T16:12:09.067Z,,,,,,,,,,,,,,,,,54,,,,,,,,,,,,,,385.3630000000121,,response,,,,100,,,,,,,Space,keypress(Space),,,,,,,,-- --- ---- --- ------ ----- ------- ---- -- --- ------- --<br>------- ---------- ------ -- ----- -- ----- to ---- ------<br>--- ----- --- --- ------ -------- ----- --- ------ ----- --<br>----- ----- ---------- --- --- ------ ------ ---- -- ------<br>------- --- ------ ----- --- ---- ------- -- ---- --- --<br>------- ------,157575.29999998212,157574.5,157172.59,157182.19999998808,157189.137,157589.686,,19,to
screen,html.Screen,2_1_1_1_20,2022-02-02T16:12:09.274Z,,,,,,,,,,,,,,,,,54,,,,,,,,,,,,,,192.31400000001304,,response,,,,100,,,,,,,Space,keypress(Space),,,,,,,,-- --- ---- --- ------ ----- ------- ---- -- --- ------- --<br>------- ---------- ------ -- ----- -- ----- -- save ------<br>--- ----- --- --- ------ -------- ----- --- ------ ----- --<br>----- ----- ---------- --- --- ------ ------ ---- -- ------<br>------- --- ------ ----- --- ---- ------- -- ---- --- --<br>------- ------,157782.40000000596,157782,157573.005,157575.5,157589.686,157789.85,,20,save
screen,html.Screen,2_1_1_1_21,2022-02-02T16:12:09.491Z,,,,,,,,,,,,,,,,,54,,,,,,,,,,,,,,208.34999998807325,,response,,,,100,,,,,,,Space,keypress(Space),,,,,,,,"-- --- ---- --- ------ ----- ------- ---- -- --- ------- --<br>------- ---------- ------ -- ----- -- ----- -- ---- money,<br>--- ----- --- --- ------ -------- ----- --- ------ ----- --<br>----- ----- ---------- --- --- ------ ------ ---- -- ------<br>------- --- ------ ----- --- ---- ------- -- ---- --- --<br>------- ------",157998.90000000596,157998.19999998808,157773.033,157782.5,157789.85,158006.621,,21,"money,"
screen,html.Screen,2_1_1_1_22,2022-02-02T16:12:09.907Z,,,,,,,,,,,,,,,,,54,,,,,,,,,,,,,,407.67899998210487,,response,,,,100,,,,,,,Space,keypress(Space),,,,,,,,-- --- ---- --- ------ ----- ------- ---- -- --- ------- --<br>------- ---------- ------ -- ----- -- ----- -- ---- ------<br>the ----- --- --- ------ -------- ----- --- ------ ----- --<br>----- ----- ---------- --- --- ------ ------ ---- -- ------<br>------- --- ------ ----- --- ---- ------- -- ---- --- --<br>------- ------,158415.09999999404,158414.29999998212,157989.978,157999.19999998808,158006.621,158423.7,,22,the
screen,html.Screen,2_1_1_1_23,2022-02-02T16:12:10.106Z,,,,,,,,,,,,,,,,,54,,,,,,,,,,,,,,190.3999999940279,,response,,,,100,,,,,,,Space,keypress(Space),,,,,,,,-- --- ---- --- ------ ----- ------- ---- -- --- ------- --<br>------- ---------- ------ -- ----- -- ----- -- ---- ------<br>--- state --- --- ------ -------- ----- --- ------ ----- --<br>----- ----- ---------- --- --- ------ ------ ---- -- ------<br>------- --- ------ ----- --- ---- ------- -- ---- --- --<br>------- ------,158614.69999998808,158614.09999999404,158407.054,158415.29999998212,158423.7,158623.925,,23,state
screen,html.Screen,2_1_1_1_24,2022-02-02T16:12:10.323Z,,,,,,,,,,,,,,,,,54,,,,,,,,,,,,,,206.37499998213025,,response,,,,100,,,,,,,Space,keypress(Space),,,,,,,,-- --- ---- --- ------ ----- ------- ---- -- --- ------- --<br>------- ---------- ------ -- ----- -- ----- -- ---- ------<br>--- ----- cut --- ------ -------- ----- --- ------ ----- --<br>----- ----- ---------- --- --- ------ ------ ---- -- ------<br>------- --- ------ ----- --- ---- ------- -- ---- --- --<br>------- ------,158831.19999998808,158830.29999998212,158607.307,158614.69999998808,158623.925,158840.937,,24,cut
screen,html.Screen,2_1_1_1_25,2022-02-02T16:12:10.531Z,,,,,,,,,,,,,,,,,54,,,,,,,,,,,,,,197.76299998807372,,response,,,,100,,,,,,,Space,keypress(Space),,,,,,,,-- --- ---- --- ------ ----- ------- ---- -- --- ------- --<br>------- ---------- ------ -- ----- -- ----- -- ---- ------<br>--- ----- --- the ------ -------- ----- --- ------ ----- --<br>----- ----- ---------- --- --- ------ ------ ---- -- ------<br>------- --- ------ ----- --- ---- ------- -- ---- --- --<br>------- ------,159039.5,159038.69999998808,158824.091,158831.29999998212,158840.937,159059.914,,25,the
screen,html.Screen,2_1_1_1_26,2022-02-02T16:12:10.757Z,,,,,,,,,,,,,,,,,54,,,,,,,,,,,,,,204.18599999404978,,response,,,,100,,,,,,,Space,keypress(Space),,,,,,,,-- --- ---- --- ------ ----- ------- ---- -- --- ------- --<br>------- ---------- ------ -- ----- -- ----- -- ---- ------<br>--- ----- --- --- bonds' -------- ----- --- ------ ----- --<br>----- ----- ---------- --- --- ------ ------ ---- -- ------<br>------- --- ------ ----- --- ---- ------- -- ---- --- --<br>------- ------,159264.90000000596,159264.09999999404,159024.286,159039.59999999404,159059.914,159274.697,,26,bonds'
screen,html.Screen,2_1_1_1_27,2022-02-02T16:12:10.955Z,,,,,,,,,,,,,,,,,54,,,,,,,,,,,,,,187.80300000001444,,response,,,,100,,,,,,,Space,keypress(Space),,,,,,,,-- --- ---- --- ------ ----- ------- ---- -- --- ------- --<br>------- ---------- ------ -- ----- -- ----- -- ---- ------<br>--- ----- --- --- ------ interest ----- --- ------ ----- --<br>----- ----- ---------- --- --- ------ ------ ---- -- ------<br>------- --- ------ ----- --- ---- ------- -- ---- --- --<br>------- ------,159463.19999998808,159462.5,159257.897,159265.09999999404,159274.697,159474.902,,27,interest
screen,html.Screen,2_1_1_1_28,2022-02-02T16:12:11.138Z,,,,,,,,,,,,,,,,,54,,,,,,,,,,,,,,170.89799998211674,,response,,,,100,,,,,,,Space,keypress(Space),,,,,,,,-- --- ---- --- ------ ----- ------- ---- -- --- ------- --<br>------- ---------- ------ -- ----- -- ----- -- ---- ------<br>--- ----- --- --- ------ -------- rate. --- ------ ----- --<br>----- ----- ---------- --- --- ------ ------ ---- -- ------<br>------- --- ------ ----- --- ---- ------- -- ---- --- --<br>------- ------,159646.09999999404,159645.79999998212,159458.097,159463.5,159474.902,159658.241,,28,rate.
screen,html.Screen,2_1_1_1_29,2022-02-02T16:12:11.346Z,,,,,,,,,,,,,,,,,54,,,,,,,,,,,,,,195.45899998807,,response,,,,100,,,,,,,Space,keypress(Space),,,,,,,,-- --- ---- --- ------ ----- ------- ---- -- --- ------- --<br>------- ---------- ------ -- ----- -- ----- -- ---- ------<br>--- ----- --- --- ------ -------- ----- The ------ ----- --<br>----- ----- ---------- --- --- ------ ------ ---- -- ------<br>------- --- ------ ----- --- ---- ------- -- ---- --- --<br>------- ------,159854.09999999404,159853.69999998808,159641.649,159646.19999998808,159658.241,159858.408,,29,The
screen,html.Screen,2_1_1_1_30,2022-02-02T16:12:11.842Z,,,,,,,,,,,,,,,,,54,,,,,,,,,,,,,,491.5920000000042,,response,,,,100,,,,,,,Space,keypress(Space),,,,,,,,-- --- ---- --- ------ ----- ------- ---- -- --- ------- --<br>------- ---------- ------ -- ----- -- ----- -- ---- ------<br>--- ----- --- --- ------ -------- ----- --- market ----- --<br>----- ----- ---------- --- --- ------ ------ ---- -- ------<br>------- --- ------ ----- --- ---- ------- -- ---- --- --<br>------- ------,160350.59999999404,160350,159841.955,159854.09999999404,159858.408,160358.935,,30,market
screen,html.Screen,2_1_1_1_31,2022-02-02T16:12:12.059Z,,,,,,,,,,,,,,,,,54,,,,,,,,,,,,,,207.36499998212093,,response,,,,100,,,,,,,Space,keypress(Space),,,,,,,,-- --- ---- --- ------ ----- ------- ---- -- --- ------- --<br>------- ---------- ------ -- ----- -- ----- -- ---- ------<br>--- ----- --- --- ------ -------- ----- --- ------ value --<br>----- ----- ---------- --- --- ------ ------ ---- -- ------<br>------- --- ------ ----- --- ---- ------- -- ---- --- --<br>------- ------,160567.09999999404,160566.29999998212,160342.419,160350.79999998212,160358.935,160575.977,,31,value
screen,html.Screen,2_1_1_1_32,2022-02-02T16:12:12.291Z,,,,,,,,,,,,,,,,,54,,,,,,,,,,,,,,222.5229999999865,,response,,,,100,,,,,,,Space,keypress(Space),,,,,,,,-- --- ---- --- ------ ----- ------- ---- -- --- ------- --<br>------- ---------- ------ -- ----- -- ----- -- ---- ------<br>--- ----- --- --- ------ -------- ----- --- ------ ----- of<br>----- ----- ---------- --- --- ------ ------ ---- -- ------<br>------- --- ------ ----- --- ---- ------- -- ---- --- --<br>------- ------,160799.09999999404,160798.5,160559.287,160567.29999998212,160575.977,160809.429,,32,of
screen,html.Screen,2_1_1_1_33,2022-02-02T16:12:12.534Z,,,,,,,,,,,,,,,,,54,,,,,,,,,,,,,,231.87099998211488,,response,,,,100,,,,,,,Space,keypress(Space),,,,,,,,-- --- ---- --- ------ ----- ------- ---- -- --- ------- --<br>------- ---------- ------ -- ----- -- ----- -- ---- ------<br>--- ----- --- --- ------ -------- ----- --- ------ ----- --<br>these ----- ---------- --- --- ------ ------ ---- -- ------<br>------- --- ------ ----- --- ---- ------- -- ---- --- --<br>------- ------,161042.09999999404,161041.29999998212,160792.712,160799.40000000596,160809.429,161068.052,,33,these
screen,html.Screen,2_1_1_1_34,2022-02-02T16:12:12.771Z,,,,,,,,,,,,,,,,,54,,,,,,,,,,,,,,210.44800000000396,,response,,,,100,,,,,,,Space,keypress(Space),,,,,,,,-- --- ---- --- ------ ----- ------- ---- -- --- ------- --<br>------- ---------- ------ -- ----- -- ----- -- ---- ------<br>--- ----- --- --- ------ -------- ----- --- ------ ----- --<br>----- bonds ---------- --- --- ------ ------ ---- -- ------<br>------- --- ------ ----- --- ---- ------- -- ---- --- --<br>------- ------,161279.09999999404,161278.5,161026.285,161042.29999998212,161068.052,161293.334,,34,bonds
screen,html.Screen,2_1_1_1_35,2022-02-02T16:12:12.970Z,,,,,,,,,,,,,,,,,54,,,,,,,,,,,,,,184.5660000059579,,response,,,,100,,,,,,,Space,keypress(Space),,,,,,,,"-- --- ---- --- ------ ----- ------- ---- -- --- ------- --<br>------- ---------- ------ -- ----- -- ----- -- ---- ------<br>--- ----- --- --- ------ -------- ----- --- ------ ----- --<br>----- ----- plummeted, --- --- ------ ------ ---- -- ------<br>------- --- ------ ----- --- ---- ------- -- ---- --- --<br>------- ------",161478.40000000596,161477.90000000596,161276.709,161279.40000000596,161293.334,161493.409,,35,"plummeted,"
screen,html.Screen,2_1_1_1_36,2022-02-02T16:12:13.186Z,,,,,,,,,,,,,,,,,54,,,,,,,,,,,,,,200.49100000594626,,response,,,,100,,,,,,,Space,keypress(Space),,,,,,,,-- --- ---- --- ------ ----- ------- ---- -- --- ------- --<br>------- ---------- ------ -- ----- -- ----- -- ---- ------<br>--- ----- --- --- ------ -------- ----- --- ------ ----- --<br>----- ----- ---------- and --- ------ ------ ---- -- ------<br>------- --- ------ ----- --- ---- ------- -- ---- --- --<br>------- ------,161694.29999998212,161693.90000000596,161476.699,161478.40000000596,161493.409,161710.417,,36,and
screen,html.Screen,2_1_1_1_37,2022-02-02T16:12:13.412Z,,,,,,,,,,,,,,,,,54,,,,,,,,,,,,,,208.78299998809234,,response,,,,100,,,,,,,Space,keypress(Space),,,,,,,,-- --- ---- --- ------ ----- ------- ---- -- --- ------- --<br>------- ---------- ------ -- ----- -- ----- -- ---- ------<br>--- ----- --- --- ------ -------- ----- --- ------ ----- --<br>----- ----- ---------- --- the ------ ------ ---- -- ------<br>------- --- ------ ----- --- ---- ------- -- ---- --- --<br>------- ------,161919.90000000596,161919.19999998808,161693.712,161694.40000000596,161710.417,161927.244,,37,the
screen,html.Screen,2_1_1_1_38,2022-02-02T16:12:13.651Z,,,,,,,,,,,,,,,,,54,,,,,,,,,,,,,,231.35599999403348,,response,,,,100,,,,,,,Space,keypress(Space),,,,,,,,-- --- ---- --- ------ ----- ------- ---- -- --- ------- --<br>------- ---------- ------ -- ----- -- ----- -- ---- ------<br>--- ----- --- --- ------ -------- ----- --- ------ ----- --<br>----- ----- ---------- --- --- market ------ ---- -- ------<br>------- --- ------ ----- --- ---- ------- -- ---- --- --<br>------- ------,162159.29999998212,162158.59999999404,161910.608,161920.09999999404,161927.244,162187.396,,38,market
screen,html.Screen,2_1_1_1_39,2022-02-02T16:12:13.859Z,,,,,,,,,,,,,,,,,54,,,,,,,,,,,,,,178.9039999821107,,response,,,,100,,,,,,,Space,keypress(Space),,,,,,,,-- --- ---- --- ------ ----- ------- ---- -- --- ------- --<br>------- ---------- ------ -- ----- -- ----- -- ---- ------<br>--- ----- --- --- ------ -------- ----- --- ------ ----- --<br>----- ----- ---------- --- --- ------ became ---- -- ------<br>------- --- ------ ----- --- ---- ------- -- ---- --- --<br>------- ------,162367.09999999404,162366.29999998212,162144.248,162159.40000000596,162187.396,162377.553,,39,became
screen,html.Screen,2_1_1_1_40,2022-02-02T16:12:14.091Z,,,,,,,,,,,,,,,,,54,,,,,,,,,,,,,,220.74699998210417,,response,,,,100,,,,,,,Space,keypress(Space),,,,,,,,-- --- ---- --- ------ ----- ------- ---- -- --- ------- --<br>------- ---------- ------ -- ----- -- ----- -- ---- ------<br>--- ----- --- --- ------ -------- ----- --- ------ ----- --<br>----- ----- ---------- --- --- ------ ------ wary -- ------<br>------- --- ------ ----- --- ---- ------- -- ---- --- --<br>------- ------,162599.09999999404,162598.29999998212,162360.892,162367.29999998212,162377.553,162611.241,,40,wary
screen,html.Screen,2_1_1_1_41,2022-02-02T16:12:14.338Z,,,,,,,,,,,,,,,,,54,,,,,,,,,,,,,,234.35899999403046,,response,,,,100,,,,,,,Space,keypress(Space),,,,,,,,-- --- ---- --- ------ ----- ------- ---- -- --- ------- --<br>------- ---------- ------ -- ----- -- ----- -- ---- ------<br>--- ----- --- --- ------ -------- ----- --- ------ ----- --<br>----- ----- ---------- --- --- ------ ------ ---- of ------<br>------- --- ------ ----- --- ---- ------- -- ---- --- --<br>------- ------,162845.90000000596,162845.59999999404,162594.642,162599.29999998212,162611.241,162861.481,,41,of
screen,html.Screen,2_1_1_1_42,2022-02-02T16:12:14.563Z,,,,,,,,,,,,,,,,,54,,,,,,,,,,,,,,208.81899998211884,,response,,,,100,,,,,,,Space,keypress(Space),,,,,,,,-- --- ---- --- ------ ----- ------- ---- -- --- ------- --<br>------- ---------- ------ -- ----- -- ----- -- ---- ------<br>--- ----- --- --- ------ -------- ----- --- ------ ----- --<br>----- ----- ---------- --- --- ------ ------ ---- -- French<br>------- --- ------ ----- --- ---- ------- -- ---- --- --<br>------- ------,163071.09999999404,163070.29999998212,162844.962,162846,162861.481,163078.388,,42,French
screen,html.Screen,2_1_1_1_43,2022-02-02T16:12:14.842Z,,,,,,,,,,,,,,,,,54,,,,,,,,,,,,,,271.5120000059542,,response,,,,100,,,,,,,Space,keypress(Space),,,,,,,,-- --- ---- --- ------ ----- ------- ---- -- --- ------- --<br>------- ---------- ------ -- ----- -- ----- -- ---- ------<br>--- ----- --- --- ------ -------- ----- --- ------ ----- --<br>----- ----- ---------- --- --- ------ ------ ---- -- ------<br>credit. --- ------ ----- --- ---- ------- -- ---- --- --<br>------- ------,163350.19999998808,163349.90000000596,163061.796,163071.29999998212,163078.388,163362.165,,43,credit.
screen,html.Screen,2_1_1_1_44,2022-02-02T16:12:15.131Z,,,,,,,,,,,,,,,,,54,,,,,,,,,,,,,,276.33499999999185,,response,,,,100,,,,,,,Space,keypress(Space),,,,,,,,-- --- ---- --- ------ ----- ------- ---- -- --- ------- --<br>------- ---------- ------ -- ----- -- ----- -- ---- ------<br>--- ----- --- --- ------ -------- ----- --- ------ ----- --<br>----- ----- ---------- --- --- ------ ------ ---- -- ------<br>------- The ------ ----- --- ---- ------- -- ---- --- --<br>------- ------,163639.29999998212,163638.5,163345.371,163350.29999998212,163362.165,163645.675,,44,The
screen,html.Screen,2_1_1_1_45,2022-02-02T16:12:15.443Z,,,,,,,,,,,,,,,,,54,,,,,,,,,,,,,,304.7250000059721,,response,,,,100,,,,,,,Space,keypress(Space),,,,,,,,-- --- ---- --- ------ ----- ------- ---- -- --- ------- --<br>------- ---------- ------ -- ----- -- ----- -- ---- ------<br>--- ----- --- --- ------ -------- ----- --- ------ ----- --<br>----- ----- ---------- --- --- ------ ------ ---- -- ------<br>------- --- French ----- --- ---- ------- -- ---- --- --<br>------- ------,163951.19999998808,163950.40000000596,163629.07,163639.5,163645.675,163962.569,,45,French
screen,html.Screen,2_1_1_1_46,2022-02-02T16:12:15.683Z,,,,,,,,,,,,,,,,,54,,,,,,,,,,,,,,227.83100000597187,,response,,,,100,,,,,,,Space,keypress(Space),,,,,,,,-- --- ---- --- ------ ----- ------- ---- -- --- ------- --<br>------- ---------- ------ -- ----- -- ----- -- ---- ------<br>--- ----- --- --- ------ -------- ----- --- ------ ----- --<br>----- ----- ---------- --- --- ------ ------ ---- -- ------<br>------- --- ------ state --- ---- ------- -- ---- --- --<br>------- ------,164191.09999999404,164190.40000000596,163946.016,163951.40000000596,163962.569,164196.148,,46,state
screen,html.Screen,2_1_1_1_47,2022-02-02T16:12:15.923Z,,,,,,,,,,,,,,,,,54,,,,,,,,,,,,,,234.75200000597397,,response,,,,100,,,,,,,Space,keypress(Space),,,,,,,,-- --- ---- --- ------ ----- ------- ---- -- --- ------- --<br>------- ---------- ------ -- ----- -- ----- -- ---- ------<br>--- ----- --- --- ------ -------- ----- --- ------ ----- --<br>----- ----- ---------- --- --- ------ ------ ---- -- ------<br>------- --- ------ ----- was ---- ------- -- ---- --- --<br>------- ------,164431.59999999404,164430.90000000596,164179.434,164191.29999998212,164196.148,164446.34,,47,was
screen,html.Screen,2_1_1_1_48,2022-02-02T16:12:16.147Z,,,,,,,,,,,,,,,,,54,,,,,,,,,,,,,,207.9599999821221,,response,,,,100,,,,,,,Space,keypress(Space),,,,,,,,-- --- ---- --- ------ ----- ------- ---- -- --- ------- --<br>------- ---------- ------ -- ----- -- ----- -- ---- ------<br>--- ----- --- --- ------ -------- ----- --- ------ ----- --<br>----- ----- ---------- --- --- ------ ------ ---- -- ------<br>------- --- ------ ----- --- left ------- -- ---- --- --<br>------- ------,164655.09999999404,164654.29999998212,164429.813,164431.90000000596,164446.34,164663.224,,48,left
screen,html.Screen,2_1_1_1_49,2022-02-02T16:12:16.354Z,,,,,,,,,,,,,,,,,54,,,,,,,,,,,,,,198.67600000597304,,response,,,,100,,,,,,,Space,keypress(Space),,,,,,,,-- --- ---- --- ------ ----- ------- ---- -- --- ------- --<br>------- ---------- ------ -- ----- -- ----- -- ---- ------<br>--- ----- --- --- ------ -------- ----- --- ------ ----- --<br>----- ----- ---------- --- --- ------ ------ ---- -- ------<br>------- --- ------ ----- --- ---- without -- ---- --- --<br>------- ------,164862.29999998212,164861.90000000596,164646.577,164655.29999998212,164663.224,164863.393,,49,without
screen,html.Screen,2_1_1_1_50,2022-02-02T16:12:16.579Z,,,,,,,,,,,,,,,,,54,,,,,,,,,,,,,,223.00700000594952,,response,,,,100,,,,,,,Space,keypress(Space),,,,,,,,-- --- ---- --- ------ ----- ------- ---- -- --- ------- --<br>------- ---------- ------ -- ----- -- ----- -- ---- ------<br>--- ----- --- --- ------ -------- ----- --- ------ ----- --<br>----- ----- ---------- --- --- ------ ------ ---- -- ------<br>------- --- ------ ----- --- ---- ------- an ---- --- --<br>------- ------,165087.19999998808,165086.40000000596,164846.893,164862.29999998212,164863.393,165097.064,,50,an
screen,html.Screen,2_1_1_1_51,2022-02-02T16:12:16.803Z,,,,,,,,,,,,,,,,,54,,,,,,,,,,,,,,213.23599998210557,,response,,,,100,,,,,,,Space,keypress(Space),,,,,,,,-- --- ---- --- ------ ----- ------- ---- -- --- ------- --<br>------- ---------- ------ -- ----- -- ----- -- ---- ------<br>--- ----- --- --- ------ -------- ----- --- ------ ----- --<br>----- ----- ---------- --- --- ------ ------ ---- -- ------<br>------- --- ------ ----- --- ---- ------- -- easy --- --<br>------- ------,165311,165310.29999998212,165080.346,165087.40000000596,165097.064,165313.917,,51,easy
screen,html.Screen,2_1_1_1_52,2022-02-02T16:12:17.051Z,,,,,,,,,,,,,,,,,54,,,,,,,,,,,,,,244.38299998213188,,response,,,,100,,,,,,,Space,keypress(Space),,,,,,,,-- --- ---- --- ------ ----- ------- ---- -- --- ------- --<br>------- ---------- ------ -- ----- -- ----- -- ---- ------<br>--- ----- --- --- ------ -------- ----- --- ------ ----- --<br>----- ----- ---------- --- --- ------ ------ ---- -- ------<br>------- --- ------ ----- --- ---- ------- -- ---- way --<br>------- ------,165559,165558.29999998212,165297.228,165311.29999998212,165313.917,165564.167,,52,way
screen,html.Screen,2_1_1_1_53,2022-02-02T16:12:17.267Z,,,,,,,,,,,,,,,,,54,,,,,,,,,,,,,,210.03299998809234,,response,,,,100,,,,,,,Space,keypress(Space),,,,,,,,-- --- ---- --- ------ ----- ------- ---- -- --- ------- --<br>------- ---------- ------ -- ----- -- ----- -- ---- ------<br>--- ----- --- --- ------ -------- ----- --- ------ ----- --<br>----- ----- ---------- --- --- ------ ------ ---- -- ------<br>------- --- ------ ----- --- ---- ------- -- ---- --- of<br>------- ------,165775,165774.19999998808,165547.449,165559.19999998808,165564.167,165781.044,,53,of
screen,html.Screen,2_1_1_1_54,2022-02-02T16:12:17.611Z,,,,,,,,,,,,,,,,,54,,,,,,,,,,,,,,337.2559999821242,,response,,,,100,,,,,,,Space,keypress(Space),,,,,,,,-- --- ---- --- ------ ----- ------- ---- -- --- ------- --<br>------- ---------- ------ -- ----- -- ----- -- ---- ------<br>--- ----- --- --- ------ -------- ----- --- ------ ----- --<br>----- ----- ---------- --- --- ------ ------ ---- -- ------<br>------- --- ------ ----- --- ---- ------- -- ---- --- --<br>raising ------,166119.09999999404,166118.29999998212,165764.417,165775.19999998808,165781.044,166131.529,,54,raising
screen,html.Screen,2_1_1_1_55,2022-02-02T16:12:17.996Z,,,,,,,,,,,,,,,,,54,,,,,,,,,,,,,,371.3710000059509,,response,,,,100,,,,,,,Space,keypress(Space),,,,,,,,-- --- ---- --- ------ ----- ------- ---- -- --- ------- --<br>------- ---------- ------ -- ----- -- ----- -- ---- ------<br>--- ----- --- --- ------ -------- ----- --- ------ ----- --<br>----- ----- ---------- --- --- ------ ------ ---- -- ------<br>------- --- ------ ----- --- ---- ------- -- ---- --- --<br>------- money.,166503.69999998808,166502.90000000596,166114.883,166119.29999998212,166131.529,166515.119,,55,money.
Item 100,flow.Loop,2_1_1_1,2022-02-02T16:12:17.996Z,,,,,,,,,,,,,,,,,,,,,,,,,,,,,,,15186.35200000595,,completion,,,,,D,,,,,,,,,,,silence,,,,,166504.09999999404,166502.90000000596,151300.073,151301.09999999404,151316.548,166515.119,,,
Question 1,html.Screen,2_1_1_2,2022-02-02T16:12:20.698Z,,,,,,,,,,,,,,,,,,,,,,,,,,,,true,TRUE,,2690.7810000059544,,response,,,,100,D,,,,,,TRUE,click #choice-1,,,,silence,,,,,169206.5,169205.90000000596,166498.422,166504.29999998212,166515.119,169217.817,,,
Question 2,html.Screen,2_1_1_3,2022-02-02T16:12:22.850Z,,,,,,,,,,,,,,,,,,,,,,,,,,,,true,FALSE,,2139.9829999821086,,response,,,,100,D,,,,,,FALSE,click #choice-2,,,,silence,,,,,171358.40000000596,171357.79999998212,169201.14,169206.5,169217.817,171370.049,,,
Item 100,flow.Sequence,2_1_1,2022-02-02T16:12:22.850Z,,,,,,,,,,,,,,,,,,,,,,,,,,,,,,,30034.391999982123,,completion,,,,,,,,,,,,,,,,,,,,,171358.5,171357.79999998212,141306.545,141302.29999998212,141323.408,171370.049,,,
End of Practice,html.Page,2_1_2,2022-02-02T16:12:27.386Z,,,,,,,,,,,,,,,,,,,,,,,,,,,,,,,4524.351000005961,,form submission,,,,,,,,,,,,,,,,,,,,,175894.59999999404,175894.40000000596,171353.431,171358.5,171370.049,175907.838,,,
Practice,flow.Sequence,2_1,2022-02-02T16:12:27.386Z,,,,,,,,,,,,,,,,,,,,,,,,,,,,,,,68104.69800000596,,completion,,,,,,,,,,,,,,,,,,,,,175894.69999998808,175894.40000000596,107773.163,107766.29999998212,107789.702,175907.838,,,
Trap_instruction,html.Page,2_2_0,2022-02-02T16:12:31.292Z,,,,,,,,,,,,,,,,,,,,,,,,,,,,,,,3891.2619999940507,,form submission,,,,,,,,,,,,,,,,,,,,,179799.19999998808,179799.09999999404,175891.302,175894.69999998808,175907.838,179811.77,,,
trap_trial,html.Screen,2_2_1,2022-02-02T16:12:34.066Z,,,,,,,,,,,,,,,,,,,,,,,,,,,,true,1,,2761.82999999405,,response,,,,,,,,,,,1,click #choice-1,,,,,,,,,182574.09999999404,182573.59999999404,179795.124,179799.19999998808,179811.77,182581.076,,,
end of trap trial,html.Page,2_2_2,2022-02-02T16:12:35.555Z,,,,,,,,,,,,,,,,,,,,,,,,,,,,,,,1481.1239999880781,,form submission,,,,,,,,,,,,,,,,,,,,,184062.29999998212,184062.19999998808,182564.413,182574.09999999404,182581.076,184065.964,,,
Trap 1,flow.Sequence,2_2,2022-02-02T16:12:35.555Z,,,,,,,,,,,,,,,,,,,,,,,,,,,,,,,8154.36199998809,,completion,,,,,,,,,,,,,,,,,,,,,184062.40000000596,184062.19999998808,175891.302,175894.69999998808,175907.838,184065.964,,,
Standby,html.Page,2_3_0,2022-02-02T16:12:43.550Z,,,,,,,,,,,,,,,,,,,,,,,,,,,,,,,8008.008999999991,,timeout,,,,,,,,,,,,,,,,,,,,,192057.59999999404,192057.188,184049.199,184062.40000000596,184065.964,192073.973,,,
Holding screen,html.Screen,2_3_1_0_0,2022-02-02T16:12:50.557Z,,,,,,,,,,,,,,,,,,,,,,,,,,,,,,,7006.934999999998,,timeout,,,,,,,,,,,,,,,,,,,,,199065,199064.291,192057.188,192057.69999998808,192073.973,199080.908,,,
screen,html.Screen,2_3_1_0_1_0,2022-02-02T16:12:52.428Z,,,,,,,,,,,,,,,,,48,,,,,,,,,,,,,,1853.8919999821228,,response,,,,10,D,,,,,,Space,keypress(Space),,,,silence,,,,As -- --- ------ ------- --------- ----------- --------<br>--------- -------- --- ------- -- ------- ---- -- ------<br>-- --- -------- -------- ---------- ---- ---- ---- ------<br>-- --------- -- ---- -- --- -- --- ------- -- - -----<br>---------- -- -- -- ---- ----- -- ------ -- --- ------<br>-------,200935.40000000596,200934.79999998212,199064.291,199065.09999999404,199080.908,200949.687,,0,As
screen,html.Screen,2_3_1_0_1_1,2022-02-02T16:12:52.876Z,,,,,,,,,,,,,,,,,48,,,,,,,,,,,,,,433.0129999880737,,response,,,,10,D,,,,,,Space,keypress(Space),,,,silence,,,,-- in --- ------ ------- --------- ----------- --------<br>--------- -------- --- ------- -- ------- ---- -- ------<br>-- --- -------- -------- ---------- ---- ---- ---- ------<br>-- --------- -- ---- -- --- -- --- ------- -- - -----<br>---------- -- -- -- ---- ----- -- ------ -- --- ------<br>-------,201383.29999998212,201382.69999998808,200932.949,200935.59999999404,200949.687,201400.075,,1,in
screen,html.Screen,2_3_1_0_1_2,2022-02-02T16:12:53.235Z,,,,,,,,,,,,,,,,,48,,,,,,,,,,,,,,342.62499998806743,,response,,,,10,D,,,,,,Space,keypress(Space),,,,silence,,,,-- -- the ------ ------- --------- ----------- --------<br>--------- -------- --- ------- -- ------- ---- -- ------<br>-- --- -------- -------- ---------- ---- ---- ---- ------<br>-- --------- -- ---- -- --- -- --- ------- -- - -----<br>---------- -- -- -- ---- ----- -- ------ -- --- ------<br>-------,201743,201742.69999998808,201383.438,201383.5,201400.075,201750.328,,2,the
screen,html.Screen,2_3_1_0_1_3,2022-02-02T16:12:53.723Z,,,,,,,,,,,,,,,,,48,,,,,,,,,,,,,,480.1719999999914,,response,,,,10,D,,,,,,Space,keypress(Space),,,,silence,,,,-- -- --- United ------- --------- ----------- --------<br>--------- -------- --- ------- -- ------- ---- -- ------<br>-- --- -------- -------- ---------- ---- ---- ---- ------<br>-- --------- -- ---- -- --- -- --- ------- -- - -----<br>---------- -- -- -- ---- ----- -- ------ -- --- ------<br>-------,202231.09999999404,202230.5,201733.632,201743,201750.328,202234.118,,3,United
screen,html.Screen,2_3_1_0_1_4,2022-02-02T16:12:54.203Z,,,,,,,,,,,,,,,,,48,,,,,,,,,,,,,,475.88200000001234,,response,,,,10,D,,,,,,Space,keypress(Space),,,,silence,,,,"-- -- --- ------ States, --------- ----------- --------<br>--------- -------- --- ------- -- ------- ---- -- ------<br>-- --- -------- -------- ---------- ---- ---- ---- ------<br>-- --------- -- ---- -- --- -- --- ------- -- - -----<br>---------- -- -- -- ---- ----- -- ------ -- --- ------<br>-------",202710.40000000596,202710,202217.524,202231.29999998212,202234.118,202717.979,,4,"States,"
screen,html.Screen,2_3_1_0_1_5,2022-02-02T16:12:54.746Z,,,,,,,,,,,,,,,,,48,,,,,,,,,,,,,,535.6209999940475,,response,,,,10,D,,,,,,Space,keypress(Space),,,,silence,,,,-- -- --- ------ ------- Colombian ----------- --------<br>--------- -------- --- ------- -- ------- ---- -- ------<br>-- --- -------- -------- ---------- ---- ---- ---- ------<br>-- --------- -- ---- -- --- -- --- ------- -- - -----<br>---------- -- -- -- ---- ----- -- ------ -- --- ------<br>-------,203253.90000000596,203253.59999999404,202701.342,202710.5,202717.979,203268.56,,5,Colombian
screen,html.Screen,2_3_1_0_1_6,2022-02-02T16:12:55.219Z,,,,,,,,,,,,,,,,,48,,,,,,,,,,,,,,457.73999998212093,,response,,,,10,D,,,,,,Space,keypress(Space),,,,silence,,,,-- -- --- ------ ------- --------- legislation --------<br>--------- -------- --- ------- -- ------- ---- -- ------<br>-- --- -------- -------- ---------- ---- ---- ---- ------<br>-- --------- -- ---- -- --- -- --- ------- -- - -----<br>---------- -- -- -- ---- ----- -- ------ -- --- ------<br>-------,203727.09999999404,203726.29999998212,203251.968,203253.90000000596,203268.56,203735.648,,6,legislation
screen,html.Screen,2_3_1_0_1_7,2022-02-02T16:12:55.932Z,,,,,,,,,,,,,,,,,48,,,,,,,,,,,,,,702.752000005974,,response,,,,10,D,,,,,,Space,keypress(Space),,,,silence,,,,-- -- --- ------ ------- --------- ----------- requires<br>--------- -------- --- ------- -- ------- ---- -- ------<br>-- --- -------- -------- ---------- ---- ---- ---- ------<br>-- --------- -- ---- -- --- -- --- ------- -- - -----<br>---------- -- -- -- ---- ----- -- ------ -- --- ------<br>-------,204439.19999998808,204438.40000000596,203719.056,203727.29999998212,203735.648,204453.098,,7,requires
screen,html.Screen,2_3_1_0_1_8,2022-02-02T16:12:56.307Z,,,,,,,,,,,,,,,,,48,,,,,,,,,,,,,,360.8020000059623,,response,,,,10,D,,,,,,Space,keypress(Space),,,,silence,,,,-- -- --- ------ ------- --------- ----------- --------<br>travelers -------- --- ------- -- ------- ---- -- ------<br>-- --- -------- -------- ---------- ---- ---- ---- ------<br>-- --------- -- ---- -- --- -- --- ------- -- - -----<br>---------- -- -- -- ---- ----- -- ------ -- --- ------<br>-------,204814.29999998212,204813.90000000596,204436.271,204439.40000000596,204453.098,204819.978,,8,travelers
screen,html.Screen,2_3_1_0_1_9,2022-02-02T16:12:56.539Z,,,,,,,,,,,,,,,,,48,,,,,,,,,,,,,,226.42200000595767,,response,,,,10,D,,,,,,Space,keypress(Space),,,,silence,,,,-- -- --- ------ ------- --------- ----------- --------<br>--------- entering --- ------- -- ------- ---- -- ------<br>-- --- -------- -------- ---------- ---- ---- ---- ------<br>-- --------- -- ---- -- --- -- --- ------- -- - -----<br>---------- -- -- -- ---- ----- -- ------ -- --- ------<br>-------,205046.90000000596,205046.40000000596,204803.493,204814.29999998212,204819.978,205053.684,,9,entering
screen,html.Screen,2_3_1_0_1_10,2022-02-02T16:12:56.883Z,,,,,,,,,,,,,,,,,48,,,,,,,,,,,,,,336.5159999880707,,response,,,,10,D,,,,,,Space,keypress(Space),,,,silence,,,,-- -- --- ------ ------- --------- ----------- --------<br>--------- -------- the ------- -- ------- ---- -- ------<br>-- --- -------- -------- ---------- ---- ---- ---- ------<br>-- --------- -- ---- -- --- -- --- ------- -- - -----<br>---------- -- -- -- ---- ----- -- ------ -- --- ------<br>-------,205391,205390.19999998808,205037.128,205047,205053.684,205403.951,,10,the
screen,html.Screen,2_3_1_0_1_11,2022-02-02T16:12:57.107Z,,,,,,,,,,,,,,,,,48,,,,,,,,,,,,,,210.44900000595953,,response,,,,10,D,,,,,,Space,keypress(Space),,,,silence,,,,-- -- --- ------ ------- --------- ----------- --------<br>--------- -------- --- country -- ------- ---- -- ------<br>-- --- -------- -------- ---------- ---- ---- ---- ------<br>-- --------- -- ---- -- --- -- --- ------- -- - -----<br>---------- -- -- -- ---- ----- -- ------ -- --- ------<br>-------,205615.09999999404,205614.40000000596,205387.427,205391.29999998212,205403.951,205620.804,,11,country
screen,html.Screen,2_3_1_0_1_12,2022-02-02T16:12:57.619Z,,,,,,,,,,,,,,,,,48,,,,,,,,,,,,,,505.4959999821149,,response,,,,10,D,,,,,,Space,keypress(Space),,,,silence,,,,-- -- --- ------ ------- --------- ----------- --------<br>--------- -------- --- ------- to ------- ---- -- ------<br>-- --- -------- -------- ---------- ---- ---- ---- ------<br>-- --------- -- ---- -- --- -- --- ------- -- - -----<br>---------- -- -- -- ---- ----- -- ------ -- --- ------<br>-------,206127.09999999404,206126.29999998212,205604.141,205615.29999998212,205620.804,206138.142,,12,to
screen,html.Screen,2_3_1_0_1_13,2022-02-02T16:12:57.858Z,,,,,,,,,,,,,,,,,48,,,,,,,,,,,,,,227.55799998808652,,response,,,,10,D,,,,,,Space,keypress(Space),,,,silence,,,,-- -- --- ------ ------- --------- ----------- --------<br>--------- -------- --- ------- -- declare ---- -- ------<br>-- --- -------- -------- ---------- ---- ---- ---- ------<br>-- --------- -- ---- -- --- -- --- ------- -- - -----<br>---------- -- -- -- ---- ----- -- ------ -- --- ------<br>-------,206366,206365.69999998808,206121.481,206127.19999998808,206138.142,206371.613,,13,declare
screen,html.Screen,2_3_1_0_1_14,2022-02-02T16:12:58.292Z,,,,,,,,,,,,,,,,,48,,,,,,,,,,,,,,427.58699998806696,,response,,,,10,D,,,,,,Space,keypress(Space),,,,silence,,,,-- -- --- ------ ------- --------- ----------- --------<br>--------- -------- --- ------- -- ------- cash -- ------<br>-- --- -------- -------- ---------- ---- ---- ---- ------<br>-- --------- -- ---- -- --- -- --- ------- -- - -----<br>---------- -- -- -- ---- ----- -- ------ -- --- ------<br>-------,206799.59999999404,206799.19999998808,206355.06,206366.09999999404,206371.613,206805.334,,14,cash
screen,html.Screen,2_3_1_0_1_15,2022-02-02T16:12:58.579Z,,,,,,,,,,,,,,,,,48,,,,,,,,,,,,,,281.0660000059579,,response,,,,10,D,,,,,,Space,keypress(Space),,,,silence,,,,-- -- --- ------ ------- --------- ----------- --------<br>--------- -------- --- ------- -- ------- ---- in ------<br>-- --- -------- -------- ---------- ---- ---- ---- ------<br>-- --------- -- ---- -- --- -- --- ------- -- - -----<br>---------- -- -- -- ---- ----- -- ------ -- --- ------<br>-------,207087.09999999404,207086.40000000596,206788.809,206799.69999998808,206805.334,207107.944,,15,in
screen,html.Screen,2_3_1_0_1_16,2022-02-02T16:12:58.988Z,,,,,,,,,,,,,,,,,48,,,,,,,,,,,,,,386.5560000000114,,response,,,,10,D,,,,,,Space,keypress(Space),,,,silence,,,,-- -- --- ------ ------- --------- ----------- --------<br>--------- -------- --- ------- -- ------- ---- -- excess<br>-- --- -------- -------- ---------- ---- ---- ---- ------<br>-- --------- -- ---- -- --- -- --- ------- -- - -----<br>---------- -- -- -- ---- ----- -- ------ -- --- ------<br>-------,207495.19999998808,207494.5,207072.316,207087.29999998212,207107.944,207506.256,,16,excess
screen,html.Screen,2_3_1_0_1_17,2022-02-02T16:12:59.307Z,,,,,,,,,,,,,,,,,48,,,,,,,,,,,,,,307.8439999940456,,response,,,,10,D,,,,,,Space,keypress(Space),,,,silence,,,,-- -- --- ------ ------- --------- ----------- --------<br>--------- -------- --- ------- -- ------- ---- -- ------<br>of --- -------- -------- ---------- ---- ---- ---- ------<br>-- --------- -- ---- -- --- -- --- ------- -- - -----<br>---------- -- -- -- ---- ----- -- ------ -- --- ------<br>-------,207814.5,207814.09999999404,207489.387,207495.40000000596,207506.256,207822.999,,17,of
screen,html.Screen,2_3_1_0_1_18,2022-02-02T16:12:59.523Z,,,,,,,,,,,,,,,,,48,,,,,,,,,,,,,,207.40100000594975,,response,,,,10,D,,,,,,Space,keypress(Space),,,,silence,,,,-- -- --- ------ ------- --------- ----------- --------<br>--------- -------- --- ------- -- ------- ---- -- ------<br>-- ten -------- -------- ---------- ---- ---- ---- ------<br>-- --------- -- ---- -- --- -- --- ------- -- - -----<br>---------- -- -- -- ---- ----- -- ------ -- --- ------<br>-------,208031.09999999404,208030.40000000596,207806.489,207814.59999999404,207822.999,208040.003,,18,ten
screen,html.Screen,2_3_1_0_1_19,2022-02-02T16:13:00.205Z,,,,,,,,,,,,,,,,,48,,,,,,,,,,,,,,672.3970000059635,,response,,,,10,D,,,,,,Space,keypress(Space),,,,silence,,,,-- -- --- ------ ------- --------- ----------- --------<br>--------- -------- --- ------- -- ------- ---- -- ------<br>-- --- thousand -------- ---------- ---- ---- ---- ------<br>-- --------- -- ---- -- --- -- --- ------- -- - -----<br>---------- -- -- -- ---- ----- -- ------ -- --- ------<br>-------,208713.09999999404,208712.40000000596,208023.267,208031.29999998212,208040.003,208724.082,,19,thousand
screen,html.Screen,2_3_1_0_1_20,2022-02-02T16:13:00.707Z,,,,,,,,,,,,,,,,,48,,,,,,,,,,,,,,490.1179999880842,,response,,,,10,D,,,,,,Space,keypress(Space),,,,silence,,,,-- -- --- ------ ------- --------- ----------- --------<br>--------- -------- --- ------- -- ------- ---- -- ------<br>-- --- -------- dollars. ---------- ---- ---- ---- ------<br>-- --------- -- ---- -- --- -- --- ------- -- - -----<br>---------- -- -- -- ---- ----- -- ------ -- --- ------<br>-------,209215,209214.19999998808,208707.368,208713.29999998212,208724.082,209224.434,,20,dollars.
screen,html.Screen,2_3_1_0_1_21,2022-02-02T16:13:05.181Z,,,,,,,,,,,,,,,,,48,,,,,,,,,,,,,,4463.466000005952,,response,,,,10,D,,,,,,Space,keypress(Space),,,,silence,,,,-- -- --- ------ ------- --------- ----------- --------<br>--------- -------- --- ------- -- ------- ---- -- ------<br>-- --- -------- -------- Concealing ---- ---- ---- ------<br>-- --------- -- ---- -- --- -- --- ------- -- - -----<br>---------- -- -- -- ---- ----- -- ------ -- --- ------<br>-------,213688.69999998808,213687.90000000596,209207.735,209215.19999998808,209224.434,213695.574,,21,Concealing
screen,html.Screen,2_3_1_0_1_22,2022-02-02T16:13:05.523Z,,,,,,,,,,,,,,,,,48,,,,,,,,,,,,,,334.42600000000675,,response,,,,10,D,,,,,,Space,keypress(Space),,,,silence,,,,-- -- --- ------ ------- --------- ----------- --------<br>--------- -------- --- ------- -- ------- ---- -- ------<br>-- --- -------- -------- ---------- more ---- ---- ------<br>-- --------- -- ---- -- --- -- --- ------- -- - -----<br>---------- -- -- -- ---- ----- -- ------ -- --- ------<br>-------,214030.40000000596,214030,213678.894,213688.90000000596,213695.574,214045.979,,22,more
screen,html.Screen,2_3_1_0_1_23,2022-02-02T16:13:05.763Z,,,,,,,,,,,,,,,,,48,,,,,,,,,,,,,,224.32099998212652,,response,,,,10,D,,,,,,Space,keypress(Space),,,,silence,,,,-- -- --- ------ ------- --------- ----------- --------<br>--------- -------- --- ------- -- ------- ---- -- ------<br>-- --- -------- -------- ---------- ---- than ---- ------<br>-- --------- -- ---- -- --- -- --- ------- -- - -----<br>---------- -- -- -- ---- ----- -- ------ -- --- ------<br>-------,214271.09999999404,214270.29999998212,214029.351,214030.5,214045.979,214279.528,,23,than
screen,html.Screen,2_3_1_0_1_24,2022-02-02T16:13:05.963Z,,,,,,,,,,,,,,,,,48,,,,,,,,,,,,,,190.8720000059693,,response,,,,10,D,,,,,,Space,keypress(Space),,,,silence,,,,-- -- --- ------ ------- --------- ----------- --------<br>--------- -------- --- ------- -- ------- ---- -- ------<br>-- --- -------- -------- ---------- ---- ---- that ------<br>-- --------- -- ---- -- --- -- --- ------- -- - -----<br>---------- -- -- -- ---- ----- -- ------ -- --- ------<br>-------,214471.09999999404,214470.40000000596,214262.947,214271.19999998808,214279.528,214479.687,,24,that
screen,html.Screen,2_3_1_0_1_25,2022-02-02T16:13:06.170Z,,,,,,,,,,,,,,,,,48,,,,,,,,,,,,,,197.91299999403418,,response,,,,10,D,,,,,,Space,keypress(Space),,,,silence,,,,-- -- --- ------ ------- --------- ----------- --------<br>--------- -------- --- ------- -- ------- ---- -- ------<br>-- --- -------- -------- ---------- ---- ---- ---- amount<br>-- --------- -- ---- -- --- -- --- ------- -- - -----<br>---------- -- -- -- ---- ----- -- ------ -- --- ------<br>-------,214678,214677.59999999404,214462.998,214471.29999998212,214479.687,214679.867,,25,amount
screen,html.Screen,2_3_1_0_1_26,2022-02-02T16:13:06.715Z,,,,,,,,,,,,,,,,,48,,,,,,,,,,,,,,542.4329999821202,,response,,,,10,D,,,,,,Space,keypress(Space),,,,silence,,,,-- -- --- ------ ------- --------- ----------- --------<br>--------- -------- --- ------- -- ------- ---- -- ------<br>-- --- -------- -------- ---------- ---- ---- ---- ------<br>to --------- -- ---- -- --- -- --- ------- -- - -----<br>---------- -- -- -- ---- ----- -- ------ -- --- ------<br>-------,215223,215222.29999998212,214663.249,214678.09999999404,214679.867,215230.455,,26,to
screen,html.Screen,2_3_1_0_1_27,2022-02-02T16:13:08.099Z,,,,,,,,,,,,,,,,,48,,,,,,,,,,,,,,1375.5450000000128,,response,,,,10,D,,,,,,Space,keypress(Space),,,,silence,,,,-- -- --- ------ ------- --------- ----------- --------<br>--------- -------- --- ------- -- ------- ---- -- ------<br>-- --- -------- -------- ---------- ---- ---- ---- ------<br>-- transport -- ---- -- --- -- --- ------- -- - -----<br>---------- -- -- -- ---- ----- -- ------ -- --- ------<br>-------,216606.40000000596,216606,215213.72,215223.09999999404,215230.455,216615.13,,27,transport
screen,html.Screen,2_3_1_0_1_28,2022-02-02T16:13:08.339Z,,,,,,,,,,,,,,,,,48,,,,,,,,,,,,,,230.66999998211395,,response,,,,10,D,,,,,,Space,keypress(Space),,,,silence,,,,-- -- --- ------ ------- --------- ----------- --------<br>--------- -------- --- ------- -- ------- ---- -- ------<br>-- --- -------- -------- ---------- ---- ---- ---- ------<br>-- --------- it ---- -- --- -- --- ------- -- - -----<br>---------- -- -- -- ---- ----- -- ------ -- --- ------<br>-------,216846.19999998808,216845.79999998212,216598.609,216606.5,216615.13,216848.685,,28,it
screen,html.Screen,2_3_1_0_1_29,2022-02-02T16:13:08.707Z,,,,,,,,,,,,,,,,,48,,,,,,,,,,,,,,365.7150000059628,,response,,,,10,D,,,,,,Space,keypress(Space),,,,silence,,,,-- -- --- ------ ------- --------- ----------- --------<br>--------- -------- --- ------- -- ------- ---- -- ------<br>-- --- -------- -------- ---------- ---- ---- ---- ------<br>-- --------- -- into -- --- -- --- ------- -- - -----<br>---------- -- -- -- ---- ----- -- ------ -- --- ------<br>-------,217215.09999999404,217214.40000000596,216832.041,216846.19999998808,216848.685,217232.446,,29,into
screen,html.Screen,2_3_1_0_1_30,2022-02-02T16:13:08.931Z,,,,,,,,,,,,,,,,,48,,,,,,,,,,,,,,205.85399998212233,,response,,,,10,D,,,,,,Space,keypress(Space),,,,silence,,,,-- -- --- ------ ------- --------- ----------- --------<br>--------- -------- --- ------- -- ------- ---- -- ------<br>-- --- -------- -------- ---------- ---- ---- ---- ------<br>-- --------- -- ---- or --- -- --- ------- -- - -----<br>---------- -- -- -- ---- ----- -- ------ -- --- ------<br>-------,217439.09999999404,217438.29999998212,217215.715,217215.29999998212,217232.446,217449.331,,30,or
screen,html.Screen,2_3_1_0_1_31,2022-02-02T16:13:09.171Z,,,,,,,,,,,,,,,,,48,,,,,,,,,,,,,,228.96899998211302,,response,,,,10,D,,,,,,Space,keypress(Space),,,,silence,,,,-- -- --- ------ ------- --------- ----------- --------<br>--------- -------- --- ------- -- ------- ---- -- ------<br>-- --- -------- -------- ---------- ---- ---- ---- ------<br>-- --------- -- ---- -- out -- --- ------- -- - -----<br>---------- -- -- -- ---- ----- -- ------ -- --- ------<br>-------,217679.09999999404,217678.29999998212,217432.704,217439.29999998212,217449.331,217682.866,,31,out
screen,html.Screen,2_3_1_0_1_32,2022-02-02T16:13:09.395Z,,,,,,,,,,,,,,,,,48,,,,,,,,,,,,,,219.23399999403046,,response,,,,10,D,,,,,,Space,keypress(Space),,,,silence,,,,-- -- --- ------ ------- --------- ----------- --------<br>--------- -------- --- ------- -- ------- ---- -- ------<br>-- --- -------- -------- ---------- ---- ---- ---- ------<br>-- --------- -- ---- -- --- of --- ------- -- - -----<br>---------- -- -- -- ---- ----- -- ------ -- --- ------<br>-------,217902.59999999404,217902.09999999404,217666.24,217679.29999998212,217682.866,217916.546,,32,of
screen,html.Screen,2_3_1_0_1_33,2022-02-02T16:13:09.771Z,,,,,,,,,,,,,,,,,48,,,,,,,,,,,,,,361.2539999821165,,response,,,,10,D,,,,,,Space,keypress(Space),,,,silence,,,,-- -- --- ------ ------- --------- ----------- --------<br>--------- -------- --- ------- -- ------- ---- -- ------<br>-- --- -------- -------- ---------- ---- ---- ---- ------<br>-- --------- -- ---- -- --- -- the ------- -- - -----<br>---------- -- -- -- ---- ----- -- ------ -- --- ------<br>-------,218278.19999998808,218277.79999998212,217899.744,217902.69999998808,217916.546,218283.392,,33,the
screen,html.Screen,2_3_1_0_1_34,2022-02-02T16:13:10.316Z,,,,,,,,,,,,,,,,,48,,,,,,,,,,,,,,539.207999994047,,response,,,,10,D,,,,,,Space,keypress(Space),,,,silence,,,,-- -- --- ------ ------- --------- ----------- --------<br>--------- -------- --- ------- -- ------- ---- -- ------<br>-- --- -------- -------- ---------- ---- ---- ---- ------<br>-- --------- -- ---- -- --- -- --- country -- - -----<br>---------- -- -- -- ---- ----- -- ------ -- --- ------<br>-------,218823.29999998212,218822.59999999404,218266.744,218278.29999998212,218283.392,218834.177,,34,country
screen,html.Screen,2_3_1_0_1_35,2022-02-02T16:13:10.611Z,,,,,,,,,,,,,,,,,48,,,,,,,,,,,,,,284.2230000059644,,response,,,,10,D,,,,,,Space,keypress(Space),,,,silence,,,,-- -- --- ------ ------- --------- ----------- --------<br>--------- -------- --- ------- -- ------- ---- -- ------<br>-- --- -------- -------- ---------- ---- ---- ---- ------<br>-- --------- -- ---- -- --- -- --- ------- is - -----<br>---------- -- -- -- ---- ----- -- ------ -- --- ------<br>-------,219119.09999999404,219118.40000000596,218817.537,218823.69999998808,218834.177,219134.356,,35,is
screen,html.Screen,2_3_1_0_1_36,2022-02-02T16:13:10.802Z,,,,,,,,,,,,,,,,,48,,,,,,,,,,,,,,175.3439999880793,,response,,,,10,D,,,,,,Space,keypress(Space),,,,silence,,,,-- -- --- ------ ------- --------- ----------- --------<br>--------- -------- --- ------- -- ------- ---- -- ------<br>-- --- -------- -------- ---------- ---- ---- ---- ------<br>-- --------- -- ---- -- --- -- --- ------- -- a -----<br>---------- -- -- -- ---- ----- -- ------ -- --- ------<br>-------,219310,219309.69999998808,219117.716,219119.29999998212,219134.356,219317.815,,36,a
screen,html.Screen,2_3_1_0_1_37,2022-02-02T16:13:11.005Z,,,,,,,,,,,,,,,,,48,,,,,,,,,,,,,,194.18499999999767,,response,,,,10,D,,,,,,Space,keypress(Space),,,,silence,,,,-- -- --- ------ ------- --------- ----------- --------<br>--------- -------- --- ------- -- ------- ---- -- ------<br>-- --- -------- -------- ---------- ---- ---- ---- ------<br>-- --------- -- ---- -- --- -- --- ------- -- - crime<br>---------- -- -- -- ---- ----- -- ------ -- --- ------<br>-------,219512.69999998808,219512,219301.111,219310.19999998808,219317.815,219518.047,,37,crime
screen,html.Screen,2_3_1_0_1_38,2022-02-02T16:13:11.302Z,,,,,,,,,,,,,,,,,48,,,,,,,,,,,,,,290.4530000000086,,response,,,,10,D,,,,,,Space,keypress(Space),,,,silence,,,,-- -- --- ------ ------- --------- ----------- --------<br>--------- -------- --- ------- -- ------- ---- -- ------<br>-- --- -------- -------- ---------- ---- ---- ---- ------<br>-- --------- -- ---- -- --- -- --- ------- -- - -----<br>punishable -- -- -- ---- ----- -- ------ -- --- ------<br>-------,219809.29999998212,219808.5,219501.521,219512.90000000596,219518.047,219818.474,,38,punishable
screen,html.Screen,2_3_1_0_1_39,2022-02-02T16:13:11.515Z,,,,,,,,,,,,,,,,,48,,,,,,,,,,,,,,203.42600000597304,,response,,,,10,D,,,,,,Space,keypress(Space),,,,silence,,,,-- -- --- ------ ------- --------- ----------- --------<br>--------- -------- --- ------- -- ------- ---- -- ------<br>-- --- -------- -------- ---------- ---- ---- ---- ------<br>-- --------- -- ---- -- --- -- --- ------- -- - -----<br>---------- by -- -- ---- ----- -- ------ -- --- ------<br>-------,220022.29999998212,220021.90000000596,219801.834,219809.40000000596,219818.474,220035.435,,39,by
screen,html.Screen,2_3_1_0_1_40,2022-02-02T16:13:11.715Z,,,,,,,,,,,,,,,,,48,,,,,,,,,,,,,,186.4650000059628,,response,,,,10,D,,,,,,Space,keypress(Space),,,,silence,,,,-- -- --- ------ ------- --------- ----------- --------<br>--------- -------- --- ------- -- ------- ---- -- ------<br>-- --- -------- -------- ---------- ---- ---- ---- ------<br>-- --------- -- ---- -- --- -- --- ------- -- - -----<br>---------- -- up -- ---- ----- -- ------ -- --- ------<br>-------,220222.29999998212,220221.90000000596,220018.515,220022.40000000596,220035.435,220235.594,,40,up
screen,html.Screen,2_3_1_0_1_41,2022-02-02T16:13:11.908Z,,,,,,,,,,,,,,,,,48,,,,,,,,,,,,,,179.3060000059486,,response,,,,10,D,,,,,,Space,keypress(Space),,,,silence,,,,-- -- --- ------ ------- --------- ----------- --------<br>--------- -------- --- ------- -- ------- ---- -- ------<br>-- --- -------- -------- ---------- ---- ---- ---- ------<br>-- --------- -- ---- -- --- -- --- ------- -- - -----<br>---------- -- -- to ---- ----- -- ------ -- --- ------<br>-------,220415.69999998808,220414.90000000596,220218.863,220222.29999998212,220235.594,220418.939,,41,to
screen,html.Screen,2_3_1_0_1_42,2022-02-02T16:13:12.093Z,,,,,,,,,,,,,,,,,48,,,,,,,,,,,,,,181.26099998806603,,response,,,,10,D,,,,,,Space,keypress(Space),,,,silence,,,,-- -- --- ------ ------- --------- ----------- --------<br>--------- -------- --- ------- -- ------- ---- -- ------<br>-- --- -------- -------- ---------- ---- ---- ---- ------<br>-- --------- -- ---- -- --- -- --- ------- -- - -----<br>---------- -- -- -- five ----- -- ------ -- --- ------<br>-------,220600.90000000596,220600.19999998808,220402.389,220415.79999998212,220418.939,220628.856,,42,five
