sender,sender_type,sender_id,timestamp,meta,,Blues,Classical,Country,Dance,Electronic,Folk,Gospel,Hip-Hop,Jazz,Latin,Musical/Film,New-age,Pop,Prolific_id,Provo_ID,R&B,Rap,Reggae,Religious,Rock,Soul,Swing,Traditional,age,artist_name,correct,correctResponse,distraction,duration,education,ended_on,familiarity,gender,headphone_check_performance,item,list,music_frequency,offensiveness,pleasantness,position_correct,preference,response,response_action,snippet_file,song_name,song_rating,sound,stimulus_1,stimulus_2,stimulus_3,text,time_commit,time_end,time_render,time_run,time_show,time_switch,url,word,word_ID
Prolific ID,html.Form,0,2022-02-02T16:12:03.520Z,"{""labjs_version"":""20.2.2"",""labjs_build"":{""flavor"":""production"",""commit"":""a25486e0c714a0ae2ce03ff94b7bb6896854dcfa""},""location"":""https://run.pavlovia.org/mvasilev/prolific2_music_d/"",""userAgent"":""Mozilla/5.0 (Windows NT 10.0; Win64; x64) AppleWebKit/537.36 (KHTML, like Gecko) Chrome/98.0.4758.82 Safari/537.36"",""platform"":""Win32"",""language"":""en-GB"",""locale"":""en-GB"",""timeZone"":""Europe/London"",""timezoneOffset"":0,""screen_width"":1920,""screen_height"":1080,""scroll_width"":1920,""scroll_height"":921,""window_innerWidth"":1920,""window_innerHeight"":969,""devicePixelRatio"":1}",,,,,,,,,,,,,,,5c87d9698ce3850001596328,,,,,,,,,,,,,,,23948.65199999404,,form submission,,,,,,,,,,,,,,,,,,,,,34694.90000000596,34694.59999999404,10730.785,10737.5,10745.948,34701.272,{},,
Introduction,html.Screen,1_0,2022-02-02T16:12:07.945Z,,,,,,,,,,,,,,,,,,,,,,,,,,,,,,,4416.427999988082,,response,,,,,,,,,,,continue,click button,,,,,,,,,39119.09999999404,39117.69999998808,34687.907,34695.09999999404,34701.272,39129.855,,,
Volume calibration,html.Screen,1_1,2022-02-02T16:12:43.626Z,,,,,,,,,,,,,,,,,,,,,,,,,,,,,,,35668.04500000596,,response,,,,,,,,,,,continue,click button,,,,,,,,,74799.59999999404,74797.90000000596,39116.629,39119.19999998808,39129.855,74809.033,,,
Task instructions,html.Screen,1_2,2022-02-02T16:12:54.913Z,,,,,,,,,,,,,,,,,,,,,,,,,,,,,,,11277.266999982123,,response,,,,,,,,,,,continue,click button,,,,,,,,,86086.69999998808,86086.29999998212,74795.676,74799.69999998808,74809.033,86093.079,,,
Sounds,html.Screen,1_3_0_0,2022-02-02T16:12:59.163Z,,,,,,,,,,,,,,,,,,,,,,,,,,,,,,,4254.870999999999,,timeout,,,,,,,,,3,,,,,,,,O,I,S,,90336.90000000596,90334.639,86080.044,86086.79999998212,86093.079,90347.95,,,
Judgement,html.Screen,1_3_0_1,2022-02-02T16:13:00.729Z,,,,,,,,,,,,,,,,,,,,,,,,,,,,true,3,,1554.249999988082,,response,,,,,,,,,3,,3,click #choice-3,,,,,O,I,S,,91902.69999998808,91902.19999998808,90334.639,90337.09999999404,90347.95,91908.977,,,
Trial,flow.Sequence,1_3_0,2022-02-02T16:13:00.729Z,,,,,,,,,,,,,,,,,,,,,,,,,,,,,,,5809.120999988081,,completion,,,,,,,,,3,,,,,,,,O,I,S,,91902.90000000596,91902.19999998808,86080.044,86086.79999998212,86093.079,91908.977,,,
Sounds,html.Screen,1_3_1_0,2022-02-02T16:13:04.976Z,,,,,,,,,,,,,,,,,,,,,,,,,,,,,,,4254.404999999999,,timeout,,,,,,,,,1,,,,,,,,S,O,I,,96150.29999998212,96150.041,91895.63,91903.09999999404,91908.977,96163.382,,,
Judgement,html.Screen,1_3_1_1,2022-02-02T16:13:08.144Z,,,,,,,,,,,,,,,,,,,,,,,,,,,,true,1,,3154.3179999880813,,response,,,,,,,,,1,,1,click #choice-1,,,,,S,O,I,,99318.19999998808,99317.69999998808,96150.041,96150.29999998212,96163.382,99324.539,,,
Trial,flow.Sequence,1_3_1,2022-02-02T16:13:08.145Z,,,,,,,,,,,,,,,,,,,,,,,,,,,,,,,7408.72299998808,,completion,,,,,,,,,1,,,,,,,,S,O,I,,99318.5,99317.69999998808,91895.63,91902.90000000596,91908.977,99324.539,,,
Sounds,html.Screen,1_3_2_0,2022-02-02T16:13:12.394Z,,,,,,,,,,,,,,,,,,,,,,,,,,,,,,,4254.875999999989,,timeout,,,,,,,,,1,,,,,,,,S,I,O,,103567.40000000596,103566.104,99311.197,99318.5,99324.539,103579.415,,,
Judgement,html.Screen,1_3_2_1,2022-02-02T16:13:13.192Z,,,,,,,,,,,,,,,,,,,,,,,,,,,,true,1,,786.384999982125,,response,,,,,,,,,1,,1,click #choice-1,,,,,S,I,O,,104366.19999998808,104365.79999998212,103566.104,103567.5,103579.415,104380.676,,,
Trial,flow.Sequence,1_3_2,2022-02-02T16:13:13.192Z,,,,,,,,,,,,,,,,,,,,,,,,,,,,,,,5041.260999982114,,completion,,,,,,,,,1,,,,,,,,S,I,O,,104366.29999998212,104365.79999998212,99311.197,99318.5,99324.539,104380.676,,,
Sounds,html.Screen,1_3_3_0,2022-02-02T16:13:17.447Z,,,,,,,,,,,,,,,,,,,,,,,,,,,,,,,4253.86099999999,,timeout,,,,,,,,,3,,,,,,,,I,O,S,,108621.40000000596,108621.193,104352.967,104366.40000000596,104380.676,108634.537,,,
Judgement,html.Screen,1_3_3_1,2022-02-02T16:13:18.248Z,,,,,,,,,,,,,,,,,,,,,,,,,,,,true,3,,787.6629999880824,,response,,,,,,,,,3,,3,click #choice-3,,,,,I,O,S,,109422.59999999404,109422.19999998808,108621.193,108621.5,108634.537,109434.859,,,
Trial,flow.Sequence,1_3_3,2022-02-02T16:13:18.248Z,,,,,,,,,,,,,,,,,,,,,,,,,,,,,,,5041.523999988072,,completion,,,,,,,,,3,,,,,,,,I,O,S,,109422.69999998808,109422.19999998808,104352.967,104366.40000000596,104380.676,109434.859,,,
Sounds,html.Screen,1_3_4_0,2022-02-02T16:13:22.502Z,,,,,,,,,,,,,,,,,,,,,,,,,,,,,,,4254.849000000002,,timeout,,,,,,,,,2,,,,,,,,O,S,I,,113676.59999999404,113676.367,109421.469,109422.79999998212,109434.859,113689.708,,,
Judgement,html.Screen,1_3_4_1,2022-02-02T16:13:23.984Z,,,,,,,,,,,,,,,,,,,,,,,,,,,,true,2,,1468.4919999880804,,response,,,,,,,,,2,,2,click #choice-2,,,,,O,S,I,,115158.5,115158.19999998808,113676.367,113676.79999998212,113689.708,115170.247,,,
Trial,flow.Sequence,1_3_4,2022-02-02T16:13:23.984Z,,,,,,,,,,,,,,,,,,,,,,,,,,,,,,,5723.340999988082,,completion,,,,,,,,,2,,,,,,,,O,S,I,,115158.79999998212,115158.19999998808,109421.469,109422.79999998212,109434.859,115170.247,,,
Sounds,html.Screen,1_3_5_0,2022-02-02T16:13:28.238Z,,,,,,,,,,,,,,,,,,,,,,,,,,,,,,,4254.872999999992,,timeout,,,,,,,,,2,,,,,,,,I,S,O,,119412.5,119412.248,115156.882,115158.79999998212,115170.247,119425.12,,,
Judgement,html.Screen,1_3_5_1,2022-02-02T16:13:28.712Z,,,,,,,,,,,,,,,,,,,,,,,,,,,,true,2,,460.67999998212326,,response,,,,,,,,,2,,2,click #choice-2,,,,,I,S,O,,119886.29999998212,119885.79999998212,119412.248,119412.59999999404,119425.12,119891.95,,,
Trial,flow.Sequence,1_3_5,2022-02-02T16:13:28.712Z,,,,,,,,,,,,,,,,,,,,,,,,,,,,,,,4715.552999982116,,completion,,,,,,,,,2,,,,,,,,I,S,O,,119886.40000000596,119885.79999998212,115156.882,115158.79999998212,115170.247,119891.95,,,
Task,flow.Loop,1_3,2022-02-02T16:13:28.714Z,,,,,,,,,,,,,,,,,,,,,,,,,,,,,,,33792.72099998212,,completion,,,1,,,,,,,,,,,,,,,,,,119888.90000000596,119885.79999998212,86080.044,86086.69999998808,86093.079,119891.95,,,
Trap,html.Screen,1_4,2022-02-02T16:13:28.715Z,,,,,,,,,,,,,,,,,,,,,,,,,,,,,,,NaN,,skipped,,,,,,,,,,,,,,,,,,,,,119889.59999999404,119885.79999998212,,119889.5,,119891.95,,,
Thanks,html.Screen,1_5,2022-02-02T16:13:33.015Z,,,,,,,,,,,,,,,,,,,,,,,,,,,,,,,4297.8499999821215,,response,,,,,,,,,,,continue,click button,,,,,,,,,124190.19999998808,124189.79999998212,119878.6,119889.69999998808,119891.95,127721.431,,,
Headphone screening,flow.Sequence,1,2022-02-02T16:13:33.016Z,,,,,,,,,,,,,,,,,,,,,,,,,,,,,,,89488.52799998212,,completion,,,,,,,,,,,,,,,,,,,,,124190.29999998212,124189.79999998212,34687.907,34695.09999999404,34701.272,127721.431,,,
Instructions,html.Page,2_0,2022-02-02T16:13:49.688Z,,,,,,,,,,,,,,,,,,,,,,,,,,,,,,,13140.969000005964,,form submission,,,,,,,,,,,,,,,,,,,,,140862.59999999404,140862.40000000596,127708.078,127721.09999999404,127721.431,140872.84,,,
Holding screen,html.Screen,2_1_0_0,2022-02-02T16:13:59.690Z,,,,,,,,,,,,,,,,,,,,,,,,,,,,,,,10003.584999999992,,timeout,,,,,,,,,,,,,,,,,,,,,150864.29999998212,150863.106,140859.471,140862.69999998808,140872.84,150876.425,,,
screen,html.Screen,2_1_0_1_0,2022-02-02T16:14:00.487Z,,,,,,,,,,,,,,,,,53,,,,,,,,,,,,,,784.1749999940512,,response,,,,99,,,,,,,Space,keypress(Space),,,,,,,,When -- ----- -- ------ - ------- --- ----------<br>------------- ------ ------ ---- ---- ------- ----- -- ----<br>-------- ------- -- ---------- --- - --- ----- ----- ----<br>---- --- --- ----- --- ---- ---- ------- ----- ---- -------<br>--- --- -- ----- -- --- ---- -- --- ---- -- ------ ------<br>--- ----- -- ----,151662,151660.59999999404,150863.106,150864.40000000596,150876.425,151663.4,,0,When
screen,html.Screen,2_1_0_1_1,2022-02-02T16:14:00.846Z,,,,,,,,,,,,,,,,,53,,,,,,,,,,,,,,357.1000000000058,,response,,,,99,,,,,,,Space,keypress(Space),,,,,,,,---- it ----- -- ------ - ------- --- ----------<br>------------- ------ ------ ---- ---- ------- ----- -- ----<br>-------- ------- -- ---------- --- - --- ----- ----- ----<br>---- --- --- ----- --- ---- ---- ------- ----- ---- -------<br>--- --- -- ----- -- --- ---- -- --- ---- -- ------ ------<br>--- ----- -- ----,152020.79999998212,152020.5,151650.11,151662.09999999404,151663.4,152023.523,,1,it
screen,html.Screen,2_1_0_1_2,2022-02-02T16:14:01.190Z,,,,,,,,,,,,,,,,,53,,,,,,,,,,,,,,340.9770000000135,,response,,,,99,,,,,,,Space,keypress(Space),,,,,,,,---- -- comes -- ------ - ------- --- ----------<br>------------- ------ ------ ---- ---- ------- ----- -- ----<br>-------- ------- -- ---------- --- - --- ----- ----- ----<br>---- --- --- ----- --- ---- ---- ------- ----- ---- -------<br>--- --- -- ----- -- --- ---- -- --- ---- -- ------ ------<br>--- ----- -- ----,152364.90000000596,152364.5,152010.537,152020.90000000596,152023.523,152370.806,,2,comes
screen,html.Screen,2_1_0_1_3,2022-02-02T16:14:01.550Z,,,,,,,,,,,,,,,,,53,,,,,,,,,,,,,,353.09400000594906,,response,,,,99,,,,,,,Space,keypress(Space),,,,,,,,---- -- ----- to ------ - ------- --- ----------<br>------------- ------ ------ ---- ---- ------- ----- -- ----<br>-------- ------- -- ---------- --- - --- ----- ----- ----<br>---- --- --- ----- --- ---- ---- ------- ----- ---- -------<br>--- --- -- ----- -- --- ---- -- --- ---- -- ------ ------<br>--- ----- -- ----,152724.29999998212,152723.90000000596,152357.327,152364.90000000596,152370.806,152730.442,,3,to
screen,html.Screen,2_1_0_1_4,2022-02-02T16:14:01.870Z,,,,,,,,,,,,,,,,,53,,,,,,,,,,,,,,314.05799999999,,response,,,,99,,,,,,,Space,keypress(Space),,,,,,,,---- -- ----- -- having - ------- --- ----------<br>------------- ------ ------ ---- ---- ------- ----- -- ----<br>-------- ------- -- ---------- --- - --- ----- ----- ----<br>---- --- --- ----- --- ---- ---- ------- ----- ---- -------<br>--- --- -- ----- -- --- ---- -- --- ---- -- ------ ------<br>--- ----- -- ----,153044.79999998212,153044.5,152717.319,152724.29999998212,152730.442,153051.051,,4,having
screen,html.Screen,2_1_0_1_5,2022-02-02T16:14:02.206Z,,,,,,,,,,,,,,,,,53,,,,,,,,,,,,,,329.1489999880723,,response,,,,99,,,,,,,Space,keypress(Space),,,,,,,,---- -- ----- -- ------ a ------- --- ----------<br>------------- ------ ------ ---- ---- ------- ----- -- ----<br>-------- ------- -- ---------- --- - --- ----- ----- ----<br>---- --- --- ----- --- ---- ---- ------- ----- ---- -------<br>--- --- -- ----- -- --- ---- -- --- ---- -- ------ ------<br>--- ----- -- ----,153380.59999999404,153380.19999998808,153037.095,153044.90000000596,153051.051,153384.002,,5,a
screen,html.Screen,2_1_0_1_6,2022-02-02T16:14:02.606Z,,,,,,,,,,,,,,,,,53,,,,,,,,,,,,,,395.9979999999923,,response,,,,99,,,,,,,Space,keypress(Space),,,,,,,,---- -- ----- -- ------ - lasting --- ----------<br>------------- ------ ------ ---- ---- ------- ----- -- ----<br>-------- ------- -- ---------- --- - --- ----- ----- ----<br>---- --- --- ----- --- ---- ---- ------- ----- ---- -------<br>--- --- -- ----- -- --- ---- -- --- ---- -- ------ ------<br>--- ----- -- ----,153780.40000000596,153780,153370.559,153380.69999998808,153384.002,153784.155,,6,lasting
screen,html.Screen,2_1_0_1_7,2022-02-02T16:14:02.974Z,,,,,,,,,,,,,,,,,53,,,,,,,,,,,,,,363.74500000596163,,response,,,,99,,,,,,,Space,keypress(Space),,,,,,,,---- -- ----- -- ------ - ------- and ----------<br>------------- ------ ------ ---- ---- ------- ----- -- ----<br>-------- ------- -- ---------- --- - --- ----- ----- ----<br>---- --- --- ----- --- ---- ---- ------- ----- ---- -------<br>--- --- -- ----- -- --- ---- -- --- ---- -- ------ ------<br>--- ----- -- ----,154148.19999998808,154147.90000000596,153770.689,153780.5,153784.155,154157.613,,7,and
screen,html.Screen,2_1_0_1_8,2022-02-02T16:14:03.606Z,,,,,,,,,,,,,,,,,53,,,,,,,,,,,,,,622.6869999821065,,response,,,,99,,,,,,,Space,keypress(Space),,,,,,,,---- -- ----- -- ------ - ------- --- fulfilling<br>------------- ------ ------ ---- ---- ------- ----- -- ----<br>-------- ------- -- ---------- --- - --- ----- ----- ----<br>---- --- --- ----- --- ---- ---- ------- ----- ---- -------<br>--- --- -- ----- -- --- ---- -- --- ---- -- ------ ------<br>--- ----- -- ----,154780.69999998808,154780.29999998212,154144.641,154148.29999998212,154157.613,154784.508,,8,fulfilling
screen,html.Screen,2_1_0_1_9,2022-02-02T16:14:04.118Z,,,,,,,,,,,,,,,,,53,,,,,,,,,,,,,,507.89200000595883,,response,,,,99,,,,,,,Space,keypress(Space),,,,,,,,"---- -- ----- -- ------ - ------- --- ----------<br>relationship, ------ ------ ---- ---- ------- ----- -- ----<br>-------- ------- -- ---------- --- - --- ----- ----- ----<br>---- --- --- ----- --- ---- ---- ------- ----- ---- -------<br>--- --- -- ----- -- --- ---- -- --- ---- -- ------ ------<br>--- ----- -- ----",155292.79999998212,155292.40000000596,154770.931,154780.69999998808,154784.508,155305.188,,9,"relationship,"
screen,html.Screen,2_1_0_1_10,2022-02-02T16:14:04.518Z,,,,,,,,,,,,,,,,,53,,,,,,,,,,,,,,387.2120000059658,,response,,,,99,,,,,,,Space,keypress(Space),,,,,,,,---- -- ----- -- ------ - ------- --- ----------<br>------------- common ------ ---- ---- ------- ----- -- ----<br>-------- ------- -- ---------- --- - --- ----- ----- ----<br>---- --- --- ----- --- ---- ---- ------- ----- ---- -------<br>--- --- -- ----- -- --- ---- -- --- ---- -- ------ ------<br>--- ----- -- ----,155692.69999998808,155692.40000000596,155291.528,155292.79999998212,155305.188,155705.435,,10,common
screen,html.Screen,2_1_0_1_11,2022-02-02T16:14:04.846Z,,,,,,,,,,,,,,,,,53,,,,,,,,,,,,,,315.0650000000023,,response,,,,99,,,,,,,Space,keypress(Space),,,,,,,,---- -- ----- -- ------ - ------- --- ----------<br>------------- ------ wisdom ---- ---- ------- ----- -- ----<br>-------- ------- -- ---------- --- - --- ----- ----- ----<br>---- --- --- ----- --- ---- ---- ------- ----- ---- -------<br>--- --- -- ----- -- --- ---- -- --- ---- -- ------ ------<br>--- ----- -- ----,156020.79999998212,156020.5,155691.372,155692.90000000596,155705.435,156024.985,,11,wisdom
screen,html.Screen,2_1_0_1_12,2022-02-02T16:14:05.222Z,,,,,,,,,,,,,,,,,53,,,,,,,,,,,,,,371.01500000001397,,response,,,,99,,,,,,,Space,keypress(Space),,,,,,,,---- -- ----- -- ------ - ------- --- ----------<br>------------- ------ ------ says ---- ------- ----- -- ----<br>-------- ------- -- ---------- --- - --- ----- ----- ----<br>---- --- --- ----- --- ---- ---- ------- ----- ---- -------<br>--- --- -- ----- -- --- ---- -- --- ---- -- ------ ------<br>--- ----- -- ----,156396.40000000596,156396,156011.978,156020.90000000596,156024.985,156398.436,,12,says
screen,html.Screen,2_1_0_1_13,2022-02-02T16:14:05.542Z,,,,,,,,,,,,,,,,,53,,,,,,,,,,,,,,318.06400000001304,,response,,,,99,,,,,,,Space,keypress(Space),,,,,,,,---- -- ----- -- ------ - ------- --- ----------<br>------------- ------ ------ ---- that ------- ----- -- ----<br>-------- ------- -- ---------- --- - --- ----- ----- ----<br>---- --- --- ----- --- ---- ---- ------- ----- ---- -------<br>--- --- -- ----- -- --- ---- -- --- ---- -- ------ ------<br>--- ----- -- ----,156716.79999998212,156716.5,156385.268,156396.5,156398.436,156718.535,,13,that
screen,html.Screen,2_1_0_1_14,2022-02-02T16:14:05.854Z,,,,,,,,,,,,,,,,,53,,,,,,,,,,,,,,309.365000005957,,response,,,,99,,,,,,,Space,keypress(Space),,,,,,,,---- -- ----- -- ------ - ------- --- ----------<br>------------- ------ ------ ---- ---- feeling ----- -- ----<br>-------- ------- -- ---------- --- - --- ----- ----- ----<br>---- --- --- ----- --- ---- ---- ------- ----- ---- -------<br>--- --- -- ----- -- --- ---- -- --- ---- -- ------ ------<br>--- ----- -- ----,157028.19999998808,157027.90000000596,156705.12,156716.90000000596,156718.535,157038.676,,14,feeling
screen,html.Screen,2_1_0_1_15,2022-02-02T16:14:06.190Z,,,,,,,,,,,,,,,,,53,,,,,,,,,,,,,,325.9239999940328,,response,,,,99,,,,,,,Space,keypress(Space),,,,,,,,---- -- ----- -- ------ - ------- --- ----------<br>------------- ------ ------ ---- ---- ------- close -- ----<br>-------- ------- -- ---------- --- - --- ----- ----- ----<br>---- --- --- ----- --- ---- ---- ------- ----- ---- -------<br>--- --- -- ----- -- --- ---- -- --- ---- -- ------ ------<br>--- ----- -- ----,157365,157364.59999999404,157025.691,157028.29999998212,157038.676,157372.607,,15,close
screen,html.Screen,2_1_0_1_16,2022-02-02T16:14:06.510Z,,,,,,,,,,,,,,,,,53,,,,,,,,,,,,,,311.2930000059714,,response,,,,99,,,,,,,Space,keypress(Space),,,,,,,,---- -- ----- -- ------ - ------- --- ----------<br>------------- ------ ------ ---- ---- ------- ----- to ----<br>-------- ------- -- ---------- --- - --- ----- ----- ----<br>---- --- --- ----- --- ---- ---- ------- ----- ---- -------<br>--- --- -- ----- -- --- ---- -- --- ---- -- ------ ------<br>--- ----- -- ----,157684.29999998212,157683.90000000596,157359.092,157365,157372.607,157692.241,,16,to
screen,html.Screen,2_1_0_1_17,2022-02-02T16:14:06.822Z,,,,,,,,,,,,,,,,,53,,,,,,,,,,,,,,303.6590000059514,,response,,,,99,,,,,,,Space,keypress(Space),,,,,,,,---- -- ----- -- ------ - ------- --- ----------<br>------------- ------ ------ ---- ---- ------- ----- -- your<br>-------- ------- -- ---------- --- - --- ----- ----- ----<br>---- --- --- ----- --- ---- ---- ------- ----- ---- -------<br>--- --- -- ----- -- --- ---- -- --- ---- -- ------ ------<br>--- ----- -- ----,157996.29999998212,157995.90000000596,157678.797,157684.40000000596,157692.241,157998.995,,17,your
screen,html.Screen,2_1_0_1_18,2022-02-02T16:14:07.166Z,,,,,,,,,,,,,,,,,53,,,,,,,,,,,,,,341.00500000000466,,response,,,,99,,,,,,,Space,keypress(Space),,,,,,,,---- -- ----- -- ------ - ------- --- ----------<br>------------- ------ ------ ---- ---- ------- ----- -- ----<br>romantic ------- -- ---------- --- - --- ----- ----- ----<br>---- --- --- ----- --- ---- ---- ------- ----- ---- -------<br>--- --- -- ----- -- --- ---- -- --- ---- -- ------ ------<br>--- ----- -- ----,158340.29999998212,158340,157985.549,157996.29999998212,157998.995,158345.787,,18,romantic
screen,html.Screen,2_1_0_1_19,2022-02-02T16:14:07.494Z,,,,,,,,,,,,,,,,,53,,,,,,,,,,,,,,322.7129999999888,,response,,,,99,,,,,,,Space,keypress(Space),,,,,,,,---- -- ----- -- ------ - ------- --- ----------<br>------------- ------ ------ ---- ---- ------- ----- -- ----<br>-------- partner -- ---------- --- - --- ----- ----- ----<br>---- --- --- ----- --- ---- ---- ------- ----- ---- -------<br>--- --- -- ----- -- --- ---- -- --- ---- -- ------ ------<br>--- ----- -- ----,158668.79999998212,158668.5,158332.329,158340.40000000596,158345.787,158679.592,,19,partner
screen,html.Screen,2_1_0_1_20,2022-02-02T16:14:07.854Z,,,,,,,,,,,,,,,,,53,,,,,,,,,,,,,,348.4079999999958,,response,,,,99,,,,,,,Space,keypress(Space),,,,,,,,---- -- ----- -- ------ - ------- --- ----------<br>------------- ------ ------ ---- ---- ------- ----- -- ----<br>-------- ------- is ---------- --- - --- ----- ----- ----<br>---- --- --- ----- --- ---- ---- ------- ----- ---- -------<br>--- --- -- ----- -- --- ---- -- --- ---- -- ------ ------<br>--- ----- -- ----,159028.29999998212,159028,158666.184,158668.90000000596,158679.592,159039.863,,20,is
screen,html.Screen,2_1_0_1_21,2022-02-02T16:14:08.182Z,,,,,,,,,,,,,,,,,53,,,,,,,,,,,,,,316.4369999821065,,response,,,,99,,,,,,,Space,keypress(Space),,,,,,,,---- -- ----- -- ------ - ------- --- ----------<br>------------- ------ ------ ---- ---- ------- ----- -- ----<br>-------- ------- -- paramount. --- - --- ----- ----- ----<br>---- --- --- ----- --- ---- ---- ------- ----- ---- -------<br>--- --- -- ----- -- --- ---- -- --- ---- -- ------ ------<br>--- ----- -- ----,159356.69999998808,159356.29999998212,159026.376,159028.40000000596,159039.863,159359.486,,21,paramount.
screen,html.Screen,2_1_0_1_22,2022-02-02T16:14:08.654Z,,,,,,,,,,,,,,,,,53,,,,,,,,,,,,,,468.5139999999956,,response,,,,99,,,,,,,Space,keypress(Space),,,,,,,,---- -- ----- -- ------ - ------- --- ----------<br>------------- ------ ------ ---- ---- ------- ----- -- ----<br>-------- ------- -- ---------- But - --- ----- ----- ----<br>---- --- --- ----- --- ---- ---- ------- ----- ---- -------<br>--- --- -- ----- -- --- ---- -- --- ---- -- ------ ------<br>--- ----- -- ----,159828.29999998212,159828,159346.386,159356.69999998808,159359.486,159839.807,,22,But
screen,html.Screen,2_1_0_1_23,2022-02-02T16:14:08.910Z,,,,,,,,,,,,,,,,,53,,,,,,,,,,,,,,244.6929999999993,,response,,,,99,,,,,,,Space,keypress(Space),,,,,,,,---- -- ----- -- ------ - ------- --- ----------<br>------------- ------ ------ ---- ---- ------- ----- -- ----<br>-------- ------- -- ---------- --- a --- ----- ----- ----<br>---- --- --- ----- --- ---- ---- ------- ----- ---- -------<br>--- --- -- ----- -- --- ---- -- --- ---- -- ------ ------<br>--- ----- -- ----,160084.79999998212,160084.5,159826.171,159828.40000000596,159839.807,160093.113,,23,a
screen,html.Screen,2_1_0_1_24,2022-02-02T16:14:09.198Z,,,,,,,,,,,,,,,,,53,,,,,,,,,,,,,,279.4869999940274,,response,,,,99,,,,,,,Space,keypress(Space),,,,,,,,---- -- ----- -- ------ - ------- --- ----------<br>------------- ------ ------ ---- ---- ------- ----- -- ----<br>-------- ------- -- ---------- --- - new ----- ----- ----<br>---- --- --- ----- --- ---- ---- ------- ----- ---- -------<br>--- --- -- ----- -- --- ---- -- --- ---- -- ------ ------<br>--- ----- -- ----,160372.79999998212,160372.59999999404,160079.832,160084.90000000596,160093.113,160386.567,,24,new
screen,html.Screen,2_1_0_1_25,2022-02-02T16:14:09.470Z,,,,,,,,,,,,,,,,,53,,,,,,,,,,,,,,257.7329999821086,,response,,,,99,,,,,,,Space,keypress(Space),,,,,,,,---- -- ----- -- ------ - ------- --- ----------<br>------------- ------ ------ ---- ---- ------- ----- -- ----<br>-------- ------- -- ---------- --- - --- study ----- ----<br>---- --- --- ----- --- ---- ---- ------- ----- ---- -------<br>--- --- -- ----- -- --- ---- -- --- ---- -- ------ ------<br>--- ----- -- ----,160644.59999999404,160644.29999998212,160360.237,160372.90000000596,160386.567,160653.775,,25,study
screen,html.Screen,2_1_0_1_26,2022-02-02T16:14:09.870Z,,,,,,,,,,,,,,,,,53,,,,,,,,,,,,,,390.1250000059663,,response,,,,99,,,,,,,Space,keypress(Space),,,,,,,,---- -- ----- -- ------ - ------- --- ----------<br>------------- ------ ------ ---- ---- ------- ----- -- ----<br>-------- ------- -- ---------- --- - --- ----- finds ----<br>---- --- --- ----- --- ---- ---- ------- ----- ---- -------<br>--- --- -- ----- -- --- ---- -- --- ---- -- ------ ------<br>--- ----- -- ----,161044.29999998212,161043.90000000596,160640.344,160644.69999998808,160653.775,161053.442,,26,finds
screen,html.Screen,2_1_0_1_27,2022-02-02T16:14:10.254Z,,,,,,,,,,,,,,,,,53,,,,,,,,,,,,,,374.55799999999,,response,,,,99,,,,,,,Space,keypress(Space),,,,,,,,---- -- ----- -- ------ - ------- --- ----------<br>------------- ------ ------ ---- ---- ------- ----- -- ----<br>-------- ------- -- ---------- --- - --- ----- ----- that<br>---- --- --- ----- --- ---- ---- ------- ----- ---- -------<br>--- --- -- ----- -- --- ---- -- --- ---- -- ------ ------<br>--- ----- -- ----,161428.40000000596,161428,161040.439,161044.5,161053.442,161440.742,,27,that
screen,html.Screen,2_1_0_1_28,2022-02-02T16:14:10.638Z,,,,,,,,,,,,,,,,,53,,,,,,,,,,,,,,371.85799999404117,,response,,,,99,,,,,,,Space,keypress(Space),,,,,,,,---- -- ----- -- ------ - ------- --- ----------<br>------------- ------ ------ ---- ---- ------- ----- -- ----<br>-------- ------- -- ---------- --- - --- ----- ----- ----<br>it's --- --- ----- --- ---- ---- ------- ----- ---- -------<br>--- --- -- ----- -- --- ---- -- --- ---- -- ------ ------<br>--- ----- -- ----,161812.90000000596,161812.59999999404,161426.755,161428.40000000596,161440.742,161842.716,,28,it's
screen,html.Screen,2_1_0_1_29,2022-02-02T16:14:11.014Z,,,,,,,,,,,,,,,,,53,,,,,,,,,,,,,,345.2840000000142,,response,,,,99,,,,,,,Space,keypress(Space),,,,,,,,---- -- ----- -- ------ - ------- --- ----------<br>------------- ------ ------ ---- ---- ------- ----- -- ----<br>-------- ------- -- ---------- --- - --- ----- ----- ----<br>---- not --- ----- --- ---- ---- ------- ----- ---- -------<br>--- --- -- ----- -- --- ---- -- --- ---- -- ------ ------<br>--- ----- -- ----,162188.29999998212,162188,161800.23,161813,161842.716,162200.959,,29,not
screen,html.Screen,2_1_0_1_30,2022-02-02T16:14:11.302Z,,,,,,,,,,,,,,,,,53,,,,,,,,,,,,,,274.9410000059579,,response,,,,99,,,,,,,Space,keypress(Space),,,,,,,,---- -- ----- -- ------ - ------- --- ----------<br>------------- ------ ------ ---- ---- ------- ----- -- ----<br>-------- ------- -- ---------- --- - --- ----- ----- ----<br>---- --- how ----- --- ---- ---- ------- ----- ---- -------<br>--- --- -- ----- -- --- ---- -- --- ---- -- ------ ------<br>--- ----- -- ----,162476.29999998212,162475.90000000596,162187.078,162188.40000000596,162200.959,162480.616,,30,how
screen,html.Screen,2_1_0_1_31,2022-02-02T16:14:11.711Z,,,,,,,,,,,,,,,,,53,,,,,,,,,,,,,,404.08399998807,,response,,,,99,,,,,,,Space,keypress(Space),,,,,,,,---- -- ----- -- ------ - ------- --- ----------<br>------------- ------ ------ ---- ---- ------- ----- -- ----<br>-------- ------- -- ---------- --- - --- ----- ----- ----<br>---- --- --- close --- ---- ---- ------- ----- ---- -------<br>--- --- -- ----- -- --- ---- -- --- ---- -- ------ ------<br>--- ----- -- ----,162885.40000000596,162884.69999998808,162467.213,162476.40000000596,162480.616,162894.587,,31,close
screen,html.Screen,2_1_0_1_32,2022-02-02T16:14:12.070Z,,,,,,,,,,,,,,,,,53,,,,,,,,,,,,,,349.41300000000047,,response,,,,99,,,,,,,Space,keypress(Space),,,,,,,,---- -- ----- -- ------ - ------- --- ----------<br>------------- ------ ------ ---- ---- ------- ----- -- ----<br>-------- ------- -- ---------- --- - --- ----- ----- ----<br>---- --- --- ----- you ---- ---- ------- ----- ---- -------<br>--- --- -- ----- -- --- ---- -- --- ---- -- ------ ------<br>--- ----- -- ----,163244.29999998212,163244,162880.603,162885.40000000596,162894.587,163254.538,,32,you
screen,html.Screen,2_1_0_1_33,2022-02-02T16:14:12.478Z,,,,,,,,,,,,,,,,,53,,,,,,,,,,,,,,397.96199999999953,,response,,,,99,,,,,,,Space,keypress(Space),,,,,,,,---- -- ----- -- ------ - ------- --- ----------<br>------------- ------ ------ ---- ---- ------- ----- -- ----<br>-------- ------- -- ---------- --- - --- ----- ----- ----<br>---- --- --- ----- --- feel ---- ------- ----- ---- -------<br>--- --- -- ----- -- --- ---- -- --- ---- -- ------ ------<br>--- ----- -- ----,163652.79999998212,163652.5,163241.242,163244.40000000596,163254.538,163654.383,,33,feel
screen,html.Screen,2_1_0_1_34,2022-02-02T16:14:12.790Z,,,,,,,,,,,,,,,,,53,,,,,,,,,,,,,,310.11699999999837,,response,,,,99,,,,,,,Space,keypress(Space),,,,,,,,---- -- ----- -- ------ - ------- --- ----------<br>------------- ------ ------ ---- ---- ------- ----- -- ----<br>-------- ------- -- ---------- --- - --- ----- ----- ----<br>---- --- --- ----- --- ---- that ------- ----- ---- -------<br>--- --- -- ----- -- --- ---- -- --- ---- -- ------ ------<br>--- ----- -- ----,163964.90000000596,163964.5,163641.248,163652.90000000596,163654.383,163975.097,,34,that
screen,html.Screen,2_1_0_1_35,2022-02-02T16:14:13.118Z,,,,,,,,,,,,,,,,,53,,,,,,,,,,,,,,317.40299999999115,,response,,,,99,,,,,,,Space,keypress(Space),,,,,,,,---- -- ----- -- ------ - ------- --- ----------<br>------------- ------ ------ ---- ---- ------- ----- -- ----<br>-------- ------- -- ---------- --- - --- ----- ----- ----<br>---- --- --- ----- --- ---- ---- matters ----- ---- -------<br>--- --- -- ----- -- --- ---- -- --- ---- -- ------ ------<br>--- ----- -- ----,164292.79999998212,164292.5,163961.526,163964.90000000596,163975.097,164294.614,,35,matters
screen,html.Screen,2_1_0_1_36,2022-02-02T16:14:13.598Z,,,,,,,,,,,,,,,,,53,,,,,,,,,,,,,,477.8859999999986,,response,,,,99,,,,,,,Space,keypress(Space),,,,,,,,"---- -- ----- -- ------ - ------- --- ----------<br>------------- ------ ------ ---- ---- ------- ----- -- ----<br>-------- ------- -- ---------- --- - --- ----- ----- ----<br>---- --- --- ----- --- ---- ---- ------- most, ---- -------<br>--- --- -- ----- -- --- ---- -- --- ---- -- ------ ------<br>--- ----- -- ----",164772.90000000596,164772.5,164281.633,164292.90000000596,164294.614,164774.783,,36,"most,"
screen,html.Screen,2_1_0_1_37,2022-02-02T16:14:14.046Z,,,,,,,,,,,,,,,,,53,,,,,,,,,,,,,,445.2170000000042,,response,,,,99,,,,,,,Space,keypress(Space),,,,,,,,---- -- ----- -- ------ - ------- --- ----------<br>------------- ------ ------ ---- ---- ------- ----- -- ----<br>-------- ------- -- ---------- --- - --- ----- ----- ----<br>---- --- --- ----- --- ---- ---- ------- ----- it's -------<br>--- --- -- ----- -- --- ---- -- --- ---- -- ------ ------<br>--- ----- -- ----,165220.19999998808,165220,164761.746,164773,164774.783,165228.267,,37,it's
screen,html.Screen,2_1_0_1_38,2022-02-02T16:14:14.326Z,,,,,,,,,,,,,,,,,53,,,,,,,,,,,,,,272.23300000000745,,response,,,,99,,,,,,,Space,keypress(Space),,,,,,,,---- -- ----- -- ------ - ------- --- ----------<br>------------- ------ ------ ---- ---- ------- ----- -- ----<br>-------- ------- -- ---------- --- - --- ----- ----- ----<br>---- --- --- ----- --- ---- ---- ------- ----- ---- whether<br>--- --- -- ----- -- --- ---- -- --- ---- -- ------ ------<br>--- ----- -- ----,165500.90000000596,165500.5,165215.261,165220.29999998212,165228.267,165508.413,,38,whether
screen,html.Screen,2_1_0_1_39,2022-02-02T16:14:14.814Z,,,,,,,,,,,,,,,,,53,,,,,,,,,,,,,,479.58699999999953,,response,,,,99,,,,,,,Space,keypress(Space),,,,,,,,---- -- ----- -- ------ - ------- --- ----------<br>------------- ------ ------ ---- ---- ------- ----- -- ----<br>-------- ------- -- ---------- --- - --- ----- ----- ----<br>---- --- --- ----- --- ---- ---- ------- ----- ---- -------<br>you --- -- ----- -- --- ---- -- --- ---- -- ------ ------<br>--- ----- -- ----,165988.40000000596,165988,165494.931,165501,165508.413,166001.916,,39,you
screen,html.Screen,2_1_0_1_40,2022-02-02T16:14:15.118Z,,,,,,,,,,,,,,,,,53,,,,,,,,,,,,,,290.08400000000256,,response,,,,99,,,,,,,Space,keypress(Space),,,,,,,,---- -- ----- -- ------ - ------- --- ----------<br>------------- ------ ------ ---- ---- ------- ----- -- ----<br>-------- ------- -- ---------- --- - --- ----- ----- ----<br>---- --- --- ----- --- ---- ---- ------- ----- ---- -------<br>--- are -- ----- -- --- ---- -- --- ---- -- ------ ------<br>--- ----- -- ----,166292.40000000596,166292,165988.389,165988.40000000596,166001.916,166295.331,,40,are
screen,html.Screen,2_1_0_1_41,2022-02-02T16:14:15.406Z,,,,,,,,,,,,,,,,,53,,,,,,,,,,,,,,284.6689999999944,,response,,,,99,,,,,,,Space,keypress(Space),,,,,,,,---- -- ----- -- ------ - ------- --- ----------<br>------------- ------ ------ ---- ---- ------- ----- -- ----<br>-------- ------- -- ---------- --- - --- ----- ----- ----<br>---- --- --- ----- --- ---- ---- ------- ----- ---- -------<br>--- --- as ----- -- --- ---- -- --- ---- -- ------ ------<br>--- ----- -- ----,166580.29999998212,166580,166282.239,166292.40000000596,166295.331,166588.774,,41,as
screen,html.Screen,2_1_0_1_42,2022-02-02T16:14:15.686Z,,,,,,,,,,,,,,,,,53,,,,,,,,,,,,,,271.2259999999951,,response,,,,99,,,,,,,Space,keypress(Space),,,,,,,,---- -- ----- -- ------ - ------- --- ----------<br>------------- ------ ------ ---- ---- ------- ----- -- ----<br>-------- ------- -- ---------- --- - --- ----- ----- ----<br>---- --- --- ----- --- ---- ---- ------- ----- ---- -------<br>--- --- -- close -- --- ---- -- --- ---- -- ------ ------<br>--- ----- -- ----,166860.29999998212,166860,166575.799,166580.40000000596,166588.774,166869.202,,42,close
screen,html.Screen,2_1_0_1_43,2022-02-02T16:14:15.966Z,,,,,,,,,,,,,,,,,53,,,,,,,,,,,,,,271.19800000597024,,response,,,,99,,,,,,,Space,keypress(Space),,,,,,,,---- -- ----- -- ------ - ------- --- ----------<br>------------- ------ ------ ---- ---- ------- ----- -- ----<br>-------- ------- -- ---------- --- - --- ----- ----- ----<br>---- --- --- ----- --- ---- ---- ------- ----- ---- -------<br>--- --- -- ----- as --- ---- -- --- ---- -- ------ ------<br>--- ----- -- ----,167140.79999998212,167140.40000000596,166855.423,166860.40000000596,166869.202,167149.463,,43,as
screen,html.Screen,2_1_0_1_44,2022-02-02T16:14:16.230Z,,,,,,,,,,,,,,,,,53,,,,,,,,,,,,,,254.53700000001118,,response,,,,99,,,,,,,Space,keypress(Space),,,,,,,,---- -- ----- -- ------ - ------- --- ----------<br>------------- ------ ------ ---- ---- ------- ----- -- ----<br>-------- ------- -- ---------- --- - --- ----- ----- ----<br>---- --- --- ----- --- ---- ---- ------- ----- ---- -------<br>--- --- -- ----- -- you ---- -- --- ---- -- ------ ------<br>--- ----- -- ----,167404.29999998212,167404,167135.886,167140.90000000596,167149.463,167415.731,,44,you
screen,html.Screen,2_1_0_1_45,2022-02-02T16:14:16.566Z,,,,,,,,,,,,,,,,,53,,,,,,,,,,,,,,324.86899999403977,,response,,,,99,,,,,,,Space,keypress(Space),,,,,,,,---- -- ----- -- ------ - ------- --- ----------<br>------------- ------ ------ ---- ---- ------- ----- -- ----<br>-------- ------- -- ---------- --- - --- ----- ----- ----<br>---- --- --- ----- --- ---- ---- ------- ----- ---- -------<br>--- --- -- ----- -- --- want -- --- ---- -- ------ ------<br>--- ----- -- ----,167740.90000000596,167740.59999999404,167402.784,167404.29999998212,167415.731,167749.213,,45,want
screen,html.Screen,2_1_0_1_46,2022-02-02T16:14:16.838Z,,,,,,,,,,,,,,,,,53,,,,,,,,,,,,,,262.7870000000112,,response,,,,99,,,,,,,Space,keypress(Space),,,,,,,,---- -- ----- -- ------ - ------- --- ----------<br>------------- ------ ------ ---- ---- ------- ----- -- ----<br>-------- ------- -- ---------- --- - --- ----- ----- ----<br>---- --- --- ----- --- ---- ---- ------- ----- ---- -------<br>--- --- -- ----- -- --- ---- to --- ---- -- ------ ------<br>--- ----- -- ----,168012.29999998212,168012,167735.754,167741,167749.213,168015.938,,46,to
screen,html.Screen,2_1_0_1_47,2022-02-02T16:14:17.174Z,,,,,,,,,,,,,,,,,53,,,,,,,,,,,,,,332.06200000000536,,response,,,,99,,,,,,,Space,keypress(Space),,,,,,,,"---- -- ----- -- ------ - ------- --- ----------<br>------------- ------ ------ ---- ---- ------- ----- -- ----<br>-------- ------- -- ---------- --- - --- ----- ----- ----<br>---- --- --- ----- --- ---- ---- ------- ----- ---- -------<br>--- --- -- ----- -- --- ---- -- be, ---- -- ------ ------<br>--- ----- -- ----",168348.29999998212,168348,168002.541,168012.40000000596,168015.938,168376.557,,47,"be,"
screen,html.Screen,2_1_0_1_48,2022-02-02T16:14:17.518Z,,,,,,,,,,,,,,,,,53,,,,,,,,,,,,,,315.84300000595977,,response,,,,99,,,,,,,Space,keypress(Space),,,,,,,,---- -- ----- -- ------ - ------- --- ----------<br>------------- ------ ------ ---- ---- ------- ----- -- ----<br>-------- ------- -- ---------- --- - --- ----- ----- ----<br>---- --- --- ----- --- ---- ---- ------- ----- ---- -------<br>--- --- -- ----- -- --- ---- -- --- even -- ------ ------<br>--- ----- -- ----,168692.69999998808,168692.40000000596,168335.95,168348.29999998212,168376.557,168696.215,,48,even
screen,html.Screen,2_1_0_1_49,2022-02-02T16:14:17.798Z,,,,,,,,,,,,,,,,,53,,,,,,,,,,,,,,276.2850000000035,,response,,,,99,,,,,,,Space,keypress(Space),,,,,,,,---- -- ----- -- ------ - ------- --- ----------<br>------------- ------ ------ ---- ---- ------- ----- -- ----<br>-------- ------- -- ---------- --- - --- ----- ----- ----<br>---- --- --- ----- --- ---- ---- ------- ----- ---- -------<br>--- --- -- ----- -- --- ---- -- --- ---- if ------ ------<br>--- ----- -- ----,168972.69999998808,168972.5,168683.238,168692.79999998212,168696.215,168976.296,,49,if
screen,html.Screen,2_1_0_1_50,2022-02-02T16:14:18.062Z,,,,,,,,,,,,,,,,,53,,,,,,,,,,,,,,260.2039999999979,,response,,,,99,,,,,,,Space,keypress(Space),,,,,,,,---- -- ----- -- ------ - ------- --- ----------<br>------------- ------ ------ ---- ---- ------- ----- -- ----<br>-------- ------- -- ---------- --- - --- ----- ----- ----<br>---- --- --- ----- --- ---- ---- ------- ----- ---- -------<br>--- --- -- ----- -- --- ---- -- --- ---- -- that's ------<br>--- ----- -- ----,169236.79999998212,169236.5,168963.338,168972.90000000596,168976.296,169243.544,,50,that's
screen,html.Screen,2_1_0_1_51,2022-02-02T16:14:18.446Z,,,,,,,,,,,,,,,,,53,,,,,,,,,,,,,,376.9560000000056,,response,,,,99,,,,,,,Space,keypress(Space),,,,,,,,---- -- ----- -- ------ - ------- --- ----------<br>------------- ------ ------ ---- ---- ------- ----- -- ----<br>-------- ------- -- ---------- --- - --- ----- ----- ----<br>---- --- --- ----- --- ---- ---- ------- ----- ---- -------<br>--- --- -- ----- -- --- ---- -- --- ---- -- ------ really<br>--- ----- -- ----,169620.79999998212,169620.5,169230.154,169236.90000000596,169243.544,169629.906,,51,really
screen,html.Screen,2_1_0_1_52,2022-02-02T16:14:18.711Z,,,,,,,,,,,,,,,,,53,,,,,,,,,,,,,,254.99400000597234,,response,,,,99,,,,,,,Space,keypress(Space),,,,,,,,---- -- ----- -- ------ - ------- --- ----------<br>------------- ------ ------ ---- ---- ------- ----- -- ----<br>-------- ------- -- ---------- --- - --- ----- ----- ----<br>---- --- --- ----- --- ---- ---- ------- ----- ---- -------<br>--- --- -- ----- -- --- ---- -- --- ---- -- ------ ------<br>not ----- -- ----,169885.19999998808,169884.90000000596,169616.862,169620.79999998212,169629.906,169896.628,,52,not
screen,html.Screen,2_1_0_1_53,2022-02-02T16:14:18.974Z,,,,,,,,,,,,,,,,,53,,,,,,,,,,,,,,251.87200000000303,,response,,,,99,,,,,,,Space,keypress(Space),,,,,,,,---- -- ----- -- ------ - ------- --- ----------<br>------------- ------ ------ ---- ---- ------- ----- -- ----<br>-------- ------- -- ---------- --- - --- ----- ----- ----<br>---- --- --- ----- --- ---- ---- ------- ----- ---- -------<br>--- --- -- ----- -- --- ---- -- --- ---- -- ------ ------<br>--- close -- ----,170148.79999998212,170148.5,169883.213,169885.29999998212,169896.628,170166.168,,53,close
screen,html.Screen,2_1_0_1_54,2022-02-02T16:14:19.270Z,,,,,,,,,,,,,,,,,53,,,,,,,,,,,,,,277.8319999999949,,response,,,,99,,,,,,,Space,keypress(Space),,,,,,,,---- -- ----- -- ------ - ------- --- ----------<br>------------- ------ ------ ---- ---- ------- ----- -- ----<br>-------- ------- -- ---------- --- - --- ----- ----- ----<br>---- --- --- ----- --- ---- ---- ------- ----- ---- -------<br>--- --- -- ----- -- --- ---- -- --- ---- -- ------ ------<br>--- ----- at ----,170444.40000000596,170444,170137.113,170148.90000000596,170166.168,170456.86,,54,at
screen,html.Screen,2_1_0_1_55,2022-02-02T16:14:19.646Z,,,,,,,,,,,,,,,,,53,,,,,,,,,,,,,,363.04000000597443,,response,,,,99,,,,,,,Space,keypress(Space),,,,,,,,---- -- ----- -- ------ - ------- --- ----------<br>------------- ------ ------ ---- ---- ------- ----- -- ----<br>-------- ------- -- ---------- --- - --- ----- ----- ----<br>---- --- --- ----- --- ---- ---- ------- ----- ---- -------<br>--- --- -- ----- -- --- ---- -- --- ---- -- ------ ------<br>--- ----- -- all.,170820.40000000596,170819.90000000596,170443.835,170444.40000000596,170456.86,170830.288,,55,all.
Item 99,flow.Loop,2_1_0_1,2022-02-02T16:14:19.646Z,,,,,,,,,,,,,,,,,,,,,,,,,,,,,,,19943.475000005972,,completion,,,,,D,,,,,,,,,,,silence,,,,,170820.5,170819.90000000596,150863.106,150864.40000000596,150876.425,170830.288,,,
Question 1,html.Screen,2_1_0_2,2022-02-02T16:14:27.392Z,,,,,,,,,,,,,,,,,,,,,,,,,,,,true,FALSE,,7735.511999982118,,response,,,,99,D,,,,,,FALSE,click #choice-2,,,,silence,,,,,178566.29999998212,178565.79999998212,170816.844,170820.59999999404,170830.288,178594.125,,,
Question 2,html.Screen,2_1_0_3,2022-02-02T16:14:32.904Z,,,,,,,,,,,,,,,,,,,,,,,,,,,,true,TRUE,,5483.674999982119,,response,,,,99,D,,,,,,TRUE,click #choice-1,,,,silence,,,,,184078.29999998212,184077.79999998212,178553.028,178566.40000000596,178594.125,184088.416,,,
Item 99,flow.Sequence,2_1_0,2022-02-02T16:14:32.904Z,,,,,,,,,,,,,,,,,,,,,,,,,,,,,,,43204.95999998212,,completion,,,,,,,,,,,,,,,,,,,,,184078.40000000596,184077.79999998212,140859.471,140862.69999998808,140872.84,184088.416,,,
Holding screen,html.Screen,2_1_1_0,2022-02-02T16:14:42.905Z,,,,,,,,,,,,,,,,,,,,,,,,,,,,,,,10003.904999999999,,timeout,,,,,,,,,,,,,,,,,,,,,194079.40000000596,194079.151,184075.06,184078.40000000596,184088.416,194092.321,,,
screen,html.Screen,2_1_1_1_0,2022-02-02T16:14:43.639Z,,,,,,,,,,,,,,,,,54,,,,,,,,,,,,,,720.3789999880828,,response,,,,100,,,,,,,Space,keypress(Space),,,,,,,,At --- ---- --- ------ ----- ------- ---- -- --- ------- --<br>------- ---------- ------ -- ----- -- ----- -- ---- ------<br>--- ----- --- --- ------ -------- ----- --- ------ ----- --<br>----- ----- ---------- --- --- ------ ------ ---- -- ------<br>------- --- ------ ----- --- ---- ------- -- ---- --- --<br>------- ------,194813,194812.69999998808,194079.151,194079.40000000596,194092.321,194826.29,,0,At
screen,html.Screen,2_1_1_1_1,2022-02-02T16:14:44.030Z,,,,,,,,,,,,,,,,,54,,,,,,,,,,,,,,377.70999999999185,,response,,,,100,,,,,,,Space,keypress(Space),,,,,,,,-- the ---- --- ------ ----- ------- ---- -- --- ------- --<br>------- ---------- ------ -- ----- -- ----- -- ---- ------<br>--- ----- --- --- ------ -------- ----- --- ------ ----- --<br>----- ----- ---------- --- --- ------ ------ ---- -- ------<br>------- --- ------ ----- --- ---- ------- -- ---- --- --<br>------- ------,195204.29999998212,195204,194812.027,194813.09999999404,194826.29,195212.456,,1,the
screen,html.Screen,2_1_1_1_2,2022-02-02T16:14:44.334Z,,,,,,,,,,,,,,,,,54,,,,,,,,,,,,,,295.9440000059549,,response,,,,100,,,,,,,Space,keypress(Space),,,,,,,,-- --- time --- ------ ----- ------- ---- -- --- ------- --<br>------- ---------- ------ -- ----- -- ----- -- ---- ------<br>--- ----- --- --- ------ -------- ----- --- ------ ----- --<br>----- ----- ---------- --- --- ------ ------ ---- -- ------<br>------- --- ------ ----- --- ---- ------- -- ---- --- --<br>------- ------,195508.69999998808,195508.40000000596,195198.96,195204.29999998212,195212.456,195519.677,,2,time
screen,html.Screen,2_1_1_1_3,2022-02-02T16:14:44.662Z,,,,,,,,,,,,,,,,,54,,,,,,,,,,,,,,316.82300000000396,,response,,,,100,,,,,,,Space,keypress(Space),,,,,,,,-- --- ---- the ------ ----- ------- ---- -- --- ------- --<br>------- ---------- ------ -- ----- -- ----- -- ---- ------<br>--- ----- --- --- ------ -------- ----- --- ------ ----- --<br>----- ----- ---------- --- --- ------ ------ ---- -- ------<br>------- --- ------ ----- --- ---- ------- -- ---- --- --<br>------- ------,195836.69999998808,195836.5,195506.237,195508.79999998212,195519.677,195839.302,,3,the
screen,html.Screen,2_1_1_1_4,2022-02-02T16:14:45.062Z,,,,,,,,,,,,,,,,,54,,,,,,,,,,,,,,396.69800000000396,,response,,,,100,,,,,,,Space,keypress(Space),,,,,,,,-- --- ---- --- French ----- ------- ---- -- --- ------- --<br>------- ---------- ------ -- ----- -- ----- -- ---- ------<br>--- ----- --- --- ------ -------- ----- --- ------ ----- --<br>----- ----- ---------- --- --- ------ ------ ---- -- ------<br>------- --- ------ ----- --- ---- ------- -- ---- --- --<br>------- ------,196236.29999998212,196236,195825.875,195836.79999998212,195839.302,196239.458,,4,French
screen,html.Screen,2_1_1_1_5,2022-02-02T16:14:45.422Z,,,,,,,,,,,,,,,,,54,,,,,,,,,,,,,,356.84199998210534,,response,,,,100,,,,,,,Space,keypress(Space),,,,,,,,-- --- ---- --- ------ crown ------- ---- -- --- ------- --<br>------- ---------- ------ -- ----- -- ----- -- ---- ------<br>--- ----- --- --- ------ -------- ----- --- ------ ----- --<br>----- ----- ---------- --- --- ------ ------ ---- -- ------<br>------- --- ------ ----- --- ---- ------- -- ---- --- --<br>------- ------,196596.59999999404,196596.29999998212,196226.461,196236.40000000596,196239.458,196599.583,,5,crown
screen,html.Screen,2_1_1_1_6,2022-02-02T16:14:45.742Z,,,,,,,,,,,,,,,,,54,,,,,,,,,,,,,,316.91699999998673,,response,,,,100,,,,,,,Space,keypress(Space),,,,,,,,-- --- ---- --- ------ ----- secured ---- -- --- ------- --<br>------- ---------- ------ -- ----- -- ----- -- ---- ------<br>--- ----- --- --- ------ -------- ----- --- ------ ----- --<br>----- ----- ---------- --- --- ------ ------ ---- -- ------<br>------- --- ------ ----- --- ---- ------- -- ---- --- --<br>------- ------,196916.69999998808,196916.5,196586.22,196596.59999999404,196599.583,196919.7,,6,secured
screen,html.Screen,2_1_1_1_7,2022-02-02T16:14:46.142Z,,,,,,,,,,,,,,,,,54,,,,,,,,,,,,,,396.79999999998836,,response,,,,100,,,,,,,Space,keypress(Space),,,,,,,,-- --- ---- --- ------ ----- ------- much -- --- ------- --<br>------- ---------- ------ -- ----- -- ----- -- ---- ------<br>--- ----- --- --- ------ -------- ----- --- ------ ----- --<br>----- ----- ---------- --- --- ------ ------ ---- -- ------<br>------- --- ------ ----- --- ---- ------- -- ---- --- --<br>------- ------,197316.79999998212,197316.5,196906.876,196916.79999998212,196919.7,197319.845,,7,much
screen,html.Screen,2_1_1_1_8,2022-02-02T16:14:46.438Z,,,,,,,,,,,,,,,,,54,,,,,,,,,,,,,,292.15499999999884,,response,,,,100,,,,,,,Space,keypress(Space),,,,,,,,-- --- ---- --- ------ ----- ------- ---- of --- ------- --<br>------- ---------- ------ -- ----- -- ----- -- ---- ------<br>--- ----- --- --- ------ -------- ----- --- ------ ----- --<br>----- ----- ---------- --- --- ------ ------ ---- -- ------<br>------- --- ------ ----- --- ---- ------- -- ---- --- --<br>------- ------,197612.29999998212,197612,197306.358,197316.90000000596,197319.845,197642.395,,8,of
screen,html.Screen,2_1_1_1_9,2022-02-02T16:14:46.822Z,,,,,,,,,,,,,,,,,54,,,,,,,,,,,,,,354.1050000000105,,response,,,,100,,,,,,,Space,keypress(Space),,,,,,,,-- --- ---- --- ------ ----- ------- ---- -- its ------- --<br>------- ---------- ------ -- ----- -- ----- -- ---- ------<br>--- ----- --- --- ------ -------- ----- --- ------ ----- --<br>----- ----- ---------- --- --- ------ ------ ---- -- ------<br>------- --- ------ ----- --- ---- ------- -- ---- --- --<br>------- ------,197996.90000000596,197996.5,197599.949,197612.40000000596,197642.395,198000.088,,9,its
screen,html.Screen,2_1_1_1_10,2022-02-02T16:14:47.182Z,,,,,,,,,,,,,,,,,54,,,,,,,,,,,,,,356.4120000000112,,response,,,,100,,,,,,,Space,keypress(Space),,,,,,,,-- --- ---- --- ------ ----- ------- ---- -- --- revenue --<br>------- ---------- ------ -- ----- -- ----- -- ---- ------<br>--- ----- --- --- ------ -------- ----- --- ------ ----- --<br>----- ----- ---------- --- --- ------ ------ ---- -- ------<br>------- --- ------ ----- --- ---- ------- -- ---- --- --<br>------- ------,198356.79999998212,198356.5,197986.636,197996.90000000596,198000.088,198360.241,,10,revenue
screen,html.Screen,2_1_1_1_11,2022-02-02T16:14:47.526Z,,,,,,,,,,,,,,,,,54,,,,,,,,,,,,,,340.1590000059514,,response,,,,100,,,,,,,Space,keypress(Space),,,,,,,,-- --- ---- --- ------ ----- ------- ---- -- --- ------- by<br>------- ---------- ------ -- ----- -- ----- -- ---- ------<br>--- ----- --- --- ------ -------- ----- --- ------ ----- --<br>----- ----- ---------- --- --- ------ ------ ---- -- ------<br>------- --- ------ ----- --- ---- ------- -- ---- --- --<br>------- ------,198700.79999998212,198700.40000000596,198346.765,198356.90000000596,198360.241,198707.05,,11,by
screen,html.Screen,2_1_1_1_12,2022-02-02T16:14:47.894Z,,,,,,,,,,,,,,,,,54,,,,,,,,,,,,,,360.95000000001164,,response,,,,100,,,,,,,Space,keypress(Space),,,,,,,,-- --- ---- --- ------ ----- ------- ---- -- --- ------- --<br>issuing ---------- ------ -- ----- -- ----- -- ---- ------<br>--- ----- --- --- ------ -------- ----- --- ------ ----- --<br>----- ----- ---------- --- --- ------ ------ ---- -- ------<br>------- --- ------ ----- --- ---- ------- -- ---- --- --<br>------- ------,199068.29999998212,199068,198693.557,198700.90000000596,198707.05,199080.514,,12,issuing
screen,html.Screen,2_1_1_1_13,2022-02-02T16:14:48.318Z,,,,,,,,,,,,,,,,,54,,,,,,,,,,,,,,411.8860000059649,,response,,,,100,,,,,,,Space,keypress(Space),,,,,,,,-- --- ---- --- ------ ----- ------- ---- -- --- ------- --<br>------- government ------ -- ----- -- ----- -- ---- ------<br>--- ----- --- --- ------ -------- ----- --- ------ ----- --<br>----- ----- ---------- --- --- ------ ------ ---- -- ------<br>------- --- ------ ----- --- ---- ------- -- ---- --- --<br>------- ------,199492.79999998212,199492.40000000596,199067.001,199068.40000000596,199080.514,199509.377,,13,government
screen,html.Screen,2_1_1_1_14,2022-02-02T16:14:49.030Z,,,,,,,,,,,,,,,,,54,,,,,,,,,,,,,,695.1229999999923,,response,,,,100,,,,,,,Space,keypress(Space),,,,,,,,-- --- ---- --- ------ ----- ------- ---- -- --- ------- --<br>------- ---------- bonds. -- ----- -- ----- -- ---- ------<br>--- ----- --- --- ------ -------- ----- --- ------ ----- --<br>----- ----- ---------- --- --- ------ ------ ---- -- ------<br>------- --- ------ ----- --- ---- ------- -- ---- --- --<br>------- ------,200204.79999998212,200204.5,199480.823,199492.90000000596,199509.377,200214.713,,14,bonds.
screen,html.Screen,2_1_1_1_15,2022-02-02T16:14:49.462Z,,,,,,,,,,,,,,,,,54,,,,,,,,,,,,,,421.48699998809025,,response,,,,100,,,,,,,Space,keypress(Space),,,,,,,,-- --- ---- --- ------ ----- ------- ---- -- --- ------- --<br>------- ---------- ------ In ----- -- ----- -- ---- ------<br>--- ----- --- --- ------ -------- ----- --- ------ ----- --<br>----- ----- ---------- --- --- ------ ------ ---- -- ------<br>------- --- ------ ----- --- ---- ------- -- ---- --- --<br>------- ------,200636.5,200636.19999998808,200201.102,200204.90000000596,200214.713,200641.045,,15,In
screen,html.Screen,2_1_1_1_16,2022-02-02T16:14:49.742Z,,,,,,,,,,,,,,,,,54,,,,,,,,,,,,,,275.35500000594766,,response,,,,100,,,,,,,Space,keypress(Space),,,,,,,,"-- --- ---- --- ------ ----- ------- ---- -- --- ------- --<br>------- ---------- ------ -- 1727, -- ----- -- ---- ------<br>--- ----- --- --- ------ -------- ----- --- ------ ----- --<br>----- ----- ---------- --- --- ------ ------ ---- -- ------<br>------- --- ------ ----- --- ---- ------- -- ---- --- --<br>------- ------",200916.69999998808,200916.40000000596,200627.933,200636.59999999404,200641.045,200921.526,,16,"1727,"
screen,html.Screen,2_1_1_1_17,2022-02-02T16:14:50.142Z,,,,,,,,,,,,,,,,,54,,,,,,,,,,,,,,394.6739999880665,,response,,,,100,,,,,,,Space,keypress(Space),,,,,,,,-- --- ---- --- ------ ----- ------- ---- -- --- ------- --<br>------- ---------- ------ -- ----- in ----- -- ---- ------<br>--- ----- --- --- ------ -------- ----- --- ------ ----- --<br>----- ----- ---------- --- --- ------ ------ ---- -- ------<br>------- --- ------ ----- --- ---- ------- -- ---- --- --<br>------- ------,201316.40000000596,201316.19999998808,200907.726,200916.79999998212,200921.526,201321.294,,17,in
screen,html.Screen,2_1_1_1_18,2022-02-02T16:14:50.526Z,,,,,,,,,,,,,,,,,54,,,,,,,,,,,,,,379.2060000000056,,response,,,,100,,,,,,,Space,keypress(Space),,,,,,,,-- --- ---- --- ------ ----- ------- ---- -- --- ------- --<br>------- ---------- ------ -- ----- -- order -- ---- ------<br>--- ----- --- --- ------ -------- ----- --- ------ ----- --<br>----- ----- ---------- --- --- ------ ------ ---- -- ------<br>------- --- ------ ----- --- ---- ------- -- ---- --- --<br>------- ------,201700.79999998212,201700.5,201307.795,201316.5,201321.294,201708.15,,18,order
screen,html.Screen,2_1_1_1_19,2022-02-02T16:14:51.135Z,,,,,,,,,,,,,,,,,54,,,,,,,,,,,,,,600.6499999821244,,response,,,,100,,,,,,,Space,keypress(Space),,,,,,,,-- --- ---- --- ------ ----- ------- ---- -- --- ------- --<br>------- ---------- ------ -- ----- -- ----- to ---- ------<br>--- ----- --- --- ------ -------- ----- --- ------ ----- --<br>----- ----- ---------- --- --- ------ ------ ---- -- ------<br>------- --- ------ ----- --- ---- ------- -- ---- --- --<br>------- ------,202309.19999998808,202308.79999998212,201694.636,201700.90000000596,201708.15,202321.676,,19,to
screen,html.Screen,2_1_1_1_20,2022-02-02T16:14:51.446Z,,,,,,,,,,,,,,,,,54,,,,,,,,,,,,,,298.32399999999325,,response,,,,100,,,,,,,Space,keypress(Space),,,,,,,,-- --- ---- --- ------ ----- ------- ---- -- --- ------- --<br>------- ---------- ------ -- ----- -- ----- -- save ------<br>--- ----- --- --- ------ -------- ----- --- ------ ----- --<br>----- ----- ---------- --- --- ------ ------ ---- -- ------<br>------- --- ------ ----- --- ---- ------- -- ---- --- --<br>------- ------,202620.29999998212,202620,202308.101,202309.19999998808,202321.676,202628.427,,20,save
screen,html.Screen,2_1_1_1_21,2022-02-02T16:14:51.758Z,,,,,,,,,,,,,,,,,54,,,,,,,,,,,,,,303.9730000059644,,response,,,,100,,,,,,,Space,keypress(Space),,,,,,,,"-- --- ---- --- ------ ----- ------- ---- -- --- ------- --<br>------- ---------- ------ -- ----- -- ----- -- ---- money,<br>--- ----- --- --- ------ -------- ----- --- ------ ----- --<br>----- ----- ---------- --- --- ------ ------ ---- -- ------<br>------- --- ------ ----- --- ---- ------- -- ---- --- --<br>------- ------",202932.79999998212,202932.40000000596,202614.998,202620.29999998212,202628.427,202935.196,,21,"money,"
screen,html.Screen,2_1_1_1_22,2022-02-02T16:14:52.110Z,,,,,,,,,,,,,,,,,54,,,,,,,,,,,,,,349.2040000059642,,response,,,,100,,,,,,,Space,keypress(Space),,,,,,,,-- --- ---- --- ------ ----- ------- ---- -- --- ------- --<br>------- ---------- ------ -- ----- -- ----- -- ---- ------<br>the ----- --- --- ------ -------- ----- --- ------ ----- --<br>----- ----- ---------- --- --- ------ ------ ---- -- ------<br>------- --- ------ ----- --- ---- ------- -- ---- --- --<br>------- ------,203284.69999998808,203284.40000000596,202921.737,202932.90000000596,202935.196,203295.82,,22,the
screen,html.Screen,2_1_1_1_23,2022-02-02T16:14:52.350Z,,,,,,,,,,,,,,,,,54,,,,,,,,,,,,,,228.58000000595348,,response,,,,100,,,,,,,Space,keypress(Space),,,,,,,,-- --- ---- --- ------ ----- ------- ---- -- --- ------- --<br>------- ---------- ------ -- ----- -- ----- -- ---- ------<br>--- state --- --- ------ -------- ----- --- ------ ----- --<br>----- ----- ---------- --- --- ------ ------ ---- -- ------<br>------- --- ------ ----- --- ---- ------- -- ---- --- --<br>------- ------,203524.79999998212,203524.40000000596,203282.354,203284.69999998808,203295.82,203535.674,,23,state
screen,html.Screen,2_1_1_1_24,2022-02-02T16:14:52.646Z,,,,,,,,,,,,,,,,,54,,,,,,,,,,,,,,284.82600000000093,,response,,,,100,,,,,,,Space,keypress(Space),,,,,,,,-- --- ---- --- ------ ----- ------- ---- -- --- ------- --<br>------- ---------- ------ -- ----- -- ----- -- ---- ------<br>--- ----- cut --- ------ -------- ----- --- ------ ----- --<br>----- ----- ---------- --- --- ------ ------ ---- -- ------<br>------- --- ------ ----- --- ---- ------- -- ---- --- --<br>------- ------,203820.79999998212,203820.5,203522.374,203524.79999998212,203535.674,203828.884,,24,cut
screen,html.Screen,2_1_1_1_25,2022-02-02T16:14:53.022Z,,,,,,,,,,,,,,,,,54,,,,,,,,,,,,,,367.6160000000091,,response,,,,100,,,,,,,Space,keypress(Space),,,,,,,,-- --- ---- --- ------ ----- ------- ---- -- --- ------- --<br>------- ---------- ------ -- ----- -- ----- -- ---- ------<br>--- ----- --- the ------ -------- ----- --- ------ ----- --<br>----- ----- ---------- --- --- ------ ------ ---- -- ------<br>------- --- ------ ----- --- ---- ------- -- ---- --- --<br>------- ------,204196.79999998212,204196.5,203815.438,203820.90000000596,203828.884,204202.362,,25,the
screen,html.Screen,2_1_1_1_26,2022-02-02T16:14:53.326Z,,,,,,,,,,,,,,,,,54,,,,,,,,,,,,,,297.6380000000063,,response,,,,100,,,,,,,Space,keypress(Space),,,,,,,,-- --- ---- --- ------ ----- ------- ---- -- --- ------- --<br>------- ---------- ------ -- ----- -- ----- -- ---- ------<br>--- ----- --- --- bonds' -------- ----- --- ------ ----- --<br>----- ----- ---------- --- --- ------ ------ ---- -- ------<br>------- --- ------ ----- --- ---- ------- -- ---- --- --<br>------- ------,204500.40000000596,204500,204189.379,204196.90000000596,204202.362,204509.139,,26,bonds'
screen,html.Screen,2_1_1_1_27,2022-02-02T16:14:53.718Z,,,,,,,,,,,,,,,,,54,,,,,,,,,,,,,,383.3610000000044,,response,,,,100,,,,,,,Space,keypress(Space),,,,,,,,-- --- ---- --- ------ ----- ------- ---- -- --- ------- --<br>------- ---------- ------ -- ----- -- ----- -- ---- ------<br>--- ----- --- --- ------ interest ----- --- ------ ----- --<br>----- ----- ---------- --- --- ------ ------ ---- -- ------<br>------- --- ------ ----- --- ---- ------- -- ---- --- --<br>------- ------,204892.90000000596,204892.5,204495.677,204500.40000000596,204509.139,204895.915,,27,interest
screen,html.Screen,2_1_1_1_28,2022-02-02T16:14:54.006Z,,,,,,,,,,,,,,,,,54,,,,,,,,,,,,,,284.58499999999185,,response,,,,100,,,,,,,Space,keypress(Space),,,,,,,,-- --- ---- --- ------ ----- ------- ---- -- --- ------- --<br>------- ---------- ------ -- ----- -- ----- -- ---- ------<br>--- ----- --- --- ------ -------- rate. --- ------ ----- --<br>----- ----- ---------- --- --- ------ ------ ---- -- ------<br>------- --- ------ ----- --- ---- ------- -- ---- --- --<br>------- ------,205180.79999998212,205180.5,204882.786,204893,204895.915,205189.356,,28,rate.
screen,html.Screen,2_1_1_1_29,2022-02-02T16:14:54.446Z,,,,,,,,,,,,,,,,,54,,,,,,,,,,,,,,431.14400000000023,,response,,,,100,,,,,,,Space,keypress(Space),,,,,,,,-- --- ---- --- ------ ----- ------- ---- -- --- ------- --<br>------- ---------- ------ -- ----- -- ----- -- ---- ------<br>--- ----- --- --- ------ -------- ----- The ------ ----- --<br>----- ----- ---------- --- --- ------ ------ ---- -- ------<br>------- --- ------ ----- --- ---- ------- -- ---- --- --<br>------- ------,205620.79999998212,205620.5,205175.922,205180.79999998212,205189.356,205629.994,,29,The
screen,html.Screen,2_1_1_1_30,2022-02-02T16:14:54.758Z,,,,,,,,,,,,,,,,,54,,,,,,,,,,,,,,302.50599999999395,,response,,,,100,,,,,,,Space,keypress(Space),,,,,,,,-- --- ---- --- ------ ----- ------- ---- -- --- ------- --<br>------- ---------- ------ -- ----- -- ----- -- ---- ------<br>--- ----- --- --- ------ -------- ----- --- market ----- --<br>----- ----- ---------- --- --- ------ ------ ---- -- ------<br>------- --- ------ ----- --- ---- ------- -- ---- --- --<br>------- ------,205932.79999998212,205932.5,205616.034,205620.79999998212,205629.994,205936.31,,30,market
screen,html.Screen,2_1_1_1_31,2022-02-02T16:14:55.070Z,,,,,,,,,,,,,,,,,54,,,,,,,,,,,,,,307.6900000000023,,response,,,,100,,,,,,,Space,keypress(Space),,,,,,,,-- --- ---- --- ------ ----- ------- ---- -- --- ------- --<br>------- ---------- ------ -- ----- -- ----- -- ---- ------<br>--- ----- --- --- ------ -------- ----- --- ------ value --<br>----- ----- ---------- --- --- ------ ------ ---- -- ------<br>------- --- ------ ----- --- ---- ------- -- ---- --- --<br>------- ------,206244.29999998212,206244,205922.895,205932.90000000596,205936.31,206256.406,,31,value
screen,html.Screen,2_1_1_1_32,2022-02-02T16:14:55.414Z,,,,,,,,,,,,,,,,,54,,,,,,,,,,,,,,331.5940000000119,,response,,,,100,,,,,,,Space,keypress(Space),,,,,,,,-- --- ---- --- ------ ----- ------- ---- -- --- ------- --<br>------- ---------- ------ -- ----- -- ----- -- ---- ------<br>--- ----- --- --- ------ -------- ----- --- ------ ----- of<br>----- ----- ---------- --- --- ------ ------ ---- -- ------<br>------- --- ------ ----- --- ---- ------- -- ---- --- --<br>------- ------,206588.29999998212,206588,206243.329,206244.29999998212,206256.406,206589.849,,32,of
screen,html.Screen,2_1_1_1_33,2022-02-02T16:14:55.774Z,,,,,,,,,,,,,,,,,54,,,,,,,,,,,,,,358.1510000000126,,response,,,,100,,,,,,,Space,keypress(Space),,,,,,,,-- --- ---- --- ------ ----- ------- ---- -- --- ------- --<br>------- ---------- ------ -- ----- -- ----- -- ---- ------<br>--- ----- --- --- ------ -------- ----- --- ------ ----- --<br>these ----- ---------- --- --- ------ ------ ---- -- ------<br>------- --- ------ ----- --- ---- ------- -- ---- --- --<br>------- ------,206948.29999998212,206948,206576.752,206588.40000000596,206589.849,206949.981,,33,these
screen,html.Screen,2_1_1_1_34,2022-02-02T16:14:56.022Z,,,,,,,,,,,,,,,,,54,,,,,,,,,,,,,,246.51900000000023,,response,,,,100,,,,,,,Space,keypress(Space),,,,,,,,-- --- ---- --- ------ ----- ------- ---- -- --- ------- --<br>------- ---------- ------ -- ----- -- ----- -- ---- ------<br>--- ----- --- --- ------ -------- ----- --- ------ ----- --<br>----- bonds ---------- --- --- ------ ------ ---- -- ------<br>------- --- ------ ----- --- ---- ------- -- ---- --- --<br>------- ------,207196.79999998212,207196.5,206936.597,206948.29999998212,206949.981,207203.898,,34,bonds
screen,html.Screen,2_1_1_1_35,2022-02-02T16:14:56.334Z,,,,,,,,,,,,,,,,,54,,,,,,,,,,,,,,304.70199999405304,,response,,,,100,,,,,,,Space,keypress(Space),,,,,,,,"-- --- ---- --- ------ ----- ------- ---- -- --- ------- --<br>------- ---------- ------ -- ----- -- ----- -- ---- ------<br>--- ----- --- --- ------ -------- ----- --- ------ ----- --<br>----- ----- plummeted, --- --- ------ ------ ---- -- ------<br>------- --- ------ ----- --- ---- ------- -- ---- --- --<br>------- ------",207508.90000000596,207508.59999999404,207190.014,207196.90000000596,207203.898,207510.187,,35,"plummeted,"
screen,html.Screen,2_1_1_1_36,2022-02-02T16:14:56.798Z,,,,,,,,,,,,,,,,,54,,,,,,,,,,,,,,462.31299999999464,,response,,,,100,,,,,,,Space,keypress(Space),,,,,,,,-- --- ---- --- ------ ----- ------- ---- -- --- ------- --<br>------- ---------- ------ -- ----- -- ----- -- ---- ------<br>--- ----- --- --- ------ -------- ----- --- ------ ----- --<br>----- ----- ---------- and --- ------ ------ ---- -- ------<br>------- --- ------ ----- --- ---- ------- -- ---- --- --<br>------- ------,207972.79999998212,207972.5,207497.219,207508.90000000596,207510.187,207977.042,,36,and
screen,html.Screen,2_1_1_1_37,2022-02-02T16:14:57.118Z,,,,,,,,,,,,,,,,,54,,,,,,,,,,,,,,315.35800000597374,,response,,,,100,,,,,,,Space,keypress(Space),,,,,,,,-- --- ---- --- ------ ----- ------- ---- -- --- ------- --<br>------- ---------- ------ -- ----- -- ----- -- ---- ------<br>--- ----- --- --- ------ -------- ----- --- ------ ----- --<br>----- ----- ---------- --- the ------ ------ ---- -- ------<br>------- --- ------ ----- --- ---- ------- -- ---- --- --<br>------- ------,208292.69999998808,208292.40000000596,207963.522,207972.90000000596,207977.042,208297.151,,37,the
screen,html.Screen,2_1_1_1_38,2022-02-02T16:14:57.526Z,,,,,,,,,,,,,,,,,54,,,,,,,,,,,,,,403.3489999999874,,response,,,,100,,,,,,,Space,keypress(Space),,,,,,,,-- --- ---- --- ------ ----- ------- ---- -- --- ------- --<br>------- ---------- ------ -- ----- -- ----- -- ---- ------<br>--- ----- --- --- ------ -------- ----- --- ------ ----- --<br>----- ----- ---------- --- --- market ------ ---- -- ------<br>------- --- ------ ----- --- ---- ------- -- ---- --- --<br>------- ------,208700.79999998212,208700.5,208284.154,208292.79999998212,208297.151,208711.103,,38,market
screen,html.Screen,2_1_1_1_39,2022-02-02T16:14:57.886Z,,,,,,,,,,,,,,,,,54,,,,,,,,,,,,,,349.29700000595767,,response,,,,100,,,,,,,Space,keypress(Space),,,,,,,,-- --- ---- --- ------ ----- ------- ---- -- --- ------- --<br>------- ---------- ------ -- ----- -- ----- -- ---- ------<br>--- ----- --- --- ------ -------- ----- --- ------ ----- --<br>----- ----- ---------- --- --- ------ became ---- -- ------<br>------- --- ------ ----- --- ---- ------- -- ---- --- --<br>------- ------,209060.79999998212,209060.40000000596,208697.143,208700.90000000596,208711.103,209071.16,,39,became
screen,html.Screen,2_1_1_1_40,2022-02-02T16:14:58.190Z,,,,,,,,,,,,,,,,,54,,,,,,,,,,,,,,293.43999999403604,,response,,,,100,,,,,,,Space,keypress(Space),,,,,,,,-- --- ---- --- ------ ----- ------- ---- -- --- ------- --<br>------- ---------- ------ -- ----- -- ----- -- ---- ------<br>--- ----- --- --- ------ -------- ----- --- ------ ----- --<br>----- ----- ---------- --- --- ------ ------ wary -- ------<br>------- --- ------ ----- --- ---- ------- -- ---- --- --<br>------- ------,209364.79999998212,209364.59999999404,209057.636,209060.90000000596,209071.16,209377.559,,40,wary
screen,html.Screen,2_1_1_1_41,2022-02-02T16:14:58.526Z,,,,,,,,,,,,,,,,,54,,,,,,,,,,,,,,322.4409999999916,,response,,,,100,,,,,,,Space,keypress(Space),,,,,,,,-- --- ---- --- ------ ----- ------- ---- -- --- ------- --<br>------- ---------- ------ -- ----- -- ----- -- ---- ------<br>--- ----- --- --- ------ -------- ----- --- ------ ----- --<br>----- ----- ---------- --- --- ------ ------ ---- of ------<br>------- --- ------ ----- --- ---- ------- -- ---- --- --<br>------- ------,209700.29999998212,209700,209364.102,209364.90000000596,209377.559,209711.463,,41,of
screen,html.Screen,2_1_1_1_42,2022-02-02T16:14:58.918Z,,,,,,,,,,,,,,,,,54,,,,,,,,,,,,,,380.93700000597164,,response,,,,100,,,,,,,Space,keypress(Space),,,,,,,,-- --- ---- --- ------ ----- ------- ---- -- --- ------- --<br>------- ---------- ------ -- ----- -- ----- -- ---- ------<br>--- ----- --- --- ------ -------- ----- --- ------ ----- --<br>----- ----- ---------- --- --- ------ ------ ---- -- French<br>------- --- ------ ----- --- ---- ------- -- ---- --- --<br>------- ------,210092.79999998212,210092.40000000596,209698.085,209700.40000000596,209711.463,210097.795,,42,French
screen,html.Screen,2_1_1_1_43,2022-02-02T16:14:59.278Z,,,,,,,,,,,,,,,,,54,,,,,,,,,,,,,,354.7049999999872,,response,,,,100,,,,,,,Space,keypress(Space),,,,,,,,-- --- ---- --- ------ ----- ------- ---- -- --- ------- --<br>------- ---------- ------ -- ----- -- ----- -- ---- ------<br>--- ----- --- --- ------ -------- ----- --- ------ ----- --<br>----- ----- ---------- --- --- ------ ------ ---- -- ------<br>credit. --- ------ ----- --- ---- ------- -- ---- --- --<br>------- ------,210452.79999998212,210452.5,210084.342,210092.79999998212,210097.795,210457.939,,43,credit.
screen,html.Screen,2_1_1_1_44,2022-02-02T16:14:59.654Z,,,,,,,,,,,,,,,,,54,,,,,,,,,,,,,,370.1609999940265,,response,,,,100,,,,,,,Space,keypress(Space),,,,,,,,-- --- ---- --- ------ ----- ------- ---- -- --- ------- --<br>------- ---------- ------ -- ----- -- ----- -- ---- ------<br>--- ----- --- --- ------ -------- ----- --- ------ ----- --<br>----- ----- ---------- --- --- ------ ------ ---- -- ------<br>------- The ------ ----- --- ---- ------- -- ---- --- --<br>------- ------,210828.29999998212,210828.09999999404,210444.805,210452.79999998212,210457.939,210831.373,,44,The
screen,html.Screen,2_1_1_1_45,2022-02-02T16:14:59.950Z,,,,,,,,,,,,,,,,,54,,,,,,,,,,,,,,293.02700000596815,,response,,,,100,,,,,,,Space,keypress(Space),,,,,,,,-- --- ---- --- ------ ----- ------- ---- -- --- ------- --<br>------- ---------- ------ -- ----- -- ----- -- ---- ------<br>--- ----- --- --- ------ -------- ----- --- ------ ----- --<br>----- ----- ---------- --- --- ------ ------ ---- -- ------<br>------- --- French ----- --- ---- ------- -- ---- --- --<br>------- ------,211124.69999998808,211124.40000000596,210818.399,210828.40000000596,210831.373,211138.193,,45,French
screen,html.Screen,2_1_1_1_46,2022-02-02T16:15:00.286Z,,,,,,,,,,,,,,,,,54,,,,,,,,,,,,,,321.8070000000007,,response,,,,100,,,,,,,Space,keypress(Space),,,,,,,,-- --- ---- --- ------ ----- ------- ---- -- --- ------- --<br>------- ---------- ------ -- ----- -- ----- -- ---- ------<br>--- ----- --- --- ------ -------- ----- --- ------ ----- --<br>----- ----- ---------- --- --- ------ ------ ---- -- ------<br>------- --- ------ state --- ---- ------- -- ---- --- --<br>------- ------,211460.29999998212,211460,211111.866,211124.79999998212,211138.193,211472.102,,46,state
screen,html.Screen,2_1_1_1_47,2022-02-02T16:15:00.590Z,,,,,,,,,,,,,,,,,54,,,,,,,,,,,,,,291.8979999999865,,response,,,,100,,,,,,,Space,keypress(Space),,,,,,,,-- --- ---- --- ------ ----- ------- ---- -- --- ------- --<br>------- ---------- ------ -- ----- -- ----- -- ---- ------<br>--- ----- --- --- ------ -------- ----- --- ------ ----- --<br>----- ----- ---------- --- --- ------ ------ ---- -- ------<br>------- --- ------ ----- was ---- ------- -- ---- --- --<br>------- ------,211764.29999998212,211764,211458.655,211460.29999998212,211472.102,211780.374,,47,was
screen,html.Screen,2_1_1_1_48,2022-02-02T16:15:01.102Z,,,,,,,,,,,,,,,,,54,,,,,,,,,,,,,,496.1259999999893,,response,,,,100,,,,,,,Space,keypress(Space),,,,,,,,-- --- ---- --- ------ ----- ------- ---- -- --- ------- --<br>------- ---------- ------ -- ----- -- ----- -- ---- ------<br>--- ----- --- --- ------ -------- ----- --- ------ ----- --<br>----- ----- ---------- --- --- ------ ------ ---- -- ------<br>------- --- ------ ----- --- left ------- -- ---- --- --<br>------- ------,212276.79999998212,212276.5,211751.649,211764.40000000596,211780.374,212285.275,,48,left
screen,html.Screen,2_1_1_1_49,2022-02-02T16:15:01.414Z,,,,,,,,,,,,,,,,,54,,,,,,,,,,,,,,303.2250000000058,,response,,,,100,,,,,,,Space,keypress(Space),,,,,,,,-- --- ---- --- ------ ----- ------- ---- -- --- ------- --<br>------- ---------- ------ -- ----- -- ----- -- ---- ------<br>--- ----- --- --- ------ -------- ----- --- ------ ----- --<br>----- ----- ---------- --- --- ------ ------ ---- -- ------<br>------- --- ------ ----- --- ---- without -- ---- --- --<br>------- ------,212588.79999998212,212588.5,212271.743,212277,212285.275,212592.023,,49,without
screen,html.Screen,2_1_1_1_50,2022-02-02T16:15:01.734Z,,,,,,,,,,,,,,,,,54,,,,,,,,,,,,,,315.87700000597397,,response,,,,100,,,,,,,Space,keypress(Space),,,,,,,,-- --- ---- --- ------ ----- ------- ---- -- --- ------- --<br>------- ---------- ------ -- ----- -- ----- -- ---- ------<br>--- ----- --- --- ------ -------- ----- --- ------ ----- --<br>----- ----- ---------- --- --- ------ ------ ---- -- ------<br>------- --- ------ ----- --- ---- ------- an ---- --- --<br>------- ------,212908.19999998808,212907.90000000596,212578.565,212588.90000000596,212592.023,212912.16,,50,an
screen,html.Screen,2_1_1_1_51,2022-02-02T16:15:02.086Z,,,,,,,,,,,,,,,,,54,,,,,,,,,,,,,,347.740000005957,,response,,,,100,,,,,,,Space,keypress(Space),,,,,,,,-- --- ---- --- ------ ----- ------- ---- -- --- ------- --<br>------- ---------- ------ -- ----- -- ----- -- ---- ------<br>--- ----- --- --- ------ -------- ----- --- ------ ----- --<br>----- ----- ---------- --- --- ------ ------ ---- -- ------<br>------- --- ------ ----- --- ---- ------- -- easy --- --<br>------- ------,213260.19999998808,213259.90000000596,212898.696,212908.29999998212,212912.16,213272.809,,51,easy
screen,html.Screen,2_1_1_1_52,2022-02-02T16:15:02.390Z,,,,,,,,,,,,,,,,,54,,,,,,,,,,,,,,291.5910000059521,,response,,,,100,,,,,,,Space,keypress(Space),,,,,,,,-- --- ---- --- ------ ----- ------- ---- -- --- ------- --<br>------- ---------- ------ -- ----- -- ----- -- ---- ------<br>--- ----- --- --- ------ -------- ----- --- ------ ----- --<br>----- ----- ---------- --- --- ------ ------ ---- -- ------<br>------- --- ------ ----- --- ---- ------- -- ---- way --<br>------- ------,213564.79999998212,213564.40000000596,213259.312,213260.29999998212,213272.809,213584.993,,52,way
screen,html.Screen,2_1_1_1_53,2022-02-02T16:15:02.734Z,,,,,,,,,,,,,,,,,54,,,,,,,,,,,,,,323.00700000001234,,response,,,,100,,,,,,,Space,keypress(Space),,,,,,,,-- --- ---- --- ------ ----- ------- ---- -- --- ------- --<br>------- ---------- ------ -- ----- -- ----- -- ---- ------<br>--- ----- --- --- ------ -------- ----- --- ------ ----- --<br>----- ----- ---------- --- --- ------ ------ ---- -- ------<br>------- --- ------ ----- --- ---- ------- -- ---- --- of<br>------- ------,213908.29999998212,213908,213552.28,213564.79999998212,213584.993,213912.492,,53,of
screen,html.Screen,2_1_1_1_54,2022-02-02T16:15:03.022Z,,,,,,,,,,,,,,,,,54,,,,,,,,,,,,,,283.7079999880807,,response,,,,100,,,,,,,Space,keypress(Space),,,,,,,,-- --- ---- --- ------ ----- ------- ---- -- --- ------- --<br>------- ---------- ------ -- ----- -- ----- -- ---- ------<br>--- ----- --- --- ------ -------- ----- --- ------ ----- --<br>----- ----- ---------- --- --- ------ ------ ---- -- ------<br>------- --- ------ ----- --- ---- ------- -- ---- --- --<br>raising ------,214196.5,214196.19999998808,213899.525,213908.29999998212,213912.492,214206.303,,54,raising
screen,html.Screen,2_1_1_1_55,2022-02-02T16:15:03.454Z,,,,,,,,,,,,,,,,,54,,,,,,,,,,,,,,421.69699999998556,,response,,,,100,,,,,,,Space,keypress(Space),,,,,,,,-- --- ---- --- ------ ----- ------- ---- -- --- ------- --<br>------- ---------- ------ -- ----- -- ----- -- ---- ------<br>--- ----- --- --- ------ -------- ----- --- ------ ----- --<br>----- ----- ---------- --- --- ------ ------ ---- -- ------<br>------- --- ------ ----- --- ---- ------- -- ---- --- --<br>------- money.,214628.29999998212,214628,214192.966,214196.69999998808,214206.303,214632.742,,55,money.
Item 100,flow.Loop,2_1_1_1,2022-02-02T16:15:03.454Z,,,,,,,,,,,,,,,,,,,,,,,,,,,,,,,20535.679000000004,,completion,,,,,D,,,,,,,,,,,silence,,,,,214628.40000000596,214628,194079.151,194079.40000000596,194092.321,214632.742,,,
Question 1,html.Screen,2_1_1_2,2022-02-02T16:15:06.328Z,,,,,,,,,,,,,,,,,,,,,,,,,,,,true,TRUE,,2869.4579999880807,,response,,,,100,D,,,,,,TRUE,click #choice-1,,,,silence,,,,,217502.69999998808,217502.19999998808,214619.298,214628.5,214632.742,217514.296,,,
Question 2,html.Screen,2_1_1_3,2022-02-02T16:15:13.688Z,,,,,,,,,,,,,,,,,,,,,,,,,,,,true,FALSE,,7347.5039999821165,,response,,,,100,D,,,,,,FALSE,click #choice-2,,,,silence,,,,,224862.19999998808,224861.79999998212,217500.903,217502.79999998212,217514.296,224877.193,,,
Item 100,flow.Sequence,2_1_1,2022-02-02T16:15:13.688Z,,,,,,,,,,,,,,,,,,,,,,,,,,,,,,,40773.38399998212,,completion,,,,,,,,,,,,,,,,,,,,,224862.40000000596,224861.79999998212,184075.06,184078.40000000596,184088.416,224877.193,,,
End of Practice,html.Page,2_1_2,2022-02-02T16:15:20.464Z,,,,,,,,,,,,,,,,,,,,,,,,,,,,,,,6760.90699999404,,form submission,,,,,,,,,,,,,,,,,,,,,231638.29999998212,231638.09999999404,224849.729,224862.40000000596,224877.193,231652.245,,,
Practice,flow.Sequence,2_1,2022-02-02T16:15:20.464Z,,,,,,,,,,,,,,,,,,,,,,,,,,,,,,,90765.25999999404,,completion,,,,,,,,,,,,,,,,,,,,,231638.29999998212,231638.09999999404,140859.471,140862.69999998808,140872.84,231652.245,,,
Trap_instruction,html.Page,2_2_0,2022-02-02T16:15:26.048Z,,,,,,,,,,,,,,,,,,,,,,,,,,,,,,,5570.554999982123,,form submission,,,,,,,,,,,,,,,,,,,,,237223,237222.79999998212,231638.874,231638.40000000596,231652.245,237227.601,,,
trap_trial,html.Screen,2_2_1,2022-02-02T16:15:28.975Z,,,,,,,,,,,,,,,,,,,,,,,,,,,,true,1,,2922.1989999821235,,response,,,,,,,,,,,1,click #choice-1,,,,,,,,,240150.19999998808,240149.79999998212,237214.546,237223,237227.601,240161.951,,,
end of trap trial,html.Page,2_2_2,2022-02-02T16:15:30.992Z,,,,,,,,,,,,,,,,,,,,,,,,,,,,,,,2004.2489999880781,,form submission,,,,,,,,,,,,,,,,,,,,,242166.40000000596,242166.19999998808,240148.611,240150.19999998808,240161.951,242176.029,,,
Trap 1,flow.Sequence,2_2,2022-02-02T16:15:30.992Z,,,,,,,,,,,,,,,,,,,,,,,,,,,,,,,10513.954999988084,,completion,,,,,,,,,,,,,,,,,,,,,242166.5,242166.19999998808,231638.874,231638.40000000596,231652.245,242176.029,,,
Standby,html.Page,2_3_0,2022-02-02T16:15:38.992Z,,,,,,,,,,,,,,,,,,,,,,,,,,,,,,,8002.899999999994,,timeout,,,,,,,,,,,,,,,,,,,,,250166.29999998212,250166.038,242163.147,242166.5,242176.029,250178.929,,,
Holding screen,html.Screen,2_3_1_0_0,2022-02-02T16:15:45.995Z,,,,,,,,,,,,,,,,,,,,,,,,,,,,,,,7002.921000000002,,timeout,,,,,,,,,,,,,,,,,,,,,257169.59999999404,257168.104,250166.038,250166.5,250178.929,257181.85,,,
screen,html.Screen,2_3_1_0_1_0,2022-02-02T16:15:46.990Z,,,,,,,,,,,,,,,,,48,,,,,,,,,,,,,,982.2499999940337,,response,,,,10,D,,,,,,Space,keypress(Space),,,,silence,,,,As -- --- ------ ------- --------- ----------- --------<br>--------- -------- --- ------- -- ------- ---- -- ------<br>-- --- -------- -------- ---------- ---- ---- ---- ------<br>-- --------- -- ---- -- --- -- --- ------- -- - -----<br>---------- -- -- -- ---- ----- -- ------ -- --- ------<br>-------,258164.40000000596,258164.09999999404,257168.104,257169.69999998808,257181.85,258168.446,,0,As
screen,html.Screen,2_3_1_0_1_1,2022-02-02T16:15:47.318Z,,,,,,,,,,,,,,,,,48,,,,,,,,,,,,,,323.9540000059642,,response,,,,10,D,,,,,,Space,keypress(Space),,,,silence,,,,-- in --- ------ ------- --------- ----------- --------<br>--------- -------- --- ------- -- ------- ---- -- ------<br>-- --- -------- -------- ---------- ---- ---- ---- ------<br>-- --------- -- ---- -- --- -- --- ------- -- - -----<br>---------- -- -- -- ---- ----- -- ------ -- --- ------<br>-------,258492.90000000596,258492.40000000596,258154.763,258164.5,258168.446,258502.392,,1,in
screen,html.Screen,2_3_1_0_1_2,2022-02-02T16:15:48.110Z,,,,,,,,,,,,,,,,,48,,,,,,,,,,,,,,781.9079999821261,,response,,,,10,D,,,,,,Space,keypress(Space),,,,silence,,,,-- -- the ------ ------- --------- ----------- --------<br>--------- -------- --- ------- -- ------- ---- -- ------<br>-- --- -------- -------- ---------- ---- ---- ---- ------<br>-- --------- -- ---- -- --- -- --- ------- -- - -----<br>---------- -- -- -- ---- ----- -- ------ -- --- ------<br>-------,259284.59999999404,259284.29999998212,258488.888,258492.90000000596,258502.392,259288.888,,2,the
screen,html.Screen,2_3_1_0_1_3,2022-02-02T16:15:48.766Z,,,,,,,,,,,,,,,,,48,,,,,,,,,,,,,,651.6119999999937,,response,,,,10,D,,,,,,Space,keypress(Space),,,,silence,,,,-- -- --- United ------- --------- ----------- --------<br>--------- -------- --- ------- -- ------- ---- -- ------<br>-- --- -------- -------- ---------- ---- ---- ---- ------<br>-- --------- -- ---- -- --- -- --- ------- -- - -----<br>---------- -- -- -- ---- ----- -- ------ -- --- ------<br>-------,259940.69999998808,259940.5,259275.761,259284.59999999404,259288.888,259942.431,,3,United
screen,html.Screen,2_3_1_0_1_4,2022-02-02T16:15:49.134Z,,,,,,,,,,,,,,,,,48,,,,,,,,,,,,,,365.5689999999886,,response,,,,10,D,,,,,,Space,keypress(Space),,,,silence,,,,"-- -- --- ------ States, --------- ----------- --------<br>--------- -------- --- ------- -- ------- ---- -- ------<br>-- --- -------- -------- ---------- ---- ---- ---- ------<br>-- --------- -- ---- -- --- -- --- ------- -- - -----<br>---------- -- -- -- ---- ----- -- ------ -- --- ------<br>-------",260308.29999998212,260308,259929.145,259940.79999998212,259942.431,260315.923,,4,"States,"
screen,html.Screen,2_3_1_0_1_5,2022-02-02T16:15:49.558Z,,,,,,,,,,,,,,,,,48,,,,,,,,,,,,,,416.5769999999902,,response,,,,10,D,,,,,,Space,keypress(Space),,,,silence,,,,-- -- --- ------ ------- Colombian ----------- --------<br>--------- -------- --- ------- -- ------- ---- -- ------<br>-- --- -------- -------- ---------- ---- ---- ---- ------<br>-- --------- -- ---- -- --- -- --- ------- -- - -----<br>---------- -- -- -- ---- ----- -- ------ -- --- ------<br>-------,260732.79999998212,260732.5,260302.431,260308.29999998212,260315.923,260743.024,,5,Colombian
screen,html.Screen,2_3_1_0_1_6,2022-02-02T16:15:49.918Z,,,,,,,,,,,,,,,,,48,,,,,,,,,,,,,,349.4759999999951,,response,,,,10,D,,,,,,Space,keypress(Space),,,,silence,,,,-- -- --- ------ ------- --------- legislation --------<br>--------- -------- --- ------- -- ------- ---- -- ------<br>-- --- -------- -------- ---------- ---- ---- ---- ------<br>-- --------- -- ---- -- --- -- --- ------- -- - -----<br>---------- -- -- -- ---- ----- -- ------ -- --- ------<br>-------,261092.79999998212,261092.5,260729.236,260732.90000000596,260743.024,261103.242,,6,legislation
screen,html.Screen,2_3_1_0_1_7,2022-02-02T16:15:50.350Z,,,,,,,,,,,,,,,,,48,,,,,,,,,,,,,,421.25800000000163,,response,,,,10,D,,,,,,Space,keypress(Space),,,,silence,,,,-- -- --- ------ ------- --------- ----------- requires<br>--------- -------- --- ------- -- ------- ---- -- ------<br>-- --- -------- -------- ---------- ---- ---- ---- ------<br>-- --------- -- ---- -- --- -- --- ------- -- - -----<br>---------- -- -- -- ---- ----- -- ------ -- --- ------<br>-------,261524.79999998212,261524.5,261089.861,261092.90000000596,261103.242,261530.047,,7,requires
screen,html.Screen,2_3_1_0_1_8,2022-02-02T16:15:50.702Z,,,,,,,,,,,,,,,,,48,,,,,,,,,,,,,,345.9530000000086,,response,,,,10,D,,,,,,Space,keypress(Space),,,,silence,,,,-- -- --- ------ ------- --------- ----------- --------<br>travelers -------- --- ------- -- ------- ---- -- ------<br>-- --- -------- -------- ---------- ---- ---- ---- ------<br>-- --------- -- ---- -- --- -- --- ------- -- - -----<br>---------- -- -- -- ---- ----- -- ------ -- --- ------<br>-------,261876.29999998212,261876,261516.179,261524.90000000596,261530.047,261890.3,,8,travelers
screen,html.Screen,2_3_1_0_1_9,2022-02-02T16:15:51.086Z,,,,,,,,,,,,,,,,,48,,,,,,,,,,,,,,369.70000000001164,,response,,,,10,D,,,,,,Space,keypress(Space),,,,silence,,,,-- -- --- ------ ------- --------- ----------- --------<br>--------- entering --- ------- -- ------- ---- -- ------<br>-- --- -------- -------- ---------- ---- ---- ---- ------<br>-- --------- -- ---- -- --- -- --- ------- -- - -----<br>---------- -- -- -- ---- ----- -- ------ -- --- ------<br>-------,262260.2999999821,262260,261863.486,261876.29999998212,261890.3,262263.257,,9,entering
screen,html.Screen,2_3_1_0_1_10,2022-02-02T16:15:51.462Z,,,,,,,,,,,,,,,,,48,,,,,,,,,,,,,,372.74300000001676,,response,,,,10,D,,,,,,Space,keypress(Space),,,,silence,,,,-- -- --- ------ ------- --------- ----------- --------<br>--------- -------- the ------- -- ------- ---- -- ------<br>-- --- -------- -------- ---------- ---- ---- ---- ------<br>-- --------- -- ---- -- --- -- --- ------- -- - -----<br>---------- -- -- -- ---- ----- -- ------ -- --- ------<br>-------,262636.40000000596,262636,262249.818,262260.40000000596,262263.257,262650.109,,10,the
screen,html.Screen,2_3_1_0_1_11,2022-02-02T16:15:51.830Z,,,,,,,,,,,,,,,,,48,,,,,,,,,,,,,,354.39100000000326,,response,,,,10,D,,,,,,Space,keypress(Space),,,,silence,,,,-- -- --- ------ ------- --------- ----------- --------<br>--------- -------- --- country -- ------- ---- -- ------<br>-- --- -------- -------- ---------- ---- ---- ---- ------<br>-- --------- -- ---- -- --- -- --- ------- -- - -----<br>---------- -- -- -- ---- ----- -- ------ -- --- ------<br>-------,263004.90000000596,263004.5,262636.584,262636.5,262650.109,263010.229,,11,country
screen,html.Screen,2_3_1_0_1_12,2022-02-02T16:15:52.166Z,,,,,,,,,,,,,,,,,48,,,,,,,,,,,,,,329.7710000000079,,response,,,,10,D,,,,,,Space,keypress(Space),,,,silence,,,,-- -- --- ------ ------- --------- ----------- --------<br>--------- -------- --- ------- to ------- ---- -- ------<br>-- --- -------- -------- ---------- ---- ---- ---- ------<br>-- --------- -- ---- -- --- -- --- ------- -- - -----<br>---------- -- -- -- ---- ----- -- ------ -- --- ------<br>-------,263340.2999999821,263340,262996.748,263004.90000000596,263010.229,263343.648,,12,to
screen,html.Screen,2_3_1_0_1_13,2022-02-02T16:15:52.486Z,,,,,,,,,,,,,,,,,48,,,,,,,,,,,,,,316.3520000000135,,response,,,,10,D,,,,,,Space,keypress(Space),,,,silence,,,,-- -- --- ------ ------- --------- ----------- --------<br>--------- -------- --- ------- -- declare ---- -- ------<br>-- --- -------- -------- ---------- ---- ---- ---- ------<br>-- --------- -- ---- -- --- -- --- ------- -- - -----<br>---------- -- -- -- ---- ----- -- ------ -- --- ------<br>-------,263660.2999999821,263660,263330.225,263340.40000000596,263343.648,263663.761,,13,declare
screen,html.Screen,2_3_1_0_1_14,2022-02-02T16:15:52.982Z,,,,,,,,,,,,,,,,,48,,,,,,,,,,,,,,492.7390000000014,,response,,,,10,D,,,,,,Space,keypress(Space),,,,silence,,,,-- -- --- ------ ------- --------- ----------- --------<br>--------- -------- --- ------- -- ------- cash -- ------<br>-- --- -------- -------- ---------- ---- ---- ---- ------<br>-- --------- -- ---- -- --- -- --- ------- -- - -----<br>---------- -- -- -- ---- ----- -- ------ -- --- ------<br>-------,264156.7999999821,264156.5,263650.337,263660.2999999821,263663.761,264178.709,,14,cash
screen,html.Screen,2_3_1_0_1_15,2022-02-02T16:15:53.326Z,,,,,,,,,,,,,,,,,48,,,,,,,,,,,,,,321.59099998214515,,response,,,,10,D,,,,,,Space,keypress(Space),,,,silence,,,,-- -- --- ------ ------- --------- ----------- --------<br>--------- -------- --- ------- -- ------- ---- in ------<br>-- --- -------- -------- ---------- ---- ---- ---- ------<br>-- --------- -- ---- -- --- -- --- ------- -- - -----<br>---------- -- -- -- ---- ----- -- ------ -- --- ------<br>-------,264500.6999999881,264500.2999999821,264143.753,264156.90000000596,264178.709,264504.098,,15,in
screen,html.Screen,2_3_1_0_1_16,2022-02-02T16:15:53.750Z,,,,,,,,,,,,,,,,,48,,,,,,,,,,,,,,420.3020000059623,,response,,,,10,D,,,,,,Space,keypress(Space),,,,silence,,,,-- -- --- ------ ------- --------- ----------- --------<br>--------- -------- --- ------- -- ------- ---- -- excess<br>-- --- -------- -------- ---------- ---- ---- ---- ------<br>-- --------- -- ---- -- --- -- --- ------- -- - -----<br>---------- -- -- -- ---- ----- -- ------ -- --- ------<br>-------,264924.90000000596,264924.40000000596,264490.608,264500.6999999881,264504.098,264931.347,,16,excess
screen,html.Screen,2_3_1_0_1_17,2022-02-02T16:15:54.222Z,,,,,,,,,,,,,,,,,48,,,,,,,,,,,,,,465.2529999940307,,response,,,,10,D,,,,,,Space,keypress(Space),,,,silence,,,,-- -- --- ------ ------- --------- ----------- --------<br>--------- -------- --- ------- -- ------- ---- -- ------<br>of --- -------- -------- ---------- ---- ---- ---- ------<br>-- --------- -- ---- -- --- -- --- ------- -- - -----<br>---------- -- -- -- ---- ----- -- ------ -- --- ------<br>-------,265396.90000000596,265396.59999999404,264917.762,264925,264931.347,265424.814,,17,of
screen,html.Screen,2_3_1_0_1_18,2022-02-02T16:15:54.630Z,,,,,,,,,,,,,,,,,48,,,,,,,,,,,,,,379.68599999998696,,response,,,,10,D,,,,,,Space,keypress(Space),,,,silence,,,,-- -- --- ------ ------- --------- ----------- --------<br>--------- -------- --- ------- -- ------- ---- -- ------<br>-- ten -------- -------- ---------- ---- ---- ---- ------<br>-- --------- -- ---- -- --- -- --- ------- -- - -----<br>---------- -- -- -- ---- ----- -- ------ -- --- ------<br>-------,265804.7999999821,265804.5,265384.248,265397,265424.814,265811.209,,18,ten
screen,html.Screen,2_3_1_0_1_19,2022-02-02T16:15:55.166Z,,,,,,,,,,,,,,,,,48,,,,,,,,,,,,,,529.2910000000265,,response,,,,10,D,,,,,,Space,keypress(Space),,,,silence,,,,-- -- --- ------ ------- --------- ----------- --------<br>--------- -------- --- ------- -- ------- ---- -- ------<br>-- --- thousand -------- ---------- ---- ---- ---- ------<br>-- --------- -- ---- -- --- -- --- ------- -- - -----<br>---------- -- -- -- ---- ----- -- ------ -- --- ------<br>-------,266340.90000000596,266340.5,265798.211,265804.90000000596,265811.209,266345.196,,19,thousand
screen,html.Screen,2_3_1_0_1_20,2022-02-02T16:15:55.694Z,,,,,,,,,,,,,,,,,48,,,,,,,,,,,,,,522.8040000000037,,response,,,,10,D,,,,,,Space,keypress(Space),,,,silence,,,,-- -- --- ------ ------- --------- ----------- --------<br>--------- -------- --- ------- -- ------- ---- -- ------<br>-- --- -------- dollars. ---------- ---- ---- ---- ------<br>-- --------- -- ---- -- --- -- --- ------- -- - -----<br>---------- -- -- -- ---- ----- -- ------ -- --- ------<br>-------,266868.2999999821,266868,266331.204,266340.90000000596,266345.196,266878.288,,20,dollars.
screen,html.Screen,2_3_1_0_1_21,2022-02-02T16:15:56.382Z,,,,,,,,,,,,,,,,,48,,,,,,,,,,,,,,678.2119999999995,,response,,,,10,D,,,,,,Space,keypress(Space),,,,silence,,,,-- -- --- ------ ------- --------- ----------- --------<br>--------- -------- --- ------- -- ------- ---- -- ------<br>-- --- -------- -------- Concealing ---- ---- ---- ------<br>-- --------- -- ---- -- --- -- --- ------- -- - -----<br>---------- -- -- -- ---- ----- -- ------ -- --- ------<br>-------,267556.90000000596,267556.5,266865.199,266868.40000000596,266878.288,267558.524,,21,Concealing
screen,html.Screen,2_3_1_0_1_22,2022-02-02T16:15:56.742Z,,,,,,,,,,,,,,,,,48,,,,,,,,,,,,,,357.9760000000242,,response,,,,10,D,,,,,,Space,keypress(Space),,,,silence,,,,-- -- --- ------ ------- --------- ----------- --------<br>--------- -------- --- ------- -- ------- ---- -- ------<br>-- --- -------- -------- ---------- more ---- ---- ------<br>-- --------- -- ---- -- --- -- --- ------- -- - -----<br>---------- -- -- -- ---- ----- -- ------ -- --- ------<br>-------,267916.7999999821,267916.5,267545.215,267557,267558.524,267918.642,,22,more
screen,html.Screen,2_3_1_0_1_23,2022-02-02T16:15:57.286Z,,,,,,,,,,,,,,,,,48,,,,,,,,,,,,,,541.457999994047,,response,,,,10,D,,,,,,Space,keypress(Space),,,,silence,,,,-- -- --- ------ ------- --------- ----------- --------<br>--------- -------- --- ------- -- ------- ---- -- ------<br>-- --- -------- -------- ---------- ---- than ---- ------<br>-- --------- -- ---- -- --- -- --- ------- -- - -----<br>---------- -- -- -- ---- ----- -- ------ -- --- ------<br>-------,268460.40000000596,268460.09999999404,267905.517,267916.90000000596,267918.642,268465.519,,23,than
screen,html.Screen,2_3_1_0_1_24,2022-02-02T16:15:57.670Z,,,,,,,,,,,,,,,,,48,,,,,,,,,,,,,,378.98100000002887,,response,,,,10,D,,,,,,Space,keypress(Space),,,,silence,,,,-- -- --- ------ ------- --------- ----------- --------<br>--------- -------- --- ------- -- ------- ---- -- ------<br>-- --- -------- -------- ---------- ---- ---- that ------<br>-- --------- -- ---- -- --- -- --- ------- -- - -----<br>---------- -- -- -- ---- ----- -- ------ -- --- ------<br>-------,268844.7999999821,268844.5,268452.518,268460.59999999404,268465.519,268852.773,,24,that
screen,html.Screen,2_3_1_0_1_25,2022-02-02T16:15:58.134Z,,,,,,,,,,,,,,,,,48,,,,,,,,,,,,,,455.2270000000135,,response,,,,10,D,,,,,,Space,keypress(Space),,,,silence,,,,-- -- --- ------ ------- --------- ----------- --------<br>--------- -------- --- ------- -- ------- ---- -- ------<br>-- --- -------- -------- ---------- ---- ---- ---- amount<br>-- --------- -- ---- -- --- -- --- ------- -- - -----<br>---------- -- -- -- ---- ----- -- ------ -- --- ------<br>-------,269308.40000000596,269308,268839.308,268844.90000000596,268852.773,269319.627,,25,amount
screen,html.Screen,2_3_1_0_1_26,2022-02-02T16:15:58.526Z,,,,,,,,,,,,,,,,,48,,,,,,,,,,,,,,380.2730000059819,,response,,,,10,D,,,,,,Space,keypress(Space),,,,silence,,,,-- -- --- ------ ------- --------- ----------- --------<br>--------- -------- --- ------- -- ------- ---- -- ------<br>-- --- -------- -------- ---------- ---- ---- ---- ------<br>to --------- -- ---- -- --- -- --- ------- -- - -----<br>---------- -- -- -- ---- ----- -- ------ -- --- ------<br>-------,269700.2999999821,269699.90000000596,269305.665,269308.40000000596,269319.627,269705.981,,26,to
screen,html.Screen,2_3_1_0_1_27,2022-02-02T16:15:58.966Z,,,,,,,,,,,,,,,,,48,,,,,,,,,,,,,,434.2189999880502,,response,,,,10,D,,,,,,Space,keypress(Space),,,,silence,,,,-- -- --- ------ ------- --------- ----------- --------<br>--------- -------- --- ------- -- ------- ---- -- ------<br>-- --- -------- -------- ---------- ---- ---- ---- ------<br>-- transport -- ---- -- --- -- --- ------- -- - -----<br>---------- -- -- -- ---- ----- -- ------ -- --- ------<br>-------,270140.5,270140.1999999881,269692.5,269700.2999999821,269705.981,270146.413,,27,transport
screen,html.Screen,2_3_1_0_1_28,2022-02-02T16:15:59.382Z,,,,,,,,,,,,,,,,,48,,,,,,,,,,,,,,409.58699999999953,,response,,,,10,D,,,,,,Space,keypress(Space),,,,silence,,,,-- -- --- ------ ------- --------- ----------- --------<br>--------- -------- --- ------- -- ------- ---- -- ------<br>-- --- -------- -------- ---------- ---- ---- ---- ------<br>-- --------- it ---- -- --- -- --- ------- -- - -----<br>---------- -- -- -- ---- ----- -- ------ -- --- ------<br>-------,270556.2999999821,270556,270132.692,270140.59999999404,270146.413,270559.592,,28,it
screen,html.Screen,2_3_1_0_1_29,2022-02-02T16:15:59.974Z,,,,,,,,,,,,,,,,,48,,,,,,,,,,,,,,588.4079999999958,,response,,,,10,D,,,,,,Space,keypress(Space),,,,silence,,,,-- -- --- ------ ------- --------- ----------- --------<br>--------- -------- --- ------- -- ------- ---- -- ------<br>-- --- -------- -------- ---------- ---- ---- ---- ------<br>-- --------- -- into -- --- -- --- ------- -- - -----<br>---------- -- -- -- ---- ----- -- ------ -- --- ------<br>-------,271148.2999999821,271148,270546.4,270556.40000000596,270559.592,271159.848,,29,into
screen,html.Screen,2_3_1_0_1_30,2022-02-02T16:16:00.358Z,,,,,,,,,,,,,,,,,48,,,,,,,,,,,,,,372.65200000000186,,response,,,,10,D,,,,,,Space,keypress(Space),,,,silence,,,,-- -- --- ------ ------- --------- ----------- --------<br>--------- -------- --- ------- -- ------- ---- -- ------<br>-- --- -------- -------- ---------- ---- ---- ---- ------<br>-- --------- -- ---- or --- -- --- ------- -- - -----<br>---------- -- -- -- ---- ----- -- ------ -- --- ------<br>-------,271532.6999999881,271532.5,271146.24,271148.40000000596,271159.848,271554.015,,30,or
screen,html.Screen,2_3_1_0_1_31,2022-02-02T16:16:00.782Z,,,,,,,,,,,,,,,,,48,,,,,,,,,,,,,,401.98499999998603,,response,,,,10,D,,,,,,Space,keypress(Space),,,,silence,,,,-- -- --- ------ ------- --------- ----------- --------<br>--------- -------- --- ------- -- ------- ---- -- ------<br>-- --- -------- -------- ---------- ---- ---- ---- ------<br>-- --------- -- ---- -- out -- --- ------- -- - -----<br>---------- -- -- -- ---- ----- -- ------ -- --- ------<br>-------,271956.2999999821,271956,271519.836,271532.7999999821,271554.015,271960.095,,31,out
screen,html.Screen,2_3_1_0_1_32,2022-02-02T16:16:01.086Z,,,,,,,,,,,,,,,,,48,,,,,,,,,,,,,,300.40500000002794,,response,,,,10,D,,,,,,Space,keypress(Space),,,,silence,,,,-- -- --- ------ ------- --------- ----------- --------<br>--------- -------- --- ------- -- ------- ---- -- ------<br>-- --- -------- -------- ---------- ---- ---- ---- ------<br>-- --------- -- ---- -- --- of --- ------- -- - -----<br>---------- -- -- -- ---- ----- -- ------ -- --- ------<br>-------,272260.7999999821,272260.5,271947.017,271956.40000000596,271960.095,272266.912,,32,of
screen,html.Screen,2_3_1_0_1_33,2022-02-02T16:16:01.406Z,,,,,,,,,,,,,,,,,48,,,,,,,,,,,,,,313.18799999402836,,response,,,,10,D,,,,,,Space,keypress(Space),,,,silence,,,,-- -- --- ------ ------- --------- ----------- --------<br>--------- -------- --- ------- -- ------- ---- -- ------<br>-- --- -------- -------- ---------- ---- ---- ---- ------<br>-- --------- -- ---- -- --- -- the ------- -- - -----<br>---------- -- -- -- ---- ----- -- ------ -- --- ------<br>-------,272580.2999999821,272580.09999999404,272253.411,272260.90000000596,272266.912,272587.025,,33,the
screen,html.Screen,2_3_1_0_1_34,2022-02-02T16:16:01.718Z,,,,,,,,,,,,,,,,,48,,,,,,,,,,,,,,305.07499999401625,,response,,,,10,D,,,,,,Space,keypress(Space),,,,silence,,,,-- -- --- ------ ------- --------- ----------- --------<br>--------- -------- --- ------- -- ------- ---- -- ------<br>-- --- -------- -------- ---------- ---- ---- ---- ------<br>-- --------- -- ---- -- --- -- --- country -- - -----<br>---------- -- -- -- ---- ----- -- ------ -- --- ------<br>-------,272892.5,272892.09999999404,272574.053,272580.5,272587.025,272893.771,,34,country
screen,html.Screen,2_3_1_0_1_35,2022-02-02T16:16:02.054Z,,,,,,,,,,,,,,,,,48,,,,,,,,,,,,,,334.7289999999921,,response,,,,10,D,,,,,,Space,keypress(Space),,,,silence,,,,-- -- --- ------ ------- --------- ----------- --------<br>--------- -------- --- ------- -- ------- ---- -- ------<br>-- --- -------- -------- ---------- ---- ---- ---- ------<br>-- --------- -- ---- -- --- -- --- ------- is - -----<br>---------- -- -- -- ---- ----- -- ------ -- --- ------<br>-------,273229.1999999881,273228.5,272880.337,272892.59999999404,272893.771,273240.795,,35,is
screen,html.Screen,2_3_1_0_1_36,2022-02-02T16:16:02.294Z,,,,,,,,,,,,,,,,,48,,,,,,,,,,,,,,227.2050000000163,,response,,,,10,D,,,,,,Space,keypress(Space),,,,silence,,,,-- -- --- ------ ------- --------- ----------- --------<br>--------- -------- --- ------- -- ------- ---- -- ------<br>-- --- -------- -------- ---------- ---- ---- ---- ------<br>-- --------- -- ---- -- --- -- --- ------- -- a -----<br>---------- -- -- -- ---- ----- -- ------ -- --- ------<br>-------,273468.2999999821,273468,273227.577,273229.1999999881,273240.795,273481.133,,36,a
screen,html.Screen,2_3_1_0_1_37,2022-02-02T16:16:02.814Z,,,,,,,,,,,,,,,,,48,,,,,,,,,,,,,,506.8670000000275,,response,,,,10,D,,,,,,Space,keypress(Space),,,,silence,,,,-- -- --- ------ ------- --------- ----------- --------<br>--------- -------- --- ------- -- ------- ---- -- ------<br>-- --- -------- -------- ---------- ---- ---- ---- ------<br>-- --------- -- ---- -- --- -- --- ------- -- - crime<br>---------- -- -- -- ---- ----- -- ------ -- --- ------<br>-------,273988.2999999821,273988,273467.703,273468.40000000596,273481.133,274000.873,,37,crime
screen,html.Screen,2_3_1_0_1_38,2022-02-02T16:16:03.206Z,,,,,,,,,,,,,,,,,48,,,,,,,,,,,,,,379.6269999999786,,response,,,,10,D,,,,,,Space,keypress(Space),,,,silence,,,,-- -- --- ------ ------- --------- ----------- --------<br>--------- -------- --- ------- -- ------- ---- -- ------<br>-- --- -------- -------- ---------- ---- ---- ---- ------<br>-- --------- -- ---- -- --- -- --- ------- -- - -----<br>punishable -- -- -- ---- ----- -- ------ -- --- ------<br>-------,274380.7999999821,274380.5,273987.335,273988.40000000596,274000.873,274388.161,,38,punishable
screen,html.Screen,2_3_1_0_1_39,2022-02-02T16:16:03.566Z,,,,,,,,,,,,,,,,,48,,,,,,,,,,,,,,351.8389999999781,,response,,,,10,D,,,,,,Space,keypress(Space),,,,silence,,,,-- -- --- ------ ------- --------- ----------- --------<br>--------- -------- --- ------- -- ------- ---- -- ------<br>-- --- -------- -------- ---------- ---- ---- ---- ------<br>-- --------- -- ---- -- --- -- --- ------- -- - -----<br>---------- by -- -- ---- ----- -- ------ -- --- ------<br>-------,274740.2999999821,274740,274374.181,274380.90000000596,274388.161,274747.761,,39,by
screen,html.Screen,2_3_1_0_1_40,2022-02-02T16:16:03.790Z,,,,,,,,,,,,,,,,,48,,,,,,,,,,,,,,216.63900000596186,,response,,,,10,D,,,,,,Space,keypress(Space),,,,silence,,,,-- -- --- ------ ------- --------- ----------- --------<br>--------- -------- --- ------- -- ------- ---- -- ------<br>-- --- -------- -------- ---------- ---- ---- ---- ------<br>-- --------- -- ---- -- --- -- --- ------- -- - -----<br>---------- -- up -- ---- ----- -- ------ -- --- ------<br>-------,274964.7999999821,274964.40000000596,274734.789,274740.2999999821,274747.761,274974.531,,40,up
screen,html.Screen,2_3_1_0_1_41,2022-02-02T16:16:04.174Z,,,,,,,,,,,,,,,,,48,,,,,,,,,,,,,,373.7689999821014,,response,,,,10,D,,,,,,Space,keypress(Space),,,,silence,,,,-- -- --- ------ ------- --------- ----------- --------<br>--------- -------- --- ------- -- ------- ---- -- ------<br>-- --- -------- -------- ---------- ---- ---- ---- ------<br>-- --------- -- ---- -- --- -- --- ------- -- - -----<br>---------- -- -- to ---- ----- -- ------ -- --- ------<br>-------,275348.59999999404,275348.2999999821,274961.094,274964.7999999821,274974.531,275361.326,,41,to
screen,html.Screen,2_3_1_0_1_42,2022-02-02T16:16:04.534Z,,,,,,,,,,,,,,,,,48,,,,,,,,,,,,,,346.67399999999907,,response,,,,10,D,,,,,,Space,keypress(Space),,,,silence,,,,-- -- --- ------ ------- --------- ----------- --------<br>--------- -------- --- ------- -- ------- ---- -- ------<br>-- --- -------- -------- ---------- ---- ---- ---- ------<br>-- --------- -- ---- -- --- -- --- ------- -- - -----<br>---------- -- -- -- five ----- -- ------ -- --- ------<br>-------,275708.40000000596,275708,275347.86,275348.59999999404,275361.326,275721.509,,42,five
screen,html.Screen,2_3_1_0_1_43,2022-02-02T16:16:04.902Z,,,,,,,,,,,,,,,,,48,,,,,,,,,,,,,,354.49099999998,,response,,,,10,D,,,,,,Space,keypress(Space),,,,silence,,,,-- -- --- ------ ------- --------- ----------- --------<br>--------- -------- --- ------- -- ------- ---- -- ------<br>-- --- -------- -------- ---------- ---- ---- ---- ------<br>-- --------- -- ---- -- --- -- --- ------- -- - -----<br>---------- -- -- -- ---- years -- ------ -- --- ------<br>-------,276076.2999999821,276076,275708.012,275708.5,275721.509,276081.869,,43,years
