sender,sender_type,sender_id,timestamp,meta,,Blues,Classical,Country,Dance,Electronic,Folk,Gospel,Hip-Hop,Jazz,Latin,Musical/Film,New-age,Pop,Prolific_id,Provo_ID,R&B,Rap,Reggae,Religious,Rock,Soul,Swing,Traditional,age,artist_name,correct,correctResponse,distraction,duration,education,ended_on,familiarity,gender,headphone_check_performance,item,list,music_frequency,offensiveness,pleasantness,position_correct,preference,response,response_action,snippet_file,song_name,song_rating,sound,stimulus_1,stimulus_2,stimulus_3,text,time_commit,time_end,time_render,time_run,time_show,time_switch,url,word,word_ID
Prolific ID,html.Form,0,2022-02-04T13:14:31.294Z,"{""labjs_version"":""20.2.2"",""labjs_build"":{""flavor"":""production"",""commit"":""a25486e0c714a0ae2ce03ff94b7bb6896854dcfa""},""location"":""https://run.pavlovia.org/mvasilev/prolific2_music_d/"",""userAgent"":""Mozilla/5.0 (Windows NT 10.0; Win64; x64) AppleWebKit/537.36 (KHTML, like Gecko) Chrome/97.0.4692.71 Safari/537.36"",""platform"":""Win32"",""language"":""en-GB"",""locale"":""en-US"",""timeZone"":""Europe/London"",""timezoneOffset"":0,""screen_width"":1536,""screen_height"":864,""scroll_width"":1536,""scroll_height"":674,""window_innerWidth"":1536,""window_innerHeight"":722,""devicePixelRatio"":1.25}",,,,,,,,,,,,,,,5c9b534b519f7500182be9b7,,,,,,,,,,,,,,,4454.69400004769,,form submission,,,,,,,,,,,,,,,,,,,,,106889.59999990463,106889.20000004768,102426.755,18592.799999952316,102434.506,106900.513,{},,
Introduction,html.Screen,1_0,2022-02-04T13:14:36.806Z,,,,,,,,,,,,,,,,,,,,,,,,,,,,,,,5496.486999999994,,response,,,,,,,,,,,continue,click button,,,,,,,,,112401.59999990463,112397,106883.879,106889.90000009537,106900.513,112399.738,,,
Volume calibration,html.Screen,1_1,2022-02-04T13:16:38.989Z,,,,,,,,,,,,,,,,,,,,,,,,,,,,,,,122180.762,,response,,,,,,,,,,,continue,click button,,,,,,,,,234585.29999995232,234580.5,112383.199,112401.70000004768,112399.738,234582.738,,,
Task instructions,html.Screen,1_2,2022-02-04T13:16:46.395Z,,,,,,,,,,,,,,,,,,,,,,,,,,,,,,,7406.261999999988,,response,,,,,,,,,,,continue,click button,,,,,,,,,241991,241989,234566.068,234585.40000009537,234582.738,241998.382,,,
Sounds,html.Screen,1_3_0_0,2022-02-04T13:16:50.639Z,,,,,,,,,,,,,,,,,,,,,,,,,,,,,,,4249.746999999974,,timeout,,,,,,,,,3,,,,,,,,O,I,S,,246234.70000004768,246231.157,241981.957,241991.29999995232,241998.382,246248.129,,,
Judgement,html.Screen,1_3_0_1,2022-02-04T13:16:55.235Z,,,,,,,,,,,,,,,,,,,,,,,,,,,,true,3,,4580.970999904646,,response,,,,,,,,,3,,3,click #choice-3,,,,,O,I,S,,250831.40000009537,250829.09999990463,246231.157,246234.90000009537,246248.129,250849.529,,,
Trial,flow.Sequence,1_3_0,2022-02-04T13:16:55.238Z,,,,,,,,,,,,,,,,,,,,,,,,,,,,,,,8830.71799990462,,completion,,,,,,,,,3,,,,,,,,O,I,S,,250834.40000009537,250829.09999990463,241981.957,241991.09999990463,241998.382,250849.529,,,
Sounds,html.Screen,1_3_1_0,2022-02-04T13:16:59.485Z,,,,,,,,,,,,,,,,,,,,,,,,,,,,,,,4247.027000000002,,timeout,,,,,,,,,1,,,,,,,,S,I,O,,255081,255079.896,250814.322,250834.90000009537,250849.529,255096.556,,,
Judgement,html.Screen,1_3_1_1,2022-02-04T13:17:00.499Z,,,,,,,,,,,,,,,,,,,,,,,,,,,,true,1,,996.1440000476723,,response,,,,,,,,,1,,1,click #choice-1,,,,,S,I,O,,256095,256092.70000004768,255079.896,255081.29999995232,255096.556,256096.38,,,
Trial,flow.Sequence,1_3_1,2022-02-04T13:17:00.499Z,,,,,,,,,,,,,,,,,,,,,,,,,,,,,,,5243.171000047674,,completion,,,,,,,,,1,,,,,,,,S,I,O,,256095.29999995232,256092.70000004768,250814.322,250834.59999990463,250849.529,256096.38,,,
Sounds,html.Screen,1_3_2_0,2022-02-04T13:17:04.734Z,,,,,,,,,,,,,,,,,,,,,,,,,,,,,,,4250.059999999998,,timeout,,,,,,,,,1,,,,,,,,S,O,I,,260330,260329.196,256079.812,256095.5,256096.38,260346.44,,,
Judgement,html.Screen,1_3_2_1,2022-02-04T13:17:06.331Z,,,,,,,,,,,,,,,,,,,,,,,,,,,,true,1,,1578.460000095365,,response,,,,,,,,,1,,1,click #choice-1,,,,,S,O,I,,261927.09999990463,261924.90000009537,260329.196,260330.29999995232,260346.44,261928.886,,,
Trial,flow.Sequence,1_3_2,2022-02-04T13:17:06.331Z,,,,,,,,,,,,,,,,,,,,,,,,,,,,,,,5828.520000095363,,completion,,,,,,,,,1,,,,,,,,S,O,I,,261927.29999995232,261924.90000009537,256079.812,256095.5,256096.38,261928.886,,,
Sounds,html.Screen,1_3_3_0,2022-02-04T13:17:10.567Z,,,,,,,,,,,,,,,,,,,,,,,,,,,,,,,4249.499000000011,,timeout,,,,,,,,,2,,,,,,,,I,S,O,,266163.40000009537,266161.672,261912.26,261927.59999990463,261928.886,266178.385,,,
Judgement,html.Screen,1_3_3_1,2022-02-04T13:17:11.331Z,,,,,,,,,,,,,,,,,,,,,,,,,,,,true,2,,746.2149999046233,,response,,,,,,,,,2,,2,click #choice-2,,,,,I,S,O,,266926.59999990463,266924.59999990463,266161.672,266163.59999990463,266178.385,266928.197,,,
Trial,flow.Sequence,1_3_3,2022-02-04T13:17:11.331Z,,,,,,,,,,,,,,,,,,,,,,,,,,,,,,,4995.713999904634,,completion,,,,,,,,,2,,,,,,,,I,S,O,,266926.7999999523,266924.59999990463,261912.26,261927.5,261928.886,266928.197,,,
Sounds,html.Screen,1_3_4_0,2022-02-04T13:17:15.566Z,,,,,,,,,,,,,,,,,,,,,,,,,,,,,,,4249.524000000034,,timeout,,,,,,,,,2,,,,,,,,O,S,I,,271161.90000009537,271161.031,266911.561,266927,266928.197,271177.721,,,
Judgement,html.Screen,1_3_4_1,2022-02-04T13:17:16.946Z,,,,,,,,,,,,,,,,,,,,,,,,,,,,true,2,,1362.878999904613,,response,,,,,,,,,2,,2,click #choice-2,,,,,O,S,I,,272542.59999990463,272540.59999990463,271161.031,271162,271177.721,272544.35,,,
Trial,flow.Sequence,1_3_4,2022-02-04T13:17:16.947Z,,,,,,,,,,,,,,,,,,,,,,,,,,,,,,,5612.402999904647,,completion,,,,,,,,,2,,,,,,,,O,S,I,,272542.7999999523,272540.59999990463,266911.561,266927,266928.197,272544.35,,,
Sounds,html.Screen,1_3_5_0,2022-02-04T13:17:21.182Z,,,,,,,,,,,,,,,,,,,,,,,,,,,,,,,4249.34500000003,,timeout,,,,,,,,,3,,,,,,,,I,O,S,,276777.7999999523,276776.894,272527.504,272544,272544.35,276793.695,,,
Judgement,html.Screen,1_3_5_1,2022-02-04T13:17:49.258Z,,,,,,,,,,,,,,,,,,,,,,,,,,,,true,3,,28058.804999999993,,response,,,,,,,,,3,,3,click #choice-3,,,,,I,O,S,,304854.09999990463,304852.5,276776.894,276778,276793.695,304856.232,,,
Trial,flow.Sequence,1_3_5,2022-02-04T13:17:49.258Z,,,,,,,,,,,,,,,,,,,,,,,,,,,,,,,32308.150000000023,,completion,,,,,,,,,3,,,,,,,,I,O,S,,304854.2999999523,304852.5,272527.504,272544,272544.35,304856.232,,,
Task,flow.Loop,1_3,2022-02-04T13:17:49.263Z,,,,,,,,,,,,,,,,,,,,,,,,,,,,,,,62854.11799999999,,completion,,,1,,,,,,,,,,,,,,,,,,304858.7999999523,304852.5,241981.957,241991.09999990463,241998.382,304856.232,,,
Trap,html.Screen,1_4,2022-02-04T13:17:49.264Z,,,,,,,,,,,,,,,,,,,,,,,,,,,,,,,NaN,,skipped,,,,,,,,,,,,,,,,,,,,,304859.90000009537,304852.5,,304859.7000000477,,304856.232,,,
Thanks,html.Screen,1_5,2022-02-04T13:17:52.227Z,,,,,,,,,,,,,,,,,,,,,,,,,,,,,,,2964.8679999046144,,response,,,,,,,,,,,continue,click button,,,,,,,,,307823.40000009537,307821.09999990463,304839.647,304860,304856.232,321787.222,,,
Headphone screening,flow.Sequence,1,2022-02-04T13:17:52.227Z,,,,,,,,,,,,,,,,,,,,,,,,,,,,,,,200920.58699990463,,completion,,,,,,,,,,,,,,,,,,,,,307823.7000000477,307821.09999990463,106883.879,106889.90000009537,106900.513,321787.222,,,
Instructions,html.Page,2_0,2022-02-04T13:18:25.958Z,,,,,,,,,,,,,,,,,,,,,,,,,,,,,,,19765.27799999999,,form submission,,,,,,,,,,,,,,,,,,,,,341553.7000000477,341552.5,321770.577,321794.2999999523,321787.222,341551.162,,,
Holding screen,html.Screen,2_1_0_0,2022-02-04T13:18:35.938Z,,,,,,,,,,,,,,,,,,,,,,,,,,,,,,,10015.245999999985,,timeout,,,,,,,,,,,,,,,,,,,,,351533.90000009537,351533.081,341534.955,341554.09999990463,341551.162,351566.408,,,
screen,html.Screen,2_1_0_1_0,2022-02-04T13:18:37.491Z,,,,,,,,,,,,,,,,,53,,,,,,,,,,,,,,1516.8919999523205,,response,,,,99,,,,,,,Space,keypress(Space),,,,,,,,When -- ----- -- ------ - ------- --- ----------<br>------------- ------ ------ ---- ---- ------- ----- -- ----<br>-------- ------- -- ---------- --- - --- ----- ----- ----<br>---- --- --- ----- --- ---- ---- ------- ----- ---- -------<br>--- --- -- ----- -- --- ---- -- --- ---- -- ------ ------<br>--- ----- -- ----,353087.40000009537,353083.2999999523,351533.081,351534.09999990463,351566.408,353099.988,,0,When
screen,html.Screen,2_1_0_1_1,2022-02-04T13:18:37.877Z,,,,,,,,,,,,,,,,,53,,,,,,,,,,,,,,372.2120000476716,,response,,,,99,,,,,,,Space,keypress(Space),,,,,,,,---- it ----- -- ------ - ------- --- ----------<br>------------- ------ ------ ---- ---- ------- ----- -- ----<br>-------- ------- -- ---------- --- - --- ----- ----- ----<br>---- --- --- ----- --- ---- ---- ------- ----- ---- -------<br>--- --- -- ----- -- --- ---- -- --- ---- -- ------ ------<br>--- ----- -- ----,353473.2999999523,353472.2000000477,353083.094,353087.5,353099.988,353482.829,,1,it
screen,html.Screen,2_1_0_1_2,2022-02-04T13:18:38.227Z,,,,,,,,,,,,,,,,,53,,,,,,,,,,,,,,338.8710000476567,,response,,,,99,,,,,,,Space,keypress(Space),,,,,,,,---- -- comes -- ------ - ------- --- ----------<br>------------- ------ ------ ---- ---- ------- ----- -- ----<br>-------- ------- -- ---------- --- - --- ----- ----- ----<br>---- --- --- ----- --- ---- ---- ------- ----- ---- -------<br>--- --- -- ----- -- --- ---- -- --- ---- -- ------ ------<br>--- ----- -- ----,353822.90000009537,353821.7000000477,353466.248,353473.5,353482.829,353832.797,,2,comes
screen,html.Screen,2_1_0_1_3,2022-02-04T13:18:38.546Z,,,,,,,,,,,,,,,,,53,,,,,,,,,,,,,,308.5029999522958,,response,,,,99,,,,,,,Space,keypress(Space),,,,,,,,---- -- ----- to ------ - ------- --- ----------<br>------------- ------ ------ ---- ---- ------- ----- -- ----<br>-------- ------- -- ---------- --- - --- ----- ----- ----<br>---- --- --- ----- --- ---- ---- ------- ----- ---- -------<br>--- --- -- ----- -- --- ---- -- --- ---- -- ------ ------<br>--- ----- -- ----,354142.2999999523,354141.2999999523,353816.198,353823,353832.797,354149.419,,3,to
screen,html.Screen,2_1_0_1_4,2022-02-04T13:18:38.910Z,,,,,,,,,,,,,,,,,53,,,,,,,,,,,,,,355.981000095373,,response,,,,99,,,,,,,Space,keypress(Space),,,,,,,,---- -- ----- -- having - ------- --- ----------<br>------------- ------ ------ ---- ---- ------- ----- -- ----<br>-------- ------- -- ---------- --- - --- ----- ----- ----<br>---- --- --- ----- --- ---- ---- ------- ----- ---- -------<br>--- --- -- ----- -- --- ---- -- --- ---- -- ------ ------<br>--- ----- -- ----,354506.40000009537,354505.40000009537,354132.813,354142.40000009537,354149.419,354516.023,,4,having
screen,html.Screen,2_1_0_1_5,2022-02-04T13:18:39.326Z,,,,,,,,,,,,,,,,,53,,,,,,,,,,,,,,405.1770000476972,,response,,,,99,,,,,,,Space,keypress(Space),,,,,,,,---- -- ----- -- ------ a ------- --- ----------<br>------------- ------ ------ ---- ---- ------- ----- -- ----<br>-------- ------- -- ---------- --- - --- ----- ----- ----<br>---- --- --- ----- --- ---- ---- ------- ----- ---- -------<br>--- --- -- ----- -- --- ---- -- --- ---- -- ------ ------<br>--- ----- -- ----,354922.40000009537,354921.2000000477,354499.455,354506.59999990463,354516.023,354932.638,,5,a
screen,html.Screen,2_1_0_1_6,2022-02-04T13:18:39.668Z,,,,,,,,,,,,,,,,,53,,,,,,,,,,,,,,330.1619999523391,,response,,,,99,,,,,,,Space,keypress(Space),,,,,,,,---- -- ----- -- ------ - lasting --- ----------<br>------------- ------ ------ ---- ---- ------- ----- -- ----<br>-------- ------- -- ---------- --- - --- ----- ----- ----<br>---- --- --- ----- --- ---- ---- ------- ----- ---- -------<br>--- --- -- ----- -- --- ---- -- --- ---- -- ------ ------<br>--- ----- -- ----,355264,355262.7999999523,354916.041,354922.5,354932.638,355265.879,,6,lasting
screen,html.Screen,2_1_0_1_7,2022-02-04T13:18:40.014Z,,,,,,,,,,,,,,,,,53,,,,,,,,,,,,,,343.32100004766835,,response,,,,99,,,,,,,Space,keypress(Space),,,,,,,,---- -- ----- -- ------ - ------- and ----------<br>------------- ------ ------ ---- ---- ------- ----- -- ----<br>-------- ------- -- ---------- --- - --- ----- ----- ----<br>---- --- --- ----- --- ---- ---- ------- ----- ---- -------<br>--- --- -- ----- -- --- ---- -- --- ---- -- ------ ------<br>--- ----- -- ----,355610.5,355609.2000000477,355249.316,355264.09999990463,355265.879,355615.912,,7,and
screen,html.Screen,2_1_0_1_8,2022-02-04T13:18:40.448Z,,,,,,,,,,,,,,,,,53,,,,,,,,,,,,,,427.48800009535626,,response,,,,99,,,,,,,Space,keypress(Space),,,,,,,,---- -- ----- -- ------ - ------- --- fulfilling<br>------------- ------ ------ ---- ---- ------- ----- -- ----<br>-------- ------- -- ---------- --- - --- ----- ----- ----<br>---- --- --- ----- --- ---- ---- ------- ----- ---- -------<br>--- --- -- ----- -- --- ---- -- --- ---- -- ------ ------<br>--- ----- -- ----,356044.2999999523,356043.40000009537,355599.283,355610.7000000477,355615.912,356049.13,,8,fulfilling
screen,html.Screen,2_1_0_1_9,2022-02-04T13:18:40.915Z,,,,,,,,,,,,,,,,,53,,,,,,,,,,,,,,460.2700000953628,,response,,,,99,,,,,,,Space,keypress(Space),,,,,,,,"---- -- ----- -- ------ - ------- --- ----------<br>relationship, ------ ------ ---- ---- ------- ----- -- ----<br>-------- ------- -- ---------- --- - --- ----- ----- ----<br>---- --- --- ----- --- ---- ---- ------- ----- ---- -------<br>--- --- -- ----- -- --- ---- -- --- ---- -- ------ ------<br>--- ----- -- ----",356510.59999990463,356509.40000009537,356032.57,356044.5,356049.13,356515.956,,9,"relationship,"
screen,html.Screen,2_1_0_1_10,2022-02-04T13:18:41.449Z,,,,,,,,,,,,,,,,,53,,,,,,,,,,,,,,527.5439999999944,,response,,,,99,,,,,,,Space,keypress(Space),,,,,,,,---- -- ----- -- ------ - ------- --- ----------<br>------------- common ------ ---- ---- ------- ----- -- ----<br>-------- ------- -- ---------- --- - --- ----- ----- ----<br>---- --- --- ----- --- ---- ---- ------- ----- ---- -------<br>--- --- -- ----- -- --- ---- -- --- ---- -- ------ ------<br>--- ----- -- ----,357044.7999999523,357043.5,356499.542,356510.7999999523,356515.956,357049.014,,10,common
screen,html.Screen,2_1_0_1_11,2022-02-04T13:18:41.908Z,,,,,,,,,,,,,,,,,53,,,,,,,,,,,,,,453.68600004765904,,response,,,,99,,,,,,,Space,keypress(Space),,,,,,,,---- -- ----- -- ------ - ------- --- ----------<br>------------- ------ wisdom ---- ---- ------- ----- -- ----<br>-------- ------- -- ---------- --- - --- ----- ----- ----<br>---- --- --- ----- --- ---- ---- ------- ----- ---- -------<br>--- --- -- ----- -- --- ---- -- --- ---- -- ------ ------<br>--- ----- -- ----,357504,357502.7000000477,357032.436,357045.09999990463,357049.014,357515.686,,11,wisdom
screen,html.Screen,2_1_0_1_12,2022-02-04T13:18:42.234Z,,,,,,,,,,,,,,,,,53,,,,,,,,,,,,,,313.51400004769675,,response,,,,99,,,,,,,Space,keypress(Space),,,,,,,,---- -- ----- -- ------ - ------- --- ----------<br>------------- ------ ------ says ---- ------- ----- -- ----<br>-------- ------- -- ---------- --- - --- ----- ----- ----<br>---- --- --- ----- --- ---- ---- ------- ----- ---- -------<br>--- --- -- ----- -- --- ---- -- --- ---- -- ------ ------<br>--- ----- -- ----,357830.09999990463,357829.2000000477,357499.045,357504.09999990463,357515.686,357832.227,,12,says
screen,html.Screen,2_1_0_1_13,2022-02-04T13:18:42.591Z,,,,,,,,,,,,,,,,,53,,,,,,,,,,,,,,353.5729999523028,,response,,,,99,,,,,,,Space,keypress(Space),,,,,,,,---- -- ----- -- ------ - ------- --- ----------<br>------------- ------ ------ ---- that ------- ----- -- ----<br>-------- ------- -- ---------- --- - --- ----- ----- ----<br>---- --- --- ----- --- ---- ---- ------- ----- ---- -------<br>--- --- -- ----- -- --- ---- -- --- ---- -- ------ ------<br>--- ----- -- ----,358187,358185.7999999523,357815.726,357830.2000000477,357832.227,358198.895,,13,that
screen,html.Screen,2_1_0_1_14,2022-02-04T13:18:42.913Z,,,,,,,,,,,,,,,,,53,,,,,,,,,,,,,,309.5050000953488,,response,,,,99,,,,,,,Space,keypress(Space),,,,,,,,---- -- ----- -- ------ - ------- --- ----------<br>------------- ------ ------ ---- ---- feeling ----- -- ----<br>-------- ------- -- ---------- --- - --- ----- ----- ----<br>---- --- --- ----- --- ---- ---- ------- ----- ---- -------<br>--- --- -- ----- -- --- ---- -- --- ---- -- ------ ------<br>--- ----- -- ----,358509.5,358508.40000009537,358182.183,358187.09999990463,358198.895,358515.427,,14,feeling
screen,html.Screen,2_1_0_1_15,2022-02-04T13:18:43.269Z,,,,,,,,,,,,,,,,,53,,,,,,,,,,,,,,348.57299999997485,,response,,,,99,,,,,,,Space,keypress(Space),,,,,,,,---- -- ----- -- ------ - ------- --- ----------<br>------------- ------ ------ ---- ---- ------- close -- ----<br>-------- ------- -- ---------- --- - --- ----- ----- ----<br>---- --- --- ----- --- ---- ---- ------- ----- ---- -------<br>--- --- -- ----- -- --- ---- -- --- ---- -- ------ ------<br>--- ----- -- ----,358864.90000009537,358864,358498.885,358509.7000000477,358515.427,358882.121,,15,close
screen,html.Screen,2_1_0_1_16,2022-02-04T13:18:43.595Z,,,,,,,,,,,,,,,,,53,,,,,,,,,,,,,,307.87900000001537,,response,,,,99,,,,,,,Space,keypress(Space),,,,,,,,---- -- ----- -- ------ - ------- --- ----------<br>------------- ------ ------ ---- ---- ------- ----- to ----<br>-------- ------- -- ---------- --- - --- ----- ----- ----<br>---- --- --- ----- --- ---- ---- ------- ----- ---- -------<br>--- --- -- ----- -- --- ---- -- --- ---- -- ------ ------<br>--- ----- -- ----,359191.2000000477,359190,358865.507,358865,358882.121,359198.709,,16,to
screen,html.Screen,2_1_0_1_17,2022-02-04T13:18:44.349Z,,,,,,,,,,,,,,,,,53,,,,,,,,,,,,,,745.7910000000265,,response,,,,99,,,,,,,Space,keypress(Space),,,,,,,,---- -- ----- -- ------ - ------- --- ----------<br>------------- ------ ------ ---- ---- ------- ----- -- your<br>-------- ------- -- ---------- --- - --- ----- ----- ----<br>---- --- --- ----- --- ---- ---- ------- ----- ---- -------<br>--- --- -- ----- -- --- ---- -- --- ---- -- ------ ------<br>--- ----- -- ----,359945.40000009537,359944.5,359182.117,359191.2999999523,359198.709,359948.77,,17,your
screen,html.Screen,2_1_0_1_18,2022-02-04T13:18:44.708Z,,,,,,,,,,,,,,,,,53,,,,,,,,,,,,,,353.9300000476651,,response,,,,99,,,,,,,Space,keypress(Space),,,,,,,,---- -- ----- -- ------ - ------- --- ----------<br>------------- ------ ------ ---- ---- ------- ----- -- ----<br>romantic ------- -- ---------- --- - --- ----- ----- ----<br>---- --- --- ----- --- ---- ---- ------- ----- ---- -------<br>--- --- -- ----- -- --- ---- -- --- ---- -- ------ ------<br>--- ----- -- ----,360303.7999999523,360302.7000000477,359932.417,359945.5,359948.77,360315.281,,18,romantic
screen,html.Screen,2_1_0_1_19,2022-02-04T13:18:45.032Z,,,,,,,,,,,,,,,,,53,,,,,,,,,,,,,,312.31899990461534,,response,,,,99,,,,,,,Space,keypress(Space),,,,,,,,---- -- ----- -- ------ - ------- --- ----------<br>------------- ------ ------ ---- ---- ------- ----- -- ----<br>-------- partner -- ---------- --- - --- ----- ----- ----<br>---- --- --- ----- --- ---- ---- ------- ----- ---- -------<br>--- --- -- ----- -- --- ---- -- --- ---- -- ------ ------<br>--- ----- -- ----,360628.59999990463,360627.59999990463,360298.586,360304,360315.281,360631.816,,19,partner
screen,html.Screen,2_1_0_1_20,2022-02-04T13:18:45.397Z,,,,,,,,,,,,,,,,,53,,,,,,,,,,,,,,360.3840000476921,,response,,,,99,,,,,,,Space,keypress(Space),,,,,,,,---- -- ----- -- ------ - ------- --- ----------<br>------------- ------ ------ ---- ---- ------- ----- -- ----<br>-------- ------- is ---------- --- - --- ----- ----- ----<br>---- --- --- ----- --- ---- ---- ------- ----- ---- -------<br>--- --- -- ----- -- --- ---- -- --- ---- -- ------ ------<br>--- ----- -- ----,360993.2000000477,360992.2000000477,360615.251,360628.7999999523,360631.816,360998.426,,20,is
screen,html.Screen,2_1_0_1_21,2022-02-04T13:18:45.833Z,,,,,,,,,,,,,,,,,53,,,,,,,,,,,,,,429.6739999046549,,response,,,,99,,,,,,,Space,keypress(Space),,,,,,,,---- -- ----- -- ------ - ------- --- ----------<br>------------- ------ ------ ---- ---- ------- ----- -- ----<br>-------- ------- -- paramount. --- - --- ----- ----- ----<br>---- --- --- ----- --- ---- ---- ------- ----- ---- -------<br>--- --- -- ----- -- --- ---- -- --- ---- -- ------ ------<br>--- ----- -- ----,361429.2999999523,361428.09999990463,360981.876,360993.2999999523,360998.426,361431.691,,21,paramount.
screen,html.Screen,2_1_0_1_22,2022-02-04T13:18:46.192Z,,,,,,,,,,,,,,,,,53,,,,,,,,,,,,,,355.0090000476921,,response,,,,99,,,,,,,Space,keypress(Space),,,,,,,,---- -- ----- -- ------ - ------- --- ----------<br>------------- ------ ------ ---- ---- ------- ----- -- ----<br>-------- ------- -- ---------- But - --- ----- ----- ----<br>---- --- --- ----- --- ---- ---- ------- ----- ---- -------<br>--- --- -- ----- -- --- ---- -- --- ---- -- ------ ------<br>--- ----- -- ----,361787.7999999523,361786.7000000477,361415.175,361429.40000009537,361431.691,361798.41,,22,But
screen,html.Screen,2_1_0_1_23,2022-02-04T13:18:46.521Z,,,,,,,,,,,,,,,,,53,,,,,,,,,,,,,,317.8899999523419,,response,,,,99,,,,,,,Space,keypress(Space),,,,,,,,---- -- ----- -- ------ - ------- --- ----------<br>------------- ------ ------ ---- ---- ------- ----- -- ----<br>-------- ------- -- ---------- --- a --- ----- ----- ----<br>---- --- --- ----- --- ---- ---- ------- ----- ---- -------<br>--- --- -- ----- -- --- ---- -- --- ---- -- ------ ------<br>--- ----- -- ----,362117.5,362116.2999999523,361781.755,361787.90000009537,361798.41,362131.69,,23,a
screen,html.Screen,2_1_0_1_24,2022-02-04T13:18:46.837Z,,,,,,,,,,,,,,,,,53,,,,,,,,,,,,,,300.5100000476814,,response,,,,99,,,,,,,Space,keypress(Space),,,,,,,,---- -- ----- -- ------ - ------- --- ----------<br>------------- ------ ------ ---- ---- ------- ----- -- ----<br>-------- ------- -- ---------- --- - new ----- ----- ----<br>---- --- --- ----- --- ---- ---- ------- ----- ---- -------<br>--- --- -- ----- -- --- ---- -- --- ---- -- ------ ------<br>--- ----- -- ----,362433.2999999523,362432.2000000477,362115.302,362117.59999990463,362131.69,362448.311,,24,new
screen,html.Screen,2_1_0_1_25,2022-02-04T13:18:47.128Z,,,,,,,,,,,,,,,,,53,,,,,,,,,,,,,,273.68900000001304,,response,,,,99,,,,,,,Space,keypress(Space),,,,,,,,---- -- ----- -- ------ - ------- --- ----------<br>------------- ------ ------ ---- ---- ------- ----- -- ----<br>-------- ------- -- ---------- --- - --- study ----- ----<br>---- --- --- ----- --- ---- ---- ------- ----- ---- -------<br>--- --- -- ----- -- --- ---- -- --- ---- -- ------ ------<br>--- ----- -- ----,362724.2999999523,362722,362431.645,362433.5,362448.311,362731.505,,25,study
screen,html.Screen,2_1_0_1_26,2022-02-04T13:18:47.426Z,,,,,,,,,,,,,,,,,53,,,,,,,,,,,,,,289.49499999999534,,response,,,,99,,,,,,,Space,keypress(Space),,,,,,,,---- -- ----- -- ------ - ------- --- ----------<br>------------- ------ ------ ---- ---- ------- ----- -- ----<br>-------- ------- -- ---------- --- - --- ----- finds ----<br>---- --- --- ----- --- ---- ---- ------- ----- ---- -------<br>--- --- -- ----- -- --- ---- -- --- ---- -- ------ ------<br>--- ----- -- ----,363022,363021,362714.88,362724.5,362731.505,363031.519,,26,finds
screen,html.Screen,2_1_0_1_27,2022-02-04T13:18:47.793Z,,,,,,,,,,,,,,,,,53,,,,,,,,,,,,,,356.78099995234516,,response,,,,99,,,,,,,Space,keypress(Space),,,,,,,,---- -- ----- -- ------ - ------- --- ----------<br>------------- ------ ------ ---- ---- ------- ----- -- ----<br>-------- ------- -- ---------- --- - --- ----- ----- that<br>---- --- --- ----- --- ---- ---- ------- ----- ---- -------<br>--- --- -- ----- -- --- ---- -- --- ---- -- ------ ------<br>--- ----- -- ----,363389.5,363388.2999999523,363014.924,363022.09999990463,363031.519,363398.065,,27,that
screen,html.Screen,2_1_0_1_28,2022-02-04T13:18:48.154Z,,,,,,,,,,,,,,,,,53,,,,,,,,,,,,,,351.03499990463024,,response,,,,99,,,,,,,Space,keypress(Space),,,,,,,,---- -- ----- -- ------ - ------- --- ----------<br>------------- ------ ------ ---- ---- ------- ----- -- ----<br>-------- ------- -- ---------- --- - --- ----- ----- ----<br>it's --- --- ----- --- ---- ---- ------- ----- ---- -------<br>--- --- -- ----- -- --- ---- -- --- ---- -- ------ ------<br>--- ----- -- ----,363750,363749.09999990463,363381.512,363389.59999990463,363398.065,363764.801,,28,it's
screen,html.Screen,2_1_0_1_29,2022-02-04T13:18:48.495Z,,,,,,,,,,,,,,,,,53,,,,,,,,,,,,,,324.89900004770607,,response,,,,99,,,,,,,Space,keypress(Space),,,,,,,,---- -- ----- -- ------ - ------- --- ----------<br>------------- ------ ------ ---- ---- ------- ----- -- ----<br>-------- ------- -- ---------- --- - --- ----- ----- ----<br>---- not --- ----- --- ---- ---- ------- ----- ---- -------<br>--- --- -- ----- -- --- ---- -- --- ---- -- ------ ------<br>--- ----- -- ----,364090.90000009537,364089.7000000477,363748.136,363750,363764.801,364098.692,,29,not
screen,html.Screen,2_1_0_1_30,2022-02-04T13:18:48.873Z,,,,,,,,,,,,,,,,,53,,,,,,,,,,,,,,369.1079999523354,,response,,,,99,,,,,,,Space,keypress(Space),,,,,,,,---- -- ----- -- ------ - ------- --- ----------<br>------------- ------ ------ ---- ---- ------- ----- -- ----<br>-------- ------- -- ---------- --- - --- ----- ----- ----<br>---- --- how ----- --- ---- ---- ------- ----- ---- -------<br>--- --- -- ----- -- --- ---- -- --- ---- -- ------ ------<br>--- ----- -- ----,364469,364467.7999999523,364081.435,364091.09999990463,364098.692,364481.365,,30,how
screen,html.Screen,2_1_0_1_31,2022-02-04T13:18:49.203Z,,,,,,,,,,,,,,,,,53,,,,,,,,,,,,,,317.1350000000093,,response,,,,99,,,,,,,Space,keypress(Space),,,,,,,,---- -- ----- -- ------ - ------- --- ----------<br>------------- ------ ------ ---- ---- ------- ----- -- ----<br>-------- ------- -- ---------- --- - --- ----- ----- ----<br>---- --- --- close --- ---- ---- ------- ----- ---- -------<br>--- --- -- ----- -- --- ---- -- --- ---- -- ------ ------<br>--- ----- -- ----,364799.40000009537,364798.5,364464.716,364469.2000000477,364481.365,364814.903,,31,close
screen,html.Screen,2_1_0_1_32,2022-02-04T13:18:49.574Z,,,,,,,,,,,,,,,,,53,,,,,,,,,,,,,,353.39699995232513,,response,,,,99,,,,,,,Space,keypress(Space),,,,,,,,---- -- ----- -- ------ - ------- --- ----------<br>------------- ------ ------ ---- ---- ------- ----- -- ----<br>-------- ------- -- ---------- --- - --- ----- ----- ----<br>---- --- --- ----- you ---- ---- ------- ----- ---- -------<br>--- --- -- ----- -- --- ---- -- --- ---- -- ------ ------<br>--- ----- -- ----,365169.5,365168.2999999523,364798.001,364799.59999990463,364814.903,365181.3,,32,you
screen,html.Screen,2_1_0_1_33,2022-02-04T13:18:49.906Z,,,,,,,,,,,,,,,,,53,,,,,,,,,,,,,,319.1000000953791,,response,,,,99,,,,,,,Space,keypress(Space),,,,,,,,---- -- ----- -- ------ - ------- --- ----------<br>------------- ------ ------ ---- ---- ------- ----- -- ----<br>-------- ------- -- ---------- --- - --- ----- ----- ----<br>---- --- --- ----- --- feel ---- ------- ----- ---- -------<br>--- --- -- ----- -- --- ---- -- --- ---- -- ------ ------<br>--- ----- -- ----,365501.59999990463,365500.40000009537,365164.623,365169.7000000477,365181.3,365514.567,,33,feel
screen,html.Screen,2_1_0_1_34,2022-02-04T13:18:50.221Z,,,,,,,,,,,,,,,,,53,,,,,,,,,,,,,,301.1330000477028,,response,,,,99,,,,,,,Space,keypress(Space),,,,,,,,---- -- ----- -- ------ - ------- --- ----------<br>------------- ------ ------ ---- ---- ------- ----- -- ----<br>-------- ------- -- ---------- --- - --- ----- ----- ----<br>---- --- --- ----- --- ---- that ------- ----- ---- -------<br>--- --- -- ----- -- --- ---- -- --- ---- -- ------ ------<br>--- ----- -- ----,365816.90000009537,365815.7000000477,365497.83,365501.7000000477,365514.567,365831.171,,34,that
screen,html.Screen,2_1_0_1_35,2022-02-04T13:18:50.540Z,,,,,,,,,,,,,,,,,53,,,,,,,,,,,,,,303.72900009539444,,response,,,,99,,,,,,,Space,keypress(Space),,,,,,,,---- -- ----- -- ------ - ------- --- ----------<br>------------- ------ ------ ---- ---- ------- ----- -- ----<br>-------- ------- -- ---------- --- - --- ----- ----- ----<br>---- --- --- ----- --- ---- ---- matters ----- ---- -------<br>--- --- -- ----- -- --- ---- -- --- ---- -- ------ ------<br>--- ----- -- ----,366135.90000009537,366134.90000009537,365814.461,365817,365831.171,366147.76,,35,matters
screen,html.Screen,2_1_0_1_36,2022-02-04T13:18:50.827Z,,,,,,,,,,,,,,,,,53,,,,,,,,,,,,,,274.03999995230697,,response,,,,99,,,,,,,Space,keypress(Space),,,,,,,,"---- -- ----- -- ------ - ------- --- ----------<br>------------- ------ ------ ---- ---- ------- ----- -- ----<br>-------- ------- -- ---------- --- - --- ----- ----- ----<br>---- --- --- ----- --- ---- ---- ------- most, ---- -------<br>--- --- -- ----- -- --- ---- -- --- ---- -- ------ ------<br>--- ----- -- ----",366422.59999990463,366421.7999999523,366131.146,366136.09999990463,366147.76,366431.061,,36,"most,"
screen,html.Screen,2_1_0_1_37,2022-02-04T13:18:51.207Z,,,,,,,,,,,,,,,,,53,,,,,,,,,,,,,,370.93900000001304,,response,,,,99,,,,,,,Space,keypress(Space),,,,,,,,---- -- ----- -- ------ - ------- --- ----------<br>------------- ------ ------ ---- ---- ------- ----- -- ----<br>-------- ------- -- ---------- --- - --- ----- ----- ----<br>---- --- --- ----- --- ---- ---- ------- ----- it's -------<br>--- --- -- ----- -- --- ---- -- --- ---- -- ------ ------<br>--- ----- -- ----,366803.2999999523,366802,366414.43,366422.7999999523,366431.061,366814.328,,37,it's
screen,html.Screen,2_1_0_1_38,2022-02-04T13:18:51.529Z,,,,,,,,,,,,,,,,,53,,,,,,,,,,,,,,309.5720000953879,,response,,,,99,,,,,,,Space,keypress(Space),,,,,,,,---- -- ----- -- ------ - ------- --- ----------<br>------------- ------ ------ ---- ---- ------- ----- -- ----<br>-------- ------- -- ---------- --- - --- ----- ----- ----<br>---- --- --- ----- --- ---- ---- ------- ----- ---- whether<br>--- --- -- ----- -- --- ---- -- --- ---- -- ------ ------<br>--- ----- -- ----,367124.7999999523,367123.90000009537,366797.74,366803.5,366814.328,367131.116,,38,whether
screen,html.Screen,2_1_0_1_39,2022-02-04T13:18:51.837Z,,,,,,,,,,,,,,,,,53,,,,,,,,,,,,,,300.88400000002,,response,,,,99,,,,,,,Space,keypress(Space),,,,,,,,---- -- ----- -- ------ - ------- --- ----------<br>------------- ------ ------ ---- ---- ------- ----- -- ----<br>-------- ------- -- ---------- --- - --- ----- ----- ----<br>---- --- --- ----- --- ---- ---- ------- ----- ---- -------<br>you --- -- ----- -- --- ---- -- --- ---- -- ------ ------<br>--- ----- -- ----,367433.2000000477,367432,367114.358,367124.90000009537,367131.116,367448.008,,39,you
screen,html.Screen,2_1_0_1_40,2022-02-04T13:18:52.147Z,,,,,,,,,,,,,,,,,53,,,,,,,,,,,,,,293.8920000953949,,response,,,,99,,,,,,,Space,keypress(Space),,,,,,,,---- -- ----- -- ------ - ------- --- ----------<br>------------- ------ ------ ---- ---- ------- ----- -- ----<br>-------- ------- -- ---------- --- - --- ----- ----- ----<br>---- --- --- ----- --- ---- ---- ------- ----- ---- -------<br>--- are -- ----- -- --- ---- -- --- ---- -- ------ ------<br>--- ----- -- ----,367743.09999990463,367741.90000009537,367430.968,367433.40000009537,367448.008,367747.485,,40,are
screen,html.Screen,2_1_0_1_41,2022-02-04T13:18:52.457Z,,,,,,,,,,,,,,,,,53,,,,,,,,,,,,,,304.51500000001397,,response,,,,99,,,,,,,Space,keypress(Space),,,,,,,,---- -- ----- -- ------ - ------- --- ----------<br>------------- ------ ------ ---- ---- ------- ----- -- ----<br>-------- ------- -- ---------- --- - --- ----- ----- ----<br>---- --- --- ----- --- ---- ---- ------- ----- ---- -------<br>--- --- as ----- -- --- ---- -- --- ---- -- ------ ------<br>--- ----- -- ----,368052.7999999523,368052,367730.914,367743.2000000477,367747.485,368064.224,,41,as
screen,html.Screen,2_1_0_1_42,2022-02-04T13:18:52.817Z,,,,,,,,,,,,,,,,,53,,,,,,,,,,,,,,347.67600009538,,response,,,,99,,,,,,,Space,keypress(Space),,,,,,,,---- -- ----- -- ------ - ------- --- ----------<br>------------- ------ ------ ---- ---- ------- ----- -- ----<br>-------- ------- -- ---------- --- - --- ----- ----- ----<br>---- --- --- ----- --- ---- ---- ------- ----- ---- -------<br>--- --- -- close -- --- ---- -- --- ---- -- ------ ------<br>--- ----- -- ----,368413.09999990463,368411.90000009537,368047.536,368053,368064.224,368437.065,,42,close
screen,html.Screen,2_1_0_1_43,2022-02-04T13:18:53.157Z,,,,,,,,,,,,,,,,,53,,,,,,,,,,,,,,314.23499995231396,,response,,,,99,,,,,,,Space,keypress(Space),,,,,,,,---- -- ----- -- ------ - ------- --- ----------<br>------------- ------ ------ ---- ---- ------- ----- -- ----<br>-------- ------- -- ---------- --- - --- ----- ----- ----<br>---- --- --- ----- --- ---- ---- ------- ----- ---- -------<br>--- --- -- ----- as --- ---- -- --- ---- -- ------ ------<br>--- ----- -- ----,368752.5,368751.2999999523,368397.501,368413.2999999523,368437.065,368764.092,,43,as
screen,html.Screen,2_1_0_1_44,2022-02-04T13:18:53.504Z,,,,,,,,,,,,,,,,,53,,,,,,,,,,,,,,334.30800009536324,,response,,,,99,,,,,,,Space,keypress(Space),,,,,,,,---- -- ----- -- ------ - ------- --- ----------<br>------------- ------ ------ ---- ---- ------- ----- -- ----<br>-------- ------- -- ---------- --- - --- ----- ----- ----<br>---- --- --- ----- --- ---- ---- ------- ----- ---- -------<br>--- --- -- ----- -- you ---- -- --- ---- -- ------ ------<br>--- ----- -- ----,369099.59999990463,369098.40000009537,368747.449,368752.7000000477,368764.092,369114.075,,44,you
screen,html.Screen,2_1_0_1_45,2022-02-04T13:18:53.831Z,,,,,,,,,,,,,,,,,53,,,,,,,,,,,,,,311.72499995230464,,response,,,,99,,,,,,,Space,keypress(Space),,,,,,,,---- -- ----- -- ------ - ------- --- ----------<br>------------- ------ ------ ---- ---- ------- ----- -- ----<br>-------- ------- -- ---------- --- - --- ----- ----- ----<br>---- --- --- ----- --- ---- ---- ------- ----- ---- -------<br>--- --- -- ----- -- --- want -- --- ---- -- ------ ------<br>--- ----- -- ----,369427,369425.7999999523,369097.387,369099.7000000477,369114.075,369430.583,,45,want
screen,html.Screen,2_1_0_1_46,2022-02-04T13:18:54.186Z,,,,,,,,,,,,,,,,,53,,,,,,,,,,,,,,350.11700004769955,,response,,,,99,,,,,,,Space,keypress(Space),,,,,,,,---- -- ----- -- ------ - ------- --- ----------<br>------------- ------ ------ ---- ---- ------- ----- -- ----<br>-------- ------- -- ---------- --- - --- ----- ----- ----<br>---- --- --- ----- --- ---- ---- ------- ----- ---- -------<br>--- --- -- ----- -- --- ---- to --- ---- -- ------ ------<br>--- ----- -- ----,369782.2000000477,369780.7000000477,369414.023,369427.2000000477,369430.583,369797.291,,46,to
screen,html.Screen,2_1_0_1_47,2022-02-04T13:18:54.470Z,,,,,,,,,,,,,,,,,53,,,,,,,,,,,,,,267.4090000476572,,response,,,,99,,,,,,,Space,keypress(Space),,,,,,,,"---- -- ----- -- ------ - ------- --- ----------<br>------------- ------ ------ ---- ---- ------- ----- -- ----<br>-------- ------- -- ---------- --- - --- ----- ----- ----<br>---- --- --- ----- --- ---- ---- ------- ----- ---- -------<br>--- --- -- ----- -- --- ---- -- be, ---- -- ------ ------<br>--- ----- -- ----",370065.59999990463,370064.7000000477,369780.589,369782.40000009537,369797.291,370080.595,,47,"be,"
screen,html.Screen,2_1_0_1_48,2022-02-04T13:18:54.791Z,,,,,,,,,,,,,,,,,53,,,,,,,,,,,,,,304.90500000002794,,response,,,,99,,,,,,,Space,keypress(Space),,,,,,,,---- -- ----- -- ------ - ------- --- ----------<br>------------- ------ ------ ---- ---- ------- ----- -- ----<br>-------- ------- -- ---------- --- - --- ----- ----- ----<br>---- --- --- ----- --- ---- ---- ------- ----- ---- -------<br>--- --- -- ----- -- --- ---- -- --- even -- ------ ------<br>--- ----- -- ----,370386.7000000477,370385.5,370063.921,370065.7999999523,370080.595,370397.208,,48,even
screen,html.Screen,2_1_0_1_49,2022-02-04T13:18:55.092Z,,,,,,,,,,,,,,,,,53,,,,,,,,,,,,,,289.5919999523321,,response,,,,99,,,,,,,Space,keypress(Space),,,,,,,,---- -- ----- -- ------ - ------- --- ----------<br>------------- ------ ------ ---- ---- ------- ----- -- ----<br>-------- ------- -- ---------- --- - --- ----- ----- ----<br>---- --- --- ----- --- ---- ---- ------- ----- ---- -------<br>--- --- -- ----- -- --- ---- -- --- ---- if ------ ------<br>--- ----- -- ----,370688.09999990463,370686.7999999523,370380.548,370386.7999999523,370397.208,370697.101,,49,if
screen,html.Screen,2_1_0_1_50,2022-02-04T13:18:55.379Z,,,,,,,,,,,,,,,,,53,,,,,,,,,,,,,,277.2990000953432,,response,,,,99,,,,,,,Space,keypress(Space),,,,,,,,---- -- ----- -- ------ - ------- --- ----------<br>------------- ------ ------ ---- ---- ------- ----- -- ----<br>-------- ------- -- ---------- --- - --- ----- ----- ----<br>---- --- --- ----- --- ---- ---- ------- ----- ---- -------<br>--- --- -- ----- -- --- ---- -- --- ---- -- that's ------<br>--- ----- -- ----,370975.40000009537,370974.40000009537,370680.493,370688.2999999523,370697.101,370980.343,,50,that's
screen,html.Screen,2_1_0_1_51,2022-02-04T13:18:55.732Z,,,,,,,,,,,,,,,,,53,,,,,,,,,,,,,,346.6570000000065,,response,,,,99,,,,,,,Space,keypress(Space),,,,,,,,---- -- ----- -- ------ - ------- --- ----------<br>------------- ------ ------ ---- ---- ------- ----- -- ----<br>-------- ------- -- ---------- --- - --- ----- ----- ----<br>---- --- --- ----- --- ---- ---- ------- ----- ---- -------<br>--- --- -- ----- -- --- ---- -- --- ---- -- ------ really<br>--- ----- -- ----,371328.2000000477,371327,370963.784,370975.40000009537,370980.343,371330.317,,51,really
screen,html.Screen,2_1_0_1_52,2022-02-04T13:18:56.093Z,,,,,,,,,,,,,,,,,53,,,,,,,,,,,,,,357.3830000477028,,response,,,,99,,,,,,,Space,keypress(Space),,,,,,,,---- -- ----- -- ------ - ------- --- ----------<br>------------- ------ ------ ---- ---- ------- ----- -- ----<br>-------- ------- -- ---------- --- - --- ----- ----- ----<br>---- --- --- ----- --- ---- ---- ------- ----- ---- -------<br>--- --- -- ----- -- --- ---- -- --- ---- -- ------ ------<br>not ----- -- ----,371689,371687.7000000477,371314.141,371328.40000009537,371330.317,371697.059,,52,not
screen,html.Screen,2_1_0_1_53,2022-02-04T13:18:56.436Z,,,,,,,,,,,,,,,,,53,,,,,,,,,,,,,,334.14100004767533,,response,,,,99,,,,,,,Space,keypress(Space),,,,,,,,---- -- ----- -- ------ - ------- --- ----------<br>------------- ------ ------ ---- ---- ------- ----- -- ----<br>-------- ------- -- ---------- --- - --- ----- ----- ----<br>---- --- --- ----- --- ---- ---- ------- ----- ---- -------<br>--- --- -- ----- -- --- ---- -- --- ---- -- ------ ------<br>--- close -- ----,372032.40000009537,372031.2000000477,371680.375,371689.2999999523,371697.059,372047.031,,53,close
screen,html.Screen,2_1_0_1_54,2022-02-04T13:18:56.726Z,,,,,,,,,,,,,,,,,53,,,,,,,,,,,,,,273.6690000476665,,response,,,,99,,,,,,,Space,keypress(Space),,,,,,,,---- -- ----- -- ------ - ------- --- ----------<br>------------- ------ ------ ---- ---- ------- ----- -- ----<br>-------- ------- -- ---------- --- - --- ----- ----- ----<br>---- --- --- ----- --- ---- ---- ------- ----- ---- -------<br>--- --- -- ----- -- --- ---- -- --- ---- -- ------ ------<br>--- ----- at ----,372321.7999999523,372320.7000000477,372030.341,372032.5,372047.031,372330.198,,54,at
screen,html.Screen,2_1_0_1_55,2022-02-04T13:18:57.057Z,,,,,,,,,,,,,,,,,53,,,,,,,,,,,,,,321.10199995234143,,response,,,,99,,,,,,,Space,keypress(Space),,,,,,,,---- -- ----- -- ------ - ------- --- ----------<br>------------- ------ ------ ---- ---- ------- ----- -- ----<br>-------- ------- -- ---------- --- - --- ----- ----- ----<br>---- --- --- ----- --- ---- ---- ------- ----- ---- -------<br>--- --- -- ----- -- --- ---- -- --- ---- -- ------ ------<br>--- ----- -- all.,372652.5,372651.2999999523,372313.577,372322,372330.198,372663.505,,55,all.
Item 99,flow.Loop,2_1_0_1,2022-02-04T13:18:57.057Z,,,,,,,,,,,,,,,,,,,,,,,,,,,,,,,21084.89199995232,,completion,,,,,D,,,,,,,,,,,silence,,,,,372652.90000009537,372651.2999999523,351533.081,351534.09999990463,351566.408,372663.505,,,
Question 1,html.Screen,2_1_0_2,2022-02-04T13:19:01.451Z,,,,,,,,,,,,,,,,,,,,,,,,,,,,true,FALSE,,4381.494999999995,,response,,,,99,D,,,,,,FALSE,click #choice-2,,,,silence,,,,,377046.7999999523,377045,372646.899,372652.90000009537,372663.505,377066.848,,,
Question 2,html.Screen,2_1_0_3,2022-02-04T13:19:05.939Z,,,,,,,,,,,,,,,,,,,,,,,,,,,,true,TRUE,,4466.052000095369,,response,,,,99,D,,,,,,TRUE,click #choice-1,,,,silence,,,,,381534.90000009537,381532.90000009537,377029.521,377046.90000009537,377066.848,381545.632,,,
Item 99,flow.Sequence,2_1_0,2022-02-04T13:19:05.939Z,,,,,,,,,,,,,,,,,,,,,,,,,,,,,,,39981.738000095356,,completion,,,,,,,,,,,,,,,,,,,,,381535.09999990463,381532.90000009537,341534.955,341554,341551.162,381545.632,,,
Holding screen,html.Screen,2_1_1_0,2022-02-04T13:19:15.932Z,,,,,,,,,,,,,,,,,,,,,,,,,,,,,,,9998.537000000011,,timeout,,,,,,,,,,,,,,,,,,,,,391528.5,391527.564,381528.969,381535.2999999523,381545.632,391544.169,,,
screen,html.Screen,2_1_1_1_0,2022-02-04T13:19:17.523Z,,,,,,,,,,,,,,,,,54,,,,,,,,,,,,,,1574.4309999046382,,response,,,,100,,,,,,,Space,keypress(Space),,,,,,,,At --- ---- --- ------ ----- ------- ---- -- --- ------- --<br>------- ---------- ------ -- ----- -- ----- -- ---- ------<br>--- ----- --- --- ------ -------- ----- --- ------ ----- --<br>----- ----- ---------- --- --- ------ ------ ---- -- ------<br>------- --- ------ ----- --- ---- ------- -- ---- --- --<br>------- ------,393119.40000009537,393118.59999990463,391527.564,391528.59999990463,391544.169,393127.215,,0,At
screen,html.Screen,2_1_1_1_1,2022-02-04T13:19:17.799Z,,,,,,,,,,,,,,,,,54,,,,,,,,,,,,,,266.2849999999744,,response,,,,100,,,,,,,Space,keypress(Space),,,,,,,,-- the ---- --- ------ ----- ------- ---- -- --- ------- --<br>------- ---------- ------ -- ----- -- ----- -- ---- ------<br>--- ----- --- --- ------ -------- ----- --- ------ ----- --<br>----- ----- ---------- --- --- ------ ------ ---- -- ------<br>------- --- ------ ----- --- ---- ------- -- ---- --- --<br>------- ------,393394.90000009537,393393.5,393110.857,393119.59999990463,393127.215,393410.559,,1,the
screen,html.Screen,2_1_1_1_2,2022-02-04T13:19:18.134Z,,,,,,,,,,,,,,,,,54,,,,,,,,,,,,,,318.9409999999916,,response,,,,100,,,,,,,Space,keypress(Space),,,,,,,,-- --- time --- ------ ----- ------- ---- -- --- ------- --<br>------- ---------- ------ -- ----- -- ----- -- ---- ------<br>--- ----- --- --- ------ -------- ----- --- ------ ----- --<br>----- ----- ---------- --- --- ------ ------ ---- -- ------<br>------- --- ------ ----- --- ---- ------- -- ---- --- --<br>------- ------,393730.40000009537,393729.5,393393.872,393395,393410.559,393743.96,,2,time
screen,html.Screen,2_1_1_1_3,2022-02-04T13:19:18.449Z,,,,,,,,,,,,,,,,,54,,,,,,,,,,,,,,299.6399999046116,,response,,,,100,,,,,,,Space,keypress(Space),,,,,,,,-- --- ---- the ------ ----- ------- ---- -- --- ------- --<br>------- ---------- ------ -- ----- -- ----- -- ---- ------<br>--- ----- --- --- ------ -------- ----- --- ------ ----- --<br>----- ----- ---------- --- --- ------ ------ ---- -- ------<br>------- --- ------ ----- --- ---- ------- -- ---- --- --<br>------- ------,394044.59999990463,394043.59999990463,393727.208,393730.59999990463,393743.96,394060.58,,3,the
screen,html.Screen,2_1_1_1_4,2022-02-04T13:19:18.802Z,,,,,,,,,,,,,,,,,54,,,,,,,,,,,,,,336.7199999523,,response,,,,100,,,,,,,Space,keypress(Space),,,,,,,,-- --- ---- --- French ----- ------- ---- -- --- ------- --<br>------- ---------- ------ -- ----- -- ----- -- ---- ------<br>--- ----- --- --- ------ -------- ----- --- ------ ----- --<br>----- ----- ---------- --- --- ------ ------ ---- -- ------<br>------- --- ------ ----- --- ---- ------- -- ---- --- --<br>------- ------,394398.40000009537,394397.2999999523,394043.921,394044.90000009537,394060.58,394410.529,,4,French
screen,html.Screen,2_1_1_1_5,2022-02-04T13:19:19.107Z,,,,,,,,,,,,,,,,,54,,,,,,,,,,,,,,291.77099995233584,,response,,,,100,,,,,,,Space,keypress(Space),,,,,,,,-- --- ---- --- ------ crown ------- ---- -- --- ------- --<br>------- ---------- ------ -- ----- -- ----- -- ---- ------<br>--- ----- --- --- ------ -------- ----- --- ------ ----- --<br>----- ----- ---------- --- --- ------ ------ ---- -- ------<br>------- --- ------ ----- --- ---- ------- -- ---- --- --<br>------- ------,394703.5,394702.2999999523,394393.855,394398.59999990463,394410.529,394710.448,,5,crown
screen,html.Screen,2_1_1_1_6,2022-02-04T13:19:19.451Z,,,,,,,,,,,,,,,,,54,,,,,,,,,,,,,,335.25200004770886,,response,,,,100,,,,,,,Space,keypress(Space),,,,,,,,-- --- ---- --- ------ ----- secured ---- -- --- ------- --<br>------- ---------- ------ -- ----- -- ----- -- ---- ------<br>--- ----- --- --- ------ -------- ----- --- ------ ----- --<br>----- ----- ---------- --- --- ------ ------ ---- -- ------<br>------- --- ------ ----- --- ---- ------- -- ---- --- --<br>------- ------,395046.5,395045.7000000477,394694.385,394703.59999990463,394710.448,395060.641,,6,secured
screen,html.Screen,2_1_1_1_7,2022-02-04T13:19:19.889Z,,,,,,,,,,,,,,,,,54,,,,,,,,,,,,,,422.9589999046293,,response,,,,100,,,,,,,Space,keypress(Space),,,,,,,,-- --- ---- --- ------ ----- ------- much -- --- ------- --<br>------- ---------- ------ -- ----- -- ----- -- ---- ------<br>--- ----- --- --- ------ -------- ----- --- ------ ----- --<br>----- ----- ---------- --- --- ------ ------ ---- -- ------<br>------- --- ------ ----- --- ---- ------- -- ---- --- --<br>------- ------,395484.7000000477,395483.59999990463,395043.791,395046.59999990463,395060.641,395493.679,,7,much
screen,html.Screen,2_1_1_1_8,2022-02-04T13:19:20.255Z,,,,,,,,,,,,,,,,,54,,,,,,,,,,,,,,355.7210000953637,,response,,,,100,,,,,,,Space,keypress(Space),,,,,,,,-- --- ---- --- ------ ----- ------- ---- of --- ------- --<br>------- ---------- ------ -- ----- -- ----- -- ---- ------<br>--- ----- --- --- ------ -------- ----- --- ------ ----- --<br>----- ----- ---------- --- --- ------ ------ ---- -- ------<br>------- --- ------ ----- --- ---- ------- -- ---- --- --<br>------- ------,395850.5,395849.40000009537,395477.08,395484.90000009537,395493.679,395860.26,,8,of
screen,html.Screen,2_1_1_1_9,2022-02-04T13:19:20.598Z,,,,,,,,,,,,,,,,,54,,,,,,,,,,,,,,332.2399999999907,,response,,,,100,,,,,,,Space,keypress(Space),,,,,,,,-- --- ---- --- ------ ----- ------- ---- -- its ------- --<br>------- ---------- ------ -- ----- -- ----- -- ---- ------<br>--- ----- --- --- ------ -------- ----- --- ------ ----- --<br>----- ----- ---------- --- --- ------ ------ ---- -- ------<br>------- --- ------ ----- --- ---- ------- -- ---- --- --<br>------- ------,396193.59999990463,396192.5,395843.884,395850.7000000477,395860.26,396210.201,,9,its
screen,html.Screen,2_1_1_1_10,2022-02-04T13:19:21.022Z,,,,,,,,,,,,,,,,,54,,,,,,,,,,,,,,406.79899999999907,,response,,,,100,,,,,,,Space,keypress(Space),,,,,,,,-- --- ---- --- ------ ----- ------- ---- -- --- revenue --<br>------- ---------- ------ -- ----- -- ----- -- ---- ------<br>--- ----- --- --- ------ -------- ----- --- ------ ----- --<br>----- ----- ---------- --- --- ------ ------ ---- -- ------<br>------- --- ------ ----- --- ---- ------- -- ---- --- --<br>------- ------,396618.09999990463,396617,396178.044,396193.7999999523,396210.201,396626.814,,10,revenue
screen,html.Screen,2_1_1_1_11,2022-02-04T13:19:21.417Z,,,,,,,,,,,,,,,,,54,,,,,,,,,,,,,,384.98599995230325,,response,,,,100,,,,,,,Space,keypress(Space),,,,,,,,-- --- ---- --- ------ ----- ------- ---- -- --- ------- by<br>------- ---------- ------ -- ----- -- ----- -- ---- ------<br>--- ----- --- --- ------ -------- ----- --- ------ ----- --<br>----- ----- ---------- --- --- ------ ------ ---- -- ------<br>------- --- ------ ----- --- ---- ------- -- ---- --- --<br>------- ------,397013,397011.7999999523,396610.277,396618.2999999523,396626.814,397026.83,,11,by
screen,html.Screen,2_1_1_1_12,2022-02-04T13:19:21.879Z,,,,,,,,,,,,,,,,,54,,,,,,,,,,,,,,446.57000009535113,,response,,,,100,,,,,,,Space,keypress(Space),,,,,,,,-- --- ---- --- ------ ----- ------- ---- -- --- ------- --<br>issuing ---------- ------ -- ----- -- ----- -- ---- ------<br>--- ----- --- --- ------ -------- ----- --- ------ ----- --<br>----- ----- ---------- --- --- ------ ------ ---- -- ------<br>------- --- ------ ----- --- ---- ------- -- ---- --- --<br>------- ------,397474.7000000477,397473.40000009537,397011.052,397013.2000000477,397026.83,397476.67,,12,issuing
screen,html.Screen,2_1_1_1_13,2022-02-04T13:19:22.241Z,,,,,,,,,,,,,,,,,54,,,,,,,,,,,,,,358.92999990464887,,response,,,,100,,,,,,,Space,keypress(Space),,,,,,,,-- --- ---- --- ------ ----- ------- ---- -- --- ------- --<br>------- government ------ -- ----- -- ----- -- ---- ------<br>--- ----- --- --- ------ -------- ----- --- ------ ----- --<br>----- ----- ---------- --- --- ------ ------ ---- -- ------<br>------- --- ------ ----- --- ---- ------- -- ---- --- --<br>------- ------,397836.90000009537,397835.59999990463,397460.14,397474.7999999523,397476.67,397843.249,,13,government
screen,html.Screen,2_1_1_1_14,2022-02-04T13:19:22.630Z,,,,,,,,,,,,,,,,,54,,,,,,,,,,,,,,381.2509999999893,,response,,,,100,,,,,,,Space,keypress(Space),,,,,,,,-- --- ---- --- ------ ----- ------- ---- -- --- ------- --<br>------- ---------- bonds. -- ----- -- ----- -- ---- ------<br>--- ----- --- --- ------ -------- ----- --- ------ ----- --<br>----- ----- ---------- --- --- ------ ------ ---- -- ------<br>------- --- ------ ----- --- ---- ------- -- ---- --- --<br>------- ------,398225.7999999523,398224.5,397826.726,397837,397843.249,398259.983,,14,bonds.
screen,html.Screen,2_1_1_1_15,2022-02-04T13:19:23.440Z,,,,,,,,,,,,,,,,,54,,,,,,,,,,,,,,774.6169999046251,,response,,,,100,,,,,,,Space,keypress(Space),,,,,,,,-- --- ---- --- ------ ----- ------- ---- -- --- ------- --<br>------- ---------- ------ In ----- -- ----- -- ---- ------<br>--- ----- --- --- ------ -------- ----- --- ------ ----- --<br>----- ----- ---------- --- --- ------ ------ ---- -- ------<br>------- --- ------ ----- --- ---- ------- -- ---- --- --<br>------- ------,399035.5,399034.59999990463,398250.153,398226,398259.983,399043.158,,15,In
screen,html.Screen,2_1_1_1_16,2022-02-04T13:19:23.763Z,,,,,,,,,,,,,,,,,54,,,,,,,,,,,,,,314.3420000000042,,response,,,,100,,,,,,,Space,keypress(Space),,,,,,,,"-- --- ---- --- ------ ----- ------- ---- -- --- ------- --<br>------- ---------- ------ -- 1727, -- ----- -- ---- ------<br>--- ----- --- --- ------ -------- ----- --- ------ ----- --<br>----- ----- ---------- --- --- ------ ------ ---- -- ------<br>------- --- ------ ----- --- ---- ------- -- ---- --- --<br>------- ------",399358.7999999523,399357.5,399026.583,399035.7000000477,399043.158,399388.584,,16,"1727,"
screen,html.Screen,2_1_1_1_17,2022-02-04T13:19:24.626Z,,,,,,,,,,,,,,,,,54,,,,,,,,,,,,,,832.2159999523428,,response,,,,100,,,,,,,Space,keypress(Space),,,,,,,,-- --- ---- --- ------ ----- ------- ---- -- --- ------- --<br>------- ---------- ------ -- ----- in ----- -- ---- ------<br>--- ----- --- --- ------ -------- ----- --- ------ ----- --<br>----- ----- ---------- --- --- ------ ------ ---- -- ------<br>------- --- ------ ----- --- ---- ------- -- ---- --- --<br>------- ------,400221.7999999523,400220.7999999523,399343.577,399359,399388.584,400226.26,,17,in
screen,html.Screen,2_1_1_1_18,2022-02-04T13:19:25.047Z,,,,,,,,,,,,,,,,,54,,,,,,,,,,,,,,416.1400000953581,,response,,,,100,,,,,,,Space,keypress(Space),,,,,,,,-- --- ---- --- ------ ----- ------- ---- -- --- ------- --<br>------- ---------- ------ -- ----- -- order -- ---- ------<br>--- ----- --- --- ------ -------- ----- --- ------ ----- --<br>----- ----- ---------- --- --- ------ ------ ---- -- ------<br>------- --- ------ ----- --- ---- ------- -- ---- --- --<br>------- ------,400643.2999999523,400642.40000009537,400209.856,400221.90000009537,400226.26,400659.632,,18,order
screen,html.Screen,2_1_1_1_19,2022-02-04T13:19:25.364Z,,,,,,,,,,,,,,,,,54,,,,,,,,,,,,,,299.5680000477005,,response,,,,100,,,,,,,Space,keypress(Space),,,,,,,,-- --- ---- --- ------ ----- ------- ---- -- --- ------- --<br>------- ---------- ------ -- ----- -- ----- to ---- ------<br>--- ----- --- --- ------ -------- ----- --- ------ ----- --<br>----- ----- ---------- --- --- ------ ------ ---- -- ------<br>------- --- ------ ----- --- ---- ------- -- ---- --- --<br>------- ------,400960.09999990463,400959.2000000477,400642.938,400643.40000009537,400659.632,400976.198,,19,to
screen,html.Screen,2_1_1_1_20,2022-02-04T13:19:25.623Z,,,,,,,,,,,,,,,,,54,,,,,,,,,,,,,,241.9019999046577,,response,,,,100,,,,,,,Space,keypress(Space),,,,,,,,-- --- ---- --- ------ ----- ------- ---- -- --- ------- --<br>------- ---------- ------ -- ----- -- ----- -- save ------<br>--- ----- --- --- ------ -------- ----- --- ------ ----- --<br>----- ----- ---------- --- --- ------ ------ ---- -- ------<br>------- --- ------ ----- --- ---- ------- -- ---- --- --<br>------- ------,401219.2999999523,401218.09999990463,400959.558,400960.2000000477,400976.198,401226.108,,20,save
screen,html.Screen,2_1_1_1_21,2022-02-04T13:19:25.997Z,,,,,,,,,,,,,,,,,54,,,,,,,,,,,,,,366.4919999046251,,response,,,,100,,,,,,,Space,keypress(Space),,,,,,,,"-- --- ---- --- ------ ----- ------- ---- -- --- ------- --<br>------- ---------- ------ -- ----- -- ----- -- ---- money,<br>--- ----- --- --- ------ -------- ----- --- ------ ----- --<br>----- ----- ---------- --- --- ------ ------ ---- -- ------<br>------- --- ------ ----- --- ---- ------- -- ---- --- --<br>------- ------",401593.40000009537,401592.59999990463,401209.49,401219.40000009537,401226.108,401609.372,,21,"money,"
screen,html.Screen,2_1_1_1_22,2022-02-04T13:19:26.514Z,,,,,,,,,,,,,,,,,54,,,,,,,,,,,,,,499.22799990465865,,response,,,,100,,,,,,,Space,keypress(Space),,,,,,,,-- --- ---- --- ------ ----- ------- ---- -- --- ------- --<br>------- ---------- ------ -- ----- -- ----- -- ---- ------<br>the ----- --- --- ------ -------- ----- --- ------ ----- --<br>----- ----- ---------- --- --- ------ ------ ---- -- ------<br>------- --- ------ ----- --- ---- ------- -- ---- --- --<br>------- ------,402109.7000000477,402108.59999990463,401592.735,401593.5,401609.372,402126.022,,22,the
screen,html.Screen,2_1_1_1_23,2022-02-04T13:19:26.852Z,,,,,,,,,,,,,,,,,54,,,,,,,,,,,,,,320.8780000953702,,response,,,,100,,,,,,,Space,keypress(Space),,,,,,,,-- --- ---- --- ------ ----- ------- ---- -- --- ------- --<br>------- ---------- ------ -- ----- -- ----- -- ---- ------<br>--- state --- --- ------ -------- ----- --- ------ ----- --<br>----- ----- ---------- --- --- ------ ------ ---- -- ------<br>------- --- ------ ----- --- ---- ------- -- ---- --- --<br>------- ------,402447.7000000477,402446.90000009537,402109.375,402109.90000009537,402126.022,402459.439,,23,state
screen,html.Screen,2_1_1_1_24,2022-02-04T13:19:27.227Z,,,,,,,,,,,,,,,,,54,,,,,,,,,,,,,,362.2610000476707,,response,,,,100,,,,,,,Space,keypress(Space),,,,,,,,-- --- ---- --- ------ ----- ------- ---- -- --- ------- --<br>------- ---------- ------ -- ----- -- ----- -- ---- ------<br>--- ----- cut --- ------ -------- ----- --- ------ ----- --<br>----- ----- ---------- --- --- ------ ------ ---- -- ------<br>------- --- ------ ----- --- ---- ------- -- ---- --- --<br>------- ------,402822.7000000477,402821.7000000477,402443.028,402447.7000000477,402459.439,402826.222,,24,cut
screen,html.Screen,2_1_1_1_25,2022-02-04T13:19:27.612Z,,,,,,,,,,,,,,,,,54,,,,,,,,,,,,,,379.77799999999115,,response,,,,100,,,,,,,Space,keypress(Space),,,,,,,,-- --- ---- --- ------ ----- ------- ---- -- --- ------- --<br>------- ---------- ------ -- ----- -- ----- -- ---- ------<br>--- ----- --- the ------ -------- ----- --- ------ ----- --<br>----- ----- ---------- --- --- ------ ------ ---- -- ------<br>------- --- ------ ----- --- ---- ------- -- ---- --- --<br>------- ------,403207.7999999523,403206,402809.465,402822.7999999523,402826.222,403242.517,,25,the
screen,html.Screen,2_1_1_1_26,2022-02-04T13:19:28.795Z,,,,,,,,,,,,,,,,,54,,,,,,,,,,,,,,1147.4830000000075,,response,,,,100,,,,,,,Space,keypress(Space),,,,,,,,-- --- ---- --- ------ ----- ------- ---- -- --- ------- --<br>------- ---------- ------ -- ----- -- ----- -- ---- ------<br>--- ----- --- --- bonds' -------- ----- --- ------ ----- --<br>----- ----- ---------- --- --- ------ ------ ---- -- ------<br>------- --- ------ ----- --- ---- ------- -- ---- --- --<br>------- ------,404391.2000000477,404390,403239.127,403208.40000009537,403242.517,404409.678,,26,bonds'
screen,html.Screen,2_1_1_1_27,2022-02-04T13:19:29.301Z,,,,,,,,,,,,,,,,,54,,,,,,,,,,,,,,486.722000095353,,response,,,,100,,,,,,,Space,keypress(Space),,,,,,,,-- --- ---- --- ------ ----- ------- ---- -- --- ------- --<br>------- ---------- ------ -- ----- -- ----- -- ---- ------<br>--- ----- --- --- ------ interest ----- --- ------ ----- --<br>----- ----- ---------- --- --- ------ ------ ---- -- ------<br>------- --- ------ ----- --- ---- ------- -- ---- --- --<br>------- ------,404897.40000009537,404896.40000009537,404376.261,404391.40000009537,404409.678,404909.616,,27,interest
screen,html.Screen,2_1_1_1_28,2022-02-04T13:19:29.685Z,,,,,,,,,,,,,,,,,54,,,,,,,,,,,,,,370.4839999046526,,response,,,,100,,,,,,,Space,keypress(Space),,,,,,,,-- --- ---- --- ------ ----- ------- ---- -- --- ------- --<br>------- ---------- ------ -- ----- -- ----- -- ---- ------<br>--- ----- --- --- ------ -------- rate. --- ------ ----- --<br>----- ----- ---------- --- --- ------ ------ ---- -- ------<br>------- --- ------ ----- --- ---- ------- -- ---- --- --<br>------- ------,405281,405280.09999990463,404892.997,404897.5,404909.616,405292.311,,28,rate.
screen,html.Screen,2_1_1_1_29,2022-02-04T13:19:31.122Z,,,,,,,,,,,,,,,,,54,,,,,,,,,,,,,,1424.7889999046456,,response,,,,100,,,,,,,Space,keypress(Space),,,,,,,,-- --- ---- --- ------ ----- ------- ---- -- --- ------- --<br>------- ---------- ------ -- ----- -- ----- -- ---- ------<br>--- ----- --- --- ------ -------- ----- The ------ ----- --<br>----- ----- ---------- --- --- ------ ------ ---- -- ------<br>------- --- ------ ----- --- ---- ------- -- ---- --- --<br>------- ------,406718.2000000477,406717.09999990463,405275.696,405281.09999990463,405292.311,406725.402,,29,The
screen,html.Screen,2_1_1_1_30,2022-02-04T13:19:31.466Z,,,,,,,,,,,,,,,,,54,,,,,,,,,,,,,,335.09799999999814,,response,,,,100,,,,,,,Space,keypress(Space),,,,,,,,-- --- ---- --- ------ ----- ------- ---- -- --- ------- --<br>------- ---------- ------ -- ----- -- ----- -- ---- ------<br>--- ----- --- --- ------ -------- ----- --- market ----- --<br>----- ----- ---------- --- --- ------ ------ ---- -- ------<br>------- --- ------ ----- --- ---- ------- -- ---- --- --<br>------- ------,407061.59999990463,407060.5,406708.925,406718.2999999523,406725.402,407075.433,,30,market
screen,html.Screen,2_1_1_1_31,2022-02-04T13:19:31.789Z,,,,,,,,,,,,,,,,,54,,,,,,,,,,,,,,308.3669999522972,,response,,,,100,,,,,,,Space,keypress(Space),,,,,,,,-- --- ---- --- ------ ----- ------- ---- -- --- ------- --<br>------- ---------- ------ -- ----- -- ----- -- ---- ------<br>--- ----- --- --- ------ -------- ----- --- ------ value --<br>----- ----- ---------- --- --- ------ ------ ---- -- ------<br>------- --- ------ ----- --- ---- ------- -- ---- --- --<br>------- ------,407384.90000009537,407383.7999999523,407059.163,407061.7999999523,407075.433,407392.008,,31,value
screen,html.Screen,2_1_1_1_32,2022-02-04T13:19:32.806Z,,,,,,,,,,,,,,,,,54,,,,,,,,,,,,,,1008.9920000000275,,response,,,,100,,,,,,,Space,keypress(Space),,,,,,,,-- --- ---- --- ------ ----- ------- ---- -- --- ------- --<br>------- ---------- ------ -- ----- -- ----- -- ---- ------<br>--- ----- --- --- ------ -------- ----- --- ------ ----- of<br>----- ----- ---------- --- --- ------ ------ ---- -- ------<br>------- --- ------ ----- --- ---- ------- -- ---- --- --<br>------- ------,408402.40000009537,408401,407375.386,407385.09999990463,407392.008,408408.495,,32,of
screen,html.Screen,2_1_1_1_33,2022-02-04T13:19:33.161Z,,,,,,,,,,,,,,,,,54,,,,,,,,,,,,,,347.30499995232094,,response,,,,100,,,,,,,Space,keypress(Space),,,,,,,,-- --- ---- --- ------ ----- ------- ---- -- --- ------- --<br>------- ---------- ------ -- ----- -- ----- -- ---- ------<br>--- ----- --- --- ------ -------- ----- --- ------ ----- --<br>these ----- ---------- --- --- ------ ------ ---- -- ------<br>------- --- ------ ----- --- ---- ------- -- ---- --- --<br>------- ------,408756.7000000477,408755.7999999523,408392.37,408402.5,408408.495,408758.459,,33,these
screen,html.Screen,2_1_1_1_34,2022-02-04T13:19:33.523Z,,,,,,,,,,,,,,,,,54,,,,,,,,,,,,,,359.04100000002654,,response,,,,100,,,,,,,Space,keypress(Space),,,,,,,,-- --- ---- --- ------ ----- ------- ---- -- --- ------- --<br>------- ---------- ------ -- ----- -- ----- -- ---- ------<br>--- ----- --- --- ------ -------- ----- --- ------ ----- --<br>----- bonds ---------- --- --- ------ ------ ---- -- ------<br>------- --- ------ ----- --- ---- ------- -- ---- --- --<br>------- ------,409118.7000000477,409117.5,408741.874,408756.90000009537,408758.459,409125.082,,34,bonds
screen,html.Screen,2_1_1_1_35,2022-02-04T13:19:33.921Z,,,,,,,,,,,,,,,,,54,,,,,,,,,,,,,,390.61800004768884,,response,,,,100,,,,,,,Space,keypress(Space),,,,,,,,"-- --- ---- --- ------ ----- ------- ---- -- --- ------- --<br>------- ---------- ------ -- ----- -- ----- -- ---- ------<br>--- ----- --- --- ------ -------- ----- --- ------ ----- --<br>----- ----- plummeted, --- --- ------ ------ ---- -- ------<br>------- --- ------ ----- --- ---- ------- -- ---- --- --<br>------- ------",409516.90000009537,409515.7000000477,409108.502,409118.7999999523,409125.082,409524.975,,35,"plummeted,"
screen,html.Screen,2_1_1_1_36,2022-02-04T13:19:34.294Z,,,,,,,,,,,,,,,,,54,,,,,,,,,,,,,,363.5250000000233,,response,,,,100,,,,,,,Space,keypress(Space),,,,,,,,-- --- ---- --- ------ ----- ------- ---- -- --- ------- --<br>------- ---------- ------ -- ----- -- ----- -- ---- ------<br>--- ----- --- --- ------ -------- ----- --- ------ ----- --<br>----- ----- ---------- and --- ------ ------ ---- -- ------<br>------- --- ------ ----- --- ---- ------- -- ---- --- --<br>------- ------,409889.59999990463,409888.5,409508.374,409517.2000000477,409524.975,409891.604,,36,and
screen,html.Screen,2_1_1_1_37,2022-02-04T13:19:34.653Z,,,,,,,,,,,,,,,,,54,,,,,,,,,,,,,,355.6959999523242,,response,,,,100,,,,,,,Space,keypress(Space),,,,,,,,-- --- ---- --- ------ ----- ------- ---- -- --- ------- --<br>------- ---------- ------ -- ----- -- ----- -- ---- ------<br>--- ----- --- --- ------ -------- ----- --- ------ ----- --<br>----- ----- ---------- --- the ------ ------ ---- -- ------<br>------- --- ------ ----- --- ---- ------- -- ---- --- --<br>------- ------,410248.59999990463,410247.2999999523,409874.981,409889.7999999523,409891.604,410258.202,,37,the
screen,html.Screen,2_1_1_1_38,2022-02-04T13:19:35.096Z,,,,,,,,,,,,,,,,,54,,,,,,,,,,,,,,432.89799990464235,,response,,,,100,,,,,,,Space,keypress(Space),,,,,,,,-- --- ---- --- ------ ----- ------- ---- -- --- ------- --<br>------- ---------- ------ -- ----- -- ----- -- ---- ------<br>--- ----- --- --- ------ -------- ----- --- ------ ----- --<br>----- ----- ---------- --- --- market ------ ---- -- ------<br>------- --- ------ ----- --- ---- ------- -- ---- --- --<br>------- ------,410692.2000000477,410691.09999990463,410241.678,410248.7999999523,410258.202,410708.268,,38,market
screen,html.Screen,2_1_1_1_39,2022-02-04T13:19:35.452Z,,,,,,,,,,,,,,,,,54,,,,,,,,,,,,,,338.1320000953856,,response,,,,100,,,,,,,Space,keypress(Space),,,,,,,,-- --- ---- --- ------ ----- ------- ---- -- --- ------- --<br>------- ---------- ------ -- ----- -- ----- -- ---- ------<br>--- ----- --- --- ------ -------- ----- --- ------ ----- --<br>----- ----- ---------- --- --- ------ became ---- -- ------<br>------- --- ------ ----- --- ---- ------- -- ---- --- --<br>------- ------,411047.5,411046.40000009537,410691.604,410692.40000009537,410708.268,411058.145,,39,became
screen,html.Screen,2_1_1_1_40,2022-02-04T13:19:35.820Z,,,,,,,,,,,,,,,,,54,,,,,,,,,,,,,,356.7550000953488,,response,,,,100,,,,,,,Space,keypress(Space),,,,,,,,-- --- ---- --- ------ ----- ------- ---- -- --- ------- --<br>------- ---------- ------ -- ----- -- ----- -- ---- ------<br>--- ----- --- --- ------ -------- ----- --- ------ ----- --<br>----- ----- ---------- --- --- ------ ------ wary -- ------<br>------- --- ------ ----- --- ---- ------- -- ---- --- --<br>------- ------,411416.2000000477,411414.90000009537,411041.555,411047.7000000477,411058.145,411424.758,,40,wary
screen,html.Screen,2_1_1_1_41,2022-02-04T13:19:36.126Z,,,,,,,,,,,,,,,,,54,,,,,,,,,,,,,,296.54199995234376,,response,,,,100,,,,,,,Space,keypress(Space),,,,,,,,-- --- ---- --- ------ ----- ------- ---- -- --- ------- --<br>------- ---------- ------ -- ----- -- ----- -- ---- ------<br>--- ----- --- --- ------ -------- ----- --- ------ ----- --<br>----- ----- ---------- --- --- ------ ------ ---- of ------<br>------- --- ------ ----- --- ---- ------- -- ---- --- --<br>------- ------,411722.2000000477,411721.2999999523,411408.175,411416.2999999523,411424.758,411724.662,,41,of
screen,html.Screen,2_1_1_1_42,2022-02-04T13:19:36.486Z,,,,,,,,,,,,,,,,,54,,,,,,,,,,,,,,356.4379999046214,,response,,,,100,,,,,,,Space,keypress(Space),,,,,,,,-- --- ---- --- ------ ----- ------- ---- -- --- ------- --<br>------- ---------- ------ -- ----- -- ----- -- ---- ------<br>--- ----- --- --- ------ -------- ----- --- ------ ----- --<br>----- ----- ---------- --- --- ------ ------ ---- -- French<br>------- --- ------ ----- --- ---- ------- -- ---- --- --<br>------- ------,412082.2000000477,412081.09999990463,411708.106,411722.40000009537,411724.662,412091.91,,42,French
screen,html.Screen,2_1_1_1_43,2022-02-04T13:19:37.262Z,,,,,,,,,,,,,,,,,54,,,,,,,,,,,,,,764.6899999046582,,response,,,,100,,,,,,,Space,keypress(Space),,,,,,,,-- --- ---- --- ------ ----- ------- ---- -- --- ------- --<br>------- ---------- ------ -- ----- -- ----- -- ---- ------<br>--- ----- --- --- ------ -------- ----- --- ------ ----- --<br>----- ----- ---------- --- --- ------ ------ ---- -- ------<br>credit. --- ------ ----- --- ---- ------- -- ---- --- --<br>------- ------,412857.90000009537,412856.59999990463,412074.762,412082.40000009537,412091.91,412874.71,,43,credit.
screen,html.Screen,2_1_1_1_44,2022-02-04T13:19:37.560Z,,,,,,,,,,,,,,,,,54,,,,,,,,,,,,,,280.28999999997905,,response,,,,100,,,,,,,Space,keypress(Space),,,,,,,,-- --- ---- --- ------ ----- ------- ---- -- --- ------- --<br>------- ---------- ------ -- ----- -- ----- -- ---- ------<br>--- ----- --- --- ------ -------- ----- --- ------ ----- --<br>----- ----- ---------- --- --- ------ ------ ---- -- ------<br>------- The ------ ----- --- ---- ------- -- ---- --- --<br>------- ------,413156.2000000477,413155,412858.004,412858.2000000477,412874.71,413177.236,,44,The
screen,html.Screen,2_1_1_1_45,2022-02-04T13:19:37.902Z,,,,,,,,,,,,,,,,,54,,,,,,,,,,,,,,319.06399995234096,,response,,,,100,,,,,,,Space,keypress(Space),,,,,,,,-- --- ---- --- ------ ----- ------- ---- -- --- ------- --<br>------- ---------- ------ -- ----- -- ----- -- ---- ------<br>--- ----- --- --- ------ -------- ----- --- ------ ----- --<br>----- ----- ---------- --- --- ------ ------ ---- -- ------<br>------- --- French ----- --- ---- ------- -- ---- --- --<br>------- ------,413497.5,413496.2999999523,413141.239,413156.40000009537,413177.236,413507.812,,45,French
screen,html.Screen,2_1_1_1_46,2022-02-04T13:19:38.236Z,,,,,,,,,,,,,,,,,54,,,,,,,,,,,,,,322.98799995234003,,response,,,,100,,,,,,,Space,keypress(Space),,,,,,,,-- --- ---- --- ------ ----- ------- ---- -- --- ------- --<br>------- ---------- ------ -- ----- -- ----- -- ---- ------<br>--- ----- --- --- ------ -------- ----- --- ------ ----- --<br>----- ----- ---------- --- --- ------ ------ ---- -- ------<br>------- --- ------ state --- ---- ------- -- ---- --- --<br>------- ------,413831.59999990463,413830.7999999523,413491.225,413497.59999990463,413507.812,413841.592,,46,state
screen,html.Screen,2_1_1_1_47,2022-02-04T13:19:38.592Z,,,,,,,,,,,,,,,,,54,,,,,,,,,,,,,,344.9079999999958,,response,,,,100,,,,,,,Space,keypress(Space),,,,,,,,-- --- ---- --- ------ ----- ------- ---- -- --- ------- --<br>------- ---------- ------ -- ----- -- ----- -- ---- ------<br>--- ----- --- --- ------ -------- ----- --- ------ ----- --<br>----- ----- ---------- --- --- ------ ------ ---- -- ------<br>------- --- ------ ----- was ---- ------- -- ---- --- --<br>------- ------,414187.5,414186.5,413825.064,413831.7999999523,413841.592,414191.019,,47,was
screen,html.Screen,2_1_1_1_48,2022-02-04T13:19:38.896Z,,,,,,,,,,,,,,,,,54,,,,,,,,,,,,,,298.98100000002887,,response,,,,100,,,,,,,Space,keypress(Space),,,,,,,,-- --- ---- --- ------ ----- ------- ---- -- --- ------- --<br>------- ---------- ------ -- ----- -- ----- -- ---- ------<br>--- ----- --- --- ------ -------- ----- --- ------ ----- --<br>----- ----- ---------- --- --- ------ ------ ---- -- ------<br>------- --- ------ ----- --- left ------- -- ---- --- --<br>------- ------,414491.7999999523,414490,414174.392,414187.59999990463,414191.019,414507.754,,48,left
screen,html.Screen,2_1_1_1_49,2022-02-04T13:19:39.197Z,,,,,,,,,,,,,,,,,54,,,,,,,,,,,,,,284.24599999998463,,response,,,,100,,,,,,,Space,keypress(Space),,,,,,,,-- --- ---- --- ------ ----- ------- ---- -- --- ------- --<br>------- ---------- ------ -- ----- -- ----- -- ---- ------<br>--- ----- --- --- ------ -------- ----- --- ------ ----- --<br>----- ----- ---------- --- --- ------ ------ ---- -- ------<br>------- --- ------ ----- --- ---- without -- ---- --- --<br>------- ------,414793.2999999523,414792,414491.074,414491.90000009537,414507.754,414807.694,,49,without
screen,html.Screen,2_1_1_1_50,2022-02-04T13:19:39.519Z,,,,,,,,,,,,,,,,,54,,,,,,,,,,,,,,306.4059999046149,,response,,,,100,,,,,,,Space,keypress(Space),,,,,,,,-- --- ---- --- ------ ----- ------- ---- -- --- ------- --<br>------- ---------- ------ -- ----- -- ----- -- ---- ------<br>--- ----- --- --- ------ -------- ----- --- ------ ----- --<br>----- ----- ---------- --- --- ------ ------ ---- -- ------<br>------- --- ------ ----- --- ---- ------- an ---- --- --<br>------- ------,415115.2000000477,415114.09999990463,414791.018,414793.40000009537,414807.694,415124.189,,50,an
screen,html.Screen,2_1_1_1_51,2022-02-04T13:19:39.864Z,,,,,,,,,,,,,,,,,54,,,,,,,,,,,,,,334.61099995230325,,response,,,,100,,,,,,,Space,keypress(Space),,,,,,,,-- --- ---- --- ------ ----- ------- ---- -- --- ------- --<br>------- ---------- ------ -- ----- -- ----- -- ---- ------<br>--- ----- --- --- ------ -------- ----- --- ------ ----- --<br>----- ----- ---------- --- --- ------ ------ ---- -- ------<br>------- --- ------ ----- --- ---- ------- -- easy --- --<br>------- ------,415460,415458.7999999523,415107.641,415115.40000009537,415124.189,415474.574,,51,easy
screen,html.Screen,2_1_1_1_52,2022-02-04T13:19:40.188Z,,,,,,,,,,,,,,,,,54,,,,,,,,,,,,,,308.62600004766136,,response,,,,100,,,,,,,Space,keypress(Space),,,,,,,,-- --- ---- --- ------ ----- ------- ---- -- --- ------- --<br>------- ---------- ------ -- ----- -- ----- -- ---- ------<br>--- ----- --- --- ------ -------- ----- --- ------ ----- --<br>----- ----- ---------- --- --- ------ ------ ---- -- ------<br>------- --- ------ ----- --- ---- ------- -- ---- way --<br>------- ------,415784.40000009537,415783.2000000477,415457.539,415460.09999990463,415474.574,415790.828,,52,way
screen,html.Screen,2_1_1_1_53,2022-02-04T13:19:40.511Z,,,,,,,,,,,,,,,,,54,,,,,,,,,,,,,,314.5720000953879,,response,,,,100,,,,,,,Space,keypress(Space),,,,,,,,-- --- ---- --- ------ ----- ------- ---- -- --- ------- --<br>------- ---------- ------ -- ----- -- ----- -- ---- ------<br>--- ----- --- --- ------ -------- ----- --- ------ ----- --<br>----- ----- ---------- --- --- ------ ------ ---- -- ------<br>------- --- ------ ----- --- ---- ------- -- ---- --- of<br>------- ------,416106.7000000477,416105.40000009537,415774.15,415784.59999990463,415790.828,416124.163,,53,of
screen,html.Screen,2_1_1_1_54,2022-02-04T13:19:40.876Z,,,,,,,,,,,,,,,,,54,,,,,,,,,,,,,,346.4369999046321,,response,,,,100,,,,,,,Space,keypress(Space),,,,,,,,-- --- ---- --- ------ ----- ------- ---- -- --- ------- --<br>------- ---------- ------ -- ----- -- ----- -- ---- ------<br>--- ----- --- --- ------ -------- ----- --- ------ ----- --<br>----- ----- ---------- --- --- ------ ------ ---- -- ------<br>------- --- ------ ----- --- ---- ------- -- ---- --- --<br>raising ------,416471.7999999523,416470.59999990463,416107.519,416106.90000009537,416124.163,416474.023,,54,raising
screen,html.Screen,2_1_1_1_55,2022-02-04T13:19:41.235Z,,,,,,,,,,,,,,,,,54,,,,,,,,,,,,,,354.87700009538094,,response,,,,100,,,,,,,Space,keypress(Space),,,,,,,,-- --- ---- --- ------ ----- ------- ---- -- --- ------- --<br>------- ---------- ------ -- ----- -- ----- -- ---- ------<br>--- ----- --- --- ------ -------- ----- --- ------ ----- --<br>----- ----- ---------- --- --- ------ ------ ---- -- ------<br>------- --- ------ ----- --- ---- ------- -- ---- --- --<br>------- money.,416830.7000000477,416828.90000009537,416457.832,416471.90000009537,416474.023,416840.616,,55,money.
Item 100,flow.Loop,2_1_1_1,2022-02-04T13:19:41.235Z,,,,,,,,,,,,,,,,,,,,,,,,,,,,,,,25284.731000095373,,completion,,,,,D,,,,,,,,,,,silence,,,,,416831,416828.90000009537,391527.564,391528.59999990463,391544.169,416840.616,,,
Question 1,html.Screen,2_1_1_2,2022-02-04T13:19:43.986Z,,,,,,,,,,,,,,,,,,,,,,,,,,,,true,TRUE,,2739.7840000953875,,response,,,,100,D,,,,,,TRUE,click #choice-1,,,,silence,,,,,419582.40000009537,419580.40000009537,416824.208,416831.09999990463,416840.616,419590.233,,,
Question 2,html.Screen,2_1_1_3,2022-02-04T13:19:46.466Z,,,,,,,,,,,,,,,,,,,,,,,,,,,,true,FALSE,,2470.2669999999925,,response,,,,100,D,,,,,,FALSE,click #choice-2,,,,silence,,,,,422062.2000000477,422060.5,419573.607,419582.5,419590.233,422073.337,,,
Item 100,flow.Sequence,2_1_1,2022-02-04T13:19:46.466Z,,,,,,,,,,,,,,,,,,,,,,,,,,,,,,,40514.86800000002,,completion,,,,,,,,,,,,,,,,,,,,,422062.2999999523,422060.5,381528.969,381535.09999990463,381545.632,422073.337,,,
End of Practice,html.Page,2_1_2,2022-02-04T13:19:50.979Z,,,,,,,,,,,,,,,,,,,,,,,,,,,,,,,4501.363000047684,,form submission,,,,,,,,,,,,,,,,,,,,,426575.40000009537,426574.7000000477,422056.654,422062.40000009537,422073.337,426589.308,,,
Practice,flow.Sequence,2_1,2022-02-04T13:19:50.980Z,,,,,,,,,,,,,,,,,,,,,,,,,,,,,,,85023.53800004767,,completion,,,,,,,,,,,,,,,,,,,,,426575.5,426574.7000000477,341534.955,341554,341551.162,426589.308,,,
Trap_instruction,html.Page,2_2_0,2022-02-04T13:19:54.795Z,,,,,,,,,,,,,,,,,,,,,,,,,,,,,,,3801.7919999046135,,form submission,,,,,,,,,,,,,,,,,,,,,430391.40000009537,430391.09999990463,426572.617,426575.7000000477,426589.308,430405.397,,,
trap_trial,html.Screen,2_2_1,2022-02-04T13:20:00.666Z,,,,,,,,,,,,,,,,,,,,,,,,,,,,true,1,,5855.00300009537,,response,,,,,,,,,,,1,click #choice-1,,,,,,,,,436262.40000009537,436260.40000009537,430388.823,430391.5,430405.397,436271.213,,,
end of trap trial,html.Page,2_2_2,2022-02-04T13:20:02.741Z,,,,,,,,,,,,,,,,,,,,,,,,,,,,,,,2064.3869999046437,,form submission,,,,,,,,,,,,,,,,,,,,,438336.7000000477,438335.59999990463,436254.599,436262.59999990463,436271.213,438337.609,,,
Trap 1,flow.Sequence,2_2,2022-02-04T13:20:02.741Z,,,,,,,,,,,,,,,,,,,,,,,,,,,,,,,11746.291999904613,,completion,,,,,,,,,,,,,,,,,,,,,438336.7999999523,438335.59999990463,426572.617,426575.7000000477,426589.308,438337.609,,,
Standby,html.Page,2_3_0,2022-02-04T13:20:10.725Z,,,,,,,,,,,,,,,,,,,,,,,,,,,,,,,7999.760999999999,,timeout,,,,,,,,,,,,,,,,,,,,,446320.7999999523,446319.917,438321.051,438336.90000009537,438337.609,446337.37,,,
Holding screen,html.Screen,2_3_1_0_0,2022-02-04T13:20:17.724Z,,,,,,,,,,,,,,,,,,,,,,,,,,,,,,,6998.342000000004,,timeout,,,,,,,,,,,,,,,,,,,,,453319.7999999523,453318.962,446319.917,446321,446337.37,453335.712,,,
screen,html.Screen,2_3_1_0_1_0,2022-02-04T13:20:19.629Z,,,,,,,,,,,,,,,,,51,,,,,,,,,,,,,,1888.2880000000005,,response,,,,13,D,,,,,,Space,keypress(Space),,,,silence,,,,American -------- --- --- ---- --- --- ------ -- --------<br>---- --------- --- ------- ------------ ---------- ---------<br>--- ---------- ------- ---------- ------- -- -------- ----<br>---- --- ------ ----- ------ -- ---- --- ----- -- - -------<br>-------- -- --- --- -- ----- ----------- ----- -----------<br>---- --- ---------- --- ---- --- -- ----------,455225.5,455224,453318.962,453320,453335.712,455235.316,,0,American
screen,html.Screen,2_3_1_0_1_1,2022-02-04T13:20:20.712Z,,,,,,,,,,,,,,,,,51,,,,,,,,,,,,,,1071.1840000000084,,response,,,,13,D,,,,,,Space,keypress(Space),,,,silence,,,,-------- industry --- --- ---- --- --- ------ -- --------<br>---- --------- --- ------- ------------ ---------- ---------<br>--- ---------- ------- ---------- ------- -- -------- ----<br>---- --- ------ ----- ------ -- ---- --- ----- -- - -------<br>-------- -- --- --- -- ----- ----------- ----- -----------<br>---- --- ---------- --- ---- --- -- ----------,456307.7000000477,456306.5,455218.824,455225.7000000477,455235.316,456318.559,,1,industry
screen,html.Screen,2_3_1_0_1_2,2022-02-04T13:20:21.179Z,,,,,,,,,,,,,,,,,51,,,,,,,,,,,,,,455.4409999999916,,response,,,,13,D,,,,,,Space,keypress(Space),,,,silence,,,,-------- -------- may --- ---- --- --- ------ -- --------<br>---- --------- --- ------- ------------ ---------- ---------<br>--- ---------- ------- ---------- ------- -- -------- ----<br>---- --- ------ ----- ------ -- ---- --- ----- -- - -------<br>-------- -- --- --- -- ----- ----------- ----- -----------<br>---- --- ---------- --- ---- --- -- ----------,456775.2000000477,456774,456301.992,456308,456318.559,456785.082,,2,may
screen,html.Screen,2_3_1_0_1_3,2022-02-04T13:20:21.520Z,,,,,,,,,,,,,,,,,51,,,,,,,,,,,,,,329.61800004768884,,response,,,,13,D,,,,,,Space,keypress(Space),,,,silence,,,,-------- -------- --- not ---- --- --- ------ -- --------<br>---- --------- --- ------- ------------ ---------- ---------<br>--- ---------- ------- ---------- ------- -- -------- ----<br>---- --- ------ ----- ------ -- ---- --- ----- -- - -------<br>-------- -- --- --- -- ----- ----------- ----- -----------<br>---- --- ---------- --- ---- --- -- ----------,457115.5,457114.7000000477,456768.526,456775.40000009537,456785.082,457118.363,,3,not
screen,html.Screen,2_3_1_0_1_4,2022-02-04T13:20:22.825Z,,,,,,,,,,,,,,,,,51,,,,,,,,,,,,,,1301.9369999523042,,response,,,,13,D,,,,,,Space,keypress(Space),,,,silence,,,,-------- -------- --- --- know --- --- ------ -- --------<br>---- --------- --- ------- ------------ ---------- ---------<br>--- ---------- ------- ---------- ------- -- -------- ----<br>---- --- ------ ----- ------ -- ---- --- ----- -- - -------<br>-------- -- --- --- -- ----- ----------- ----- -----------<br>---- --- ---------- --- ---- --- -- ----------,458421.5,458420.2999999523,457101.803,457115.59999990463,457118.363,458434.946,,4,know
screen,html.Screen,2_3_1_0_1_5,2022-02-04T13:20:23.536Z,,,,,,,,,,,,,,,,,51,,,,,,,,,,,,,,696.2540000476874,,response,,,,13,D,,,,,,Space,keypress(Space),,,,silence,,,,"-------- -------- --- --- ---- it, --- ------ -- --------<br>---- --------- --- ------- ------------ ---------- ---------<br>--- ---------- ------- ---------- ------- -- -------- ----<br>---- --- ------ ----- ------ -- ---- --- ----- -- - -------<br>-------- -- --- --- -- ----- ----------- ----- -----------<br>---- --- ---------- --- ---- --- -- ----------",459132,459131.2000000477,458418.391,458421.59999990463,458434.946,459134.73,,5,"it,"
screen,html.Screen,2_3_1_0_1_6,2022-02-04T13:20:24.074Z,,,,,,,,,,,,,,,,,51,,,,,,,,,,,,,,533.5699999523349,,response,,,,13,D,,,,,,Space,keypress(Space),,,,silence,,,,-------- -------- --- --- ---- --- but ------ -- --------<br>---- --------- --- ------- ------------ ---------- ---------<br>--- ---------- ------- ---------- ------- -- -------- ----<br>---- --- ------ ----- ------ -- ---- --- ----- -- - -------<br>-------- -- --- --- -- ----- ----------- ----- -----------<br>---- --- ---------- --- ---- --- -- ----------,459669.7999999523,459668.2999999523,459118.602,459132.2000000477,459134.73,459685.326,,6,but
screen,html.Screen,2_3_1_0_1_7,2022-02-04T13:20:24.658Z,,,,,,,,,,,,,,,,,51,,,,,,,,,,,,,,567.5740000953665,,response,,,,13,D,,,,,,Space,keypress(Space),,,,silence,,,,-------- -------- --- --- ---- --- --- debate -- --------<br>---- --------- --- ------- ------------ ---------- ---------<br>--- ---------- ------- ---------- ------- -- -------- ----<br>---- --- ------ ----- ------ -- ---- --- ----- -- - -------<br>-------- -- --- --- -- ----- ----------- ----- -----------<br>---- --- ---------- --- ---- --- -- ----------,460254.40000009537,460252.90000009537,459668.134,459669.90000009537,459685.326,460268.008,,7,debate
screen,html.Screen,2_3_1_0_1_8,2022-02-04T13:20:24.975Z,,,,,,,,,,,,,,,,,51,,,,,,,,,,,,,,301.8920000953949,,response,,,,13,D,,,,,,Space,keypress(Space),,,,silence,,,,-------- -------- --- --- ---- --- --- ------ in --------<br>---- --------- --- ------- ------------ ---------- ---------<br>--- ---------- ------- ---------- ------- -- -------- ----<br>---- --- ------ ----- ------ -- ---- --- ----- -- - -------<br>-------- -- --- --- -- ----- ----------- ----- -----------<br>---- --- ---------- --- ---- --- -- ----------,460571.09999990463,460569.90000009537,460251.322,460254.59999990463,460268.008,460584.53,,8,in
screen,html.Screen,2_3_1_0_1_9,2022-02-04T13:20:25.445Z,,,,,,,,,,,,,,,,,51,,,,,,,,,,,,,,455.46999999997206,,response,,,,13,D,,,,,,Space,keypress(Space),,,,silence,,,,-------- -------- --- --- ---- --- --- ------ -- Congress<br>---- --------- --- ------- ------------ ---------- ---------<br>--- ---------- ------- ---------- ------- -- -------- ----<br>---- --- ------ ----- ------ -- ---- --- ----- -- - -------<br>-------- -- --- --- -- ----- ----------- ----- -----------<br>---- --- ---------- --- ---- --- -- ----------,461040.90000009537,461040,460567.978,460571.2000000477,460584.53,461051.253,,9,Congress
screen,html.Screen,2_3_1_0_1_10,2022-02-04T13:20:27.013Z,,,,,,,,,,,,,,,,,51,,,,,,,,,,,,,,1556.0469999522902,,response,,,,13,D,,,,,,Space,keypress(Space),,,,silence,,,,-------- -------- --- --- ---- --- --- ------ -- --------<br>over --------- --- ------- ------------ ---------- ---------<br>--- ---------- ------- ---------- ------- -- -------- ----<br>---- --- ------ ----- ------ -- ---- --- ----- -- - -------<br>-------- -- --- --- -- ----- ----------- ----- -----------<br>---- --- ---------- --- ---- --- -- ----------,462608.5,462607.2999999523,461035.105,461041,461051.253,462617.587,,10,over
screen,html.Screen,2_3_1_0_1_11,2022-02-04T13:20:27.440Z,,,,,,,,,,,,,,,,,51,,,,,,,,,,,,,,416.71299995231675,,response,,,,13,D,,,,,,Space,keypress(Space),,,,silence,,,,-------- -------- --- --- ---- --- --- ------ -- --------<br>---- reforming --- ------- ------------ ---------- ---------<br>--- ---------- ------- ---------- ------- -- -------- ----<br>---- --- ------ ----- ------ -- ---- --- ----- -- - -------<br>-------- -- --- --- -- ----- ----------- ----- -----------<br>---- --- ---------- --- ---- --- -- ----------,463035.7000000477,463034.2999999523,462601.155,462608.7000000477,462617.587,463050.947,,11,reforming
screen,html.Screen,2_3_1_0_1_12,2022-02-04T13:20:27.754Z,,,,,,,,,,,,,,,,,51,,,,,,,,,,,,,,297.45300009538187,,response,,,,13,D,,,,,,Space,keypress(Space),,,,silence,,,,-------- -------- --- --- ---- --- --- ------ -- --------<br>---- --------- the ------- ------------ ---------- ---------<br>--- ---------- ------- ---------- ------- -- -------- ----<br>---- --- ------ ----- ------ -- ---- --- ----- -- - -------<br>-------- -- --- --- -- ----- ----------- ----- -----------<br>---- --- ---------- --- ---- --- -- ----------,463349.7000000477,463348.40000009537,463034.325,463035.7999999523,463050.947,463374.001,,12,the
screen,html.Screen,2_3_1_0_1_13,2022-02-04T13:20:28.240Z,,,,,,,,,,,,,,,,,51,,,,,,,,,,,,,,459.89900009537814,,response,,,,13,D,,,,,,Space,keypress(Space),,,,silence,,,,-------- -------- --- --- ---- --- --- ------ -- --------<br>---- --------- --- federal ------------ ---------- ---------<br>--- ---------- ------- ---------- ------- -- -------- ----<br>---- --- ------ ----- ------ -- ---- --- ----- -- - -------<br>-------- -- --- --- -- ----- ----------- ----- -----------<br>---- --- ---------- --- ---- --- -- ----------,463835.5,463833.90000009537,463334.763,463349.7999999523,463374.001,463850.837,,13,federal
screen,html.Screen,2_3_1_0_1_14,2022-02-04T13:20:28.773Z,,,,,,,,,,,,,,,,,51,,,,,,,,,,,,,,516.4629999523167,,response,,,,13,D,,,,,,Space,keypress(Space),,,,silence,,,,-------- -------- --- --- ---- --- --- ------ -- --------<br>---- --------- --- ------- government's ---------- ---------<br>--- ---------- ------- ---------- ------- -- -------- ----<br>---- --- ------ ----- ------ -- ---- --- ----- -- - -------<br>-------- -- --- --- -- ----- ----------- ----- -----------<br>---- --- ---------- --- ---- --- -- ----------,464368.7999999523,464367.2999999523,463834.183,463835.7999999523,463850.837,464384.095,,14,government's
screen,html.Screen,2_3_1_0_1_15,2022-02-04T13:20:30.100Z,,,,,,,,,,,,,,,,,51,,,,,,,,,,,,,,1310.6050000477117,,response,,,,13,D,,,,,,Space,keypress(Space),,,,silence,,,,-------- -------- --- --- ---- --- --- ------ -- --------<br>---- --------- --- ------- ------------ regulatory ---------<br>--- ---------- ------- ---------- ------- -- -------- ----<br>---- --- ------ ----- ------ -- ---- --- ----- -- - -------<br>-------- -- --- --- -- ----- ----------- ----- -----------<br>---- --- ---------- --- ---- --- -- ----------,465695.90000009537,465694.7000000477,464367.48,464368.90000009537,464384.095,465700.487,,15,regulatory
screen,html.Screen,2_3_1_0_1_16,2022-02-04T13:20:30.688Z,,,,,,,,,,,,,,,,,51,,,,,,,,,,,,,,582.8129999522935,,response,,,,13,D,,,,,,Space,keypress(Space),,,,silence,,,,-------- -------- --- --- ---- --- --- ------ -- --------<br>---- --------- --- ------- ------------ ---------- apparatus<br>--- ---------- ------- ---------- ------- -- -------- ----<br>---- --- ------ ----- ------ -- ---- --- ----- -- - -------<br>-------- -- --- --- -- ----- ----------- ----- -----------<br>---- --- ---------- --- ---- --- -- ----------,466284.2999999523,466283.2999999523,465684.051,465696,465700.487,466300.498,,16,apparatus
screen,html.Screen,2_3_1_0_1_17,2022-02-04T13:20:31.174Z,,,,,,,,,,,,,,,,,51,,,,,,,,,,,,,,468.402000095346,,response,,,,13,D,,,,,,Space,keypress(Space),,,,silence,,,,-------- -------- --- --- ---- --- --- ------ -- --------<br>---- --------- --- ------- ------------ ---------- ---------<br>may ---------- ------- ---------- ------- -- -------- ----<br>---- --- ------ ----- ------ -- ---- --- ----- -- - -------<br>-------- -- --- --- -- ----- ----------- ----- -----------<br>---- --- ---------- --- ---- --- -- ----------,466770,466768.90000009537,466283.894,466284.40000009537,466300.498,466783.759,,17,may
screen,html.Screen,2_3_1_0_1_18,2022-02-04T13:20:31.795Z,,,,,,,,,,,,,,,,,51,,,,,,,,,,,,,,606.6410000953474,,response,,,,13,D,,,,,,Space,keypress(Space),,,,silence,,,,-------- -------- --- --- ---- --- --- ------ -- --------<br>---- --------- --- ------- ------------ ---------- ---------<br>--- profoundly ------- ---------- ------- -- -------- ----<br>---- --- ------ ----- ------ -- ---- --- ----- -- - -------<br>-------- -- --- --- -- ----- ----------- ----- -----------<br>---- --- ---------- --- ---- --- -- ----------,467391.40000009537,467390.40000009537,466767.105,466770.2000000477,466783.759,467400.277,,18,profoundly
screen,html.Screen,2_3_1_0_1_19,2022-02-04T13:20:32.447Z,,,,,,,,,,,,,,,,,51,,,,,,,,,,,,,,642.1230000953656,,response,,,,13,D,,,,,,Space,keypress(Space),,,,silence,,,,-------- -------- --- --- ---- --- --- ------ -- --------<br>---- --------- --- ------- ------------ ---------- ---------<br>--- ---------- improve ---------- ------- -- -------- ----<br>---- --- ------ ----- ------ -- ---- --- ----- -- - -------<br>-------- -- --- --- -- ----- ----------- ----- -----------<br>---- --- ---------- --- ---- --- -- ----------,468043.2000000477,468042.40000009537,467383.742,467391.5,467400.277,468050.238,,19,improve
screen,html.Screen,2_3_1_0_1_20,2022-02-04T13:20:32.953Z,,,,,,,,,,,,,,,,,51,,,,,,,,,,,,,,497.6620000953553,,response,,,,13,D,,,,,,Space,keypress(Space),,,,silence,,,,-------- -------- --- --- ---- --- --- ------ -- --------<br>---- --------- --- ------- ------------ ---------- ---------<br>--- ---------- ------- companies' ------- -- -------- ----<br>---- --- ------ ----- ------ -- ---- --- ----- -- - -------<br>-------- -- --- --- -- ----- ----------- ----- -----------<br>---- --- ---------- --- ---- --- -- ----------,468549.2999999523,468547.90000009537,468033.656,468043.40000009537,468050.238,468583.387,,20,companies'
screen,html.Screen,2_3_1_0_1_21,2022-02-04T13:20:33.749Z,,,,,,,,,,,,,,,,,51,,,,,,,,,,,,,,760.2129999046447,,response,,,,13,D,,,,,,Space,keypress(Space),,,,silence,,,,-------- -------- --- --- ---- --- --- ------ -- --------<br>---- --------- --- ------- ------------ ---------- ---------<br>--- ---------- ------- ---------- ability -- -------- ----<br>---- --- ------ ----- ------ -- ---- --- ----- -- - -------<br>-------- -- --- --- -- ----- ----------- ----- -----------<br>---- --- ---------- --- ---- --- -- ----------,469344.7000000477,469343.59999990463,468578.878,468549.5,468583.387,469349.953,,21,ability
screen,html.Screen,2_3_1_0_1_22,2022-02-04T13:20:34.274Z,,,,,,,,,,,,,,,,,51,,,,,,,,,,,,,,517.8469999523368,,response,,,,13,D,,,,,,Space,keypress(Space),,,,silence,,,,-------- -------- --- --- ---- --- --- ------ -- --------<br>---- --------- --- ------- ------------ ---------- ---------<br>--- ---------- ------- ---------- ------- to -------- ----<br>---- --- ------ ----- ------ -- ---- --- ----- -- - -------<br>-------- -- --- --- -- ----- ----------- ----- -----------<br>---- --- ---------- --- ---- --- -- ----------,469870.09999990463,469867.7999999523,469333.466,469344.7999999523,469349.953,469883.292,,22,to
screen,html.Screen,2_3_1_0_1_23,2022-02-04T13:20:34.634Z,,,,,,,,,,,,,,,,,51,,,,,,,,,,,,,,345.6080000953516,,response,,,,13,D,,,,,,Space,keypress(Space),,,,silence,,,,-------- -------- --- --- ---- --- --- ------ -- --------<br>---- --------- --- ------- ------------ ---------- ---------<br>--- ---------- ------- ---------- ------- -- survive. ----<br>---- --- ------ ----- ------ -- ---- --- ----- -- - -------<br>-------- -- --- --- -- ----- ----------- ----- -----------<br>---- --- ---------- --- ---- --- -- ----------,470230.09999990463,470228.90000009537,469866.708,469870.40000009537,469883.292,470233.225,,23,survive.
screen,html.Screen,2_3_1_0_1_24,2022-02-04T13:20:35.122Z,,,,,,,,,,,,,,,,,51,,,,,,,,,,,,,,483.975000047707,,response,,,,13,D,,,,,,Space,keypress(Space),,,,silence,,,,-------- -------- --- --- ---- --- --- ------ -- --------<br>---- --------- --- ------- ------------ ---------- ---------<br>--- ---------- ------- ---------- ------- -- -------- This<br>---- --- ------ ----- ------ -- ---- --- ----- -- - -------<br>-------- -- --- --- -- ----- ----------- ----- -----------<br>---- --- ---------- --- ---- --- -- ----------,470718,470717.2000000477,470216.648,470230.2000000477,470233.225,470733.083,,24,This
screen,html.Screen,2_3_1_0_1_25,2022-02-04T13:20:35.461Z,,,,,,,,,,,,,,,,,51,,,,,,,,,,,,,,322.91700000001583,,response,,,,13,D,,,,,,Space,keypress(Space),,,,silence,,,,-------- -------- --- --- ---- --- --- ------ -- --------<br>---- --------- --- ------- ------------ ---------- ---------<br>--- ---------- ------- ---------- ------- -- -------- ----<br>week --- ------ ----- ------ -- ---- --- ----- -- - -------<br>-------- -- --- --- -- ----- ----------- ----- -----------<br>---- --- ---------- --- ---- --- -- ----------,471057.2000000477,471056,470716.58,470718.2000000477,470733.083,471066.44,,25,week
screen,html.Screen,2_3_1_0_1_26,2022-02-04T13:20:35.789Z,,,,,,,,,,,,,,,,,51,,,,,,,,,,,,,,317.2600000476814,,response,,,,13,D,,,,,,Space,keypress(Space),,,,silence,,,,-------- -------- --- --- ---- --- --- ------ -- --------<br>---- --------- --- ------- ------------ ---------- ---------<br>--- ---------- ------- ---------- ------- -- -------- ----<br>---- the ------ ----- ------ -- ---- --- ----- -- - -------<br>-------- -- --- --- -- ----- ----------- ----- -----------<br>---- --- ---------- --- ---- --- -- ----------,471384.7999999523,471383.7000000477,471049.756,471057.2999999523,471066.44,471400.174,,26,the
screen,html.Screen,2_3_1_0_1_27,2022-02-04T13:20:36.225Z,,,,,,,,,,,,,,,,,51,,,,,,,,,,,,,,419.52600004768465,,response,,,,13,D,,,,,,Space,keypress(Space),,,,silence,,,,-------- -------- --- --- ---- --- --- ------ -- --------<br>---- --------- --- ------- ------------ ---------- ---------<br>--- ---------- ------- ---------- ------- -- -------- ----<br>---- --- Senate ----- ------ -- ---- --- ----- -- - -------<br>-------- -- --- --- -- ----- ----------- ----- -----------<br>---- --- ---------- --- ---- --- -- ----------,471821,471819.7000000477,471383.237,471385,471400.174,471833.053,,27,Senate
screen,html.Screen,2_3_1_0_1_28,2022-02-04T13:20:36.636Z,,,,,,,,,,,,,,,,,51,,,,,,,,,,,,,,397.44699999998556,,response,,,,13,D,,,,,,Space,keypress(Space),,,,silence,,,,-------- -------- --- --- ---- --- --- ------ -- --------<br>---- --------- --- ------- ------------ ---------- ---------<br>--- ---------- ------- ---------- ------- -- -------- ----<br>---- --- ------ seems ------ -- ---- --- ----- -- - -------<br>-------- -- --- --- -- ----- ----------- ----- -----------<br>---- --- ---------- --- ---- --- -- ----------,472231.7000000477,472230.5,471816.342,471821.09999990463,471833.053,472259.298,,28,seems
screen,html.Screen,2_3_1_0_1_29,2022-02-04T13:20:37.023Z,,,,,,,,,,,,,,,,,51,,,,,,,,,,,,,,358.7019999999902,,response,,,,13,D,,,,,,Space,keypress(Space),,,,silence,,,,-------- -------- --- --- ---- --- --- ------ -- --------<br>---- --------- --- ------- ------------ ---------- ---------<br>--- ---------- ------- ---------- ------- -- -------- ----<br>---- --- ------ ----- poised -- ---- --- ----- -- - -------<br>-------- -- --- --- -- ----- ----------- ----- -----------<br>---- --- ---------- --- ---- --- -- ----------,472619.2000000477,472618,472216.347,472231.90000009537,472259.298,472632.952,,29,poised
screen,html.Screen,2_3_1_0_1_30,2022-02-04T13:20:37.485Z,,,,,,,,,,,,,,,,,51,,,,,,,,,,,,,,446.9480000953772,,response,,,,13,D,,,,,,Space,keypress(Space),,,,silence,,,,-------- -------- --- --- ---- --- --- ------ -- --------<br>---- --------- --- ------- ------------ ---------- ---------<br>--- ---------- ------- ---------- ------- -- -------- ----<br>---- --- ------ ----- ------ to ---- --- ----- -- - -------<br>-------- -- --- --- -- ----- ----------- ----- -----------<br>---- --- ---------- --- ---- --- -- ----------,473081,473079.90000009537,472616.295,472619.5,472632.952,473082.786,,30,to
screen,html.Screen,2_3_1_0_1_31,2022-02-04T13:20:37.908Z,,,,,,,,,,,,,,,,,51,,,,,,,,,,,,,,420.61400009534555,,response,,,,13,D,,,,,,Space,keypress(Space),,,,silence,,,,-------- -------- --- --- ---- --- --- ------ -- --------<br>---- --------- --- ------- ------------ ---------- ---------<br>--- ---------- ------- ---------- ------- -- -------- ----<br>---- --- ------ ----- ------ -- join --- ----- -- - -------<br>-------- -- --- --- -- ----- ----------- ----- -----------<br>---- --- ---------- --- ---- --- -- ----------,473504.5,473503.40000009537,473066.4,473081.2000000477,473082.786,473516.712,,31,join
screen,html.Screen,2_3_1_0_1_32,2022-02-04T13:20:38.264Z,,,,,,,,,,,,,,,,,51,,,,,,,,,,,,,,342.1880000953679,,response,,,,13,D,,,,,,Space,keypress(Space),,,,silence,,,,-------- -------- --- --- ---- --- --- ------ -- --------<br>---- --------- --- ------- ------------ ---------- ---------<br>--- ---------- ------- ---------- ------- -- -------- ----<br>---- --- ------ ----- ------ -- ---- the ----- -- - -------<br>-------- -- --- --- -- ----- ----------- ----- -----------<br>---- --- ---------- --- ---- --- -- ----------,473859.7999999523,473858.90000009537,473499.455,473504.59999990463,473516.712,473866.054,,32,the
screen,html.Screen,2_3_1_0_1_33,2022-02-04T13:20:38.664Z,,,,,,,,,,,,,,,,,51,,,,,,,,,,,,,,392.3460000953637,,response,,,,13,D,,,,,,Space,keypress(Space),,,,silence,,,,-------- -------- --- --- ---- --- --- ------ -- --------<br>---- --------- --- ------- ------------ ---------- ---------<br>--- ---------- ------- ---------- ------- -- -------- ----<br>---- --- ------ ----- ------ -- ---- --- House -- - -------<br>-------- -- --- --- -- ----- ----------- ----- -----------<br>---- --- ---------- --- ---- --- -- ----------,474259.59999990463,474258.40000009537,473849.456,473860,473866.054,474266.006,,33,House
screen,html.Screen,2_3_1_0_1_34,2022-02-04T13:20:39.006Z,,,,,,,,,,,,,,,,,51,,,,,,,,,,,,,,334.8940000953735,,response,,,,13,D,,,,,,Space,keypress(Space),,,,silence,,,,-------- -------- --- --- ---- --- --- ------ -- --------<br>---- --------- --- ------- ------------ ---------- ---------<br>--- ---------- ------- ---------- ------- -- -------- ----<br>---- --- ------ ----- ------ -- ---- --- ----- in - -------<br>-------- -- --- --- -- ----- ----------- ----- -----------<br>---- --- ---------- --- ---- --- -- ----------,474602.09999990463,474600.90000009537,474249.763,474259.7000000477,474266.006,474615.946,,34,in
screen,html.Screen,2_3_1_0_1_35,2022-02-04T13:20:39.388Z,,,,,,,,,,,,,,,,,51,,,,,,,,,,,,,,366.6539999046363,,response,,,,13,D,,,,,,Space,keypress(Space),,,,silence,,,,-------- -------- --- --- ---- --- --- ------ -- --------<br>---- --------- --- ------- ------------ ---------- ---------<br>--- ---------- ------- ---------- ------- -- -------- ----<br>---- --- ------ ----- ------ -- ---- --- ----- -- a -------<br>-------- -- --- --- -- ----- ----------- ----- -----------<br>---- --- ---------- --- ---- --- -- ----------,474984.09999990463,474982.59999990463,474599.357,474602.2999999523,474615.946,474999.288,,35,a
screen,html.Screen,2_3_1_0_1_36,2022-02-04T13:20:39.798Z,,,,,,,,,,,,,,,,,51,,,,,,,,,,,,,,393.8119999046321,,response,,,,13,D,,,,,,Space,keypress(Space),,,,silence,,,,-------- -------- --- --- ---- --- --- ------ -- --------<br>---- --------- --- ------- ------------ ---------- ---------<br>--- ---------- ------- ---------- ------- -- -------- ----<br>---- --- ------ ----- ------ -- ---- --- ----- -- - massive<br>-------- -- --- --- -- ----- ----------- ----- -----------<br>---- --- ---------- --- ---- --- -- ----------,475394.2999999523,475393.09999990463,474982.636,474984.2999999523,474999.288,475399.298,,36,massive
screen,html.Screen,2_3_1_0_1_37,2022-02-04T13:20:40.296Z,,,,,,,,,,,,,,,,,51,,,,,,,,,,,,,,491.5019999523065,,response,,,,13,D,,,,,,Space,keypress(Space),,,,silence,,,,-------- -------- --- --- ---- --- --- ------ -- --------<br>---- --------- --- ------- ------------ ---------- ---------<br>--- ---------- ------- ---------- ------- -- -------- ----<br>---- --- ------ ----- ------ -- ---- --- ----- -- - -------<br>overhaul -- --- --- -- ----- ----------- ----- -----------<br>---- --- ---------- --- ---- --- -- ----------,475891.7999999523,475890.7999999523,475382.577,475394.40000009537,475399.298,475899.098,,37,overhaul
screen,html.Screen,2_3_1_0_1_38,2022-02-04T13:20:40.609Z,,,,,,,,,,,,,,,,,51,,,,,,,,,,,,,,304.50199990463443,,response,,,,13,D,,,,,,Space,keypress(Space),,,,silence,,,,-------- -------- --- --- ---- --- --- ------ -- --------<br>---- --------- --- ------- ------------ ---------- ---------<br>--- ---------- ------- ---------- ------- -- -------- ----<br>---- --- ------ ----- ------ -- ---- --- ----- -- - -------<br>-------- of --- --- -- ----- ----------- ----- -----------<br>---- --- ---------- --- ---- --- -- ----------,476204.7000000477,476203.59999990463,475882.54,475892,475899.098,476216.145,,38,of
screen,html.Screen,2_3_1_0_1_39,2022-02-04T13:20:40.908Z,,,,,,,,,,,,,,,,,51,,,,,,,,,,,,,,287.0550000476651,,response,,,,13,D,,,,,,Space,keypress(Space),,,,silence,,,,-------- -------- --- --- ---- --- --- ------ -- --------<br>---- --------- --- ------- ------------ ---------- ---------<br>--- ---------- ------- ---------- ------- -- -------- ----<br>---- --- ------ ----- ------ -- ---- --- ----- -- - -------<br>-------- -- the --- -- ----- ----------- ----- -----------<br>---- --- ---------- --- ---- --- -- ----------,476504.5,476503.2000000477,476199.135,476204.7999999523,476216.145,476516.142,,39,the
