sender,sender_type,sender_id,timestamp,meta,,Blues,Classical,Country,Dance,Electronic,Folk,Gospel,Hip-Hop,Jazz,Latin,Musical/Film,New-age,Pop,Prolific_id,Provo_ID,R&B,Rap,Reggae,Religious,Rock,Soul,Swing,Traditional,age,artist_name,correct,correctResponse,distraction,duration,education,ended_on,familiarity,gender,headphone_check_performance,item,list,music_frequency,offensiveness,pleasantness,position_correct,preference,response,response_action,snippet_file,song_name,song_rating,sound,stimulus_1,stimulus_2,stimulus_3,text,time_commit,time_end,time_render,time_run,time_show,time_switch,url,word,word_ID
Prolific ID,html.Form,0,2022-02-04T11:30:02.105Z,"{""labjs_version"":""20.2.2"",""labjs_build"":{""flavor"":""production"",""commit"":""a25486e0c714a0ae2ce03ff94b7bb6896854dcfa""},""location"":""https://run.pavlovia.org/mvasilev/prolific2_music_c/"",""userAgent"":""Mozilla/5.0 (Macintosh; Intel Mac OS X 10_15_7) AppleWebKit/605.1.15 (KHTML, like Gecko) Version/14.1.1 Safari/605.1.15"",""platform"":""MacIntel"",""language"":""en-gb"",""locale"":""en-GB"",""timeZone"":""Europe/London"",""timezoneOffset"":0,""screen_width"":2560,""screen_height"":1440,""scroll_width"":2126,""scroll_height"":1200,""window_innerWidth"":2126,""window_innerHeight"":1248,""devicePixelRatio"":1}",,,,,,,,,,,,,,,5f0f59f3bc44f50f92845a05,,,,,,,,,,,,,,,7704,,form submission,,,,,,,,,,,,,,,,,,,,,13900,13900,6179,6170,6196,13919,{},,
Introduction,html.Screen,1_0,2022-02-04T11:30:07.021Z,,,,,,,,,,,,,,,,,,,,,,,,,,,,,,,4906,,response,,,,,,,,,,,continue,click button,,,,,,,,,18816,18809,13903,13900,13919,18839,,,
Volume calibration,html.Screen,1_1,2022-02-04T11:30:16.234Z,,,,,,,,,,,,,,,,,,,,,,,,,,,,,,,9200,,response,,,,,,,,,,,continue,click button,,,,,,,,,28029,28023,18823,18816,18839,28063,,,
Task instructions,html.Screen,1_2,2022-02-04T11:30:20.959Z,,,,,,,,,,,,,,,,,,,,,,,,,,,,,,,4700.999999999996,,response,,,,,,,,,,,continue,click button,,,,,,,,,32753.999999999996,32747.999999999996,28047,28030,28063,32784,,,
Sounds,html.Screen,1_3_0_0,2022-02-04T11:30:25.227Z,,,,,,,,,,,,,,,,,,,,,,,,,,,,,,,4253,,timeout,,,,,,,,,1,,,,,,,,S,O,I,,37022,37021,32767,32755.000000000004,32784,37037,,,
Judgement,html.Screen,1_3_0_1,2022-02-04T11:30:26.968Z,,,,,,,,,,,,,,,,,,,,,,,,,,,,true,1,,1734,,response,,,,,,,,,1,,1,click #choice-1,,,,,S,O,I,,38763,38755,37021,37022,37037,38789,,,
Trial,flow.Sequence,1_3_0,2022-02-04T11:30:26.969Z,,,,,,,,,,,,,,,,,,,,,,,,,,,,,,,5971,,completion,,,,,,,,,1,,,,,,,,S,O,I,,38764,38755,32767,32755.000000000004,32784,38789,,,
Sounds,html.Screen,1_3_1_0,2022-02-04T11:30:31.231Z,,,,,,,,,,,,,,,,,,,,,,,,,,,,,,,4253,,timeout,,,,,,,,,2,,,,,,,,O,S,I,,43026,43025,38772,38764,38789,43042,,,
Judgement,html.Screen,1_3_1_1,2022-02-04T11:30:31.715Z,,,,,,,,,,,,,,,,,,,,,,,,,,,,true,2,,478,,response,,,,,,,,,2,,2,click #choice-2,,,,,O,S,I,,43510,43503,43025,43027,43042,43543,,,
Trial,flow.Sequence,1_3_1,2022-02-04T11:30:31.716Z,,,,,,,,,,,,,,,,,,,,,,,,,,,,,,,4714,,completion,,,,,,,,,2,,,,,,,,O,S,I,,43511,43503,38772,38764,38789,43543,,,
Sounds,html.Screen,1_3_2_0,2022-02-04T11:30:35.985Z,,,,,,,,,,,,,,,,,,,,,,,,,,,,,,,4253,,timeout,,,,,,,,,1,,,,,,,,S,I,O,,47780,47779,43525,43512,43543,47796,,,
Judgement,html.Screen,1_3_2_1,2022-02-04T11:30:36.599Z,,,,,,,,,,,,,,,,,,,,,,,,,,,,true,1,,609,,response,,,,,,,,,1,,1,click #choice-1,,,,,S,I,O,,48394,48388,47779,47781,47796,48412,,,
Trial,flow.Sequence,1_3_2,2022-02-04T11:30:36.599Z,,,,,,,,,,,,,,,,,,,,,,,,,,,,,,,4845,,completion,,,,,,,,,1,,,,,,,,S,I,O,,48394,48388,43525,43511,43543,48412,,,
Sounds,html.Screen,1_3_3_0,2022-02-04T11:30:40.855Z,,,,,,,,,,,,,,,,,,,,,,,,,,,,,,,4255,,timeout,,,,,,,,,3,,,,,,,,O,I,S,,52650,52649,48396,48395,48412,52667,,,
Judgement,html.Screen,1_3_3_1,2022-02-04T11:30:41.322Z,,,,,,,,,,,,,,,,,,,,,,,,,,,,true,3,,461,,response,,,,,,,,,3,,3,click #choice-3,,,,,O,I,S,,53117.00000000001,53110,52649,52650,52667,53150,,,
Trial,flow.Sequence,1_3_3,2022-02-04T11:30:41.322Z,,,,,,,,,,,,,,,,,,,,,,,,,,,,,,,4698,,completion,,,,,,,,,3,,,,,,,,O,I,S,,53117.00000000001,53110,48396,48394,48412,53150,,,
Sounds,html.Screen,1_3_4_0,2022-02-04T11:30:45.593Z,,,,,,,,,,,,,,,,,,,,,,,,,,,,,,,4254,,timeout,,,,,,,,,2,,,,,,,,I,S,O,,57388,57387,53134,53117.00000000001,53150,57404,,,
Judgement,html.Screen,1_3_4_1,2022-02-04T11:30:46.070Z,,,,,,,,,,,,,,,,,,,,,,,,,,,,true,2,,471.0000000000073,,response,,,,,,,,,2,,2,click #choice-2,,,,,I,S,O,,57865,57858.00000000001,57387,57388,57404,57887,,,
Trial,flow.Sequence,1_3_4,2022-02-04T11:30:46.071Z,,,,,,,,,,,,,,,,,,,,,,,,,,,,,,,4708.000000000007,,completion,,,,,,,,,2,,,,,,,,I,S,O,,57866,57858.00000000001,53134,53117.00000000001,53150,57887,,,
Sounds,html.Screen,1_3_5_0,2022-02-04T11:30:50.330Z,,,,,,,,,,,,,,,,,,,,,,,,,,,,,,,4253,,timeout,,,,,,,,,3,,,,,,,,I,O,S,,62125,62124,57871,57866,57887,62140,,,
Judgement,html.Screen,1_3_5_1,2022-02-04T11:30:50.840Z,,,,,,,,,,,,,,,,,,,,,,,,,,,,true,3,,504,,response,,,,,,,,,3,,3,click #choice-3,,,,,I,O,S,,62635,62628,62124,62125,62140,62658,,,
Trial,flow.Sequence,1_3_5,2022-02-04T11:30:50.840Z,,,,,,,,,,,,,,,,,,,,,,,,,,,,,,,4741,,completion,,,,,,,,,3,,,,,,,,I,O,S,,62635,62628,57871,57866,57887,62658,,,
Task,flow.Loop,1_3,2022-02-04T11:30:50.843Z,,,,,,,,,,,,,,,,,,,,,,,,,,,,,,,29844,,completion,,,1,,,,,,,,,,,,,,,,,,62638,62628,32767,32753.999999999996,32784,62658,,,
Trap,html.Screen,1_4,2022-02-04T11:30:50.845Z,,,,,,,,,,,,,,,,,,,,,,,,,,,,,,,NaN,,skipped,,,,,,,,,,,,,,,,,,,,,62640,62628,,62639,,62658,,,
Thanks,html.Screen,1_5,2022-02-04T11:30:54.485Z,,,,,,,,,,,,,,,,,,,,,,,,,,,,,,,3632,,response,,,,,,,,,,,continue,click button,,,,,,,,,66281,66273,62641,62640,62658,68863,,,
Headphone screening,flow.Sequence,1,2022-02-04T11:30:54.486Z,,,,,,,,,,,,,,,,,,,,,,,,,,,,,,,52354,,completion,,,,,,,,,,,,,,,,,,,,,66281,66273,13903,13900,13919,68863,,,
Instructions,html.Page,2_0,2022-02-04T11:31:09.229Z,,,,,,,,,,,,,,,,,,,,,,,,,,,,,,,12160,,form submission,,,,,,,,,,,,,,,,,,,,,81024,81023,68852,68845,68863,81040,,,
Holding screen,html.Screen,2_1_0_0,2022-02-04T11:31:19.236Z,,,,,,,,,,,,,,,,,,,,,,,,,,,,,,,10009,,timeout,,,,,,,,,,,,,,,,,,,,,91032,91031,81029,81025,81040,91049,,,
screen,html.Screen,2_1_0_1_0,2022-02-04T11:31:21.006Z,,,,,,,,,,,,,,,,,53,,,,,,,,,,,,,,1761,,response,,,,99,,,,,,,Space,keypress(Space),,,,,,,,When -- ----- -- ------ - ------- --- ----------<br>------------- ------ ------ ---- ---- ------- ----- -- ----<br>-------- ------- -- ---------- --- - --- ----- ----- ----<br>---- --- --- ----- --- ---- ---- ------- ----- ---- -------<br>--- --- -- ----- -- --- ---- -- --- ---- -- ------ ------<br>--- ----- -- ----,92801,92792,91031,91032,91049,92832,,0,When
screen,html.Screen,2_1_0_1_1,2022-02-04T11:31:21.648Z,,,,,,,,,,,,,,,,,53,,,,,,,,,,,,,,618,,response,,,,99,,,,,,,Space,keypress(Space),,,,,,,,---- it ----- -- ------ - ------- --- ----------<br>------------- ------ ------ ---- ---- ------- ----- -- ----<br>-------- ------- -- ---------- --- - --- ----- ----- ----<br>---- --- --- ----- --- ---- ---- ------- ----- ---- -------<br>--- --- -- ----- -- --- ---- -- --- ---- -- ------ ------<br>--- ----- -- ----,93443,93433,92815,92801,92832,93483,,1,it
screen,html.Screen,2_1_0_1_2,2022-02-04T11:31:22.177Z,,,,,,,,,,,,,,,,,53,,,,,,,,,,,,,,497.00000000001455,,response,,,,99,,,,,,,Space,keypress(Space),,,,,,,,---- -- comes -- ------ - ------- --- ----------<br>------------- ------ ------ ---- ---- ------- ----- -- ----<br>-------- ------- -- ---------- --- - --- ----- ----- ----<br>---- --- --- ----- --- ---- ---- ------- ----- ---- -------<br>--- --- -- ----- -- --- ---- -- --- ---- -- ------ ------<br>--- ----- -- ----,93972.00000000001,93963.00000000001,93466,93443,93483,94000,,2,comes
screen,html.Screen,2_1_0_1_3,2022-02-04T11:31:22.637Z,,,,,,,,,,,,,,,,,53,,,,,,,,,,,,,,439,,response,,,,99,,,,,,,Space,keypress(Space),,,,,,,,---- -- ----- to ------ - ------- --- ----------<br>------------- ------ ------ ---- ---- ------- ----- -- ----<br>-------- ------- -- ---------- --- - --- ----- ----- ----<br>---- --- --- ----- --- ---- ---- ------- ----- ---- -------<br>--- --- -- ----- -- --- ---- -- --- ---- -- ------ ------<br>--- ----- -- ----,94432,94422,93983,93972.00000000001,94000,94467,,3,to
screen,html.Screen,2_1_0_1_4,2022-02-04T11:31:24.044Z,,,,,,,,,,,,,,,,,53,,,,,,,,,,,,,,1379.0000000000146,,response,,,,99,,,,,,,Space,keypress(Space),,,,,,,,---- -- ----- -- having - ------- --- ----------<br>------------- ------ ------ ---- ---- ------- ----- -- ----<br>-------- ------- -- ---------- --- - --- ----- ----- ----<br>---- --- --- ----- --- ---- ---- ------- ----- ---- -------<br>--- --- -- ----- -- --- ---- -- --- ---- -- ------ ------<br>--- ----- -- ----,95839,95829.00000000001,94450,94432,94467,95868,,4,having
screen,html.Screen,2_1_0_1_5,2022-02-04T11:31:24.393Z,,,,,,,,,,,,,,,,,53,,,,,,,,,,,,,,327,,response,,,,99,,,,,,,Space,keypress(Space),,,,,,,,---- -- ----- -- ------ a ------- --- ----------<br>------------- ------ ------ ---- ---- ------- ----- -- ----<br>-------- ------- -- ---------- --- - --- ----- ----- ----<br>---- --- --- ----- --- ---- ---- ------- ----- ---- -------<br>--- --- -- ----- -- --- ---- -- --- ---- -- ------ ------<br>--- ----- -- ----,96188,96178,95851,95839,95868,96219,,5,a
screen,html.Screen,2_1_0_1_6,2022-02-04T11:31:24.809Z,,,,,,,,,,,,,,,,,53,,,,,,,,,,,,,,393,,response,,,,99,,,,,,,Space,keypress(Space),,,,,,,,---- -- ----- -- ------ - lasting --- ----------<br>------------- ------ ------ ---- ---- ------- ----- -- ----<br>-------- ------- -- ---------- --- - --- ----- ----- ----<br>---- --- --- ----- --- ---- ---- ------- ----- ---- -------<br>--- --- -- ----- -- --- ---- -- --- ---- -- ------ ------<br>--- ----- -- ----,96604,96595,96202,96188,96219,96636,,6,lasting
screen,html.Screen,2_1_0_1_7,2022-02-04T11:31:25.213Z,,,,,,,,,,,,,,,,,53,,,,,,,,,,,,,,381,,response,,,,99,,,,,,,Space,keypress(Space),,,,,,,,---- -- ----- -- ------ - ------- and ----------<br>------------- ------ ------ ---- ---- ------- ----- -- ----<br>-------- ------- -- ---------- --- - --- ----- ----- ----<br>---- --- --- ----- --- ---- ---- ------- ----- ---- -------<br>--- --- -- ----- -- --- ---- -- --- ---- -- ------ ------<br>--- ----- -- ----,97008,97000,96619,96605,96636,97036,,7,and
screen,html.Screen,2_1_0_1_8,2022-02-04T11:31:25.665Z,,,,,,,,,,,,,,,,,53,,,,,,,,,,,,,,432,,response,,,,99,,,,,,,Space,keypress(Space),,,,,,,,---- -- ----- -- ------ - ------- --- fulfilling<br>------------- ------ ------ ---- ---- ------- ----- -- ----<br>-------- ------- -- ---------- --- - --- ----- ----- ----<br>---- --- --- ----- --- ---- ---- ------- ----- ---- -------<br>--- --- -- ----- -- --- ---- -- --- ---- -- ------ ------<br>--- ----- -- ----,97460.00000000001,97450,97018,97008,97036,97503,,8,fulfilling
screen,html.Screen,2_1_0_1_9,2022-02-04T11:31:26.105Z,,,,,,,,,,,,,,,,,53,,,,,,,,,,,,,,404,,response,,,,99,,,,,,,Space,keypress(Space),,,,,,,,"---- -- ----- -- ------ - ------- --- ----------<br>relationship, ------ ------ ---- ---- ------- ----- -- ----<br>-------- ------- -- ---------- --- - --- ----- ----- ----<br>---- --- --- ----- --- ---- ---- ------- ----- ---- -------<br>--- --- -- ----- -- --- ---- -- --- ---- -- ------ ------<br>--- ----- -- ----",97900,97890,97486,97461,97503,97936,,9,"relationship,"
screen,html.Screen,2_1_0_1_10,2022-02-04T11:31:26.553Z,,,,,,,,,,,,,,,,,53,,,,,,,,,,,,,,419,,response,,,,99,,,,,,,Space,keypress(Space),,,,,,,,---- -- ----- -- ------ - ------- --- ----------<br>------------- common ------ ---- ---- ------- ----- -- ----<br>-------- ------- -- ---------- --- - --- ----- ----- ----<br>---- --- --- ----- --- ---- ---- ------- ----- ---- -------<br>--- --- -- ----- -- --- ---- -- --- ---- -- ------ ------<br>--- ----- -- ----,98349,98339,97920,97900,97936,98386,,10,common
screen,html.Screen,2_1_0_1_11,2022-02-04T11:31:27.060Z,,,,,,,,,,,,,,,,,53,,,,,,,,,,,,,,475,,response,,,,99,,,,,,,Space,keypress(Space),,,,,,,,---- -- ----- -- ------ - ------- --- ----------<br>------------- ------ wisdom ---- ---- ------- ----- -- ----<br>-------- ------- -- ---------- --- - --- ----- ----- ----<br>---- --- --- ----- --- ---- ---- ------- ----- ---- -------<br>--- --- -- ----- -- --- ---- -- --- ---- -- ------ ------<br>--- ----- -- ----,98855,98845,98370,98349,98386,98888,,11,wisdom
screen,html.Screen,2_1_0_1_12,2022-02-04T11:31:27.488Z,,,,,,,,,,,,,,,,,53,,,,,,,,,,,,,,403,,response,,,,99,,,,,,,Space,keypress(Space),,,,,,,,---- -- ----- -- ------ - ------- --- ----------<br>------------- ------ ------ says ---- ------- ----- -- ----<br>-------- ------- -- ---------- --- - --- ----- ----- ----<br>---- --- --- ----- --- ---- ---- ------- ----- ---- -------<br>--- --- -- ----- -- --- ---- -- --- ---- -- ------ ------<br>--- ----- -- ----,99283,99273,98870,98855,98888,99321,,12,says
screen,html.Screen,2_1_0_1_13,2022-02-04T11:31:27.870Z,,,,,,,,,,,,,,,,,53,,,,,,,,,,,,,,350,,response,,,,99,,,,,,,Space,keypress(Space),,,,,,,,---- -- ----- -- ------ - ------- --- ----------<br>------------- ------ ------ ---- that ------- ----- -- ----<br>-------- ------- -- ---------- --- - --- ----- ----- ----<br>---- --- --- ----- --- ---- ---- ------- ----- ---- -------<br>--- --- -- ----- -- --- ---- -- --- ---- -- ------ ------<br>--- ----- -- ----,99665,99655,99305,99283,99321,99688,,13,that
screen,html.Screen,2_1_0_1_14,2022-02-04T11:31:28.305Z,,,,,,,,,,,,,,,,,53,,,,,,,,,,,,,,421,,response,,,,99,,,,,,,Space,keypress(Space),,,,,,,,---- -- ----- -- ------ - ------- --- ----------<br>------------- ------ ------ ---- ---- feeling ----- -- ----<br>-------- ------- -- ---------- --- - --- ----- ----- ----<br>---- --- --- ----- --- ---- ---- ------- ----- ---- -------<br>--- --- -- ----- -- --- ---- -- --- ---- -- ------ ------<br>--- ----- -- ----,100101,100092,99671,99665,99688,100138,,14,feeling
screen,html.Screen,2_1_0_1_15,2022-02-04T11:31:28.713Z,,,,,,,,,,,,,,,,,53,,,,,,,,,,,,,,376,,response,,,,99,,,,,,,Space,keypress(Space),,,,,,,,---- -- ----- -- ------ - ------- --- ----------<br>------------- ------ ------ ---- ---- ------- close -- ----<br>-------- ------- -- ---------- --- - --- ----- ----- ----<br>---- --- --- ----- --- ---- ---- ------- ----- ---- -------<br>--- --- -- ----- -- --- ---- -- --- ---- -- ------ ------<br>--- ----- -- ----,100508,100498,100122,100101,100138,100538,,15,close
screen,html.Screen,2_1_0_1_16,2022-02-04T11:31:29.095Z,,,,,,,,,,,,,,,,,53,,,,,,,,,,,,,,359,,response,,,,99,,,,,,,Space,keypress(Space),,,,,,,,---- -- ----- -- ------ - ------- --- ----------<br>------------- ------ ------ ---- ---- ------- ----- to ----<br>-------- ------- -- ---------- --- - --- ----- ----- ----<br>---- --- --- ----- --- ---- ---- ------- ----- ---- -------<br>--- --- -- ----- -- --- ---- -- --- ---- -- ------ ------<br>--- ----- -- ----,100890,100881,100522,100508,100538,100922,,16,to
screen,html.Screen,2_1_0_1_17,2022-02-04T11:31:29.445Z,,,,,,,,,,,,,,,,,53,,,,,,,,,,,,,,326.00000000001455,,response,,,,99,,,,,,,Space,keypress(Space),,,,,,,,---- -- ----- -- ------ - ------- --- ----------<br>------------- ------ ------ ---- ---- ------- ----- -- your<br>-------- ------- -- ---------- --- - --- ----- ----- ----<br>---- --- --- ----- --- ---- ---- ------- ----- ---- -------<br>--- --- -- ----- -- --- ---- -- --- ---- -- ------ ------<br>--- ----- -- ----,101240.00000000001,101231.00000000001,100905,100891,100922,101273,,17,your
screen,html.Screen,2_1_0_1_18,2022-02-04T11:31:29.825Z,,,,,,,,,,,,,,,,,53,,,,,,,,,,,,,,355,,response,,,,99,,,,,,,Space,keypress(Space),,,,,,,,---- -- ----- -- ------ - ------- --- ----------<br>------------- ------ ------ ---- ---- ------- ----- -- ----<br>romantic ------- -- ---------- --- - --- ----- ----- ----<br>---- --- --- ----- --- ---- ---- ------- ----- ---- -------<br>--- --- -- ----- -- --- ---- -- --- ---- -- ------ ------<br>--- ----- -- ----,101621,101611,101256,101241,101273,101640,,18,romantic
screen,html.Screen,2_1_0_1_19,2022-02-04T11:31:30.242Z,,,,,,,,,,,,,,,,,53,,,,,,,,,,,,,,405,,response,,,,99,,,,,,,Space,keypress(Space),,,,,,,,---- -- ----- -- ------ - ------- --- ----------<br>------------- ------ ------ ---- ---- ------- ----- -- ----<br>-------- partner -- ---------- --- - --- ----- ----- ----<br>---- --- --- ----- --- ---- ---- ------- ----- ---- -------<br>--- --- -- ----- -- --- ---- -- --- ---- -- ------ ------<br>--- ----- -- ----,102037,102028,101623,101621,101640,102073,,19,partner
screen,html.Screen,2_1_0_1_20,2022-02-04T11:31:30.637Z,,,,,,,,,,,,,,,,,53,,,,,,,,,,,,,,366,,response,,,,99,,,,,,,Space,keypress(Space),,,,,,,,---- -- ----- -- ------ - ------- --- ----------<br>------------- ------ ------ ---- ---- ------- ----- -- ----<br>-------- ------- is ---------- --- - --- ----- ----- ----<br>---- --- --- ----- --- ---- ---- ------- ----- ---- -------<br>--- --- -- ----- -- --- ---- -- --- ---- -- ------ ------<br>--- ----- -- ----,102432,102422,102056,102037,102073,102456,,20,is
screen,html.Screen,2_1_0_1_21,2022-02-04T11:31:30.985Z,,,,,,,,,,,,,,,,,53,,,,,,,,,,,,,,331,,response,,,,99,,,,,,,Space,keypress(Space),,,,,,,,---- -- ----- -- ------ - ------- --- ----------<br>------------- ------ ------ ---- ---- ------- ----- -- ----<br>-------- ------- -- paramount. --- - --- ----- ----- ----<br>---- --- --- ----- --- ---- ---- ------- ----- ---- -------<br>--- --- -- ----- -- --- ---- -- --- ---- -- ------ ------<br>--- ----- -- ----,102781,102771,102440,102433,102456,102807,,21,paramount.
screen,html.Screen,2_1_0_1_22,2022-02-04T11:31:32.233Z,,,,,,,,,,,,,,,,,53,,,,,,,,,,,,,,1228,,response,,,,99,,,,,,,Space,keypress(Space),,,,,,,,---- -- ----- -- ------ - ------- --- ----------<br>------------- ------ ------ ---- ---- ------- ----- -- ----<br>-------- ------- -- ---------- But - --- ----- ----- ----<br>---- --- --- ----- --- ---- ---- ------- ----- ---- -------<br>--- --- -- ----- -- --- ---- -- --- ---- -- ------ ------<br>--- ----- -- ----,104028,104019,102791,102781,102807,104058,,22,But
screen,html.Screen,2_1_0_1_23,2022-02-04T11:31:32.627Z,,,,,,,,,,,,,,,,,53,,,,,,,,,,,,,,371,,response,,,,99,,,,,,,Space,keypress(Space),,,,,,,,---- -- ----- -- ------ - ------- --- ----------<br>------------- ------ ------ ---- ---- ------- ----- -- ----<br>-------- ------- -- ---------- --- a --- ----- ----- ----<br>---- --- --- ----- --- ---- ---- ------- ----- ---- -------<br>--- --- -- ----- -- --- ---- -- --- ---- -- ------ ------<br>--- ----- -- ----,104422,104413,104042,104028,104058,104442,,23,a
screen,html.Screen,2_1_0_1_24,2022-02-04T11:31:32.963Z,,,,,,,,,,,,,,,,,53,,,,,,,,,,,,,,325,,response,,,,99,,,,,,,Space,keypress(Space),,,,,,,,---- -- ----- -- ------ - ------- --- ----------<br>------------- ------ ------ ---- ---- ------- ----- -- ----<br>-------- ------- -- ---------- --- - new ----- ----- ----<br>---- --- --- ----- --- ---- ---- ------- ----- ---- -------<br>--- --- -- ----- -- --- ---- -- --- ---- -- ------ ------<br>--- ----- -- ----,104759,104750,104425,104423,104442,104791,,24,new
screen,html.Screen,2_1_0_1_25,2022-02-04T11:31:33.335Z,,,,,,,,,,,,,,,,,53,,,,,,,,,,,,,,346,,response,,,,99,,,,,,,Space,keypress(Space),,,,,,,,---- -- ----- -- ------ - ------- --- ----------<br>------------- ------ ------ ---- ---- ------- ----- -- ----<br>-------- ------- -- ---------- --- - --- study ----- ----<br>---- --- --- ----- --- ---- ---- ------- ----- ---- -------<br>--- --- -- ----- -- --- ---- -- --- ---- -- ------ ------<br>--- ----- -- ----,105131,105121,104775,104759,104791,105158,,25,study
screen,html.Screen,2_1_0_1_26,2022-02-04T11:31:33.762Z,,,,,,,,,,,,,,,,,53,,,,,,,,,,,,,,408,,response,,,,99,,,,,,,Space,keypress(Space),,,,,,,,---- -- ----- -- ------ - ------- --- ----------<br>------------- ------ ------ ---- ---- ------- ----- -- ----<br>-------- ------- -- ---------- --- - --- ----- finds ----<br>---- --- --- ----- --- ---- ---- ------- ----- ---- -------<br>--- --- -- ----- -- --- ---- -- --- ---- -- ------ ------<br>--- ----- -- ----,105557,105550,105142,105131,105158,105592,,26,finds
screen,html.Screen,2_1_0_1_27,2022-02-04T11:31:34.156Z,,,,,,,,,,,,,,,,,53,,,,,,,,,,,,,,366,,response,,,,99,,,,,,,Space,keypress(Space),,,,,,,,---- -- ----- -- ------ - ------- --- ----------<br>------------- ------ ------ ---- ---- ------- ----- -- ----<br>-------- ------- -- ---------- --- - --- ----- ----- that<br>---- --- --- ----- --- ---- ---- ------- ----- ---- -------<br>--- --- -- ----- -- --- ---- -- --- ---- -- ------ ------<br>--- ----- -- ----,105951.00000000001,105942,105576,105558,105592,105977,,27,that
screen,html.Screen,2_1_0_1_28,2022-02-04T11:31:34.552Z,,,,,,,,,,,,,,,,,53,,,,,,,,,,,,,,378.00000000001455,,response,,,,99,,,,,,,Space,keypress(Space),,,,,,,,---- -- ----- -- ------ - ------- --- ----------<br>------------- ------ ------ ---- ---- ------- ----- -- ----<br>-------- ------- -- ---------- --- - --- ----- ----- ----<br>it's --- --- ----- --- ---- ---- ------- ----- ---- -------<br>--- --- -- ----- -- --- ---- -- --- ---- -- ------ ------<br>--- ----- -- ----,106347.00000000001,106338.00000000001,105960,105952,105977,106377,,28,it's
screen,html.Screen,2_1_0_1_29,2022-02-04T11:31:34.911Z,,,,,,,,,,,,,,,,,53,,,,,,,,,,,,,,337,,response,,,,99,,,,,,,Space,keypress(Space),,,,,,,,---- -- ----- -- ------ - ------- --- ----------<br>------------- ------ ------ ---- ---- ------- ----- -- ----<br>-------- ------- -- ---------- --- - --- ----- ----- ----<br>---- not --- ----- --- ---- ---- ------- ----- ---- -------<br>--- --- -- ----- -- --- ---- -- --- ---- -- ------ ------<br>--- ----- -- ----,106706,106697,106360,106347.00000000001,106377,106727,,29,not
screen,html.Screen,2_1_0_1_30,2022-02-04T11:31:35.315Z,,,,,,,,,,,,,,,,,53,,,,,,,,,,,,,,391,,response,,,,99,,,,,,,Space,keypress(Space),,,,,,,,---- -- ----- -- ------ - ------- --- ----------<br>------------- ------ ------ ---- ---- ------- ----- -- ----<br>-------- ------- -- ---------- --- - --- ----- ----- ----<br>---- --- how ----- --- ---- ---- ------- ----- ---- -------<br>--- --- -- ----- -- --- ---- -- --- ---- -- ------ ------<br>--- ----- -- ----,107111,107101,106710,106706,106727,107144,,30,how
screen,html.Screen,2_1_0_1_31,2022-02-04T11:31:35.675Z,,,,,,,,,,,,,,,,,53,,,,,,,,,,,,,,333,,response,,,,99,,,,,,,Space,keypress(Space),,,,,,,,---- -- ----- -- ------ - ------- --- ----------<br>------------- ------ ------ ---- ---- ------- ----- -- ----<br>-------- ------- -- ---------- --- - --- ----- ----- ----<br>---- --- --- close --- ---- ---- ------- ----- ---- -------<br>--- --- -- ----- -- --- ---- -- --- ---- -- ------ ------<br>--- ----- -- ----,107471,107461,107128,107111,107144,107495,,31,close
screen,html.Screen,2_1_0_1_32,2022-02-04T11:31:36.035Z,,,,,,,,,,,,,,,,,53,,,,,,,,,,,,,,344,,response,,,,99,,,,,,,Space,keypress(Space),,,,,,,,---- -- ----- -- ------ - ------- --- ----------<br>------------- ------ ------ ---- ---- ------- ----- -- ----<br>-------- ------- -- ---------- --- - --- ----- ----- ----<br>---- --- --- ----- you ---- ---- ------- ----- ---- -------<br>--- --- -- ----- -- --- ---- -- --- ---- -- ------ ------<br>--- ----- -- ----,107831,107821,107477,107471,107495,107861,,32,you
screen,html.Screen,2_1_0_1_33,2022-02-04T11:31:36.374Z,,,,,,,,,,,,,,,,,53,,,,,,,,,,,,,,315,,response,,,,99,,,,,,,Space,keypress(Space),,,,,,,,---- -- ----- -- ------ - ------- --- ----------<br>------------- ------ ------ ---- ---- ------- ----- -- ----<br>-------- ------- -- ---------- --- - --- ----- ----- ----<br>---- --- --- ----- --- feel ---- ------- ----- ---- -------<br>--- --- -- ----- -- --- ---- -- --- ---- -- ------ ------<br>--- ----- -- ----,108169,108160,107845,107831,107861,108194,,33,feel
screen,html.Screen,2_1_0_1_34,2022-02-04T11:31:36.813Z,,,,,,,,,,,,,,,,,53,,,,,,,,,,,,,,421,,response,,,,99,,,,,,,Space,keypress(Space),,,,,,,,---- -- ----- -- ------ - ------- --- ----------<br>------------- ------ ------ ---- ---- ------- ----- -- ----<br>-------- ------- -- ---------- --- - --- ----- ----- ----<br>---- --- --- ----- --- ---- that ------- ----- ---- -------<br>--- --- -- ----- -- --- ---- -- --- ---- -- ------ ------<br>--- ----- -- ----,108608,108599,108178,108170,108194,108645,,34,that
screen,html.Screen,2_1_0_1_35,2022-02-04T11:31:37.218Z,,,,,,,,,,,,,,,,,53,,,,,,,,,,,,,,375,,response,,,,99,,,,,,,Space,keypress(Space),,,,,,,,---- -- ----- -- ------ - ------- --- ----------<br>------------- ------ ------ ---- ---- ------- ----- -- ----<br>-------- ------- -- ---------- --- - --- ----- ----- ----<br>---- --- --- ----- --- ---- ---- matters ----- ---- -------<br>--- --- -- ----- -- --- ---- -- --- ---- -- ------ ------<br>--- ----- -- ----,109013,109004,108629,108608,108645,109046,,35,matters
screen,html.Screen,2_1_0_1_36,2022-02-04T11:31:37.589Z,,,,,,,,,,,,,,,,,53,,,,,,,,,,,,,,345,,response,,,,99,,,,,,,Space,keypress(Space),,,,,,,,"---- -- ----- -- ------ - ------- --- ----------<br>------------- ------ ------ ---- ---- ------- ----- -- ----<br>-------- ------- -- ---------- --- - --- ----- ----- ----<br>---- --- --- ----- --- ---- ---- ------- most, ---- -------<br>--- --- -- ----- -- --- ---- -- --- ---- -- ------ ------<br>--- ----- -- ----",109384,109374,109029,109013,109046,109413,,36,"most,"
screen,html.Screen,2_1_0_1_37,2022-02-04T11:31:37.925Z,,,,,,,,,,,,,,,,,53,,,,,,,,,,,,,,315,,response,,,,99,,,,,,,Space,keypress(Space),,,,,,,,---- -- ----- -- ------ - ------- --- ----------<br>------------- ------ ------ ---- ---- ------- ----- -- ----<br>-------- ------- -- ---------- --- - --- ----- ----- ----<br>---- --- --- ----- --- ---- ---- ------- ----- it's -------<br>--- --- -- ----- -- --- ---- -- --- ---- -- ------ ------<br>--- ----- -- ----,109721,109711,109396,109384,109413,109746,,37,it's
screen,html.Screen,2_1_0_1_38,2022-02-04T11:31:38.307Z,,,,,,,,,,,,,,,,,53,,,,,,,,,,,,,,364.00000000001455,,response,,,,99,,,,,,,Space,keypress(Space),,,,,,,,---- -- ----- -- ------ - ------- --- ----------<br>------------- ------ ------ ---- ---- ------- ----- -- ----<br>-------- ------- -- ---------- --- - --- ----- ----- ----<br>---- --- --- ----- --- ---- ---- ------- ----- ---- whether<br>--- --- -- ----- -- --- ---- -- --- ---- -- ------ ------<br>--- ----- -- ----,110103.00000000001,110094.00000000001,109730,109721,109746,110130,,38,whether
screen,html.Screen,2_1_0_1_39,2022-02-04T11:31:38.680Z,,,,,,,,,,,,,,,,,53,,,,,,,,,,,,,,353.00000000001455,,response,,,,99,,,,,,,Space,keypress(Space),,,,,,,,---- -- ----- -- ------ - ------- --- ----------<br>------------- ------ ------ ---- ---- ------- ----- -- ----<br>-------- ------- -- ---------- --- - --- ----- ----- ----<br>---- --- --- ----- --- ---- ---- ------- ----- ---- -------<br>you --- -- ----- -- --- ---- -- --- ---- -- ------ ------<br>--- ----- -- ----,110475.00000000001,110466.00000000001,110113,110103.00000000001,110130,110497,,39,you
screen,html.Screen,2_1_0_1_40,2022-02-04T11:31:39.050Z,,,,,,,,,,,,,,,,,53,,,,,,,,,,,,,,356,,response,,,,99,,,,,,,Space,keypress(Space),,,,,,,,---- -- ----- -- ------ - ------- --- ----------<br>------------- ------ ------ ---- ---- ------- ----- -- ----<br>-------- ------- -- ---------- --- - --- ----- ----- ----<br>---- --- --- ----- --- ---- ---- ------- ----- ---- -------<br>--- are -- ----- -- --- ---- -- --- ---- -- ------ ------<br>--- ----- -- ----,110846,110836,110480,110475.00000000001,110497,110880,,40,are
screen,html.Screen,2_1_0_1_41,2022-02-04T11:31:39.433Z,,,,,,,,,,,,,,,,,53,,,,,,,,,,,,,,356.00000000001455,,response,,,,99,,,,,,,Space,keypress(Space),,,,,,,,---- -- ----- -- ------ - ------- --- ----------<br>------------- ------ ------ ---- ---- ------- ----- -- ----<br>-------- ------- -- ---------- --- - --- ----- ----- ----<br>---- --- --- ----- --- ---- ---- ------- ----- ---- -------<br>--- --- as ----- -- --- ---- -- --- ---- -- ------ ------<br>--- ----- -- ----,111228.00000000001,111219.00000000001,110863,110846,110880,111247,,41,as
screen,html.Screen,2_1_0_1_42,2022-02-04T11:31:39.793Z,,,,,,,,,,,,,,,,,53,,,,,,,,,,,,,,348.00000000001455,,response,,,,99,,,,,,,Space,keypress(Space),,,,,,,,---- -- ----- -- ------ - ------- --- ----------<br>------------- ------ ------ ---- ---- ------- ----- -- ----<br>-------- ------- -- ---------- --- - --- ----- ----- ----<br>---- --- --- ----- --- ---- ---- ------- ----- ---- -------<br>--- --- -- close -- --- ---- -- --- ---- -- ------ ------<br>--- ----- -- ----,111588.00000000001,111579.00000000001,111231,111229,111247,111614,,42,close
screen,html.Screen,2_1_0_1_43,2022-02-04T11:31:40.153Z,,,,,,,,,,,,,,,,,53,,,,,,,,,,,,,,342,,response,,,,99,,,,,,,Space,keypress(Space),,,,,,,,---- -- ----- -- ------ - ------- --- ----------<br>------------- ------ ------ ---- ---- ------- ----- -- ----<br>-------- ------- -- ---------- --- - --- ----- ----- ----<br>---- --- --- ----- --- ---- ---- ------- ----- ---- -------<br>--- --- -- ----- as --- ---- -- --- ---- -- ------ ------<br>--- ----- -- ----,111948.00000000001,111939,111597,111589,111614,111981,,43,as
screen,html.Screen,2_1_0_1_44,2022-02-04T11:31:40.535Z,,,,,,,,,,,,,,,,,53,,,,,,,,,,,,,,356,,response,,,,99,,,,,,,Space,keypress(Space),,,,,,,,---- -- ----- -- ------ - ------- --- ----------<br>------------- ------ ------ ---- ---- ------- ----- -- ----<br>-------- ------- -- ---------- --- - --- ----- ----- ----<br>---- --- --- ----- --- ---- ---- ------- ----- ---- -------<br>--- --- -- ----- -- you ---- -- --- ---- -- ------ ------<br>--- ----- -- ----,112331,112321,111965,111949,111981,112348,,44,you
screen,html.Screen,2_1_0_1_45,2022-02-04T11:31:40.907Z,,,,,,,,,,,,,,,,,53,,,,,,,,,,,,,,360,,response,,,,99,,,,,,,Space,keypress(Space),,,,,,,,---- -- ----- -- ------ - ------- --- ----------<br>------------- ------ ------ ---- ---- ------- ----- -- ----<br>-------- ------- -- ---------- --- - --- ----- ----- ----<br>---- --- --- ----- --- ---- ---- ------- ----- ---- -------<br>--- --- -- ----- -- --- want -- --- ---- -- ------ ------<br>--- ----- -- ----,112702,112693,112333,112331,112348,112732,,45,want
screen,html.Screen,2_1_0_1_46,2022-02-04T11:31:41.245Z,,,,,,,,,,,,,,,,,53,,,,,,,,,,,,,,316,,response,,,,99,,,,,,,Space,keypress(Space),,,,,,,,---- -- ----- -- ------ - ------- --- ----------<br>------------- ------ ------ ---- ---- ------- ----- -- ----<br>-------- ------- -- ---------- --- - --- ----- ----- ----<br>---- --- --- ----- --- ---- ---- ------- ----- ---- -------<br>--- --- -- ----- -- --- ---- to --- ---- -- ------ ------<br>--- ----- -- ----,113040,113031,112715,112702,112732,113065,,46,to
screen,html.Screen,2_1_0_1_47,2022-02-04T11:31:41.605Z,,,,,,,,,,,,,,,,,53,,,,,,,,,,,,,,342,,response,,,,99,,,,,,,Space,keypress(Space),,,,,,,,"---- -- ----- -- ------ - ------- --- ----------<br>------------- ------ ------ ---- ---- ------- ----- -- ----<br>-------- ------- -- ---------- --- - --- ----- ----- ----<br>---- --- --- ----- --- ---- ---- ------- ----- ---- -------<br>--- --- -- ----- -- --- ---- -- be, ---- -- ------ ------<br>--- ----- -- ----",113400,113391,113049,113041,113065,113433,,47,"be,"
screen,html.Screen,2_1_0_1_48,2022-02-04T11:31:42.055Z,,,,,,,,,,,,,,,,,53,,,,,,,,,,,,,,426.00000000001455,,response,,,,99,,,,,,,Space,keypress(Space),,,,,,,,---- -- ----- -- ------ - ------- --- ----------<br>------------- ------ ------ ---- ---- ------- ----- -- ----<br>-------- ------- -- ---------- --- - --- ----- ----- ----<br>---- --- --- ----- --- ---- ---- ------- ----- ---- -------<br>--- --- -- ----- -- --- ---- -- --- even -- ------ ------<br>--- ----- -- ----,113850.00000000001,113841.00000000001,113415,113401,113433,113883,,48,even
screen,html.Screen,2_1_0_1_49,2022-02-04T11:31:42.416Z,,,,,,,,,,,,,,,,,53,,,,,,,,,,,,,,336,,response,,,,99,,,,,,,Space,keypress(Space),,,,,,,,---- -- ----- -- ------ - ------- --- ----------<br>------------- ------ ------ ---- ---- ------- ----- -- ----<br>-------- ------- -- ---------- --- - --- ----- ----- ----<br>---- --- --- ----- --- ---- ---- ------- ----- ---- -------<br>--- --- -- ----- -- --- ---- -- --- ---- if ------ ------<br>--- ----- -- ----,114211,114202,113866,113851,113883,114233,,49,if
screen,html.Screen,2_1_0_1_50,2022-02-04T11:31:42.831Z,,,,,,,,,,,,,,,,,53,,,,,,,,,,,,,,402.00000000001455,,response,,,,99,,,,,,,Space,keypress(Space),,,,,,,,---- -- ----- -- ------ - ------- --- ----------<br>------------- ------ ------ ---- ---- ------- ----- -- ----<br>-------- ------- -- ---------- --- - --- ----- ----- ----<br>---- --- --- ----- --- ---- ---- ------- ----- ---- -------<br>--- --- -- ----- -- --- ---- -- --- ---- -- that's ------<br>--- ----- -- ----,114627,114618.00000000001,114216,114211,114233,114666,,50,that's
screen,html.Screen,2_1_0_1_51,2022-02-04T11:31:43.225Z,,,,,,,,,,,,,,,,,53,,,,,,,,,,,,,,361,,response,,,,99,,,,,,,Space,keypress(Space),,,,,,,,---- -- ----- -- ------ - ------- --- ----------<br>------------- ------ ------ ---- ---- ------- ----- -- ----<br>-------- ------- -- ---------- --- - --- ----- ----- ----<br>---- --- --- ----- --- ---- ---- ------- ----- ---- -------<br>--- --- -- ----- -- --- ---- -- --- ---- -- ------ really<br>--- ----- -- ----,115021,115011,114650,114627,114666,115051,,51,really
screen,html.Screen,2_1_0_1_52,2022-02-04T11:31:43.606Z,,,,,,,,,,,,,,,,,53,,,,,,,,,,,,,,358,,response,,,,99,,,,,,,Space,keypress(Space),,,,,,,,---- -- ----- -- ------ - ------- --- ----------<br>------------- ------ ------ ---- ---- ------- ----- -- ----<br>-------- ------- -- ---------- --- - --- ----- ----- ----<br>---- --- --- ----- --- ---- ---- ------- ----- ---- -------<br>--- --- -- ----- -- --- ---- -- --- ---- -- ------ ------<br>not ----- -- ----,115402,115392,115034,115021,115051,115433,,52,not
screen,html.Screen,2_1_0_1_53,2022-02-04T11:31:43.989Z,,,,,,,,,,,,,,,,,53,,,,,,,,,,,,,,357,,response,,,,99,,,,,,,Space,keypress(Space),,,,,,,,---- -- ----- -- ------ - ------- --- ----------<br>------------- ------ ------ ---- ---- ------- ----- -- ----<br>-------- ------- -- ---------- --- - --- ----- ----- ----<br>---- --- --- ----- --- ---- ---- ------- ----- ---- -------<br>--- --- -- ----- -- --- ---- -- --- ---- -- ------ ------<br>--- close -- ----,115784,115775,115418,115402,115433,115818,,53,close
screen,html.Screen,2_1_0_1_54,2022-02-04T11:31:44.385Z,,,,,,,,,,,,,,,,,53,,,,,,,,,,,,,,370,,response,,,,99,,,,,,,Space,keypress(Space),,,,,,,,---- -- ----- -- ------ - ------- --- ----------<br>------------- ------ ------ ---- ---- ------- ----- -- ----<br>-------- ------- -- ---------- --- - --- ----- ----- ----<br>---- --- --- ----- --- ---- ---- ------- ----- ---- -------<br>--- --- -- ----- -- --- ---- -- --- ---- -- ------ ------<br>--- ----- at ----,116180,116171,115801,115785,115818,116201,,54,at
screen,html.Screen,2_1_0_1_55,2022-02-04T11:31:44.844Z,,,,,,,,,,,,,,,,,53,,,,,,,,,,,,,,446,,response,,,,99,,,,,,,Space,keypress(Space),,,,,,,,---- -- ----- -- ------ - ------- --- ----------<br>------------- ------ ------ ---- ---- ------- ----- -- ----<br>-------- ------- -- ---------- --- - --- ----- ----- ----<br>---- --- --- ----- --- ---- ---- ------- ----- ---- -------<br>--- --- -- ----- -- --- ---- -- --- ---- -- ------ ------<br>--- ----- -- all.,116640,116631,116185,116180,116201,116668,,55,all.
Item 99,flow.Loop,2_1_0_1,2022-02-04T11:31:44.845Z,,,,,,,,,,,,,,,,,,,,,,,,,,,,,,,25582,,completion,,,,,C,,,,,,,,,,,silence,,,,,116641,116631,91031,91032,91049,116668,,,
Question 1,html.Screen,2_1_0_2,2022-02-04T11:31:47.834Z,,,,,,,,,,,,,,,,,,,,,,,,,,,,true,FALSE,,2970,,response,,,,99,C,,,,,,FALSE,click #choice-2,,,,silence,,,,,119629,119622,116652,116641,116668,119654,,,
Question 2,html.Screen,2_1_0_3,2022-02-04T11:31:52.006Z,,,,,,,,,,,,,,,,,,,,,,,,,,,,true,TRUE,,4156,,response,,,,99,C,,,,,,TRUE,click #choice-1,,,,silence,,,,,123801,123794,119638,119630,119654,123840,,,
Item 99,flow.Sequence,2_1_0,2022-02-04T11:31:52.006Z,,,,,,,,,,,,,,,,,,,,,,,,,,,,,,,42754,,completion,,,,,,,,,,,,,,,,,,,,,123802,123794,81029,81025,81040,123840,,,
Holding screen,html.Screen,2_1_1_0,2022-02-04T11:32:02.021Z,,,,,,,,,,,,,,,,,,,,,,,,,,,,,,,9992,,timeout,,,,,,,,,,,,,,,,,,,,,133816,133816,123807,123802,123840,133832,,,
screen,html.Screen,2_1_1_1_0,2022-02-04T11:32:02.652Z,,,,,,,,,,,,,,,,,54,,,,,,,,,,,,,,623,,response,,,,100,,,,,,,Space,keypress(Space),,,,,,,,At --- ---- --- ------ ----- ------- ---- -- --- ------- --<br>------- ---------- ------ -- ----- -- ----- -- ---- ------<br>--- ----- --- --- ------ -------- ----- --- ------ ----- --<br>----- ----- ---------- --- --- ------ ------ ---- -- ------<br>------- --- ------ ----- --- ---- ------- -- ---- --- --<br>------- ------,134448,134439,133816,133817,133832,134483,,0,At
screen,html.Screen,2_1_1_1_1,2022-02-04T11:32:03.226Z,,,,,,,,,,,,,,,,,54,,,,,,,,,,,,,,546,,response,,,,100,,,,,,,Space,keypress(Space),,,,,,,,-- the ---- --- ------ ----- ------- ---- -- --- ------- --<br>------- ---------- ------ -- ----- -- ----- -- ---- ------<br>--- ----- --- --- ------ -------- ----- --- ------ ----- --<br>----- ----- ---------- --- --- ------ ------ ---- -- ------<br>------- --- ------ ----- --- ---- ------- -- ---- --- --<br>------- ------,135021.00000000003,135012,134466,134448,134483,135050,,1,the
screen,html.Screen,2_1_1_1_2,2022-02-04T11:32:03.643Z,,,,,,,,,,,,,,,,,54,,,,,,,,,,,,,,397,,response,,,,100,,,,,,,Space,keypress(Space),,,,,,,,-- --- time --- ------ ----- ------- ---- -- --- ------- --<br>------- ---------- ------ -- ----- -- ----- -- ---- ------<br>--- ----- --- --- ------ -------- ----- --- ------ ----- --<br>----- ----- ---------- --- --- ------ ------ ---- -- ------<br>------- --- ------ ----- --- ---- ------- -- ---- --- --<br>------- ------,135439,135430,135033,135022,135050,135467,,2,time
screen,html.Screen,2_1_1_1_3,2022-02-04T11:32:04.059Z,,,,,,,,,,,,,,,,,54,,,,,,,,,,,,,,395,,response,,,,100,,,,,,,Space,keypress(Space),,,,,,,,-- --- ---- the ------ ----- ------- ---- -- --- ------- --<br>------- ---------- ------ -- ----- -- ----- -- ---- ------<br>--- ----- --- --- ------ -------- ----- --- ------ ----- --<br>----- ----- ---------- --- --- ------ ------ ---- -- ------<br>------- --- ------ ----- --- ---- ------- -- ---- --- --<br>------- ------,135854,135845,135450,135439,135467,135884,,3,the
screen,html.Screen,2_1_1_1_4,2022-02-04T11:32:04.544Z,,,,,,,,,,,,,,,,,54,,,,,,,,,,,,,,462,,response,,,,100,,,,,,,Space,keypress(Space),,,,,,,,-- --- ---- --- French ----- ------- ---- -- --- ------- --<br>------- ---------- ------ -- ----- -- ----- -- ---- ------<br>--- ----- --- --- ------ -------- ----- --- ------ ----- --<br>----- ----- ---------- --- --- ------ ------ ---- -- ------<br>------- --- ------ ----- --- ---- ------- -- ---- --- --<br>------- ------,136340,136330,135868,135855,135884,136368,,4,French
screen,html.Screen,2_1_1_1_5,2022-02-04T11:32:05.003Z,,,,,,,,,,,,,,,,,54,,,,,,,,,,,,,,439,,response,,,,100,,,,,,,Space,keypress(Space),,,,,,,,-- --- ---- --- ------ crown ------- ---- -- --- ------- --<br>------- ---------- ------ -- ----- -- ----- -- ---- ------<br>--- ----- --- --- ------ -------- ----- --- ------ ----- --<br>----- ----- ---------- --- --- ------ ------ ---- -- ------<br>------- --- ------ ----- --- ---- ------- -- ---- --- --<br>------- ------,136799,136790,136351,136340,136368,136835,,5,crown
screen,html.Screen,2_1_1_1_6,2022-02-04T11:32:05.498Z,,,,,,,,,,,,,,,,,54,,,,,,,,,,,,,,467,,response,,,,100,,,,,,,Space,keypress(Space),,,,,,,,-- --- ---- --- ------ ----- secured ---- -- --- ------- --<br>------- ---------- ------ -- ----- -- ----- -- ---- ------<br>--- ----- --- --- ------ -------- ----- --- ------ ----- --<br>----- ----- ---------- --- --- ------ ------ ---- -- ------<br>------- --- ------ ----- --- ---- ------- -- ---- --- --<br>------- ------,137294,137285,136818,136799,136835,137334,,6,secured
screen,html.Screen,2_1_1_1_7,2022-02-04T11:32:05.927Z,,,,,,,,,,,,,,,,,54,,,,,,,,,,,,,,394,,response,,,,100,,,,,,,Space,keypress(Space),,,,,,,,-- --- ---- --- ------ ----- ------- much -- --- ------- --<br>------- ---------- ------ -- ----- -- ----- -- ---- ------<br>--- ----- --- --- ------ -------- ----- --- ------ ----- --<br>----- ----- ---------- --- --- ------ ------ ---- -- ------<br>------- --- ------ ----- --- ---- ------- -- ---- --- --<br>------- ------,137722,137713,137319,137294,137334,137752,,7,much
screen,html.Screen,2_1_1_1_8,2022-02-04T11:32:06.332Z,,,,,,,,,,,,,,,,,54,,,,,,,,,,,,,,383,,response,,,,100,,,,,,,Space,keypress(Space),,,,,,,,-- --- ---- --- ------ ----- ------- ---- of --- ------- --<br>------- ---------- ------ -- ----- -- ----- -- ---- ------<br>--- ----- --- --- ------ -------- ----- --- ------ ----- --<br>----- ----- ---------- --- --- ------ ------ ---- -- ------<br>------- --- ------ ----- --- ---- ------- -- ---- --- --<br>------- ------,138127,138119,137736,137723,137752,138169,,8,of
screen,html.Screen,2_1_1_1_9,2022-02-04T11:32:06.737Z,,,,,,,,,,,,,,,,,54,,,,,,,,,,,,,,371,,response,,,,100,,,,,,,Space,keypress(Space),,,,,,,,-- --- ---- --- ------ ----- ------- ---- -- its ------- --<br>------- ---------- ------ -- ----- -- ----- -- ---- ------<br>--- ----- --- --- ------ -------- ----- --- ------ ----- --<br>----- ----- ---------- --- --- ------ ------ ---- -- ------<br>------- --- ------ ----- --- ---- ------- -- ---- --- --<br>------- ------,138532,138523,138152,138128,138169,138553,,9,its
screen,html.Screen,2_1_1_1_10,2022-02-04T11:32:07.187Z,,,,,,,,,,,,,,,,,54,,,,,,,,,,,,,,437,,response,,,,100,,,,,,,Space,keypress(Space),,,,,,,,-- --- ---- --- ------ ----- ------- ---- -- --- revenue --<br>------- ---------- ------ -- ----- -- ----- -- ---- ------<br>--- ----- --- --- ------ -------- ----- --- ------ ----- --<br>----- ----- ---------- --- --- ------ ------ ---- -- ------<br>------- --- ------ ----- --- ---- ------- -- ---- --- --<br>------- ------,138982,138973,138536,138532,138553,139020,,10,revenue
screen,html.Screen,2_1_1_1_11,2022-02-04T11:32:07.560Z,,,,,,,,,,,,,,,,,54,,,,,,,,,,,,,,344,,response,,,,100,,,,,,,Space,keypress(Space),,,,,,,,-- --- ---- --- ------ ----- ------- ---- -- --- ------- by<br>------- ---------- ------ -- ----- -- ----- -- ---- ------<br>--- ----- --- --- ------ -------- ----- --- ------ ----- --<br>----- ----- ---------- --- --- ------ ------ ---- -- ------<br>------- --- ------ ----- --- ---- ------- -- ---- --- --<br>------- ------,139356,139347,139003,138983,139020,139387,,11,by
screen,html.Screen,2_1_1_1_12,2022-02-04T11:32:07.997Z,,,,,,,,,,,,,,,,,54,,,,,,,,,,,,,,413.0000000000291,,response,,,,100,,,,,,,Space,keypress(Space),,,,,,,,-- --- ---- --- ------ ----- ------- ---- -- --- ------- --<br>issuing ---------- ------ -- ----- -- ----- -- ---- ------<br>--- ----- --- --- ------ -------- ----- --- ------ ----- --<br>----- ----- ---------- --- --- ------ ------ ---- -- ------<br>------- --- ------ ----- --- ---- ------- -- ---- --- --<br>------- ------,139793,139783.00000000003,139370,139356,139387,139821,,12,issuing
screen,html.Screen,2_1_1_1_13,2022-02-04T11:32:08.435Z,,,,,,,,,,,,,,,,,54,,,,,,,,,,,,,,419,,response,,,,100,,,,,,,Space,keypress(Space),,,,,,,,-- --- ---- --- ------ ----- ------- ---- -- --- ------- --<br>------- government ------ -- ----- -- ----- -- ---- ------<br>--- ----- --- --- ------ -------- ----- --- ------ ----- --<br>----- ----- ---------- --- --- ------ ------ ---- -- ------<br>------- --- ------ ----- --- ---- ------- -- ---- --- --<br>------- ------,140231,140222,139803,139793,139821,140271,,13,government
screen,html.Screen,2_1_1_1_14,2022-02-04T11:32:08.862Z,,,,,,,,,,,,,,,,,54,,,,,,,,,,,,,,393,,response,,,,100,,,,,,,Space,keypress(Space),,,,,,,,-- --- ---- --- ------ ----- ------- ---- -- --- ------- --<br>------- ---------- bonds. -- ----- -- ----- -- ---- ------<br>--- ----- --- --- ------ -------- ----- --- ------ ----- --<br>----- ----- ---------- --- --- ------ ------ ---- -- ------<br>------- --- ------ ----- --- ---- ------- -- ---- --- --<br>------- ------,140657,140648,140255,140231,140271,140688,,14,bonds.
screen,html.Screen,2_1_1_1_15,2022-02-04T11:32:10.201Z,,,,,,,,,,,,,,,,,54,,,,,,,,,,,,,,1317,,response,,,,100,,,,,,,Space,keypress(Space),,,,,,,,-- --- ---- --- ------ ----- ------- ---- -- --- ------- --<br>------- ---------- ------ In ----- -- ----- -- ---- ------<br>--- ----- --- --- ------ -------- ----- --- ------ ----- --<br>----- ----- ---------- --- --- ------ ------ ---- -- ------<br>------- --- ------ ----- --- ---- ------- -- ---- --- --<br>------- ------,141997,141988,140671,140657,140688,142039,,15,In
screen,html.Screen,2_1_1_1_16,2022-02-04T11:32:10.763Z,,,,,,,,,,,,,,,,,54,,,,,,,,,,,,,,527,,response,,,,100,,,,,,,Space,keypress(Space),,,,,,,,"-- --- ---- --- ------ ----- ------- ---- -- --- ------- --<br>------- ---------- ------ -- 1727, -- ----- -- ---- ------<br>--- ----- --- --- ------ -------- ----- --- ------ ----- --<br>----- ----- ---------- --- --- ------ ------ ---- -- ------<br>------- --- ------ ----- --- ---- ------- -- ---- --- --<br>------- ------",142559,142550,142023,141997,142039,142590,,16,"1727,"
screen,html.Screen,2_1_1_1_17,2022-02-04T11:32:11.461Z,,,,,,,,,,,,,,,,,54,,,,,,,,,,,,,,674,,response,,,,100,,,,,,,Space,keypress(Space),,,,,,,,-- --- ---- --- ------ ----- ------- ---- -- --- ------- --<br>------- ---------- ------ -- ----- in ----- -- ---- ------<br>--- ----- --- --- ------ -------- ----- --- ------ ----- --<br>----- ----- ---------- --- --- ------ ------ ---- -- ------<br>------- --- ------ ----- --- ---- ------- -- ---- --- --<br>------- ------,143256,143247,142573,142559,142590,143290,,17,in
screen,html.Screen,2_1_1_1_18,2022-02-04T11:32:11.967Z,,,,,,,,,,,,,,,,,54,,,,,,,,,,,,,,481,,response,,,,100,,,,,,,Space,keypress(Space),,,,,,,,-- --- ---- --- ------ ----- ------- ---- -- --- ------- --<br>------- ---------- ------ -- ----- -- order -- ---- ------<br>--- ----- --- --- ------ -------- ----- --- ------ ----- --<br>----- ----- ---------- --- --- ------ ------ ---- -- ------<br>------- --- ------ ----- --- ---- ------- -- ---- --- --<br>------- ------,143762,143754,143273,143257,143290,143790,,18,order
screen,html.Screen,2_1_1_1_19,2022-02-04T11:32:12.225Z,,,,,,,,,,,,,,,,,54,,,,,,,,,,,,,,239,,response,,,,100,,,,,,,Space,keypress(Space),,,,,,,,-- --- ---- --- ------ ----- ------- ---- -- --- ------- --<br>------- ---------- ------ -- ----- -- ----- to ---- ------<br>--- ----- --- --- ------ -------- ----- --- ------ ----- --<br>----- ----- ---------- --- --- ------ ------ ---- -- ------<br>------- --- ------ ----- --- ---- ------- -- ---- --- --<br>------- ------,144021.00000000003,144012,143773,143763,143790,144041,,19,to
screen,html.Screen,2_1_1_1_20,2022-02-04T11:32:12.620Z,,,,,,,,,,,,,,,,,54,,,,,,,,,,,,,,382,,response,,,,100,,,,,,,Space,keypress(Space),,,,,,,,-- --- ---- --- ------ ----- ------- ---- -- --- ------- --<br>------- ---------- ------ -- ----- -- ----- -- save ------<br>--- ----- --- --- ------ -------- ----- --- ------ ----- --<br>----- ----- ---------- --- --- ------ ------ ---- -- ------<br>------- --- ------ ----- --- ---- ------- -- ---- --- --<br>------- ------,144415,144406,144024,144021.00000000003,144041,144458,,20,save
screen,html.Screen,2_1_1_1_21,2022-02-04T11:32:13.035Z,,,,,,,,,,,,,,,,,54,,,,,,,,,,,,,,382,,response,,,,100,,,,,,,Space,keypress(Space),,,,,,,,"-- --- ---- --- ------ ----- ------- ---- -- --- ------- --<br>------- ---------- ------ -- ----- -- ----- -- ---- money,<br>--- ----- --- --- ------ -------- ----- --- ------ ----- --<br>----- ----- ---------- --- --- ------ ------ ---- -- ------<br>------- --- ------ ----- --- ---- ------- -- ---- --- --<br>------- ------",144831,144822,144440,144416,144458,144858,,21,"money,"
screen,html.Screen,2_1_1_1_22,2022-02-04T11:32:13.486Z,,,,,,,,,,,,,,,,,54,,,,,,,,,,,,,,430,,response,,,,100,,,,,,,Space,keypress(Space),,,,,,,,-- --- ---- --- ------ ----- ------- ---- -- --- ------- --<br>------- ---------- ------ -- ----- -- ----- -- ---- ------<br>the ----- --- --- ------ -------- ----- --- ------ ----- --<br>----- ----- ---------- --- --- ------ ------ ---- -- ------<br>------- --- ------ ----- --- ---- ------- -- ---- --- --<br>------- ------,145281,145272,144842,144831,144858,145309,,22,the
screen,html.Screen,2_1_1_1_23,2022-02-04T11:32:13.868Z,,,,,,,,,,,,,,,,,54,,,,,,,,,,,,,,363,,response,,,,100,,,,,,,Space,keypress(Space),,,,,,,,-- --- ---- --- ------ ----- ------- ---- -- --- ------- --<br>------- ---------- ------ -- ----- -- ----- -- ---- ------<br>--- state --- --- ------ -------- ----- --- ------ ----- --<br>----- ----- ---------- --- --- ------ ------ ---- -- ------<br>------- --- ------ ----- --- ---- ------- -- ---- --- --<br>------- ------,145664.00000000003,145655,145292,145281,145309,145692,,23,state
screen,html.Screen,2_1_1_1_24,2022-02-04T11:32:14.251Z,,,,,,,,,,,,,,,,,54,,,,,,,,,,,,,,363,,response,,,,100,,,,,,,Space,keypress(Space),,,,,,,,-- --- ---- --- ------ ----- ------- ---- -- --- ------- --<br>------- ---------- ------ -- ----- -- ----- -- ---- ------<br>--- ----- cut --- ------ -------- ----- --- ------ ----- --<br>----- ----- ---------- --- --- ------ ------ ---- -- ------<br>------- --- ------ ----- --- ---- ------- -- ---- --- --<br>------- ------,146046,146038,145675,145664.00000000003,145692,146076,,24,cut
screen,html.Screen,2_1_1_1_25,2022-02-04T11:32:14.610Z,,,,,,,,,,,,,,,,,54,,,,,,,,,,,,,,339,,response,,,,100,,,,,,,Space,keypress(Space),,,,,,,,-- --- ---- --- ------ ----- ------- ---- -- --- ------- --<br>------- ---------- ------ -- ----- -- ----- -- ---- ------<br>--- ----- --- the ------ -------- ----- --- ------ ----- --<br>----- ----- ---------- --- --- ------ ------ ---- -- ------<br>------- --- ------ ----- --- ---- ------- -- ---- --- --<br>------- ------,146406,146397,146058,146046,146076,146426,,25,the
screen,html.Screen,2_1_1_1_26,2022-02-04T11:32:14.926Z,,,,,,,,,,,,,,,,,54,,,,,,,,,,,,,,303,,response,,,,100,,,,,,,Space,keypress(Space),,,,,,,,-- --- ---- --- ------ ----- ------- ---- -- --- ------- --<br>------- ---------- ------ -- ----- -- ----- -- ---- ------<br>--- ----- --- --- bonds' -------- ----- --- ------ ----- --<br>----- ----- ---------- --- --- ------ ------ ---- -- ------<br>------- --- ------ ----- --- ---- ------- -- ---- --- --<br>------- ------,146721,146712,146409,146406,146426,146743,,26,bonds'
screen,html.Screen,2_1_1_1_27,2022-02-04T11:32:15.350Z,,,,,,,,,,,,,,,,,54,,,,,,,,,,,,,,414,,response,,,,100,,,,,,,Space,keypress(Space),,,,,,,,-- --- ---- --- ------ ----- ------- ---- -- --- ------- --<br>------- ---------- ------ -- ----- -- ----- -- ---- ------<br>--- ----- --- --- ------ interest ----- --- ------ ----- --<br>----- ----- ---------- --- --- ------ ------ ---- -- ------<br>------- --- ------ ----- --- ---- ------- -- ---- --- --<br>------- ------,147146.00000000003,147139,146725,146722,146743,147176,,27,interest
screen,html.Screen,2_1_1_1_28,2022-02-04T11:32:15.702Z,,,,,,,,,,,,,,,,,54,,,,,,,,,,,,,,329,,response,,,,100,,,,,,,Space,keypress(Space),,,,,,,,-- --- ---- --- ------ ----- ------- ---- -- --- ------- --<br>------- ---------- ------ -- ----- -- ----- -- ---- ------<br>--- ----- --- --- ------ -------- rate. --- ------ ----- --<br>----- ----- ---------- --- --- ------ ------ ---- -- ------<br>------- --- ------ ----- --- ---- ------- -- ---- --- --<br>------- ------,147498,147489,147160,147146.00000000003,147176,147526,,28,rate.
screen,html.Screen,2_1_1_1_29,2022-02-04T11:32:16.883Z,,,,,,,,,,,,,,,,,54,,,,,,,,,,,,,,1160.000000000029,,response,,,,100,,,,,,,Space,keypress(Space),,,,,,,,-- --- ---- --- ------ ----- ------- ---- -- --- ------- --<br>------- ---------- ------ -- ----- -- ----- -- ---- ------<br>--- ----- --- --- ------ -------- ----- The ------ ----- --<br>----- ----- ---------- --- --- ------ ------ ---- -- ------<br>------- --- ------ ----- --- ---- ------- -- ---- --- --<br>------- ------,148679,148670.00000000003,147510,147498,147526,148711,,29,The
screen,html.Screen,2_1_1_1_30,2022-02-04T11:32:17.288Z,,,,,,,,,,,,,,,,,54,,,,,,,,,,,,,,381.0000000000291,,response,,,,100,,,,,,,Space,keypress(Space),,,,,,,,-- --- ---- --- ------ ----- ------- ---- -- --- ------- --<br>------- ---------- ------ -- ----- -- ----- -- ---- ------<br>--- ----- --- --- ------ -------- ----- --- market ----- --<br>----- ----- ---------- --- --- ------ ------ ---- -- ------<br>------- --- ------ ----- --- ---- ------- -- ---- --- --<br>------- ------,149084,149075.00000000003,148694,148679,148711,149112,,30,market
screen,html.Screen,2_1_1_1_31,2022-02-04T11:32:17.784Z,,,,,,,,,,,,,,,,,54,,,,,,,,,,,,,,475,,response,,,,100,,,,,,,Space,keypress(Space),,,,,,,,-- --- ---- --- ------ ----- ------- ---- -- --- ------- --<br>------- ---------- ------ -- ----- -- ----- -- ---- ------<br>--- ----- --- --- ------ -------- ----- --- ------ value --<br>----- ----- ---------- --- --- ------ ------ ---- -- ------<br>------- --- ------ ----- --- ---- ------- -- ---- --- --<br>------- ------,149579,149570,149095,149085,149112,149612,,31,value
screen,html.Screen,2_1_1_1_32,2022-02-04T11:32:18.154Z,,,,,,,,,,,,,,,,,54,,,,,,,,,,,,,,345,,response,,,,100,,,,,,,Space,keypress(Space),,,,,,,,-- --- ---- --- ------ ----- ------- ---- -- --- ------- --<br>------- ---------- ------ -- ----- -- ----- -- ---- ------<br>--- ----- --- --- ------ -------- ----- --- ------ ----- of<br>----- ----- ---------- --- --- ------ ------ ---- -- ------<br>------- --- ------ ----- --- ---- ------- -- ---- --- --<br>------- ------,149949,149941,149596,149580,149612,149979,,32,of
screen,html.Screen,2_1_1_1_33,2022-02-04T11:32:18.560Z,,,,,,,,,,,,,,,,,54,,,,,,,,,,,,,,384,,response,,,,100,,,,,,,Space,keypress(Space),,,,,,,,-- --- ---- --- ------ ----- ------- ---- -- --- ------- --<br>------- ---------- ------ -- ----- -- ----- -- ---- ------<br>--- ----- --- --- ------ -------- ----- --- ------ ----- --<br>these ----- ---------- --- --- ------ ------ ---- -- ------<br>------- --- ------ ----- --- ---- ------- -- ---- --- --<br>------- ------,150356,150346,149962,149950.00000000003,149979,150396,,33,these
screen,html.Screen,2_1_1_1_34,2022-02-04T11:32:18.944Z,,,,,,,,,,,,,,,,,54,,,,,,,,,,,,,,351,,response,,,,100,,,,,,,Space,keypress(Space),,,,,,,,-- --- ---- --- ------ ----- ------- ---- -- --- ------- --<br>------- ---------- ------ -- ----- -- ----- -- ---- ------<br>--- ----- --- --- ------ -------- ----- --- ------ ----- --<br>----- bonds ---------- --- --- ------ ------ ---- -- ------<br>------- --- ------ ----- --- ---- ------- -- ---- --- --<br>------- ------,150740,150730,150379,150356,150396,150763,,34,bonds
screen,html.Screen,2_1_1_1_35,2022-02-04T11:32:19.336Z,,,,,,,,,,,,,,,,,54,,,,,,,,,,,,,,377,,response,,,,100,,,,,,,Space,keypress(Space),,,,,,,,"-- --- ---- --- ------ ----- ------- ---- -- --- ------- --<br>------- ---------- ------ -- ----- -- ----- -- ---- ------<br>--- ----- --- --- ------ -------- ----- --- ------ ----- --<br>----- ----- plummeted, --- --- ------ ------ ---- -- ------<br>------- --- ------ ----- --- ---- ------- -- ---- --- --<br>------- ------",151132,151123,150746,150740,150763,151163,,35,"plummeted,"
screen,html.Screen,2_1_1_1_36,2022-02-04T11:32:19.787Z,,,,,,,,,,,,,,,,,54,,,,,,,,,,,,,,426,,response,,,,100,,,,,,,Space,keypress(Space),,,,,,,,-- --- ---- --- ------ ----- ------- ---- -- --- ------- --<br>------- ---------- ------ -- ----- -- ----- -- ---- ------<br>--- ----- --- --- ------ -------- ----- --- ------ ----- --<br>----- ----- ---------- and --- ------ ------ ---- -- ------<br>------- --- ------ ----- --- ---- ------- -- ---- --- --<br>------- ------,151582,151572,151146,151132,151163,151614,,36,and
screen,html.Screen,2_1_1_1_37,2022-02-04T11:32:20.156Z,,,,,,,,,,,,,,,,,54,,,,,,,,,,,,,,347,,response,,,,100,,,,,,,Space,keypress(Space),,,,,,,,-- --- ---- --- ------ ----- ------- ---- -- --- ------- --<br>------- ---------- ------ -- ----- -- ----- -- ---- ------<br>--- ----- --- --- ------ -------- ----- --- ------ ----- --<br>----- ----- ---------- --- the ------ ------ ---- -- ------<br>------- --- ------ ----- --- ---- ------- -- ---- --- --<br>------- ------,151952,151943,151596,151583,151614,151980,,37,the
screen,html.Screen,2_1_1_1_38,2022-02-04T11:32:20.528Z,,,,,,,,,,,,,,,,,54,,,,,,,,,,,,,,351,,response,,,,100,,,,,,,Space,keypress(Space),,,,,,,,-- --- ---- --- ------ ----- ------- ---- -- --- ------- --<br>------- ---------- ------ -- ----- -- ----- -- ---- ------<br>--- ----- --- --- ------ -------- ----- --- ------ ----- --<br>----- ----- ---------- --- --- market ------ ---- -- ------<br>------- --- ------ ----- --- ---- ------- -- ---- --- --<br>------- ------,152324,152315,151964,151952,151980,152348,,38,market
screen,html.Screen,2_1_1_1_39,2022-02-04T11:32:20.955Z,,,,,,,,,,,,,,,,,54,,,,,,,,,,,,,,412,,response,,,,100,,,,,,,Space,keypress(Space),,,,,,,,-- --- ---- --- ------ ----- ------- ---- -- --- ------- --<br>------- ---------- ------ -- ----- -- ----- -- ---- ------<br>--- ----- --- --- ------ -------- ----- --- ------ ----- --<br>----- ----- ---------- --- --- ------ became ---- -- ------<br>------- --- ------ ----- --- ---- ------- -- ---- --- --<br>------- ------,152751,152742,152330,152324,152348,152781,,39,became
screen,html.Screen,2_1_1_1_40,2022-02-04T11:32:21.338Z,,,,,,,,,,,,,,,,,54,,,,,,,,,,,,,,360,,response,,,,100,,,,,,,Space,keypress(Space),,,,,,,,-- --- ---- --- ------ ----- ------- ---- -- --- ------- --<br>------- ---------- ------ -- ----- -- ----- -- ---- ------<br>--- ----- --- --- ------ -------- ----- --- ------ ----- --<br>----- ----- ---------- --- --- ------ ------ wary -- ------<br>------- --- ------ ----- --- ---- ------- -- ---- --- --<br>------- ------,153134,153125,152765,152751,152781,153165,,40,wary
screen,html.Screen,2_1_1_1_41,2022-02-04T11:32:21.889Z,,,,,,,,,,,,,,,,,54,,,,,,,,,,,,,,528.0000000000291,,response,,,,100,,,,,,,Space,keypress(Space),,,,,,,,-- --- ---- --- ------ ----- ------- ---- -- --- ------- --<br>------- ---------- ------ -- ----- -- ----- -- ---- ------<br>--- ----- --- --- ------ -------- ----- --- ------ ----- --<br>----- ----- ---------- --- --- ------ ------ ---- of ------<br>------- --- ------ ----- --- ---- ------- -- ---- --- --<br>------- ------,153685,153676.00000000003,153148,153134,153165,153715,,41,of
screen,html.Screen,2_1_1_1_42,2022-02-04T11:32:22.351Z,,,,,,,,,,,,,,,,,54,,,,,,,,,,,,,,438,,response,,,,100,,,,,,,Space,keypress(Space),,,,,,,,-- --- ---- --- ------ ----- ------- ---- -- --- ------- --<br>------- ---------- ------ -- ----- -- ----- -- ---- ------<br>--- ----- --- --- ------ -------- ----- --- ------ ----- --<br>----- ----- ---------- --- --- ------ ------ ---- -- French<br>------- --- ------ ----- --- ---- ------- -- ---- --- --<br>------- ------,154147,154137,153699,153685,153715,154183,,42,French
screen,html.Screen,2_1_1_1_43,2022-02-04T11:32:22.857Z,,,,,,,,,,,,,,,,,54,,,,,,,,,,,,,,478,,response,,,,100,,,,,,,Space,keypress(Space),,,,,,,,-- --- ---- --- ------ ----- ------- ---- -- --- ------- --<br>------- ---------- ------ -- ----- -- ----- -- ---- ------<br>--- ----- --- --- ------ -------- ----- --- ------ ----- --<br>----- ----- ---------- --- --- ------ ------ ---- -- ------<br>credit. --- ------ ----- --- ---- ------- -- ---- --- --<br>------- ------,154652.00000000003,154644,154166,154147,154183,154683,,43,credit.
screen,html.Screen,2_1_1_1_44,2022-02-04T11:32:23.566Z,,,,,,,,,,,,,,,,,54,,,,,,,,,,,,,,686,,response,,,,100,,,,,,,Space,keypress(Space),,,,,,,,-- --- ---- --- ------ ----- ------- ---- -- --- ------- --<br>------- ---------- ------ -- ----- -- ----- -- ---- ------<br>--- ----- --- --- ------ -------- ----- --- ------ ----- --<br>----- ----- ---------- --- --- ------ ------ ---- -- ------<br>------- The ------ ----- --- ---- ------- -- ---- --- --<br>------- ------,155361,155352,154666,154653,154683,155400,,44,The
screen,html.Screen,2_1_1_1_45,2022-02-04T11:32:24.003Z,,,,,,,,,,,,,,,,,54,,,,,,,,,,,,,,408,,response,,,,100,,,,,,,Space,keypress(Space),,,,,,,,-- --- ---- --- ------ ----- ------- ---- -- --- ------- --<br>------- ---------- ------ -- ----- -- ----- -- ---- ------<br>--- ----- --- --- ------ -------- ----- --- ------ ----- --<br>----- ----- ---------- --- --- ------ ------ ---- -- ------<br>------- --- French ----- --- ---- ------- -- ---- --- --<br>------- ------,155798,155791,155383,155362,155400,155834,,45,French
screen,html.Screen,2_1_1_1_46,2022-02-04T11:32:24.441Z,,,,,,,,,,,,,,,,,54,,,,,,,,,,,,,,413,,response,,,,100,,,,,,,Space,keypress(Space),,,,,,,,-- --- ---- --- ------ ----- ------- ---- -- --- ------- --<br>------- ---------- ------ -- ----- -- ----- -- ---- ------<br>--- ----- --- --- ------ -------- ----- --- ------ ----- --<br>----- ----- ---------- --- --- ------ ------ ---- -- ------<br>------- --- ------ state --- ---- ------- -- ---- --- --<br>------- ------,156237,156230,155817,155799,155834,156268,,46,state
screen,html.Screen,2_1_1_1_47,2022-02-04T11:32:24.825Z,,,,,,,,,,,,,,,,,54,,,,,,,,,,,,,,362,,response,,,,100,,,,,,,Space,keypress(Space),,,,,,,,-- --- ---- --- ------ ----- ------- ---- -- --- ------- --<br>------- ---------- ------ -- ----- -- ----- -- ---- ------<br>--- ----- --- --- ------ -------- ----- --- ------ ----- --<br>----- ----- ---------- --- --- ------ ------ ---- -- ------<br>------- --- ------ ----- was ---- ------- -- ---- --- --<br>------- ------,156621,156613,156251,156237,156268,156651,,47,was
screen,html.Screen,2_1_1_1_48,2022-02-04T11:32:25.161Z,,,,,,,,,,,,,,,,,54,,,,,,,,,,,,,,315,,response,,,,100,,,,,,,Space,keypress(Space),,,,,,,,-- --- ---- --- ------ ----- ------- ---- -- --- ------- --<br>------- ---------- ------ -- ----- -- ----- -- ---- ------<br>--- ----- --- --- ------ -------- ----- --- ------ ----- --<br>----- ----- ---------- --- --- ------ ------ ---- -- ------<br>------- --- ------ ----- --- left ------- -- ---- --- --<br>------- ------,156956.00000000003,156949,156634,156621,156651,156984,,48,left
screen,html.Screen,2_1_1_1_49,2022-02-04T11:32:25.557Z,,,,,,,,,,,,,,,,,54,,,,,,,,,,,,,,375,,response,,,,100,,,,,,,Space,keypress(Space),,,,,,,,-- --- ---- --- ------ ----- ------- ---- -- --- ------- --<br>------- ---------- ------ -- ----- -- ----- -- ---- ------<br>--- ----- --- --- ------ -------- ----- --- ------ ----- --<br>----- ----- ---------- --- --- ------ ------ ---- -- ------<br>------- --- ------ ----- --- ---- without -- ---- --- --<br>------- ------,157353,157343,156968,156956.00000000003,156984,157385,,49,without
screen,html.Screen,2_1_1_1_50,2022-02-04T11:32:25.939Z,,,,,,,,,,,,,,,,,54,,,,,,,,,,,,,,357,,response,,,,100,,,,,,,Space,keypress(Space),,,,,,,,-- --- ---- --- ------ ----- ------- ---- -- --- ------- --<br>------- ---------- ------ -- ----- -- ----- -- ---- ------<br>--- ----- --- --- ------ -------- ----- --- ------ ----- --<br>----- ----- ---------- --- --- ------ ------ ---- -- ------<br>------- --- ------ ----- --- ---- ------- an ---- --- --<br>------- ------,157735,157726,157369,157353,157385,157769,,50,an
screen,html.Screen,2_1_1_1_51,2022-02-04T11:32:26.344Z,,,,,,,,,,,,,,,,,54,,,,,,,,,,,,,,379,,response,,,,100,,,,,,,Space,keypress(Space),,,,,,,,-- --- ---- --- ------ ----- ------- ---- -- --- ------- --<br>------- ---------- ------ -- ----- -- ----- -- ---- ------<br>--- ----- --- --- ------ -------- ----- --- ------ ----- --<br>----- ----- ---------- --- --- ------ ------ ---- -- ------<br>------- --- ------ ----- --- ---- ------- -- easy --- --<br>------- ------,158140.00000000003,158131,157752,157735,157769,158169,,51,easy
screen,html.Screen,2_1_1_1_52,2022-02-04T11:32:26.772Z,,,,,,,,,,,,,,,,,54,,,,,,,,,,,,,,407,,response,,,,100,,,,,,,Space,keypress(Space),,,,,,,,-- --- ---- --- ------ ----- ------- ---- -- --- ------- --<br>------- ---------- ------ -- ----- -- ----- -- ---- ------<br>--- ----- --- --- ------ -------- ----- --- ------ ----- --<br>----- ----- ---------- --- --- ------ ------ ---- -- ------<br>------- --- ------ ----- --- ---- ------- -- ---- way --<br>------- ------,158568,158559,158152,158140.00000000003,158169,158603,,52,way
screen,html.Screen,2_1_1_1_53,2022-02-04T11:32:27.189Z,,,,,,,,,,,,,,,,,54,,,,,,,,,,,,,,391,,response,,,,100,,,,,,,Space,keypress(Space),,,,,,,,-- --- ---- --- ------ ----- ------- ---- -- --- ------- --<br>------- ---------- ------ -- ----- -- ----- -- ---- ------<br>--- ----- --- --- ------ -------- ----- --- ------ ----- --<br>----- ----- ---------- --- --- ------ ------ ---- -- ------<br>------- --- ------ ----- --- ---- ------- -- ---- --- of<br>------- ------,158985,158976,158585,158568,158603,159019,,53,of
screen,html.Screen,2_1_1_1_54,2022-02-04T11:32:27.662Z,,,,,,,,,,,,,,,,,54,,,,,,,,,,,,,,446,,response,,,,100,,,,,,,Space,keypress(Space),,,,,,,,-- --- ---- --- ------ ----- ------- ---- -- --- ------- --<br>------- ---------- ------ -- ----- -- ----- -- ---- ------<br>--- ----- --- --- ------ -------- ----- --- ------ ----- --<br>----- ----- ---------- --- --- ------ ------ ---- -- ------<br>------- --- ------ ----- --- ---- ------- -- ---- --- --<br>raising ------,159458,159449,159003,158985,159019,159487,,54,raising
screen,html.Screen,2_1_1_1_55,2022-02-04T11:32:28.191Z,,,,,,,,,,,,,,,,,54,,,,,,,,,,,,,,508,,response,,,,100,,,,,,,Space,keypress(Space),,,,,,,,-- --- ---- --- ------ ----- ------- ---- -- --- ------- --<br>------- ---------- ------ -- ----- -- ----- -- ---- ------<br>--- ----- --- --- ------ -------- ----- --- ------ ----- --<br>----- ----- ---------- --- --- ------ ------ ---- -- ------<br>------- --- ------ ----- --- ---- ------- -- ---- --- --<br>------- money.,159986,159977,159469,159458,159487,160021,,55,money.
Item 100,flow.Loop,2_1_1_1,2022-02-04T11:32:28.192Z,,,,,,,,,,,,,,,,,,,,,,,,,,,,,,,26145,,completion,,,,,C,,,,,,,,,,,silence,,,,,159987,159977,133816,133817,133832,160021,,,
Question 1,html.Screen,2_1_1_2,2022-02-04T11:32:30.412Z,,,,,,,,,,,,,,,,,,,,,,,,,,,,true,TRUE,,2197,,response,,,,100,C,,,,,,TRUE,click #choice-1,,,,silence,,,,,162208,162201,160004,159988,160021,162239,,,
Question 2,html.Screen,2_1_1_3,2022-02-04T11:32:32.448Z,,,,,,,,,,,,,,,,,,,,,,,,,,,,true,FALSE,,2016,,response,,,,100,C,,,,,,FALSE,click #choice-2,,,,silence,,,,,164244,164238,162222,162208,162239,164274,,,
Item 100,flow.Sequence,2_1_1,2022-02-04T11:32:32.449Z,,,,,,,,,,,,,,,,,,,,,,,,,,,,,,,40398,,completion,,,,,,,,,,,,,,,,,,,,,164245,164238,123807,123802,123840,164274,,,
End of Practice,html.Page,2_1_2,2022-02-04T11:32:43.498Z,,,,,,,,,,,,,,,,,,,,,,,,,,,,,,,11019,,form submission,,,,,,,,,,,,,,,,,,,,,175294,175293,164257,164245,164274,175316,,,
Practice,flow.Sequence,2_1,2022-02-04T11:32:43.499Z,,,,,,,,,,,,,,,,,,,,,,,,,,,,,,,94253,,completion,,,,,,,,,,,,,,,,,,,,,175294,175293,81029,81025,81040,175316,,,
Trap_instruction,html.Page,2_2_0,2022-02-04T11:32:46.064Z,,,,,,,,,,,,,,,,,,,,,,,,,,,,,,,2543,,form submission,,,,,,,,,,,,,,,,,,,,,177860,177859,175299,175294,175316,177885,,,
trap_trial,html.Screen,2_2_1,2022-02-04T11:32:49.322Z,,,,,,,,,,,,,,,,,,,,,,,,,,,,true,1,,3240,,response,,,,,,,,,,,1,click #choice-1,,,,,,,,,181118,181112,177872,177860,177885,181160,,,
end of trap trial,html.Page,2_2_2,2022-02-04T11:32:51.553Z,,,,,,,,,,,,,,,,,,,,,,,,,,,,,,,2188,,form submission,,,,,,,,,,,,,,,,,,,,,183349.00000000003,183348,181157,181119,181160,183373,,,
Trap 1,flow.Sequence,2_2,2022-02-04T11:32:51.554Z,,,,,,,,,,,,,,,,,,,,,,,,,,,,,,,8032,,completion,,,,,,,,,,,,,,,,,,,,,183349.00000000003,183348,175299,175294,175316,183373,,,
Standby,html.Page,2_3_0,2022-02-04T11:32:59.568Z,,,,,,,,,,,,,,,,,,,,,,,,,,,,,,,8006,,timeout,,,,,,,,,,,,,,,,,,,,,191364,191362,183356,183350,183373,191379,,,
Holding screen,html.Screen,2_3_1_0_0,2022-02-04T11:33:06.574Z,,,,,,,,,,,,,,,,,,,,,,,,,,,,,,,7006,,timeout,,,,,,,,,,,,,,,,,,,,,198369,198369,191362,191364,191379,198385,,,
screen,html.Screen,2_3_1_0_1_0,2022-02-04T11:33:07.285Z,,,,,,,,,,,,,,,,,11,,,,,,,,,,,,,,702,,response,,,,4,C,,,,,,Space,keypress(Space),,,,instrumental,,,,Known -- ---- --- -- --- -------- ------------ ---------- --<br>- ------- ------ --------- -- ------------ -- --- ---- -----<br>------ ---- ---- ------ ------ ------- --- ----- ---------<br>---- --- -------- -------- --- --- -- ------- --- --- -----<br>-- --- ------ ------- --- --- -------- ---- --------- --<br>---------- -- -------- ----------------,199081.00000000003,199071,198369,198370,198385,199118,,0,Known
screen,html.Screen,2_3_1_0_1_1,2022-02-04T11:33:07.733Z,,,,,,,,,,,,,,,,,11,,,,,,,,,,,,,,419,,response,,,,4,C,,,,,,Space,keypress(Space),,,,instrumental,,,,----- as ---- --- -- --- -------- ------------ ---------- --<br>- ------- ------ --------- -- ------------ -- --- ---- -----<br>------ ---- ---- ------ ------ ------- --- ----- ---------<br>---- --- -------- -------- --- --- -- ------- --- --- -----<br>-- --- ------ ------- --- --- -------- ---- --------- --<br>---------- -- -------- ----------------,199529,199520,199101,199082,199118,199569,,1,as
screen,html.Screen,2_3_1_0_1_2,2022-02-04T11:33:08.386Z,,,,,,,,,,,,,,,,,11,,,,,,,,,,,,,,622,,response,,,,4,C,,,,,,Space,keypress(Space),,,,instrumental,,,,----- -- Rapa --- -- --- -------- ------------ ---------- --<br>- ------- ------ --------- -- ------------ -- --- ---- -----<br>------ ---- ---- ------ ------ ------- --- ----- ---------<br>---- --- -------- -------- --- --- -- ------- --- --- -----<br>-- --- ------ ------- --- --- -------- ---- --------- --<br>---------- -- -------- ----------------,200182.00000000003,200174,199552,199529,199569,200220,,2,Rapa
screen,html.Screen,2_3_1_0_1_3,2022-02-04T11:33:08.891Z,,,,,,,,,,,,,,,,,11,,,,,,,,,,,,,,475,,response,,,,4,C,,,,,,Space,keypress(Space),,,,instrumental,,,,----- -- ---- Nui -- --- -------- ------------ ---------- --<br>- ------- ------ --------- -- ------------ -- --- ---- -----<br>------ ---- ---- ------ ------ ------- --- ----- ---------<br>---- --- -------- -------- --- --- -- ------- --- --- -----<br>-- --- ------ ------- --- --- -------- ---- --------- --<br>---------- -- -------- ----------------,200687,200678,200203,200182.00000000003,200220,200720,,3,Nui
screen,html.Screen,2_3_1_0_1_4,2022-02-04T11:33:09.363Z,,,,,,,,,,,,,,,,,11,,,,,,,,,,,,,,448,,response,,,,4,C,,,,,,Space,keypress(Space),,,,instrumental,,,,----- -- ---- --- to --- -------- ------------ ---------- --<br>- ------- ------ --------- -- ------------ -- --- ---- -----<br>------ ---- ---- ------ ------ ------- --- ----- ---------<br>---- --- -------- -------- --- --- -- ------- --- --- -----<br>-- --- ------ ------- --- --- -------- ---- --------- --<br>---------- -- -------- ----------------,201159,201151,200703,200688.00000000003,200720,201187,,4,to
screen,html.Screen,2_3_1_0_1_5,2022-02-04T11:33:09.625Z,,,,,,,,,,,,,,,,,11,,,,,,,,,,,,,,240,,response,,,,4,C,,,,,,Space,keypress(Space),,,,instrumental,,,,----- -- ---- --- -- the -------- ------------ ---------- --<br>- ------- ------ --------- -- ------------ -- --- ---- -----<br>------ ---- ---- ------ ------ ------- --- ----- ---------<br>---- --- -------- -------- --- --- -- ------- --- --- -----<br>-- --- ------ ------- --- --- -------- ---- --------- --<br>---------- -- -------- ----------------,201420.00000000003,201411,201171,201160,201187,201454,,5,the
screen,html.Screen,2_3_1_0_1_6,2022-02-04T11:33:09.825Z,,,,,,,,,,,,,,,,,11,,,,,,,,,,,,,,175,,response,,,,4,C,,,,,,Space,keypress(Space),,,,instrumental,,,,----- -- ---- --- -- --- island's ------------ ---------- --<br>- ------- ------ --------- -- ------------ -- --- ---- -----<br>------ ---- ---- ------ ------ ------- --- ----- ---------<br>---- --- -------- -------- --- --- -- ------- --- --- -----<br>-- --- ------ ------- --- --- -------- ---- --------- --<br>---------- -- -------- ----------------,201621,201612,201437,201421,201454,201654,,6,island's
screen,html.Screen,2_3_1_0_1_7,2022-02-04T11:33:10.693Z,,,,,,,,,,,,,,,,,11,,,,,,,,,,,,,,843.0000000000291,,response,,,,4,C,,,,,,Space,keypress(Space),,,,instrumental,,,,"----- -- ---- --- -- --- -------- inhabitants, ---------- --<br>- ------- ------ --------- -- ------------ -- --- ---- -----<br>------ ---- ---- ------ ------ ------- --- ----- ---------<br>---- --- -------- -------- --- --- -- ------- --- --- -----<br>-- --- ------ ------- --- --- -------- ---- --------- --<br>---------- -- -------- ----------------",202489,202480.00000000003,201637,201621,201654,202521,,7,"inhabitants,"
screen,html.Screen,2_3_1_0_1_8,2022-02-04T11:33:11.850Z,,,,,,,,,,,,,,,,,11,,,,,,,,,,,,,,1133,,response,,,,4,C,,,,,,Space,keypress(Space),,,,instrumental,,,,----- -- ---- --- -- --- -------- ------------ Rongorongo --<br>- ------- ------ --------- -- ------------ -- --- ---- -----<br>------ ---- ---- ------ ------ ------- --- ----- ---------<br>---- --- -------- -------- --- --- -- ------- --- --- -----<br>-- --- ------ ------- --- --- -------- ---- --------- --<br>---------- -- -------- ----------------,203646.00000000003,203638,202505,202489,202521,203689,,8,Rongorongo
screen,html.Screen,2_3_1_0_1_9,2022-02-04T11:33:12.291Z,,,,,,,,,,,,,,,,,11,,,,,,,,,,,,,,406,,response,,,,4,C,,,,,,Space,keypress(Space),,,,instrumental,,,,----- -- ---- --- -- --- -------- ------------ ---------- is<br>- ------- ------ --------- -- ------------ -- --- ---- -----<br>------ ---- ---- ------ ------ ------- --- ----- ---------<br>---- --- -------- -------- --- --- -- ------- --- --- -----<br>-- --- ------ ------- --- --- -------- ---- --------- --<br>---------- -- -------- ----------------,204086,204078,203672,203647,203689,204123,,9,is
screen,html.Screen,2_3_1_0_1_10,2022-02-04T11:33:12.650Z,,,,,,,,,,,,,,,,,11,,,,,,,,,,,,,,331,,response,,,,4,C,,,,,,Space,keypress(Space),,,,instrumental,,,,----- -- ---- --- -- --- -------- ------------ ---------- --<br>a ------- ------ --------- -- ------------ -- --- ---- -----<br>------ ---- ---- ------ ------ ------- --- ----- ---------<br>---- --- -------- -------- --- --- -- ------- --- --- -----<br>-- --- ------ ------- --- --- -------- ---- --------- --<br>---------- -- -------- ----------------,204446,204437,204106,204087.00000000003,204123,204472,,10,a
screen,html.Screen,2_3_1_0_1_11,2022-02-04T11:33:13.325Z,,,,,,,,,,,,,,,,,11,,,,,,,,,,,,,,656,,response,,,,4,C,,,,,,Space,keypress(Space),,,,instrumental,,,,----- -- ---- --- -- --- -------- ------------ ---------- --<br>- writing ------ --------- -- ------------ -- --- ---- -----<br>------ ---- ---- ------ ------ ------- --- ----- ---------<br>---- --- -------- -------- --- --- -- ------- --- --- -----<br>-- --- ------ ------- --- --- -------- ---- --------- --<br>---------- -- -------- ----------------,205121,205112,204456,204446,204472,205156,,11,writing
screen,html.Screen,2_3_1_0_1_12,2022-02-04T11:33:13.651Z,,,,,,,,,,,,,,,,,11,,,,,,,,,,,,,,298.0000000000291,,response,,,,4,C,,,,,,Space,keypress(Space),,,,instrumental,,,,----- -- ---- --- -- --- -------- ------------ ---------- --<br>- ------- system --------- -- ------------ -- --- ---- -----<br>------ ---- ---- ------ ------ ------- --- ----- ---------<br>---- --- -------- -------- --- --- -- ------- --- --- -----<br>-- --- ------ ------- --- --- -------- ---- --------- --<br>---------- -- -------- ----------------,205446,205438.00000000003,205140,205121,205156,205473,,12,system
screen,html.Screen,2_3_1_0_1_13,2022-02-04T11:33:14.213Z,,,,,,,,,,,,,,,,,11,,,,,,,,,,,,,,543,,response,,,,4,C,,,,,,Space,keypress(Space),,,,instrumental,,,,----- -- ---- --- -- --- -------- ------------ ---------- --<br>- ------- ------ comprised -- ------------ -- --- ---- -----<br>------ ---- ---- ------ ------ ------- --- ----- ---------<br>---- --- -------- -------- --- --- -- ------- --- --- -----<br>-- --- ------ ------- --- --- -------- ---- --------- --<br>---------- -- -------- ----------------,206009,206000,205457,205447,205473,206041,,13,comprised
screen,html.Screen,2_3_1_0_1_14,2022-02-04T11:33:15.574Z,,,,,,,,,,,,,,,,,11,,,,,,,,,,,,,,1337.000000000029,,response,,,,4,C,,,,,,Space,keypress(Space),,,,instrumental,,,,----- -- ---- --- -- --- -------- ------------ ---------- --<br>- ------- ------ --------- of ------------ -- --- ---- -----<br>------ ---- ---- ------ ------ ------- --- ----- ---------<br>---- --- -------- -------- --- --- -- ------- --- --- -----<br>-- --- ------ ------- --- --- -------- ---- --------- --<br>---------- -- -------- ----------------,207370,207361.00000000003,206024,206010,206041,207409,,14,of
screen,html.Screen,2_3_1_0_1_15,2022-02-04T11:33:15.810Z,,,,,,,,,,,,,,,,,11,,,,,,,,,,,,,,205,,response,,,,4,C,,,,,,Space,keypress(Space),,,,instrumental,,,,----- -- ---- --- -- --- -------- ------------ ---------- --<br>- ------- ------ --------- -- pictographs. -- --- ---- -----<br>------ ---- ---- ------ ------ ------- --- ----- ---------<br>---- --- -------- -------- --- --- -- ------- --- --- -----<br>-- --- ------ ------- --- --- -------- ---- --------- --<br>---------- -- -------- ----------------,207606,207597,207392,207371,207409,207626,,15,pictographs.
screen,html.Screen,2_3_1_0_1_16,2022-02-04T11:33:16.710Z,,,,,,,,,,,,,,,,,11,,,,,,,,,,,,,,888,,response,,,,4,C,,,,,,Space,keypress(Space),,,,instrumental,,,,----- -- ---- --- -- --- -------- ------------ ---------- --<br>- ------- ------ --------- -- ------------ It --- ---- -----<br>------ ---- ---- ------ ------ ------- --- ----- ---------<br>---- --- -------- -------- --- --- -- ------- --- --- -----<br>-- --- ------ ------- --- --- -------- ---- --------- --<br>---------- -- -------- ----------------,208506,208497,207609,207606,207626,208543,,16,It
screen,html.Screen,2_3_1_0_1_17,2022-02-04T11:33:17.105Z,,,,,,,,,,,,,,,,,11,,,,,,,,,,,,,,367,,response,,,,4,C,,,,,,Space,keypress(Space),,,,instrumental,,,,----- -- ---- --- -- --- -------- ------------ ---------- --<br>- ------- ------ --------- -- ------------ -- has ---- -----<br>------ ---- ---- ------ ------ ------- --- ----- ---------<br>---- --- -------- -------- --- --- -- ------- --- --- -----<br>-- --- ------ ------- --- --- -------- ---- --------- --<br>---------- -- -------- ----------------,208901,208893,208526,208506,208543,208927,,17,has
screen,html.Screen,2_3_1_0_1_18,2022-02-04T11:33:17.466Z,,,,,,,,,,,,,,,,,11,,,,,,,,,,,,,,343,,response,,,,4,C,,,,,,Space,keypress(Space),,,,instrumental,,,,----- -- ---- --- -- --- -------- ------------ ---------- --<br>- ------- ------ --------- -- ------------ -- --- been -----<br>------ ---- ---- ------ ------ ------- --- ----- ---------<br>---- --- -------- -------- --- --- -- ------- --- --- -----<br>-- --- ------ ------- --- --- -------- ---- --------- --<br>---------- -- -------- ----------------,209261,209252,208909,208902.00000000003,208927,209293,,18,been
screen,html.Screen,2_3_1_0_1_19,2022-02-04T11:33:17.736Z,,,,,,,,,,,,,,,,,11,,,,,,,,,,,,,,247,,response,,,,4,C,,,,,,Space,keypress(Space),,,,instrumental,,,,----- -- ---- --- -- --- -------- ------------ ---------- --<br>- ------- ------ --------- -- ------------ -- --- ---- found<br>------ ---- ---- ------ ------ ------- --- ----- ---------<br>---- --- -------- -------- --- --- -- ------- --- --- -----<br>-- --- ------ ------- --- --- -------- ---- --------- --<br>---------- -- -------- ----------------,209532,209523,209276,209262,209293,209559,,19,found
screen,html.Screen,2_3_1_0_1_20,2022-02-04T11:33:18.049Z,,,,,,,,,,,,,,,,,11,,,,,,,,,,,,,,295,,response,,,,4,C,,,,,,Space,keypress(Space),,,,instrumental,,,,----- -- ---- --- -- --- -------- ------------ ---------- --<br>- ------- ------ --------- -- ------------ -- --- ---- -----<br>carved ---- ---- ------ ------ ------- --- ----- ---------<br>---- --- -------- -------- --- --- -- ------- --- --- -----<br>-- --- ------ ------- --- --- -------- ---- --------- --<br>---------- -- -------- ----------------,209845,209836,209541,209532,209559,209876,,20,carved
screen,html.Screen,2_3_1_0_1_21,2022-02-04T11:33:18.478Z,,,,,,,,,,,,,,,,,11,,,,,,,,,,,,,,406.0000000000291,,response,,,,4,C,,,,,,Space,keypress(Space),,,,instrumental,,,,----- -- ---- --- -- --- -------- ------------ ---------- --<br>- ------- ------ --------- -- ------------ -- --- ---- -----<br>------ into ---- ------ ------ ------- --- ----- ---------<br>---- --- -------- -------- --- --- -- ------- --- --- -----<br>-- --- ------ ------- --- --- -------- ---- --------- --<br>---------- -- -------- ----------------,210273,210265.00000000003,209859,209845,209876,210311,,21,into
screen,html.Screen,2_3_1_0_1_22,2022-02-04T11:33:18.793Z,,,,,,,,,,,,,,,,,11,,,,,,,,,,,,,,285,,response,,,,4,C,,,,,,Space,keypress(Space),,,,instrumental,,,,----- -- ---- --- -- --- -------- ------------ ---------- --<br>- ------- ------ --------- -- ------------ -- --- ---- -----<br>------ ---- many ------ ------ ------- --- ----- ---------<br>---- --- -------- -------- --- --- -- ------- --- --- -----<br>-- --- ------ ------- --- --- -------- ---- --------- --<br>---------- -- -------- ----------------,210589,210580,210295,210274,210311,210611,,22,many
screen,html.Screen,2_3_1_0_1_23,2022-02-04T11:33:19.130Z,,,,,,,,,,,,,,,,,11,,,,,,,,,,,,,,323,,response,,,,4,C,,,,,,Space,keypress(Space),,,,instrumental,,,,----- -- ---- --- -- --- -------- ------------ ---------- --<br>- ------- ------ --------- -- ------------ -- --- ---- -----<br>------ ---- ---- oblong ------ ------- --- ----- ---------<br>---- --- -------- -------- --- --- -- ------- --- --- -----<br>-- --- ------ ------- --- --- -------- ---- --------- --<br>---------- -- -------- ----------------,210926.00000000003,210917,210594,210589,210611,210945,,23,oblong
screen,html.Screen,2_3_1_0_1_24,2022-02-04T11:33:19.501Z,,,,,,,,,,,,,,,,,11,,,,,,,,,,,,,,361.0000000000291,,response,,,,4,C,,,,,,Space,keypress(Space),,,,instrumental,,,,----- -- ---- --- -- --- -------- ------------ ---------- --<br>- ------- ------ --------- -- ------------ -- --- ---- -----<br>------ ---- ---- ------ wooden ------- --- ----- ---------<br>---- --- -------- -------- --- --- -- ------- --- --- -----<br>-- --- ------ ------- --- --- -------- ---- --------- --<br>---------- -- -------- ----------------,211297,211289.00000000003,210928,210926.00000000003,210945,211329,,24,wooden
screen,html.Screen,2_3_1_0_1_25,2022-02-04T11:33:19.894Z,,,,,,,,,,,,,,,,,11,,,,,,,,,,,,,,370,,response,,,,4,C,,,,,,Space,keypress(Space),,,,instrumental,,,,----- -- ---- --- -- --- -------- ------------ ---------- --<br>- ------- ------ --------- -- ------------ -- --- ---- -----<br>------ ---- ---- ------ ------ tablets --- ----- ---------<br>---- --- -------- -------- --- --- -- ------- --- --- -----<br>-- --- ------ ------- --- --- -------- ---- --------- --<br>---------- -- -------- ----------------,211690,211681,211311,211298,211329,211712,,25,tablets
screen,html.Screen,2_3_1_0_1_26,2022-02-04T11:33:20.310Z,,,,,,,,,,,,,,,,,11,,,,,,,,,,,,,,401,,response,,,,4,C,,,,,,Space,keypress(Space),,,,instrumental,,,,----- -- ---- --- -- --- -------- ------------ ---------- --<br>- ------- ------ --------- -- ------------ -- --- ---- -----<br>------ ---- ---- ------ ------ ------- and ----- ---------<br>---- --- -------- -------- --- --- -- ------- --- --- -----<br>-- --- ------ ------- --- --- -------- ---- --------- --<br>---------- -- -------- ----------------,212106,212097,211696,211690,211712,212146,,26,and
screen,html.Screen,2_3_1_0_1_27,2022-02-04T11:33:20.683Z,,,,,,,,,,,,,,,,,11,,,,,,,,,,,,,,341,,response,,,,4,C,,,,,,Space,keypress(Space),,,,instrumental,,,,----- -- ---- --- -- --- -------- ------------ ---------- --<br>- ------- ------ --------- -- ------------ -- --- ---- -----<br>------ ---- ---- ------ ------ ------- --- other ---------<br>---- --- -------- -------- --- --- -- ------- --- --- -----<br>-- --- ------ ------- --- --- -------- ---- --------- --<br>---------- -- -------- ----------------,212479,212470,212129,212106,212146,212513,,27,other
screen,html.Screen,2_3_1_0_1_28,2022-02-04T11:33:21.132Z,,,,,,,,,,,,,,,,,11,,,,,,,,,,,,,,423,,response,,,,4,C,,,,,,Space,keypress(Space),,,,instrumental,,,,----- -- ---- --- -- --- -------- ------------ ---------- --<br>- ------- ------ --------- -- ------------ -- --- ---- -----<br>------ ---- ---- ------ ------ ------- --- ----- artifacts<br>---- --- -------- -------- --- --- -- ------- --- --- -----<br>-- --- ------ ------- --- --- -------- ---- --------- --<br>---------- -- -------- ----------------,212928,212919,212496,212479,212513,212963,,28,artifacts
screen,html.Screen,2_3_1_0_1_29,2022-02-04T11:33:21.515Z,,,,,,,,,,,,,,,,,11,,,,,,,,,,,,,,356,,response,,,,4,C,,,,,,Space,keypress(Space),,,,instrumental,,,,----- -- ---- --- -- --- -------- ------------ ---------- --<br>- ------- ------ --------- -- ------------ -- --- ---- -----<br>------ ---- ---- ------ ------ ------- --- ----- ---------<br>from --- -------- -------- --- --- -- ------- --- --- -----<br>-- --- ------ ------- --- --- -------- ---- --------- --<br>---------- -- -------- ----------------,213311,213303,212947,212929,212963,213330,,29,from
screen,html.Screen,2_3_1_0_1_30,2022-02-04T11:33:21.807Z,,,,,,,,,,,,,,,,,11,,,,,,,,,,,,,,280,,response,,,,4,C,,,,,,Space,keypress(Space),,,,instrumental,,,,----- -- ---- --- -- --- -------- ------------ ---------- --<br>- ------- ------ --------- -- ------------ -- --- ---- -----<br>------ ---- ---- ------ ------ ------- --- ----- ---------<br>---- the -------- -------- --- --- -- ------- --- --- -----<br>-- --- ------ ------- --- --- -------- ---- --------- --<br>---------- -- -------- ----------------,213603,213594,213314,213312,213330,213631,,30,the
screen,html.Screen,2_3_1_0_1_31,2022-02-04T11:33:22.156Z,,,,,,,,,,,,,,,,,11,,,,,,,,,,,,,,330.0000000000291,,response,,,,4,C,,,,,,Space,keypress(Space),,,,instrumental,,,,----- -- ---- --- -- --- -------- ------------ ---------- --<br>- ------- ------ --------- -- ------------ -- --- ---- -----<br>------ ---- ---- ------ ------ ------- --- ----- ---------<br>---- --- island's -------- --- --- -- ------- --- --- -----<br>-- --- ------ ------- --- --- -------- ---- --------- --<br>---------- -- -------- ----------------,213952,213944.00000000003,213614,213603,213631,213980,,31,island's
screen,html.Screen,2_3_1_0_1_32,2022-02-04T11:33:22.560Z,,,,,,,,,,,,,,,,,11,,,,,,,,,,,,,,383,,response,,,,4,C,,,,,,Space,keypress(Space),,,,instrumental,,,,----- -- ---- --- -- --- -------- ------------ ---------- --<br>- ------- ------ --------- -- ------------ -- --- ---- -----<br>------ ---- ---- ------ ------ ------- --- ----- ---------<br>---- --- -------- history. --- --- -- ------- --- --- -----<br>-- --- ------ ------- --- --- -------- ---- --------- --<br>---------- -- -------- ----------------,214356,214347,213964,213952,213980,214397,,32,history.
screen,html.Screen,2_3_1_0_1_33,2022-02-04T11:33:23.044Z,,,,,,,,,,,,,,,,,11,,,,,,,,,,,,,,451.0000000000291,,response,,,,4,C,,,,,,Space,keypress(Space),,,,instrumental,,,,----- -- ---- --- -- --- -------- ------------ ---------- --<br>- ------- ------ --------- -- ------------ -- --- ---- -----<br>------ ---- ---- ------ ------ ------- --- ----- ---------<br>---- --- -------- -------- The --- -- ------- --- --- -----<br>-- --- ------ ------- --- --- -------- ---- --------- --<br>---------- -- -------- ----------------,214840,214831.00000000003,214380,214357,214397,214882,,33,The
screen,html.Screen,2_3_1_0_1_34,2022-02-04T11:33:23.382Z,,,,,,,,,,,,,,,,,11,,,,,,,,,,,,,,305.0000000000291,,response,,,,4,C,,,,,,Space,keypress(Space),,,,instrumental,,,,----- -- ---- --- -- --- -------- ------------ ---------- --<br>- ------- ------ --------- -- ------------ -- --- ---- -----<br>------ ---- ---- ------ ------ ------- --- ----- ---------<br>---- --- -------- -------- --- art -- ------- --- --- -----<br>-- --- ------ ------- --- --- -------- ---- --------- --<br>---------- -- -------- ----------------,215178,215170.00000000003,214865,214840,214882,215199,,34,art
screen,html.Screen,2_3_1_0_1_35,2022-02-04T11:33:23.730Z,,,,,,,,,,,,,,,,,11,,,,,,,,,,,,,,336,,response,,,,4,C,,,,,,Space,keypress(Space),,,,instrumental,,,,----- -- ---- --- -- --- -------- ------------ ---------- --<br>- ------- ------ --------- -- ------------ -- --- ---- -----<br>------ ---- ---- ------ ------ ------- --- ----- ---------<br>---- --- -------- -------- --- --- of ------- --- --- -----<br>-- --- ------ ------- --- --- -------- ---- --------- --<br>---------- -- -------- ----------------,215526,215517,215181,215179,215199,215549,,35,of
screen,html.Screen,2_3_1_0_1_36,2022-02-04T11:33:23.922Z,,,,,,,,,,,,,,,,,11,,,,,,,,,,,,,,177,,response,,,,4,C,,,,,,Space,keypress(Space),,,,instrumental,,,,----- -- ---- --- -- --- -------- ------------ ---------- --<br>- ------- ------ --------- -- ------------ -- --- ---- -----<br>------ ---- ---- ------ ------ ------- --- ----- ---------<br>---- --- -------- -------- --- --- -- writing --- --- -----<br>-- --- ------ ------- --- --- -------- ---- --------- --<br>---------- -- -------- ----------------,215718.00000000003,215709,215532,215526,215549,215749,,36,writing
screen,html.Screen,2_3_1_0_1_37,2022-02-04T11:33:24.406Z,,,,,,,,,,,,,,,,,11,,,,,,,,,,,,,,462,,response,,,,4,C,,,,,,Space,keypress(Space),,,,instrumental,,,,----- -- ---- --- -- --- -------- ------------ ---------- --<br>- ------- ------ --------- -- ------------ -- --- ---- -----<br>------ ---- ---- ------ ------ ------- --- ----- ---------<br>---- --- -------- -------- --- --- -- ------- was --- -----<br>-- --- ------ ------- --- --- -------- ---- --------- --<br>---------- -- -------- ----------------,216202,216193,215731,215718.00000000003,215749,216233,,37,was
screen,html.Screen,2_3_1_0_1_38,2022-02-04T11:33:24.732Z,,,,,,,,,,,,,,,,,11,,,,,,,,,,,,,,303,,response,,,,4,C,,,,,,Space,keypress(Space),,,,instrumental,,,,----- -- ---- --- -- --- -------- ------------ ---------- --<br>- ------- ------ --------- -- ------------ -- --- ---- -----<br>------ ---- ---- ------ ------ ------- --- ----- ---------<br>---- --- -------- -------- --- --- -- ------- --- not -----<br>-- --- ------ ------- --- --- -------- ---- --------- --<br>---------- -- -------- ----------------,216528,216519,216216,216203,216233,216549,,38,not
screen,html.Screen,2_3_1_0_1_39,2022-02-04T11:33:25.070Z,,,,,,,,,,,,,,,,,11,,,,,,,,,,,,,,324,,response,,,,4,C,,,,,,Space,keypress(Space),,,,instrumental,,,,----- -- ---- --- -- --- -------- ------------ ---------- --<br>- ------- ------ --------- -- ------------ -- --- ---- -----<br>------ ---- ---- ------ ------ ------- --- ----- ---------<br>---- --- -------- -------- --- --- -- ------- --- --- known<br>-- --- ------ ------- --- --- -------- ---- --------- --<br>---------- -- -------- ----------------,216866,216857,216533,216528,216549,216900,,39,known
screen,html.Screen,2_3_1_0_1_40,2022-02-04T11:33:25.453Z,,,,,,,,,,,,,,,,,11,,,,,,,,,,,,,,357,,response,,,,4,C,,,,,,Space,keypress(Space),,,,instrumental,,,,----- -- ---- --- -- --- -------- ------------ ---------- --<br>- ------- ------ --------- -- ------------ -- --- ---- -----<br>------ ---- ---- ------ ------ ------- --- ----- ---------<br>---- --- -------- -------- --- --- -- ------- --- --- -----<br>in --- ------ ------- --- --- -------- ---- --------- --<br>---------- -- -------- ----------------,217249,217240,216883,216866,216900,217267,,40,in
screen,html.Screen,2_3_1_0_1_41,2022-02-04T11:33:25.699Z,,,,,,,,,,,,,,,,,11,,,,,,,,,,,,,,235.0000000000291,,response,,,,4,C,,,,,,Space,keypress(Space),,,,instrumental,,,,----- -- ---- --- -- --- -------- ------------ ---------- --<br>- ------- ------ --------- -- ------------ -- --- ---- -----<br>------ ---- ---- ------ ------ ------- --- ----- ---------<br>---- --- -------- -------- --- --- -- ------- --- --- -----<br>-- any ------ ------- --- --- -------- ---- --------- --<br>---------- -- -------- ----------------,217495,217486.00000000003,217251,217249,217267,217517,,41,any
screen,html.Screen,2_3_1_0_1_42,2022-02-04T11:33:26.081Z,,,,,,,,,,,,,,,,,11,,,,,,,,,,,,,,370,,response,,,,4,C,,,,,,Space,keypress(Space),,,,instrumental,,,,----- -- ---- --- -- --- -------- ------------ ---------- --<br>- ------- ------ --------- -- ------------ -- --- ---- -----<br>------ ---- ---- ------ ------ ------- --- ----- ---------<br>---- --- -------- -------- --- --- -- ------- --- --- -----<br>-- --- nearby ------- --- --- -------- ---- --------- --<br>---------- -- -------- ----------------,217877,217869,217499,217495,217517,217900,,42,nearby
screen,html.Screen,2_3_1_0_1_43,2022-02-04T11:33:27.826Z,,,,,,,,,,,,,,,,,11,,,,,,,,,,,,,,1730,,response,,,,4,C,,,,,,Space,keypress(Space),,,,instrumental,,,,----- -- ---- --- -- --- -------- ------------ ---------- --<br>- ------- ------ --------- -- ------------ -- --- ---- -----<br>------ ---- ---- ------ ------ ------- --- ----- ---------<br>---- --- -------- -------- --- --- -- ------- --- --- -----<br>-- --- ------ islands --- --- -------- ---- --------- --<br>---------- -- -------- ----------------,219622,219614,217884,217877,217900,219652,,43,islands
screen,html.Screen,2_3_1_0_1_44,2022-02-04T11:33:28.883Z,,,,,,,,,,,,,,,,,11,,,,,,,,,,,,,,1035.000000000029,,response,,,,4,C,,,,,,Space,keypress(Space),,,,instrumental,,,,----- -- ---- --- -- --- -------- ------------ ---------- --<br>- ------- ------ --------- -- ------------ -- --- ---- -----<br>------ ---- ---- ------ ------ ------- --- ----- ---------<br>---- --- -------- -------- --- --- -- ------- --- --- -----<br>-- --- ------ ------- and --- -------- ---- --------- --<br>---------- -- -------- ----------------,220678,220670.00000000003,219635,219623,219652,220720,,44,and
screen,html.Screen,2_3_1_0_1_45,2022-02-04T11:33:29.279Z,,,,,,,,,,,,,,,,,11,,,,,,,,,,,,,,364,,response,,,,4,C,,,,,,Space,keypress(Space),,,,instrumental,,,,----- -- ---- --- -- --- -------- ------------ ---------- --<br>- ------- ------ --------- -- ------------ -- --- ---- -----<br>------ ---- ---- ------ ------ ------- --- ----- ---------<br>---- --- -------- -------- --- --- -- ------- --- --- -----<br>-- --- ------ ------- --- the -------- ---- --------- --<br>---------- -- -------- ----------------,221075.00000000003,221066,220702,220679,220720,221103,,45,the
screen,html.Screen,2_3_1_0_1_46,2022-02-04T11:33:29.929Z,,,,,,,,,,,,,,,,,11,,,,,,,,,,,,,,630,,response,,,,4,C,,,,,,Space,keypress(Space),,,,instrumental,,,,----- -- ---- --- -- --- -------- ------------ ---------- --<br>- ------- ------ --------- -- ------------ -- --- ---- -----<br>------ ---- ---- ------ ------ ------- --- ----- ---------<br>---- --- -------- -------- --- --- -- ------- --- --- -----<br>-- --- ------ ------- --- --- script's ---- --------- --<br>---------- -- -------- ----------------,221725,221717,221087,221075.00000000003,221103,221754,,46,script's
screen,html.Screen,2_3_1_0_1_47,2022-02-04T11:33:30.650Z,,,,,,,,,,,,,,,,,11,,,,,,,,,,,,,,700,,response,,,,4,C,,,,,,Space,keypress(Space),,,,instrumental,,,,----- -- ---- --- -- --- -------- ------------ ---------- --<br>- ------- ------ --------- -- ------------ -- --- ---- -----<br>------ ---- ---- ------ ------ ------- --- ----- ---------<br>---- --- -------- -------- --- --- -- ------- --- --- -----<br>-- --- ------ ------- --- --- -------- mere --------- --<br>---------- -- -------- ----------------,222446,222437,221737,221726,221754,222488,,47,mere
screen,html.Screen,2_3_1_0_1_48,2022-02-04T11:33:31.111Z,,,,,,,,,,,,,,,,,11,,,,,,,,,,,,,,429,,response,,,,4,C,,,,,,Space,keypress(Space),,,,instrumental,,,,----- -- ---- --- -- --- -------- ------------ ---------- --<br>- ------- ------ --------- -- ------------ -- --- ---- -----<br>------ ---- ---- ------ ------ ------- --- ----- ---------<br>---- --- -------- -------- --- --- -- ------- --- --- -----<br>-- --- ------ ------- --- --- -------- ---- existence --<br>---------- -- -------- ----------------,222907,222899,222470,222446,222488,222938,,48,existence
screen,html.Screen,2_3_1_0_1_49,2022-02-04T11:33:31.572Z,,,,,,,,,,,,,,,,,11,,,,,,,,,,,,,,438,,response,,,,4,C,,,,,,Space,keypress(Space),,,,instrumental,,,,----- -- ---- --- -- --- -------- ------------ ---------- --<br>- ------- ------ --------- -- ------------ -- --- ---- -----<br>------ ---- ---- ------ ------ ------- --- ----- ---------<br>---- --- -------- -------- --- --- -- ------- --- --- -----<br>-- --- ------ ------- --- --- -------- ---- --------- is<br>---------- -- -------- ----------------,223368,223359,222921,222908.00000000003,222938,223405,,49,is
screen,html.Screen,2_3_1_0_1_50,2022-02-04T11:33:31.931Z,,,,,,,,,,,,,,,,,11,,,,,,,,,,,,,,330.0000000000291,,response,,,,4,C,,,,,,Space,keypress(Space),,,,instrumental,,,,----- -- ---- --- -- --- -------- ------------ ---------- --<br>- ------- ------ --------- -- ------------ -- --- ---- -----<br>------ ---- ---- ------ ------ ------- --- ----- ---------<br>---- --- -------- -------- --- --- -- ------- --- --- -----<br>-- --- ------ ------- --- --- -------- ---- --------- --<br>sufficient -- -------- ----------------,223727,223718.00000000003,223388,223368,223405,223755,,50,sufficient
screen,html.Screen,2_3_1_0_1_51,2022-02-04T11:33:32.257Z,,,,,,,,,,,,,,,,,11,,,,,,,,,,,,,,307.0000000000291,,response,,,,4,C,,,,,,Space,keypress(Space),,,,instrumental,,,,----- -- ---- --- -- --- -------- ------------ ---------- --<br>- ------- ------ --------- -- ------------ -- --- ---- -----<br>------ ---- ---- ------ ------ ------- --- ----- ---------<br>---- --- -------- -------- --- --- -- ------- --- --- -----<br>-- --- ------ ------- --- --- -------- ---- --------- --<br>---------- to -------- ----------------,224053,224045.00000000003,223738,223728,223755,224072,,51,to
screen,html.Screen,2_3_1_0_1_52,2022-02-04T11:33:32.616Z,,,,,,,,,,,,,,,,,11,,,,,,,,,,,,,,348,,response,,,,4,C,,,,,,Space,keypress(Space),,,,instrumental,,,,----- -- ---- --- -- --- -------- ------------ ---------- --<br>- ------- ------ --------- -- ------------ -- --- ---- -----<br>------ ---- ---- ------ ------ ------- --- ----- ---------<br>---- --- -------- -------- --- --- -- ------- --- --- -----<br>-- --- ------ ------- --- --- -------- ---- --------- --<br>---------- -- confound ----------------,224412,224404,224056,224054,224072,224439,,52,confound
screen,html.Screen,2_3_1_0_1_53,2022-02-04T11:33:33.485Z,,,,,,,,,,,,,,,,,11,,,,,,,,,,,,,,849,,response,,,,4,C,,,,,,Space,keypress(Space),,,,instrumental,,,,----- -- ---- --- -- --- -------- ------------ ---------- --<br>- ------- ------ --------- -- ------------ -- --- ---- -----<br>------ ---- ---- ------ ------ ------- --- ----- ---------<br>---- --- -------- -------- --- --- -- ------- --- --- -----<br>-- --- ------ ------- --- --- -------- ---- --------- --<br>---------- -- -------- anthropologists.,225281,225272,224423,224412,224439,225323,,53,anthropologists.
Item 4,flow.Loop,2_3_1_0_1,2022-02-04T11:33:33.485Z,,,,,,,,,,,,,,,,,,,,,,,,,,,,,,,26887,,completion,,,,,,,,,,,,,,,,,,,,,225281,225272,198369,198370,198385,225323,,,
Question 1,html.Screen,2_3_1_0_2,2022-02-04T11:33:35.987Z,,,,,,,,,,,,,,,,,,,,,,,,,,,,true,FALSE,,2470.000000000029,,response,,,,4,C,,,,,,FALSE,click #choice-2,,,,instrumental,,,,,227783.00000000003,227777.00000000003,225307,225281,225323,227809,,,
Question 2,html.Screen,2_3_1_0_3,2022-02-04T11:33:39.330Z,,,,,,,,,,,,,,,,,,,,,,,,,,,,true,TRUE,,3329,,response,,,,4,C,,,,,,TRUE,click #choice-1,,,,instrumental,,,,,231126,231121,227792,227783.00000000003,227809,231145,,,
Item 4,flow.Sequence,2_3_1_0,2022-02-04T11:33:39.330Z,,,,,,,,,,,,,,,,,,,,,,,,,,,,,,,39742,,completion,,,,,,,,,,,,,,,,,,,,,231126,231121,191362,191364,191379,231145,,,
Holding screen,html.Screen,2_3_1_1_0,2022-02-04T11:33:46.338Z,,,,,,,,,,,,,,,,,,,,,,,,,,,,,,,7005,,timeout,,,,,,,,,,,,,,,,,,,,,238134,238134,231130,231127,231145,238150,,,
screen,html.Screen,2_3_1_1_1_0,2022-02-04T11:33:46.961Z,,,,,,,,,,,,,,,,,15,,,,,,,,,,,,,,615,,response,,,,7,C,,,,,,Space,keypress(Space),,,,instrumental,,,,Greg --------- ---------- - --- ------- -- --- ------------<br>----- -- -------- ------- ---- ------ - -------- ---- -----<br>--- ------- ---- -- --- -------- --- - ----- ------ ---- --<br>-------- --- -------- -------- --- -------- ---- -- ----- -<br>-------- ---- --- ---------- --------- -- ------- ------ -<br>--------- ----- -----,238757,238749,238134,238135,238150,238784,,0,Greg
