sender,sender_type,sender_id,timestamp,meta,,Blues,Classical,Country,Dance,Electronic,Folk,Gospel,Hip-Hop,Jazz,Latin,Musical/Film,New-age,Pop,Prolific_id,Provo_ID,R&B,Rap,Reggae,Religious,Rock,Soul,Swing,Traditional,age,artist_name,correct,correctResponse,distraction,duration,education,ended_on,familiarity,gender,headphone_check_performance,item,list,music_frequency,offensiveness,pleasantness,position_correct,preference,response,response_action,snippet_file,song_name,song_rating,sound,stimulus_1,stimulus_2,stimulus_3,text,time_commit,time_end,time_render,time_run,time_show,time_switch,url,word,word_ID
Prolific ID,html.Form,0,2022-02-04T11:59:50.196Z,"{""labjs_version"":""20.2.2"",""labjs_build"":{""flavor"":""production"",""commit"":""a25486e0c714a0ae2ce03ff94b7bb6896854dcfa""},""location"":""https://run.pavlovia.org/mvasilev/prolific2_music_c/"",""userAgent"":""Mozilla/5.0 (Macintosh; Intel Mac OS X 10_15_7) AppleWebKit/537.36 (KHTML, like Gecko) Chrome/97.0.4692.99 Safari/537.36"",""platform"":""MacIntel"",""language"":""en-GB"",""locale"":""en-GB"",""timeZone"":""Europe/London"",""timezoneOffset"":0,""screen_width"":1280,""screen_height"":800,""scroll_width"":1280,""scroll_height"":585,""window_innerWidth"":1280,""window_innerHeight"":633,""devicePixelRatio"":2}",,,,,,,,,,,,,,,605f3f014e9662977dba1d20,,,,,,,,,,,,,,,10740.892000001491,,form submission,,,,,,,,,,,,,,,,,,,,,18158.60000000149,18158.10000000149,7367.186,7381.5,7417.208,18176.458,{},,
Introduction,html.Screen,1_0,2022-02-04T12:00:02.171Z,,,,,,,,,,,,,,,,,,,,,,,,,,,,,,,11943.841999997021,,response,,,,,,,,,,,continue,click button,,,,,,,,,30133,30120.29999999702,18143.11,18159.10000000149,18176.458,30146.883,,,
Volume calibration,html.Screen,1_1,2022-02-04T12:00:46.090Z,,,,,,,,,,,,,,,,,,,,,,,,,,,,,,,43891.71700000149,,response,,,,,,,,,,,continue,click button,,,,,,,,,74051.60000000149,74038.60000000149,30130.209,30133.20000000298,30146.883,74052.223,,,
Task instructions,html.Screen,1_2,2022-02-04T12:00:53.445Z,,,,,,,,,,,,,,,,,,,,,,,,,,,,,,,7341.076999997022,,response,,,,,,,,,,,continue,click button,,,,,,,,,81406.39999999851,81393.29999999702,74035.549,74051.70000000298,74052.223,81409.766,,,
Sounds,html.Screen,1_3_0_0,2022-02-04T12:00:57.689Z,,,,,,,,,,,,,,,,,,,,,,,,,,,,,,,4251.869999999995,,timeout,,,,,,,,,1,,,,,,,,S,O,I,,85649.79999999702,85644.962,81393.092,81406.60000000149,81409.766,85661.636,,,
Judgement,html.Screen,1_3_0_1,2022-02-04T12:00:58.990Z,,,,,,,,,,,,,,,,,,,,,,,,,,,,true,1,,1276.4640000014915,,response,,,,,,,,,1,,1,click #choice-1,,,,,S,O,I,,86951.20000000298,86938.10000000149,85644.962,85650.10000000149,85661.636,86965.357,,,
Trial,flow.Sequence,1_3_0,2022-02-04T12:00:58.990Z,,,,,,,,,,,,,,,,,,,,,,,,,,,,,,,5528.334000001487,,completion,,,,,,,,,1,,,,,,,,S,O,I,,86951.5,86938.10000000149,81393.092,81406.5,81409.766,86965.357,,,
Sounds,html.Screen,1_3_1_0,2022-02-04T12:01:03.242Z,,,,,,,,,,,,,,,,,,,,,,,,,,,,,,,4251.869999999995,,timeout,,,,,,,,,3,,,,,,,,I,O,S,,91202.70000000298,91200.553,86948.683,86951.70000000298,86965.357,91217.227,,,
Judgement,html.Screen,1_3_1_1,2022-02-04T12:01:04.428Z,,,,,,,,,,,,,,,,,,,,,,,,,,,,true,3,,1162.172999998511,,response,,,,,,,,,3,,3,click #choice-3,,,,,I,O,S,,92389,92379.39999999851,91200.553,91202.89999999851,91217.227,92401.081,,,
Trial,flow.Sequence,1_3_1,2022-02-04T12:01:04.429Z,,,,,,,,,,,,,,,,,,,,,,,,,,,,,,,5414.042999998506,,completion,,,,,,,,,3,,,,,,,,I,O,S,,92389.60000000149,92379.39999999851,86948.683,86951.60000000149,86965.357,92401.081,,,
Sounds,html.Screen,1_3_2_0,2022-02-04T12:01:08.679Z,,,,,,,,,,,,,,,,,,,,,,,,,,,,,,,4251.869999999995,,timeout,,,,,,,,,2,,,,,,,,I,S,O,,96640.10000000149,96636.277,92384.407,92389.70000000298,92401.081,96652.951,,,
Judgement,html.Screen,1_3_2_1,2022-02-04T12:01:09.357Z,,,,,,,,,,,,,,,,,,,,,,,,,,,,true,2,,648.7490000029793,,response,,,,,,,,,2,,2,click #choice-2,,,,,I,S,O,,97317.70000000298,97301.70000000298,96636.277,96640.29999999702,96652.951,97333.764,,,
Trial,flow.Sequence,1_3_2,2022-02-04T12:01:09.357Z,,,,,,,,,,,,,,,,,,,,,,,,,,,,,,,4900.619000002975,,completion,,,,,,,,,2,,,,,,,,I,S,O,,97318,97301.70000000298,92384.407,92389.70000000298,92401.081,97333.764,,,
Sounds,html.Screen,1_3_3_0,2022-02-04T12:01:13.611Z,,,,,,,,,,,,,,,,,,,,,,,,,,,,,,,4251.87000000001,,timeout,,,,,,,,,1,,,,,,,,S,I,O,,101571.29999999702,101568.96,97317.09,97318.10000000149,97333.764,101585.634,,,
Judgement,html.Screen,1_3_3_1,2022-02-04T12:01:14.535Z,,,,,,,,,,,,,,,,,,,,,,,,,,,,true,1,,901.3659999999945,,response,,,,,,,,,1,,1,click #choice-1,,,,,S,I,O,,102495.39999999851,102487,101568.96,101571.5,101585.634,102502.704,,,
Trial,flow.Sequence,1_3_3,2022-02-04T12:01:14.535Z,,,,,,,,,,,,,,,,,,,,,,,,,,,,,,,5153.236000000004,,completion,,,,,,,,,1,,,,,,,,S,I,O,,102495.60000000149,102487,97317.09,97318.10000000149,97333.764,102502.704,,,
Sounds,html.Screen,1_3_4_0,2022-02-04T12:01:18.779Z,,,,,,,,,,,,,,,,,,,,,,,,,,,,,,,4251.869999999995,,timeout,,,,,,,,,3,,,,,,,,O,I,S,,106740,106737.9,102486.03,102495.79999999702,102502.704,106754.574,,,
Judgement,html.Screen,1_3_4_1,2022-02-04T12:01:19.822Z,,,,,,,,,,,,,,,,,,,,,,,,,,,,true,3,,1016.3259999985166,,response,,,,,,,,,3,,3,click #choice-3,,,,,O,I,S,,107782.60000000149,107770.89999999851,106737.9,106740.20000000298,106754.574,107789.54,,,
Trial,flow.Sequence,1_3_4,2022-02-04T12:01:19.822Z,,,,,,,,,,,,,,,,,,,,,,,,,,,,,,,5268.195999998512,,completion,,,,,,,,,3,,,,,,,,O,I,S,,107782.79999999702,107770.89999999851,102486.03,102495.70000000298,102502.704,107789.54,,,
Sounds,html.Screen,1_3_5_0,2022-02-04T12:01:24.067Z,,,,,,,,,,,,,,,,,,,,,,,,,,,,,,,4251.87000000001,,timeout,,,,,,,,,2,,,,,,,,O,S,I,,112027.79999999702,112024.736,107772.866,107783,107789.54,112041.41,,,
Judgement,html.Screen,1_3_5_1,2022-02-04T12:01:24.723Z,,,,,,,,,,,,,,,,,,,,,,,,,,,,true,2,,617.9899999985064,,response,,,,,,,,,2,,2,click #choice-2,,,,,O,S,I,,112683.5,112659.39999999851,112024.736,112028,112041.41,112691.696,,,
Trial,flow.Sequence,1_3_5,2022-02-04T12:01:24.723Z,,,,,,,,,,,,,,,,,,,,,,,,,,,,,,,4869.859999998516,,completion,,,,,,,,,2,,,,,,,,O,S,I,,112683.70000000298,112659.39999999851,107772.866,107782.89999999851,107789.54,112691.696,,,
Task,flow.Loop,1_3,2022-02-04T12:01:24.727Z,,,,,,,,,,,,,,,,,,,,,,,,,,,,,,,31249.633999998507,,completion,,,1,,,,,,,,,,,,,,,,,,112687.5,112659.39999999851,81393.092,81406.5,81409.766,112691.696,,,
Trap,html.Screen,1_4,2022-02-04T12:01:24.728Z,,,,,,,,,,,,,,,,,,,,,,,,,,,,,,,NaN,,skipped,,,,,,,,,,,,,,,,,,,,,112688.5,112659.39999999851,,112688.29999999702,,112691.696,,,
Thanks,html.Screen,1_5,2022-02-04T12:01:35.816Z,,,,,,,,,,,,,,,,,,,,,,,,,,,,,,,11064.404000001494,,response,,,,,,,,,,,continue,click button,,,,,,,,,123775.89999999851,123756.10000000149,112675.022,112688.60000000149,112691.696,128096.323,,,
Headphone screening,flow.Sequence,1,2022-02-04T12:01:35.816Z,,,,,,,,,,,,,,,,,,,,,,,,,,,,,,,105579.64200000149,,completion,,,,,,,,,,,,,,,,,,,,,123776.10000000149,123756.10000000149,18143.11,18159,18176.458,128096.323,,,
Instructions,html.Page,2_0,2022-02-04T12:02:04.665Z,,,,,,,,,,,,,,,,,,,,,,,,,,,,,,,24527.476999997016,,form submission,,,,,,,,,,,,,,,,,,,,,152624.3999999985,152623.79999999702,128062.975,128065.70000000298,128096.323,152623.777,,,
Holding screen,html.Screen,2_1_0_0,2022-02-04T12:02:14.658Z,,,,,,,,,,,,,,,,,,,,,,,,,,,,,,,10007.707999999984,,timeout,,,,,,,,,,,,,,,,,,,,,162617.20000000298,162614.811,152607.103,152624.3999999985,152623.777,162631.485,,,
screen,html.Screen,2_1_0_1_0,2022-02-04T12:02:17.336Z,,,,,,,,,,,,,,,,,53,,,,,,,,,,,,,,2658.015000000014,,response,,,,99,,,,,,,Space,keypress(Space),,,,,,,,When -- ----- -- ------ - ------- --- ----------<br>------------- ------ ------ ---- ---- ------- ----- -- ----<br>-------- ------- -- ---------- --- - --- ----- ----- ----<br>---- --- --- ----- --- ---- ---- ------- ----- ---- -------<br>--- --- -- ----- -- --- ---- -- --- ---- -- ------ ------<br>--- ----- -- ----,165295.3999999985,165289.5,162614.811,162617.5,162631.485,165299.325,,0,When
screen,html.Screen,2_1_0_1_1,2022-02-04T12:02:18.091Z,,,,,,,,,,,,,,,,,53,,,,,,,,,,,,,,747.9749999970081,,response,,,,99,,,,,,,Space,keypress(Space),,,,,,,,---- it ----- -- ------ - ------- --- ----------<br>------------- ------ ------ ---- ---- ------- ----- -- ----<br>-------- ------- -- ---------- --- - --- ----- ----- ----<br>---- --- --- ----- --- ---- ---- ------- ----- ---- -------<br>--- --- -- ----- -- --- ---- -- --- ---- -- ------ ------<br>--- ----- -- ----,166050.70000000298,166047.29999999702,165282.651,165295.5,165299.325,166051.916,,1,it
screen,html.Screen,2_1_0_1_2,2022-02-04T12:02:18.682Z,,,,,,,,,,,,,,,,,53,,,,,,,,,,,,,,586.3839999970223,,response,,,,99,,,,,,,Space,keypress(Space),,,,,,,,---- -- comes -- ------ - ------- --- ----------<br>------------- ------ ------ ---- ---- ------- ----- -- ----<br>-------- ------- -- ---------- --- - --- ----- ----- ----<br>---- --- --- ----- --- ---- ---- ------- ----- ---- -------<br>--- --- -- ----- -- --- ---- -- --- ---- -- ------ ------<br>--- ----- -- ----,166641.70000000298,166638.29999999702,166035.242,166050.8999999985,166051.916,166652.18,,2,comes
screen,html.Screen,2_1_0_1_3,2022-02-04T12:02:19.168Z,,,,,,,,,,,,,,,,,53,,,,,,,,,,,,,,472.0200000029872,,response,,,,99,,,,,,,Space,keypress(Space),,,,,,,,---- -- ----- to ------ - ------- --- ----------<br>------------- ------ ------ ---- ---- ------- ----- -- ----<br>-------- ------- -- ---------- --- - --- ----- ----- ----<br>---- --- --- ----- --- ---- ---- ------- ----- ---- -------<br>--- --- -- ----- -- --- ---- -- --- ---- -- ------ ------<br>--- ----- -- ----,167127.70000000298,167124.20000000298,166635.506,166641.8999999985,166652.18,167135.726,,3,to
screen,html.Screen,2_1_0_1_4,2022-02-04T12:02:19.628Z,,,,,,,,,,,,,,,,,53,,,,,,,,,,,,,,448.4740000029851,,response,,,,99,,,,,,,Space,keypress(Space),,,,,,,,---- -- ----- -- having - ------- --- ----------<br>------------- ------ ------ ---- ---- ------- ----- -- ----<br>-------- ------- -- ---------- --- - --- ----- ----- ----<br>---- --- --- ----- --- ---- ---- ------- ----- ---- -------<br>--- --- -- ----- -- --- ---- -- --- ---- -- ------ ------<br>--- ----- -- ----,167587.6000000015,167584.20000000298,167119.052,167127.8999999985,167135.726,167602.598,,4,having
screen,html.Screen,2_1_0_1_5,2022-02-04T12:02:20.024Z,,,,,,,,,,,,,,,,,53,,,,,,,,,,,,,,377.502000001492,,response,,,,99,,,,,,,Space,keypress(Space),,,,,,,,---- -- ----- -- ------ a ------- --- ----------<br>------------- ------ ------ ---- ---- ------- ----- -- ----<br>-------- ------- -- ---------- --- - --- ----- ----- ----<br>---- --- --- ----- --- ---- ---- ------- ----- ---- -------<br>--- --- -- ----- -- --- ---- -- --- ---- -- ------ ------<br>--- ----- -- ----,167983.5,167980.1000000015,167585.924,167587.79999999702,167602.598,167986.1,,5,a
screen,html.Screen,2_1_0_1_6,2022-02-04T12:02:20.504Z,,,,,,,,,,,,,,,,,53,,,,,,,,,,,,,,474.0000000014843,,response,,,,99,,,,,,,Space,keypress(Space),,,,,,,,---- -- ----- -- ------ - lasting --- ----------<br>------------- ------ ------ ---- ---- ------- ----- -- ----<br>-------- ------- -- ---------- --- - --- ----- ----- ----<br>---- --- --- ----- --- ---- ---- ------- ----- ---- -------<br>--- --- -- ----- -- --- ---- -- --- ---- -- ------ ------<br>--- ----- -- ----,168463.29999999702,168460.1000000015,167969.426,167983.79999999702,167986.1,168469.646,,6,lasting
screen,html.Screen,2_1_0_1_7,2022-02-04T12:02:20.932Z,,,,,,,,,,,,,,,,,53,,,,,,,,,,,,,,417.4540000014822,,response,,,,99,,,,,,,Space,keypress(Space),,,,,,,,---- -- ----- -- ------ - ------- and ----------<br>------------- ------ ------ ---- ---- ------- ----- -- ----<br>-------- ------- -- ---------- --- - --- ----- ----- ----<br>---- --- --- ----- --- ---- ---- ------- ----- ---- -------<br>--- --- -- ----- -- --- ---- -- --- ---- -- ------ ------<br>--- ----- -- ----,168890.8999999985,168887.1000000015,168452.972,168463.3999999985,168469.646,168903.17,,7,and
screen,html.Screen,2_1_0_1_8,2022-02-04T12:02:21.383Z,,,,,,,,,,,,,,,,,53,,,,,,,,,,,,,,435.8299999999872,,response,,,,99,,,,,,,Space,keypress(Space),,,,,,,,---- -- ----- -- ------ - ------- --- fulfilling<br>------------- ------ ------ ---- ---- ------- ----- -- ----<br>-------- ------- -- ---------- --- - --- ----- ----- ----<br>---- --- --- ----- --- ---- ---- ------- ----- ---- -------<br>--- --- -- ----- -- --- ---- -- --- ---- -- ------ ------<br>--- ----- -- ----,169342.5,169339,168886.496,168891,168903.17,169353.368,,8,fulfilling
screen,html.Screen,2_1_0_1_9,2022-02-04T12:02:21.902Z,,,,,,,,,,,,,,,,,53,,,,,,,,,,,,,,504.63200000001234,,response,,,,99,,,,,,,Space,keypress(Space),,,,,,,,"---- -- ----- -- ------ - ------- --- ----------<br>relationship, ------ ------ ---- ---- ------- ----- -- ----<br>-------- ------- -- ---------- --- - --- ----- ----- ----<br>---- --- --- ----- --- ---- ---- ------- ----- ---- -------<br>--- --- -- ----- -- --- ---- -- --- ---- -- ------ ------<br>--- ----- -- ----",169861.3999999985,169858,169336.694,169342.6000000015,169353.368,169870.262,,9,"relationship,"
screen,html.Screen,2_1_0_1_10,2022-02-04T12:02:22.417Z,,,,,,,,,,,,,,,,,53,,,,,,,,,,,,,,502.8380000015022,,response,,,,99,,,,,,,Space,keypress(Space),,,,,,,,---- -- ----- -- ------ - ------- --- ----------<br>------------- common ------ ---- ---- ------- ----- -- ----<br>-------- ------- -- ---------- --- - --- ----- ----- ----<br>---- --- --- ----- --- ---- ---- ------- ----- ---- -------<br>--- --- -- ----- -- --- ---- -- --- ---- -- ------ ------<br>--- ----- -- ----,170376.5,170373.1000000015,169853.588,169861.5,169870.262,170387.156,,10,common
screen,html.Screen,2_1_0_1_11,2022-02-04T12:02:22.914Z,,,,,,,,,,,,,,,,,53,,,,,,,,,,,,,,482.74399999852176,,response,,,,99,,,,,,,Space,keypress(Space),,,,,,,,---- -- ----- -- ------ - ------- --- ----------<br>------------- ------ wisdom ---- ---- ------- ----- -- ----<br>-------- ------- -- ---------- --- - --- ----- ----- ----<br>---- --- --- ----- --- ---- ---- ------- ----- ---- -------<br>--- --- -- ----- -- --- ---- -- --- ---- -- ------ ------<br>--- ----- -- ----,170873.3999999985,170869.8999999985,170370.482,170376.6000000015,170387.156,170887.376,,11,wisdom
screen,html.Screen,2_1_0_1_12,2022-02-04T12:02:23.377Z,,,,,,,,,,,,,,,,,53,,,,,,,,,,,,,,445.6240000000107,,response,,,,99,,,,,,,Space,keypress(Space),,,,,,,,---- -- ----- -- ------ - ------- --- ----------<br>------------- ------ ------ says ---- ------- ----- -- ----<br>-------- ------- -- ---------- --- - --- ----- ----- ----<br>---- --- --- ----- --- ---- ---- ------- ----- ---- -------<br>--- --- -- ----- -- --- ---- -- --- ---- -- ------ ------<br>--- ----- -- ----,171336.3999999985,171333,170870.702,170873.6000000015,170887.376,171337.574,,12,says
screen,html.Screen,2_1_0_1_13,2022-02-04T12:02:23.852Z,,,,,,,,,,,,,,,,,53,,,,,,,,,,,,,,470.32599999851664,,response,,,,99,,,,,,,Space,keypress(Space),,,,,,,,---- -- ----- -- ------ - ------- --- ----------<br>------------- ------ ------ ---- that ------- ----- -- ----<br>-------- ------- -- ---------- --- - --- ----- ----- ----<br>---- --- --- ----- --- ---- ---- ------- ----- ---- -------<br>--- --- -- ----- -- --- ---- -- --- ---- -- ------ ------<br>--- ----- -- ----,171811.20000000298,171807.8999999985,171320.9,171336.5,171337.574,171821.12,,13,that
screen,html.Screen,2_1_0_1_14,2022-02-04T12:02:24.463Z,,,,,,,,,,,,,,,,,53,,,,,,,,,,,,,,597.6799999970244,,response,,,,99,,,,,,,Space,keypress(Space),,,,,,,,---- -- ----- -- ------ - ------- --- ----------<br>------------- ------ ------ ---- ---- feeling ----- -- ----<br>-------- ------- -- ---------- --- - --- ----- ----- ----<br>---- --- --- ----- --- ---- ---- ------- ----- ---- -------<br>--- --- -- ----- -- --- ---- -- --- ---- -- ------ ------<br>--- ----- -- ----,172422.1000000015,172418.79999999702,171804.446,171811.3999999985,171821.12,172438.058,,14,feeling
screen,html.Screen,2_1_0_1_15,2022-02-04T12:02:24.990Z,,,,,,,,,,,,,,,,,53,,,,,,,,,,,,,,507.8419999985199,,response,,,,99,,,,,,,Space,keypress(Space),,,,,,,,---- -- ----- -- ------ - ------- --- ----------<br>------------- ------ ------ ---- ---- ------- close -- ----<br>-------- ------- -- ---------- --- - --- ----- ----- ----<br>---- --- --- ----- --- ---- ---- ------- ----- ---- -------<br>--- --- -- ----- -- --- ---- -- --- ---- -- ------ ------<br>--- ----- -- ----,172949.29999999702,172945.8999999985,172421.384,172422.20000000298,172438.058,172954.952,,15,close
screen,html.Screen,2_1_0_1_16,2022-02-04T12:02:25.397Z,,,,,,,,,,,,,,,,,53,,,,,,,,,,,,,,397.84799999702955,,response,,,,99,,,,,,,Space,keypress(Space),,,,,,,,---- -- ----- -- ------ - ------- --- ----------<br>------------- ------ ------ ---- ---- ------- ----- to ----<br>-------- ------- -- ---------- --- - --- ----- ----- ----<br>---- --- --- ----- --- ---- ---- ------- ----- ---- -------<br>--- --- -- ----- -- --- ---- -- --- ---- -- ------ ------<br>--- ----- -- ----,173356.20000000298,173352.79999999702,172938.278,172949.3999999985,172954.952,173371.802,,16,to
screen,html.Screen,2_1_0_1_17,2022-02-04T12:02:25.851Z,,,,,,,,,,,,,,,,,53,,,,,,,,,,,,,,434.9979999970237,,response,,,,99,,,,,,,Space,keypress(Space),,,,,,,,---- -- ----- -- ------ - ------- --- ----------<br>------------- ------ ------ ---- ---- ------- ----- -- your<br>-------- ------- -- ---------- --- - --- ----- ----- ----<br>---- --- --- ----- --- ---- ---- ------- ----- ---- -------<br>--- --- -- ----- -- --- ---- -- --- ---- -- ------ ------<br>--- ----- -- ----,173810.29999999702,173806.79999999702,173355.128,173356.3999999985,173371.802,173814.086,,17,your
screen,html.Screen,2_1_0_1_18,2022-02-04T12:02:26.278Z,,,,,,,,,,,,,,,,,53,,,,,,,,,,,,,,419.61400000297,,response,,,,99,,,,,,,Space,keypress(Space),,,,,,,,---- -- ----- -- ------ - ------- --- ----------<br>------------- ------ ------ ---- ---- ------- ----- -- ----<br>romantic ------- -- ---------- --- - --- ----- ----- ----<br>---- --- --- ----- --- ---- ---- ------- ----- ---- -------<br>--- --- -- ----- -- --- ---- -- --- ---- -- ------ ------<br>--- ----- -- ----,174237.1000000015,174233.70000000298,173797.412,173810.3999999985,173814.086,174247.61,,18,romantic
screen,html.Screen,2_1_0_1_19,2022-02-04T12:02:26.682Z,,,,,,,,,,,,,,,,,53,,,,,,,,,,,,,,390.0900000029942,,response,,,,99,,,,,,,Space,keypress(Space),,,,,,,,---- -- ----- -- ------ - ------- --- ----------<br>------------- ------ ------ ---- ---- ------- ----- -- ----<br>-------- partner -- ---------- --- - --- ----- ----- ----<br>---- --- --- ----- --- ---- ---- ------- ----- ---- -------<br>--- --- -- ----- -- --- ---- -- --- ---- -- ------ ------<br>--- ----- -- ----,174641.1000000015,174637.70000000298,174230.936,174237.1000000015,174247.61,174647.786,,19,partner
screen,html.Screen,2_1_0_1_20,2022-02-04T12:02:27.126Z,,,,,,,,,,,,,,,,,53,,,,,,,,,,,,,,433.91400000298745,,response,,,,99,,,,,,,Space,keypress(Space),,,,,,,,---- -- ----- -- ------ - ------- --- ----------<br>------------- ------ ------ ---- ---- ------- ----- -- ----<br>-------- ------- is ---------- --- - --- ----- ----- ----<br>---- --- --- ----- --- ---- ---- ------- ----- ---- -------<br>--- --- -- ----- -- --- ---- -- --- ---- -- ------ ------<br>--- ----- -- ----,175084.79999999702,175081.70000000298,174631.112,174641.29999999702,174647.786,175097.984,,20,is
screen,html.Screen,2_1_0_1_21,2022-02-04T12:02:27.515Z,,,,,,,,,,,,,,,,,53,,,,,,,,,,,,,,371.7160000029835,,response,,,,99,,,,,,,Space,keypress(Space),,,,,,,,---- -- ----- -- ------ - ------- --- ----------<br>------------- ------ ------ ---- ---- ------- ----- -- ----<br>-------- ------- -- paramount. --- - --- ----- ----- ----<br>---- --- --- ----- --- ---- ---- ------- ----- ---- -------<br>--- --- -- ----- -- --- ---- -- --- ---- -- ------ ------<br>--- ----- -- ----,175473.70000000298,175469.70000000298,175081.31,175084.8999999985,175097.984,175481.486,,21,paramount.
screen,html.Screen,2_1_0_1_22,2022-02-04T12:02:28.071Z,,,,,,,,,,,,,,,,,53,,,,,,,,,,,,,,545.2140000029758,,response,,,,99,,,,,,,Space,keypress(Space),,,,,,,,---- -- ----- -- ------ - ------- --- ----------<br>------------- ------ ------ ---- ---- ------- ----- -- ----<br>-------- ------- -- ---------- But - --- ----- ----- ----<br>---- --- --- ----- --- ---- ---- ------- ----- ---- -------<br>--- --- -- ----- -- --- ---- -- --- ---- -- ------ ------<br>--- ----- -- ----,176030.1000000015,176026.70000000298,175464.812,175473.79999999702,175481.486,176031.728,,22,But
screen,html.Screen,2_1_0_1_23,2022-02-04T12:02:28.519Z,,,,,,,,,,,,,,,,,53,,,,,,,,,,,,,,442.97200000297744,,response,,,,99,,,,,,,Space,keypress(Space),,,,,,,,---- -- ----- -- ------ - ------- --- ----------<br>------------- ------ ------ ---- ---- ------- ----- -- ----<br>-------- ------- -- ---------- --- a --- ----- ----- ----<br>---- --- --- ----- --- ---- ---- ------- ----- ---- -------<br>--- --- -- ----- -- --- ---- -- --- ---- -- ------ ------<br>--- ----- -- ----,176477.8999999985,176474.70000000298,176015.054,176030.29999999702,176031.728,176481.926,,23,a
screen,html.Screen,2_1_0_1_24,2022-02-04T12:02:28.913Z,,,,,,,,,,,,,,,,,53,,,,,,,,,,,,,,386.67400000148336,,response,,,,99,,,,,,,Space,keypress(Space),,,,,,,,---- -- ----- -- ------ - ------- --- ----------<br>------------- ------ ------ ---- ---- ------- ----- -- ----<br>-------- ------- -- ---------- --- - new ----- ----- ----<br>---- --- --- ----- --- ---- ---- ------- ----- ---- -------<br>--- --- -- ----- -- --- ---- -- --- ---- -- ------ ------<br>--- ----- -- ----,176872.1000000015,176868.6000000015,176465.252,176478,176481.926,176882.102,,24,new
screen,html.Screen,2_1_0_1_25,2022-02-04T12:02:29.306Z,,,,,,,,,,,,,,,,,53,,,,,,,,,,,,,,379.5980000029667,,response,,,,99,,,,,,,Space,keypress(Space),,,,,,,,---- -- ----- -- ------ - ------- --- ----------<br>------------- ------ ------ ---- ---- ------- ----- -- ----<br>-------- ------- -- ---------- --- - --- study ----- ----<br>---- --- --- ----- --- ---- ---- ------- ----- ---- -------<br>--- --- -- ----- -- --- ---- -- --- ---- -- ------ ------<br>--- ----- -- ----,177265.20000000298,177261.70000000298,176865.428,176872.29999999702,176882.102,177282.278,,25,study
screen,html.Screen,2_1_0_1_26,2022-02-04T12:02:29.778Z,,,,,,,,,,,,,,,,,53,,,,,,,,,,,,,,451.0219999970286,,response,,,,99,,,,,,,Space,keypress(Space),,,,,,,,---- -- ----- -- ------ - ------- --- ----------<br>------------- ------ ------ ---- ---- ------- ----- -- ----<br>-------- ------- -- ---------- --- - --- ----- finds ----<br>---- --- --- ----- --- ---- ---- ------- ----- ---- -------<br>--- --- -- ----- -- --- ---- -- --- ---- -- ------ ------<br>--- ----- -- ----,177736.70000000298,177733.29999999702,177265.604,177265.20000000298,177282.278,177749.15,,26,finds
screen,html.Screen,2_1_0_1_27,2022-02-04T12:02:30.167Z,,,,,,,,,,,,,,,,,53,,,,,,,,,,,,,,373.45000000149594,,response,,,,99,,,,,,,Space,keypress(Space),,,,,,,,---- -- ----- -- ------ - ------- --- ----------<br>------------- ------ ------ ---- ---- ------- ----- -- ----<br>-------- ------- -- ---------- --- - --- ----- ----- that<br>---- --- --- ----- --- ---- ---- ------- ----- ---- -------<br>--- --- -- ----- -- --- ---- -- --- ---- -- ------ ------<br>--- ----- -- ----,178126,178122.6000000015,177732.476,177736.79999999702,177749.15,178132.652,,27,that
screen,html.Screen,2_1_0_1_28,2022-02-04T12:02:30.590Z,,,,,,,,,,,,,,,,,53,,,,,,,,,,,,,,413.6479999970179,,response,,,,99,,,,,,,Space,keypress(Space),,,,,,,,---- -- ----- -- ------ - ------- --- ----------<br>------------- ------ ------ ---- ---- ------- ----- -- ----<br>-------- ------- -- ---------- --- - --- ----- ----- ----<br>it's --- --- ----- --- ---- ---- ------- ----- ---- -------<br>--- --- -- ----- -- --- ---- -- --- ---- -- ------ ------<br>--- ----- -- ----,178548.79999999702,178546.29999999702,178115.978,178126.20000000298,178132.652,178566.176,,28,it's
screen,html.Screen,2_1_0_1_29,2022-02-04T12:02:31.022Z,,,,,,,,,,,,,,,,,53,,,,,,,,,,,,,,410.22399999850313,,response,,,,99,,,,,,,Space,keypress(Space),,,,,,,,---- -- ----- -- ------ - ------- --- ----------<br>------------- ------ ------ ---- ---- ------- ----- -- ----<br>-------- ------- -- ---------- --- - --- ----- ----- ----<br>---- not --- ----- --- ---- ---- ------- ----- ---- -------<br>--- --- -- ----- -- --- ---- -- --- ---- -- ------ ------<br>--- ----- -- ----,178981.5,178976.3999999985,178549.502,178548.8999999985,178566.176,178999.7,,29,not
screen,html.Screen,2_1_0_1_30,2022-02-04T12:02:31.382Z,,,,,,,,,,,,,,,,,53,,,,,,,,,,,,,,337.79999999998836,,response,,,,99,,,,,,,Space,keypress(Space),,,,,,,,---- -- ----- -- ------ - ------- --- ----------<br>------------- ------ ------ ---- ---- ------- ----- -- ----<br>-------- ------- -- ---------- --- - --- ----- ----- ----<br>---- --- how ----- --- ---- ---- ------- ----- ---- -------<br>--- --- -- ----- -- --- ---- -- --- ---- -- ------ ------<br>--- ----- -- ----,179341,179337.5,178983.026,178981.70000000298,178999.7,179349.854,,30,how
screen,html.Screen,2_1_0_1_31,2022-02-04T12:02:31.836Z,,,,,,,,,,,,,,,,,53,,,,,,,,,,,,,,441.74600000149803,,response,,,,99,,,,,,,Space,keypress(Space),,,,,,,,---- -- ----- -- ------ - ------- --- ----------<br>------------- ------ ------ ---- ---- ------- ----- -- ----<br>-------- ------- -- ---------- --- - --- ----- ----- ----<br>---- --- --- close --- ---- ---- ------- ----- ---- -------<br>--- --- -- ----- -- --- ---- -- --- ---- -- ------ ------<br>--- ----- -- ----,179795,179791.6000000015,179333.18,179341.1000000015,179349.854,179800.052,,31,close
screen,html.Screen,2_1_0_1_32,2022-02-04T12:02:32.217Z,,,,,,,,,,,,,,,,,53,,,,,,,,,,,,,,372.44800000000396,,response,,,,99,,,,,,,Space,keypress(Space),,,,,,,,---- -- ----- -- ------ - ------- --- ----------<br>------------- ------ ------ ---- ---- ------- ----- -- ----<br>-------- ------- -- ---------- --- - --- ----- ----- ----<br>---- --- --- ----- you ---- ---- ------- ----- ---- -------<br>--- --- -- ----- -- --- ---- -- --- ---- -- ------ ------<br>--- ----- -- ----,180176,180172.5,179783.378,179795.1000000015,179800.052,180183.554,,32,you
screen,html.Screen,2_1_0_1_33,2022-02-04T12:02:32.563Z,,,,,,,,,,,,,,,,,53,,,,,,,,,,,,,,334.9459999999963,,response,,,,99,,,,,,,Space,keypress(Space),,,,,,,,---- -- ----- -- ------ - ------- --- ----------<br>------------- ------ ------ ---- ---- ------- ----- -- ----<br>-------- ------- -- ---------- --- - --- ----- ----- ----<br>---- --- --- ----- --- feel ---- ------- ----- ---- -------<br>--- --- -- ----- -- --- ---- -- --- ---- -- ------ ------<br>--- ----- -- ----,180522.1000000015,180518.5,180166.88,180176.1000000015,180183.554,180533.708,,33,feel
screen,html.Screen,2_1_0_1_34,2022-02-04T12:02:32.947Z,,,,,,,,,,,,,,,,,53,,,,,,,,,,,,,,368.79199999998673,,response,,,,99,,,,,,,Space,keypress(Space),,,,,,,,---- -- ----- -- ------ - ------- --- ----------<br>------------- ------ ------ ---- ---- ------- ----- -- ----<br>-------- ------- -- ---------- --- - --- ----- ----- ----<br>---- --- --- ----- --- ---- that ------- ----- ---- -------<br>--- --- -- ----- -- --- ---- -- --- ---- -- ------ ------<br>--- ----- -- ----,180905.8999999985,180902.5,180517.034,180522.29999999702,180533.708,180917.21,,34,that
screen,html.Screen,2_1_0_1_35,2022-02-04T12:02:33.332Z,,,,,,,,,,,,,,,,,53,,,,,,,,,,,,,,369.9900000029884,,response,,,,99,,,,,,,Space,keypress(Space),,,,,,,,---- -- ----- -- ------ - ------- --- ----------<br>------------- ------ ------ ---- ---- ------- ----- -- ----<br>-------- ------- -- ---------- --- - --- ----- ----- ----<br>---- --- --- ----- --- ---- ---- matters ----- ---- -------<br>--- --- -- ----- -- --- ---- -- --- ---- -- ------ ------<br>--- ----- -- ----,181291.20000000298,181287.20000000298,180900.536,180906.1000000015,180917.21,181300.712,,35,matters
screen,html.Screen,2_1_0_1_36,2022-02-04T12:02:33.722Z,,,,,,,,,,,,,,,,,53,,,,,,,,,,,,,,376.68799999851035,,response,,,,99,,,,,,,Space,keypress(Space),,,,,,,,"---- -- ----- -- ------ - ------- --- ----------<br>------------- ------ ------ ---- ---- ------- ----- -- ----<br>-------- ------- -- ---------- --- - --- ----- ----- ----<br>---- --- --- ----- --- ---- ---- ------- most, ---- -------<br>--- --- -- ----- -- --- ---- -- --- ---- -- ------ ------<br>--- ----- -- ----",181680.6000000015,181677.3999999985,181284.038,181291.3999999985,181300.712,181684.214,,36,"most,"
screen,html.Screen,2_1_0_1_37,2022-02-04T12:02:34.168Z,,,,,,,,,,,,,,,,,53,,,,,,,,,,,,,,439.18599999850267,,response,,,,99,,,,,,,Space,keypress(Space),,,,,,,,---- -- ----- -- ------ - ------- --- ----------<br>------------- ------ ------ ---- ---- ------- ----- -- ----<br>-------- ------- -- ---------- --- - --- ----- ----- ----<br>---- --- --- ----- --- ---- ---- ------- ----- it's -------<br>--- --- -- ----- -- --- ---- -- --- ---- -- ------ ------<br>--- ----- -- ----,182126.70000000298,182123.3999999985,181667.54,181680.70000000298,181684.214,182134.412,,37,it's
screen,html.Screen,2_1_0_1_38,2022-02-04T12:02:34.626Z,,,,,,,,,,,,,,,,,53,,,,,,,,,,,,,,446.9879999984987,,response,,,,99,,,,,,,Space,keypress(Space),,,,,,,,---- -- ----- -- ------ - ------- --- ----------<br>------------- ------ ------ ---- ---- ------- ----- -- ----<br>-------- ------- -- ---------- --- - --- ----- ----- ----<br>---- --- --- ----- --- ---- ---- ------- ----- ---- whether<br>--- --- -- ----- -- --- ---- -- --- ---- -- ------ ------<br>--- ----- -- ----,182584.79999999702,182581.3999999985,182117.738,182126.79999999702,182134.412,182601.284,,38,whether
screen,html.Screen,2_1_0_1_39,2022-02-04T12:02:35.005Z,,,,,,,,,,,,,,,,,53,,,,,,,,,,,,,,359.1159999984957,,response,,,,99,,,,,,,Space,keypress(Space),,,,,,,,---- -- ----- -- ------ - ------- --- ----------<br>------------- ------ ------ ---- ---- ------- ----- -- ----<br>-------- ------- -- ---------- --- - --- ----- ----- ----<br>---- --- --- ----- --- ---- ---- ------- ----- ---- -------<br>you --- -- ----- -- --- ---- -- --- ---- -- ------ ------<br>--- ----- -- ----,182963.70000000298,182960.3999999985,182584.61,182584.8999999985,182601.284,182968.112,,39,you
screen,html.Screen,2_1_0_1_40,2022-02-04T12:02:35.406Z,,,,,,,,,,,,,,,,,53,,,,,,,,,,,,,,394.0880000029865,,response,,,,99,,,,,,,Space,keypress(Space),,,,,,,,---- -- ----- -- ------ - ------- --- ----------<br>------------- ------ ------ ---- ---- ------- ----- -- ----<br>-------- ------- -- ---------- --- - --- ----- ----- ----<br>---- --- --- ----- --- ---- ---- ------- ----- ---- -------<br>--- are -- ----- -- --- ---- -- --- ---- -- ------ ------<br>--- ----- -- ----,183365.3999999985,183362.20000000298,182951.438,182963.8999999985,182968.112,183368.288,,40,are
screen,html.Screen,2_1_0_1_41,2022-02-04T12:02:35.800Z,,,,,,,,,,,,,,,,,53,,,,,,,,,,,,,,383.0119999970193,,response,,,,99,,,,,,,Space,keypress(Space),,,,,,,,---- -- ----- -- ------ - ------- --- ----------<br>------------- ------ ------ ---- ---- ------- ----- -- ----<br>-------- ------- -- ---------- --- - --- ----- ----- ----<br>---- --- --- ----- --- ---- ---- ------- ----- ---- -------<br>--- --- as ----- -- --- ---- -- --- ---- -- ------ ------<br>--- ----- -- ----,183759.5,183751.29999999702,183351.614,183365.5,183368.288,183761.305,,41,as
screen,html.Screen,2_1_0_1_42,2022-02-04T12:02:36.209Z,,,,,,,,,,,,,,,,,53,,,,,,,,,,,,,,402.99499999702675,,response,,,,99,,,,,,,Space,keypress(Space),,,,,,,,---- -- ----- -- ------ - ------- --- ----------<br>------------- ------ ------ ---- ---- ------- ----- -- ----<br>-------- ------- -- ---------- --- - --- ----- ----- ----<br>---- --- --- ----- --- ---- ---- ------- ----- ---- -------<br>--- --- -- close -- --- ---- -- --- ---- -- ------ ------<br>--- ----- -- ----,184167.70000000298,184164.29999999702,183744.631,183759.6000000015,183761.305,184178.155,,42,close
screen,html.Screen,2_1_0_1_43,2022-02-04T12:02:36.585Z,,,,,,,,,,,,,,,,,53,,,,,,,,,,,,,,362.14499999702093,,response,,,,99,,,,,,,Space,keypress(Space),,,,,,,,---- -- ----- -- ------ - ------- --- ----------<br>------------- ------ ------ ---- ---- ------- ----- -- ----<br>-------- ------- -- ---------- --- - --- ----- ----- ----<br>---- --- --- ----- --- ---- ---- ------- ----- ---- -------<br>--- --- -- ----- as --- ---- -- --- ---- -- ------ ------<br>--- ----- -- ----,184543.6000000015,184540.29999999702,184161.481,184167.8999999985,184178.155,184544.983,,43,as
screen,html.Screen,2_1_0_1_44,2022-02-04T12:02:37.016Z,,,,,,,,,,,,,,,,,53,,,,,,,,,,,,,,426.3169999970123,,response,,,,99,,,,,,,Space,keypress(Space),,,,,,,,---- -- ----- -- ------ - ------- --- ----------<br>------------- ------ ------ ---- ---- ------- ----- -- ----<br>-------- ------- -- ---------- --- - --- ----- ----- ----<br>---- --- --- ----- --- ---- ---- ------- ----- ---- -------<br>--- --- -- ----- -- you ---- -- --- ---- -- ------ ------<br>--- ----- -- ----,184974.8999999985,184971.29999999702,184528.309,184543.70000000298,184544.983,184978.507,,44,you
screen,html.Screen,2_1_0_1_45,2022-02-04T12:02:37.400Z,,,,,,,,,,,,,,,,,53,,,,,,,,,,,,,,377.5930000014778,,response,,,,99,,,,,,,Space,keypress(Space),,,,,,,,---- -- ----- -- ------ - ------- --- ----------<br>------------- ------ ------ ---- ---- ------- ----- -- ----<br>-------- ------- -- ---------- --- - --- ----- ----- ----<br>---- --- --- ----- --- ---- ---- ------- ----- ---- -------<br>--- --- -- ----- -- --- want -- --- ---- -- ------ ------<br>--- ----- -- ----,185359.5,185356.1000000015,184961.833,184975,184978.507,185362.009,,45,want
screen,html.Screen,2_1_0_1_46,2022-02-04T12:02:37.807Z,,,,,,,,,,,,,,,,,53,,,,,,,,,,,,,,400.1910000029893,,response,,,,99,,,,,,,Space,keypress(Space),,,,,,,,---- -- ----- -- ------ - ------- --- ----------<br>------------- ------ ------ ---- ---- ------- ----- -- ----<br>-------- ------- -- ---------- --- - --- ----- ----- ----<br>---- --- --- ----- --- ---- ---- ------- ----- ---- -------<br>--- --- -- ----- -- --- ---- to --- ---- -- ------ ------<br>--- ----- -- ----,185766.20000000298,185762.20000000298,185345.335,185359.6000000015,185362.009,185778.859,,46,to
screen,html.Screen,2_1_0_1_47,2022-02-04T12:02:38.205Z,,,,,,,,,,,,,,,,,53,,,,,,,,,,,,,,381.2410000014934,,response,,,,99,,,,,,,Space,keypress(Space),,,,,,,,"---- -- ----- -- ------ - ------- --- ----------<br>------------- ------ ------ ---- ---- ------- ----- -- ----<br>-------- ------- -- ---------- --- - --- ----- ----- ----<br>---- --- --- ----- --- ---- ---- ------- ----- ---- -------<br>--- --- -- ----- -- --- ---- -- be, ---- -- ------ ------<br>--- ----- -- ----",186164,186160.1000000015,185762.185,185766.29999999702,185778.859,186179.035,,47,"be,"
screen,html.Screen,2_1_0_1_48,2022-02-04T12:02:38.557Z,,,,,,,,,,,,,,,,,53,,,,,,,,,,,,,,333.9649999999965,,response,,,,99,,,,,,,Space,keypress(Space),,,,,,,,---- -- ----- -- ------ - ------- --- ----------<br>------------- ------ ------ ---- ---- ------- ----- -- ----<br>-------- ------- -- ---------- --- - --- ----- ----- ----<br>---- --- --- ----- --- ---- ---- ------- ----- ---- -------<br>--- --- -- ----- -- --- ---- -- --- even -- ------ ------<br>--- ----- -- ----,186516.3999999985,186513,186162.361,186164.20000000298,186179.035,186529.189,,48,even
screen,html.Screen,2_1_0_1_49,2022-02-04T12:02:38.950Z,,,,,,,,,,,,,,,,,53,,,,,,,,,,,,,,376.0110000029672,,response,,,,99,,,,,,,Space,keypress(Space),,,,,,,,---- -- ----- -- ------ - ------- --- ----------<br>------------- ------ ------ ---- ---- ------- ----- -- ----<br>-------- ------- -- ---------- --- - --- ----- ----- ----<br>---- --- --- ----- --- ---- ---- ------- ----- ---- -------<br>--- --- -- ----- -- --- ---- -- --- ---- if ------ ------<br>--- ----- -- ----,186908.6000000015,186905.20000000298,186512.515,186516.6000000015,186529.189,186912.691,,49,if
screen,html.Screen,2_1_0_1_50,2022-02-04T12:02:39.363Z,,,,,,,,,,,,,,,,,53,,,,,,,,,,,,,,406.20899999851827,,response,,,,99,,,,,,,Space,keypress(Space),,,,,,,,---- -- ----- -- ------ - ------- --- ----------<br>------------- ------ ------ ---- ---- ------- ----- -- ----<br>-------- ------- -- ---------- --- - --- ----- ----- ----<br>---- --- --- ----- --- ---- ---- ------- ----- ---- -------<br>--- --- -- ----- -- --- ---- -- --- ---- -- that's ------<br>--- ----- -- ----,187322.29999999702,187318.8999999985,186896.017,186908.70000000298,186912.691,187329.541,,50,that's
screen,html.Screen,2_1_0_1_51,2022-02-04T12:02:39.962Z,,,,,,,,,,,,,,,,,53,,,,,,,,,,,,,,587.4590000000026,,response,,,,99,,,,,,,Space,keypress(Space),,,,,,,,---- -- ----- -- ------ - ------- --- ----------<br>------------- ------ ------ ---- ---- ------- ----- -- ----<br>-------- ------- -- ---------- --- - --- ----- ----- ----<br>---- --- --- ----- --- ---- ---- ------- ----- ---- -------<br>--- --- -- ----- -- --- ---- -- --- ---- -- ------ really<br>--- ----- -- ----,187920.6000000015,187917,187312.867,187322.3999999985,187329.541,187929.805,,51,really
screen,html.Screen,2_1_0_1_52,2022-02-04T12:02:40.425Z,,,,,,,,,,,,,,,,,53,,,,,,,,,,,,,,451.195000000007,,response,,,,99,,,,,,,Space,keypress(Space),,,,,,,,---- -- ----- -- ------ - ------- --- ----------<br>------------- ------ ------ ---- ---- ------- ----- -- ----<br>-------- ------- -- ---------- --- - --- ----- ----- ----<br>---- --- --- ----- --- ---- ---- ------- ----- ---- -------<br>--- --- -- ----- -- --- ---- -- --- ---- -- ------ ------<br>not ----- -- ----,188384.29999999702,188381,187913.131,187920.70000000298,187929.805,188396.677,,52,not
screen,html.Screen,2_1_0_1_53,2022-02-04T12:02:40.942Z,,,,,,,,,,,,,,,,,53,,,,,,,,,,,,,,500.22299999851384,,response,,,,99,,,,,,,Space,keypress(Space),,,,,,,,---- -- ----- -- ------ - ------- --- ----------<br>------------- ------ ------ ---- ---- ------- ----- -- ----<br>-------- ------- -- ---------- --- - --- ----- ----- ----<br>---- --- --- ----- --- ---- ---- ------- ----- ---- -------<br>--- --- -- ----- -- --- ---- -- --- ---- -- ------ ------<br>--- close -- ----,188900.5,188896.8999999985,188380.003,188384.3999999985,188396.677,188913.571,,53,close
screen,html.Screen,2_1_0_1_54,2022-02-04T12:02:41.367Z,,,,,,,,,,,,,,,,,53,,,,,,,,,,,,,,409.2289999970235,,response,,,,99,,,,,,,Space,keypress(Space),,,,,,,,---- -- ----- -- ------ - ------- --- ----------<br>------------- ------ ------ ---- ---- ------- ----- -- ----<br>-------- ------- -- ---------- --- - --- ----- ----- ----<br>---- --- --- ----- --- ---- ---- ------- ----- ---- -------<br>--- --- -- ----- -- --- ---- -- --- ---- -- ------ ------<br>--- ----- at ----,189326.20000000298,189322.79999999702,188896.897,188900.6000000015,188913.571,189330.421,,54,at
screen,html.Screen,2_1_0_1_55,2022-02-04T12:02:42.485Z,,,,,,,,,,,,,,,,,53,,,,,,,,,,,,,,1111.179000001488,,response,,,,99,,,,,,,Space,keypress(Space),,,,,,,,---- -- ----- -- ------ - ------- --- ----------<br>------------- ------ ------ ---- ---- ------- ----- -- ----<br>-------- ------- -- ---------- --- - --- ----- ----- ----<br>---- --- --- ----- --- ---- ---- ------- ----- ---- -------<br>--- --- -- ----- -- --- ---- -- --- ---- -- ------ ------<br>--- ----- -- all.,190444.29999999702,190441.6000000015,189313.747,189326.3999999985,189330.421,190464.253,,55,all.
Item 99,flow.Loop,2_1_0_1,2022-02-04T12:02:42.486Z,,,,,,,,,,,,,,,,,,,,,,,,,,,,,,,27810.115000001504,,completion,,,,,C,,,,,,,,,,,silence,,,,,190444.5,190441.6000000015,162614.811,162617.3999999985,162631.485,190464.253,,,
Question 1,html.Screen,2_1_0_2,2022-02-04T12:02:46.903Z,,,,,,,,,,,,,,,,,,,,,,,,,,,,true,FALSE,,4379.247000000003,,response,,,,99,C,,,,,,FALSE,click #choice-2,,,,silence,,,,,194861.29999999702,194843.5,190447.579,190444.5,190464.253,194865.422,,,
Question 2,html.Screen,2_1_0_3,2022-02-04T12:02:50.669Z,,,,,,,,,,,,,,,,,,,,,,,,,,,,true,TRUE,,3738.6780000014987,,response,,,,99,C,,,,,,TRUE,click #choice-1,,,,silence,,,,,198627.6000000015,198604.1000000015,194848.748,194861.29999999702,194865.422,198633.746,,,
Item 99,flow.Sequence,2_1_0,2022-02-04T12:02:50.669Z,,,,,,,,,,,,,,,,,,,,,,,,,,,,,,,45980.32300000149,,completion,,,,,,,,,,,,,,,,,,,,,198628.1000000015,198604.1000000015,152607.103,152624.3999999985,152623.777,198633.746,,,
Holding screen,html.Screen,2_1_1_0,2022-02-04T12:03:00.659Z,,,,,,,,,,,,,,,,,,,,,,,,,,,,,,,9998.32699999999,,timeout,,,,,,,,,,,,,,,,,,,,,208617.5,208615.399,198617.072,198628.20000000298,198633.746,208632.073,,,
screen,html.Screen,2_1_1_1_0,2022-02-04T12:03:01.936Z,,,,,,,,,,,,,,,,,54,,,,,,,,,,,,,,1258.0270000014862,,response,,,,100,,,,,,,Space,keypress(Space),,,,,,,,At --- ---- --- ------ ----- ------- ---- -- --- ------- --<br>------- ---------- ------ -- ----- -- ----- -- ---- ------<br>--- ----- --- --- ------ -------- ----- --- ------ ----- --<br>----- ----- ---------- --- --- ------ ------ ---- -- ------<br>------- --- ------ ----- --- ---- ------- -- ---- --- --<br>------- ------,209894.29999999702,209890.1000000015,208615.399,208617.70000000298,208632.073,209899.297,,0,At
screen,html.Screen,2_1_1_1_1,2022-02-04T12:03:02.575Z,,,,,,,,,,,,,,,,,54,,,,,,,,,,,,,,630.7030000000086,,response,,,,100,,,,,,,Space,keypress(Space),,,,,,,,-- the ---- --- ------ ----- ------- ---- -- --- ------- --<br>------- ---------- ------ -- ----- -- ----- -- ---- ------<br>--- ----- --- --- ------ -------- ----- --- ------ ----- --<br>----- ----- ---------- --- --- ------ ------ ---- -- ------<br>------- --- ------ ----- --- ---- ------- -- ---- --- --<br>------- ------,210533.3999999985,210530,209882.623,209894.3999999985,209899.297,210549.583,,1,the
screen,html.Screen,2_1_1_1_2,2022-02-04T12:03:03.087Z,,,,,,,,,,,,,,,,,54,,,,,,,,,,,,,,492.3169999984966,,response,,,,100,,,,,,,Space,keypress(Space),,,,,,,,-- --- time --- ------ ----- ------- ---- -- --- ------- --<br>------- ---------- ------ -- ----- -- ----- -- ---- ------<br>--- ----- --- --- ------ -------- ----- --- ------ ----- --<br>----- ----- ---------- --- --- ------ ------ ---- -- ------<br>------- --- ------ ----- --- ---- ------- -- ---- --- --<br>------- ------,211045.6000000015,211041.8999999985,210532.909,210533.5,210549.583,211049.803,,2,time
screen,html.Screen,2_1_1_1_3,2022-02-04T12:03:03.713Z,,,,,,,,,,,,,,,,,54,,,,,,,,,,,,,,617.9969999970053,,response,,,,100,,,,,,,Space,keypress(Space),,,,,,,,-- --- ---- the ------ ----- ------- ---- -- --- ------- --<br>------- ---------- ------ -- ----- -- ----- -- ---- ------<br>--- ----- --- --- ------ -------- ----- --- ------ ----- --<br>----- ----- ---------- --- --- ------ ------ ---- -- ------<br>------- --- ------ ----- --- ---- ------- -- ---- --- --<br>------- ------,211671.20000000298,211667.79999999702,211033.129,211045.79999999702,211049.803,211683.415,,3,the
screen,html.Screen,2_1_1_1_4,2022-02-04T12:03:04.255Z,,,,,,,,,,,,,,,,,54,,,,,,,,,,,,,,526.4849999985017,,response,,,,100,,,,,,,Space,keypress(Space),,,,,,,,-- --- ---- --- French ----- ------- ---- -- --- ------- --<br>------- ---------- ------ -- ----- -- ----- -- ---- ------<br>--- ----- --- --- ------ -------- ----- --- ------ ----- --<br>----- ----- ---------- --- --- ------ ------ ---- -- ------<br>------- --- ------ ----- --- ---- ------- -- ---- --- --<br>------- ------,212213.29999999702,212209.8999999985,211666.741,211671.3999999985,211683.415,212216.983,,4,French
screen,html.Screen,2_1_1_1_5,2022-02-04T12:03:04.769Z,,,,,,,,,,,,,,,,,54,,,,,,,,,,,,,,506.01699999999255,,response,,,,100,,,,,,,Space,keypress(Space),,,,,,,,-- --- ---- --- ------ crown ------- ---- -- --- ------- --<br>------- ---------- ------ -- ----- -- ----- -- ---- ------<br>--- ----- --- --- ------ -------- ----- --- ------ ----- --<br>----- ----- ---------- --- --- ------ ------ ---- -- ------<br>------- --- ------ ----- --- ---- ------- -- ---- --- --<br>------- ------,212726.8999999985,212723,212200.309,212213.5,212216.983,212733.877,,5,crown
screen,html.Screen,2_1_1_1_6,2022-02-04T12:03:05.392Z,,,,,,,,,,,,,,,,,54,,,,,,,,,,,,,,613.0229999985022,,response,,,,100,,,,,,,Space,keypress(Space),,,,,,,,-- --- ---- --- ------ ----- secured ---- -- --- ------- --<br>------- ---------- ------ -- ----- -- ----- -- ---- ------<br>--- ----- --- --- ------ -------- ----- --- ------ ----- --<br>----- ----- ---------- --- --- ------ ------ ---- -- ------<br>------- --- ------ ----- --- ---- ------- -- ---- --- --<br>------- ------,213350.20000000298,213346.8999999985,212717.203,212727,212733.877,213367.489,,6,secured
screen,html.Screen,2_1_1_1_7,2022-02-04T12:03:05.831Z,,,,,,,,,,,,,,,,,54,,,,,,,,,,,,,,419.31099999701837,,response,,,,100,,,,,,,Space,keypress(Space),,,,,,,,-- --- ---- --- ------ ----- ------- much -- --- ------- --<br>------- ---------- ------ -- ----- -- ----- -- ---- ------<br>--- ----- --- --- ------ -------- ----- --- ------ ----- --<br>----- ----- ---------- --- --- ------ ------ ---- -- ------<br>------- --- ------ ----- --- ---- ------- -- ---- --- --<br>------- ------,213789.79999999702,213786.79999999702,213350.815,213350.3999999985,213367.489,213801.013,,7,much
screen,html.Screen,2_1_1_1_8,2022-02-04T12:03:06.245Z,,,,,,,,,,,,,,,,,54,,,,,,,,,,,,,,398.7869999970135,,response,,,,100,,,,,,,Space,keypress(Space),,,,,,,,-- --- ---- --- ------ ----- ------- ---- of --- ------- --<br>------- ---------- ------ -- ----- -- ----- -- ---- ------<br>--- ----- --- --- ------ -------- ----- --- ------ ----- --<br>----- ----- ---------- --- --- ------ ------ ---- -- ------<br>------- --- ------ ----- --- ---- ------- -- ---- --- --<br>------- ------,214203.20000000298,214199.79999999702,213784.339,213789.8999999985,213801.013,214217.863,,8,of
screen,html.Screen,2_1_1_1_9,2022-02-04T12:03:06.701Z,,,,,,,,,,,,,,,,,54,,,,,,,,,,,,,,437.8370000029681,,response,,,,100,,,,,,,Space,keypress(Space),,,,,,,,-- --- ---- --- ------ ----- ------- ---- -- its ------- --<br>------- ---------- ------ -- ----- -- ----- -- ---- ------<br>--- ----- --- --- ------ -------- ----- --- ------ ----- --<br>----- ----- ---------- --- --- ------ ------ ---- -- ------<br>------- --- ------ ----- --- ---- ------- -- ---- --- --<br>------- ------,214658.8999999985,214655.70000000298,214201.189,214203.29999999702,214217.863,214666.893,,9,its
screen,html.Screen,2_1_1_1_10,2022-02-04T12:03:07.157Z,,,,,,,,,,,,,,,,,54,,,,,,,,,,,,,,444.9069999970088,,response,,,,100,,,,,,,Space,keypress(Space),,,,,,,,-- --- ---- --- ------ ----- ------- ---- -- --- revenue --<br>------- ---------- ------ -- ----- -- ----- -- ---- ------<br>--- ----- --- --- ------ -------- ----- --- ------ ----- --<br>----- ----- ---------- --- --- ------ ------ ---- -- ------<br>------- --- ------ ----- --- ---- ------- -- ---- --- --<br>------- ------,215115.20000000298,215111.79999999702,214650.219,214659.1000000015,214666.893,215117.091,,10,revenue
screen,html.Screen,2_1_1_1_11,2022-02-04T12:03:07.714Z,,,,,,,,,,,,,,,,,54,,,,,,,,,,,,,,551.6090000029944,,response,,,,100,,,,,,,Space,keypress(Space),,,,,,,,-- --- ---- --- ------ ----- ------- ---- -- --- ------- by<br>------- ---------- ------ -- ----- -- ----- -- ---- ------<br>--- ----- --- --- ------ -------- ----- --- ------ ----- --<br>----- ----- ---------- --- --- ------ ------ ---- -- ------<br>------- --- ------ ----- --- ---- ------- -- ---- --- --<br>------- ------,215672.1000000015,215668.70000000298,215100.417,215115.29999999702,215117.091,215684.007,,11,by
screen,html.Screen,2_1_1_1_12,2022-02-04T12:03:08.500Z,,,,,,,,,,,,,,,,,54,,,,,,,,,,,,,,770.6930000029679,,response,,,,100,,,,,,,Space,keypress(Space),,,,,,,,-- --- ---- --- ------ ----- ------- ---- -- --- ------- --<br>issuing ---------- ------ -- ----- -- ----- -- ---- ------<br>--- ----- --- --- ------ -------- ----- --- ------ ----- --<br>----- ----- ---------- --- --- ------ ------ ---- -- ------<br>------- --- ------ ----- --- ---- ------- -- ---- --- --<br>------- ------,216457.8999999985,216454.70000000298,215667.333,215672.29999999702,215684.007,216467.685,,12,issuing
screen,html.Screen,2_1_1_1_13,2022-02-04T12:03:09.005Z,,,,,,,,,,,,,,,,,54,,,,,,,,,,,,,,492.8150000000023,,response,,,,100,,,,,,,Space,keypress(Space),,,,,,,,-- --- ---- --- ------ ----- ------- ---- -- --- ------- --<br>------- government ------ -- ----- -- ----- -- ---- ------<br>--- ----- --- --- ------ -------- ----- --- ------ ----- --<br>----- ----- ---------- --- --- ------ ------ ---- -- ------<br>------- --- ------ ----- --- ---- ------- -- ---- --- --<br>------- ------,216963.6000000015,216960.5,216451.011,216458,216467.685,216967.905,,13,government
screen,html.Screen,2_1_1_1_14,2022-02-04T12:03:09.468Z,,,,,,,,,,,,,,,,,54,,,,,,,,,,,,,,454.6950000014913,,response,,,,100,,,,,,,Space,keypress(Space),,,,,,,,-- --- ---- --- ------ ----- ------- ---- -- --- ------- --<br>------- ---------- bonds. -- ----- -- ----- -- ---- ------<br>--- ----- --- --- ------ -------- ----- --- ------ ----- --<br>----- ----- ---------- --- --- ------ ------ ---- -- ------<br>------- --- ------ ----- --- ---- ------- -- ---- --- --<br>------- ------,217426.1000000015,217422.6000000015,216951.231,216963.79999999702,216967.905,217434.777,,14,bonds.
screen,html.Screen,2_1_1_1_15,2022-02-04T12:03:10.406Z,,,,,,,,,,,,,,,,,54,,,,,,,,,,,,,,925.7229999999981,,response,,,,100,,,,,,,Space,keypress(Space),,,,,,,,-- --- ---- --- ------ ----- ------- ---- -- --- ------- --<br>------- ---------- ------ In ----- -- ----- -- ---- ------<br>--- ----- --- --- ------ -------- ----- --- ------ ----- --<br>----- ----- ---------- --- --- ------ ------ ---- -- ------<br>------- --- ------ ----- --- ---- ------- -- ---- --- --<br>------- ------,218363.8999999985,218360.5,217418.103,217426.20000000298,217434.777,218368.521,,15,In
screen,html.Screen,2_1_1_1_16,2022-02-04T12:03:11.701Z,,,,,,,,,,,,,,,,,54,,,,,,,,,,,,,,1286.878999998502,,response,,,,100,,,,,,,Space,keypress(Space),,,,,,,,"-- --- ---- --- ------ ----- ------- ---- -- --- ------- --<br>------- ---------- ------ -- 1727, -- ----- -- ---- ------<br>--- ----- --- --- ------ -------- ----- --- ------ ----- --<br>----- ----- ---------- --- --- ------ ------ ---- -- ------<br>------- --- ------ ----- --- ---- ------- -- ---- --- --<br>------- ------",219658.8999999985,219655.3999999985,218351.847,218363.8999999985,218368.521,219669.093,,16,"1727,"
screen,html.Screen,2_1_1_1_17,2022-02-04T12:03:12.128Z,,,,,,,,,,,,,,,,,54,,,,,,,,,,,,,,413.4070000000065,,response,,,,100,,,,,,,Space,keypress(Space),,,,,,,,-- --- ---- --- ------ ----- ------- ---- -- --- ------- --<br>------- ---------- ------ -- ----- in ----- -- ---- ------<br>--- ----- --- --- ------ -------- ----- --- ------ ----- --<br>----- ----- ---------- --- --- ------ ------ ---- -- ------<br>------- --- ------ ----- --- ---- ------- -- ---- --- --<br>------- ------,220086.29999999702,220082.5,219652.419,219660.5,219669.093,220102.617,,17,in
screen,html.Screen,2_1_1_1_18,2022-02-04T12:03:12.604Z,,,,,,,,,,,,,,,,,54,,,,,,,,,,,,,,455.7829999985115,,response,,,,100,,,,,,,Space,keypress(Space),,,,,,,,-- --- ---- --- ------ ----- ------- ---- -- --- ------- --<br>------- ---------- ------ -- ----- -- order -- ---- ------<br>--- ----- --- --- ------ -------- ----- --- ------ ----- --<br>----- ----- ---------- --- --- ------ ------ ---- -- ------<br>------- --- ------ ----- --- ---- ------- -- ---- --- --<br>------- ------,220561.8999999985,220558.3999999985,220085.943,220086.3999999985,220102.617,220569.489,,18,order
screen,html.Screen,2_1_1_1_19,2022-02-04T12:03:13.044Z,,,,,,,,,,,,,,,,,54,,,,,,,,,,,,,,428.9109999985085,,response,,,,100,,,,,,,Space,keypress(Space),,,,,,,,-- --- ---- --- ------ ----- ------- ---- -- --- ------- --<br>------- ---------- ------ -- ----- -- ----- to ---- ------<br>--- ----- --- --- ------ -------- ----- --- ------ ----- --<br>----- ----- ---------- --- --- ------ ------ ---- -- ------<br>------- --- ------ ----- --- ---- ------- -- ---- --- --<br>------- ------,221001.79999999702,220998.3999999985,220552.815,220562,220569.489,221019.687,,19,to
screen,html.Screen,2_1_1_1_20,2022-02-04T12:03:13.512Z,,,,,,,,,,,,,,,,,54,,,,,,,,,,,,,,446.71299999850453,,response,,,,100,,,,,,,Space,keypress(Space),,,,,,,,-- --- ---- --- ------ ----- ------- ---- -- --- ------- --<br>------- ---------- ------ -- ----- -- ----- -- save ------<br>--- ----- --- --- ------ -------- ----- --- ------ ----- --<br>----- ----- ---------- --- --- ------ ------ ---- -- ------<br>------- --- ------ ----- --- ---- ------- -- ---- --- --<br>------- ------,221469.79999999702,221466.3999999985,221003.013,221002,221019.687,221486.559,,20,save
screen,html.Screen,2_1_1_1_21,2022-02-04T12:03:14.077Z,,,,,,,,,,,,,,,,,54,,,,,,,,,,,,,,544.7409999970114,,response,,,,100,,,,,,,Space,keypress(Space),,,,,,,,"-- --- ---- --- ------ ----- ------- ---- -- --- ------- --<br>------- ---------- ------ -- ----- -- ----- -- ---- money,<br>--- ----- --- --- ------ -------- ----- --- ------ ----- --<br>----- ----- ---------- --- --- ------ ------ ---- -- ------<br>------- --- ------ ----- --- ---- ------- -- ---- --- --<br>------- ------",222034.79999999702,222031.29999999702,221469.885,221470,221486.559,222036.801,,21,"money,"
screen,html.Screen,2_1_1_1_22,2022-02-04T12:03:14.682Z,,,,,,,,,,,,,,,,,54,,,,,,,,,,,,,,600.498999997013,,response,,,,100,,,,,,,Space,keypress(Space),,,,,,,,-- --- ---- --- ------ ----- ------- ---- -- --- ------- --<br>------- ---------- ------ -- ----- -- ----- -- ---- ------<br>the ----- --- --- ------ -------- ----- --- ------ ----- --<br>----- ----- ---------- --- --- ------ ------ ---- -- ------<br>------- --- ------ ----- --- ---- ------- -- ---- --- --<br>------- ------,222640.6000000015,222637.29999999702,222020.127,222034.8999999985,222036.801,222653.739,,22,the
screen,html.Screen,2_1_1_1_23,2022-02-04T12:03:15.190Z,,,,,,,,,,,,,,,,,54,,,,,,,,,,,,,,490.46100000297884,,response,,,,100,,,,,,,Space,keypress(Space),,,,,,,,-- --- ---- --- ------ ----- ------- ---- -- --- ------- --<br>------- ---------- ------ -- ----- -- ----- -- ---- ------<br>--- state --- --- ------ -------- ----- --- ------ ----- --<br>----- ----- ---------- --- --- ------ ------ ---- -- ------<br>------- --- ------ ----- --- ---- ------- -- ---- --- --<br>------- ------,223147.70000000298,223144.20000000298,222637.065,222640.79999999702,222653.739,223153.959,,23,state
screen,html.Screen,2_1_1_1_24,2022-02-04T12:03:15.666Z,,,,,,,,,,,,,,,,,54,,,,,,,,,,,,,,466.3409999970172,,response,,,,100,,,,,,,Space,keypress(Space),,,,,,,,-- --- ---- --- ------ ----- ------- ---- -- --- ------- --<br>------- ---------- ------ -- ----- -- ----- -- ---- ------<br>--- ----- cut --- ------ -------- ----- --- ------ ----- --<br>----- ----- ---------- --- --- ------ ------ ---- -- ------<br>------- --- ------ ----- --- ---- ------- -- ---- --- --<br>------- ------,223623.79999999702,223620.29999999702,223137.285,223147.70000000298,223153.959,223637.505,,24,cut
screen,html.Screen,2_1_1_1_25,2022-02-04T12:03:16.163Z,,,,,,,,,,,,,,,,,54,,,,,,,,,,,,,,479.7949999970151,,response,,,,100,,,,,,,Space,keypress(Space),,,,,,,,-- --- ---- --- ------ ----- ------- ---- -- --- ------- --<br>------- ---------- ------ -- ----- -- ----- -- ---- ------<br>--- ----- --- the ------ -------- ----- --- ------ ----- --<br>----- ----- ---------- --- --- ------ ------ ---- -- ------<br>------- --- ------ ----- --- ---- ------- -- ---- --- --<br>------- ------,224120.6000000015,224117.29999999702,223620.831,223623.8999999985,223637.505,224137.725,,25,the
screen,html.Screen,2_1_1_1_26,2022-02-04T12:03:16.684Z,,,,,,,,,,,,,,,,,54,,,,,,,,,,,,,,501.4750000029744,,response,,,,100,,,,,,,Space,keypress(Space),,,,,,,,-- --- ---- --- ------ ----- ------- ---- -- --- ------- --<br>------- ---------- ------ -- ----- -- ----- -- ---- ------<br>--- ----- --- --- bonds' -------- ----- --- ------ ----- --<br>----- ----- ---------- --- --- ------ ------ ---- -- ------<br>------- --- ------ ----- --- ---- ------- -- ---- --- --<br>------- ------,224642.5,224639.20000000298,224121.051,224120.79999999702,224137.725,224654.619,,26,bonds'
screen,html.Screen,2_1_1_1_27,2022-02-04T12:03:17.169Z,,,,,,,,,,,,,,,,,54,,,,,,,,,,,,,,468.5810000029742,,response,,,,100,,,,,,,Space,keypress(Space),,,,,,,,-- --- ---- --- ------ ----- ------- ---- -- --- ------- --<br>------- ---------- ------ -- ----- -- ----- -- ---- ------<br>--- ----- --- --- ------ interest ----- --- ------ ----- --<br>----- ----- ---------- --- --- ------ ------ ---- -- ------<br>------- --- ------ ----- --- ---- ------- -- ---- --- --<br>------- ------,225126.6000000015,225123.20000000298,224637.945,224642.70000000298,224654.619,225141.644,,27,interest
screen,html.Screen,2_1_1_1_28,2022-02-04T12:03:17.633Z,,,,,,,,,,,,,,,,,54,,,,,,,,,,,,,,445.55600000298,,response,,,,100,,,,,,,Space,keypress(Space),,,,,,,,-- --- ---- --- ------ ----- ------- ---- -- --- ------- --<br>------- ---------- ------ -- ----- -- ----- -- ---- ------<br>--- ----- --- --- ------ -------- rate. --- ------ ----- --<br>----- ----- ---------- --- --- ------ ------ ---- -- ------<br>------- --- ------ ----- --- ---- ------- -- ---- --- --<br>------- ------,225590.6000000015,225587.20000000298,225124.97,225126.70000000298,225141.644,225608.516,,28,rate.
screen,html.Screen,2_1_1_1_29,2022-02-04T12:03:18.246Z,,,,,,,,,,,,,,,,,54,,,,,,,,,,,,,,592.5840000014869,,response,,,,100,,,,,,,Space,keypress(Space),,,,,,,,-- --- ---- --- ------ ----- ------- ---- -- --- ------- --<br>------- ---------- ------ -- ----- -- ----- -- ---- ------<br>--- ----- --- --- ------ -------- ----- The ------ ----- --<br>----- ----- ---------- --- --- ------ ------ ---- -- ------<br>------- --- ------ ----- --- ---- ------- -- ---- --- --<br>------- ------,226204.3999999985,226201.1000000015,225591.842,225590.70000000298,225608.516,226208.78,,29,The
screen,html.Screen,2_1_1_1_30,2022-02-04T12:03:18.733Z,,,,,,,,,,,,,,,,,54,,,,,,,,,,,,,,479.3200000014913,,response,,,,100,,,,,,,Space,keypress(Space),,,,,,,,-- --- ---- --- ------ ----- ------- ---- -- --- ------- --<br>------- ---------- ------ -- ----- -- ----- -- ---- ------<br>--- ----- --- --- ------ -------- ----- --- market ----- --<br>----- ----- ---------- --- --- ------ ------ ---- -- ------<br>------- --- ------ ----- --- ---- ------- -- ---- --- --<br>------- ------,226691.20000000298,226688.1000000015,226192.106,226204.5,226208.78,226692.326,,30,market
screen,html.Screen,2_1_1_1_31,2022-02-04T12:03:19.217Z,,,,,,,,,,,,,,,,,54,,,,,,,,,,,,,,479.7740000014892,,response,,,,100,,,,,,,Space,keypress(Space),,,,,,,,-- --- ---- --- ------ ----- ------- ---- -- --- ------- --<br>------- ---------- ------ -- ----- -- ----- -- ---- ------<br>--- ----- --- --- ------ -------- ----- --- ------ value --<br>----- ----- ---------- --- --- ------ ------ ---- -- ------<br>------- --- ------ ----- --- ---- ------- -- ---- --- --<br>------- ------,227175.5,227172.1000000015,226675.652,226691.29999999702,226692.326,227192.546,,31,value
screen,html.Screen,2_1_1_1_32,2022-02-04T12:03:19.686Z,,,,,,,,,,,,,,,,,54,,,,,,,,,,,,,,448.4539999999979,,response,,,,100,,,,,,,Space,keypress(Space),,,,,,,,-- --- ---- --- ------ ----- ------- ---- -- --- ------- --<br>------- ---------- ------ -- ----- -- ----- -- ---- ------<br>--- ----- --- --- ------ -------- ----- --- ------ ----- of<br>----- ----- ---------- --- --- ------ ------ ---- -- ------<br>------- --- ------ ----- --- ---- ------- -- ---- --- --<br>------- ------,227644.29999999702,227641,227175.872,227175.70000000298,227192.546,227659.418,,32,of
screen,html.Screen,2_1_1_1_33,2022-02-04T12:03:20.175Z,,,,,,,,,,,,,,,,,54,,,,,,,,,,,,,,470.5819999999949,,response,,,,100,,,,,,,Space,keypress(Space),,,,,,,,-- --- ---- --- ------ ----- ------- ---- -- --- ------- --<br>------- ---------- ------ -- ----- -- ----- -- ---- ------<br>--- ----- --- --- ------ -------- ----- --- ------ ----- --<br>these ----- ---------- --- --- ------ ------ ---- -- ------<br>------- --- ------ ----- --- ---- ------- -- ---- --- --<br>------- ------,228133.3999999985,228130,227642.744,227644.5,227659.418,228142.964,,33,these
screen,html.Screen,2_1_1_1_34,2022-02-04T12:03:20.630Z,,,,,,,,,,,,,,,,,54,,,,,,,,,,,,,,442.1360000014829,,response,,,,100,,,,,,,Space,keypress(Space),,,,,,,,-- --- ---- --- ------ ----- ------- ---- -- --- ------- --<br>------- ---------- ------ -- ----- -- ----- -- ---- ------<br>--- ----- --- --- ------ -------- ----- --- ------ ----- --<br>----- bonds ---------- --- --- ------ ------ ---- -- ------<br>------- --- ------ ----- --- ---- ------- -- ---- --- --<br>------- ------,228588.1000000015,228585.1000000015,228126.29,228133.5,228142.964,228593.162,,34,bonds
screen,html.Screen,2_1_1_1_35,2022-02-04T12:03:21.159Z,,,,,,,,,,,,,,,,,54,,,,,,,,,,,,,,520.7379999984987,,response,,,,100,,,,,,,Space,keypress(Space),,,,,,,,"-- --- ---- --- ------ ----- ------- ---- -- --- ------- --<br>------- ---------- ------ -- ----- -- ----- -- ---- ------<br>--- ----- --- --- ------ -------- ----- --- ------ ----- --<br>----- ----- plummeted, --- --- ------ ------ ---- -- ------<br>------- --- ------ ----- --- ---- ------- -- ---- --- --<br>------- ------",229117,229113.8999999985,228576.488,228588.20000000298,228593.162,229126.73,,35,"plummeted,"
screen,html.Screen,2_1_1_1_36,2022-02-04T12:03:21.617Z,,,,,,,,,,,,,,,,,54,,,,,,,,,,,,,,445.1699999984994,,response,,,,100,,,,,,,Space,keypress(Space),,,,,,,,-- --- ---- --- ------ ----- ------- ---- -- --- ------- --<br>------- ---------- ------ -- ----- -- ----- -- ---- ------<br>--- ----- --- --- ------ -------- ----- --- ------ ----- --<br>----- ----- ---------- and --- ------ ------ ---- -- ------<br>------- --- ------ ----- --- ---- ------- -- ---- --- --<br>------- ------,229575.29999999702,229571.8999999985,229110.056,229117.1000000015,229126.73,229576.928,,36,and
screen,html.Screen,2_1_1_1_37,2022-02-04T12:03:22.040Z,,,,,,,,,,,,,,,,,54,,,,,,,,,,,,,,417.97199999849545,,response,,,,100,,,,,,,Space,keypress(Space),,,,,,,,-- --- ---- --- ------ ----- ------- ---- -- --- ------- --<br>------- ---------- ------ -- ----- -- ----- -- ---- ------<br>--- ----- --- --- ------ -------- ----- --- ------ ----- --<br>----- ----- ---------- --- the ------ ------ ---- -- ------<br>------- --- ------ ----- --- ---- ------- -- ---- --- --<br>------- ------,229998.29999999702,229994.8999999985,229560.254,229575.3999999985,229576.928,230010.452,,37,the
screen,html.Screen,2_1_1_1_38,2022-02-04T12:03:22.489Z,,,,,,,,,,,,,,,,,54,,,,,,,,,,,,,,432.44799999851966,,response,,,,100,,,,,,,Space,keypress(Space),,,,,,,,-- --- ---- --- ------ ----- ------- ---- -- --- ------- --<br>------- ---------- ------ -- ----- -- ----- -- ---- ------<br>--- ----- --- --- ------ -------- ----- --- ------ ----- --<br>----- ----- ---------- --- --- market ------ ---- -- ------<br>------- --- ------ ----- --- ---- ------- -- ---- --- --<br>------- ------,230446.8999999985,230442.8999999985,229993.778,229998.5,230010.452,230460.65,,38,market
screen,html.Screen,2_1_1_1_39,2022-02-04T12:03:22.895Z,,,,,,,,,,,,,,,,,54,,,,,,,,,,,,,,389.1499999970256,,response,,,,100,,,,,,,Space,keypress(Space),,,,,,,,-- --- ---- --- ------ ----- ------- ---- -- --- ------- --<br>------- ---------- ------ -- ----- -- ----- -- ---- ------<br>--- ----- --- --- ------ -------- ----- --- ------ ----- --<br>----- ----- ---------- --- --- ------ became ---- -- ------<br>------- --- ------ ----- --- ---- ------- -- ---- --- --<br>------- ------,230853.29999999702,230849.79999999702,230443.976,230447,230460.65,230860.826,,39,became
screen,html.Screen,2_1_1_1_40,2022-02-04T12:03:23.300Z,,,,,,,,,,,,,,,,,54,,,,,,,,,,,,,,394.07399999850895,,response,,,,100,,,,,,,Space,keypress(Space),,,,,,,,-- --- ---- --- ------ ----- ------- ---- -- --- ------- --<br>------- ---------- ------ -- ----- -- ----- -- ---- ------<br>--- ----- --- --- ------ -------- ----- --- ------ ----- --<br>----- ----- ---------- --- --- ------ ------ wary -- ------<br>------- --- ------ ----- --- ---- ------- -- ---- --- --<br>------- ------,231258.20000000298,231254.8999999985,230844.152,230853.3999999985,230860.826,231261.002,,40,wary
screen,html.Screen,2_1_1_1_41,2022-02-04T12:03:23.649Z,,,,,,,,,,,,,,,,,54,,,,,,,,,,,,,,342.69800000297255,,response,,,,100,,,,,,,Space,keypress(Space),,,,,,,,-- --- ---- --- ------ ----- ------- ---- -- --- ------- --<br>------- ---------- ------ -- ----- -- ----- -- ---- ------<br>--- ----- --- --- ------ -------- ----- --- ------ ----- --<br>----- ----- ---------- --- --- ------ ------ ---- of ------<br>------- --- ------ ----- --- ---- ------- -- ---- --- --<br>------- ------,231607.20000000298,231603.70000000298,231244.328,231258.3999999985,231261.002,231611.156,,41,of
screen,html.Screen,2_1_1_1_42,2022-02-04T12:03:24.039Z,,,,,,,,,,,,,,,,,54,,,,,,,,,,,,,,383.444000001502,,response,,,,100,,,,,,,Space,keypress(Space),,,,,,,,-- --- ---- --- ------ ----- ------- ---- -- --- ------- --<br>------- ---------- ------ -- ----- -- ----- -- ---- ------<br>--- ----- --- --- ------ -------- ----- --- ------ ----- --<br>----- ----- ---------- --- --- ------ ------ ---- -- French<br>------- --- ------ ----- --- ---- ------- -- ---- --- --<br>------- ------,231997.3999999985,231994.6000000015,231594.482,231607.29999999702,231611.156,232011.332,,42,French
screen,html.Screen,2_1_1_1_43,2022-02-04T12:03:24.551Z,,,,,,,,,,,,,,,,,54,,,,,,,,,,,,,,494.4679999970249,,response,,,,100,,,,,,,Space,keypress(Space),,,,,,,,-- --- ---- --- ------ ----- ------- ---- -- --- ------- --<br>------- ---------- ------ -- ----- -- ----- -- ---- ------<br>--- ----- --- --- ------ -------- ----- --- ------ ----- --<br>----- ----- ---------- --- --- ------ ------ ---- -- ------<br>credit. --- ------ ----- --- ---- ------- -- ---- --- --<br>------- ------,232509.20000000298,232505.79999999702,231994.658,231997.3999999985,232011.332,232511.552,,43,credit.
screen,html.Screen,2_1_1_1_44,2022-02-04T12:03:24.917Z,,,,,,,,,,,,,,,,,54,,,,,,,,,,,,,,360.1480000029842,,response,,,,100,,,,,,,Space,keypress(Space),,,,,,,,-- --- ---- --- ------ ----- ------- ---- -- --- ------- --<br>------- ---------- ------ -- ----- -- ----- -- ---- ------<br>--- ----- --- --- ------ -------- ----- --- ------ ----- --<br>----- ----- ---------- --- --- ------ ------ ---- -- ------<br>------- The ------ ----- --- ---- ------- -- ---- --- --<br>------- ------,232875.1000000015,232871.70000000298,232494.878,232509.29999999702,232511.552,232878.38,,44,The
screen,html.Screen,2_1_1_1_45,2022-02-04T12:03:25.334Z,,,,,,,,,,,,,,,,,54,,,,,,,,,,,,,,410.4199999970151,,response,,,,100,,,,,,,Space,keypress(Space),,,,,,,,-- --- ---- --- ------ ----- ------- ---- -- --- ------- --<br>------- ---------- ------ -- ----- -- ----- -- ---- ------<br>--- ----- --- --- ------ -------- ----- --- ------ ----- --<br>----- ----- ---------- --- --- ------ ------ ---- -- ------<br>------- --- French ----- --- ---- ------- -- ---- --- --<br>------- ------,233292.1000000015,233288.79999999702,232861.706,232875.20000000298,232878.38,233295.23,,45,French
screen,html.Screen,2_1_1_1_46,2022-02-04T12:03:26.323Z,,,,,,,,,,,,,,,,,54,,,,,,,,,,,,,,982.3700000014796,,response,,,,100,,,,,,,Space,keypress(Space),,,,,,,,-- --- ---- --- ------ ----- ------- ---- -- --- ------- --<br>------- ---------- ------ -- ----- -- ----- -- ---- ------<br>--- ----- --- --- ------ -------- ----- --- ------ ----- --<br>----- ----- ---------- --- --- ------ ------ ---- -- ------<br>------- --- ------ state --- ---- ------- -- ---- --- --<br>------- ------,234281.20000000298,234277.6000000015,233278.556,233292.20000000298,233295.23,234295.67,,46,state
screen,html.Screen,2_1_1_1_47,2022-02-04T12:03:26.705Z,,,,,,,,,,,,,,,,,54,,,,,,,,,,,,,,363.9300000014773,,response,,,,100,,,,,,,Space,keypress(Space),,,,,,,,-- --- ---- --- ------ ----- ------- ---- -- --- ------- --<br>------- ---------- ------ -- ----- -- ----- -- ---- ------<br>--- ----- --- --- ------ -------- ----- --- ------ ----- --<br>----- ----- ---------- --- --- ------ ------ ---- -- ------<br>------- --- ------ ----- was ---- ------- -- ---- --- --<br>------- ------,234662.8999999985,234659.6000000015,234278.996,234281.29999999702,234295.67,234679.172,,47,was
screen,html.Screen,2_1_1_1_48,2022-02-04T12:03:27.055Z,,,,,,,,,,,,,,,,,54,,,,,,,,,,,,,,330.2279999985185,,response,,,,100,,,,,,,Space,keypress(Space),,,,,,,,-- --- ---- --- ------ ----- ------- ---- -- --- ------- --<br>------- ---------- ------ -- ----- -- ----- -- ---- ------<br>--- ----- --- --- ------ -------- ----- --- ------ ----- --<br>----- ----- ---------- --- --- ------ ------ ---- -- ------<br>------- --- ------ ----- --- left ------- -- ---- --- --<br>------- ------,235013,235009.3999999985,234662.498,234663,234679.172,235032.223,,48,left
screen,html.Screen,2_1_1_1_49,2022-02-04T12:03:27.380Z,,,,,,,,,,,,,,,,,54,,,,,,,,,,,,,,302.377000001492,,response,,,,100,,,,,,,Space,keypress(Space),,,,,,,,-- --- ---- --- ------ ----- ------- ---- -- --- ------- --<br>------- ---------- ------ -- ----- -- ----- -- ---- ------<br>--- ----- --- --- ------ -------- ----- --- ------ ----- --<br>----- ----- ---------- --- --- ------ ------ ---- -- ------<br>------- --- ------ ----- --- ---- without -- ---- --- --<br>------- ------,235337.5,235334.6000000015,235015.549,235013.1000000015,235032.223,235349.029,,49,without
screen,html.Screen,2_1_1_1_50,2022-02-04T12:03:27.703Z,,,,,,,,,,,,,,,,,54,,,,,,,,,,,,,,308.47099999999045,,response,,,,100,,,,,,,Space,keypress(Space),,,,,,,,-- --- ---- --- ------ ----- ------- ---- -- --- ------- --<br>------- ---------- ------ -- ----- -- ----- -- ---- ------<br>--- ----- --- --- ------ -------- ----- --- ------ ----- --<br>----- ----- ---------- --- --- ------ ------ ---- -- ------<br>------- --- ------ ----- --- ---- ------- an ---- --- --<br>------- ------,235660.8999999985,235657.5,235332.355,235337.70000000298,235349.029,235665.835,,50,an
screen,html.Screen,2_1_1_1_51,2022-02-04T12:03:28.011Z,,,,,,,,,,,,,,,,,54,,,,,,,,,,,,,,299.66500000000815,,response,,,,100,,,,,,,Space,keypress(Space),,,,,,,,-- --- ---- --- ------ ----- ------- ---- -- --- ------- --<br>------- ---------- ------ -- ----- -- ----- -- ---- ------<br>--- ----- --- --- ------ -------- ----- --- ------ ----- --<br>----- ----- ---------- --- --- ------ ------ ---- -- ------<br>------- --- ------ ----- --- ---- ------- -- easy --- --<br>------- ------,235968.8999999985,235965.5,235649.161,235661,235665.835,235982.641,,51,easy
screen,html.Screen,2_1_1_1_52,2022-02-04T12:03:28.285Z,,,,,,,,,,,,,,,,,54,,,,,,,,,,,,,,256.85899999999674,,response,,,,100,,,,,,,Space,keypress(Space),,,,,,,,-- --- ---- --- ------ ----- ------- ---- -- --- ------- --<br>------- ---------- ------ -- ----- -- ----- -- ---- ------<br>--- ----- --- --- ------ -------- ----- --- ------ ----- --<br>----- ----- ---------- --- --- ------ ------ ---- -- ------<br>------- --- ------ ----- --- ---- ------- -- ---- way --<br>------- ------,236243,236239.5,235965.967,235969,235982.641,236249.425,,52,way
screen,html.Screen,2_1_1_1_53,2022-02-04T12:03:28.630Z,,,,,,,,,,,,,,,,,54,,,,,,,,,,,,,,335.17500000150176,,response,,,,100,,,,,,,Space,keypress(Space),,,,,,,,-- --- ---- --- ------ ----- ------- ---- -- --- ------- --<br>------- ---------- ------ -- ----- -- ----- -- ---- ------<br>--- ----- --- --- ------ -------- ----- --- ------ ----- --<br>----- ----- ---------- --- --- ------ ------ ---- -- ------<br>------- --- ------ ----- --- ---- ------- -- ---- --- of<br>------- ------,236588,236584.6000000015,236232.751,236243.1000000015,236249.425,236599.579,,53,of
screen,html.Screen,2_1_1_1_54,2022-02-04T12:03:29.042Z,,,,,,,,,,,,,,,,,54,,,,,,,,,,,,,,397.0210000014922,,response,,,,100,,,,,,,Space,keypress(Space),,,,,,,,-- --- ---- --- ------ ----- ------- ---- -- --- ------- --<br>------- ---------- ------ -- ----- -- ----- -- ---- ------<br>--- ----- --- --- ------ -------- ----- --- ------ ----- --<br>----- ----- ---------- --- --- ------ ------ ---- -- ------<br>------- --- ------ ----- --- ---- ------- -- ---- --- --<br>raising ------,237000,236996.6000000015,236582.905,236588.1000000015,236599.579,237016.429,,54,raising
screen,html.Screen,2_1_1_1_55,2022-02-04T12:03:29.465Z,,,,,,,,,,,,,,,,,54,,,,,,,,,,,,,,403.0709999999963,,response,,,,100,,,,,,,Space,keypress(Space),,,,,,,,-- --- ---- --- ------ ----- ------- ---- -- --- ------- --<br>------- ---------- ------ -- ----- -- ----- -- ---- ------<br>--- ----- --- --- ------ -------- ----- --- ------ ----- --<br>----- ----- ---------- --- --- ------ ------ ---- -- ------<br>------- --- ------ ----- --- ---- ------- -- ---- --- --<br>------- money.,237423,237419.5,236999.755,237000.1000000015,237016.429,237433.279,,55,money.
Item 100,flow.Loop,2_1_1_1,2022-02-04T12:03:29.465Z,,,,,,,,,,,,,,,,,,,,,,,,,,,,,,,28787.426999999996,,completion,,,,,C,,,,,,,,,,,silence,,,,,237423.20000000298,237419.5,208615.399,208617.70000000298,208632.073,237433.279,,,
Question 1,html.Screen,2_1_1_2,2022-02-04T12:03:33.272Z,,,,,,,,,,,,,,,,,,,,,,,,,,,,true,TRUE,,3781.1209999985003,,response,,,,100,C,,,,,,TRUE,click #choice-1,,,,silence,,,,,241230.1000000015,241214.3999999985,237416.605,237423.29999999702,237433.279,241234.951,,,
Question 2,html.Screen,2_1_1_3,2022-02-04T12:03:35.607Z,,,,,,,,,,,,,,,,,,,,,,,,,,,,true,FALSE,,2319.7490000029793,,response,,,,100,C,,,,,,FALSE,click #choice-2,,,,silence,,,,,243564.8999999985,243554.70000000298,241218.277,241230.29999999702,241234.951,243569.311,,,
Item 100,flow.Sequence,2_1_1,2022-02-04T12:03:35.607Z,,,,,,,,,,,,,,,,,,,,,,,,,,,,,,,44920.95400000297,,completion,,,,,,,,,,,,,,,,,,,,,243564.8999999985,243554.70000000298,198617.072,198628.20000000298,198633.746,243569.311,,,
End of Practice,html.Page,2_1_2,2022-02-04T12:03:46.817Z,,,,,,,,,,,,,,,,,,,,,,,,,,,,,,,11204.189000000013,,form submission,,,,,,,,,,,,,,,,,,,,,254774.20000000298,254773.5,243552.637,243565,243569.311,254774.239,,,
Practice,flow.Sequence,2_1,2022-02-04T12:03:46.817Z,,,,,,,,,,,,,,,,,,,,,,,,,,,,,,,102149.723,,completion,,,,,,,,,,,,,,,,,,,,,254774.29999999702,254773.5,152607.103,152624.3999999985,152623.777,254774.239,,,
Trap_instruction,html.Page,2_2_0,2022-02-04T12:03:50.807Z,,,,,,,,,,,,,,,,,,,,,,,,,,,,,,,3989.6609999985085,,form submission,,,,,,,,,,,,,,,,,,,,,258764.6000000015,258763.8999999985,254757.565,254774.3999999985,254774.239,258781.884,,,
trap_trial,html.Screen,2_2_1,2022-02-04T12:03:54.471Z,,,,,,,,,,,,,,,,,,,,,,,,,,,,true,1,,3637.015999998519,,response,,,,,,,,,,,1,click #choice-1,,,,,,,,,262428.700000003,262418.8999999985,258748.536,258764.70000000298,258781.884,262433.49,,,
end of trap trial,html.Page,2_2_2,2022-02-04T12:03:56.387Z,,,,,,,,,,,,,,,,,,,,,,,,,,,,,,,1909.809999997029,,form submission,,,,,,,,,,,,,,,,,,,,,264343.8999999985,264343.299999997,262416.816,262428.799999997,262433.49,264351,,,
Trap 1,flow.Sequence,2_2,2022-02-04T12:03:56.387Z,,,,,,,,,,,,,,,,,,,,,,,,,,,,,,,9569.060999997018,,completion,,,,,,,,,,,,,,,,,,,,,264344,264343.299999997,254757.565,254774.29999999702,254774.239,264351,,,
Standby,html.Page,2_3_0,2022-02-04T12:04:04.383Z,,,,,,,,,,,,,,,,,,,,,,,,,,,,,,,8003.520000000019,,timeout,,,,,,,,,,,,,,,,,,,,,272340.1000000015,272337.846,264334.326,264344.200000003,264351,272354.52,,,
Holding screen,html.Screen,2_3_1_0_0,2022-02-04T12:04:11.374Z,,,,,,,,,,,,,,,,,,,,,,,,,,,,,,,6992.464999999967,,timeout,,,,,,,,,,,,,,,,,,,,,279331.3999999985,279330.311,272337.846,272340.200000003,272354.52,279346.985,,,
screen,html.Screen,2_3_1_0_1_0,2022-02-04T12:04:13.213Z,,,,,,,,,,,,,,,,,2,,,,,,,,,,,,,,1818.515000000014,,response,,,,1,C,,,,,,Space,keypress(Space),,,,instrumental,,,,Two ---- ------ --- ------- ---------- ------- ----------<br>--- --------- --- ----------- ------- ----- ------- ---<br>--------- ---- -- --- ---- -- --------- -- ---- -------<br>-- --------- ------ --- ----- ------ ---- --- --------- --<br>------ - ---- -- --- ----------- ------- ---- ----- -----<br>--- -------- - ------ ---- -- ----- ---- --- --- -----------<br>-- -------,281170,281165.5,279330.311,279331.5,279346.985,281181.125,,0,Two
screen,html.Screen,2_3_1_0_1_1,2022-02-04T12:04:13.791Z,,,,,,,,,,,,,,,,,2,,,,,,,,,,,,,,563.375,,response,,,,1,C,,,,,,Space,keypress(Space),,,,instrumental,,,,--- days ------ --- ------- ---------- ------- ----------<br>--- --------- --- ----------- ------- ----- ------- ---<br>--------- ---- -- --- ---- -- --------- -- ---- -------<br>-- --------- ------ --- ----- ------ ---- --- --------- --<br>------ - ---- -- --- ----------- ------- ---- ----- -----<br>--- -------- - ------ ---- -- ----- ---- --- --- -----------<br>-- -------,281748.1000000015,281744.5,281164.451,281170.1000000015,281181.125,281764.715,,1,days
screen,html.Screen,2_3_1_0_1_2,2022-02-04T12:04:14.368Z,,,,,,,,,,,,,,,,,2,,,,,,,,,,,,,,556.6849999984843,,response,,,,1,C,,,,,,Space,keypress(Space),,,,instrumental,,,,"--- ---- later, --- ------- ---------- ------- ----------<br>--- --------- --- ----------- ------- ----- ------- ---<br>--------- ---- -- --- ---- -- --------- -- ---- -------<br>-- --------- ------ --- ----- ------ ---- --- --------- --<br>------ - ---- -- --- ----------- ------- ---- ----- -----<br>--- -------- - ------ ---- -- ----- ---- --- --- -----------<br>-- -------",282324.799999997,282321.3999999985,281748.041,281748.299999997,281764.715,282331.631,,2,"later,"
screen,html.Screen,2_3_1_0_1_3,2022-02-04T12:04:14.987Z,,,,,,,,,,,,,,,,,2,,,,,,,,,,,,,,608.869000000006,,response,,,,1,C,,,,,,Space,keypress(Space),,,,instrumental,,,,--- ---- ------ the ------- ---------- ------- ----------<br>--- --------- --- ----------- ------- ----- ------- ---<br>--------- ---- -- --- ---- -- --------- -- ---- -------<br>-- --------- ------ --- ----- ------ ---- --- --------- --<br>------ - ---- -- --- ----------- ------- ---- ----- -----<br>--- -------- - ------ ---- -- ----- ---- --- --- -----------<br>-- -------,282944.1000000015,282940.5,282314.957,282325,282331.631,282948.569,,3,the
screen,html.Screen,2_3_1_0_1_4,2022-02-04T12:04:15.475Z,,,,,,,,,,,,,,,,,2,,,,,,,,,,,,,,479.8309999984922,,response,,,,1,C,,,,,,Space,keypress(Space),,,,instrumental,,,,--- ---- ------ --- British ---------- ------- ----------<br>--- --------- --- ----------- ------- ----- ------- ---<br>--------- ---- -- --- ---- -- --------- -- ---- -------<br>-- --------- ------ --- ----- ------ ---- --- --------- --<br>------ - ---- -- --- ----------- ------- ---- ----- -----<br>--- -------- - ------ ---- -- ----- ---- --- --- -----------<br>-- -------,283432.1000000015,283428.3999999985,282931.895,282944.200000003,282948.569,283448.789,,4,British
screen,html.Screen,2_3_1_0_1_5,2022-02-04T12:04:16.060Z,,,,,,,,,,,,,,,,,2,,,,,,,,,,,,,,564.51099999703,,response,,,,1,C,,,,,,Space,keypress(Space),,,,instrumental,,,,--- ---- ------ --- ------- astronomer ------- ----------<br>--- --------- --- ----------- ------- ----- ------- ---<br>--------- ---- -- --- ---- -- --------- -- ---- -------<br>-- --------- ------ --- ----- ------ ---- --- --------- --<br>------ - ---- -- --- ----------- ------- ---- ----- -----<br>--- -------- - ------ ---- -- ----- ---- --- --- -----------<br>-- -------,284016.8999999985,284013.299999997,283432.115,283432.200000003,283448.789,284032.438,,5,astronomer
screen,html.Screen,2_3_1_0_1_6,2022-02-04T12:04:16.619Z,,,,,,,,,,,,,,,,,2,,,,,,,,,,,,,,540.0619999999763,,response,,,,1,C,,,,,,Space,keypress(Space),,,,instrumental,,,,--- ---- ------ --- ------- ---------- Richard ----------<br>--- --------- --- ----------- ------- ----- ------- ---<br>--------- ---- -- --- ---- -- --------- -- ---- -------<br>-- --------- ------ --- ----- ------ ---- --- --------- --<br>------ - ---- -- --- ----------- ------- ---- ----- -----<br>--- -------- - ------ ---- -- ----- ---- --- --- -----------<br>-- -------,284575.8999999985,284572.5,284015.764,284017.1000000015,284032.438,284582.68,,6,Richard
screen,html.Screen,2_3_1_0_1_7,2022-02-04T12:04:17.259Z,,,,,,,,,,,,,,,,,2,,,,,,,,,,,,,,629.6199999970268,,response,,,,1,C,,,,,,Space,keypress(Space),,,,instrumental,,,,--- ---- ------ --- ------- ---------- ------- Carrington<br>--- --------- --- ----------- ------- ----- ------- ---<br>--------- ---- -- --- ---- -- --------- -- ---- -------<br>-- --------- ------ --- ----- ------ ---- --- --------- --<br>------ - ---- -- --- ----------- ------- ---- ----- -----<br>--- -------- - ------ ---- -- ----- ---- --- --- -----------<br>-- -------,285215.5,285212.299999997,284566.006,284576,284582.68,285232.966,,7,Carrington
screen,html.Screen,2_3_1_0_1_8,2022-02-04T12:04:17.765Z,,,,,,,,,,,,,,,,,2,,,,,,,,,,,,,,485.433999998495,,response,,,,1,C,,,,,,Space,keypress(Space),,,,instrumental,,,,--- ---- ------ --- ------- ---------- ------- ----------<br>was --------- --- ----------- ------- ----- ------- ---<br>--------- ---- -- --- ---- -- --------- -- ---- -------<br>-- --------- ------ --- ----- ------ ---- --- --------- --<br>------ - ---- -- --- ----------- ------- ---- ----- -----<br>--- -------- - ------ ---- -- ----- ---- --- --- -----------<br>-- -------,285721.3999999985,285718.3999999985,285216.292,285215.700000003,285232.966,285733.186,,8,was
screen,html.Screen,2_3_1_0_1_9,2022-02-04T12:04:18.310Z,,,,,,,,,,,,,,,,,2,,,,,,,,,,,,,,530.0140000029933,,response,,,,1,C,,,,,,Space,keypress(Space),,,,instrumental,,,,--- ---- ------ --- ------- ---------- ------- ----------<br>--- observing --- ----------- ------- ----- ------- ---<br>--------- ---- -- --- ---- -- --------- -- ---- -------<br>-- --------- ------ --- ----- ------ ---- --- --------- --<br>------ - ---- -- --- ----------- ------- ---- ----- -----<br>--- -------- - ------ ---- -- ----- ---- --- --- -----------<br>-- -------,286266.799999997,286263.200000003,285716.512,285721.6000000015,285733.186,286283.428,,9,observing
screen,html.Screen,2_3_1_0_1_10,2022-02-04T12:04:18.752Z,,,,,,,,,,,,,,,,,2,,,,,,,,,,,,,,421.87199999700533,,response,,,,1,C,,,,,,Space,keypress(Space),,,,instrumental,,,,--- ---- ------ --- ------- ---------- ------- ----------<br>--- --------- the ----------- ------- ----- ------- ---<br>--------- ---- -- --- ---- -- --------- -- ---- -------<br>-- --------- ------ --- ----- ------ ---- --- --------- --<br>------ - ---- -- --- ----------- ------- ---- ----- -----<br>--- -------- - ------ ---- -- ----- ---- --- --- -----------<br>-- -------,286708.799999997,286705.299999997,286266.754,286266.8999999985,286283.428,286716.952,,10,the
screen,html.Screen,2_3_1_0_1_11,2022-02-04T12:04:19.297Z,,,,,,,,,,,,,,,,,2,,,,,,,,,,,,,,533.24800000299,,response,,,,1,C,,,,,,Space,keypress(Space),,,,instrumental,,,,--- ---- ------ --- ------- ---------- ------- ----------<br>--- --------- --- interesting ------- ----- ------- ---<br>--------- ---- -- --- ---- -- --------- -- ---- -------<br>-- --------- ------ --- ----- ------ ---- --- --------- --<br>------ - ---- -- --- ----------- ------- ---- ----- -----<br>--- -------- - ------ ---- -- ----- ---- --- --- -----------<br>-- -------,287253.6000000015,287250.200000003,286700.278,286708.8999999985,286716.952,287267.194,,11,interesting
screen,html.Screen,2_3_1_0_1_12,2022-02-04T12:04:19.856Z,,,,,,,,,,,,,,,,,2,,,,,,,,,,,,,,542.1059999970021,,response,,,,1,C,,,,,,Space,keypress(Space),,,,instrumental,,,,--- ---- ------ --- ------- ---------- ------- ----------<br>--- --------- --- ----------- sunspot ----- ------- ---<br>--------- ---- -- --- ---- -- --------- -- ---- -------<br>-- --------- ------ --- ----- ------ ---- --- --------- --<br>------ - ---- -- --- ----------- ------- ---- ----- -----<br>--- -------- - ------ ---- -- ----- ---- --- --- -----------<br>-- -------,287812.5,287809.299999997,287250.52,287253.700000003,287267.194,287817.436,,12,sunspot
screen,html.Screen,2_3_1_0_1_13,2022-02-04T12:04:20.344Z,,,,,,,,,,,,,,,,,2,,,,,,,,,,,,,,479.66400000150315,,response,,,,1,C,,,,,,Space,keypress(Space),,,,instrumental,,,,--- ---- ------ --- ------- ---------- ------- ----------<br>--- --------- --- ----------- ------- group ------- ---<br>--------- ---- -- --- ---- -- --------- -- ---- -------<br>-- --------- ------ --- ----- ------ ---- --- --------- --<br>------ - ---- -- --- ----------- ------- ---- ----- -----<br>--- -------- - ------ ---- -- ----- ---- --- --- -----------<br>-- -------,288300.799999997,288297.1000000015,287800.762,287812.700000003,287817.436,288317.656,,13,group
screen,html.Screen,2_3_1_0_1_14,2022-02-04T12:04:20.809Z,,,,,,,,,,,,,,,,,2,,,,,,,,,,,,,,444.544000002963,,response,,,,1,C,,,,,,Space,keypress(Space),,,,instrumental,,,,--- ---- ------ --- ------- ---------- ------- ----------<br>--- --------- --- ----------- ------- ----- through ---<br>--------- ---- -- --- ---- -- --------- -- ---- -------<br>-- --------- ------ --- ----- ------ ---- --- --------- --<br>------ - ---- -- --- ----------- ------- ---- ----- -----<br>--- -------- - ------ ---- -- ----- ---- --- --- -----------<br>-- -------,288765.6000000015,288762.200000003,288300.982,288300.799999997,288317.656,288767.854,,14,through
screen,html.Screen,2_3_1_0_1_15,2022-02-04T12:04:21.181Z,,,,,,,,,,,,,,,,,2,,,,,,,,,,,,,,366.1460000000079,,response,,,,1,C,,,,,,Space,keypress(Space),,,,instrumental,,,,--- ---- ------ --- ------- ---------- ------- ----------<br>--- --------- --- ----------- ------- ----- ------- his<br>--------- ---- -- --- ---- -- --------- -- ---- -------<br>-- --------- ------ --- ----- ------ ---- --- --------- --<br>------ - ---- -- --- ----------- ------- ---- ----- -----<br>--- -------- - ------ ---- -- ----- ---- --- --- -----------<br>-- -------,289137.5,289134,288751.18,288765.799999997,288767.854,289151.356,,15,his
screen,html.Screen,2_3_1_0_1_16,2022-02-04T12:04:21.675Z,,,,,,,,,,,,,,,,,2,,,,,,,,,,,,,,476.64399999997113,,response,,,,1,C,,,,,,Space,keypress(Space),,,,instrumental,,,,--- ---- ------ --- ------- ---------- ------- ----------<br>--- --------- --- ----------- ------- ----- ------- ---<br>telescope ---- -- --- ---- -- --------- -- ---- -------<br>-- --------- ------ --- ----- ------ ---- --- --------- --<br>------ - ---- -- --- ----------- ------- ---- ----- -----<br>--- -------- - ------ ---- -- ----- ---- --- --- -----------<br>-- -------,289631.5,289628,289134.682,289137.6000000015,289151.356,289634.902,,16,telescope
screen,html.Screen,2_3_1_0_1_17,2022-02-04T12:04:22.138Z,,,,,,,,,,,,,,,,,2,,,,,,,,,,,,,,456.09799999999814,,response,,,,1,C,,,,,,Space,keypress(Space),,,,instrumental,,,,--- ---- ------ --- ------- ---------- ------- ----------<br>--- --------- --- ----------- ------- ----- ------- ---<br>--------- when -- --- ---- -- --------- -- ---- -------<br>-- --------- ------ --- ----- ------ ---- --- --------- --<br>------ - ---- -- --- ----------- ------- ---- ----- -----<br>--- -------- - ------ ---- -- ----- ---- --- --- -----------<br>-- -------,290094.799999997,290091,289618.228,289631.700000003,289634.902,290101.774,,17,when
screen,html.Screen,2_3_1_0_1_18,2022-02-04T12:04:22.586Z,,,,,,,,,,,,,,,,,2,,,,,,,,,,,,,,437.2260000000242,,response,,,,1,C,,,,,,Space,keypress(Space),,,,instrumental,,,,--- ---- ------ --- ------- ---------- ------- ----------<br>--- --------- --- ----------- ------- ----- ------- ---<br>--------- ---- he --- ---- -- --------- -- ---- -------<br>-- --------- ------ --- ----- ------ ---- --- --------- --<br>------ - ---- -- --- ----------- ------- ---- ----- -----<br>--- -------- - ------ ---- -- ----- ---- --- --- -----------<br>-- -------,290542.700000003,290539,290085.1,290095,290101.774,290551.972,,18,he
screen,html.Screen,2_3_1_0_1_19,2022-02-04T12:04:23.143Z,,,,,,,,,,,,,,,,,2,,,,,,,,,,,,,,544.0279999999912,,response,,,,1,C,,,,,,Space,keypress(Space),,,,instrumental,,,,--- ---- ------ --- ------- ---------- ------- ----------<br>--- --------- --- ----------- ------- ----- ------- ---<br>--------- ---- -- saw ---- -- --------- -- ---- -------<br>-- --------- ------ --- ----- ------ ---- --- --------- --<br>------ - ---- -- --- ----------- ------- ---- ----- -----<br>--- -------- - ------ ---- -- ----- ---- --- --- -----------<br>-- -------,291100,291096,290535.298,290542.799999997,290551.972,291102.214,,19,saw
screen,html.Screen,2_3_1_0_1_20,2022-02-04T12:04:23.539Z,,,,,,,,,,,,,,,,,2,,,,,,,,,,,,,,389.886000001512,,response,,,,1,C,,,,,,Space,keypress(Space),,,,instrumental,,,,--- ---- ------ --- ------- ---------- ------- ----------<br>--- --------- --- ----------- ------- ----- ------- ---<br>--------- ---- -- --- what -- --------- -- ---- -------<br>-- --------- ------ --- ----- ------ ---- --- --------- --<br>------ - ---- -- --- ----------- ------- ---- ----- -----<br>--- -------- - ------ ---- -- ----- ---- --- --- -----------<br>-- -------,291496,291492.1000000015,291085.54,291100.1000000015,291102.214,291502.39,,20,what
screen,html.Screen,2_3_1_0_1_21,2022-02-04T12:04:23.995Z,,,,,,,,,,,,,,,,,2,,,,,,,,,,,,,,445.5099999984959,,response,,,,1,C,,,,,,Space,keypress(Space),,,,instrumental,,,,--- ---- ------ --- ------- ---------- ------- ----------<br>--- --------- --- ----------- ------- ----- ------- ---<br>--------- ---- -- --- ---- he --------- -- ---- -------<br>-- --------- ------ --- ----- ------ ---- --- --------- --<br>------ - ---- -- --- ----------- ------- ---- ----- -----<br>--- -------- - ------ ---- -- ----- ---- --- --- -----------<br>-- -------,291951.299999997,291947.8999999985,291485.716,291496.200000003,291502.39,291952.588,,21,he
screen,html.Screen,2_3_1_0_1_22,2022-02-04T12:04:24.468Z,,,,,,,,,,,,,,,,,2,,,,,,,,,,,,,,468.31199999852106,,response,,,,1,C,,,,,,Space,keypress(Space),,,,instrumental,,,,--- ---- ------ --- ------- ---------- ------- ----------<br>--- --------- --- ----------- ------- ----- ------- ---<br>--------- ---- -- --- ---- -- described -- ---- -------<br>-- --------- ------ --- ----- ------ ---- --- --------- --<br>------ - ---- -- --- ----------- ------- ---- ----- -----<br>--- -------- - ------ ---- -- ----- ---- --- --- -----------<br>-- -------,292424.299999997,292420.8999999985,291935.914,291951.5,291952.588,292436.134,,22,described
screen,html.Screen,2_3_1_0_1_23,2022-02-04T12:04:24.976Z,,,,,,,,,,,,,,,,,2,,,,,,,,,,,,,,492.76599999848986,,response,,,,1,C,,,,,,Space,keypress(Space),,,,instrumental,,,,--- ---- ------ --- ------- ---------- ------- ----------<br>--- --------- --- ----------- ------- ----- ------- ---<br>--------- ---- -- --- ---- -- --------- as ---- -------<br>-- --------- ------ --- ----- ------ ---- --- --------- --<br>------ - ---- -- --- ----------- ------- ---- ----- -----<br>--- -------- - ------ ---- -- ----- ---- --- --- -----------<br>-- -------,292932.5,292928.8999999985,292419.46,292424.3999999985,292436.134,292936.354,,23,as
screen,html.Screen,2_3_1_0_1_24,2022-02-04T12:04:25.537Z,,,,,,,,,,,,,,,,,2,,,,,,,,,,,,,,553.4459999970277,,response,,,,1,C,,,,,,Space,keypress(Space),,,,instrumental,,,,"--- ---- ------ --- ------- ---------- ------- ----------<br>--- --------- --- ----------- ------- ----- ------- ---<br>--------- ---- -- --- ---- -- --------- -- ""two -------<br>-- --------- ------ --- ----- ------ ---- --- --------- --<br>------ - ---- -- --- ----------- ------- ---- ----- -----<br>--- -------- - ------ ---- -- ----- ---- --- --- -----------<br>-- -------",293493.200000003,293489.799999997,292919.68,292932.700000003,292936.354,293503.27,,24,"""two"
screen,html.Screen,2_3_1_0_1_25,2022-02-04T12:04:26.056Z,,,,,,,,,,,,,,,,,2,,,,,,,,,,,,,,505.62999999849126,,response,,,,1,C,,,,,,Space,keypress(Space),,,,instrumental,,,,--- ---- ------ --- ------- ---------- ------- ----------<br>--- --------- --- ----------- ------- ----- ------- ---<br>--------- ---- -- --- ---- -- --------- -- ---- patches<br>-- --------- ------ --- ----- ------ ---- --- --------- --<br>------ - ---- -- --- ----------- ------- ---- ----- -----<br>--- -------- - ------ ---- -- ----- ---- --- --- -----------<br>-- -------,294012.5,294008.8999999985,293486.596,293493.299999997,293503.27,294020.164,,25,patches
screen,html.Screen,2_3_1_0_1_26,2022-02-04T12:04:26.490Z,,,,,,,,,,,,,,,,,2,,,,,,,,,,,,,,422.63599999703,,response,,,,1,C,,,,,,Space,keypress(Space),,,,instrumental,,,,--- ---- ------ --- ------- ---------- ------- ----------<br>--- --------- --- ----------- ------- ----- ------- ---<br>--------- ---- -- --- ---- -- --------- -- ---- -------<br>of --------- ------ --- ----- ------ ---- --- --------- --<br>------ - ---- -- --- ----------- ------- ---- ----- -----<br>--- -------- - ------ ---- -- ----- ---- --- --- -----------<br>-- -------,294446.200000003,294442.799999997,294003.49,294012.5,294020.164,294449.975,,26,of
screen,html.Screen,2_3_1_0_1_27,2022-02-04T12:04:27.032Z,,,,,,,,,,,,,,,,,2,,,,,,,,,,,,,,533.7250000030035,,response,,,,1,C,,,,,,Space,keypress(Space),,,,instrumental,,,,--- ---- ------ --- ------- ---------- ------- ----------<br>--- --------- --- ----------- ------- ----- ------- ---<br>--------- ---- -- --- ---- -- --------- -- ---- -------<br>-- intensely ------ --- ----- ------ ---- --- --------- --<br>------ - ---- -- --- ----------- ------- ---- ----- -----<br>--- -------- - ------ ---- -- ----- ---- --- --- -----------<br>-- -------,294988.5,294983.700000003,294433.301,294446.3999999985,294449.975,295000.217,,27,intensely
screen,html.Screen,2_3_1_0_1_28,2022-02-04T12:04:27.579Z,,,,,,,,,,,,,,,,,2,,,,,,,,,,,,,,531.5829999970156,,response,,,,1,C,,,,,,Space,keypress(Space),,,,instrumental,,,,--- ---- ------ --- ------- ---------- ------- ----------<br>--- --------- --- ----------- ------- ----- ------- ---<br>--------- ---- -- --- ---- -- --------- -- ---- -------<br>-- --------- bright --- ----- ------ ---- --- --------- --<br>------ - ---- -- --- ----------- ------- ---- ----- -----<br>--- -------- - ------ ---- -- ----- ---- --- --- -----------<br>-- -------,295535,295531.799999997,294983.543,294988.6000000015,295000.217,295550.459,,28,bright
screen,html.Screen,2_3_1_0_1_29,2022-02-04T12:04:28.186Z,,,,,,,,,,,,,,,,,2,,,,,,,,,,,,,,588.2410000030068,,response,,,,1,C,,,,,,Space,keypress(Space),,,,instrumental,,,,--- ---- ------ --- ------- ---------- ------- ----------<br>--- --------- --- ----------- ------- ----- ------- ---<br>--------- ---- -- --- ---- -- --------- -- ---- -------<br>-- --------- ------ and ----- ------ ---- --- --------- --<br>------ - ---- -- --- ----------- ------- ---- ----- -----<br>--- -------- - ------ ---- -- ----- ---- --- --- -----------<br>-- -------,296142.3999999985,296138.700000003,295533.785,295535.1000000015,295550.459,296150.723,,29,and
screen,html.Screen,2_3_1_0_1_30,2022-02-04T12:04:28.659Z,,,,,,,,,,,,,,,,,2,,,,,,,,,,,,,,461.07699999702163,,response,,,,1,C,,,,,,Space,keypress(Space),,,,instrumental,,,,--- ---- ------ --- ------- ---------- ------- ----------<br>--- --------- --- ----------- ------- ----- ------- ---<br>--------- ---- -- --- ---- -- --------- -- ---- -------<br>-- --------- ------ --- white ------ ---- --- --------- --<br>------ - ---- -- --- ----------- ------- ---- ----- -----<br>--- -------- - ------ ---- -- ----- ---- --- --- -----------<br>-- -------,296615,296611.799999997,296134.049,296142.5,296150.723,296617.595,,30,white
screen,html.Screen,2_3_1_0_1_31,2022-02-04T12:04:29.129Z,,,,,,,,,,,,,,,,,2,,,,,,,,,,,,,,464.1050000030082,,response,,,,1,C,,,,,,Space,keypress(Space),,,,instrumental,,,,"--- ---- ------ --- ------- ---------- ------- ----------<br>--- --------- --- ----------- ------- ----- ------- ---<br>--------- ---- -- --- ---- -- --------- -- ---- -------<br>-- --------- ------ --- ----- light"" ---- --- --------- --<br>------ - ---- -- --- ----------- ------- ---- ----- -----<br>--- -------- - ------ ---- -- ----- ---- --- --- -----------<br>-- -------",297085.299999997,297081.700000003,296600.921,296615.200000003,296617.595,297101.141,,31,"light"""
screen,html.Screen,2_3_1_0_1_32,2022-02-04T12:04:29.674Z,,,,,,,,,,,,,,,,,2,,,,,,,,,,,,,,525.559000002977,,response,,,,1,C,,,,,,Space,keypress(Space),,,,instrumental,,,,--- ---- ------ --- ------- ---------- ------- ----------<br>--- --------- --- ----------- ------- ----- ------- ---<br>--------- ---- -- --- ---- -- --------- -- ---- -------<br>-- --------- ------ --- ----- ------ over --- --------- --<br>------ - ---- -- --- ----------- ------- ---- ----- -----<br>--- -------- - ------ ---- -- ----- ---- --- --- -----------<br>-- -------,297630.3999999985,297626.700000003,297084.467,297085.3999999985,297101.141,297634.709,,32,over
screen,html.Screen,2_3_1_0_1_33,2022-02-04T12:04:30.042Z,,,,,,,,,,,,,,,,,2,,,,,,,,,,,,,,359.9910000030068,,response,,,,1,C,,,,,,Space,keypress(Space),,,,instrumental,,,,--- ---- ------ --- ------- ---------- ------- ----------<br>--- --------- --- ----------- ------- ----- ------- ---<br>--------- ---- -- --- ---- -- --------- -- ---- -------<br>-- --------- ------ --- ----- ------ ---- the --------- --<br>------ - ---- -- --- ----------- ------- ---- ----- -----<br>--- -------- - ------ ---- -- ----- ---- --- --- -----------<br>-- -------,297998.1000000015,297994.700000003,297618.035,297630.3999999985,297634.709,298001.537,,33,the
screen,html.Screen,2_3_1_0_1_34,2022-02-04T12:04:30.482Z,,,,,,,,,,,,,,,,,2,,,,,,,,,,,,,,433.16300000296906,,response,,,,1,C,,,,,,Space,keypress(Space),,,,instrumental,,,,--- ---- ------ --- ------- ---------- ------- ----------<br>--- --------- --- ----------- ------- ----- ------- ---<br>--------- ---- -- --- ---- -- --------- -- ---- -------<br>-- --------- ------ --- ----- ------ ---- --- sunspots. --<br>------ - ---- -- --- ----------- ------- ---- ----- -----<br>--- -------- - ------ ---- -- ----- ---- --- --- -----------<br>-- -------,298438,298434.700000003,297984.863,297998.200000003,298001.537,298451.735,,34,sunspots.
screen,html.Screen,2_3_1_0_1_35,2022-02-04T12:04:31.062Z,,,,,,,,,,,,,,,,,2,,,,,,,,,,,,,,562.8650000015041,,response,,,,1,C,,,,,,Space,keypress(Space),,,,instrumental,,,,--- ---- ------ --- ------- ---------- ------- ----------<br>--- --------- --- ----------- ------- ----- ------- ---<br>--------- ---- -- --- ---- -- --------- -- ---- -------<br>-- --------- ------ --- ----- ------ ---- --- --------- He<br>------ - ---- -- --- ----------- ------- ---- ----- -----<br>--- -------- - ------ ---- -- ----- ---- --- --- -----------<br>-- -------,299018.1000000015,299014.6000000015,298435.061,298438.200000003,298451.735,299035.325,,35,He
screen,html.Screen,2_3_1_0_1_36,2022-02-04T12:04:31.680Z,,,,,,,,,,,,,,,,,2,,,,,,,,,,,,,,597.2750000014785,,response,,,,1,C,,,,,,Space,keypress(Space),,,,instrumental,,,,--- ---- ------ --- ------- ---------- ------- ----------<br>--- --------- --- ----------- ------- ----- ------- ---<br>--------- ---- -- --- ---- -- --------- -- ---- -------<br>-- --------- ------ --- ----- ------ ---- --- --------- --<br>jotted - ---- -- --- ----------- ------- ---- ----- -----<br>--- -------- - ------ ---- -- ----- ---- --- --- -----------<br>-- -------,299636,299632.6000000015,299018.651,299018.200000003,299035.325,299652.263,,36,jotted
screen,html.Screen,2_3_1_0_1_37,2022-02-04T12:04:32.106Z,,,,,,,,,,,,,,,,,2,,,,,,,,,,,,,,407.33700000151293,,response,,,,1,C,,,,,,Space,keypress(Space),,,,instrumental,,,,--- ---- ------ --- ------- ---------- ------- ----------<br>--- --------- --- ----------- ------- ----- ------- ---<br>--------- ---- -- --- ---- -- --------- -- ---- -------<br>-- --------- ------ --- ----- ------ ---- --- --------- --<br>------ a ---- -- --- ----------- ------- ---- ----- -----<br>--- -------- - ------ ---- -- ----- ---- --- --- -----------<br>-- -------,300062.8999999985,300059.6000000015,299635.589,299636,299652.263,300069.113,,37,a
screen,html.Screen,2_3_1_0_1_38,2022-02-04T12:04:32.513Z,,,,,,,,,,,,,,,,,2,,,,,,,,,,,,,,397.487000001478,,response,,,,1,C,,,,,,Space,keypress(Space),,,,instrumental,,,,--- ---- ------ --- ------- ---------- ------- ----------<br>--- --------- --- ----------- ------- ----- ------- ---<br>--------- ---- -- --- ---- -- --------- -- ---- -------<br>-- --------- ------ --- ----- ------ ---- --- --------- --<br>------ - note -- --- ----------- ------- ---- ----- -----<br>--- -------- - ------ ---- -- ----- ---- --- --- -----------<br>-- -------,300469.6000000015,300466.6000000015,300052.439,300063,300069.113,300485.963,,38,note
