sender,sender_type,sender_id,timestamp,meta,,Blues,Classical,Country,Dance,Electronic,Folk,Gospel,Hip-Hop,Jazz,Latin,Musical/Film,New-age,Pop,Prolific_id,Provo_ID,R&B,Rap,Reggae,Religious,Rock,Soul,Swing,Traditional,age,artist_name,correct,correctResponse,distraction,duration,education,ended_on,familiarity,gender,headphone_check_performance,item,list,music_frequency,offensiveness,pleasantness,position_correct,preference,response,response_action,snippet_file,song_name,song_rating,sound,stimulus_1,stimulus_2,stimulus_3,text,time_commit,time_end,time_render,time_run,time_show,time_switch,url,word,word_ID
Prolific ID,html.Form,0,2022-02-17T13:05:03.099Z,"{""labjs_version"":""20.2.2"",""labjs_build"":{""flavor"":""production"",""commit"":""a25486e0c714a0ae2ce03ff94b7bb6896854dcfa""},""location"":""https://run.pavlovia.org/mvasilev/prolific2_music_d/"",""userAgent"":""Mozilla/5.0 (Macintosh; Intel Mac OS X 10_11_6) AppleWebKit/537.36 (KHTML, like Gecko) Chrome/96.0.4664.55 Safari/537.36"",""platform"":""MacIntel"",""language"":""en-GB"",""locale"":""en-US"",""timeZone"":""Europe/London"",""timezoneOffset"":0,""screen_width"":1440,""screen_height"":900,""scroll_width"":1440,""scroll_height"":773,""window_innerWidth"":1440,""window_innerHeight"":821,""devicePixelRatio"":1}",,,,,,,,,,,,,,,5f468b750aa4ce00084d7d9d,,,,,,,,,,,,,,,6904.484999964237,,form submission,,,,,,,,,,,,,,,,,,,,,14930.599999964237,14929.599999964237,7975.114,7989.799999952316,8025.115,14925.839,{},,
Introduction,html.Screen,1_0,2022-02-17T13:05:10.282Z,,,,,,,,,,,,,,,,,,,,,,,,,,,,,,,7183.360999988079,,response,,,,,,,,,,,continue,click button,,,,,,,,,22113.69999998808,22109.19999998808,14909.172,14931,14925.839,22125.983,,,
Volume calibration,html.Screen,1_1,2022-02-17T13:05:36.655Z,,,,,,,,,,,,,,,,,,,,,,,,,,,,,,,26353.816999952316,,response,,,,,,,,,,,continue,click button,,,,,,,,,48486.299999952316,48479.799999952316,22109.316,22113.899999976158,22125.983,48494.802,,,
Task instructions,html.Screen,1_2,2022-02-17T13:06:01.996Z,,,,,,,,,,,,,,,,,,,,,,,,,,,,,,,25329.097999976155,,response,,,,,,,,,,,continue,click button,,,,,,,,,73826.69999998808,73823.89999997616,48478.135,48486.5,48494.802,73828.642,,,
Sounds,html.Screen,1_3_0_0,2022-02-17T13:06:06.236Z,,,,,,,,,,,,,,,,,,,,,,,,,,,,,,,4251.450999999986,,timeout,,,,,,,,,3,,,,,,,,I,O,S,,78066.59999996424,78063.426,73811.975,73827,73828.642,78080.093,,,
Judgement,html.Screen,1_3_0_1,2022-02-17T13:06:08.595Z,,,,,,,,,,,,,,,,,,,,,,,,,,,,true,3,,2342.706999952323,,response,,,,,,,,,3,,3,click #choice-3,,,,,I,O,S,,80426,80422.79999995232,78063.426,78066.79999995232,78080.093,80430.14,,,
Trial,flow.Sequence,1_3_0,2022-02-17T13:06:08.596Z,,,,,,,,,,,,,,,,,,,,,,,,,,,,,,,6594.157999952309,,completion,,,,,,,,,3,,,,,,,,I,O,S,,80426.5,80422.79999995232,73811.975,73826.89999997616,73828.642,80430.14,,,
Sounds,html.Screen,1_3_1_0,2022-02-17T13:06:12.834Z,,,,,,,,,,,,,,,,,,,,,,,,,,,,,,,4250.085000000006,,timeout,,,,,,,,,1,,,,,,,,S,O,I,,84664.69999998808,84663.558,80413.473,80426.69999998808,80430.14,84680.225,,,
Judgement,html.Screen,1_3_1_1,2022-02-17T13:06:14.721Z,,,,,,,,,,,,,,,,,,,,,,,,,,,,true,1,,1867.9749999880733,,response,,,,,,,,,1,,1,click #choice-1,,,,,S,O,I,,86551.39999997616,86548.19999998808,84663.558,84664.89999997616,84680.225,86564.19,,,
Trial,flow.Sequence,1_3_1,2022-02-17T13:06:14.721Z,,,,,,,,,,,,,,,,,,,,,,,,,,,,,,,6118.05999998808,,completion,,,,,,,,,1,,,,,,,,S,O,I,,86551.69999998808,86548.19999998808,80413.473,80426.59999996424,80430.14,86564.19,,,
Sounds,html.Screen,1_3_2_0,2022-02-17T13:06:18.969Z,,,,,,,,,,,,,,,,,,,,,,,,,,,,,,,4250.084999999992,,timeout,,,,,,,,,2,,,,,,,,I,S,O,,90799.09999996424,90797.608,86547.523,86552,86564.19,90814.275,,,
Judgement,html.Screen,1_3_2_1,2022-02-17T13:06:19.989Z,,,,,,,,,,,,,,,,,,,,,,,,,,,,true,2,,1001.4249999880849,,response,,,,,,,,,2,,2,click #choice-2,,,,,I,S,O,,91819.09999996424,91815.69999998808,90797.608,90799.39999997616,90814.275,91830.962,,,
Trial,flow.Sequence,1_3_2,2022-02-17T13:06:19.989Z,,,,,,,,,,,,,,,,,,,,,,,,,,,,,,,5251.509999988077,,completion,,,,,,,,,2,,,,,,,,I,S,O,,91819.39999997616,91815.69999998808,86547.523,86551.89999997616,86564.19,91830.962,,,
Sounds,html.Screen,1_3_3_0,2022-02-17T13:06:24.236Z,,,,,,,,,,,,,,,,,,,,,,,,,,,,,,,4250.085000000006,,timeout,,,,,,,,,3,,,,,,,,O,I,S,,96066.5,96064.38,91814.295,91819.69999998808,91830.962,96081.047,,,
Judgement,html.Screen,1_3_3_1,2022-02-17T13:06:25.319Z,,,,,,,,,,,,,,,,,,,,,,,,,,,,true,3,,1065.0529999642313,,response,,,,,,,,,3,,3,click #choice-3,,,,,O,I,S,,97149,97146.09999996424,96064.38,96066.59999996424,96081.047,97148.289,,,
Trial,flow.Sequence,1_3_3,2022-02-17T13:06:25.319Z,,,,,,,,,,,,,,,,,,,,,,,,,,,,,,,5315.137999964238,,completion,,,,,,,,,3,,,,,,,,O,I,S,,97149.19999998808,97146.09999996424,91814.295,91819.5,91830.962,97148.289,,,
Sounds,html.Screen,1_3_4_0,2022-02-17T13:06:29.553Z,,,,,,,,,,,,,,,,,,,,,,,,,,,,,,,4250.084999999992,,timeout,,,,,,,,,1,,,,,,,,S,I,O,,101383.09999996424,101381.707,97131.622,97149.29999995232,97148.289,101398.374,,,
Judgement,html.Screen,1_3_4_1,2022-02-17T13:06:31.080Z,,,,,,,,,,,,,,,,,,,,,,,,,,,,true,1,,1508.9259999523201,,response,,,,,,,,,1,,1,click #choice-1,,,,,S,I,O,,102909.89999997616,102907.29999995232,101381.707,101383.19999998808,101398.374,102915.071,,,
Trial,flow.Sequence,1_3_4,2022-02-17T13:06:31.080Z,,,,,,,,,,,,,,,,,,,,,,,,,,,,,,,5759.010999952312,,completion,,,,,,,,,1,,,,,,,,S,I,O,,102910,102907.29999995232,97131.622,97149.29999995232,97148.289,102915.071,,,
Sounds,html.Screen,1_3_5_0,2022-02-17T13:06:35.320Z,,,,,,,,,,,,,,,,,,,,,,,,,,,,,,,4250.085000000006,,timeout,,,,,,,,,2,,,,,,,,O,S,I,,107150.09999996424,107148.489,102898.404,102910.19999998808,102915.071,107165.156,,,
Judgement,html.Screen,1_3_5_1,2022-02-17T13:06:36.056Z,,,,,,,,,,,,,,,,,,,,,,,,,,,,true,2,,717.8439999999973,,response,,,,,,,,,2,,2,click #choice-2,,,,,O,S,I,,107885.89999997616,107883,107148.489,107150.19999998808,107165.156,107899.046,,,
Trial,flow.Sequence,1_3_5,2022-02-17T13:06:36.056Z,,,,,,,,,,,,,,,,,,,,,,,,,,,,,,,4967.929000000004,,completion,,,,,,,,,2,,,,,,,,O,S,I,,107886.19999998808,107883,102898.404,102910.19999998808,102915.071,107899.046,,,
Task,flow.Loop,1_3,2022-02-17T13:06:36.062Z,,,,,,,,,,,,,,,,,,,,,,,,,,,,,,,34054.35799999999,,completion,,,1,,,,,,,,,,,,,,,,,,107891.89999997616,107883,73811.975,73826.89999997616,73828.642,107899.046,,,
Trap,html.Screen,1_4,2022-02-17T13:06:36.064Z,,,,,,,,,,,,,,,,,,,,,,,,,,,,,,,NaN,,skipped,,,,,,,,,,,,,,,,,,,,,107893.79999995232,107883,,107893.59999996424,,107899.046,,,
Thanks,html.Screen,1_5,2022-02-17T13:06:42.008Z,,,,,,,,,,,,,,,,,,,,,,,,,,,,,,,5936.153999988077,,response,,,,,,,,,,,continue,click button,,,,,,,,,113837.79999995232,113835.19999998808,107882.379,107893.89999997616,107899.046,121665.988,,,
Headphone screening,flow.Sequence,1,2022-02-17T13:06:42.008Z,,,,,,,,,,,,,,,,,,,,,,,,,,,,,,,98909.36099998807,,completion,,,,,,,,,,,,,,,,,,,,,113838,113835.19999998808,14909.172,14931,14925.839,121665.988,,,
Instructions,html.Page,2_0,2022-02-17T13:07:31.039Z,,,,,,,,,,,,,,,,,,,,,,,,,,,,,,,41201.012,,form submission,,,,,,,,,,,,,,,,,,,,,162868.39999997616,162867,121649.321,121672.59999996424,121665.988,162867.542,,,
Holding screen,html.Screen,2_1_0_0,2022-02-17T13:07:41.025Z,,,,,,,,,,,,,,,,,,,,,,,,,,,,,,,10002.301000000007,,timeout,,,,,,,,,,,,,,,,,,,,,172854.69999998808,172853.176,162850.875,162868.69999998808,162867.542,172869.843,,,
screen,html.Screen,2_1_0_1_0,2022-02-17T13:07:42.606Z,,,,,,,,,,,,,,,,,53,,,,,,,,,,,,,,1561.3569999880856,,response,,,,99,,,,,,,Space,keypress(Space),,,,,,,,When -- ----- -- ------ - ------- --- ----------<br>------------- ------ ------ ---- ---- ------- ----- -- ----<br>-------- ------- -- ---------- --- - --- ----- ----- ----<br>---- --- --- ----- --- ---- ---- ------- ----- ---- -------<br>--- --- -- ----- -- --- ---- -- --- ---- -- ------ ------<br>--- ----- -- ----,174435,174431.19999998808,172853.176,172854.89999997616,172869.843,174436.541,,0,When
screen,html.Screen,2_1_0_1_1,2022-02-17T13:07:43.229Z,,,,,,,,,,,,,,,,,53,,,,,,,,,,,,,,620.7589999523188,,response,,,,99,,,,,,,Space,keypress(Space),,,,,,,,---- it ----- -- ------ - ------- --- ----------<br>------------- ------ ------ ---- ---- ------- ----- -- ----<br>-------- ------- -- ---------- --- - --- ----- ----- ----<br>---- --- --- ----- --- ---- ---- ------- ----- ---- -------<br>--- --- -- ----- -- --- ---- -- --- ---- -- ------ ------<br>--- ----- -- ----,175058.69999998808,175057.29999995232,174419.874,174435.19999998808,174436.541,175069.887,,1,it
screen,html.Screen,2_1_0_1_2,2022-02-17T13:07:43.804Z,,,,,,,,,,,,,,,,,53,,,,,,,,,,,,,,562.3129999880912,,response,,,,99,,,,,,,Space,keypress(Space),,,,,,,,---- -- comes -- ------ - ------- --- ----------<br>------------- ------ ------ ---- ---- ------- ----- -- ----<br>-------- ------- -- ---------- --- - --- ----- ----- ----<br>---- --- --- ----- --- ---- ---- ------- ----- ---- -------<br>--- --- -- ----- -- --- ---- -- --- ---- -- ------ ------<br>--- ----- -- ----,175633.69999998808,175632.19999998808,175053.22,175058.69999998808,175069.887,175636.565,,2,comes
screen,html.Screen,2_1_0_1_3,2022-02-17T13:07:44.415Z,,,,,,,,,,,,,,,,,53,,,,,,,,,,,,,,606.6349999880767,,response,,,,99,,,,,,,Space,keypress(Space),,,,,,,,---- -- ----- to ------ - ------- --- ----------<br>------------- ------ ------ ---- ---- ------- ----- -- ----<br>-------- ------- -- ---------- --- - --- ----- ----- ----<br>---- --- --- ----- --- ---- ---- ------- ----- ---- -------<br>--- --- -- ----- -- --- ---- -- --- ---- -- ------ ------<br>--- ----- -- ----,176244.5,176243.19999998808,175619.898,175633.69999998808,175636.565,176253.743,,3,to
screen,html.Screen,2_1_0_1_4,2022-02-17T13:07:45.023Z,,,,,,,,,,,,,,,,,53,,,,,,,,,,,,,,597.4569999880914,,response,,,,99,,,,,,,Space,keypress(Space),,,,,,,,---- -- ----- -- having - ------- --- ----------<br>------------- ------ ------ ---- ---- ------- ----- -- ----<br>-------- ------- -- ---------- --- - --- ----- ----- ----<br>---- --- --- ----- --- ---- ---- ------- ----- ---- -------<br>--- --- -- ----- -- --- ---- -- --- ---- -- ------ ------<br>--- ----- -- ----,176852.39999997616,176851.19999998808,176237.076,176244.59999996424,176253.743,176853.755,,4,having
screen,html.Screen,2_1_0_1_5,2022-02-17T13:07:45.487Z,,,,,,,,,,,,,,,,,53,,,,,,,,,,,,,,461.4449999880744,,response,,,,99,,,,,,,Space,keypress(Space),,,,,,,,---- -- ----- -- ------ a ------- --- ----------<br>------------- ------ ------ ---- ---- ------- ----- -- ----<br>-------- ------- -- ---------- --- - --- ----- ----- ----<br>---- --- --- ----- --- ---- ---- ------- ----- ---- -------<br>--- --- -- ----- -- --- ---- -- --- ---- -- ------ ------<br>--- ----- -- ----,177316.5,177315.19999998808,176837.088,176852.59999996424,176853.755,177320.431,,5,a
screen,html.Screen,2_1_0_1_6,2022-02-17T13:07:46.215Z,,,,,,,,,,,,,,,,,53,,,,,,,,,,,,,,722.5689999999886,,response,,,,99,,,,,,,Space,keypress(Space),,,,,,,,---- -- ----- -- ------ - lasting --- ----------<br>------------- ------ ------ ---- ---- ------- ----- -- ----<br>-------- ------- -- ---------- --- - --- ----- ----- ----<br>---- --- --- ----- --- ---- ---- ------- ----- ---- -------<br>--- --- -- ----- -- --- ---- -- --- ---- -- ------ ------<br>--- ----- -- ----,178044.19999998808,178043,177303.764,177317.39999997616,177320.431,178053.779,,6,lasting
screen,html.Screen,2_1_0_1_7,2022-02-17T13:07:46.721Z,,,,,,,,,,,,,,,,,53,,,,,,,,,,,,,,495.22099999999045,,response,,,,99,,,,,,,Space,keypress(Space),,,,,,,,---- -- ----- -- ------ - ------- and ----------<br>------------- ------ ------ ---- ---- ------- ----- -- ----<br>-------- ------- -- ---------- --- - --- ----- ----- ----<br>---- --- --- ----- --- ---- ---- ------- ----- ---- -------<br>--- --- -- ----- -- --- ---- -- --- ---- -- ------ ------<br>--- ----- -- ----,178550.39999997616,178549,178037.112,178044.39999997616,178053.779,178553.789,,7,and
screen,html.Screen,2_1_0_1_8,2022-02-17T13:07:48.354Z,,,,,,,,,,,,,,,,,53,,,,,,,,,,,,,,1628.1109999761684,,response,,,,99,,,,,,,Space,keypress(Space),,,,,,,,---- -- ----- -- ------ - ------- --- fulfilling<br>------------- ------ ------ ---- ---- ------- ----- -- ----<br>-------- ------- -- ---------- --- - --- ----- ----- ----<br>---- --- --- ----- --- ---- ---- ------- ----- ---- -------<br>--- --- -- ----- -- --- ---- -- --- ---- -- ------ ------<br>--- ----- -- ----,180183.19999998808,180181.89999997616,178537.122,178550.59999996424,178553.789,180187.155,,8,fulfilling
screen,html.Screen,2_1_0_1_9,2022-02-17T13:07:50.314Z,,,,,,,,,,,,,,,,,53,,,,,,,,,,,,,,1954.5449999880802,,response,,,,99,,,,,,,Space,keypress(Space),,,,,,,,"---- -- ----- -- ------ - ------- --- ----------<br>relationship, ------ ------ ---- ---- ------- ----- -- ----<br>-------- ------- -- ---------- --- - --- ----- ----- ----<br>---- --- --- ----- --- ---- ---- ------- ----- ---- -------<br>--- --- -- ----- -- --- ---- -- --- ---- -- ------ ------<br>--- ----- -- ----",182143,182141.69999998808,180170.488,180183.39999997616,180187.155,182153.861,,9,"relationship,"
screen,html.Screen,2_1_0_1_10,2022-02-17T13:07:50.878Z,,,,,,,,,,,,,,,,,53,,,,,,,,,,,,,,551.8389999880746,,response,,,,99,,,,,,,Space,keypress(Space),,,,,,,,---- -- ----- -- ------ - ------- --- ----------<br>------------- common ------ ---- ---- ------- ----- -- ----<br>-------- ------- -- ---------- --- - --- ----- ----- ----<br>---- --- --- ----- --- ---- ---- ------- ----- ---- -------<br>--- --- -- ----- -- --- ---- -- --- ---- -- ------ ------<br>--- ----- -- ----,182707.09999996424,182705.69999998808,182137.194,182143.19999998808,182153.861,182720.539,,10,common
screen,html.Screen,2_1_0_1_11,2022-02-17T13:07:51.387Z,,,,,,,,,,,,,,,,,53,,,,,,,,,,,,,,494.1609999880893,,response,,,,99,,,,,,,Space,keypress(Space),,,,,,,,---- -- ----- -- ------ - ------- --- ----------<br>------------- ------ wisdom ---- ---- ------- ----- -- ----<br>-------- ------- -- ---------- --- - --- ----- ----- ----<br>---- --- --- ----- --- ---- ---- ------- ----- ---- -------<br>--- --- -- ----- -- --- ---- -- --- ---- -- ------ ------<br>--- ----- -- ----,183216,183214.69999998808,182703.872,182707.19999998808,182720.539,183220.549,,11,wisdom
screen,html.Screen,2_1_0_1_12,2022-02-17T13:07:52.137Z,,,,,,,,,,,,,,,,,53,,,,,,,,,,,,,,744.0509999642381,,response,,,,99,,,,,,,Space,keypress(Space),,,,,,,,---- -- ----- -- ------ - ------- --- ----------<br>------------- ------ ------ says ---- ------- ----- -- ----<br>-------- ------- -- ---------- --- - --- ----- ----- ----<br>---- --- --- ----- --- ---- ---- ------- ----- ---- -------<br>--- --- -- ----- -- --- ---- -- --- ---- -- ------ ------<br>--- ----- -- ----,183965.89999997616,183964.59999996424,183203.882,183216.19999998808,183220.549,183970.564,,12,says
screen,html.Screen,2_1_0_1_13,2022-02-17T13:07:52.676Z,,,,,,,,,,,,,,,,,53,,,,,,,,,,,,,,532.935999999987,,response,,,,99,,,,,,,Space,keypress(Space),,,,,,,,---- -- ----- -- ------ - ------- --- ----------<br>------------- ------ ------ ---- that ------- ----- -- ----<br>-------- ------- -- ---------- --- - --- ----- ----- ----<br>---- --- --- ----- --- ---- ---- ------- ----- ---- -------<br>--- --- -- ----- -- --- ---- -- --- ---- -- ------ ------<br>--- ----- -- ----,184505.29999995232,184503.5,183953.897,183966.09999996424,183970.564,184520.575,,13,that
screen,html.Screen,2_1_0_1_14,2022-02-17T13:07:53.626Z,,,,,,,,,,,,,,,,,53,,,,,,,,,,,,,,932.9249999999884,,response,,,,99,,,,,,,Space,keypress(Space),,,,,,,,---- -- ----- -- ------ - ------- --- ----------<br>------------- ------ ------ ---- ---- feeling ----- -- ----<br>-------- ------- -- ---------- --- - --- ----- ----- ----<br>---- --- --- ----- --- ---- ---- ------- ----- ---- -------<br>--- --- -- ----- -- --- ---- -- --- ---- -- ------ ------<br>--- ----- -- ----,185454.89999997616,185453.5,184503.908,184505.39999997616,184520.575,185470.594,,14,feeling
screen,html.Screen,2_1_0_1_15,2022-02-17T13:07:53.989Z,,,,,,,,,,,,,,,,,53,,,,,,,,,,,,,,345.9059999999881,,response,,,,99,,,,,,,Space,keypress(Space),,,,,,,,---- -- ----- -- ------ - ------- --- ----------<br>------------- ------ ------ ---- ---- ------- close -- ----<br>-------- ------- -- ---------- --- - --- ----- ----- ----<br>---- --- --- ----- --- ---- ---- ------- ----- ---- -------<br>--- --- -- ----- -- --- ---- -- --- ---- -- ------ ------<br>--- ----- -- ----,185818.09999996424,185816.5,185453.927,185455,185470.594,185820.601,,15,close
screen,html.Screen,2_1_0_1_16,2022-02-17T13:07:54.359Z,,,,,,,,,,,,,,,,,53,,,,,,,,,,,,,,365.79899997616303,,response,,,,99,,,,,,,Space,keypress(Space),,,,,,,,---- -- ----- -- ------ - ------- --- ----------<br>------------- ------ ------ ---- ---- ------- ----- to ----<br>-------- ------- -- ---------- --- - --- ----- ----- ----<br>---- --- --- ----- --- ---- ---- ------- ----- ---- -------<br>--- --- -- ----- -- --- ---- -- --- ---- -- ------ ------<br>--- ----- -- ----,186187.89999997616,186186.39999997616,185803.934,185818.19999998808,185820.601,186204.451,,16,to
screen,html.Screen,2_1_0_1_17,2022-02-17T13:07:54.815Z,,,,,,,,,,,,,,,,,53,,,,,,,,,,,,,,437.9489999761572,,response,,,,99,,,,,,,Space,keypress(Space),,,,,,,,---- -- ----- -- ------ - ------- --- ----------<br>------------- ------ ------ ---- ---- ------- ----- -- your<br>-------- ------- -- ---------- --- - --- ----- ----- ----<br>---- --- --- ----- --- ---- ---- ------- ----- ---- -------<br>--- --- -- ----- -- --- ---- -- --- ---- -- ------ ------<br>--- ----- -- ----,186643.59999996424,186642.39999997616,186187.784,186188,186204.451,186654.46,,17,your
screen,html.Screen,2_1_0_1_18,2022-02-17T13:07:55.570Z,,,,,,,,,,,,,,,,,53,,,,,,,,,,,,,,742.7399999880872,,response,,,,99,,,,,,,Space,keypress(Space),,,,,,,,---- -- ----- -- ------ - ------- --- ----------<br>------------- ------ ------ ---- ---- ------- ----- -- ----<br>romantic ------- -- ---------- --- - --- ----- ----- ----<br>---- --- --- ----- --- ---- ---- ------- ----- ---- -------<br>--- --- -- ----- -- --- ---- -- --- ---- -- ------ ------<br>--- ----- -- ----,187398.59999996424,187397.19999998808,186637.793,186643.79999995232,186654.46,187404.475,,18,romantic
screen,html.Screen,2_1_0_1_19,2022-02-17T13:07:56.109Z,,,,,,,,,,,,,,,,,53,,,,,,,,,,,,,,531.9249999761523,,response,,,,99,,,,,,,Space,keypress(Space),,,,,,,,---- -- ----- -- ------ - ------- --- ----------<br>------------- ------ ------ ---- ---- ------- ----- -- ----<br>-------- partner -- ---------- --- - --- ----- ----- ----<br>---- --- --- ----- --- ---- ---- ------- ----- ---- -------<br>--- --- -- ----- -- --- ---- -- --- ---- -- ------ ------<br>--- ----- -- ----,187937.69999998808,187936.39999997616,187387.808,187398.69999998808,187404.475,187954.486,,19,partner
screen,html.Screen,2_1_0_1_20,2022-02-17T13:07:56.465Z,,,,,,,,,,,,,,,,,53,,,,,,,,,,,,,,337.81399995231186,,response,,,,99,,,,,,,Space,keypress(Space),,,,,,,,---- -- ----- -- ------ - ------- --- ----------<br>------------- ------ ------ ---- ---- ------- ----- -- ----<br>-------- ------- is ---------- --- - --- ----- ----- ----<br>---- --- --- ----- --- ---- ---- ------- ----- ---- -------<br>--- --- -- ----- -- --- ---- -- --- ---- -- ------ ------<br>--- ----- -- ----,188293.59999996424,188292.29999995232,187937.819,187937.79999995232,187954.486,188304.493,,20,is
screen,html.Screen,2_1_0_1_21,2022-02-17T13:08:01.036Z,,,,,,,,,,,,,,,,,53,,,,,,,,,,,,,,4558.507000000012,,response,,,,99,,,,,,,Space,keypress(Space),,,,,,,,---- -- ----- -- ------ - ------- --- ----------<br>------------- ------ ------ ---- ---- ------- ----- -- ----<br>-------- ------- -- paramount. --- - --- ----- ----- ----<br>---- --- --- ----- --- ---- ---- ------- ----- ---- -------<br>--- --- -- ----- -- --- ---- -- --- ---- -- ------ ------<br>--- ----- -- ----,192864.69999998808,192863,188287.826,188293.69999998808,188304.493,192871.251,,21,paramount.
screen,html.Screen,2_1_0_1_22,2022-02-17T13:08:01.663Z,,,,,,,,,,,,,,,,,53,,,,,,,,,,,,,,619.6489999761689,,response,,,,99,,,,,,,Space,keypress(Space),,,,,,,,---- -- ----- -- ------ - ------- --- ----------<br>------------- ------ ------ ---- ---- ------- ----- -- ----<br>-------- ------- -- ---------- But - --- ----- ----- ----<br>---- --- --- ----- --- ---- ---- ------- ----- ---- -------<br>--- --- -- ----- -- --- ---- -- --- ---- -- ------ ------<br>--- ----- -- ----,193492.19999998808,193490.89999997616,192854.584,192864.79999995232,192871.251,193504.597,,22,But
screen,html.Screen,2_1_0_1_23,2022-02-17T13:08:03.305Z,,,,,,,,,,,,,,,,,53,,,,,,,,,,,,,,1627.2029999523074,,response,,,,99,,,,,,,Space,keypress(Space),,,,,,,,---- -- ----- -- ------ - ------- --- ----------<br>------------- ------ ------ ---- ---- ------- ----- -- ----<br>-------- ------- -- ---------- --- a --- ----- ----- ----<br>---- --- --- ----- --- ---- ---- ------- ----- ---- -------<br>--- --- -- ----- -- --- ---- -- --- ---- -- ------ ------<br>--- ----- -- ----,195133.59999996424,195131.79999995232,193487.93,193492.19999998808,193504.597,195137.963,,23,a
screen,html.Screen,2_1_0_1_24,2022-02-17T13:08:03.816Z,,,,,,,,,,,,,,,,,53,,,,,,,,,,,,,,504.83699995232746,,response,,,,99,,,,,,,Space,keypress(Space),,,,,,,,---- -- ----- -- ------ - ------- --- ----------<br>------------- ------ ------ ---- ---- ------- ----- -- ----<br>-------- ------- -- ---------- --- - new ----- ----- ----<br>---- --- --- ----- --- ---- ---- ------- ----- ---- -------<br>--- --- -- ----- -- --- ---- -- --- ---- -- ------ ------<br>--- ----- -- ----,195644.5,195642.79999995232,195121.296,195133.69999998808,195137.963,195654.64,,24,new
screen,html.Screen,2_1_0_1_25,2022-02-17T13:08:04.195Z,,,,,,,,,,,,,,,,,53,,,,,,,,,,,,,,368.0599999880651,,response,,,,99,,,,,,,Space,keypress(Space),,,,,,,,---- -- ----- -- ------ - ------- --- ----------<br>------------- ------ ------ ---- ---- ------- ----- -- ----<br>-------- ------- -- ---------- --- - --- study ----- ----<br>---- --- --- ----- --- ---- ---- ------- ----- ---- -------<br>--- --- -- ----- -- --- ---- -- --- ---- -- ------ ------<br>--- ----- -- ----,196024.19999998808,196022.69999998808,195637.973,195644.59999996424,195654.64,196037.981,,25,study
screen,html.Screen,2_1_0_1_26,2022-02-17T13:08:04.930Z,,,,,,,,,,,,,,,,,53,,,,,,,,,,,,,,719.8189999523165,,response,,,,99,,,,,,,Space,keypress(Space),,,,,,,,---- -- ----- -- ------ - ------- --- ----------<br>------------- ------ ------ ---- ---- ------- ----- -- ----<br>-------- ------- -- ---------- --- - --- ----- finds ----<br>---- --- --- ----- --- ---- ---- ------- ----- ---- -------<br>--- --- -- ----- -- --- ---- -- --- ---- -- ------ ------<br>--- ----- -- ----,196759.09999996424,196757.79999995232,196021.314,196024.19999998808,196037.981,196771.827,,26,finds
screen,html.Screen,2_1_0_1_27,2022-02-17T13:08:05.738Z,,,,,,,,,,,,,,,,,53,,,,,,,,,,,,,,793.0729999761679,,response,,,,99,,,,,,,Space,keypress(Space),,,,,,,,---- -- ----- -- ------ - ------- --- ----------<br>------------- ------ ------ ---- ---- ------- ----- -- ----<br>-------- ------- -- ---------- --- - --- ----- ----- that<br>---- --- --- ----- --- ---- ---- ------- ----- ---- -------<br>--- --- -- ----- -- --- ---- -- --- ---- -- ------ ------<br>--- ----- -- ----,197566.5,197564.89999997616,196755.16,196759.19999998808,196771.827,197571.843,,27,that
screen,html.Screen,2_1_0_1_28,2022-02-17T13:08:06.181Z,,,,,,,,,,,,,,,,,53,,,,,,,,,,,,,,436.75699996424373,,response,,,,99,,,,,,,Space,keypress(Space),,,,,,,,---- -- ----- -- ------ - ------- --- ----------<br>------------- ------ ------ ---- ---- ------- ----- -- ----<br>-------- ------- -- ---------- --- - --- ----- ----- ----<br>it's --- --- ----- --- ---- ---- ------- ----- ---- -------<br>--- --- -- ----- -- --- ---- -- --- ---- -- ------ ------<br>--- ----- -- ----,198010,198008.59999996424,197555.176,197566.59999996424,197571.843,198021.852,,28,it's
screen,html.Screen,2_1_0_1_29,2022-02-17T13:08:06.640Z,,,,,,,,,,,,,,,,,53,,,,,,,,,,,,,,445.6479999999865,,response,,,,99,,,,,,,Space,keypress(Space),,,,,,,,---- -- ----- -- ------ - ------- --- ----------<br>------------- ------ ------ ---- ---- ------- ----- -- ----<br>-------- ------- -- ---------- --- - --- ----- ----- ----<br>---- not --- ----- --- ---- ---- ------- ----- ---- -------<br>--- --- -- ----- -- --- ---- -- --- ---- -- ------ ------<br>--- ----- -- ----,198469.29999995232,198467.5,198005.185,198010.09999996424,198021.852,198471.861,,29,not
screen,html.Screen,2_1_0_1_30,2022-02-17T13:08:06.987Z,,,,,,,,,,,,,,,,,53,,,,,,,,,,,,,,341.6389999999956,,response,,,,99,,,,,,,Space,keypress(Space),,,,,,,,---- -- ----- -- ------ - ------- --- ----------<br>------------- ------ ------ ---- ---- ------- ----- -- ----<br>-------- ------- -- ---------- --- - --- ----- ----- ----<br>---- --- how ----- --- ---- ---- ------- ----- ---- -------<br>--- --- -- ----- -- --- ---- -- --- ---- -- ------ ------<br>--- ----- -- ----,198815.39999997616,198813.5,198455.194,198469.39999997616,198471.861,198821.868,,30,how
screen,html.Screen,2_1_0_1_31,2022-02-17T13:08:07.187Z,,,,,,,,,,,,,,,,,53,,,,,,,,,,,,,,192.73199996424955,,response,,,,99,,,,,,,Space,keypress(Space),,,,,,,,---- -- ----- -- ------ - ------- --- ----------<br>------------- ------ ------ ---- ---- ------- ----- -- ----<br>-------- ------- -- ---------- --- - --- ----- ----- ----<br>---- --- --- close --- ---- ---- ------- ----- ---- -------<br>--- --- -- ----- -- --- ---- -- --- ---- -- ------ ------<br>--- ----- -- ----,199016,199014.59999996424,198805.201,198815.69999998808,198821.868,199021.872,,31,close
screen,html.Screen,2_1_0_1_32,2022-02-17T13:08:07.591Z,,,,,,,,,,,,,,,,,53,,,,,,,,,,,,,,396.627999999997,,response,,,,99,,,,,,,Space,keypress(Space),,,,,,,,---- -- ----- -- ------ - ------- --- ----------<br>------------- ------ ------ ---- ---- ------- ----- -- ----<br>-------- ------- -- ---------- --- - --- ----- ----- ----<br>---- --- --- ----- you ---- ---- ------- ----- ---- -------<br>--- --- -- ----- -- --- ---- -- --- ---- -- ------ ------<br>--- ----- -- ----,199420.29999995232,199418.5,199005.205,199016.19999998808,199021.872,199421.88,,32,you
screen,html.Screen,2_1_0_1_33,2022-02-17T13:08:07.990Z,,,,,,,,,,,,,,,,,53,,,,,,,,,,,,,,395.61999999999534,,response,,,,99,,,,,,,Space,keypress(Space),,,,,,,,---- -- ----- -- ------ - ------- --- ----------<br>------------- ------ ------ ---- ---- ------- ----- -- ----<br>-------- ------- -- ---------- --- - --- ----- ----- ----<br>---- --- --- ----- --- feel ---- ------- ----- ---- -------<br>--- --- -- ----- -- --- ---- -- --- ---- -- ------ ------<br>--- ----- -- ----,199819.09999996424,199817.5,199405.213,199420.39999997616,199421.88,199821.888,,33,feel
screen,html.Screen,2_1_0_1_34,2022-02-17T13:08:08.347Z,,,,,,,,,,,,,,,,,53,,,,,,,,,,,,,,351.7119999642309,,response,,,,99,,,,,,,Space,keypress(Space),,,,,,,,---- -- ----- -- ------ - ------- --- ----------<br>------------- ------ ------ ---- ---- ------- ----- -- ----<br>-------- ------- -- ---------- --- - --- ----- ----- ----<br>---- --- --- ----- --- ---- that ------- ----- ---- -------<br>--- --- -- ----- -- --- ---- -- --- ---- -- ------ ------<br>--- ----- -- ----,200175.39999997616,200173.59999996424,199805.221,199819.29999995232,199821.888,200188.562,,34,that
screen,html.Screen,2_1_0_1_35,2022-02-17T13:08:08.878Z,,,,,,,,,,,,,,,,,53,,,,,,,,,,,,,,516.8379999761528,,response,,,,99,,,,,,,Space,keypress(Space),,,,,,,,---- -- ----- -- ------ - ------- --- ----------<br>------------- ------ ------ ---- ---- ------- ----- -- ----<br>-------- ------- -- ---------- --- - --- ----- ----- ----<br>---- --- --- ----- --- ---- ---- matters ----- ---- -------<br>--- --- -- ----- -- --- ---- -- --- ---- -- ------ ------<br>--- ----- -- ----,200707,200705.39999997616,200171.895,200175.5,200188.562,200721.906,,35,matters
screen,html.Screen,2_1_0_1_36,2022-02-17T13:08:09.161Z,,,,,,,,,,,,,,,,,53,,,,,,,,,,,,,,266.39399995232816,,response,,,,99,,,,,,,Space,keypress(Space),,,,,,,,"---- -- ----- -- ------ - ------- --- ----------<br>------------- ------ ------ ---- ---- ------- ----- -- ----<br>-------- ------- -- ---------- --- - --- ----- ----- ----<br>---- --- --- ----- --- ---- ---- ------- most, ---- -------<br>--- --- -- ----- -- --- ---- -- --- ---- -- ------ ------<br>--- ----- -- ----",200989.69999998808,200988.29999995232,200705.239,200707.29999995232,200721.906,201005.245,,36,"most,"
screen,html.Screen,2_1_0_1_37,2022-02-17T13:08:09.413Z,,,,,,,,,,,,,,,,,53,,,,,,,,,,,,,,235.1549999761628,,response,,,,99,,,,,,,Space,keypress(Space),,,,,,,,---- -- ----- -- ------ - ------- --- ----------<br>------------- ------ ------ ---- ---- ------- ----- -- ----<br>-------- ------- -- ---------- --- - --- ----- ----- ----<br>---- --- --- ----- --- ---- ---- ------- ----- it's -------<br>--- --- -- ----- -- --- ---- -- --- ---- -- ------ ------<br>--- ----- -- ----,201241.69999998808,201240.39999997616,200988.578,200989.79999995232,201005.245,201255.25,,37,it's
screen,html.Screen,2_1_0_1_38,2022-02-17T13:08:10.571Z,,,,,,,,,,,,,,,,,53,,,,,,,,,,,,,,1143.3499999642372,,response,,,,99,,,,,,,Space,keypress(Space),,,,,,,,---- -- ----- -- ------ - ------- --- ----------<br>------------- ------ ------ ---- ---- ------- ----- -- ----<br>-------- ------- -- ---------- --- - --- ----- ----- ----<br>---- --- --- ----- --- ---- ---- ------- ----- ---- whether<br>--- --- -- ----- -- --- ---- -- --- ---- -- ------ ------<br>--- ----- -- ----,202400.09999996424,202398.59999996424,201238.583,201241.79999995232,201255.25,202405.273,,38,whether
screen,html.Screen,2_1_0_1_39,2022-02-17T13:08:10.758Z,,,,,,,,,,,,,,,,,53,,,,,,,,,,,,,,180.12699997617165,,response,,,,99,,,,,,,Space,keypress(Space),,,,,,,,---- -- ----- -- ------ - ------- --- ----------<br>------------- ------ ------ ---- ---- ------- ----- -- ----<br>-------- ------- -- ---------- --- - --- ----- ----- ----<br>---- --- --- ----- --- ---- ---- ------- ----- ---- -------<br>you --- -- ----- -- --- ---- -- --- ---- -- ------ ------<br>--- ----- -- ----,202586.89999997616,202585.39999997616,202388.606,202400.29999995232,202405.273,202588.61,,39,you
screen,html.Screen,2_1_0_1_40,2022-02-17T13:08:11.203Z,,,,,,,,,,,,,,,,,53,,,,,,,,,,,,,,441.68999995233025,,response,,,,99,,,,,,,Space,keypress(Space),,,,,,,,---- -- ----- -- ------ - ------- --- ----------<br>------------- ------ ------ ---- ---- ------- ----- -- ----<br>-------- ------- -- ---------- --- - --- ----- ----- ----<br>---- --- --- ----- --- ---- ---- ------- ----- ---- -------<br>--- are -- ----- -- --- ---- -- --- ---- -- ------ ------<br>--- ----- -- ----,203031.69999998808,203030.29999995232,202571.943,202587.09999996424,202588.61,203038.619,,40,are
screen,html.Screen,2_1_0_1_41,2022-02-17T13:08:11.598Z,,,,,,,,,,,,,,,,,53,,,,,,,,,,,,,,385.98099996423116,,response,,,,99,,,,,,,Space,keypress(Space),,,,,,,,---- -- ----- -- ------ - ------- --- ----------<br>------------- ------ ------ ---- ---- ------- ----- -- ----<br>-------- ------- -- ---------- --- - --- ----- ----- ----<br>---- --- --- ----- --- ---- ---- ------- ----- ---- -------<br>--- --- as ----- -- --- ---- -- --- ---- -- ------ ------<br>--- ----- -- ----,203427.09999996424,203424.59999996424,203021.952,203031.89999997616,203038.619,203438.627,,41,as
screen,html.Screen,2_1_0_1_42,2022-02-17T13:08:11.845Z,,,,,,,,,,,,,,,,,53,,,,,,,,,,,,,,233.47299996422953,,response,,,,99,,,,,,,Space,keypress(Space),,,,,,,,---- -- ----- -- ------ - ------- --- ----------<br>------------- ------ ------ ---- ---- ------- ----- -- ----<br>-------- ------- -- ---------- --- - --- ----- ----- ----<br>---- --- --- ----- --- ---- ---- ------- ----- ---- -------<br>--- --- -- close -- --- ---- -- --- ---- -- ------ ------<br>--- ----- -- ----,203673.5,203672.09999996424,203421.96,203427.19999998808,203438.627,203688.632,,42,close
screen,html.Screen,2_1_0_1_43,2022-02-17T13:08:12.271Z,,,,,,,,,,,,,,,,,53,,,,,,,,,,,,,,409.4679999642249,,response,,,,99,,,,,,,Space,keypress(Space),,,,,,,,---- -- ----- -- ------ - ------- --- ----------<br>------------- ------ ------ ---- ---- ------- ----- -- ----<br>-------- ------- -- ---------- --- - --- ----- ----- ----<br>---- --- --- ----- --- ---- ---- ------- ----- ---- -------<br>--- --- -- ----- as --- ---- -- --- ---- -- ------ ------<br>--- ----- -- ----,204099.5,204098.09999996424,203671.965,203673.69999998808,203688.632,204105.307,,43,as
screen,html.Screen,2_1_0_1_44,2022-02-17T13:08:12.496Z,,,,,,,,,,,,,,,,,53,,,,,,,,,,,,,,217.79299996423651,,response,,,,99,,,,,,,Space,keypress(Space),,,,,,,,---- -- ----- -- ------ - ------- --- ----------<br>------------- ------ ------ ---- ---- ------- ----- -- ----<br>-------- ------- -- ---------- --- - --- ----- ----- ----<br>---- --- --- ----- --- ---- ---- ------- ----- ---- -------<br>--- --- -- ----- -- you ---- -- --- ---- -- ------ ------<br>--- ----- -- ----,204324.5,204323.09999996424,204088.64,204099.59999996424,204105.307,204338.645,,44,you
screen,html.Screen,2_1_0_1_45,2022-02-17T13:08:12.678Z,,,,,,,,,,,,,,,,,53,,,,,,,,,,,,,,166.4549999642477,,response,,,,99,,,,,,,Space,keypress(Space),,,,,,,,---- -- ----- -- ------ - ------- --- ----------<br>------------- ------ ------ ---- ---- ------- ----- -- ----<br>-------- ------- -- ---------- --- - --- ----- ----- ----<br>---- --- --- ----- --- ---- ---- ------- ----- ---- -------<br>--- --- -- ----- -- --- want -- --- ---- -- ------ ------<br>--- ----- -- ----,204506.39999997616,204505.09999996424,204321.978,204324.59999996424,204338.645,204521.982,,45,want
screen,html.Screen,2_1_0_1_46,2022-02-17T13:08:13.251Z,,,,,,,,,,,,,,,,,53,,,,,,,,,,,,,,556.0180000000109,,response,,,,99,,,,,,,Space,keypress(Space),,,,,,,,---- -- ----- -- ------ - ------- --- ----------<br>------------- ------ ------ ---- ---- ------- ----- -- ----<br>-------- ------- -- ---------- --- - --- ----- ----- ----<br>---- --- --- ----- --- ---- ---- ------- ----- ---- -------<br>--- --- -- ----- -- --- ---- to --- ---- -- ------ ------<br>--- ----- -- ----,205079.29999995232,205078,204505.315,204506.59999996424,204521.982,205088.66,,46,to
screen,html.Screen,2_1_0_1_47,2022-02-17T13:08:13.579Z,,,,,,,,,,,,,,,,,53,,,,,,,,,,,,,,317.3399999999965,,response,,,,99,,,,,,,Space,keypress(Space),,,,,,,,"---- -- ----- -- ------ - ------- --- ----------<br>------------- ------ ------ ---- ---- ------- ----- -- ----<br>-------- ------- -- ---------- --- - --- ----- ----- ----<br>---- --- --- ----- --- ---- ---- ------- ----- ---- -------<br>--- --- -- ----- -- --- ---- -- be, ---- -- ------ ------<br>--- ----- -- ----",205407.79999995232,205406,205071.993,205079.5,205088.66,205422,,47,"be,"
screen,html.Screen,2_1_0_1_48,2022-02-17T13:08:14.366Z,,,,,,,,,,,,,,,,,53,,,,,,,,,,,,,,771.3999999761581,,response,,,,99,,,,,,,Space,keypress(Space),,,,,,,,---- -- ----- -- ------ - ------- --- ----------<br>------------- ------ ------ ---- ---- ------- ----- -- ----<br>-------- ------- -- ---------- --- - --- ----- ----- ----<br>---- --- --- ----- --- ---- ---- ------- ----- ---- -------<br>--- --- -- ----- -- --- ---- -- --- even -- ------ ------<br>--- ----- -- ----,206194.69999998808,206193.39999997616,205405.333,205408,205422,206205.349,,48,even
screen,html.Screen,2_1_0_1_49,2022-02-17T13:08:14.605Z,,,,,,,,,,,,,,,,,53,,,,,,,,,,,,,,227.65100000001257,,response,,,,99,,,,,,,Space,keypress(Space),,,,,,,,---- -- ----- -- ------ - ------- --- ----------<br>------------- ------ ------ ---- ---- ------- ----- -- ----<br>-------- ------- -- ---------- --- - --- ----- ----- ----<br>---- --- --- ----- --- ---- ---- ------- ----- ---- -------<br>--- --- -- ----- -- --- ---- -- --- ---- if ------ ------<br>--- ----- -- ----,206434.09999996424,206433,206188.682,206194.79999995232,206205.349,206438.687,,49,if
screen,html.Screen,2_1_0_1_50,2022-02-17T13:08:15.029Z,,,,,,,,,,,,,,,,,53,,,,,,,,,,,,,,417.2129999761528,,response,,,,99,,,,,,,Space,keypress(Space),,,,,,,,---- -- ----- -- ------ - ------- --- ----------<br>------------- ------ ------ ---- ---- ------- ----- -- ----<br>-------- ------- -- ---------- --- - --- ----- ----- ----<br>---- --- --- ----- --- ---- ---- ------- ----- ---- -------<br>--- --- -- ----- -- --- ---- -- --- ---- -- that's ------<br>--- ----- -- ----,206857.39999997616,206855.89999997616,206422.02,206434.19999998808,206438.687,206872.564,,50,that's
screen,html.Screen,2_1_0_1_51,2022-02-17T13:08:15.413Z,,,,,,,,,,,,,,,,,53,,,,,,,,,,,,,,367.3359999761451,,response,,,,99,,,,,,,Space,keypress(Space),,,,,,,,---- -- ----- -- ------ - ------- --- ----------<br>------------- ------ ------ ---- ---- ------- ----- -- ----<br>-------- ------- -- ---------- --- - --- ----- ----- ----<br>---- --- --- ----- --- ---- ---- ------- ----- ---- -------<br>--- --- -- ----- -- --- ---- -- --- ---- -- ------ really<br>--- ----- -- ----,207241.29999995232,207239.89999997616,206855.897,206857.59999996424,206872.564,207255.905,,51,really
screen,html.Screen,2_1_0_1_52,2022-02-17T13:08:15.887Z,,,,,,,,,,,,,,,,,53,,,,,,,,,,,,,,457.9949999761593,,response,,,,99,,,,,,,Space,keypress(Space),,,,,,,,---- -- ----- -- ------ - ------- --- ----------<br>------------- ------ ------ ---- ---- ------- ----- -- ----<br>-------- ------- -- ---------- --- - --- ----- ----- ----<br>---- --- --- ----- --- ---- ---- ------- ----- ---- -------<br>--- --- -- ----- -- --- ---- -- --- ---- -- ------ ------<br>not ----- -- ----,207715.29999995232,207713.89999997616,207239.238,207241.39999997616,207255.905,207722.581,,52,not
screen,html.Screen,2_1_0_1_53,2022-02-17T13:08:16.051Z,,,,,,,,,,,,,,,,,53,,,,,,,,,,,,,,155.2189999523107,,response,,,,99,,,,,,,Space,keypress(Space),,,,,,,,---- -- ----- -- ------ - ------- --- ----------<br>------------- ------ ------ ---- ---- ------- ----- -- ----<br>-------- ------- -- ---------- --- - --- ----- ----- ----<br>---- --- --- ----- --- ---- ---- ------- ----- ---- -------<br>--- --- -- ----- -- --- ---- -- --- ---- -- ------ ------<br>--- close -- ----,207879.19999998808,207877.79999995232,207705.914,207715.39999997616,207722.581,207889.251,,53,close
screen,html.Screen,2_1_0_1_54,2022-02-17T13:08:16.717Z,,,,,,,,,,,,,,,,,53,,,,,,,,,,,,,,655.4489999880898,,response,,,,99,,,,,,,Space,keypress(Space),,,,,,,,---- -- ----- -- ------ - ------- --- ----------<br>------------- ------ ------ ---- ---- ------- ----- -- ----<br>-------- ------- -- ---------- --- - --- ----- ----- ----<br>---- --- --- ----- --- ---- ---- ------- ----- ---- -------<br>--- --- -- ----- -- --- ---- -- --- ---- -- ------ ------<br>--- ----- at ----,208546.09999996424,208544.69999998808,207872.584,207879.39999997616,207889.251,208555.931,,54,at
screen,html.Screen,2_1_0_1_55,2022-02-17T13:08:20.398Z,,,,,,,,,,,,,,,,,53,,,,,,,,,,,,,,3669.5689999999886,,response,,,,99,,,,,,,Space,keypress(Space),,,,,,,,---- -- ----- -- ------ - ------- --- ----------<br>------------- ------ ------ ---- ---- ------- ----- -- ----<br>-------- ------- -- ---------- --- - --- ----- ----- ----<br>---- --- --- ----- --- ---- ---- ------- ----- ---- -------<br>--- --- -- ----- -- --- ---- -- --- ---- -- ------ ------<br>--- ----- -- all.,212226.79999995232,212225.5,208539.264,208546.09999996424,208555.931,212239.338,,55,all.
Item 99,flow.Loop,2_1_0_1,2022-02-17T13:08:20.398Z,,,,,,,,,,,,,,,,,,,,,,,,,,,,,,,39355.65700000001,,completion,,,,,D,,,,,,,,,,,silence,,,,,212227,212225.5,172853.176,172854.89999997616,172869.843,212239.338,,,
Question 1,html.Screen,2_1_0_2,2022-02-17T13:08:28.165Z,,,,,,,,,,,,,,,,,,,,,,,,,,,,true,FALSE,,7751.4619999523275,,response,,,,99,D,,,,,,FALSE,click #choice-2,,,,silence,,,,,219993.39999997616,219990.79999995232,212222.671,212227.19999998808,212239.338,220006.634,,,
Question 2,html.Screen,2_1_0_3,2022-02-17T13:08:37.748Z,,,,,,,,,,,,,,,,,,,,,,,,,,,,true,TRUE,,9567.265999976167,,response,,,,99,D,,,,,,TRUE,click #choice-1,,,,silence,,,,,229576.69999998808,229573.89999997616,219989.967,219993.59999996424,220006.634,229590.686,,,
Item 99,flow.Sequence,2_1_0,2022-02-17T13:08:37.748Z,,,,,,,,,,,,,,,,,,,,,,,,,,,,,,,66706.35799997617,,completion,,,,,,,,,,,,,,,,,,,,,229576.79999995232,229573.89999997616,162850.875,162868.69999998808,162867.542,229590.686,,,
Holding screen,html.Screen,2_1_1_0,2022-02-17T13:08:47.747Z,,,,,,,,,,,,,,,,,,,,,,,,,,,,,,,10000.726000000024,,timeout,,,,,,,,,,,,,,,,,,,,,239575.59999996424,239574.745,229574.019,229576.89999997616,229590.686,239591.412,,,
screen,html.Screen,2_1_1_1_0,2022-02-17T13:08:49.337Z,,,,,,,,,,,,,,,,,54,,,,,,,,,,,,,,1572.287999988068,,response,,,,100,,,,,,,Space,keypress(Space),,,,,,,,At --- ---- --- ------ ----- ------- ---- -- --- ------- --<br>------- ---------- ------ -- ----- -- ----- -- ---- ------<br>--- ----- --- --- ------ -------- ----- --- ------ ----- --<br>----- ----- ---------- --- --- ------ ------ ---- -- ------<br>------- --- ------ ----- --- ---- ------- -- ---- --- --<br>------- ------,241165.5,241163.69999998808,239574.745,239575.89999997616,239591.412,241174.777,,0,At
screen,html.Screen,2_1_1_1_1,2022-02-17T13:08:49.966Z,,,,,,,,,,,,,,,,,54,,,,,,,,,,,,,,617.6229999761563,,response,,,,100,,,,,,,Space,keypress(Space),,,,,,,,-- the ---- --- ------ ----- ------- ---- -- --- ------- --<br>------- ---------- ------ -- ----- -- ----- -- ---- ------<br>--- ----- --- --- ------ -------- ----- --- ------ ----- --<br>----- ----- ---------- --- --- ------ ------ ---- -- ------<br>------- --- ------ ----- --- ---- ------- -- ---- --- --<br>------- ------,241793.89999997616,241792.39999997616,241158.11,241165.59999996424,241174.777,241808.123,,1,the
screen,html.Screen,2_1_1_1_2,2022-02-17T13:08:50.432Z,,,,,,,,,,,,,,,,,54,,,,,,,,,,,,,,450.3770000000077,,response,,,,100,,,,,,,Space,keypress(Space),,,,,,,,-- --- time --- ------ ----- ------- ---- -- --- ------- --<br>------- ---------- ------ -- ----- -- ----- -- ---- ------<br>--- ----- --- --- ------ -------- ----- --- ------ ----- --<br>----- ----- ---------- --- --- ------ ------ ---- -- ------<br>------- --- ------ ----- --- ---- ------- -- ---- --- --<br>------- ------,242260,242258.5,241791.456,241794.09999996424,241808.123,242274.799,,2,time
screen,html.Screen,2_1_1_1_3,2022-02-17T13:08:50.835Z,,,,,,,,,,,,,,,,,54,,,,,,,,,,,,,,387.6009999761591,,response,,,,100,,,,,,,Space,keypress(Space),,,,,,,,-- --- ---- the ------ ----- ------- ---- -- --- ------- --<br>------- ---------- ------ -- ----- -- ----- -- ---- ------<br>--- ----- --- --- ------ -------- ----- --- ------ ----- --<br>----- ----- ---------- --- --- ------ ------ ---- -- ------<br>------- --- ------ ----- --- ---- ------- -- ---- --- --<br>------- ------,242663.5,242662.39999997616,242258.132,242260.09999996424,242274.799,242674.807,,3,the
screen,html.Screen,2_1_1_1_4,2022-02-17T13:08:52.009Z,,,,,,,,,,,,,,,,,54,,,,,,,,,,,,,,1161.4929999523156,,response,,,,100,,,,,,,Space,keypress(Space),,,,,,,,-- --- ---- --- French ----- ------- ---- -- --- ------- --<br>------- ---------- ------ -- ----- -- ----- -- ---- ------<br>--- ----- --- --- ------ -------- ----- --- ------ ----- --<br>----- ----- ---------- --- --- ------ ------ ---- -- ------<br>------- --- ------ ----- --- ---- ------- -- ---- --- --<br>------- ------,243837.59999996424,243836.29999995232,242658.14,242663.69999998808,242674.807,243841.497,,4,French
screen,html.Screen,2_1_1_1_5,2022-02-17T13:08:53.016Z,,,,,,,,,,,,,,,,,54,,,,,,,,,,,,,,1001.702999988076,,response,,,,100,,,,,,,Space,keypress(Space),,,,,,,,-- --- ---- --- ------ crown ------- ---- -- --- ------- --<br>------- ---------- ------ -- ----- -- ----- -- ---- ------<br>--- ----- --- --- ------ -------- ----- --- ------ ----- --<br>----- ----- ---------- --- --- ------ ------ ---- -- ------<br>------- --- ------ ----- --- ---- ------- -- ---- --- --<br>------- ------,244844.5,244843.19999998808,243824.83,243837.69999998808,243841.497,244858.184,,5,crown
screen,html.Screen,2_1_1_1_6,2022-02-17T13:08:53.477Z,,,,,,,,,,,,,,,,,54,,,,,,,,,,,,,,446.0159999880707,,response,,,,100,,,,,,,Space,keypress(Space),,,,,,,,-- --- ---- --- ------ ----- secured ---- -- --- ------- --<br>------- ---------- ------ -- ----- -- ----- -- ---- ------<br>--- ----- --- --- ------ -------- ----- --- ------ ----- --<br>----- ----- ---------- --- --- ------ ------ ---- -- ------<br>------- --- ------ ----- --- ---- ------- -- ---- --- --<br>------- ------,245305.5,245304.19999998808,244841.517,244844.69999998808,244858.184,245308.193,,6,secured
screen,html.Screen,2_1_1_1_7,2022-02-17T13:08:53.967Z,,,,,,,,,,,,,,,,,54,,,,,,,,,,,,,,486.00699998807977,,response,,,,100,,,,,,,Space,keypress(Space),,,,,,,,-- --- ---- --- ------ ----- ------- much -- --- ------- --<br>------- ---------- ------ -- ----- -- ----- -- ---- ------<br>--- ----- --- --- ------ -------- ----- --- ------ ----- --<br>----- ----- ---------- --- --- ------ ------ ---- -- ------<br>------- --- ------ ----- --- ---- ------- -- ---- --- --<br>------- ------,245795.5,245794.19999998808,245291.526,245305.59999996424,245308.193,245808.203,,7,much
screen,html.Screen,2_1_1_1_8,2022-02-17T13:08:54.760Z,,,,,,,,,,,,,,,,,54,,,,,,,,,,,,,,778.8969999642286,,response,,,,100,,,,,,,Space,keypress(Space),,,,,,,,-- --- ---- --- ------ ----- ------- ---- of --- ------- --<br>------- ---------- ------ -- ----- -- ----- -- ---- ------<br>--- ----- --- --- ------ -------- ----- --- ------ ----- --<br>----- ----- ---------- --- --- ------ ------ ---- -- ------<br>------- --- ------ ----- --- ---- ------- -- ---- --- --<br>------- ------,246588.39999997616,246587.09999996424,245791.536,245795.59999996424,245808.203,246591.552,,8,of
screen,html.Screen,2_1_1_1_9,2022-02-17T13:08:55.120Z,,,,,,,,,,,,,,,,,54,,,,,,,,,,,,,,355.54799996424117,,response,,,,100,,,,,,,Space,keypress(Space),,,,,,,,-- --- ---- --- ------ ----- ------- ---- -- its ------- --<br>------- ---------- ------ -- ----- -- ----- -- ---- ------<br>--- ----- --- --- ------ -------- ----- --- ------ ----- --<br>----- ----- ---------- --- --- ------ ------ ---- -- ------<br>------- --- ------ ----- --- ---- ------- -- ---- --- --<br>------- ------,246948.29999995232,246947.09999996424,246574.885,246588.59999996424,246591.552,246958.226,,9,its
screen,html.Screen,2_1_1_1_10,2022-02-17T13:08:55.666Z,,,,,,,,,,,,,,,,,54,,,,,,,,,,,,,,534.7740000000049,,response,,,,100,,,,,,,Space,keypress(Space),,,,,,,,-- --- ---- --- ------ ----- ------- ---- -- --- revenue --<br>------- ---------- ------ -- ----- -- ----- -- ---- ------<br>--- ----- --- --- ------ -------- ----- --- ------ ----- --<br>----- ----- ---------- --- --- ------ ------ ---- -- ------<br>------- --- ------ ----- --- ---- ------- -- ---- --- --<br>------- ------,247494.29999995232,247493,246941.559,246948.5,246958.226,247508.237,,10,revenue
screen,html.Screen,2_1_1_1_11,2022-02-17T13:08:56.174Z,,,,,,,,,,,,,,,,,54,,,,,,,,,,,,,,492.7630000000063,,response,,,,100,,,,,,,Space,keypress(Space),,,,,,,,-- --- ---- --- ------ ----- ------- ---- -- --- ------- by<br>------- ---------- ------ -- ----- -- ----- -- ---- ------<br>--- ----- --- --- ------ -------- ----- --- ------ ----- --<br>----- ----- ---------- --- --- ------ ------ ---- -- ------<br>------- --- ------ ----- --- ---- ------- -- ---- --- --<br>------- ------,248002.59999996424,248001,247491.57,247494.39999997616,247508.237,248008.247,,11,by
screen,html.Screen,2_1_1_1_12,2022-02-17T13:08:56.873Z,,,,,,,,,,,,,,,,,54,,,,,,,,,,,,,,691.6529999761551,,response,,,,100,,,,,,,Space,keypress(Space),,,,,,,,-- --- ---- --- ------ ----- ------- ---- -- --- ------- --<br>issuing ---------- ------ -- ----- -- ----- -- ---- ------<br>--- ----- --- --- ------ -------- ----- --- ------ ----- --<br>----- ----- ---------- --- --- ------ ------ ---- -- ------<br>------- --- ------ ----- --- ---- ------- -- ---- --- --<br>------- ------,248701.29999995232,248699.89999997616,247991.58,248002.59999996424,248008.247,248708.261,,12,issuing
screen,html.Screen,2_1_1_1_13,2022-02-17T13:08:58.073Z,,,,,,,,,,,,,,,,,54,,,,,,,,,,,,,,1191.5389999523177,,response,,,,100,,,,,,,Space,keypress(Space),,,,,,,,-- --- ---- --- ------ ----- ------- ---- -- --- ------- --<br>------- government ------ -- ----- -- ----- -- ---- ------<br>--- ----- --- --- ------ -------- ----- --- ------ ----- --<br>----- ----- ---------- --- --- ------ ------ ---- -- ------<br>------- --- ------ ----- --- ---- ------- -- ---- --- --<br>------- ------,249901.09999996424,249899.79999995232,248691.594,248701.29999995232,248708.261,249908.807,,13,government
screen,html.Screen,2_1_1_1_14,2022-02-17T13:09:01.911Z,,,,,,,,,,,,,,,,,54,,,,,,,,,,,,,,3828.3929999880784,,response,,,,100,,,,,,,Space,keypress(Space),,,,,,,,-- --- ---- --- ------ ----- ------- ---- -- --- ------- --<br>------- ---------- bonds. -- ----- -- ----- -- ---- ------<br>--- ----- --- --- ------ -------- ----- --- ------ ----- --<br>----- ----- ---------- --- --- ------ ------ ---- -- ------<br>------- --- ------ ----- --- ---- ------- -- ---- --- --<br>------- ------,253739.19999998808,253737.19999998808,249892.14,249901.19999998808,249908.807,253742.217,,14,bonds.
screen,html.Screen,2_1_1_1_15,2022-02-17T13:09:03.182Z,,,,,,,,,,,,,,,,,54,,,,,,,,,,,,,,1265.9829999880749,,response,,,,100,,,,,,,Space,keypress(Space),,,,,,,,-- --- ---- --- ------ ----- ------- ---- -- --- ------- --<br>------- ---------- ------ In ----- -- ----- -- ---- ------<br>--- ----- --- --- ------ -------- ----- --- ------ ----- --<br>----- ----- ---------- --- --- ------ ------ ---- -- ------<br>------- --- ------ ----- --- ---- ------- -- ---- --- --<br>------- ------,255009.5,255008.19999998808,253725.55,253739.29999995232,253742.217,255025.576,,15,In
screen,html.Screen,2_1_1_1_16,2022-02-17T13:09:04.350Z,,,,,,,,,,,,,,,,,54,,,,,,,,,,,,,,1151.6239999880781,,response,,,,100,,,,,,,Space,keypress(Space),,,,,,,,"-- --- ---- --- ------ ----- ------- ---- -- --- ------- --<br>------- ---------- ------ -- 1727, -- ----- -- ---- ------<br>--- ----- --- --- ------ -------- ----- --- ------ ----- --<br>----- ----- ---------- --- --- ------ ------ ---- -- ------<br>------- --- ------ ----- --- ---- ------- -- ---- --- --<br>------- ------",256178.5,256177.19999998808,255008.909,255009.69999998808,255025.576,256192.266,,16,"1727,"
screen,html.Screen,2_1_1_1_17,2022-02-17T13:09:04.717Z,,,,,,,,,,,,,,,,,54,,,,,,,,,,,,,,350.9339999880758,,response,,,,100,,,,,,,Space,keypress(Space),,,,,,,,-- --- ---- --- ------ ----- ------- ---- -- --- ------- --<br>------- ---------- ------ -- ----- in ----- -- ---- ------<br>--- ----- --- --- ------ -------- ----- --- ------ ----- --<br>----- ----- ---------- --- --- ------ ------ ---- -- ------<br>------- --- ------ ----- --- ---- ------- -- ---- --- --<br>------- ------,256544.59999996424,256543.19999998808,256175.599,256178.5,256192.266,256558.94,,17,in
screen,html.Screen,2_1_1_1_18,2022-02-17T13:09:04.901Z,,,,,,,,,,,,,,,,,54,,,,,,,,,,,,,,169.15999996423488,,response,,,,100,,,,,,,Space,keypress(Space),,,,,,,,-- --- ---- --- ------ ----- ------- ---- -- --- ------- --<br>------- ---------- ------ -- ----- -- order -- ---- ------<br>--- ----- --- --- ------ -------- ----- --- ------ ----- --<br>----- ----- ---------- --- --- ------ ------ ---- -- ------<br>------- --- ------ ----- --- ---- ------- -- ---- --- --<br>------- ------,256729.39999997616,256728.09999996424,256542.273,256544.59999996424,256558.94,256742.277,,18,order
screen,html.Screen,2_1_1_1_19,2022-02-17T13:09:06.286Z,,,,,,,,,,,,,,,,,54,,,,,,,,,,,,,,1370.6229999761563,,response,,,,100,,,,,,,Space,keypress(Space),,,,,,,,-- --- ---- --- ------ ----- ------- ---- -- --- ------- --<br>------- ---------- ------ -- ----- -- ----- to ---- ------<br>--- ----- --- --- ------ -------- ----- --- ------ ----- --<br>----- ----- ---------- --- --- ------ ------ ---- -- ------<br>------- --- ------ ----- --- ---- ------- -- ---- --- --<br>------- ------,258114.19999998808,258112.89999997616,256725.61,256729.59999996424,256742.277,258125.638,,19,to
screen,html.Screen,2_1_1_1_20,2022-02-17T13:09:06.522Z,,,,,,,,,,,,,,,,,54,,,,,,,,,,,,,,223.3619999999937,,response,,,,100,,,,,,,Space,keypress(Space),,,,,,,,-- --- ---- --- ------ ----- ------- ---- -- --- ------- --<br>------- ---------- ------ -- ----- -- ----- -- save ------<br>--- ----- --- --- ------ -------- ----- --- ------ ----- --<br>----- ----- ---------- --- --- ------ ------ ---- -- ------<br>------- --- ------ ----- --- ---- ------- -- ---- --- --<br>------- ------,258350.19999998808,258349,258108.971,258114.29999995232,258125.638,258358.976,,20,save
screen,html.Screen,2_1_1_1_21,2022-02-17T13:09:06.930Z,,,,,,,,,,,,,,,,,54,,,,,,,,,,,,,,397.92399997616303,,response,,,,100,,,,,,,Space,keypress(Space),,,,,,,,"-- --- ---- --- ------ ----- ------- ---- -- --- ------- --<br>------- ---------- ------ -- ----- -- ----- -- ---- money,<br>--- ----- --- --- ------ -------- ----- --- ------ ----- --<br>----- ----- ---------- --- --- ------ ------ ---- -- ------<br>------- --- ------ ----- --- ---- ------- -- ---- --- --<br>------- ------",258758.29999995232,258756.89999997616,258342.309,258350.29999995232,258358.976,258759.459,,21,"money,"
screen,html.Screen,2_1_1_1_22,2022-02-17T13:09:07.564Z,,,,,,,,,,,,,,,,,54,,,,,,,,,,,,,,631.3409999523137,,response,,,,100,,,,,,,Space,keypress(Space),,,,,,,,-- --- ---- --- ------ ----- ------- ---- -- --- ------- --<br>------- ---------- ------ -- ----- -- ----- -- ---- ------<br>the ----- --- --- ------ -------- ----- --- ------ ----- --<br>----- ----- ---------- --- --- ------ ------ ---- -- ------<br>------- --- ------ ----- --- ---- ------- -- ---- --- --<br>------- ------,259392.29999995232,259390.79999995232,258742.792,258758.39999997616,258759.459,259409.472,,22,the
screen,html.Screen,2_1_1_1_23,2022-02-17T13:09:07.979Z,,,,,,,,,,,,,,,,,54,,,,,,,,,,,,,,396.4279999761493,,response,,,,100,,,,,,,Space,keypress(Space),,,,,,,,-- --- ---- --- ------ ----- ------- ---- -- --- ------- --<br>------- ---------- ------ -- ----- -- ----- -- ---- ------<br>--- state --- --- ------ -------- ----- --- ------ ----- --<br>----- ----- ---------- --- --- ------ ------ ---- -- ------<br>------- --- ------ ----- --- ---- ------- -- ---- --- --<br>------- ------,259807.29999995232,259805.89999997616,259392.805,259392.39999997616,259409.472,259809.48,,23,state
screen,html.Screen,2_1_1_1_24,2022-02-17T13:09:08.559Z,,,,,,,,,,,,,,,,,54,,,,,,,,,,,,,,576.3199999523058,,response,,,,100,,,,,,,Space,keypress(Space),,,,,,,,-- --- ---- --- ------ ----- ------- ---- -- --- ------- --<br>------- ---------- ------ -- ----- -- ----- -- ---- ------<br>--- ----- cut --- ------ -------- ----- --- ------ ----- --<br>----- ----- ---------- --- --- ------ ------ ---- -- ------<br>------- --- ------ ----- --- ---- ------- -- ---- --- --<br>------- ------,260387.39999997616,260385.79999995232,259792.813,259807.39999997616,259809.48,260392.825,,24,cut
screen,html.Screen,2_1_1_1_25,2022-02-17T13:09:08.904Z,,,,,,,,,,,,,,,,,54,,,,,,,,,,,,,,337.97499995230464,,response,,,,100,,,,,,,Space,keypress(Space),,,,,,,,-- --- ---- --- ------ ----- ------- ---- -- --- ------- --<br>------- ---------- ------ -- ----- -- ----- -- ---- ------<br>--- ----- --- the ------ -------- ----- --- ------ ----- --<br>----- ----- ---------- --- --- ------ ------ ---- -- ------<br>------- --- ------ ----- --- ---- ------- -- ---- --- --<br>------- ------,260732.29999995232,260730.79999995232,260376.158,260387.39999997616,260392.825,260742.832,,25,the
screen,html.Screen,2_1_1_1_26,2022-02-17T13:09:09.264Z,,,,,,,,,,,,,,,,,54,,,,,,,,,,,,,,347.9679999523214,,response,,,,100,,,,,,,Space,keypress(Space),,,,,,,,-- --- ---- --- ------ ----- ------- ---- -- --- ------- --<br>------- ---------- ------ -- ----- -- ----- -- ---- ------<br>--- ----- --- --- bonds' -------- ----- --- ------ ----- --<br>----- ----- ---------- --- --- ------ ------ ---- -- ------<br>------- --- ------ ----- --- ---- ------- -- ---- --- --<br>------- ------,261092,261090.79999995232,260726.165,260732.39999997616,260742.832,261092.839,,26,bonds'
screen,html.Screen,2_1_1_1_27,2022-02-17T13:09:09.782Z,,,,,,,,,,,,,,,,,54,,,,,,,,,,,,,,515.8609999880719,,response,,,,100,,,,,,,Space,keypress(Space),,,,,,,,-- --- ---- --- ------ ----- ------- ---- -- --- ------- --<br>------- ---------- ------ -- ----- -- ----- -- ---- ------<br>--- ----- --- --- ------ interest ----- --- ------ ----- --<br>----- ----- ---------- --- --- ------ ------ ---- -- ------<br>------- --- ------ ----- --- ---- ------- -- ---- --- --<br>------- ------,261610.09999996424,261608.69999998808,261076.172,261092.09999996424,261092.839,261626.183,,27,interest
screen,html.Screen,2_1_1_1_28,2022-02-17T13:09:10.155Z,,,,,,,,,,,,,,,,,54,,,,,,,,,,,,,,355.5169999880891,,response,,,,100,,,,,,,Space,keypress(Space),,,,,,,,-- --- ---- --- ------ ----- ------- ---- -- --- ------- --<br>------- ---------- ------ -- ----- -- ----- -- ---- ------<br>--- ----- --- --- ------ -------- rate. --- ------ ----- --<br>----- ----- ---------- --- --- ------ ------ ---- -- ------<br>------- --- ------ ----- --- ---- ------- -- ---- --- --<br>------- ------,261982.89999997616,261981.69999998808,261609.516,261610.19999998808,261626.183,261992.857,,28,rate.
screen,html.Screen,2_1_1_1_29,2022-02-17T13:09:12.025Z,,,,,,,,,,,,,,,,,54,,,,,,,,,,,,,,1858.643000000011,,response,,,,100,,,,,,,Space,keypress(Space),,,,,,,,-- --- ---- --- ------ ----- ------- ---- -- --- ------- --<br>------- ---------- ------ -- ----- -- ----- -- ---- ------<br>--- ----- --- --- ------ -------- ----- The ------ ----- --<br>----- ----- ---------- --- --- ------ ------ ---- -- ------<br>------- --- ------ ----- --- ---- ------- -- ---- --- --<br>------- ------,263853.09999996424,263851.5,261976.19,261983,261992.857,263859.561,,29,The
screen,html.Screen,2_1_1_1_30,2022-02-17T13:09:12.510Z,,,,,,,,,,,,,,,,,54,,,,,,,,,,,,,,476.93900000001304,,response,,,,100,,,,,,,Space,keypress(Space),,,,,,,,-- --- ---- --- ------ ----- ------- ---- -- --- ------- --<br>------- ---------- ------ -- ----- -- ----- -- ---- ------<br>--- ----- --- --- ------ -------- ----- --- market ----- --<br>----- ----- ---------- --- --- ------ ------ ---- -- ------<br>------- --- ------ ----- --- ---- ------- -- ---- --- --<br>------- ------,264337.7999999523,264336.5,263842.894,263853.1999999881,263859.561,264342.904,,30,market
screen,html.Screen,2_1_1_1_31,2022-02-17T13:09:12.673Z,,,,,,,,,,,,,,,,,54,,,,,,,,,,,,,,156.4959999761777,,response,,,,100,,,,,,,Space,keypress(Space),,,,,,,,-- --- ---- --- ------ ----- ------- ---- -- --- ------- --<br>------- ---------- ------ -- ----- -- ----- -- ---- ------<br>--- ----- --- --- ------ -------- ----- --- ------ value --<br>----- ----- ---------- --- --- ------ ------ ---- -- ------<br>------- --- ------ ----- --- ---- ------- -- ---- --- --<br>------- ------,264500.7999999523,264499.39999997616,264326.237,264337.89999997616,264342.904,264509.574,,31,value
screen,html.Screen,2_1_1_1_32,2022-02-17T13:09:12.848Z,,,,,,,,,,,,,,,,,54,,,,,,,,,,,,,,164.8259999761358,,response,,,,100,,,,,,,Space,keypress(Space),,,,,,,,-- --- ---- --- ------ ----- ------- ---- -- --- ------- --<br>------- ---------- ------ -- ----- -- ----- -- ---- ------<br>--- ----- --- --- ------ -------- ----- --- ------ ----- of<br>----- ----- ---------- --- --- ------ ------ ---- -- ------<br>------- --- ------ ----- --- ---- ------- -- ---- --- --<br>------- ------,264675.7999999523,264674.39999997616,264492.907,264500.89999997616,264509.574,264692.911,,32,of
screen,html.Screen,2_1_1_1_33,2022-02-17T13:09:13.529Z,,,,,,,,,,,,,,,,,54,,,,,,,,,,,,,,662.5889999999781,,response,,,,100,,,,,,,Space,keypress(Space),,,,,,,,-- --- ---- --- ------ ----- ------- ---- -- --- ------- --<br>------- ---------- ------ -- ----- -- ----- -- ---- ------<br>--- ----- --- --- ------ -------- ----- --- ------ ----- --<br>these ----- ---------- --- --- ------ ------ ---- -- ------<br>------- --- ------ ----- --- ---- ------- -- ---- --- --<br>------- ------,265356.89999997616,265355.5,264676.244,264675.89999997616,264692.911,265359.591,,33,these
screen,html.Screen,2_1_1_1_34,2022-02-17T13:09:13.730Z,,,,,,,,,,,,,,,,,54,,,,,,,,,,,,,,196.80899997614324,,response,,,,100,,,,,,,Space,keypress(Space),,,,,,,,-- --- ---- --- ------ ----- ------- ---- -- --- ------- --<br>------- ---------- ------ -- ----- -- ----- -- ---- ------<br>--- ----- --- --- ------ -------- ----- --- ------ ----- --<br>----- bonds ---------- --- --- ------ ------ ---- -- ------<br>------- --- ------ ----- --- ---- ------- -- ---- --- --<br>------- ------,265557.59999996424,265556.39999997616,265342.924,265357,265359.591,265559.595,,34,bonds
screen,html.Screen,2_1_1_1_35,2022-02-17T13:09:14.859Z,,,,,,,,,,,,,,,,,54,,,,,,,,,,,,,,1125.7049999523442,,response,,,,100,,,,,,,Space,keypress(Space),,,,,,,,"-- --- ---- --- ------ ----- ------- ---- -- --- ------- --<br>------- ---------- ------ -- ----- -- ----- -- ---- ------<br>--- ----- --- --- ------ -------- ----- --- ------ ----- --<br>----- ----- plummeted, --- --- ------ ------ ---- -- ------<br>------- --- ------ ----- --- ---- ------- -- ---- --- --<br>------- ------",266686.59999996424,266685.2999999523,265542.928,265557.6999999881,265559.595,266692.951,,35,"plummeted,"
screen,html.Screen,2_1_1_1_36,2022-02-17T13:09:15.756Z,,,,,,,,,,,,,,,,,54,,,,,,,,,,,,,,889.3489999523154,,response,,,,100,,,,,,,Space,keypress(Space),,,,,,,,-- --- ---- --- ------ ----- ------- ---- -- --- ------- --<br>------- ---------- ------ -- ----- -- ----- -- ---- ------<br>--- ----- --- --- ------ -------- ----- --- ------ ----- --<br>----- ----- ---------- and --- ------ ------ ---- -- ------<br>------- --- ------ ----- --- ---- ------- -- ---- --- --<br>------- ------,267583.59999996424,267582.2999999523,266676.284,266686.6999999881,266692.951,267592.969,,36,and
screen,html.Screen,2_1_1_1_37,2022-02-17T13:09:15.956Z,,,,,,,,,,,,,,,,,54,,,,,,,,,,,,,,189.2309999880963,,response,,,,100,,,,,,,Space,keypress(Space),,,,,,,,-- --- ---- --- ------ ----- ------- ---- -- --- ------- --<br>------- ---------- ------ -- ----- -- ----- -- ---- ------<br>--- ----- --- --- ------ -------- ----- --- ------ ----- --<br>----- ----- ---------- --- the ------ ------ ---- -- ------<br>------- --- ------ ----- --- ---- ------- -- ---- --- --<br>------- ------,267783.5,267782.1999999881,267576.302,267583.59999996424,267592.969,267792.973,,37,the
screen,html.Screen,2_1_1_1_38,2022-02-17T13:09:16.279Z,,,,,,,,,,,,,,,,,54,,,,,,,,,,,,,,312.22699998808093,,response,,,,100,,,,,,,Space,keypress(Space),,,,,,,,-- --- ---- --- ------ ----- ------- ---- -- --- ------- --<br>------- ---------- ------ -- ----- -- ----- -- ---- ------<br>--- ----- --- --- ------ -------- ----- --- ------ ----- --<br>----- ----- ---------- --- --- market ------ ---- -- ------<br>------- --- ------ ----- --- ---- ------- -- ---- --- --<br>------- ------,268106.59999996424,268105.1999999881,267776.306,267783.6999999881,267792.973,268109.646,,38,market
screen,html.Screen,2_1_1_1_39,2022-02-17T13:09:16.461Z,,,,,,,,,,,,,,,,,54,,,,,,,,,,,,,,177.55399998807115,,response,,,,100,,,,,,,Space,keypress(Space),,,,,,,,-- --- ---- --- ------ ----- ------- ---- -- --- ------- --<br>------- ---------- ------ -- ----- -- ----- -- ---- ------<br>--- ----- --- --- ------ -------- ----- --- ------ ----- --<br>----- ----- ---------- --- --- ------ became ---- -- ------<br>------- --- ------ ----- --- ---- ------- -- ---- --- --<br>------- ------,268288.6999999881,268287.1999999881,268092.979,268106.6999999881,268109.646,268292.983,,39,became
screen,html.Screen,2_1_1_1_40,2022-02-17T13:09:16.892Z,,,,,,,,,,,,,,,,,54,,,,,,,,,,,,,,425.11699996422976,,response,,,,100,,,,,,,Space,keypress(Space),,,,,,,,-- --- ---- --- ------ ----- ------- ---- -- --- ------- --<br>------- ---------- ------ -- ----- -- ----- -- ---- ------<br>--- ----- --- --- ------ -------- ----- --- ------ ----- --<br>----- ----- ---------- --- --- ------ ------ wary -- ------<br>------- --- ------ ----- --- ---- ------- -- ---- --- --<br>------- ------,268719.39999997616,268718.09999996424,268276.316,268288.7999999523,268292.983,268726.325,,40,wary
screen,html.Screen,2_1_1_1_41,2022-02-17T13:09:17.323Z,,,,,,,,,,,,,,,,,54,,,,,,,,,,,,,,422.87499998806743,,response,,,,100,,,,,,,Space,keypress(Space),,,,,,,,-- --- ---- --- ------ ----- ------- ---- -- --- ------- --<br>------- ---------- ------ -- ----- -- ----- -- ---- ------<br>--- ----- --- --- ------ -------- ----- --- ------ ----- --<br>----- ----- ---------- --- --- ------ ------ ---- of ------<br>------- --- ------ ----- --- ---- ------- -- ---- --- --<br>------- ------,269150.5,269149.1999999881,268709.658,268719.5,268726.325,269160.167,,41,of
screen,html.Screen,2_1_1_1_42,2022-02-17T13:09:17.538Z,,,,,,,,,,,,,,,,,54,,,,,,,,,,,,,,204.03299998806324,,response,,,,100,,,,,,,Space,keypress(Space),,,,,,,,-- --- ---- --- ------ ----- ------- ---- -- --- ------- --<br>------- ---------- ------ -- ----- -- ----- -- ---- ------<br>--- ----- --- --- ------ -------- ----- --- ------ ----- --<br>----- ----- ---------- --- --- ------ ------ ---- -- French<br>------- --- ------ ----- --- ---- ------- -- ---- --- --<br>------- ------,269365.59999996424,269364.1999999881,269143.5,269150.5,269160.167,269376.838,,42,French
screen,html.Screen,2_1_1_1_43,2022-02-17T13:09:18.691Z,,,,,,,,,,,,,,,,,54,,,,,,,,,,,,,,1140.1620000000112,,response,,,,100,,,,,,,Space,keypress(Space),,,,,,,,-- --- ---- --- ------ ----- ------- ---- -- --- ------- --<br>------- ---------- ------ -- ----- -- ----- -- ---- ------<br>--- ----- --- --- ------ -------- ----- --- ------ ----- --<br>----- ----- ---------- --- --- ------ ------ ---- -- ------<br>credit. --- ------ ----- --- ---- ------- -- ---- --- --<br>------- ------,270518.5,270517,269360.171,269365.6999999881,269376.838,270526.861,,43,credit.
screen,html.Screen,2_1_1_1_44,2022-02-17T13:09:19.076Z,,,,,,,,,,,,,,,,,54,,,,,,,,,,,,,,375.1390000000247,,response,,,,100,,,,,,,Space,keypress(Space),,,,,,,,-- --- ---- --- ------ ----- ------- ---- -- --- ------- --<br>------- ---------- ------ -- ----- -- ----- -- ---- ------<br>--- ----- --- --- ------ -------- ----- --- ------ ----- --<br>----- ----- ---------- --- --- ------ ------ ---- -- ------<br>------- The ------ ----- --- ---- ------- -- ---- --- --<br>------- ------,270903.2999999523,270902,270510.194,270518.59999996424,270526.861,270910.202,,44,The
screen,html.Screen,2_1_1_1_45,2022-02-17T13:09:19.221Z,,,,,,,,,,,,,,,,,54,,,,,,,,,,,,,,137.79800000000978,,response,,,,100,,,,,,,Space,keypress(Space),,,,,,,,-- --- ---- --- ------ ----- ------- ---- -- --- ------- --<br>------- ---------- ------ -- ----- -- ----- -- ---- ------<br>--- ----- --- --- ------ -------- ----- --- ------ ----- --<br>----- ----- ---------- --- --- ------ ------ ---- -- ------<br>------- --- French ----- --- ---- ------- -- ---- --- --<br>------- ------,271049.1999999881,271048,270893.535,270903.39999997616,270910.202,271060.205,,45,French
screen,html.Screen,2_1_1_1_46,2022-02-17T13:09:19.639Z,,,,,,,,,,,,,,,,,54,,,,,,,,,,,,,,404.7949999999837,,response,,,,100,,,,,,,Space,keypress(Space),,,,,,,,-- --- ---- --- ------ ----- ------- ---- -- --- ------- --<br>------- ---------- ------ -- ----- -- ----- -- ---- ------<br>--- ----- --- --- ------ -------- ----- --- ------ ----- --<br>----- ----- ---------- --- --- ------ ------ ---- -- ------<br>------- --- ------ state --- ---- ------- -- ---- --- --<br>------- ------,271466.2999999523,271465,271043.538,271049.2999999523,271060.205,271476.88,,46,state
screen,html.Screen,2_1_1_1_47,2022-02-17T13:09:19.972Z,,,,,,,,,,,,,,,,,54,,,,,,,,,,,,,,321.0199999761535,,response,,,,100,,,,,,,Space,keypress(Space),,,,,,,,-- --- ---- --- ------ ----- ------- ---- -- --- ------- --<br>------- ---------- ------ -- ----- -- ----- -- ---- ------<br>--- ----- --- --- ------ -------- ----- --- ------ ----- --<br>----- ----- ---------- --- --- ------ ------ ---- -- ------<br>------- --- ------ ----- was ---- ------- -- ---- --- --<br>------- ------,271799.2999999523,271797.89999997616,271460.213,271466.2999999523,271476.88,271810.22,,47,was
screen,html.Screen,2_1_1_1_48,2022-02-17T13:09:20.130Z,,,,,,,,,,,,,,,,,54,,,,,,,,,,,,,,146.67999997618608,,response,,,,100,,,,,,,Space,keypress(Space),,,,,,,,-- --- ---- --- ------ ----- ------- ---- -- --- ------- --<br>------- ---------- ------ -- ----- -- ----- -- ---- ------<br>--- ----- --- --- ------ -------- ----- --- ------ ----- --<br>----- ----- ---------- --- --- ------ ------ ---- -- ------<br>------- --- ------ ----- --- left ------- -- ---- --- --<br>------- ------,271958.2999999523,271956.89999997616,271793.553,271799.39999997616,271810.22,271960.223,,48,left
screen,html.Screen,2_1_1_1_49,2022-02-17T13:09:20.598Z,,,,,,,,,,,,,,,,,54,,,,,,,,,,,,,,463.67699997616,,response,,,,100,,,,,,,Space,keypress(Space),,,,,,,,-- --- ---- --- ------ ----- ------- ---- -- --- ------- --<br>------- ---------- ------ -- ----- -- ----- -- ---- ------<br>--- ----- --- --- ------ -------- ----- --- ------ ----- --<br>----- ----- ---------- --- --- ------ ------ ---- -- ------<br>------- --- ------ ----- --- ---- without -- ---- --- --<br>------- ------,272425.2999999523,272423.89999997616,271943.556,271958.2999999523,271960.223,272426.899,,49,without
screen,html.Screen,2_1_1_1_50,2022-02-17T13:09:20.949Z,,,,,,,,,,,,,,,,,54,,,,,,,,,,,,,,348.00099997618236,,response,,,,100,,,,,,,Space,keypress(Space),,,,,,,,-- --- ---- --- ------ ----- ------- ---- -- --- ------- --<br>------- ---------- ------ -- ----- -- ----- -- ---- ------<br>--- ----- --- --- ------ -------- ----- --- ------ ----- --<br>----- ----- ---------- --- --- ------ ------ ---- -- ------<br>------- --- ------ ----- --- ---- ------- an ---- --- --<br>------- ------,272776.59999996424,272774.89999997616,272410.232,272425.39999997616,272426.899,272793.573,,50,an
screen,html.Screen,2_1_1_1_51,2022-02-17T13:09:21.094Z,,,,,,,,,,,,,,,,,54,,,,,,,,,,,,,,126.22699995234143,,response,,,,100,,,,,,,Space,keypress(Space),,,,,,,,-- --- ---- --- ------ ----- ------- ---- -- --- ------- --<br>------- ---------- ------ -- ----- -- ----- -- ---- ------<br>--- ----- --- --- ------ -------- ----- --- ------ ----- --<br>----- ----- ---------- --- --- ------ ------ ---- -- ------<br>------- --- ------ ----- --- ---- ------- -- easy --- --<br>------- ------,272921.7999999523,272919.7999999523,272776.906,272776.59999996424,272793.573,272926.909,,51,easy
screen,html.Screen,2_1_1_1_52,2022-02-17T13:09:21.621Z,,,,,,,,,,,,,,,,,54,,,,,,,,,,,,,,520.8909999523312,,response,,,,100,,,,,,,Space,keypress(Space),,,,,,,,-- --- ---- --- ------ ----- ------- ---- -- --- ------- --<br>------- ---------- ------ -- ----- -- ----- -- ---- ------<br>--- ----- --- --- ------ -------- ----- --- ------ ----- --<br>----- ----- ---------- --- --- ------ ------ ---- -- ------<br>------- --- ------ ----- --- ---- ------- -- ---- way --<br>------- ------,273449.09999996424,273447.7999999523,272910.242,272921.89999997616,272926.909,273460.253,,52,way
screen,html.Screen,2_1_1_1_53,2022-02-17T13:09:21.962Z,,,,,,,,,,,,,,,,,54,,,,,,,,,,,,,,328.5469999522902,,response,,,,100,,,,,,,Space,keypress(Space),,,,,,,,-- --- ---- --- ------ ----- ------- ---- -- --- ------- --<br>------- ---------- ------ -- ----- -- ----- -- ---- ------<br>--- ----- --- --- ------ -------- ----- --- ------ ----- --<br>----- ----- ---------- --- --- ------ ------ ---- -- ------<br>------- --- ------ ----- --- ---- ------- -- ---- --- of<br>------- ------,273790,273788.7999999523,273443.586,273449.2999999523,273460.253,273793.593,,53,of
screen,html.Screen,2_1_1_1_54,2022-02-17T13:09:22.354Z,,,,,,,,,,,,,,,,,54,,,,,,,,,,,,,,386.2069999523228,,response,,,,100,,,,,,,Space,keypress(Space),,,,,,,,-- --- ---- --- ------ ----- ------- ---- -- --- ------- --<br>------- ---------- ------ -- ----- -- ----- -- ---- ------<br>--- ----- --- --- ------ -------- ----- --- ------ ----- --<br>----- ----- ---------- --- --- ------ ------ ---- -- ------<br>------- --- ------ ----- --- ---- ------- -- ---- --- --<br>raising ------,274181.59999996424,274179.7999999523,273776.926,273790.1999999881,273793.593,274193.601,,54,raising
screen,html.Screen,2_1_1_1_55,2022-02-17T13:09:23.487Z,,,,,,,,,,,,,,,,,54,,,,,,,,,,,,,,1120.0989999880549,,response,,,,100,,,,,,,Space,keypress(Space),,,,,,,,-- --- ---- --- ------ ----- ------- ---- -- --- ------- --<br>------- ---------- ------ -- ----- -- ----- -- ---- ------<br>--- ----- --- --- ------ -------- ----- --- ------ ----- --<br>----- ----- ---------- --- --- ------ ------ ---- -- ------<br>------- --- ------ ----- --- ---- ------- -- ---- --- --<br>------- money.,275315,275313.6999999881,274176.934,274181.6999999881,274193.601,275326.957,,55,money.
Item 100,flow.Loop,2_1_1_1,2022-02-17T13:09:23.487Z,,,,,,,,,,,,,,,,,,,,,,,,,,,,,,,35722.28799998807,,completion,,,,,D,,,,,,,,,,,silence,,,,,275315.09999996424,275313.6999999881,239574.745,239575.79999995232,239591.412,275326.957,,,
Question 1,html.Screen,2_1_1_2,2022-02-17T13:09:29.334Z,,,,,,,,,,,,,,,,,,,,,,,,,,,,true,TRUE,,5832.242999988084,,response,,,,100,D,,,,,,TRUE,click #choice-1,,,,silence,,,,,281161.89999997616,281159.1999999881,275310.29,275315.1999999881,275326.957,281160.896,,,
Question 2,html.Screen,2_1_1_3,2022-02-17T13:09:32.609Z,,,,,,,,,,,,,,,,,,,,,,,,,,,,true,FALSE,,3272.603999999992,,response,,,,100,D,,,,,,FALSE,click #choice-2,,,,silence,,,,,284436.2999999523,284433.5,281144.229,281162.09999996424,281160.896,284444.295,,,
Item 100,flow.Sequence,2_1_1,2022-02-17T13:09:32.609Z,,,,,,,,,,,,,,,,,,,,,,,,,,,,,,,54842.81400000001,,completion,,,,,,,,,,,,,,,,,,,,,284436.5,284433.5,229574.019,229576.89999997616,229590.686,284444.295,,,
End of Practice,html.Page,2_1_2,2022-02-17T13:09:39.674Z,,,,,,,,,,,,,,,,,,,,,,,,,,,,,,,7056.404999988095,,form submission,,,,,,,,,,,,,,,,,,,,,291501.89999997616,291500.6999999881,284427.628,284436.5,284444.295,291511.103,,,
Practice,flow.Sequence,2_1,2022-02-17T13:09:39.675Z,,,,,,,,,,,,,,,,,,,,,,,,,,,,,,,128633.15799998809,,completion,,,,,,,,,,,,,,,,,,,,,291502,291500.6999999881,162850.875,162868.59999996424,162867.542,291511.103,,,
Trap_instruction,html.Page,2_2_0,2022-02-17T13:09:48.257Z,,,,,,,,,,,,,,,,,,,,,,,,,,,,,,,8572.396999999997,,form submission,,,,,,,,,,,,,,,,,,,,,300084.6999999881,300083.5,291494.436,291502.1999999881,291511.103,300111.891,,,
trap_trial,html.Screen,2_2_1,2022-02-17T13:09:54.922Z,,,,,,,,,,,,,,,,,,,,,,,,,,,,true,1,,6634.508999976155,,response,,,,,,,,,,,1,click #choice-1,,,,,,,,,306749.39999997616,306746.39999997616,300078.557,300084.7999999523,300111.891,306762.024,,,
end of trap trial,html.Page,2_2_2,2022-02-17T13:09:57.498Z,,,,,,,,,,,,,,,,,,,,,,,,,,,,,,,2561.7759999523405,,form submission,,,,,,,,,,,,,,,,,,,,,309325,309323.7999999523,306745.357,306749.59999996424,306762.024,309329.524,,,
Trap 1,flow.Sequence,2_2,2022-02-17T13:09:57.498Z,,,,,,,,,,,,,,,,,,,,,,,,,,,,,,,17812.696999952313,,completion,,,,,,,,,,,,,,,,,,,,,309325.1999999881,309323.7999999523,291494.436,291502.09999996424,291511.103,309329.524,,,
Standby,html.Page,2_3_0,2022-02-17T13:10:05.488Z,,,,,,,,,,,,,,,,,,,,,,,,,,,,,,,8000.160000000033,,timeout,,,,,,,,,,,,,,,,,,,,,317314.59999996424,317313.017,309312.857,309325.39999997616,309329.524,317329.684,,,
Holding screen,html.Screen,2_3_1_0_0,2022-02-17T13:10:12.488Z,,,,,,,,,,,,,,,,,,,,,,,,,,,,,,,7000.65499999997,,timeout,,,,,,,,,,,,,,,,,,,,,324314.89999997616,324313.672,317313.017,317314.7999999523,317329.684,324330.339,,,
screen,html.Screen,2_3_1_0_1_0,2022-02-17T13:10:13.976Z,,,,,,,,,,,,,,,,,15,,,,,,,,,,,,,,1470.1610000000219,,response,,,,7,D,,,,,,Space,keypress(Space),,,,silence,,,,Greg --------- ---------- - --- ------- -- --- ------------<br>----- -- -------- ------- ---- ------ - -------- ---- -----<br>--- ------- ---- -- --- -------- --- - ----- ------ ---- --<br>-------- --- -------- -------- --- -------- ---- -- ----- -<br>-------- ---- --- ---------- --------- -- ------- ------ -<br>--------- ----- -----,325802.59999996424,325800.5,324313.672,324315,324330.339,325813.702,,0,Greg
screen,html.Screen,2_3_1_0_1_1,2022-02-17T13:10:15.790Z,,,,,,,,,,,,,,,,,15,,,,,,,,,,,,,,1801.4979999880888,,response,,,,7,D,,,,,,Space,keypress(Space),,,,silence,,,,"---- Anderson, ---------- - --- ------- -- --- ------------<br>----- -- -------- ------- ---- ------ - -------- ---- -----<br>--- ------- ---- -- --- -------- --- - ----- ------ ---- --<br>-------- --- -------- -------- --- -------- ---- -- ----- -<br>-------- ---- --- ---------- --------- -- ------- ------ -<br>--------- ----- -----",327616.59999996424,327615.1999999881,325797.035,325802.6999999881,325813.702,327630.405,,1,"Anderson,"
screen,html.Screen,2_3_1_0_1_2,2022-02-17T13:10:16.626Z,,,,,,,,,,,,,,,,,15,,,,,,,,,,,,,,820.7949999880511,,response,,,,7,D,,,,,,Space,keypress(Space),,,,silence,,,,---- --------- considered - --- ------- -- --- ------------<br>----- -- -------- ------- ---- ------ - -------- ---- -----<br>--- ------- ---- -- --- -------- --- - ----- ------ ---- --<br>-------- --- -------- -------- --- -------- ---- -- ----- -<br>-------- ---- --- ---------- --------- -- ------- ------ -<br>--------- ----- -----,328452.39999997616,328451.1999999881,327613.738,327616.6999999881,327630.405,328463.755,,2,considered
screen,html.Screen,2_3_1_0_1_3,2022-02-17T13:10:16.773Z,,,,,,,,,,,,,,,,,15,,,,,,,,,,,,,,134.44499998807441,,response,,,,7,D,,,,,,Space,keypress(Space),,,,silence,,,,---- --------- ---------- a --- ------- -- --- ------------<br>----- -- -------- ------- ---- ------ - -------- ---- -----<br>--- ------- ---- -- --- -------- --- - ----- ------ ---- --<br>-------- --- -------- -------- --- -------- ---- -- ----- -<br>-------- ---- --- ---------- --------- -- ------- ------ -<br>--------- ----- -----,328599.59999996424,328598.1999999881,328447.088,328452.5,328463.755,328614.262,,3,a
screen,html.Screen,2_3_1_0_1_4,2022-02-17T13:10:16.950Z,,,,,,,,,,,,,,,,,15,,,,,,,,,,,,,,160.93799998809118,,response,,,,7,D,,,,,,Space,keypress(Space),,,,silence,,,,---- --------- ---------- - key ------- -- --- ------------<br>----- -- -------- ------- ---- ------ - -------- ---- -----<br>--- ------- ---- -- --- -------- --- - ----- ------ ---- --<br>-------- --- -------- -------- --- -------- ---- -- ----- -<br>-------- ---- --- ---------- --------- -- ------- ------ -<br>--------- ----- -----,328776.39999997616,328775.1999999881,328597.595,328599.6999999881,328614.262,328780.932,,4,key
screen,html.Screen,2_3_1_0_1_5,2022-02-17T13:10:18.244Z,,,,,,,,,,,,,,,,,15,,,,,,,,,,,,,,1288.1679999642656,,response,,,,7,D,,,,,,Space,keypress(Space),,,,silence,,,,---- --------- ---------- - --- witness -- --- ------------<br>----- -- -------- ------- ---- ------ - -------- ---- -----<br>--- ------- ---- -- --- -------- --- - ----- ------ ---- --<br>-------- --- -------- -------- --- -------- ---- -- ----- -<br>-------- ---- --- ---------- --------- -- ------- ------ -<br>--------- ----- -----,330070.7999999523,330069.09999996424,328764.265,328776.59999996424,328780.932,330080.958,,5,witness
screen,html.Screen,2_3_1_0_1_6,2022-02-17T13:10:18.551Z,,,,,,,,,,,,,,,,,15,,,,,,,,,,,,,,296.04200000001583,,response,,,,7,D,,,,,,Space,keypress(Space),,,,silence,,,,---- --------- ---------- - --- ------- by --- ------------<br>----- -- -------- ------- ---- ------ - -------- ---- -----<br>--- ------- ---- -- --- -------- --- - ----- ------ ---- --<br>-------- --- -------- -------- --- -------- ---- -- ----- -<br>-------- ---- --- ---------- --------- -- ------- ------ -<br>--------- ----- -----,330378.39999997616,330377,330064.291,330071,330080.958,330380.964,,6,by
screen,html.Screen,2_3_1_0_1_7,2022-02-17T13:10:18.751Z,,,,,,,,,,,,,,,,,15,,,,,,,,,,,,,,195.0360000000219,,response,,,,7,D,,,,,,Space,keypress(Space),,,,silence,,,,---- --------- ---------- - --- ------- -- the ------------<br>----- -- -------- ------- ---- ------ - -------- ---- -----<br>--- ------- ---- -- --- -------- --- - ----- ------ ---- --<br>-------- --- -------- -------- --- -------- ---- -- ----- -<br>-------- ---- --- ---------- --------- -- ------- ------ -<br>--------- ----- -----,330577.5,330576,330364.297,330378.5,330380.964,330580.968,,7,the
screen,html.Screen,2_3_1_0_1_8,2022-02-17T13:10:19.724Z,,,,,,,,,,,,,,,,,15,,,,,,,,,,,,,,969.0320000000065,,response,,,,7,D,,,,,,Space,keypress(Space),,,,silence,,,,"---- --------- ---------- - --- ------- -- --- prosecution,<br>----- -- -------- ------- ---- ------ - -------- ---- -----<br>--- ------- ---- -- --- -------- --- - ----- ------ ---- --<br>-------- --- -------- -------- --- -------- ---- -- ----- -<br>-------- ---- --- ---------- --------- -- ------- ------ -<br>--------- ----- -----",331551.1999999881,331550,330564.301,330577.59999996424,330580.968,331564.321,,8,"prosecution,"
screen,html.Screen,2_3_1_0_1_9,2022-02-17T13:10:20.675Z,,,,,,,,,,,,,,,,,15,,,,,,,,,,,,,,936.5789999761619,,response,,,,7,D,,,,,,Space,keypress(Space),,,,silence,,,,---- --------- ---------- - --- ------- -- --- ------------<br>vowed -- -------- ------- ---- ------ - -------- ---- -----<br>--- ------- ---- -- --- -------- --- - ----- ------ ---- --<br>-------- --- -------- -------- --- -------- ---- -- ----- -<br>-------- ---- --- ---------- --------- -- ------- ------ -<br>--------- ----- -----,332502.1999999881,332500.89999997616,331547.654,331551.2999999523,331564.321,332514.34,,9,vowed
screen,html.Screen,2_3_1_0_1_10,2022-02-17T13:10:21.137Z,,,,,,,,,,,,,,,,,15,,,,,,,,,,,,,,448.4599999522907,,response,,,,7,D,,,,,,Space,keypress(Space),,,,silence,,,,---- --------- ---------- - --- ------- -- --- ------------<br>----- he -------- ------- ---- ------ - -------- ---- -----<br>--- ------- ---- -- --- -------- --- - ----- ------ ---- --<br>-------- --- -------- -------- --- -------- ---- -- ----- -<br>-------- ---- --- ---------- --------- -- ------- ------ -<br>--------- ----- -----,332964.2999999523,332962.7999999523,332497.673,332502.2999999523,332514.34,332981.016,,10,he
screen,html.Screen,2_3_1_0_1_11,2022-02-17T13:10:21.323Z,,,,,,,,,,,,,,,,,15,,,,,,,,,,,,,,167.88399997615488,,response,,,,7,D,,,,,,Space,keypress(Space),,,,silence,,,,---- --------- ---------- - --- ------- -- --- ------------<br>----- -- wouldn't ------- ---- ------ - -------- ---- -----<br>--- ------- ---- -- --- -------- --- - ----- ------ ---- --<br>-------- --- -------- -------- --- -------- ---- -- ----- -<br>-------- ---- --- ---------- --------- -- ------- ------ -<br>--------- ----- -----,333150.1999999881,333148.89999997616,332964.349,332964.39999997616,332981.016,333164.353,,11,wouldn't
screen,html.Screen,2_3_1_0_1_12,2022-02-17T13:10:22.860Z,,,,,,,,,,,,,,,,,15,,,,,,,,,,,,,,1521.3469999880763,,response,,,,7,D,,,,,,Space,keypress(Space),,,,silence,,,,---- --------- ---------- - --- ------- -- --- ------------<br>----- -- -------- testify ---- ------ - -------- ---- -----<br>--- ------- ---- -- --- -------- --- - ----- ------ ---- --<br>-------- --- -------- -------- --- -------- ---- -- ----- -<br>-------- ---- --- ---------- --------- -- ------- ------ -<br>--------- ----- -----,334687,334685.6999999881,333147.686,333150.2999999523,333164.353,334697.717,,12,testify
screen,html.Screen,2_3_1_0_1_13,2022-02-17T13:10:23.428Z,,,,,,,,,,,,,,,,,15,,,,,,,,,,,,,,555.9829999880749,,response,,,,7,D,,,,,,Space,keypress(Space),,,,silence,,,,---- --------- ---------- - --- ------- -- --- ------------<br>----- -- -------- ------- when ------ - -------- ---- -----<br>--- ------- ---- -- --- -------- --- - ----- ------ ---- --<br>-------- --- -------- -------- --- -------- ---- -- ----- -<br>-------- ---- --- ---------- --------- -- ------- ------ -<br>--------- ----- -----,335254.89999997616,335253.6999999881,334681.05,334687.09999996424,334697.717,335264.395,,13,when
screen,html.Screen,2_3_1_0_1_14,2022-02-17T13:10:24.003Z,,,,,,,,,,,,,,,,,15,,,,,,,,,,,,,,563.2049999642186,,response,,,,7,D,,,,,,Space,keypress(Space),,,,silence,,,,---- --------- ---------- - --- ------- -- --- ------------<br>----- -- -------- ------- ---- served - -------- ---- -----<br>--- ------- ---- -- --- -------- --- - ----- ------ ---- --<br>-------- --- -------- -------- --- -------- ---- -- ----- -<br>-------- ---- --- ---------- --------- -- ------- ------ -<br>--------- ----- -----,335829.2999999523,335827.59999996424,335247.728,335255,335264.395,335831.073,,14,served
screen,html.Screen,2_3_1_0_1_15,2022-02-17T13:10:24.261Z,,,,,,,,,,,,,,,,,15,,,,,,,,,,,,,,255.52699996426236,,response,,,,7,D,,,,,,Space,keypress(Space),,,,silence,,,,---- --------- ---------- - --- ------- -- --- ------------<br>----- -- -------- ------- ---- ------ a -------- ---- -----<br>--- ------- ---- -- --- -------- --- - ----- ------ ---- --<br>-------- --- -------- -------- --- -------- ---- -- ----- -<br>-------- ---- --- ---------- --------- -- ------- ------ -<br>--------- ----- -----,336088,336086.59999996424,335814.406,335829.5,335831.073,336097.745,,15,a
screen,html.Screen,2_3_1_0_1_16,2022-02-17T13:10:25.882Z,,,,,,,,,,,,,,,,,15,,,,,,,,,,,,,,1609.7550000000047,,response,,,,7,D,,,,,,Space,keypress(Space),,,,silence,,,,---- --------- ---------- - --- ------- -- --- ------------<br>----- -- -------- ------- ---- ------ - subpoena ---- -----<br>--- ------- ---- -- --- -------- --- - ----- ------ ---- --<br>-------- --- -------- -------- --- -------- ---- -- ----- -<br>-------- ---- --- ---------- --------- -- ------- ------ -<br>--------- ----- -----,337708.6999999881,337707.5,336081.078,336088,336097.745,337714.444,,16,subpoena
screen,html.Screen,2_3_1_0_1_17,2022-02-17T13:10:26.562Z,,,,,,,,,,,,,,,,,15,,,,,,,,,,,,,,672.9559999761404,,response,,,,7,D,,,,,,Space,keypress(Space),,,,silence,,,,---- --------- ---------- - --- ------- -- --- ------------<br>----- -- -------- ------- ---- ------ - -------- last -----<br>--- ------- ---- -- --- -------- --- - ----- ------ ---- --<br>-------- --- -------- -------- --- -------- ---- -- ----- -<br>-------- ---- --- ---------- --------- -- ------- ------ -<br>--------- ----- -----,338388.59999996424,338387.39999997616,337697.777,337708.7999999523,337714.444,338397.791,,17,last
screen,html.Screen,2_3_1_0_1_18,2022-02-17T13:10:26.833Z,,,,,,,,,,,,,,,,,15,,,,,,,,,,,,,,260.70899999997346,,response,,,,7,D,,,,,,Space,keypress(Space),,,,silence,,,,---- --------- ---------- - --- ------- -- --- ------------<br>----- -- -------- ------- ---- ------ - -------- ---- week.<br>--- ------- ---- -- --- -------- --- - ----- ------ ---- --<br>-------- --- -------- -------- --- -------- ---- -- ----- -<br>-------- ---- --- ---------- --------- -- ------- ------ -<br>--------- ----- -----,338659.7999999523,338658.5,338381.124,338388.6999999881,338397.791,338664.958,,18,week.
screen,html.Screen,2_3_1_0_1_19,2022-02-17T13:10:28.435Z,,,,,,,,,,,,,,,,,15,,,,,,,,,,,,,,1595.3419999523321,,response,,,,7,D,,,,,,Space,keypress(Space),,,,silence,,,,---- --------- ---------- - --- ------- -- --- ------------<br>----- -- -------- ------- ---- ------ - -------- ---- -----<br>His ------- ---- -- --- -------- --- - ----- ------ ---- --<br>-------- --- -------- -------- --- -------- ---- -- ----- -<br>-------- ---- --- ---------- --------- -- ------- ------ -<br>--------- ----- -----,340261.59999996424,340260.2999999523,338648.291,338659.89999997616,338664.958,340264.99,,19,His
screen,html.Screen,2_3_1_0_1_20,2022-02-17T13:10:28.994Z,,,,,,,,,,,,,,,,,15,,,,,,,,,,,,,,554.3099999523256,,response,,,,7,D,,,,,,Space,keypress(Space),,,,silence,,,,---- --------- ---------- - --- ------- -- --- ------------<br>----- -- -------- ------- ---- ------ - -------- ---- -----<br>--- lawyers ---- -- --- -------- --- - ----- ------ ---- --<br>-------- --- -------- -------- --- -------- ---- -- ----- -<br>-------- ---- --- ---------- --------- -- ------- ------ -<br>--------- ----- -----,340820.5,340819.2999999523,340248.323,340261.7999999523,340264.99,340831.668,,20,lawyers
screen,html.Screen,2_3_1_0_1_21,2022-02-17T13:10:29.218Z,,,,,,,,,,,,,,,,,15,,,,,,,,,,,,,,211.63199995231116,,response,,,,7,D,,,,,,Space,keypress(Space),,,,silence,,,,---- --------- ---------- - --- ------- -- --- ------------<br>----- -- -------- ------- ---- ------ - -------- ---- -----<br>--- ------- said -- --- -------- --- - ----- ------ ---- --<br>-------- --- -------- -------- --- -------- ---- -- ----- -<br>-------- ---- --- ---------- --------- -- ------- ------ -<br>--------- ----- -----,341044.5,341043.2999999523,340815.001,340820.59999996424,340831.668,341048.339,,21,said
screen,html.Screen,2_3_1_0_1_22,2022-02-17T13:10:29.628Z,,,,,,,,,,,,,,,,,15,,,,,,,,,,,,,,404.86099998810096,,response,,,,7,D,,,,,,Space,keypress(Space),,,,silence,,,,---- --------- ---------- - --- ------- -- --- ------------<br>----- -- -------- ------- ---- ------ - -------- ---- -----<br>--- ------- ---- he --- -------- --- - ----- ------ ---- --<br>-------- --- -------- -------- --- -------- ---- -- ----- -<br>-------- ---- --- ---------- --------- -- ------- ------ -<br>--------- ----- -----,341454.5,341453.1999999881,341031.672,341044.59999996424,341048.339,341465.014,,22,he
screen,html.Screen,2_3_1_0_1_23,2022-02-17T13:10:29.803Z,,,,,,,,,,,,,,,,,15,,,,,,,,,,,,,,163.08599996421253,,response,,,,7,D,,,,,,Space,keypress(Space),,,,silence,,,,---- --------- ---------- - --- ------- -- --- ------------<br>----- -- -------- ------- ---- ------ - -------- ---- -----<br>--- ------- ---- -- was -------- --- - ----- ------ ---- --<br>-------- --- -------- -------- --- -------- ---- -- ----- -<br>-------- ---- --- ---------- --------- -- ------- ------ -<br>--------- ----- -----,341629.39999997616,341628.09999996424,341448.347,341454.5,341465.014,341631.684,,23,was
screen,html.Screen,2_3_1_0_1_24,2022-02-17T13:10:30.264Z,,,,,,,,,,,,,,,,,15,,,,,,,,,,,,,,457.5159999880707,,response,,,,7,D,,,,,,Space,keypress(Space),,,,silence,,,,---- --------- ---------- - --- ------- -- --- ------------<br>----- -- -------- ------- ---- ------ - -------- ---- -----<br>--- ------- ---- -- --- prepared --- - ----- ------ ---- --<br>-------- --- -------- -------- --- -------- ---- -- ----- -<br>-------- ---- --- ---------- --------- -- ------- ------ -<br>--------- ----- -----,342090.5,342089.1999999881,341615.017,341629.59999996424,341631.684,342098.36,,24,prepared
screen,html.Screen,2_3_1_0_1_25,2022-02-17T13:10:30.639Z,,,,,,,,,,,,,,,,,15,,,,,,,,,,,,,,365.83999998809304,,response,,,,7,D,,,,,,Space,keypress(Space),,,,silence,,,,---- --------- ---------- - --- ------- -- --- ------------<br>----- -- -------- ------- ---- ------ - -------- ---- -----<br>--- ------- ---- -- --- -------- for - ----- ------ ---- --<br>-------- --- -------- -------- --- -------- ---- -- ----- -<br>-------- ---- --- ---------- --------- -- ------- ------ -<br>--------- ----- -----,342465.2999999523,342464.1999999881,342081.693,342090.5,342098.36,342481.701,,25,for
screen,html.Screen,2_3_1_0_1_26,2022-02-17T13:10:30.814Z,,,,,,,,,,,,,,,,,15,,,,,,,,,,,,,,157.39899996423628,,response,,,,7,D,,,,,,Space,keypress(Space),,,,silence,,,,---- --------- ---------- - --- ------- -- --- ------------<br>----- -- -------- ------- ---- ------ - -------- ---- -----<br>--- ------- ---- -- --- -------- --- a ----- ------ ---- --<br>-------- --- -------- -------- --- -------- ---- -- ----- -<br>-------- ---- --- ---------- --------- -- ------- ------ -<br>--------- ----- -----,342640.39999997616,342639.09999996424,342465.034,342465.39999997616,342481.701,342648.371,,26,a
screen,html.Screen,2_3_1_0_1_27,2022-02-17T13:10:31.191Z,,,,,,,,,,,,,,,,,15,,,,,,,,,,,,,,367.7289999642526,,response,,,,7,D,,,,,,Space,keypress(Space),,,,silence,,,,---- --------- ---------- - --- ------- -- --- ------------<br>----- -- -------- ------- ---- ------ - -------- ---- -----<br>--- ------- ---- -- --- -------- --- - third ------ ---- --<br>-------- --- -------- -------- --- -------- ---- -- ----- -<br>-------- ---- --- ---------- --------- -- ------- ------ -<br>--------- ----- -----,343017.5,343016.09999996424,342631.704,342640.5,342648.371,343031.712,,27,third
screen,html.Screen,2_3_1_0_1_28,2022-02-17T13:10:31.349Z,,,,,,,,,,,,,,,,,15,,,,,,,,,,,,,,142.28800000000047,,response,,,,7,D,,,,,,Space,keypress(Space),,,,silence,,,,---- --------- ---------- - --- ------- -- --- ------------<br>----- -- -------- ------- ---- ------ - -------- ---- -----<br>--- ------- ---- -- --- -------- --- - ----- prison ---- --<br>-------- --- -------- -------- --- -------- ---- -- ----- -<br>-------- ---- --- ---------- --------- -- ------- ------ -<br>--------- ----- -----,343175.2999999523,343174,343015.045,343017.5,343031.712,343181.715,,28,prison
screen,html.Screen,2_3_1_0_1_29,2022-02-17T13:10:31.963Z,,,,,,,,,,,,,,,,,15,,,,,,,,,,,,,,606.2849999999744,,response,,,,7,D,,,,,,Space,keypress(Space),,,,silence,,,,---- --------- ---------- - --- ------- -- --- ------------<br>----- -- -------- ------- ---- ------ - -------- ---- -----<br>--- ------- ---- -- --- -------- --- - ----- ------ stay --<br>-------- --- -------- -------- --- -------- ---- -- ----- -<br>-------- ---- --- ---------- --------- -- ------- ------ -<br>--------- ----- -----,343789.59999996424,343788,343165.048,343175.39999997616,343181.715,343798.394,,29,stay
screen,html.Screen,2_3_1_0_1_30,2022-02-17T13:10:32.435Z,,,,,,,,,,,,,,,,,15,,,,,,,,,,,,,,461.60600000002887,,response,,,,7,D,,,,,,Space,keypress(Space),,,,silence,,,,---- --------- ---------- - --- ------- -- --- ------------<br>----- -- -------- ------- ---- ------ - -------- ---- -----<br>--- ------- ---- -- --- -------- --- - ----- ------ ---- to<br>-------- --- -------- -------- --- -------- ---- -- ----- -<br>-------- ---- --- ---------- --------- -- ------- ------ -<br>--------- ----- -----,344261.5,344260,343781.727,343789.6999999881,343798.394,344265.07,,30,to
screen,html.Screen,2_3_1_0_1_31,2022-02-17T13:10:32.860Z,,,,,,,,,,,,,,,,,15,,,,,,,,,,,,,,419.929999999993,,response,,,,7,D,,,,,,Space,keypress(Space),,,,silence,,,,---- --------- ---------- - --- ------- -- --- ------------<br>----- -- -------- ------- ---- ------ - -------- ---- -----<br>--- ------- ---- -- --- -------- --- - ----- ------ ---- --<br>maintain --- -------- -------- --- -------- ---- -- ----- -<br>-------- ---- --- ---------- --------- -- ------- ------ -<br>--------- ----- -----,344686.39999997616,344685,344248.403,344261.59999996424,344265.07,344698.412,,31,maintain
screen,html.Screen,2_3_1_0_1_32,2022-02-17T13:10:33.206Z,,,,,,,,,,,,,,,,,15,,,,,,,,,,,,,,332.5879999999888,,response,,,,7,D,,,,,,Space,keypress(Space),,,,silence,,,,---- --------- ---------- - --- ------- -- --- ------------<br>----- -- -------- ------- ---- ------ - -------- ---- -----<br>--- ------- ---- -- --- -------- --- - ----- ------ ---- --<br>-------- his -------- -------- --- -------- ---- -- ----- -<br>-------- ---- --- ---------- --------- -- ------- ------ -<br>--------- ----- -----,345032.2999999523,345031,344681.745,344686.5,344698.412,345048.419,,32,his
screen,html.Screen,2_3_1_0_1_33,2022-02-17T13:10:33.360Z,,,,,,,,,,,,,,,,,15,,,,,,,,,,,,,,137.5810000000056,,response,,,,7,D,,,,,,Space,keypress(Space),,,,silence,,,,---- --------- ---------- - --- ------- -- --- ------------<br>----- -- -------- ------- ---- ------ - -------- ---- -----<br>--- ------- ---- -- --- -------- --- - ----- ------ ---- --<br>-------- --- silence. -------- --- -------- ---- -- ----- -<br>-------- ---- --- ---------- --------- -- ------- ------ -<br>--------- ----- -----,345187.09999996424,345186,345031.752,345032.2999999523,345048.419,345198.422,,33,silence.
screen,html.Screen,2_3_1_0_1_34,2022-02-17T13:10:34.354Z,,,,,,,,,,,,,,,,,15,,,,,,,,,,,,,,980.3779999522958,,response,,,,7,D,,,,,,Space,keypress(Space),,,,silence,,,,---- --------- ---------- - --- ------- -- --- ------------<br>----- -- -------- ------- ---- ------ - -------- ---- -----<br>--- ------- ---- -- --- -------- --- - ----- ------ ---- --<br>-------- --- -------- Anderson --- -------- ---- -- ----- -<br>-------- ---- --- ---------- --------- -- ------- ------ -<br>--------- ----- -----,346180.59999996424,346178.7999999523,345181.755,345187.2999999523,345198.422,346181.775,,34,Anderson
screen,html.Screen,2_3_1_0_1_35,2022-02-17T13:10:35.181Z,,,,,,,,,,,,,,,,,15,,,,,,,,,,,,,,825.024999952293,,response,,,,7,D,,,,,,Space,keypress(Space),,,,silence,,,,---- --------- ---------- - --- ------- -- --- ------------<br>----- -- -------- ------- ---- ------ - -------- ---- -----<br>--- ------- ---- -- --- -------- --- - ----- ------ ---- --<br>-------- --- -------- -------- was -------- ---- -- ----- -<br>-------- ---- --- ---------- --------- -- ------- ------ -<br>--------- ----- -----,347008.09999996424,347006.7999999523,346165.108,346180.6999999881,346181.775,347015.125,,35,was
screen,html.Screen,2_3_1_0_1_36,2022-02-17T13:10:35.538Z,,,,,,,,,,,,,,,,,15,,,,,,,,,,,,,,348.57499998807907,,response,,,,7,D,,,,,,Space,keypress(Space),,,,silence,,,,---- --------- ---------- - --- ------- -- --- ------------<br>----- -- -------- ------- ---- ------ - -------- ---- -----<br>--- ------- ---- -- --- -------- --- - ----- ------ ---- --<br>-------- --- -------- -------- --- released ---- -- ----- -<br>-------- ---- --- ---------- --------- -- ------- ------ -<br>--------- ----- -----,347365,347363.6999999881,346998.458,347008.09999996424,347015.125,347381.799,,36,released
screen,html.Screen,2_3_1_0_1_37,2022-02-17T13:10:36.562Z,,,,,,,,,,,,,,,,,15,,,,,,,,,,,,,,1005.90099998808,,response,,,,7,D,,,,,,Space,keypress(Space),,,,silence,,,,---- --------- ---------- - --- ------- -- --- ------------<br>----- -- -------- ------- ---- ------ - -------- ---- -----<br>--- ------- ---- -- --- -------- --- - ----- ------ ---- --<br>-------- --- -------- -------- --- -------- July -- ----- -<br>-------- ---- --- ---------- --------- -- ------- ------ -<br>--------- ----- -----,348389,348387.6999999881,347365.132,347365.09999996424,347381.799,348398.486,,37,July
screen,html.Screen,2_3_1_0_1_38,2022-02-17T13:10:36.866Z,,,,,,,,,,,,,,,,,15,,,,,,,,,,,,,,293.1139999642619,,response,,,,7,D,,,,,,Space,keypress(Space),,,,silence,,,,---- --------- ---------- - --- ------- -- --- ------------<br>----- -- -------- ------- ---- ------ - -------- ---- -----<br>--- ------- ---- -- --- -------- --- - ----- ------ ---- --<br>-------- --- -------- -------- --- -------- ---- 20 ----- -<br>-------- ---- --- ---------- --------- -- ------- ------ -<br>--------- ----- -----,348693,348691.59999996424,348381.819,348389.09999996424,348398.486,348698.492,,38,20
screen,html.Screen,2_3_1_0_1_39,2022-02-17T13:10:37.248Z,,,,,,,,,,,,,,,,,15,,,,,,,,,,,,,,375.2079999880516,,response,,,,7,D,,,,,,Space,keypress(Space),,,,silence,,,,---- --------- ---------- - --- ------- -- --- ------------<br>----- -- -------- ------- ---- ------ - -------- ---- -----<br>--- ------- ---- -- --- -------- --- - ----- ------ ---- --<br>-------- --- -------- -------- --- -------- ---- -- after -<br>-------- ---- --- ---------- --------- -- ------- ------ -<br>--------- ----- -----,349074.89999997616,349073.6999999881,348681.825,348693.09999996424,348698.492,349082.354,,39,after
screen,html.Screen,2_3_1_0_1_40,2022-02-17T13:10:38.387Z,,,,,,,,,,,,,,,,,15,,,,,,,,,,,,,,1130.2459999642451,,response,,,,7,D,,,,,,Space,keypress(Space),,,,silence,,,,---- --------- ---------- - --- ------- -- --- ------------<br>----- -- -------- ------- ---- ------ - -------- ---- -----<br>--- ------- ---- -- --- -------- --- - ----- ------ ---- --<br>-------- --- -------- -------- --- -------- ---- -- ----- a<br>-------- ---- --- ---------- --------- -- ------- ------ -<br>--------- ----- -----,350213.7999999523,350212.59999996424,349065.687,349075,349082.354,350215.71,,40,a
