sender,sender_type,sender_id,timestamp,meta,,Blues,Classical,Country,Dance,Electronic,Folk,Gospel,Hip-Hop,Jazz,Latin,Musical/Film,New-age,Pop,Prolific_id,Provo_ID,R&B,Rap,Reggae,Religious,Rock,Soul,Swing,Traditional,age,artist_name,correct,correctResponse,distraction,duration,education,ended_on,familiarity,gender,headphone_check_performance,item,list,music_frequency,offensiveness,pleasantness,position_correct,preference,response,response_action,snippet_file,song_name,song_rating,sound,stimulus_1,stimulus_2,stimulus_3,text,time_commit,time_end,time_render,time_run,time_show,time_switch,url,word,word_ID
Prolific ID,html.Form,0,2022-02-02T17:44:40.960Z,"{""labjs_version"":""20.2.2"",""labjs_build"":{""flavor"":""production"",""commit"":""a25486e0c714a0ae2ce03ff94b7bb6896854dcfa""},""location"":""https://run.pavlovia.org/mvasilev/prolific2_music_e/"",""userAgent"":""Mozilla/5.0 (Windows NT 10.0; Win64; x64) AppleWebKit/537.36 (KHTML, like Gecko) Chrome/98.0.4758.82 Safari/537.36"",""platform"":""Win32"",""language"":""en-GB"",""locale"":""en-GB"",""timeZone"":""Europe/London"",""timezoneOffset"":0,""screen_width"":1366,""screen_height"":768,""scroll_width"":1366,""scroll_height"":577,""window_innerWidth"":1366,""window_innerHeight"":625,""devicePixelRatio"":1}",,,,,,,,,,,,,,,59664cebaf78da0001a22b4a,,,,,,,,,,,,,,,5754.456000000369,,form submission,,,,,,,,,,,,,,,,,,,,,40885.40000000037,40883.40000000037,35044.962,35053,35128.944,40995.927,{},,
Introduction,html.Screen,1_0,2022-02-02T17:44:47.615Z,,,,,,,,,,,,,,,,,,,,,,,,,,,,,,,6536.37299999981,,response,,,,,,,,,,,continue,click button,,,,,,,,,47540.299999999814,47532.299999999814,40862.51,40886.799999999814,40995.927,47562.927,,,
Volume calibration,html.Screen,1_1,2022-02-02T17:45:28.276Z,,,,,,,,,,,,,,,,,,,,,,,,,,,,,,,40630.77300000018,,response,,,,,,,,,,,continue,click button,,,,,,,,,88206.90000000037,88193.70000000019,47529.482,47541.09999999963,47562.927,88214.504,,,
Task instructions,html.Screen,1_2,2022-02-02T17:45:38.565Z,,,,,,,,,,,,,,,,,,,,,,,,,,,,,,,10279.496,,response,,,,,,,,,,,continue,click button,,,,,,,,,98496.29999999981,98494,88181.088,88207.79999999981,88214.504,98497.909,,,
Sounds,html.Screen,1_3_0_0,2022-02-02T17:45:42.807Z,,,,,,,,,,,,,,,,,,,,,,,,,,,,,,,4250.282999999996,,timeout,,,,,,,,,1,,,,,,,,S,I,O,,102738.40000000037,102731.526,98481.302,98497.09999999963,98497.909,102748.192,,,
Judgement,html.Screen,1_3_0_1,2022-02-02T17:45:43.935Z,,,,,,,,,,,,,,,,,,,,,,,,,,,,true,1,,1113.3080000000045,,response,,,,,,,,,1,,1,click #choice-1,,,,,S,I,O,,103866.40000000037,103861.5,102731.526,102739,102748.192,103864.994,,,
Trial,flow.Sequence,1_3_0,2022-02-02T17:45:43.937Z,,,,,,,,,,,,,,,,,,,,,,,,,,,,,,,5363.591,,completion,,,,,,,,,1,,,,,,,,S,I,O,,103867.70000000019,103861.5,98481.302,98496.90000000037,98497.909,103864.994,,,
Sounds,html.Screen,1_3_1_0,2022-02-02T17:45:48.168Z,,,,,,,,,,,,,,,,,,,,,,,,,,,,,,,4249.858999999997,,timeout,,,,,,,,,1,,,,,,,,S,O,I,,108099.29999999981,108098.229,103848.113,103869.40000000037,103864.994,108114.853,,,
Judgement,html.Screen,1_3_1_1,2022-02-02T17:45:48.936Z,,,,,,,,,,,,,,,,,,,,,,,,,,,,true,1,,748.4469999998109,,response,,,,,,,,,1,,1,click #choice-1,,,,,S,O,I,,108867,108863.29999999981,108098.229,108099.70000000019,108114.853,108881.999,,,
Trial,flow.Sequence,1_3_1,2022-02-02T17:45:48.937Z,,,,,,,,,,,,,,,,,,,,,,,,,,,,,,,4998.305999999808,,completion,,,,,,,,,1,,,,,,,,S,O,I,,108868,108863.29999999981,103848.113,103868.70000000019,103864.994,108881.999,,,
Sounds,html.Screen,1_3_2_0,2022-02-02T17:45:53.187Z,,,,,,,,,,,,,,,,,,,,,,,,,,,,,,,4249.751000000004,,timeout,,,,,,,,,3,,,,,,,,O,I,S,,113117.70000000019,113115.651,108848.522,108868.70000000019,108881.999,113131.75,,,
Judgement,html.Screen,1_3_2_1,2022-02-02T17:45:54.351Z,,,,,,,,,,,,,,,,,,,,,,,,,,,,true,3,,1147.3499999996275,,response,,,,,,,,,3,,3,click #choice-3,,,,,O,I,S,,114281.79999999981,114279.09999999963,113115.651,113118.09999999963,113131.75,114282.269,,,
Trial,flow.Sequence,1_3_2,2022-02-02T17:45:54.353Z,,,,,,,,,,,,,,,,,,,,,,,,,,,,,,,5397.100999999631,,completion,,,,,,,,,3,,,,,,,,O,I,S,,114284.09999999963,114279.09999999963,108848.522,108868.5,108881.999,114282.269,,,
Sounds,html.Screen,1_3_3_0,2022-02-02T17:45:58.587Z,,,,,,,,,,,,,,,,,,,,,,,,,,,,,,,4249.644,,timeout,,,,,,,,,2,,,,,,,,I,S,O,,118518.70000000019,118515.366,114265.212,114284.79999999981,114282.269,118531.913,,,
Judgement,html.Screen,1_3_3_1,2022-02-02T17:45:59.351Z,,,,,,,,,,,,,,,,,,,,,,,,,,,,true,2,,747.186999999627,,response,,,,,,,,,2,,2,click #choice-2,,,,,I,S,O,,119281.70000000019,119279.09999999963,118515.366,118519.29999999981,118531.913,119282.146,,,
Trial,flow.Sequence,1_3_3,2022-02-02T17:45:59.352Z,,,,,,,,,,,,,,,,,,,,,,,,,,,,,,,4996.830999999627,,completion,,,,,,,,,2,,,,,,,,I,S,O,,119283.5,119279.09999999963,114265.212,114284.70000000019,114282.269,119282.146,,,
Sounds,html.Screen,1_3_4_0,2022-02-02T17:46:03.589Z,,,,,,,,,,,,,,,,,,,,,,,,,,,,,,,4250.149000000005,,timeout,,,,,,,,,2,,,,,,,,O,S,I,,123519.79999999981,123515.888,119265.737,119284.29999999981,119282.146,123532.295,,,
Judgement,html.Screen,1_3_4_1,2022-02-02T17:46:04.341Z,,,,,,,,,,,,,,,,,,,,,,,,,,,,true,2,,738.0049999998155,,response,,,,,,,,,2,,2,click #choice-2,,,,,O,S,I,,124272.59999999963,124270.29999999981,123515.888,123520.90000000037,123532.295,124282.249,,,
Trial,flow.Sequence,1_3_4,2022-02-02T17:46:04.342Z,,,,,,,,,,,,,,,,,,,,,,,,,,,,,,,4988.15399999982,,completion,,,,,,,,,2,,,,,,,,O,S,I,,124273.5,124270.29999999981,119265.737,119284,119282.146,124282.249,,,
Sounds,html.Screen,1_3_5_0,2022-02-02T17:46:08.586Z,,,,,,,,,,,,,,,,,,,,,,,,,,,,,,,4250.106,,timeout,,,,,,,,,3,,,,,,,,I,O,S,,128516.90000000037,128515.625,124266.01,124274,124282.249,128532.355,,,
Judgement,html.Screen,1_3_5_1,2022-02-02T17:46:09.391Z,,,,,,,,,,,,,,,,,,,,,,,,,,,,true,3,,786.6450000000041,,response,,,,,,,,,3,,3,click #choice-3,,,,,I,O,S,,129321.70000000019,129319,128515.625,128517.29999999981,128532.355,129349.027,,,
Trial,flow.Sequence,1_3_5,2022-02-02T17:46:09.391Z,,,,,,,,,,,,,,,,,,,,,,,,,,,,,,,5036.751000000004,,completion,,,,,,,,,3,,,,,,,,I,O,S,,129322.5,129319,124266.01,124273.90000000037,124282.249,129349.027,,,
Task,flow.Loop,1_3,2022-02-02T17:46:09.409Z,,,,,,,,,,,,,,,,,,,,,,,,,,,,,,,30821.091,,completion,,,1,,,,,,,,,,,,,,,,,,129340.40000000037,129319,98481.302,98496.70000000019,98497.909,129349.027,,,
Trap,html.Screen,1_4,2022-02-02T17:46:09.414Z,,,,,,,,,,,,,,,,,,,,,,,,,,,,,,,NaN,,skipped,,,,,,,,,,,,,,,,,,,,,129345.29999999981,129319,,129344.79999999981,,129349.027,,,
Thanks,html.Screen,1_5,2022-02-02T17:46:13.097Z,,,,,,,,,,,,,,,,,,,,,,,,,,,,,,,3676.972999999998,,response,,,,,,,,,,,continue,click button,,,,,,,,,133028.2999999998,133026,129315.732,129345.79999999981,129349.027,137149.458,,,
Headphone screening,flow.Sequence,1,2022-02-02T17:46:13.098Z,,,,,,,,,,,,,,,,,,,,,,,,,,,,,,,92030.073,,completion,,,,,,,,,,,,,,,,,,,,,133029.09999999963,133026,40862.51,40886.700000000186,40995.927,137149.458,,,
Instructions,html.Page,2_0,2022-02-02T17:46:38.055Z,,,,,,,,,,,,,,,,,,,,,,,,,,,,,,,20833.141999999614,,form submission,,,,,,,,,,,,,,,,,,,,,157984.7000000002,157982.59999999963,137082.676,137137,137149.458,157983.458,,,
Holding screen,html.Screen,2_1_0_0,2022-02-02T17:46:48.042Z,,,,,,,,,,,,,,,,,,,,,,,,,,,,,,,10150.347999999998,,timeout,,,,,,,,,,,,,,,,,,,,,167971.09999999963,167968,157966.732,157985.90000000037,157983.458,168133.806,,,
screen,html.Screen,2_1_0_1_0,2022-02-02T17:46:49.836Z,,,,,,,,,,,,,,,,,53,,,,,,,,,,,,,,1612.5940000003611,,response,,,,99,,,,,,,Space,keypress(Space),,,,,,,,When -- ----- -- ------ - ------- --- ----------<br>------------- ------ ------ ---- ---- ------- ----- -- ----<br>-------- ------- -- ---------- --- - --- ----- ----- ----<br>---- --- --- ----- --- ---- ---- ------- ----- ---- -------<br>--- --- -- ----- -- --- ---- -- --- ---- -- ------ ------<br>--- ----- -- ----,169765.2999999998,169746.40000000037,167968,167973,168133.806,169783.867,,0,When
screen,html.Screen,2_1_0_1_1,2022-02-02T17:46:50.508Z,,,,,,,,,,,,,,,,,53,,,,,,,,,,,,,,649.7329999996291,,response,,,,99,,,,,,,Space,keypress(Space),,,,,,,,---- it ----- -- ------ - ------- --- ----------<br>------------- ------ ------ ---- ---- ------- ----- -- ----<br>-------- ------- -- ---------- --- - --- ----- ----- ----<br>---- --- --- ----- --- ---- ---- ------- ----- ---- -------<br>--- --- -- ----- -- --- ---- -- --- ---- -- ------ ------<br>--- ----- -- ----,170437.59999999963,170433.59999999963,169767,169766.7999999998,169783.867,170450.913,,1,it
screen,html.Screen,2_1_0_1_2,2022-02-02T17:46:51.080Z,,,,,,,,,,,,,,,,,53,,,,,,,,,,,,,,555.5869999999995,,response,,,,99,,,,,,,Space,keypress(Space),,,,,,,,---- -- comes -- ------ - ------- --- ----------<br>------------- ------ ------ ---- ---- ------- ----- -- ----<br>-------- ------- -- ---------- --- - --- ----- ----- ----<br>---- --- --- ----- --- ---- ---- ------- ----- ---- -------<br>--- --- -- ----- -- --- ---- -- --- ---- -- ------ ------<br>--- ----- -- ----,171009.90000000037,171006.5,170434.185,170439,170450.913,171017.427,,2,comes
screen,html.Screen,2_1_0_1_3,2022-02-02T17:46:51.543Z,,,,,,,,,,,,,,,,,53,,,,,,,,,,,,,,452.17299999963143,,response,,,,99,,,,,,,Space,keypress(Space),,,,,,,,---- -- ----- to ------ - ------- --- ----------<br>------------- ------ ------ ---- ---- ------- ----- -- ----<br>-------- ------- -- ---------- --- - --- ----- ----- ----<br>---- --- --- ----- --- ---- ---- ------- ----- ---- -------<br>--- --- -- ----- -- --- ---- -- --- ---- -- ------ ------<br>--- ----- -- ----,171472.7000000002,171469.59999999963,171001.086,171011.2000000002,171017.427,171484.108,,3,to
screen,html.Screen,2_1_0_1_4,2022-02-02T17:46:52.115Z,,,,,,,,,,,,,,,,,53,,,,,,,,,,,,,,557.7920000003651,,response,,,,99,,,,,,,Space,keypress(Space),,,,,,,,---- -- ----- -- having - ------- --- ----------<br>------------- ------ ------ ---- ---- ------- ----- -- ----<br>-------- ------- -- ---------- --- - --- ----- ----- ----<br>---- --- --- ----- --- ---- ---- ------- ----- ---- -------<br>--- --- -- ----- -- --- ---- -- --- ---- -- ------ ------<br>--- ----- -- ----,172045,172041.90000000037,171467.883,171473.7999999998,171484.108,172050.868,,4,having
screen,html.Screen,2_1_0_1_5,2022-02-02T17:46:52.569Z,,,,,,,,,,,,,,,,,53,,,,,,,,,,,,,,444.03200000038487,,response,,,,99,,,,,,,Space,keypress(Space),,,,,,,,---- -- ----- -- ------ a ------- --- ----------<br>------------- ------ ------ ---- ---- ------- ----- -- ----<br>-------- ------- -- ---------- --- - --- ----- ----- ----<br>---- --- --- ----- --- ---- ---- ------- ----- ---- -------<br>--- --- -- ----- -- --- ---- -- --- ---- -- ------ ------<br>--- ----- -- ----,172498.59999999963,172494.90000000037,172034.339,172046.09999999963,172050.868,172522.195,,5,a
screen,html.Screen,2_1_0_1_6,2022-02-02T17:46:53.108Z,,,,,,,,,,,,,,,,,53,,,,,,,,,,,,,,514.0050000001793,,response,,,,99,,,,,,,Space,keypress(Space),,,,,,,,---- -- ----- -- ------ - lasting --- ----------<br>------------- ------ ------ ---- ---- ------- ----- -- ----<br>-------- ------- -- ---------- --- - --- ----- ----- ----<br>---- --- --- ----- --- ---- ---- ------- ----- ---- -------<br>--- --- -- ----- -- --- ---- -- --- ---- -- ------ ------<br>--- ----- -- ----,173037.90000000037,173036.2000000002,172484.372,172498.90000000037,172522.195,173050.903,,6,lasting
screen,html.Screen,2_1_0_1_7,2022-02-02T17:46:53.590Z,,,,,,,,,,,,,,,,,53,,,,,,,,,,,,,,467.4970000003814,,response,,,,99,,,,,,,Space,keypress(Space),,,,,,,,---- -- ----- -- ------ - ------- and ----------<br>------------- ------ ------ ---- ---- ------- ----- -- ----<br>-------- ------- -- ---------- --- - --- ----- ----- ----<br>---- --- --- ----- --- ---- ---- ------- ----- ---- -------<br>--- --- -- ----- -- --- ---- -- --- ---- -- ------ ------<br>--- ----- -- ----,173519.59999999963,173518.40000000037,173033.842,173038.2000000002,173050.903,173533.933,,7,and
screen,html.Screen,2_1_0_1_8,2022-02-02T17:46:54.205Z,,,,,,,,,,,,,,,,,53,,,,,,,,,,,,,,597.3669999998237,,response,,,,99,,,,,,,Space,keypress(Space),,,,,,,,---- -- ----- -- ------ - ------- --- fulfilling<br>------------- ------ ------ ---- ---- ------- ----- -- ----<br>-------- ------- -- ---------- --- - --- ----- ----- ----<br>---- --- --- ----- --- ---- ---- ------- ----- ---- -------<br>--- --- -- ----- -- --- ---- -- --- ---- -- ------ ------<br>--- ----- -- ----,174134.90000000037,174131.2999999998,173517.794,173520,173533.933,174151.191,,8,fulfilling
screen,html.Screen,2_1_0_1_9,2022-02-02T17:46:54.745Z,,,,,,,,,,,,,,,,,53,,,,,,,,,,,,,,520.3090000000084,,response,,,,99,,,,,,,Space,keypress(Space),,,,,,,,"---- -- ----- -- ------ - ------- --- ----------<br>relationship, ------ ------ ---- ---- ------- ----- -- ----<br>-------- ------- -- ---------- --- - --- ----- ----- ----<br>---- --- --- ----- --- ---- ---- ------- ----- ---- -------<br>--- --- -- ----- -- --- ---- -- --- ---- -- ------ ------<br>--- ----- -- ----",174674.59999999963,174671.5,174133.878,174136.40000000037,174151.191,174684.51,,9,"relationship,"
screen,html.Screen,2_1_0_1_10,2022-02-02T17:46:55.222Z,,,,,,,,,,,,,,,,,53,,,,,,,,,,,,,,463.8900000003632,,response,,,,99,,,,,,,Space,keypress(Space),,,,,,,,---- -- ----- -- ------ - ------- --- ----------<br>------------- common ------ ---- ---- ------- ----- -- ----<br>-------- ------- -- ---------- --- - --- ----- ----- ----<br>---- --- --- ----- --- ---- ---- ------- ----- ---- -------<br>--- --- -- ----- -- --- ---- -- --- ---- -- ------ ------<br>--- ----- -- ----,175151.40000000037,175148.40000000037,174667.694,174675.7000000002,174684.51,175167.531,,10,common
screen,html.Screen,2_1_0_1_11,2022-02-02T17:46:55.699Z,,,,,,,,,,,,,,,,,53,,,,,,,,,,,,,,456.7689999998256,,response,,,,99,,,,,,,Space,keypress(Space),,,,,,,,---- -- ----- -- ------ - ------- --- ----------<br>------------- ------ wisdom ---- ---- ------- ----- -- ----<br>-------- ------- -- ---------- --- - --- ----- ----- ----<br>---- --- --- ----- --- ---- ---- ------- ----- ---- -------<br>--- --- -- ----- -- --- ---- -- --- ---- -- ------ ------<br>--- ----- -- ----,175628.2000000002,175624.2999999998,175151.371,175152.40000000037,175167.531,175656.487,,11,wisdom
screen,html.Screen,2_1_0_1_12,2022-02-02T17:46:56.183Z,,,,,,,,,,,,,,,,,53,,,,,,,,,,,,,,453.9130000003788,,response,,,,99,,,,,,,Space,keypress(Space),,,,,,,,---- -- ----- -- ------ - ------- --- ----------<br>------------- ------ ------ says ---- ------- ----- -- ----<br>-------- ------- -- ---------- --- - --- ----- ----- ----<br>---- --- --- ----- --- ---- ---- ------- ----- ---- -------<br>--- --- -- ----- -- --- ---- -- --- ---- -- ------ ------<br>--- ----- -- ----,176112.09999999963,176110.40000000037,175618.055,175629.2000000002,175656.487,176117.689,,12,says
screen,html.Screen,2_1_0_1_13,2022-02-02T17:46:56.632Z,,,,,,,,,,,,,,,,,53,,,,,,,,,,,,,,442.81099999998696,,response,,,,99,,,,,,,Space,keypress(Space),,,,,,,,---- -- ----- -- ------ - ------- --- ----------<br>------------- ------ ------ ---- that ------- ----- -- ----<br>-------- ------- -- ---------- --- - --- ----- ----- ----<br>---- --- --- ----- --- ---- ---- ------- ----- ---- -------<br>--- --- -- ----- -- --- ---- -- --- ---- -- ------ ------<br>--- ----- -- ----,176562,176560.5,176101.565,176112.40000000037,176117.689,176567.37,,13,that
screen,html.Screen,2_1_0_1_14,2022-02-02T17:46:57.102Z,,,,,,,,,,,,,,,,,53,,,,,,,,,,,,,,460.63000000000466,,response,,,,99,,,,,,,Space,keypress(Space),,,,,,,,---- -- ----- -- ------ - ------- --- ----------<br>------------- ------ ------ ---- ---- feeling ----- -- ----<br>-------- ------- -- ---------- --- - --- ----- ----- ----<br>---- --- --- ----- --- ---- ---- ------- ----- ---- -------<br>--- --- -- ----- -- --- ---- -- --- ---- -- ------ ------<br>--- ----- -- ----,177031.5,177028,176550.669,176562.2999999998,176567.37,177051.143,,14,feeling
screen,html.Screen,2_1_0_1_15,2022-02-02T17:46:57.604Z,,,,,,,,,,,,,,,,,53,,,,,,,,,,,,,,479.35699999998906,,response,,,,99,,,,,,,Space,keypress(Space),,,,,,,,---- -- ----- -- ------ - ------- --- ----------<br>------------- ------ ------ ---- ---- ------- close -- ----<br>-------- ------- -- ---------- --- - --- ----- ----- ----<br>---- --- --- ----- --- ---- ---- ------- ----- ---- -------<br>--- --- -- ----- -- --- ---- -- --- ---- -- ------ ------<br>--- ----- -- ----,177533.7000000002,177530.5,177034.523,177032.5,177051.143,177551.024,,15,close
screen,html.Screen,2_1_0_1_16,2022-02-02T17:46:58.035Z,,,,,,,,,,,,,,,,,53,,,,,,,,,,,,,,410.1760000001814,,response,,,,99,,,,,,,Space,keypress(Space),,,,,,,,---- -- ----- -- ------ - ------- --- ----------<br>------------- ------ ------ ---- ---- ------- ----- to ----<br>-------- ------- -- ---------- --- - --- ----- ----- ----<br>---- --- --- ----- --- ---- ---- ------- ----- ---- -------<br>--- --- -- ----- -- --- ---- -- --- ---- -- ------ ------<br>--- ----- -- ----,177964.7000000002,177961.2000000002,177535.011,177534.7000000002,177551.024,177984.338,,16,to
screen,html.Screen,2_1_0_1_17,2022-02-02T17:46:58.500Z,,,,,,,,,,,,,,,,,53,,,,,,,,,,,,,,441.4619999998249,,response,,,,99,,,,,,,Space,keypress(Space),,,,,,,,---- -- ----- -- ------ - ------- --- ----------<br>------------- ------ ------ ---- ---- ------- ----- -- your<br>-------- ------- -- ---------- --- - --- ----- ----- ----<br>---- --- --- ----- --- ---- ---- ------- ----- ---- -------<br>--- --- -- ----- -- --- ---- -- --- ---- -- ------ ------<br>--- ----- -- ----,178429.09999999963,178425.7999999998,177968.012,177965.7000000002,177984.338,178456.237,,17,your
screen,html.Screen,2_1_0_1_18,2022-02-02T17:46:59.052Z,,,,,,,,,,,,,,,,,53,,,,,,,,,,,,,,522.1630000003788,,response,,,,99,,,,,,,Space,keypress(Space),,,,,,,,---- -- ----- -- ------ - ------- --- ----------<br>------------- ------ ------ ---- ---- ------- ----- -- ----<br>romantic ------- -- ---------- --- - --- ----- ----- ----<br>---- --- --- ----- --- ---- ---- ------- ----- ---- -------<br>--- --- -- ----- -- --- ---- -- --- ---- -- ------ ------<br>--- ----- -- ----,178981.59999999963,178978.40000000037,178417.597,178430.2000000002,178456.237,179001.125,,18,romantic
screen,html.Screen,2_1_0_1_19,2022-02-02T17:46:59.495Z,,,,,,,,,,,,,,,,,53,,,,,,,,,,,,,,419.875,,response,,,,99,,,,,,,Space,keypress(Space),,,,,,,,---- -- ----- -- ------ - ------- --- ----------<br>------------- ------ ------ ---- ---- ------- ----- -- ----<br>-------- partner -- ---------- --- - --- ----- ----- ----<br>---- --- --- ----- --- ---- ---- ------- ----- ---- -------<br>--- --- -- ----- -- --- ---- -- --- ---- -- ------ ------<br>--- ----- -- ----,179424.40000000037,179421,178985.034,178982.7000000002,179001.125,179434.764,,19,partner
screen,html.Screen,2_1_0_1_20,2022-02-02T17:46:59.948Z,,,,,,,,,,,,,,,,,53,,,,,,,,,,,,,,439.53599999981816,,response,,,,99,,,,,,,Space,keypress(Space),,,,,,,,---- -- ----- -- ------ - ------- --- ----------<br>------------- ------ ------ ---- ---- ------- ----- -- ----<br>-------- ------- is ---------- --- - --- ----- ----- ----<br>---- --- --- ----- --- ---- ---- ------- ----- ---- -------<br>--- --- -- ----- -- --- ---- -- --- ---- -- ------ ------<br>--- ----- -- ----,179877.40000000037,179874.2999999998,179418.423,179425.40000000037,179434.764,179884.459,,20,is
screen,html.Screen,2_1_0_1_21,2022-02-02T17:47:00.413Z,,,,,,,,,,,,,,,,,53,,,,,,,,,,,,,,455.1409999996249,,response,,,,99,,,,,,,Space,keypress(Space),,,,,,,,---- -- ----- -- ------ - ------- --- ----------<br>------------- ------ ------ ---- ---- ------- ----- -- ----<br>-------- ------- -- paramount. --- - --- ----- ----- ----<br>---- --- --- ----- --- ---- ---- ------- ----- ---- -------<br>--- --- -- ----- -- --- ---- -- --- ---- -- ------ ------<br>--- ----- -- ----,180342.90000000037,180339.59999999963,179868.158,179878.40000000037,179884.459,180351.631,,21,paramount.
screen,html.Screen,2_1_0_1_22,2022-02-02T17:47:00.913Z,,,,,,,,,,,,,,,,,53,,,,,,,,,,,,,,488.0690000001923,,response,,,,99,,,,,,,Space,keypress(Space),,,,,,,,---- -- ----- -- ------ - ------- --- ----------<br>------------- ------ ------ ---- ---- ------- ----- -- ----<br>-------- ------- -- ---------- But - --- ----- ----- ----<br>---- --- --- ----- --- ---- ---- ------- ----- ---- -------<br>--- --- -- ----- -- --- ---- -- --- ---- -- ------ ------<br>--- ----- -- ----,180843,180839.7000000002,180334.217,180344.09999999963,180351.631,180851.405,,22,But
screen,html.Screen,2_1_0_1_23,2022-02-02T17:47:01.371Z,,,,,,,,,,,,,,,,,53,,,,,,,,,,,,,,445.59500000000116,,response,,,,99,,,,,,,Space,keypress(Space),,,,,,,,---- -- ----- -- ------ - ------- --- ----------<br>------------- ------ ------ ---- ---- ------- ----- -- ----<br>-------- ------- -- ---------- --- a --- ----- ----- ----<br>---- --- --- ----- --- ---- ---- ------- ----- ---- -------<br>--- --- -- ----- -- --- ---- -- --- ---- -- ------ ------<br>--- ----- -- ----,181300.2000000002,181297,180834.272,180844.2000000002,180851.405,181317.778,,23,a
screen,html.Screen,2_1_0_1_24,2022-02-02T17:47:01.810Z,,,,,,,,,,,,,,,,,53,,,,,,,,,,,,,,419.0219999998226,,response,,,,99,,,,,,,Space,keypress(Space),,,,,,,,---- -- ----- -- ------ - ------- --- ----------<br>------------- ------ ------ ---- ---- ------- ----- -- ----<br>-------- ------- -- ---------- --- - new ----- ----- ----<br>---- --- --- ----- --- ---- ---- ------- ----- ---- -------<br>--- --- -- ----- -- --- ---- -- --- ---- -- ------ ------<br>--- ----- -- ----,181740,181736.7999999998,181301.798,181301.2999999998,181317.778,181751.143,,24,new
screen,html.Screen,2_1_0_1_25,2022-02-02T17:47:02.242Z,,,,,,,,,,,,,,,,,53,,,,,,,,,,,,,,417.1569999998028,,response,,,,99,,,,,,,Space,keypress(Space),,,,,,,,---- -- ----- -- ------ - ------- --- ----------<br>------------- ------ ------ ---- ---- ------- ----- -- ----<br>-------- ------- -- ---------- --- - --- study ----- ----<br>---- --- --- ----- --- ---- ---- ------- ----- ---- -------<br>--- --- -- ----- -- --- ---- -- --- ---- -- ------ ------<br>--- ----- -- ----,182171.40000000037,182168.2999999998,181734.589,181741.09999999963,181751.143,182184.594,,25,study
screen,html.Screen,2_1_0_1_26,2022-02-02T17:47:02.698Z,,,,,,,,,,,,,,,,,53,,,,,,,,,,,,,,439.1060000001744,,response,,,,99,,,,,,,Space,keypress(Space),,,,,,,,---- -- ----- -- ------ - ------- --- ----------<br>------------- ------ ------ ---- ---- ------- ----- -- ----<br>-------- ------- -- ---------- --- - --- ----- finds ----<br>---- --- --- ----- --- ---- ---- ------- ----- ---- -------<br>--- --- -- ----- -- --- ---- -- --- ---- -- ------ ------<br>--- ----- -- ----,182627.2000000002,182623.7000000002,182167.553,182172.59999999963,182184.594,182634.578,,26,finds
screen,html.Screen,2_1_0_1_27,2022-02-02T17:47:03.117Z,,,,,,,,,,,,,,,,,53,,,,,,,,,,,,,,409.12200000017765,,response,,,,99,,,,,,,Space,keypress(Space),,,,,,,,---- -- ----- -- ------ - ------- --- ----------<br>------------- ------ ------ ---- ---- ------- ----- -- ----<br>-------- ------- -- ---------- --- - --- ----- ----- that<br>---- --- --- ----- --- ---- ---- ------- ----- ---- -------<br>--- --- -- ----- -- --- ---- -- --- ---- -- ------ ------<br>--- ----- -- ----,183047,183043.7000000002,182618.403,182628.2000000002,182634.578,183084.503,,27,that
screen,html.Screen,2_1_0_1_28,2022-02-02T17:47:03.548Z,,,,,,,,,,,,,,,,,53,,,,,,,,,,,,,,389.79699999981676,,response,,,,99,,,,,,,Space,keypress(Space),,,,,,,,---- -- ----- -- ------ - ------- --- ----------<br>------------- ------ ------ ---- ---- ------- ----- -- ----<br>-------- ------- -- ---------- --- - --- ----- ----- ----<br>it's --- --- ----- --- ---- ---- ------- ----- ---- -------<br>--- --- -- ----- -- --- ---- -- --- ---- -- ------ ------<br>--- ----- -- ----,183477.7000000002,183474.2999999998,183068.169,183048.09999999963,183084.503,183484.588,,28,it's
screen,html.Screen,2_1_0_1_29,2022-02-02T17:47:03.966Z,,,,,,,,,,,,,,,,,53,,,,,,,,,,,,,,407.8120000003837,,response,,,,99,,,,,,,Space,keypress(Space),,,,,,,,---- -- ----- -- ------ - ------- --- ----------<br>------------- ------ ------ ---- ---- ------- ----- -- ----<br>-------- ------- -- ---------- --- - --- ----- ----- ----<br>---- not --- ----- --- ---- ---- ------- ----- ---- -------<br>--- --- -- ----- -- --- ---- -- --- ---- -- ------ ------<br>--- ----- -- ----,183895.90000000037,183892.40000000037,183468.468,183478.7000000002,183484.588,183925.627,,29,not
screen,html.Screen,2_1_0_1_30,2022-02-02T17:47:04.429Z,,,,,,,,,,,,,,,,,53,,,,,,,,,,,,,,429.77300000036485,,response,,,,99,,,,,,,Space,keypress(Space),,,,,,,,---- -- ----- -- ------ - ------- --- ----------<br>------------- ------ ------ ---- ---- ------- ----- -- ----<br>-------- ------- -- ---------- --- - --- ----- ----- ----<br>---- --- how ----- --- ---- ---- ------- ----- ---- -------<br>--- --- -- ----- -- --- ---- -- --- ---- -- ------ ------<br>--- ----- -- ----,184359,184355.40000000037,183885.177,183897,183925.627,184368.279,,30,how
screen,html.Screen,2_1_0_1_31,2022-02-02T17:47:04.886Z,,,,,,,,,,,,,,,,,53,,,,,,,,,,,,,,444.0209999998042,,response,,,,99,,,,,,,Space,keypress(Space),,,,,,,,---- -- ----- -- ------ - ------- --- ----------<br>------------- ------ ------ ---- ---- ------- ----- -- ----<br>-------- ------- -- ---------- --- - --- ----- ----- ----<br>---- --- --- close --- ---- ---- ------- ----- ---- -------<br>--- --- -- ----- -- --- ---- -- --- ---- -- ------ ------<br>--- ----- -- ----,184815.5,184812.2999999998,184351.581,184360,184368.279,184834.421,,31,close
screen,html.Screen,2_1_0_1_32,2022-02-02T17:47:05.348Z,,,,,,,,,,,,,,,,,53,,,,,,,,,,,,,,439.27900000018417,,response,,,,99,,,,,,,Space,keypress(Space),,,,,,,,---- -- ----- -- ------ - ------- --- ----------<br>------------- ------ ------ ---- ---- ------- ----- -- ----<br>-------- ------- -- ---------- --- - --- ----- ----- ----<br>---- --- --- ----- you ---- ---- ------- ----- ---- -------<br>--- --- -- ----- -- --- ---- -- --- ---- -- ------ ------<br>--- ----- -- ----,185277.40000000037,185273.7000000002,184818.705,184816.59999999963,184834.421,185284.795,,32,you
screen,html.Screen,2_1_0_1_33,2022-02-02T17:47:05.777Z,,,,,,,,,,,,,,,,,53,,,,,,,,,,,,,,419.2049999999872,,response,,,,99,,,,,,,Space,keypress(Space),,,,,,,,---- -- ----- -- ------ - ------- --- ----------<br>------------- ------ ------ ---- ---- ------- ----- -- ----<br>-------- ------- -- ---------- --- - --- ----- ----- ----<br>---- --- --- ----- --- feel ---- ------- ----- ---- -------<br>--- --- -- ----- -- --- ---- -- --- ---- -- ------ ------<br>--- ----- -- ----,185707.09999999963,185704,185268.498,185278.40000000037,185284.795,185718.143,,33,feel
screen,html.Screen,2_1_0_1_34,2022-02-02T17:47:06.252Z,,,,,,,,,,,,,,,,,53,,,,,,,,,,,,,,459.9569999996165,,response,,,,99,,,,,,,Space,keypress(Space),,,,,,,,---- -- ----- -- ------ - ------- --- ----------<br>------------- ------ ------ ---- ---- ------- ----- -- ----<br>-------- ------- -- ---------- --- - --- ----- ----- ----<br>---- --- --- ----- --- ---- that ------- ----- ---- -------<br>--- --- -- ----- -- --- ---- -- --- ---- -- ------ ------<br>--- ----- -- ----,186181.7999999998,186178.09999999963,185701.943,185708.2000000002,185718.143,186201.399,,34,that
screen,html.Screen,2_1_0_1_35,2022-02-02T17:47:06.748Z,,,,,,,,,,,,,,,,,53,,,,,,,,,,,,,,472.7009999996226,,response,,,,99,,,,,,,Space,keypress(Space),,,,,,,,---- -- ----- -- ------ - ------- --- ----------<br>------------- ------ ------ ---- ---- ------- ----- -- ----<br>-------- ------- -- ---------- --- - --- ----- ----- ----<br>---- --- --- ----- --- ---- ---- matters ----- ---- -------<br>--- --- -- ----- -- --- ---- -- --- ---- -- ------ ------<br>--- ----- -- ----,186677.5,186674.09999999963,186184.87,186183,186201.399,186684.925,,35,matters
screen,html.Screen,2_1_0_1_36,2022-02-02T17:47:07.189Z,,,,,,,,,,,,,,,,,53,,,,,,,,,,,,,,429.8749999998254,,response,,,,99,,,,,,,Space,keypress(Space),,,,,,,,"---- -- ----- -- ------ - ------- --- ----------<br>------------- ------ ------ ---- ---- ------- ----- -- ----<br>-------- ------- -- ---------- --- - --- ----- ----- ----<br>---- --- --- ----- --- ---- ---- ------- most, ---- -------<br>--- --- -- ----- -- --- ---- -- --- ---- -- ------ ------<br>--- ----- -- ----",187118.7999999998,187114.7999999998,186668.49,186678.90000000037,186684.925,187135.151,,36,"most,"
screen,html.Screen,2_1_0_1_37,2022-02-02T17:47:07.688Z,,,,,,,,,,,,,,,,,53,,,,,,,,,,,,,,479.0490000001737,,response,,,,99,,,,,,,Space,keypress(Space),,,,,,,,---- -- ----- -- ------ - ------- --- ----------<br>------------- ------ ------ ---- ---- ------- ----- -- ----<br>-------- ------- -- ---------- --- - --- ----- ----- ----<br>---- --- --- ----- --- ---- ---- ------- ----- it's -------<br>--- --- -- ----- -- --- ---- -- --- ---- -- ------ ------<br>--- ----- -- ----,187617.5,187614.2000000002,187118.704,187119.7999999998,187135.151,187635,,37,it's
screen,html.Screen,2_1_0_1_38,2022-02-02T17:47:08.206Z,,,,,,,,,,,,,,,,,53,,,,,,,,,,,,,,497.5,,response,,,,99,,,,,,,Space,keypress(Space),,,,,,,,---- -- ----- -- ------ - ------- --- ----------<br>------------- ------ ------ ---- ---- ------- ----- -- ----<br>-------- ------- -- ---------- --- - --- ----- ----- ----<br>---- --- --- ----- --- ---- ---- ------- ----- ---- whether<br>--- --- -- ----- -- --- ---- -- --- ---- -- ------ ------<br>--- ----- -- ----,188135.5,188132.5,187618.247,187618.59999999963,187635,188151.668,,38,whether
screen,html.Screen,2_1_0_1_39,2022-02-02T17:47:08.738Z,,,,,,,,,,,,,,,,,53,,,,,,,,,,,,,,512.0320000001811,,response,,,,99,,,,,,,Space,keypress(Space),,,,,,,,---- -- ----- -- ------ - ------- --- ----------<br>------------- ------ ------ ---- ---- ------- ----- -- ----<br>-------- ------- -- ---------- --- - --- ----- ----- ----<br>---- --- --- ----- --- ---- ---- ------- ----- ---- -------<br>you --- -- ----- -- --- ---- -- --- ---- -- ------ ------<br>--- ----- -- ----,188667.09999999963,188663.7000000002,188135.265,188136.7000000002,188151.668,188684.99,,39,you
screen,html.Screen,2_1_0_1_40,2022-02-02T17:47:09.211Z,,,,,,,,,,,,,,,,,53,,,,,,,,,,,,,,446.5100000000093,,response,,,,99,,,,,,,Space,keypress(Space),,,,,,,,---- -- ----- -- ------ - ------- --- ----------<br>------------- ------ ------ ---- ---- ------- ----- -- ----<br>-------- ------- -- ---------- --- - --- ----- ----- ----<br>---- --- --- ----- --- ---- ---- ------- ----- ---- -------<br>--- are -- ----- -- --- ---- -- --- ---- -- ------ ------<br>--- ----- -- ----,189141,189131.5,188668.316,188668.2000000002,188684.99,189151.828,,40,are
screen,html.Screen,2_1_0_1_41,2022-02-02T17:47:09.675Z,,,,,,,,,,,,,,,,,53,,,,,,,,,,,,,,449.0720000003639,,response,,,,99,,,,,,,Space,keypress(Space),,,,,,,,---- -- ----- -- ------ - ------- --- ----------<br>------------- ------ ------ ---- ---- ------- ----- -- ----<br>-------- ------- -- ---------- --- - --- ----- ----- ----<br>---- --- --- ----- --- ---- ---- ------- ----- ---- -------<br>--- --- as ----- -- --- ---- -- --- ---- -- ------ ------<br>--- ----- -- ----,189604.90000000037,189600.90000000037,189135.095,189142.09999999963,189151.828,189618.45,,41,as
screen,html.Screen,2_1_0_1_42,2022-02-02T17:47:10.150Z,,,,,,,,,,,,,,,,,53,,,,,,,,,,,,,,457.3499999998021,,response,,,,99,,,,,,,Space,keypress(Space),,,,,,,,---- -- ----- -- ------ - ------- --- ----------<br>------------- ------ ------ ---- ---- ------- ----- -- ----<br>-------- ------- -- ---------- --- - --- ----- ----- ----<br>---- --- --- ----- --- ---- ---- ------- ----- ---- -------<br>--- --- -- close -- --- ---- -- --- ---- -- ------ ------<br>--- ----- -- ----,190079.2000000002,190075.7999999998,189601.258,189606.2999999998,189618.45,190085.17,,42,close
screen,html.Screen,2_1_0_1_43,2022-02-02T17:47:10.590Z,,,,,,,,,,,,,,,,,53,,,,,,,,,,,,,,430.7300000003597,,response,,,,99,,,,,,,Space,keypress(Space),,,,,,,,---- -- ----- -- ------ - ------- --- ----------<br>------------- ------ ------ ---- ---- ------- ----- -- ----<br>-------- ------- -- ---------- --- - --- ----- ----- ----<br>---- --- --- ----- --- ---- ---- ------- ----- ---- -------<br>--- --- -- ----- as --- ---- -- --- ---- -- ------ ------<br>--- ----- -- ----,190519.59999999963,190515.90000000037,190068.732,190080.2999999998,190085.17,190534.632,,43,as
screen,html.Screen,2_1_0_1_44,2022-02-02T17:47:11.073Z,,,,,,,,,,,,,,,,,53,,,,,,,,,,,,,,465.86799999998766,,response,,,,99,,,,,,,Space,keypress(Space),,,,,,,,---- -- ----- -- ------ - ------- --- ----------<br>------------- ------ ------ ---- ---- ------- ----- -- ----<br>-------- ------- -- ---------- --- - --- ----- ----- ----<br>---- --- --- ----- --- ---- ---- ------- ----- ---- -------<br>--- --- -- ----- -- you ---- -- --- ---- -- ------ ------<br>--- ----- -- ----,191002.5,191000.5,190518.869,190520.59999999963,190534.632,191018.242,,44,you
screen,html.Screen,2_1_0_1_45,2022-02-02T17:47:11.559Z,,,,,,,,,,,,,,,,,53,,,,,,,,,,,,,,466.55799999981537,,response,,,,99,,,,,,,Space,keypress(Space),,,,,,,,---- -- ----- -- ------ - ------- --- ----------<br>------------- ------ ------ ---- ---- ------- ----- -- ----<br>-------- ------- -- ---------- --- - --- ----- ----- ----<br>---- --- --- ----- --- ---- ---- ------- ----- ---- -------<br>--- --- -- ----- -- --- want -- --- ---- -- ------ ------<br>--- ----- -- ----,191488.5,191484.7999999998,191001.882,191003.2000000002,191018.242,191501.628,,45,want
screen,html.Screen,2_1_0_1_46,2022-02-02T17:47:12.009Z,,,,,,,,,,,,,,,,,53,,,,,,,,,,,,,,434.5720000001893,,response,,,,99,,,,,,,Space,keypress(Space),,,,,,,,---- -- ----- -- ------ - ------- --- ----------<br>------------- ------ ------ ---- ---- ------- ----- -- ----<br>-------- ------- -- ---------- --- - --- ----- ----- ----<br>---- --- --- ----- --- ---- ---- ------- ----- ---- -------<br>--- --- -- ----- -- --- ---- to --- ---- -- ------ ------<br>--- ----- -- ----,191938.7999999998,191936.2000000002,191485.157,191489.59999999963,191501.628,191951.328,,46,to
screen,html.Screen,2_1_0_1_47,2022-02-02T17:47:12.526Z,,,,,,,,,,,,,,,,,53,,,,,,,,,,,,,,501.1719999999914,,response,,,,99,,,,,,,Space,keypress(Space),,,,,,,,"---- -- ----- -- ------ - ------- --- ----------<br>------------- ------ ------ ---- ---- ------- ----- -- ----<br>-------- ------- -- ---------- --- - --- ----- ----- ----<br>---- --- --- ----- --- ---- ---- ------- ----- ---- -------<br>--- --- -- ----- -- --- ---- -- be, ---- -- ------ ------<br>--- ----- -- ----",192456.09999999963,192452.5,191934.743,191939.5,191951.328,192468.548,,47,"be,"
screen,html.Screen,2_1_0_1_48,2022-02-02T17:47:12.947Z,,,,,,,,,,,,,,,,,53,,,,,,,,,,,,,,404.0519999996177,,response,,,,99,,,,,,,Space,keypress(Space),,,,,,,,---- -- ----- -- ------ - ------- --- ----------<br>------------- ------ ------ ---- ---- ------- ----- -- ----<br>-------- ------- -- ---------- --- - --- ----- ----- ----<br>---- --- --- ----- --- ---- ---- ------- ----- ---- -------<br>--- --- -- ----- -- --- ---- -- --- even -- ------ ------<br>--- ----- -- ----,192876.09999999963,192872.59999999963,192451.293,192457.2000000002,192468.548,192884.963,,48,even
screen,html.Screen,2_1_0_1_49,2022-02-02T17:47:13.526Z,,,,,,,,,,,,,,,,,53,,,,,,,,,,,,,,567.2370000001974,,response,,,,99,,,,,,,Space,keypress(Space),,,,,,,,---- -- ----- -- ------ - ------- --- ----------<br>------------- ------ ------ ---- ---- ------- ----- -- ----<br>-------- ------- -- ---------- --- - --- ----- ----- ----<br>---- --- --- ----- --- ---- ---- ------- ----- ---- -------<br>--- --- -- ----- -- --- ---- -- --- ---- if ------ ------<br>--- ----- -- ----,193455.40000000037,193452.2000000002,192868.828,192877.40000000037,192884.963,193468.448,,49,if
screen,html.Screen,2_1_0_1_50,2022-02-02T17:47:14.058Z,,,,,,,,,,,,,,,,,53,,,,,,,,,,,,,,515.1519999996235,,response,,,,99,,,,,,,Space,keypress(Space),,,,,,,,---- -- ----- -- ------ - ------- --- ----------<br>------------- ------ ------ ---- ---- ------- ----- -- ----<br>-------- ------- -- ---------- --- - --- ----- ----- ----<br>---- --- --- ----- --- ---- ---- ------- ----- ---- -------<br>--- --- -- ----- -- --- ---- -- --- ---- -- that's ------<br>--- ----- -- ----,193988,193983.59999999963,193451.866,193456.40000000037,193468.448,194002.007,,50,that's
screen,html.Screen,2_1_0_1_51,2022-02-02T17:47:14.581Z,,,,,,,,,,,,,,,,,53,,,,,,,,,,,,,,504.8930000003602,,response,,,,99,,,,,,,Space,keypress(Space),,,,,,,,---- -- ----- -- ------ - ------- --- ----------<br>------------- ------ ------ ---- ---- ------- ----- -- ----<br>-------- ------- -- ---------- --- - --- ----- ----- ----<br>---- --- --- ----- --- ---- ---- ------- ----- ---- -------<br>--- --- -- ----- -- --- ---- -- --- ---- -- ------ really<br>--- ----- -- ----,194510.7000000002,194506.90000000037,193985.54,193989.09999999963,194002.007,194518.268,,51,really
screen,html.Screen,2_1_0_1_52,2022-02-02T17:47:15.072Z,,,,,,,,,,,,,,,,,53,,,,,,,,,,,,,,480.8319999996165,,response,,,,99,,,,,,,Space,keypress(Space),,,,,,,,---- -- ----- -- ------ - ------- --- ----------<br>------------- ------ ------ ---- ---- ------- ----- -- ----<br>-------- ------- -- ---------- --- - --- ----- ----- ----<br>---- --- --- ----- --- ---- ---- ------- ----- ---- -------<br>--- --- -- ----- -- --- ---- -- --- ---- -- ------ ------<br>not ----- -- ----,195002,194999.09999999963,194502.029,194511.7000000002,194518.268,195018.123,,52,not
screen,html.Screen,2_1_0_1_53,2022-02-02T17:47:15.516Z,,,,,,,,,,,,,,,,,53,,,,,,,,,,,,,,424.3770000000077,,response,,,,99,,,,,,,Space,keypress(Space),,,,,,,,---- -- ----- -- ------ - ------- --- ----------<br>------------- ------ ------ ---- ---- ------- ----- -- ----<br>-------- ------- -- ---------- --- - --- ----- ----- ----<br>---- --- --- ----- --- ---- ---- ------- ----- ---- -------<br>--- --- -- ----- -- --- ---- -- --- ---- -- ------ ------<br>--- close -- ----,195445.59999999963,195442.5,195002.076,195003,195018.123,195451.942,,53,close
screen,html.Screen,2_1_0_1_54,2022-02-02T17:47:15.951Z,,,,,,,,,,,,,,,,,53,,,,,,,,,,,,,,425.65799999961746,,response,,,,99,,,,,,,Space,keypress(Space),,,,,,,,---- -- ----- -- ------ - ------- --- ----------<br>------------- ------ ------ ---- ---- ------- ----- -- ----<br>-------- ------- -- ---------- --- - --- ----- ----- ----<br>---- --- --- ----- --- ---- ---- ------- ----- ---- -------<br>--- --- -- ----- -- --- ---- -- --- ---- -- ------ ------<br>--- ----- at ----,195881.09999999963,195877.59999999963,195435.593,195446.7000000002,195451.942,195884.947,,54,at
screen,html.Screen,2_1_0_1_55,2022-02-02T17:47:16.979Z,,,,,,,,,,,,,,,,,53,,,,,,,,,,,,,,1020.2530000002007,,response,,,,99,,,,,,,Space,keypress(Space),,,,,,,,---- -- ----- -- ------ - ------- --- ----------<br>------------- ------ ------ ---- ---- ------- ----- -- ----<br>-------- ------- -- ---------- --- - --- ----- ----- ----<br>---- --- --- ----- --- ---- ---- ------- ----- ---- -------<br>--- --- -- ----- -- --- ---- -- --- ---- -- ------ ------<br>--- ----- -- all.,196908.59999999963,196905.2000000002,195868.675,195882.09999999963,195884.947,196951.715,,55,all.
Item 99,flow.Loop,2_1_0_1,2022-02-02T17:47:16.981Z,,,,,,,,,,,,,,,,,,,,,,,,,,,,,,,28771.394000000175,,completion,,,,,E,,,,,,,,,,,silence,,,,,196910.7000000002,196905.2000000002,167968,167972.2999999998,168133.806,196951.715,,,
Question 1,html.Screen,2_1_0_2,2022-02-02T17:47:21.574Z,,,,,,,,,,,,,,,,,,,,,,,,,,,,true,FALSE,,4550.7850000000035,,response,,,,99,E,,,,,,FALSE,click #choice-2,,,,silence,,,,,201505.09999999963,201502.5,196901.861,196911.90000000037,196951.715,201518.304,,,
Question 2,html.Screen,2_1_0_3,2022-02-02T17:47:27.204Z,,,,,,,,,,,,,,,,,,,,,,,,,,,,true,TRUE,,5614.49599999981,,response,,,,99,E,,,,,,TRUE,click #choice-1,,,,silence,,,,,207135.2000000002,207132.7999999998,201501.636,201505.5,201518.304,207152.046,,,
Item 99,flow.Sequence,2_1_0,2022-02-02T17:47:27.205Z,,,,,,,,,,,,,,,,,,,,,,,,,,,,,,,49149.3419999998,,completion,,,,,,,,,,,,,,,,,,,,,207136,207132.7999999998,157966.732,157985.7000000002,157983.458,207152.046,,,
Holding screen,html.Screen,2_1_1_0,2022-02-02T17:47:37.208Z,,,,,,,,,,,,,,,,,,,,,,,,,,,,,,,10000.760999999999,,timeout,,,,,,,,,,,,,,,,,,,,,217139,217136.014,207118.456,207137.2000000002,207152.046,217152.807,,,
screen,html.Screen,2_1_1_1_0,2022-02-02T17:47:38.044Z,,,,,,,,,,,,,,,,,54,,,,,,,,,,,,,,818.492999999813,,response,,,,100,,,,,,,Space,keypress(Space),,,,,,,,At --- ---- --- ------ ----- ------- ---- -- --- ------- --<br>------- ---------- ------ -- ----- -- ----- -- ---- ------<br>--- ----- --- --- ------ -------- ----- --- ------ ----- --<br>----- ----- ---------- --- --- ------ ------ ---- -- ------<br>------- --- ------ ----- --- ---- ------- -- ---- --- --<br>------- ------,217974.2999999998,217971.2999999998,217136.014,217140.40000000037,217152.807,217985.956,,0,At
screen,html.Screen,2_1_1_1_1,2022-02-02T17:47:38.485Z,,,,,,,,,,,,,,,,,54,,,,,,,,,,,,,,426.84399999980815,,response,,,,100,,,,,,,Space,keypress(Space),,,,,,,,-- the ---- --- ------ ----- ------- ---- -- --- ------- --<br>------- ---------- ------ -- ----- -- ----- -- ---- ------<br>--- ----- --- --- ------ -------- ----- --- ------ ----- --<br>----- ----- ---------- --- --- ------ ------ ---- -- ------<br>------- --- ------ ----- --- ---- ------- -- ---- --- --<br>------- ------,218415.7999999998,218412.7999999998,217969.784,217975.40000000037,217985.956,218435.922,,1,the
screen,html.Screen,2_1_1_1_2,2022-02-02T17:47:38.862Z,,,,,,,,,,,,,,,,,54,,,,,,,,,,,,,,353.2780000001949,,response,,,,100,,,,,,,Space,keypress(Space),,,,,,,,-- --- time --- ------ ----- ------- ---- -- --- ------- --<br>------- ---------- ------ -- ----- -- ----- -- ---- ------<br>--- ----- --- --- ------ -------- ----- --- ------ ----- --<br>----- ----- ---------- --- --- ------ ------ ---- -- ------<br>------- --- ------ ----- --- ---- ------- -- ---- --- --<br>------- ------,218792.59999999963,218789.2000000002,218402.876,218416.90000000037,218435.922,218802.433,,2,time
screen,html.Screen,2_1_1_1_3,2022-02-02T17:47:39.253Z,,,,,,,,,,,,,,,,,54,,,,,,,,,,,,,,378.86699999982375,,response,,,,100,,,,,,,Space,keypress(Space),,,,,,,,-- --- ---- the ------ ----- ------- ---- -- --- ------- --<br>------- ---------- ------ -- ----- -- ----- -- ---- ------<br>--- ----- --- --- ------ -------- ----- --- ------ ----- --<br>----- ----- ---------- --- --- ------ ------ ---- -- ------<br>------- --- ------ ----- --- ---- ------- -- ---- --- --<br>------- ------,219184.2000000002,219181.2999999998,218785.779,218793.59999999963,218802.433,219202.714,,3,the
screen,html.Screen,2_1_1_1_4,2022-02-02T17:47:39.678Z,,,,,,,,,,,,,,,,,54,,,,,,,,,,,,,,402.5859999998065,,response,,,,100,,,,,,,Space,keypress(Space),,,,,,,,-- --- ---- --- French ----- ------- ---- -- --- ------- --<br>------- ---------- ------ -- ----- -- ----- -- ---- ------<br>--- ----- --- --- ------ -------- ----- --- ------ ----- --<br>----- ----- ---------- --- --- ------ ------ ---- -- ------<br>------- --- ------ ----- --- ---- ------- -- ---- --- --<br>------- ------,219609.09999999963,219605.2999999998,219186.471,219185.2000000002,219202.714,219619.447,,4,French
screen,html.Screen,2_1_1_1_5,2022-02-02T17:47:40.092Z,,,,,,,,,,,,,,,,,54,,,,,,,,,,,,,,400.2530000002007,,response,,,,100,,,,,,,Space,keypress(Space),,,,,,,,-- --- ---- --- ------ crown ------- ---- -- --- ------- --<br>------- ---------- ------ -- ----- -- ----- -- ---- ------<br>--- ----- --- --- ------ -------- ----- --- ------ ----- --<br>----- ----- ---------- --- --- ------ ------ ---- -- ------<br>------- --- ------ ----- --- ---- ------- -- ---- --- --<br>------- ------,220022.59999999963,220019.7000000002,219602.818,219610.09999999963,219619.447,220036.202,,5,crown
screen,html.Screen,2_1_1_1_6,2022-02-02T17:47:40.578Z,,,,,,,,,,,,,,,,,54,,,,,,,,,,,,,,469.5979999998235,,response,,,,100,,,,,,,Space,keypress(Space),,,,,,,,-- --- ---- --- ------ ----- secured ---- -- --- ------- --<br>------- ---------- ------ -- ----- -- ----- -- ---- ------<br>--- ----- --- --- ------ -------- ----- --- ------ ----- --<br>----- ----- ---------- --- --- ------ ------ ---- -- ------<br>------- --- ------ ----- --- ---- ------- -- ---- --- --<br>------- ------,220509,220505.7999999998,220019.816,220023.7000000002,220036.202,220519.244,,6,secured
screen,html.Screen,2_1_1_1_7,2022-02-02T17:47:41.045Z,,,,,,,,,,,,,,,,,54,,,,,,,,,,,,,,453.5559999998077,,response,,,,100,,,,,,,Space,keypress(Space),,,,,,,,-- --- ---- --- ------ ----- ------- much -- --- ------- --<br>------- ---------- ------ -- ----- -- ----- -- ---- ------<br>--- ----- --- --- ------ -------- ----- --- ------ ----- --<br>----- ----- ---------- --- --- ------ ------ ---- -- ------<br>------- --- ------ ----- --- ---- ------- -- ---- --- --<br>------- ------,220976,220972.7999999998,220502.644,220510.2000000002,220519.244,220985.908,,7,much
screen,html.Screen,2_1_1_1_8,2022-02-02T17:47:41.513Z,,,,,,,,,,,,,,,,,54,,,,,,,,,,,,,,454.8919999998179,,response,,,,100,,,,,,,Space,keypress(Space),,,,,,,,-- --- ---- --- ------ ----- ------- ---- of --- ------- --<br>------- ---------- ------ -- ----- -- ----- -- ---- ------<br>--- ----- --- --- ------ -------- ----- --- ------ ----- --<br>----- ----- ---------- --- --- ------ ------ ---- -- ------<br>------- --- ------ ----- --- ---- ------- -- ---- --- --<br>------- ------,221444,221440.7999999998,220969.225,220977.09999999963,220985.908,221452.907,,8,of
screen,html.Screen,2_1_1_1_9,2022-02-02T17:47:41.890Z,,,,,,,,,,,,,,,,,54,,,,,,,,,,,,,,364.8929999998072,,response,,,,100,,,,,,,Space,keypress(Space),,,,,,,,-- --- ---- --- ------ ----- ------- ---- -- its ------- --<br>------- ---------- ------ -- ----- -- ----- -- ---- ------<br>--- ----- --- --- ------ -------- ----- --- ------ ----- --<br>----- ----- ---------- --- --- ------ ------ ---- -- ------<br>------- --- ------ ----- --- ---- ------- -- ---- --- --<br>------- ------,221820.7000000002,221817.7999999998,221436.33,221445.09999999963,221452.907,221836.463,,9,its
screen,html.Screen,2_1_1_1_10,2022-02-02T17:47:42.337Z,,,,,,,,,,,,,,,,,54,,,,,,,,,,,,,,427.9370000003837,,response,,,,100,,,,,,,Space,keypress(Space),,,,,,,,-- --- ---- --- ------ ----- ------- ---- -- --- revenue --<br>------- ---------- ------ -- ----- -- ----- -- ---- ------<br>--- ----- --- --- ------ -------- ----- --- ------ ----- --<br>----- ----- ---------- --- --- ------ ------ ---- -- ------<br>------- --- ------ ----- --- ---- ------- -- ---- --- --<br>------- ------,222267.59999999963,222264.40000000037,221819.883,221821.09999999963,221836.463,222286.053,,10,revenue
screen,html.Screen,2_1_1_1_11,2022-02-02T17:47:42.823Z,,,,,,,,,,,,,,,,,54,,,,,,,,,,,,,,464.3470000003581,,response,,,,100,,,,,,,Space,keypress(Space),,,,,,,,-- --- ---- --- ------ ----- ------- ---- -- --- ------- by<br>------- ---------- ------ -- ----- -- ----- -- ---- ------<br>--- ----- --- --- ------ -------- ----- --- ------ ----- --<br>----- ----- ---------- --- --- ------ ------ ---- -- ------<br>------- --- ------ ----- --- ---- ------- -- ---- --- --<br>------- ------,222753.90000000037,222750.40000000037,222269.533,222268.90000000037,222286.053,222769.436,,11,by
screen,html.Screen,2_1_1_1_12,2022-02-02T17:47:43.402Z,,,,,,,,,,,,,,,,,54,,,,,,,,,,,,,,559.6639999996405,,response,,,,100,,,,,,,Space,keypress(Space),,,,,,,,-- --- ---- --- ------ ----- ------- ---- -- --- ------- --<br>issuing ---------- ------ -- ----- -- ----- -- ---- ------<br>--- ----- --- --- ------ -------- ----- --- ------ ----- --<br>----- ----- ---------- --- --- ------ ------ ---- -- ------<br>------- --- ------ ----- --- ---- ------- -- ---- --- --<br>------- ------,223332.2999999998,223329.09999999963,222752.819,222755.2999999998,222769.436,223360.071,,12,issuing
screen,html.Screen,2_1_1_1_13,2022-02-02T17:47:43.999Z,,,,,,,,,,,,,,,,,54,,,,,,,,,,,,,,566.9290000000037,,response,,,,100,,,,,,,Space,keypress(Space),,,,,,,,-- --- ---- --- ------ ----- ------- ---- -- --- ------- --<br>------- government ------ -- ----- -- ----- -- ---- ------<br>--- ----- --- --- ------ -------- ----- --- ------ ----- --<br>----- ----- ---------- --- --- ------ ------ ---- -- ------<br>------- --- ------ ----- --- ---- ------- -- ---- --- --<br>------- ------,223930.09999999963,223927,223319.511,223333.40000000037,223360.071,223936.285,,13,government
screen,html.Screen,2_1_1_1_14,2022-02-02T17:47:44.625Z,,,,,,,,,,,,,,,,,54,,,,,,,,,,,,,,615.5149999998102,,response,,,,100,,,,,,,Space,keypress(Space),,,,,,,,-- --- ---- --- ------ ----- ------- ---- -- --- ------- --<br>------- ---------- bonds. -- ----- -- ----- -- ---- ------<br>--- ----- --- --- ------ -------- ----- --- ------ ----- --<br>----- ----- ---------- --- --- ------ ------ ---- -- ------<br>------- --- ------ ----- --- ---- ------- -- ---- --- --<br>------- ------,224555.7999999998,224551.7999999998,223919.895,223931.09999999963,223936.285,224569.698,,14,bonds.
screen,html.Screen,2_1_1_1_15,2022-02-02T17:47:45.158Z,,,,,,,,,,,,,,,,,54,,,,,,,,,,,,,,516.301999999996,,response,,,,100,,,,,,,Space,keypress(Space),,,,,,,,-- --- ---- --- ------ ----- ------- ---- -- --- ------- --<br>------- ---------- ------ In ----- -- ----- -- ---- ------<br>--- ----- --- --- ------ -------- ----- --- ------ ----- --<br>----- ----- ---------- --- --- ------ ------ ---- -- ------<br>------- --- ------ ----- --- ---- ------- -- ---- --- --<br>------- ------,225089.2000000002,225086,224553.038,224556.7000000002,224569.698,225102.892,,15,In
screen,html.Screen,2_1_1_1_16,2022-02-02T17:47:46.498Z,,,,,,,,,,,,,,,,,54,,,,,,,,,,,,,,1322.9079999998212,,response,,,,100,,,,,,,Space,keypress(Space),,,,,,,,"-- --- ---- --- ------ ----- ------- ---- -- --- ------- --<br>------- ---------- ------ -- 1727, -- ----- -- ---- ------<br>--- ----- --- --- ------ -------- ----- --- ------ ----- --<br>----- ----- ---------- --- --- ------ ------ ---- -- ------<br>------- --- ------ ----- --- ---- ------- -- ---- --- --<br>------- ------",226429,226425.7999999998,225086.094,225090.2000000002,225102.892,226436.4,,16,"1727,"
screen,html.Screen,2_1_1_1_17,2022-02-02T17:47:47.055Z,,,,,,,,,,,,,,,,,54,,,,,,,,,,,,,,545.8000000001921,,response,,,,100,,,,,,,Space,keypress(Space),,,,,,,,-- --- ---- --- ------ ----- ------- ---- -- --- ------- --<br>------- ---------- ------ -- ----- in ----- -- ---- ------<br>--- ----- --- --- ------ -------- ----- --- ------ ----- --<br>----- ----- ---------- --- --- ------ ------ ---- -- ------<br>------- --- ------ ----- --- ---- ------- -- ---- --- --<br>------- ------,226985.90000000037,226982.2000000002,226419.858,226430,226436.4,227002.855,,17,in
screen,html.Screen,2_1_1_1_18,2022-02-02T17:47:47.652Z,,,,,,,,,,,,,,,,,54,,,,,,,,,,,,,,576.045000000362,,response,,,,100,,,,,,,Space,keypress(Space),,,,,,,,-- --- ---- --- ------ ----- ------- ---- -- --- ------- --<br>------- ---------- ------ -- ----- -- order -- ---- ------<br>--- ----- --- --- ------ -------- ----- --- ------ ----- --<br>----- ----- ---------- --- --- ------ ------ ---- -- ------<br>------- --- ------ ----- --- ---- ------- -- ---- --- --<br>------- ------,227582.40000000037,227578.90000000037,226986.642,226987,227002.855,227606.757,,18,order
screen,html.Screen,2_1_1_1_19,2022-02-02T17:47:48.060Z,,,,,,,,,,,,,,,,,54,,,,,,,,,,,,,,380.5429999998014,,response,,,,100,,,,,,,Space,keypress(Space),,,,,,,,-- --- ---- --- ------ ----- ------- ---- -- --- ------- --<br>------- ---------- ------ -- ----- -- ----- to ---- ------<br>--- ----- --- --- ------ -------- ----- --- ------ ----- --<br>----- ----- ---------- --- --- ------ ------ ---- -- ------<br>------- --- ------ ----- --- ---- ------- -- ---- --- --<br>------- ------,227990.40000000037,227987.2999999998,227570.216,227583.5,227606.757,228002.958,,19,to
screen,html.Screen,2_1_1_1_20,2022-02-02T17:47:48.504Z,,,,,,,,,,,,,,,,,54,,,,,,,,,,,,,,428.34199999980046,,response,,,,100,,,,,,,Space,keypress(Space),,,,,,,,-- --- ---- --- ------ ----- ------- ---- -- --- ------- --<br>------- ---------- ------ -- ----- -- ----- -- save ------<br>--- ----- --- --- ------ -------- ----- --- ------ ----- --<br>----- ----- ---------- --- --- ------ ------ ---- -- ------<br>------- --- ------ ----- --- ---- ------- -- ---- --- --<br>------- ------,228434.59999999963,228431.2999999998,227986.449,227991.40000000037,228002.958,228452.809,,20,save
screen,html.Screen,2_1_1_1_21,2022-02-02T17:47:48.944Z,,,,,,,,,,,,,,,,,54,,,,,,,,,,,,,,418.49099999980535,,response,,,,100,,,,,,,Space,keypress(Space),,,,,,,,"-- --- ---- --- ------ ----- ------- ---- -- --- ------- --<br>------- ---------- ------ -- ----- -- ----- -- ---- money,<br>--- ----- --- --- ------ -------- ----- --- ------ ----- --<br>----- ----- ---------- --- --- ------ ------ ---- -- ------<br>------- --- ------ ----- --- ---- ------- -- ---- --- --<br>------- ------",228874.2999999998,228871.2999999998,228436.703,228435.59999999963,228452.809,228886.408,,21,"money,"
screen,html.Screen,2_1_1_1_22,2022-02-02T17:47:49.408Z,,,,,,,,,,,,,,,,,54,,,,,,,,,,,,,,449.19199999963166,,response,,,,100,,,,,,,Space,keypress(Space),,,,,,,,-- --- ---- --- ------ ----- ------- ---- -- --- ------- --<br>------- ---------- ------ -- ----- -- ----- -- ---- ------<br>the ----- --- --- ------ -------- ----- --- ------ ----- --<br>----- ----- ---------- --- --- ------ ------ ---- -- ------<br>------- --- ------ ----- --- ---- ------- -- ---- --- --<br>------- ------,229339,229335.59999999963,228869.751,228875.40000000037,228886.408,229352.985,,22,the
screen,html.Screen,2_1_1_1_23,2022-02-02T17:47:49.841Z,,,,,,,,,,,,,,,,,54,,,,,,,,,,,,,,415.4150000003865,,response,,,,100,,,,,,,Space,keypress(Space),,,,,,,,-- --- ---- --- ------ ----- ------- ---- -- --- ------- --<br>------- ---------- ------ -- ----- -- ----- -- ---- ------<br>--- state --- --- ------ -------- ----- --- ------ ----- --<br>----- ----- ---------- --- --- ------ ------ ---- -- ------<br>------- --- ------ ----- --- ---- ------- -- ---- --- --<br>------- ------,229771.7000000002,229768.40000000037,229336.791,229340,229352.985,229786.185,,23,state
screen,html.Screen,2_1_1_1_24,2022-02-02T17:47:50.311Z,,,,,,,,,,,,,,,,,54,,,,,,,,,,,,,,453.0150000001886,,response,,,,100,,,,,,,Space,keypress(Space),,,,,,,,-- --- ---- --- ------ ----- ------- ---- -- --- ------- --<br>------- ---------- ------ -- ----- -- ----- -- ---- ------<br>--- ----- cut --- ------ -------- ----- --- ------ ----- --<br>----- ----- ---------- --- --- ------ ------ ---- -- ------<br>------- --- ------ ----- --- ---- ------- -- ---- --- --<br>------- ------,230242.09999999963,230239.2000000002,229770.231,229772.59999999963,229786.185,230253.154,,24,cut
screen,html.Screen,2_1_1_1_25,2022-02-02T17:47:50.732Z,,,,,,,,,,,,,,,,,54,,,,,,,,,,,,,,406.1459999998042,,response,,,,100,,,,,,,Space,keypress(Space),,,,,,,,-- --- ---- --- ------ ----- ------- ---- -- --- ------- --<br>------- ---------- ------ -- ----- -- ----- -- ---- ------<br>--- ----- --- the ------ -------- ----- --- ------ ----- --<br>----- ----- ---------- --- --- ------ ------ ---- -- ------<br>------- --- ------ ----- --- ---- ------- -- ---- --- --<br>------- ------,230662.5,230659.2999999998,230236.451,230243.2999999998,230253.154,230669.883,,25,the
screen,html.Screen,2_1_1_1_26,2022-02-02T17:47:51.162Z,,,,,,,,,,,,,,,,,54,,,,,,,,,,,,,,419.71699999962584,,response,,,,100,,,,,,,Space,keypress(Space),,,,,,,,-- --- ---- --- ------ ----- ------- ---- -- --- ------- --<br>------- ---------- ------ -- ----- -- ----- -- ---- ------<br>--- ----- --- --- bonds' -------- ----- --- ------ ----- --<br>----- ----- ---------- --- --- ------ ------ ---- -- ------<br>------- --- ------ ----- --- ---- ------- -- ---- --- --<br>------- ------,231092.40000000037,231089.59999999963,230653.289,230663.59999999963,230669.883,231103.093,,26,bonds'
screen,html.Screen,2_1_1_1_27,2022-02-02T17:47:51.590Z,,,,,,,,,,,,,,,,,54,,,,,,,,,,,,,,414.70699999982025,,response,,,,100,,,,,,,Space,keypress(Space),,,,,,,,-- --- ---- --- ------ ----- ------- ---- -- --- ------- --<br>------- ---------- ------ -- ----- -- ----- -- ---- ------<br>--- ----- --- --- ------ interest ----- --- ------ ----- --<br>----- ----- ---------- --- --- ------ ------ ---- -- ------<br>------- --- ------ ----- --- ---- ------- -- ---- --- --<br>------- ------,231520.90000000037,231517.7999999998,231086.518,231093.40000000037,231103.093,231536.191,,27,interest
screen,html.Screen,2_1_1_1_28,2022-02-02T17:47:52.011Z,,,,,,,,,,,,,,,,,54,,,,,,,,,,,,,,402.40899999963585,,response,,,,100,,,,,,,Space,keypress(Space),,,,,,,,-- --- ---- --- ------ ----- ------- ---- -- --- ------- --<br>------- ---------- ------ -- ----- -- ----- -- ---- ------<br>--- ----- --- --- ------ -------- rate. --- ------ ----- --<br>----- ----- ---------- --- --- ------ ------ ---- -- ------<br>------- --- ------ ----- --- ---- ------- -- ---- --- --<br>------- ------,231942,231938.59999999963,231519.854,231522,231536.191,231953.257,,28,rate.
screen,html.Screen,2_1_1_1_29,2022-02-02T17:47:52.466Z,,,,,,,,,,,,,,,,,54,,,,,,,,,,,,,,440.6430000003602,,response,,,,100,,,,,,,Space,keypress(Space),,,,,,,,-- --- ---- --- ------ ----- ------- ---- -- --- ------- --<br>------- ---------- ------ -- ----- -- ----- -- ---- ------<br>--- ----- --- --- ------ -------- ----- The ------ ----- --<br>----- ----- ---------- --- --- ------ ------ ---- -- ------<br>------- --- ------ ----- --- ---- ------- -- ---- --- --<br>------- ------,232396.7000000002,232393.90000000037,231936.582,231942.90000000037,231953.257,232403.091,,29,The
screen,html.Screen,2_1_1_1_30,2022-02-02T17:47:52.854Z,,,,,,,,,,,,,,,,,54,,,,,,,,,,,,,,378.9090000000142,,response,,,,100,,,,,,,Space,keypress(Space),,,,,,,,-- --- ---- --- ------ ----- ------- ---- -- --- ------- --<br>------- ---------- ------ -- ----- -- ----- -- ---- ------<br>--- ----- --- --- ------ -------- ----- --- market ----- --<br>----- ----- ---------- --- --- ------ ------ ---- -- ------<br>------- --- ------ ----- --- ---- ------- -- ---- --- --<br>------- ------,232785,232782,232386.916,232397.7999999998,232403.091,232803.209,,30,market
screen,html.Screen,2_1_1_1_31,2022-02-02T17:47:53.243Z,,,,,,,,,,,,,,,,,54,,,,,,,,,,,,,,367.69100000036997,,response,,,,100,,,,,,,Space,keypress(Space),,,,,,,,-- --- ---- --- ------ ----- ------- ---- -- --- ------- --<br>------- ---------- ------ -- ----- -- ----- -- ---- ------<br>--- ----- --- --- ------ -------- ----- --- ------ value --<br>----- ----- ---------- --- --- ------ ------ ---- -- ------<br>------- --- ------ ----- --- ---- ------- -- ---- --- --<br>------- ------,233174.09999999963,233170.90000000037,232786.552,232786,232803.209,233186.221,,31,value
screen,html.Screen,2_1_1_1_32,2022-02-02T17:47:53.771Z,,,,,,,,,,,,,,,,,54,,,,,,,,,,,,,,512.378999999637,,response,,,,100,,,,,,,Space,keypress(Space),,,,,,,,-- --- ---- --- ------ ----- ------- ---- -- --- ------- --<br>------- ---------- ------ -- ----- -- ----- -- ---- ------<br>--- ----- --- --- ------ -------- ----- --- ------ ----- of<br>----- ----- ---------- --- --- ------ ------ ---- -- ------<br>------- --- ------ ----- --- ---- ------- -- ---- --- --<br>------- ------,233701.90000000037,233698.59999999963,233169.926,233175.09999999963,233186.221,233720.054,,32,of
screen,html.Screen,2_1_1_1_33,2022-02-02T17:47:54.223Z,,,,,,,,,,,,,,,,,54,,,,,,,,,,,,,,430.3460000003688,,response,,,,100,,,,,,,Space,keypress(Space),,,,,,,,-- --- ---- --- ------ ----- ------- ---- -- --- ------- --<br>------- ---------- ------ -- ----- -- ----- -- ---- ------<br>--- ----- --- --- ------ -------- ----- --- ------ ----- --<br>these ----- ---------- --- --- ------ ------ ---- -- ------<br>------- --- ------ ----- --- ---- ------- -- ---- --- --<br>------- ------,234153.7999999998,234150.40000000037,233703.572,233702.90000000037,233720.054,234169.66,,33,these
screen,html.Screen,2_1_1_1_34,2022-02-02T17:47:54.623Z,,,,,,,,,,,,,,,,,54,,,,,,,,,,,,,,381.13999999981024,,response,,,,100,,,,,,,Space,keypress(Space),,,,,,,,-- --- ---- --- ------ ----- ------- ---- -- --- ------- --<br>------- ---------- ------ -- ----- -- ----- -- ---- ------<br>--- ----- --- --- ------ -------- ----- --- ------ ----- --<br>----- bonds ---------- --- --- ------ ------ ---- -- ------<br>------- --- ------ ----- --- ---- ------- -- ---- --- --<br>------- ------,234554,234550.7999999998,234152.906,234154.90000000037,234169.66,234569.727,,34,bonds
screen,html.Screen,2_1_1_1_35,2022-02-02T17:47:55.138Z,,,,,,,,,,,,,,,,,54,,,,,,,,,,,,,,495.07299999980023,,response,,,,100,,,,,,,Space,keypress(Space),,,,,,,,"-- --- ---- --- ------ ----- ------- ---- -- --- ------- --<br>------- ---------- ------ -- ----- -- ----- -- ---- ------<br>--- ----- --- --- ------ -------- ----- --- ------ ----- --<br>----- ----- plummeted, --- --- ------ ------ ---- -- ------<br>------- --- ------ ----- --- ---- ------- -- ---- --- --<br>------- ------",235068.40000000037,235064.7999999998,234553.233,234555.09999999963,234569.727,235086.68,,35,"plummeted,"
screen,html.Screen,2_1_1_1_36,2022-02-02T17:47:55.523Z,,,,,,,,,,,,,,,,,54,,,,,,,,,,,,,,362.91999999963446,,response,,,,100,,,,,,,Space,keypress(Space),,,,,,,,-- --- ---- --- ------ ----- ------- ---- -- --- ------- --<br>------- ---------- ------ -- ----- -- ----- -- ---- ------<br>--- ----- --- --- ------ -------- ----- --- ------ ----- --<br>----- ----- ---------- and --- ------ ------ ---- -- ------<br>------- --- ------ ----- --- ---- ------- -- ---- --- --<br>------- ------,235453.40000000037,235449.59999999963,235070.345,235069.40000000037,235086.68,235469.733,,36,and
screen,html.Screen,2_1_1_1_37,2022-02-02T17:47:55.905Z,,,,,,,,,,,,,,,,,54,,,,,,,,,,,,,,362.0669999998063,,response,,,,100,,,,,,,Space,keypress(Space),,,,,,,,-- --- ---- --- ------ ----- ------- ---- -- --- ------- --<br>------- ---------- ------ -- ----- -- ----- -- ---- ------<br>--- ----- --- --- ------ -------- ----- --- ------ ----- --<br>----- ----- ---------- --- the ------ ------ ---- -- ------<br>------- --- ------ ----- --- ---- ------- -- ---- --- --<br>------- ------,235836.09999999963,235831.7999999998,235453.317,235454.40000000037,235469.733,235853.108,,37,the
screen,html.Screen,2_1_1_1_38,2022-02-02T17:47:56.301Z,,,,,,,,,,,,,,,,,54,,,,,,,,,,,,,,375.89199999999255,,response,,,,100,,,,,,,Space,keypress(Space),,,,,,,,-- --- ---- --- ------ ----- ------- ---- -- --- ------- --<br>------- ---------- ------ -- ----- -- ----- -- ---- ------<br>--- ----- --- --- ------ -------- ----- --- ------ ----- --<br>----- ----- ---------- --- --- market ------ ---- -- ------<br>------- --- ------ ----- --- ---- ------- -- ---- --- --<br>------- ------,236232.2999999998,236229,235836.727,235837.09999999963,235853.108,236257.573,,38,market
screen,html.Screen,2_1_1_1_39,2022-02-02T17:47:56.716Z,,,,,,,,,,,,,,,,,54,,,,,,,,,,,,,,386.42699999999604,,response,,,,100,,,,,,,Space,keypress(Space),,,,,,,,-- --- ---- --- ------ ----- ------- ---- -- --- ------- --<br>------- ---------- ------ -- ----- -- ----- -- ---- ------<br>--- ----- --- --- ------ -------- ----- --- ------ ----- --<br>----- ----- ---------- --- --- ------ became ---- -- ------<br>------- --- ------ ----- --- ---- ------- -- ---- --- --<br>------- ------,236646.90000000037,236644,236220.016,236233.2999999998,236257.573,236653.637,,39,became
screen,html.Screen,2_1_1_1_40,2022-02-02T17:47:57.085Z,,,,,,,,,,,,,,,,,54,,,,,,,,,,,,,,358.66299999982584,,response,,,,100,,,,,,,Space,keypress(Space),,,,,,,,-- --- ---- --- ------ ----- ------- ---- -- --- ------- --<br>------- ---------- ------ -- ----- -- ----- -- ---- ------<br>--- ----- --- --- ------ -------- ----- --- ------ ----- --<br>----- ----- ---------- --- --- ------ ------ wary -- ------<br>------- --- ------ ----- --- ---- ------- -- ---- --- --<br>------- ------,237015.40000000037,237012.2999999998,236637.054,236648,236653.637,237019.831,,40,wary
screen,html.Screen,2_1_1_1_41,2022-02-02T17:47:57.511Z,,,,,,,,,,,,,,,,,54,,,,,,,,,,,,,,418.1689999999944,,response,,,,100,,,,,,,Space,keypress(Space),,,,,,,,-- --- ---- --- ------ ----- ------- ---- -- --- ------- --<br>------- ---------- ------ -- ----- -- ----- -- ---- ------<br>--- ----- --- --- ------ -------- ----- --- ------ ----- --<br>----- ----- ---------- --- --- ------ ------ ---- of ------<br>------- --- ------ ----- --- ---- ------- -- ---- --- --<br>------- ------,237441.2999999998,237438,237003.829,237016.5,237019.831,237453.12,,41,of
screen,html.Screen,2_1_1_1_42,2022-02-02T17:47:58.043Z,,,,,,,,,,,,,,,,,54,,,,,,,,,,,,,,499.6799999998184,,response,,,,100,,,,,,,Space,keypress(Space),,,,,,,,-- --- ---- --- ------ ----- ------- ---- -- --- ------- --<br>------- ---------- ------ -- ----- -- ----- -- ---- ------<br>--- ----- --- --- ------ -------- ----- --- ------ ----- --<br>----- ----- ---------- --- --- ------ ------ ---- -- French<br>------- --- ------ ----- --- ---- ------- -- ---- --- --<br>------- ------,237974,237952.7999999998,237437.304,237442.40000000037,237453.12,237986.856,,42,French
screen,html.Screen,2_1_1_1_43,2022-02-02T17:47:58.513Z,,,,,,,,,,,,,,,,,54,,,,,,,,,,,,,,453.44399999981397,,response,,,,100,,,,,,,Space,keypress(Space),,,,,,,,-- --- ---- --- ------ ----- ------- ---- -- --- ------- --<br>------- ---------- ------ -- ----- -- ----- -- ---- ------<br>--- ----- --- --- ------ -------- ----- --- ------ ----- --<br>----- ----- ---------- --- --- ------ ------ ---- -- ------<br>credit. --- ------ ----- --- ---- ------- -- ---- --- --<br>------- ------,238443.2999999998,238440.2999999998,237970.076,237975.09999999963,237986.856,238453.615,,43,credit.
screen,html.Screen,2_1_1_1_44,2022-02-02T17:47:58.862Z,,,,,,,,,,,,,,,,,54,,,,,,,,,,,,,,336.18499999982305,,response,,,,100,,,,,,,Space,keypress(Space),,,,,,,,-- --- ---- --- ------ ----- ------- ---- -- --- ------- --<br>------- ---------- ------ -- ----- -- ----- -- ---- ------<br>--- ----- --- --- ------ -------- ----- --- ------ ----- --<br>----- ----- ---------- --- --- ------ ------ ---- -- ------<br>------- The ------ ----- --- ---- ------- -- ---- --- --<br>------- ------,238792.90000000037,238789.7999999998,238437.073,238444.2999999998,238453.615,238803.368,,44,The
screen,html.Screen,2_1_1_1_45,2022-02-02T17:47:59.277Z,,,,,,,,,,,,,,,,,54,,,,,,,,,,,,,,401.8320000001986,,response,,,,100,,,,,,,Space,keypress(Space),,,,,,,,-- --- ---- --- ------ ----- ------- ---- -- --- ------- --<br>------- ---------- ------ -- ----- -- ----- -- ---- ------<br>--- ----- --- --- ------ -------- ----- --- ------ ----- --<br>----- ----- ---------- --- --- ------ ------ ---- -- ------<br>------- --- French ----- --- ---- ------- -- ---- --- --<br>------- ------,239208.09999999963,239205.2000000002,238787.368,238793.90000000037,238803.368,239220.052,,45,French
screen,html.Screen,2_1_1_1_46,2022-02-02T17:47:59.618Z,,,,,,,,,,,,,,,,,54,,,,,,,,,,,,,,325.3480000003765,,response,,,,100,,,,,,,Space,keypress(Space),,,,,,,,-- --- ---- --- ------ ----- ------- ---- -- --- ------- --<br>------- ---------- ------ -- ----- -- ----- -- ---- ------<br>--- ----- --- --- ------ -------- ----- --- ------ ----- --<br>----- ----- ---------- --- --- ------ ------ ---- -- ------<br>------- --- ------ state --- ---- ------- -- ---- --- --<br>------- ------,239548.5,239545.40000000037,239203.542,239209.59999999963,239220.052,239553.606,,46,state
screen,html.Screen,2_1_1_1_47,2022-02-02T17:48:00.079Z,,,,,,,,,,,,,,,,,54,,,,,,,,,,,,,,454.69399999981397,,response,,,,100,,,,,,,Space,keypress(Space),,,,,,,,-- --- ---- --- ------ ----- ------- ---- -- --- ------- --<br>------- ---------- ------ -- ----- -- ----- -- ---- ------<br>--- ----- --- --- ------ -------- ----- --- ------ ----- --<br>----- ----- ---------- --- --- ------ ------ ---- -- ------<br>------- --- ------ ----- was ---- ------- -- ---- --- --<br>------- ------,240009.90000000037,240008.2999999998,239536.729,239549.5,239553.606,240019.698,,47,was
screen,html.Screen,2_1_1_1_48,2022-02-02T17:48:00.544Z,,,,,,,,,,,,,,,,,54,,,,,,,,,,,,,,451.6019999998098,,response,,,,100,,,,,,,Space,keypress(Space),,,,,,,,-- --- ---- --- ------ ----- ------- ---- -- --- ------- --<br>------- ---------- ------ -- ----- -- ----- -- ---- ------<br>--- ----- --- --- ------ -------- ----- --- ------ ----- --<br>----- ----- ---------- --- --- ------ ------ ---- -- ------<br>------- --- ------ ----- --- left ------- -- ---- --- --<br>------- ------,240474.5,240471.2999999998,240003.839,240010.2999999998,240019.698,240486.552,,48,left
screen,html.Screen,2_1_1_1_49,2022-02-02T17:48:00.970Z,,,,,,,,,,,,,,,,,54,,,,,,,,,,,,,,410.7479999998177,,response,,,,100,,,,,,,Space,keypress(Space),,,,,,,,-- --- ---- --- ------ ----- ------- ---- -- --- ------- --<br>------- ---------- ------ -- ----- -- ----- -- ---- ------<br>--- ----- --- --- ------ -------- ----- --- ------ ----- --<br>----- ----- ---------- --- --- ------ ------ ---- -- ------<br>------- --- ------ ----- --- ---- without -- ---- --- --<br>------- ------,240900.7000000002,240897.2999999998,240469.627,240475.59999999963,240486.552,240920.285,,49,without
screen,html.Screen,2_1_1_1_50,2022-02-02T17:48:01.333Z,,,,,,,,,,,,,,,,,54,,,,,,,,,,,,,,340.61500000036904,,response,,,,100,,,,,,,Space,keypress(Space),,,,,,,,-- --- ---- --- ------ ----- ------- ---- -- --- ------- --<br>------- ---------- ------ -- ----- -- ----- -- ---- ------<br>--- ----- --- --- ------ -------- ----- --- ------ ----- --<br>----- ----- ---------- --- --- ------ ------ ---- -- ------<br>------- --- ------ ----- --- ---- ------- an ---- --- --<br>------- ------,241264,241260.90000000037,240903.653,240901.7999999998,240920.285,241270.027,,50,an
screen,html.Screen,2_1_1_1_51,2022-02-02T17:48:01.710Z,,,,,,,,,,,,,,,,,54,,,,,,,,,,,,,,367.97299999999814,,response,,,,100,,,,,,,Space,keypress(Space),,,,,,,,-- --- ---- --- ------ ----- ------- ---- -- --- ------- --<br>------- ---------- ------ -- ----- -- ----- -- ---- ------<br>--- ----- --- --- ------ -------- ----- --- ------ ----- --<br>----- ----- ---------- --- --- ------ ------ ---- -- ------<br>------- --- ------ ----- --- ---- ------- -- easy --- --<br>------- ------,241640.5,241638,241253.556,241265.2000000002,241270.027,241653.258,,51,easy
screen,html.Screen,2_1_1_1_52,2022-02-02T17:48:02.119Z,,,,,,,,,,,,,,,,,54,,,,,,,,,,,,,,395.0419999998121,,response,,,,100,,,,,,,Space,keypress(Space),,,,,,,,-- --- ---- --- ------ ----- ------- ---- -- --- ------- --<br>------- ---------- ------ -- ----- -- ----- -- ---- ------<br>--- ----- --- --- ------ -------- ----- --- ------ ----- --<br>----- ----- ---------- --- --- ------ ------ ---- -- ------<br>------- --- ------ ----- --- ---- ------- -- ---- way --<br>------- ------,242050.09999999963,242048.2999999998,241637.324,241641.2999999998,241653.258,242053.597,,52,way
screen,html.Screen,2_1_1_1_53,2022-02-02T17:48:02.543Z,,,,,,,,,,,,,,,,,54,,,,,,,,,,,,,,418.90299999999115,,response,,,,100,,,,,,,Space,keypress(Space),,,,,,,,-- --- ---- --- ------ ----- ------- ---- -- --- ------- --<br>------- ---------- ------ -- ----- -- ----- -- ---- ------<br>--- ----- --- --- ------ -------- ----- --- ------ ----- --<br>----- ----- ---------- --- --- ------ ------ ---- -- ------<br>------- --- ------ ----- --- ---- ------- -- ---- --- of<br>------- ------,242474.2000000002,242472.5,242036.692,242050.40000000037,242053.597,242486.471,,53,of
screen,html.Screen,2_1_1_1_54,2022-02-02T17:48:02.968Z,,,,,,,,,,,,,,,,,54,,,,,,,,,,,,,,410.2290000001958,,response,,,,100,,,,,,,Space,keypress(Space),,,,,,,,-- --- ---- --- ------ ----- ------- ---- -- --- ------- --<br>------- ---------- ------ -- ----- -- ----- -- ---- ------<br>--- ----- --- --- ------ -------- ----- --- ------ ----- --<br>----- ----- ---------- --- --- ------ ------ ---- -- ------<br>------- --- ------ ----- --- ---- ------- -- ---- --- --<br>raising ------,242898.2999999998,242896.7000000002,242470.101,242474.5,242486.471,242903.112,,54,raising
screen,html.Screen,2_1_1_1_55,2022-02-02T17:48:03.465Z,,,,,,,,,,,,,,,,,54,,,,,,,,,,,,,,489.8880000000063,,response,,,,100,,,,,,,Space,keypress(Space),,,,,,,,-- --- ---- --- ------ ----- ------- ---- -- --- ------- --<br>------- ---------- ------ -- ----- -- ----- -- ---- ------<br>--- ----- --- --- ------ -------- ----- --- ------ ----- --<br>----- ----- ---------- --- --- ------ ------ ---- -- ------<br>------- --- ------ ----- --- ---- ------- -- ---- --- --<br>------- money.,243396,243393,242886.481,242898.7000000002,242903.112,243420.162,,55,money.
Item 100,flow.Loop,2_1_1_1,2022-02-02T17:48:03.467Z,,,,,,,,,,,,,,,,,,,,,,,,,,,,,,,26240.193,,completion,,,,,E,,,,,,,,,,,silence,,,,,243397.90000000037,243393,217136.014,217139.90000000037,217152.807,243420.162,,,
Question 1,html.Screen,2_1_1_2,2022-02-02T17:48:07.033Z,,,,,,,,,,,,,,,,,,,,,,,,,,,,true,TRUE,,3540.837999999989,,response,,,,100,E,,,,,,TRUE,click #choice-1,,,,silence,,,,,246963.40000000037,246961,243386.573,243398.90000000037,243420.162,246969.979,,,
Question 2,html.Screen,2_1_1_3,2022-02-02T17:48:10.413Z,,,,,,,,,,,,,,,,,,,,,,,,,,,,true,FALSE,,3371.021000000008,,response,,,,100,E,,,,,,FALSE,click #choice-2,,,,silence,,,,,250343.2999999998,250341,246953.325,246963.7999999998,246969.979,250353.472,,,
Item 100,flow.Sequence,2_1_1,2022-02-02T17:48:10.413Z,,,,,,,,,,,,,,,,,,,,,,,,,,,,,,,43188.954,,completion,,,,,,,,,,,,,,,,,,,,,250344,250341,207118.456,207137,207152.046,250353.472,,,
End of Practice,html.Page,2_1_2,2022-02-02T17:48:14.152Z,,,,,,,,,,,,,,,,,,,,,,,,,,,,,,,3728.327999999805,,form submission,,,,,,,,,,,,,,,,,,,,,254082.7999999998,254081.7999999998,250336.728,250344.2999999998,250353.472,254087.226,,,
Practice,flow.Sequence,2_1,2022-02-02T17:48:14.153Z,,,,,,,,,,,,,,,,,,,,,,,,,,,,,,,96098.3419999998,,completion,,,,,,,,,,,,,,,,,,,,,254083.5,254081.7999999998,157966.732,157985.2999999998,157983.458,254087.226,,,
Trap_instruction,html.Page,2_2_0,2022-02-02T17:48:19.472Z,,,,,,,,,,,,,,,,,,,,,,,,,,,,,,,5314.674000000377,,form submission,,,,,,,,,,,,,,,,,,,,,259402.7999999998,259401.90000000037,254070.226,254083.90000000037,254087.226,259503.693,,,
trap_trial,html.Screen,2_2_1,2022-02-02T17:48:23.791Z,,,,,,,,,,,,,,,,,,,,,,,,,,,,true,1,,4210.307000000001,,response,,,,,,,,,,,1,click #choice-1,,,,,,,,,263716.5,263714,259387.952,259403.09999999963,259503.693,263720.738,,,
end of trap trial,html.Page,2_2_2,2022-02-02T17:48:25.917Z,,,,,,,,,,,,,,,,,,,,,,,,,,,,,,,2120.0619999998016,,form submission,,,,,,,,,,,,,,,,,,,,,265841.7000000002,265840.7999999998,263703.834,263717.2000000002,263720.738,265853.913,,,
Trap 1,flow.Sequence,2_2,2022-02-02T17:48:25.917Z,,,,,,,,,,,,,,,,,,,,,,,,,,,,,,,11753.573999999819,,completion,,,,,,,,,,,,,,,,,,,,,265842.2999999998,265840.7999999998,254070.226,254083.7999999998,254087.226,265853.913,,,
Standby,html.Page,2_3_0,2022-02-02T17:48:33.915Z,,,,,,,,,,,,,,,,,,,,,,,,,,,,,,,8000.47100000002,,timeout,,,,,,,,,,,,,,,,,,,,,273840.2999999998,273838.073,265837.352,265842.7999999998,265853.913,273854.384,,,
Holding screen,html.Screen,2_3_1_0_0,2022-02-02T17:48:40.915Z,,,,,,,,,,,,,,,,,,,,,,,,,,,,,,,7000.256999999983,,timeout,,,,,,,,,,,,,,,,,,,,,280839.7999999998,280838.352,273838.073,273841.7999999998,273854.384,280854.641,,,
screen,html.Screen,2_3_1_0_1_0,2022-02-02T17:48:41.641Z,,,,,,,,,,,,,,,,,15,,,,,,,,,,,,,,708.4589999996242,,response,,,,7,E,,,,,,Space,keypress(Space),,,,lyrical,,,,Greg --------- ---------- - --- ------- -- --- ------------<br>----- -- -------- ------- ---- ------ - -------- ---- -----<br>--- ------- ---- -- --- -------- --- - ----- ------ ---- --<br>-------- --- -------- -------- --- -------- ---- -- ----- -<br>-------- ---- --- ---------- --------- -- ------- ------ -<br>--------- ----- -----,281566.5,281563.0999999996,280838.352,280840.4000000004,280854.641,281571.277,,0,Greg
screen,html.Screen,2_3_1_0_1_1,2022-02-02T17:48:42.095Z,,,,,,,,,,,,,,,,,15,,,,,,,,,,,,,,447.3229999996256,,response,,,,7,E,,,,,,Space,keypress(Space),,,,lyrical,,,,"---- Anderson, ---------- - --- ------- -- --- ------------<br>----- -- -------- ------- ---- ------ - -------- ---- -----<br>--- ------- ---- -- --- -------- --- - ----- ------ ---- --<br>-------- --- -------- -------- --- -------- ---- -- ----- -<br>-------- ---- --- ---------- --------- -- ------- ------ -<br>--------- ----- -----",282020.2000000002,282018.5999999996,281554.55,281567.5,281571.277,282038.527,,1,"Anderson,"
screen,html.Screen,2_3_1_0_1_2,2022-02-02T17:48:42.735Z,,,,,,,,,,,,,,,,,15,,,,,,,,,,,,,,619.7729999998119,,response,,,,7,E,,,,,,Space,keypress(Space),,,,lyrical,,,,---- --------- considered - --- ------- -- --- ------------<br>----- -- -------- ------- ---- ------ - -------- ---- -----<br>--- ------- ---- -- --- -------- --- - ----- ------ ---- --<br>-------- --- -------- -------- --- -------- ---- -- ----- -<br>-------- ---- --- ---------- --------- -- ------- ------ -<br>--------- ----- -----,282659.7999999998,282658.2999999998,282021.728,282020.5,282038.527,282671.32,,2,considered
screen,html.Screen,2_3_1_0_1_3,2022-02-02T17:48:43.103Z,,,,,,,,,,,,,,,,,15,,,,,,,,,,,,,,353.3800000001793,,response,,,,7,E,,,,,,Space,keypress(Space),,,,lyrical,,,,---- --------- ---------- a --- ------- -- --- ------------<br>----- -- -------- ------- ---- ------ - -------- ---- -----<br>--- ------- ---- -- --- -------- --- - ----- ------ ---- --<br>-------- --- -------- -------- --- -------- ---- -- ----- -<br>-------- ---- --- ---------- --------- -- ------- ------ -<br>--------- ----- -----,283028.0999999996,283024.7000000002,282655.014,282660.2000000002,282671.32,283037.976,,3,a
screen,html.Screen,2_3_1_0_1_4,2022-02-02T17:48:43.453Z,,,,,,,,,,,,,,,,,15,,,,,,,,,,,,,,338.72400000016205,,response,,,,7,E,,,,,,Space,keypress(Space),,,,lyrical,,,,---- --------- ---------- - key ------- -- --- ------------<br>----- -- -------- ------- ---- ------ - -------- ---- -----<br>--- ------- ---- -- --- -------- --- - ----- ------ ---- --<br>-------- --- -------- -------- --- -------- ---- -- ----- -<br>-------- ---- --- ---------- --------- -- ------- ------ -<br>--------- ----- -----,283378.5,283376.7000000002,283021.629,283029.0999999996,283037.976,283388.09,,4,key
screen,html.Screen,2_3_1_0_1_5,2022-02-02T17:48:44.026Z,,,,,,,,,,,,,,,,,15,,,,,,,,,,,,,,561.6100000001607,,response,,,,7,E,,,,,,Space,keypress(Space),,,,lyrical,,,,---- --------- ---------- - --- witness -- --- ------------<br>----- -- -------- ------- ---- ------ - -------- ---- -----<br>--- ------- ---- -- --- -------- --- - ----- ------ ---- --<br>-------- --- -------- -------- --- -------- ---- -- ----- -<br>-------- ---- --- ---------- --------- -- ------- ------ -<br>--------- ----- -----,283951.2000000002,283949.7000000002,283371.699,283378.9000000004,283388.09,283955.118,,5,witness
screen,html.Screen,2_3_1_0_1_6,2022-02-02T17:48:44.448Z,,,,,,,,,,,,,,,,,15,,,,,,,,,,,,,,415.4819999996107,,response,,,,7,E,,,,,,Space,keypress(Space),,,,lyrical,,,,---- --------- ---------- - --- ------- by --- ------------<br>----- -- -------- ------- ---- ------ - -------- ---- -----<br>--- ------- ---- -- --- -------- --- - ----- ------ ---- --<br>-------- --- -------- -------- --- -------- ---- -- ----- -<br>-------- ---- --- ---------- --------- -- ------- ------ -<br>--------- ----- -----,284373.5999999996,284370.5999999996,283938.274,283951.7000000002,283955.118,284388.045,,6,by
screen,html.Screen,2_3_1_0_1_7,2022-02-02T17:48:44.849Z,,,,,,,,,,,,,,,,,15,,,,,,,,,,,,,,384.65500000020256,,response,,,,7,E,,,,,,Space,keypress(Space),,,,lyrical,,,,---- --------- ---------- - --- ------- -- the ------------<br>----- -- -------- ------- ---- ------ - -------- ---- -----<br>--- ------- ---- -- --- -------- --- - ----- ------ ---- --<br>-------- --- -------- -------- --- -------- ---- -- ----- -<br>-------- ---- --- ---------- --------- -- ------- ------ -<br>--------- ----- -----,284774.0999999996,284772.7000000002,284371.222,284374.7000000002,284388.045,284788.071,,7,the
screen,html.Screen,2_3_1_0_1_8,2022-02-02T17:48:45.445Z,,,,,,,,,,,,,,,,,15,,,,,,,,,,,,,,580.8290000003763,,response,,,,7,E,,,,,,Space,keypress(Space),,,,lyrical,,,,"---- --------- ---------- - --- ------- -- --- prosecution,<br>----- -- -------- ------- ---- ------ - -------- ---- -----<br>--- ------- ---- -- --- -------- --- - ----- ------ ---- --<br>-------- --- -------- -------- --- -------- ---- -- ----- -<br>-------- ---- --- ---------- --------- -- ------- ------ -<br>--------- ----- -----",285370.5,285368.9000000004,284771.758,284774.5,284788.071,285388.641,,8,"prosecution,"
screen,html.Screen,2_3_1_0_1_9,2022-02-02T17:48:45.908Z,,,,,,,,,,,,,,,,,15,,,,,,,,,,,,,,442.6589999998105,,response,,,,7,E,,,,,,Space,keypress(Space),,,,lyrical,,,,---- --------- ---------- - --- ------- -- --- ------------<br>vowed -- -------- ------- ---- ------ - -------- ---- -----<br>--- ------- ---- -- --- -------- --- - ----- ------ ---- --<br>-------- --- -------- -------- --- -------- ---- -- ----- -<br>-------- ---- --- ---------- --------- -- ------- ------ -<br>--------- ----- -----,285833.0999999996,285831.2999999998,285371.733,285370.9000000004,285388.641,285838.464,,9,vowed
screen,html.Screen,2_3_1_0_1_10,2022-02-02T17:48:46.327Z,,,,,,,,,,,,,,,,,15,,,,,,,,,,,,,,412.3359999998356,,response,,,,7,E,,,,,,Space,keypress(Space),,,,lyrical,,,,---- --------- ---------- - --- ------- -- --- ------------<br>----- he -------- ------- ---- ------ - -------- ---- -----<br>--- ------- ---- -- --- -------- --- - ----- ------ ---- --<br>-------- --- -------- -------- --- -------- ---- -- ----- -<br>-------- ---- --- ---------- --------- -- ------- ------ -<br>--------- ----- -----,286252.4000000004,286250.7999999998,285821.919,285833.5,285838.464,286276.216,,10,he
screen,html.Screen,2_3_1_0_1_11,2022-02-02T17:48:46.721Z,,,,,,,,,,,,,,,,,15,,,,,,,,,,,,,,367.6840000003576,,response,,,,7,E,,,,,,Space,keypress(Space),,,,lyrical,,,,---- --------- ---------- - --- ------- -- --- ------------<br>----- -- wouldn't ------- ---- ------ - -------- ---- -----<br>--- ------- ---- -- --- -------- --- - ----- ------ ---- --<br>-------- --- -------- -------- --- -------- ---- -- ----- -<br>-------- ---- --- ---------- --------- -- ------- ------ -<br>--------- ----- -----,286645.7000000002,286643.9000000004,286237.997,286252.7999999998,286276.216,286654.753,,11,wouldn't
screen,html.Screen,2_3_1_0_1_12,2022-02-02T17:48:47.119Z,,,,,,,,,,,,,,,,,15,,,,,,,,,,,,,,387.2469999999739,,response,,,,7,E,,,,,,Space,keypress(Space),,,,lyrical,,,,---- --------- ---------- - --- ------- -- --- ------------<br>----- -- -------- testify ---- ------ - -------- ---- -----<br>--- ------- ---- -- --- -------- --- - ----- ------ ---- --<br>-------- --- -------- -------- --- -------- ---- -- ----- -<br>-------- ---- --- ---------- --------- -- ------- ------ -<br>--------- ----- -----,287043.5999999996,287042,286638.607,286646.0999999996,286654.753,287054.784,,12,testify
screen,html.Screen,2_3_1_0_1_13,2022-02-02T17:48:47.613Z,,,,,,,,,,,,,,,,,15,,,,,,,,,,,,,,481.01599999982864,,response,,,,7,E,,,,,,Space,keypress(Space),,,,lyrical,,,,---- --------- ---------- - --- ------- -- --- ------------<br>----- -- -------- ------- when ------ - -------- ---- -----<br>--- ------- ---- -- --- -------- --- - ----- ------ ---- --<br>-------- --- -------- -------- --- -------- ---- -- ----- -<br>-------- ---- --- ---------- --------- -- ------- ------ -<br>--------- ----- -----,287537.7000000002,287535.7999999998,287038.525,287044.0999999996,287054.784,287555.304,,13,when
screen,html.Screen,2_3_1_0_1_14,2022-02-02T17:48:48.089Z,,,,,,,,,,,,,,,,,15,,,,,,,,,,,,,,456.99599999981,,response,,,,7,E,,,,,,Space,keypress(Space),,,,lyrical,,,,---- --------- ---------- - --- ------- -- --- ------------<br>----- -- -------- ------- ---- served - -------- ---- -----<br>--- ------- ---- -- --- -------- --- - ----- ------ ---- --<br>-------- --- -------- -------- --- -------- ---- -- ----- -<br>-------- ---- --- ---------- --------- -- ------- ------ -<br>--------- ----- -----,288014,288012.2999999998,287538.289,287538.0999999996,287555.304,288021.599,,14,served
screen,html.Screen,2_3_1_0_1_15,2022-02-02T17:48:48.488Z,,,,,,,,,,,,,,,,,15,,,,,,,,,,,,,,389.7009999998263,,response,,,,7,E,,,,,,Space,keypress(Space),,,,lyrical,,,,---- --------- ---------- - --- ------- -- --- ------------<br>----- -- -------- ------- ---- ------ a -------- ---- -----<br>--- ------- ---- -- --- -------- --- - ----- ------ ---- --<br>-------- --- -------- -------- --- -------- ---- -- ----- -<br>-------- ---- --- ---------- --------- -- ------- ------ -<br>--------- ----- -----,288413.5,288411.2999999998,288005.279,288014.4000000004,288021.599,288421.688,,15,a
screen,html.Screen,2_3_1_0_1_16,2022-02-02T17:48:49.058Z,,,,,,,,,,,,,,,,,15,,,,,,,,,,,,,,559.7120000003488,,response,,,,7,E,,,,,,Space,keypress(Space),,,,lyrical,,,,---- --------- ---------- - --- ------- -- --- ------------<br>----- -- -------- ------- ---- ------ - subpoena ---- -----<br>--- ------- ---- -- --- -------- --- - ----- ------ ---- --<br>-------- --- -------- -------- --- -------- ---- -- ----- -<br>-------- ---- --- ---------- --------- -- ------- ------ -<br>--------- ----- -----,288983.0999999996,288981.4000000004,288405.112,288414.0999999996,288421.688,288988.359,,16,subpoena
screen,html.Screen,2_3_1_0_1_17,2022-02-02T17:48:49.517Z,,,,,,,,,,,,,,,,,15,,,,,,,,,,,,,,452.24099999963073,,response,,,,7,E,,,,,,Space,keypress(Space),,,,lyrical,,,,---- --------- ---------- - --- ------- -- --- ------------<br>----- -- -------- ------- ---- ------ - -------- last -----<br>--- ------- ---- -- --- -------- --- - ----- ------ ---- --<br>-------- --- -------- -------- --- -------- ---- -- ----- -<br>-------- ---- --- ---------- --------- -- ------- ------ -<br>--------- ----- -----,289442.2999999998,289440.5999999996,288971.539,288983.5,288988.359,289454.844,,17,last
screen,html.Screen,2_3_1_0_1_18,2022-02-02T17:48:50.139Z,,,,,,,,,,,,,,,,,15,,,,,,,,,,,,,,606.2559999996447,,response,,,,7,E,,,,,,Space,keypress(Space),,,,lyrical,,,,---- --------- ---------- - --- ------- -- --- ------------<br>----- -- -------- ------- ---- ------ - -------- ---- week.<br>--- ------- ---- -- --- -------- --- - ----- ------ ---- --<br>-------- --- -------- -------- --- -------- ---- -- ----- -<br>-------- ---- --- ---------- --------- -- ------- ------ -<br>--------- ----- -----,290063.7000000002,290061.0999999996,289438.45,289442.5999999996,289454.844,290071.998,,18,week.
screen,html.Screen,2_3_1_0_1_19,2022-02-02T17:48:50.626Z,,,,,,,,,,,,,,,,,15,,,,,,,,,,,,,,474.70200000016484,,response,,,,7,E,,,,,,Space,keypress(Space),,,,lyrical,,,,---- --------- ---------- - --- ------- -- --- ------------<br>----- -- -------- ------- ---- ------ - -------- ---- -----<br>His ------- ---- -- --- -------- --- - ----- ------ ---- --<br>-------- --- -------- -------- --- -------- ---- -- ----- -<br>-------- ---- --- ---------- --------- -- ------- ------ -<br>--------- ----- -----,290550.7999999998,290546.7000000002,290055.168,290064.5,290071.998,290555.043,,19,His
screen,html.Screen,2_3_1_0_1_20,2022-02-02T17:48:51.077Z,,,,,,,,,,,,,,,,,15,,,,,,,,,,,,,,445.2569999998086,,response,,,,7,E,,,,,,Space,keypress(Space),,,,lyrical,,,,---- --------- ---------- - --- ------- -- --- ------------<br>----- -- -------- ------- ---- ------ - -------- ---- -----<br>--- lawyers ---- -- --- -------- --- - ----- ------ ---- --<br>-------- --- -------- -------- --- -------- ---- -- ----- -<br>-------- ---- --- ---------- --------- -- ------- ------ -<br>--------- ----- -----,291001.7999999998,291000.2999999998,290538.642,290551.7000000002,290555.043,291005.088,,20,lawyers
screen,html.Screen,2_3_1_0_1_21,2022-02-02T17:48:51.577Z,,,,,,,,,,,,,,,,,15,,,,,,,,,,,,,,493.8120000003837,,response,,,,7,E,,,,,,Space,keypress(Space),,,,lyrical,,,,---- --------- ---------- - --- ------- -- --- ------------<br>----- -- -------- ------- ---- ------ - -------- ---- -----<br>--- ------- said -- --- -------- --- - ----- ------ ---- --<br>-------- --- -------- -------- --- -------- ---- -- ----- -<br>-------- ---- --- ---------- --------- -- ------- ------ -<br>--------- ----- -----,291502.2000000002,291498.9000000004,290988.242,291002.2000000002,291005.088,291521.586,,21,said
screen,html.Screen,2_3_1_0_1_22,2022-02-02T17:48:52.041Z,,,,,,,,,,,,,,,,,15,,,,,,,,,,,,,,443.0139999996172,,response,,,,7,E,,,,,,Space,keypress(Space),,,,lyrical,,,,---- --------- ---------- - --- ------- -- --- ------------<br>----- -- -------- ------- ---- ------ - -------- ---- -----<br>--- ------- ---- he --- -------- --- - ----- ------ ---- --<br>-------- --- -------- -------- --- -------- ---- -- ----- -<br>-------- ---- --- ---------- --------- -- ------- ------ -<br>--------- ----- -----,291966.2999999998,291964.5999999996,291505.156,291503.2999999998,291521.586,291972.018,,22,he
screen,html.Screen,2_3_1_0_1_23,2022-02-02T17:48:52.533Z,,,,,,,,,,,,,,,,,15,,,,,,,,,,,,,,482.3820000003907,,response,,,,7,E,,,,,,Space,keypress(Space),,,,lyrical,,,,---- --------- ---------- - --- ------- -- --- ------------<br>----- -- -------- ------- ---- ------ - -------- ---- -----<br>--- ------- ---- -- was -------- --- - ----- ------ ---- --<br>-------- --- -------- -------- --- -------- ---- -- ----- -<br>-------- ---- --- ---------- --------- -- ------- ------ -<br>--------- ----- -----,292457.7000000002,292454.4000000004,291954.827,291966.9000000004,291972.018,292471.685,,23,was
screen,html.Screen,2_3_1_0_1_24,2022-02-02T17:48:53.088Z,,,,,,,,,,,,,,,,,15,,,,,,,,,,,,,,538.9149999996298,,response,,,,7,E,,,,,,Space,keypress(Space),,,,lyrical,,,,---- --------- ---------- - --- ------- -- --- ------------<br>----- -- -------- ------- ---- ------ - -------- ---- -----<br>--- ------- ---- -- --- prepared --- - ----- ------ ---- --<br>-------- --- -------- -------- --- -------- ---- -- ----- -<br>-------- ---- --- ---------- --------- -- ------- ------ -<br>--------- ----- -----,293013.0999999996,293010.5999999996,292455.48,292458.7999999998,292471.685,293021.561,,24,prepared
screen,html.Screen,2_3_1_0_1_25,2022-02-02T17:48:53.653Z,,,,,,,,,,,,,,,,,15,,,,,,,,,,,,,,555.0389999996405,,response,,,,7,E,,,,,,Space,keypress(Space),,,,lyrical,,,,---- --------- ---------- - --- ------- -- --- ------------<br>----- -- -------- ------- ---- ------ - -------- ---- -----<br>--- ------- ---- -- --- -------- for - ----- ------ ---- --<br>-------- --- -------- -------- --- -------- ---- -- ----- -<br>-------- ---- --- ---------- --------- -- ------- ------ -<br>--------- ----- -----,293578.2999999998,293576.5999999996,293005.035,293013.9000000004,293021.561,293588.26,,25,for
screen,html.Screen,2_3_1_0_1_26,2022-02-02T17:48:54.154Z,,,,,,,,,,,,,,,,,15,,,,,,,,,,,,,,489.1400000003632,,response,,,,7,E,,,,,,Space,keypress(Space),,,,lyrical,,,,---- --------- ---------- - --- ------- -- --- ------------<br>----- -- -------- ------- ---- ------ - -------- ---- -----<br>--- ------- ---- -- --- -------- --- a ----- ------ ---- --<br>-------- --- -------- -------- --- -------- ---- -- ----- -<br>-------- ---- --- ---------- --------- -- ------- ------ -<br>--------- ----- -----,294079,294077.4000000004,293571.526,293578.5,293588.26,294088.238,,26,a
screen,html.Screen,2_3_1_0_1_27,2022-02-02T17:48:54.692Z,,,,,,,,,,,,,,,,,15,,,,,,,,,,,,,,527.4620000001742,,response,,,,7,E,,,,,,Space,keypress(Space),,,,lyrical,,,,---- --------- ---------- - --- ------- -- --- ------------<br>----- -- -------- ------- ---- ------ - -------- ---- -----<br>--- ------- ---- -- --- -------- --- - third ------ ---- --<br>-------- --- -------- -------- --- -------- ---- -- ----- -<br>-------- ---- --- ---------- --------- -- ------- ------ -<br>--------- ----- -----,294617.5,294615.7000000002,294071.541,294079.2999999998,294088.238,294622.019,,27,third
screen,html.Screen,2_3_1_0_1_28,2022-02-02T17:48:55.203Z,,,,,,,,,,,,,,,,,15,,,,,,,,,,,,,,503.8810000004014,,response,,,,7,E,,,,,,Space,keypress(Space),,,,lyrical,,,,---- --------- ---------- - --- ------- -- --- ------------<br>----- -- -------- ------- ---- ------ - -------- ---- -----<br>--- ------- ---- -- --- -------- --- - ----- prison ---- --<br>-------- --- -------- -------- --- -------- ---- -- ----- -<br>-------- ---- --- ---------- --------- -- ------- ------ -<br>--------- ----- -----,295128.0999999996,295125.9000000004,294604.897,294617.7999999998,294622.019,295138.426,,28,prison
screen,html.Screen,2_3_1_0_1_29,2022-02-02T17:48:55.668Z,,,,,,,,,,,,,,,,,15,,,,,,,,,,,,,,452.57400000002235,,response,,,,7,E,,,,,,Space,keypress(Space),,,,lyrical,,,,---- --------- ---------- - --- ------- -- --- ------------<br>----- -- -------- ------- ---- ------ - -------- ---- -----<br>--- ------- ---- -- --- -------- --- - ----- ------ stay --<br>-------- --- -------- -------- --- -------- ---- -- ----- -<br>-------- ---- --- ---------- --------- -- ------- ------ -<br>--------- ----- -----,295592.9000000004,295591,295122.037,295128.5,295138.426,295604.959,,29,stay
screen,html.Screen,2_3_1_0_1_30,2022-02-02T17:48:56.232Z,,,,,,,,,,,,,,,,,15,,,,,,,,,,,,,,550.2410000002128,,response,,,,7,E,,,,,,Space,keypress(Space),,,,lyrical,,,,---- --------- ---------- - --- ------- -- --- ------------<br>----- -- -------- ------- ---- ------ - -------- ---- -----<br>--- ------- ---- -- --- -------- --- - ----- ------ ---- to<br>-------- --- -------- -------- --- -------- ---- -- ----- -<br>-------- ---- --- ---------- --------- -- ------- ------ -<br>--------- ----- -----,296157,296155.2000000002,295588.282,295593.2999999998,295604.959,296171.789,,30,to
screen,html.Screen,2_3_1_0_1_31,2022-02-02T17:48:56.721Z,,,,,,,,,,,,,,,,,15,,,,,,,,,,,,,,473.1110000003828,,response,,,,7,E,,,,,,Space,keypress(Space),,,,lyrical,,,,---- --------- ---------- - --- ------- -- --- ------------<br>----- -- -------- ------- ---- ------ - -------- ---- -----<br>--- ------- ---- -- --- -------- --- - ----- ------ ---- --<br>maintain --- -------- -------- --- -------- ---- -- ----- -<br>-------- ---- --- ---------- --------- -- ------- ------ -<br>--------- ----- -----,296646.5,296644.9000000004,296155.065,296157.5,296171.789,296655.207,,31,maintain
screen,html.Screen,2_3_1_0_1_32,2022-02-02T17:48:57.212Z,,,,,,,,,,,,,,,,,15,,,,,,,,,,,,,,480.09299999981886,,response,,,,7,E,,,,,,Space,keypress(Space),,,,lyrical,,,,---- --------- ---------- - --- ------- -- --- ------------<br>----- -- -------- ------- ---- ------ - -------- ---- -----<br>--- ------- ---- -- --- -------- --- - ----- ------ ---- --<br>-------- his -------- -------- --- -------- ---- -- ----- -<br>-------- ---- --- ---------- --------- -- ------- ------ -<br>--------- ----- -----,297136.9000000004,297135.2999999998,296638.832,296646.9000000004,296655.207,297155.491,,32,his
screen,html.Screen,2_3_1_0_1_33,2022-02-02T17:48:57.895Z,,,,,,,,,,,,,,,,,15,,,,,,,,,,,,,,663.6089999996475,,response,,,,7,E,,,,,,Space,keypress(Space),,,,lyrical,,,,---- --------- ---------- - --- ------- -- --- ------------<br>----- -- -------- ------- ---- ------ - -------- ---- -----<br>--- ------- ---- -- --- -------- --- - ----- ------ ---- --<br>-------- --- silence. -------- --- -------- ---- -- ----- -<br>-------- ---- --- ---------- --------- -- ------- ------ -<br>--------- ----- -----,297820.4000000004,297819.0999999996,297122.2,297137.4000000004,297155.491,297838.635,,33,silence.
screen,html.Screen,2_3_1_0_1_34,2022-02-02T17:48:58.549Z,,,,,,,,,,,,,,,,,15,,,,,,,,,,,,,,631.4649999996182,,response,,,,7,E,,,,,,Space,keypress(Space),,,,lyrical,,,,---- --------- ---------- - --- ------- -- --- ------------<br>----- -- -------- ------- ---- ------ - -------- ---- -----<br>--- ------- ---- -- --- -------- --- - ----- ------ ---- --<br>-------- --- -------- Anderson --- -------- ---- -- ----- -<br>-------- ---- --- ---------- --------- -- ------- ------ -<br>--------- ----- -----,298473.5999999996,298470.0999999996,297805.55,297820.7999999998,297838.635,298488.57,,34,Anderson
screen,html.Screen,2_3_1_0_1_35,2022-02-02T17:48:59.176Z,,,,,,,,,,,,,,,,,15,,,,,,,,,,,,,,608.429999999993,,response,,,,7,E,,,,,,Space,keypress(Space),,,,lyrical,,,,---- --------- ---------- - --- ------- -- --- ------------<br>----- -- -------- ------- ---- ------ - -------- ---- -----<br>--- ------- ---- -- --- -------- --- - ----- ------ ---- --<br>-------- --- -------- -------- was -------- ---- -- ----- -<br>-------- ---- --- ---------- --------- -- ------- ------ -<br>--------- ----- -----,299101.0999999996,299097,298472.173,298474.5999999996,298488.57,299125.948,,35,was
screen,html.Screen,2_3_1_0_1_36,2022-02-02T17:48:59.751Z,,,,,,,,,,,,,,,,,15,,,,,,,,,,,,,,548.0520000000251,,response,,,,7,E,,,,,,Space,keypress(Space),,,,lyrical,,,,---- --------- ---------- - --- ------- -- --- ------------<br>----- -- -------- ------- ---- ------ - -------- ---- -----<br>--- ------- ---- -- --- -------- --- - ----- ------ ---- --<br>-------- --- -------- -------- --- released ---- -- ----- -<br>-------- ---- --- ---------- --------- -- ------- ------ -<br>--------- ----- -----,299675.9000000004,299674,299088.949,299102.2000000002,299125.948,299688.506,,36,released
screen,html.Screen,2_3_1_0_1_37,2022-02-02T17:49:00.561Z,,,,,,,,,,,,,,,,,15,,,,,,,,,,,,,,796.1940000001923,,response,,,,7,E,,,,,,Space,keypress(Space),,,,lyrical,,,,---- --------- ---------- - --- ------- -- --- ------------<br>----- -- -------- ------- ---- ------ - -------- ---- -----<br>--- ------- ---- -- --- -------- --- - ----- ------ ---- --<br>-------- --- -------- -------- --- -------- July -- ----- -<br>-------- ---- --- ---------- --------- -- ------- ------ -<br>--------- ----- -----,300486.5999999996,300484.7000000002,299672.381,299676.2999999998,299688.506,300505.72,,37,July
screen,html.Screen,2_3_1_0_1_38,2022-02-02T17:49:01.187Z,,,,,,,,,,,,,,,,,15,,,,,,,,,,,,,,601.8799999996554,,response,,,,7,E,,,,,,Space,keypress(Space),,,,lyrical,,,,---- --------- ---------- - --- ------- -- --- ------------<br>----- -- -------- ------- ---- ------ - -------- ---- -----<br>--- ------- ---- -- --- -------- --- - ----- ------ ---- --<br>-------- --- -------- -------- --- -------- ---- 20 ----- -<br>-------- ---- --- ---------- --------- -- ------- ------ -<br>--------- ----- -----,301111.5,301107.5999999996,300472.179,300487,300505.72,301121.946,,38,20
screen,html.Screen,2_3_1_0_1_39,2022-02-02T17:49:01.851Z,,,,,,,,,,,,,,,,,15,,,,,,,,,,,,,,652.1539999996312,,response,,,,7,E,,,,,,Space,keypress(Space),,,,lyrical,,,,---- --------- ---------- - --- ------- -- --- ------------<br>----- -- -------- ------- ---- ------ - -------- ---- -----<br>--- ------- ---- -- --- -------- --- - ----- ------ ---- --<br>-------- --- -------- -------- --- -------- ---- -- after -<br>-------- ---- --- ---------- --------- -- ------- ------ -<br>--------- ----- -----,301775.7000000002,301774.0999999996,301105.699,301112.4000000004,301121.946,301788.609,,39,after
screen,html.Screen,2_3_1_0_1_40,2022-02-02T17:49:02.448Z,,,,,,,,,,,,,,,,,15,,,,,,,,,,,,,,582.8910000000033,,response,,,,7,E,,,,,,Space,keypress(Space),,,,lyrical,,,,---- --------- ---------- - --- ------- -- --- ------------<br>----- -- -------- ------- ---- ------ - -------- ---- -----<br>--- ------- ---- -- --- -------- --- - ----- ------ ---- --<br>-------- --- -------- -------- --- -------- ---- -- ----- a<br>-------- ---- --- ---------- --------- -- ------- ------ -<br>--------- ----- -----,302373.2000000002,302371.5,301772.252,301776.0999999996,301788.609,302388.768,,40,a
screen,html.Screen,2_3_1_0_1_41,2022-02-02T17:49:03.092Z,,,,,,,,,,,,,,,,,15,,,,,,,,,,,,,,625.0319999998319,,response,,,,7,E,,,,,,Space,keypress(Space),,,,lyrical,,,,---- --------- ---------- - --- ------- -- --- ------------<br>----- -- -------- ------- ---- ------ - -------- ---- -----<br>--- ------- ---- -- --- -------- --- - ----- ------ ---- --<br>-------- --- -------- -------- --- -------- ---- -- ----- -<br>two-week ---- --- ---------- --------- -- ------- ------ -<br>--------- ----- -----,303017.0999999996,303013.7999999998,302371.986,302373.5999999996,302388.768,303022.058,,41,two-week
