sender,sender_type,sender_id,timestamp,meta,,Blues,Classical,Country,Dance,Electronic,Folk,Gospel,Hip-Hop,Jazz,Latin,Musical/Film,New-age,Pop,Prolific_id,Provo_ID,R&B,Rap,Reggae,Religious,Rock,Soul,Swing,Traditional,age,artist_name,correct,correctResponse,distraction,duration,education,ended_on,familiarity,gender,headphone_check_performance,item,list,music_frequency,offensiveness,pleasantness,position_correct,preference,response,response_action,snippet_file,song_name,song_rating,sound,stimulus_1,stimulus_2,stimulus_3,text,time_commit,time_end,time_render,time_run,time_show,time_switch,url,word,word_ID
Prolific ID,html.Form,0,2022-02-17T16:45:47.866Z,"{""labjs_version"":""20.2.2"",""labjs_build"":{""flavor"":""production"",""commit"":""a25486e0c714a0ae2ce03ff94b7bb6896854dcfa""},""location"":""https://run.pavlovia.org/mvasilev/prolific2_music_f/"",""userAgent"":""Mozilla/5.0 (Windows NT 10.0; Win64; x64) AppleWebKit/537.36 (KHTML, like Gecko) Chrome/98.0.4758.82 Safari/537.36"",""platform"":""Win32"",""language"":""en-GB-oxendict"",""locale"":""en-GB"",""timeZone"":""Europe/London"",""timezoneOffset"":0,""screen_width"":1280,""screen_height"":800,""scroll_width"":1280,""scroll_height"":601,""window_innerWidth"":1280,""window_innerHeight"":649,""devicePixelRatio"":3}",,,,,,,,,,,,,,,5bff1d05b5b8b600018d9300,,,,,,,,,,,,,,,3571.65499999404,,form submission,,,,,,,,,,,,,,,,,,,,,13261.799999982119,13261.09999999404,9672.517,9682.399999976158,9689.445,13260.057,{},,
Introduction,html.Screen,1_0,2022-02-17T16:45:56.178Z,,,,,,,,,,,,,,,,,,,,,,,,,,,,,,,8307.842999976157,,response,,,,,,,,,,,continue,click button,,,,,,,,,21573.399999976158,21567.899999976158,13243.39,13262.199999988079,13260.057,21572.27,,,
Volume calibration,html.Screen,1_1,2022-02-17T16:46:36.638Z,,,,,,,,,,,,,,,,,,,,,,,,,,,,,,,40455.229999999996,,response,,,,,,,,,,,continue,click button,,,,,,,,,62032.59999999404,62027.5,21555.515,21573.59999999404,21572.27,62040.316,,,
Task instructions,html.Screen,1_2,2022-02-17T16:46:58.050Z,,,,,,,,,,,,,,,,,,,,,,,,,,,,,,,21402.88399998808,,response,,,,,,,,,,,continue,click button,,,,,,,,,83445.19999998808,83443.19999998808,62023.652,62032.79999998212,62040.316,83456.058,,,
Sounds,html.Screen,1_3_0_0,2022-02-17T16:47:02.305Z,,,,,,,,,,,,,,,,,,,,,,,,,,,,,,,4256.2409999999945,,timeout,,,,,,,,,2,,,,,,,,I,S,O,,87700.39999997616,87695.629,83439.389,83445.5,83456.058,87712.299,,,
Judgement,html.Screen,1_3_0_1,2022-02-17T16:47:03.611Z,,,,,,,,,,,,,,,,,,,,,,,,,,,,true,2,,1290.90099998808,,response,,,,,,,,,2,,2,click #choice-2,,,,,I,S,O,,89006,89003.19999998808,87695.629,87700.59999999404,87712.299,89020.041,,,
Trial,flow.Sequence,1_3_0,2022-02-17T16:47:03.611Z,,,,,,,,,,,,,,,,,,,,,,,,,,,,,,,5547.1419999880745,,completion,,,,,,,,,2,,,,,,,,I,S,O,,89006.39999997616,89003.19999998808,83439.389,83445.5,83456.058,89020.041,,,
Sounds,html.Screen,1_3_1_0,2022-02-17T16:47:07.863Z,,,,,,,,,,,,,,,,,,,,,,,,,,,,,,,4252.2820000000065,,timeout,,,,,,,,,1,,,,,,,,S,O,I,,93258,93255.657,89003.376,89006.59999999404,89020.041,93272.323,,,
Judgement,html.Screen,1_3_1_1,2022-02-17T16:47:09.082Z,,,,,,,,,,,,,,,,,,,,,,,,,,,,true,1,,1202.876999988075,,response,,,,,,,,,1,,1,click #choice-1,,,,,S,O,I,,94477.29999998212,94475.19999998808,93255.657,93258.29999998212,93272.323,94479.067,,,
Trial,flow.Sequence,1_3_1,2022-02-17T16:47:09.083Z,,,,,,,,,,,,,,,,,,,,,,,,,,,,,,,5455.158999988082,,completion,,,,,,,,,1,,,,,,,,S,O,I,,94477.79999998212,94475.19999998808,89003.376,89006.59999999404,89020.041,94479.067,,,
Sounds,html.Screen,1_3_2_0,2022-02-17T16:47:13.316Z,,,,,,,,,,,,,,,,,,,,,,,,,,,,,,,4246.504000000001,,timeout,,,,,,,,,1,,,,,,,,S,I,O,,98711.09999999404,98708.9,94462.403,94478,94479.067,98725.571,,,
Judgement,html.Screen,1_3_2_1,2022-02-17T16:47:14.259Z,,,,,,,,,,,,,,,,,,,,,,,,,,,,true,1,,925.6289999880828,,response,,,,,,,,,1,,1,click #choice-1,,,,,S,I,O,,99654.29999998212,99651.19999998808,98708.9,98711.5,98725.571,99656.271,,,
Trial,flow.Sequence,1_3_2,2022-02-17T16:47:14.260Z,,,,,,,,,,,,,,,,,,,,,,,,,,,,,,,5172.132999988084,,completion,,,,,,,,,1,,,,,,,,S,I,O,,99654.59999999404,99651.19999998808,94462.403,94478,94479.067,99656.271,,,
Sounds,html.Screen,1_3_3_0,2022-02-17T16:47:18.495Z,,,,,,,,,,,,,,,,,,,,,,,,,,,,,,,4247.921000000002,,timeout,,,,,,,,,3,,,,,,,,O,I,S,,103890,103887.524,99639.139,99654.69999998808,99656.271,103904.192,,,
Judgement,html.Screen,1_3_3_1,2022-02-17T16:47:19.218Z,,,,,,,,,,,,,,,,,,,,,,,,,,,,true,3,,707.1079999821231,,response,,,,,,,,,3,,3,click #choice-3,,,,,O,I,S,,104613.5,104611.29999998212,103887.524,103890.09999999404,103904.192,104616.314,,,
Trial,flow.Sequence,1_3_3,2022-02-17T16:47:19.219Z,,,,,,,,,,,,,,,,,,,,,,,,,,,,,,,4955.028999982125,,completion,,,,,,,,,3,,,,,,,,O,I,S,,104613.69999998808,104611.29999998212,99639.139,99654.69999998808,99656.271,104616.314,,,
Sounds,html.Screen,1_3_4_0,2022-02-17T16:47:23.453Z,,,,,,,,,,,,,,,,,,,,,,,,,,,,,,,4246.588000000003,,timeout,,,,,,,,,3,,,,,,,,I,O,S,,108847.69999998808,108846.239,104599.622,104613.79999998212,104616.314,108862.902,,,
Judgement,html.Screen,1_3_4_1,2022-02-17T16:47:24.298Z,,,,,,,,,,,,,,,,,,,,,,,,,,,,true,3,,828.0979999999981,,response,,,,,,,,,3,,3,click #choice-3,,,,,I,O,S,,109693.39999997616,109691,108846.239,108848,108862.902,109707.402,,,
Trial,flow.Sequence,1_3_4,2022-02-17T16:47:24.299Z,,,,,,,,,,,,,,,,,,,,,,,,,,,,,,,5074.6860000000015,,completion,,,,,,,,,3,,,,,,,,I,O,S,,109693.69999998808,109691,104599.622,104613.79999998212,104616.314,109707.402,,,
Sounds,html.Screen,1_3_5_0,2022-02-17T16:47:28.546Z,,,,,,,,,,,,,,,,,,,,,,,,,,,,,,,4248.406999999992,,timeout,,,,,,,,,2,,,,,,,,O,S,I,,113941.59999999404,113939.132,109690.729,109693.79999998212,109707.402,113955.809,,,
Judgement,html.Screen,1_3_5_1,2022-02-17T16:47:29.285Z,,,,,,,,,,,,,,,,,,,,,,,,,,,,true,2,,721.6910000000062,,response,,,,,,,,,2,,2,click #choice-2,,,,,O,S,I,,114679.69999998808,114677.5,113939.132,113941.69999998808,113955.809,114680.891,,,
Trial,flow.Sequence,1_3_5,2022-02-17T16:47:29.285Z,,,,,,,,,,,,,,,,,,,,,,,,,,,,,,,4970.097999999998,,completion,,,,,,,,,2,,,,,,,,O,S,I,,114679.89999997616,114677.5,109690.729,109693.79999998212,109707.402,114680.891,,,
Task,flow.Loop,1_3,2022-02-17T16:47:29.291Z,,,,,,,,,,,,,,,,,,,,,,,,,,,,,,,31221.441999999995,,completion,,,1,,,,,,,,,,,,,,,,,,114686.59999999404,114677.5,83439.389,83445.39999997616,83456.058,114680.891,,,
Trap,html.Screen,1_4,2022-02-17T16:47:29.293Z,,,,,,,,,,,,,,,,,,,,,,,,,,,,,,,NaN,,skipped,,,,,,,,,,,,,,,,,,,,,114688.19999998808,114677.5,,114688.09999999404,,114680.891,,,
Thanks,html.Screen,1_5,2022-02-17T16:47:33.890Z,,,,,,,,,,,,,,,,,,,,,,,,,,,,,,,4602.508999976155,,response,,,,,,,,,,,continue,click button,,,,,,,,,119285.39999997616,119283.39999997616,114664.219,114688.39999997616,114680.891,124468.068,,,
Headphone screening,flow.Sequence,1,2022-02-17T16:47:33.890Z,,,,,,,,,,,,,,,,,,,,,,,,,,,,,,,106023.34299997616,,completion,,,,,,,,,,,,,,,,,,,,,119285.5,119283.39999997616,13243.39,13262.199999988079,13260.057,124468.068,,,
Instructions,html.Page,2_0,2022-02-17T16:48:23.505Z,,,,,,,,,,,,,,,,,,,,,,,,,,,,,,,44430.73199998212,,form submission,,,,,,,,,,,,,,,,,,,,,168899.89999997616,168898.79999998212,124451.397,124455.5,124468.068,168908.733,,,
Holding screen,html.Screen,2_1_0_0,2022-02-17T16:48:33.503Z,,,,,,,,,,,,,,,,,,,,,,,,,,,,,,,10003.688999999984,,timeout,,,,,,,,,,,,,,,,,,,,,178898.39999997616,178895.747,168892.064,168900.79999998212,168908.733,178912.422,,,
screen,html.Screen,2_1_0_1_0,2022-02-17T16:48:34.686Z,,,,,,,,,,,,,,,,,53,,,,,,,,,,,,,,1164.0780000000086,,response,,,,99,,,,,,,Space,keypress(Space),,,,,,,,When -- ----- -- ------ - ------- --- ----------<br>------------- ------ ------ ---- ---- ------- ----- -- ----<br>-------- ------- -- ---------- --- - --- ----- ----- ----<br>---- --- --- ----- --- ---- ---- ------- ----- ---- -------<br>--- --- -- ----- -- --- ---- -- --- ---- -- ------ ------<br>--- ----- -- ----,180080.79999998212,180076.5,178895.747,178898.59999999404,178912.422,180078.025,,0,When
screen,html.Screen,2_1_0_1_1,2022-02-17T16:48:35.397Z,,,,,,,,,,,,,,,,,53,,,,,,,,,,,,,,712.6749999880849,,response,,,,99,,,,,,,Space,keypress(Space),,,,,,,,---- it ----- -- ------ - ------- --- ----------<br>------------- ------ ------ ---- ---- ------- ----- -- ----<br>-------- ------- -- ---------- --- - --- ----- ----- ----<br>---- --- --- ----- --- ---- ---- ------- ----- ---- -------<br>--- --- -- ----- -- --- ---- -- --- ---- -- ------ ------<br>--- ----- -- ----,180791.79999998212,180790.69999998808,180061.338,180080.89999997616,180078.025,180807.018,,1,it
screen,html.Screen,2_1_0_1_2,2022-02-17T16:48:36.161Z,,,,,,,,,,,,,,,,,53,,,,,,,,,,,,,,747.9819999999891,,response,,,,99,,,,,,,Space,keypress(Space),,,,,,,,---- -- comes -- ------ - ------- --- ----------<br>------------- ------ ------ ---- ---- ------- ----- -- ----<br>-------- ------- -- ---------- --- - --- ----- ----- ----<br>---- --- --- ----- --- ---- ---- ------- ----- ---- -------<br>--- --- -- ----- -- --- ---- -- --- ---- -- ------ ------<br>--- ----- -- ----,181556.09999999404,181555,180790.349,180792,180807.018,181560.774,,2,comes
screen,html.Screen,2_1_0_1_3,2022-02-17T16:48:36.682Z,,,,,,,,,,,,,,,,,53,,,,,,,,,,,,,,515.4259999880742,,response,,,,99,,,,,,,Space,keypress(Space),,,,,,,,---- -- ----- to ------ - ------- --- ----------<br>------------- ------ ------ ---- ---- ------- ----- -- ----<br>-------- ------- -- ---------- --- - --- ----- ----- ----<br>---- --- --- ----- --- ---- ---- ------- ----- ---- -------<br>--- --- -- ----- -- --- ---- -- --- ---- -- ------ ------<br>--- ----- -- ----,182077.19999998808,182076.19999998808,181544.112,181556.29999998212,181560.774,182081.351,,3,to
screen,html.Screen,2_1_0_1_4,2022-02-17T16:48:37.239Z,,,,,,,,,,,,,,,,,53,,,,,,,,,,,,,,551.6490000000049,,response,,,,99,,,,,,,Space,keypress(Space),,,,,,,,---- -- ----- -- having - ------- --- ----------<br>------------- ------ ------ ---- ---- ------- ----- -- ----<br>-------- ------- -- ---------- --- - --- ----- ----- ----<br>---- --- --- ----- --- ---- ---- ------- ----- ---- -------<br>--- --- -- ----- -- --- ---- -- --- ---- -- ------ ------<br>--- ----- -- ----,182634.09999999404,182633,182064.691,182077.29999998212,182081.351,182648.939,,4,having
screen,html.Screen,2_1_0_1_5,2022-02-17T16:48:37.670Z,,,,,,,,,,,,,,,,,53,,,,,,,,,,,,,,415.4609999761451,,response,,,,99,,,,,,,Space,keypress(Space),,,,,,,,---- -- ----- -- ------ a ------- --- ----------<br>------------- ------ ------ ---- ---- ------- ----- -- ----<br>-------- ------- -- ---------- --- - --- ----- ----- ----<br>---- --- --- ----- --- ---- ---- ------- ----- ---- -------<br>--- --- -- ----- -- --- ---- -- --- ---- -- ------ ------<br>--- ----- -- ----,183065.39999997616,183064.39999997616,182632.204,182634.29999998212,182648.939,183077.256,,5,a
screen,html.Screen,2_1_0_1_6,2022-02-17T16:48:38.113Z,,,,,,,,,,,,,,,,,53,,,,,,,,,,,,,,429.9439999880851,,response,,,,99,,,,,,,Space,keypress(Space),,,,,,,,---- -- ----- -- ------ - lasting --- ----------<br>------------- ------ ------ ---- ---- ------- ----- -- ----<br>-------- ------- -- ---------- --- - --- ----- ----- ----<br>---- --- --- ----- --- ---- ---- ------- ----- ---- -------<br>--- --- -- ----- -- --- ---- -- --- ---- -- ------ ------<br>--- ----- -- ----,183508.19999998808,183507.19999998808,183060.573,183065.59999999404,183077.256,183521.242,,6,lasting
screen,html.Screen,2_1_0_1_7,2022-02-17T16:48:38.546Z,,,,,,,,,,,,,,,,,53,,,,,,,,,,,,,,418.85799999404117,,response,,,,99,,,,,,,Space,keypress(Space),,,,,,,,---- -- ----- -- ------ - ------- and ----------<br>------------- ------ ------ ---- ---- ------- ----- -- ----<br>-------- ------- -- ---------- --- - --- ----- ----- ----<br>---- --- --- ----- --- ---- ---- ------- ----- ---- -------<br>--- --- -- ----- -- --- ---- -- --- ---- -- ------ ------<br>--- ----- -- ----,183941.19999998808,183940.09999999404,183504.261,183508.39999997616,183521.242,183951.613,,7,and
screen,html.Screen,2_1_0_1_8,2022-02-17T16:48:39.039Z,,,,,,,,,,,,,,,,,53,,,,,,,,,,,,,,481.4869999940274,,response,,,,99,,,,,,,Space,keypress(Space),,,,,,,,---- -- ----- -- ------ - ------- --- fulfilling<br>------------- ------ ------ ---- ---- ------- ----- -- ----<br>-------- ------- -- ---------- --- - --- ----- ----- ----<br>---- --- --- ----- --- ---- ---- ------- ----- ---- -------<br>--- --- -- ----- -- --- ---- -- --- ---- -- ------ ------<br>--- ----- -- ----,184433.69999998808,184433.09999999404,183934.948,183941.39999997616,183951.613,184449.37,,8,fulfilling
screen,html.Screen,2_1_0_1_9,2022-02-17T16:48:39.552Z,,,,,,,,,,,,,,,,,53,,,,,,,,,,,,,,496.63000000000466,,response,,,,99,,,,,,,Space,keypress(Space),,,,,,,,"---- -- ----- -- ------ - ------- --- ----------<br>relationship, ------ ------ ---- ---- ------- ----- -- ----<br>-------- ------- -- ---------- --- - --- ----- ----- ----<br>---- --- --- ----- --- ---- ---- ------- ----- ---- -------<br>--- --- -- ----- -- --- ---- -- --- ---- -- ------ ------<br>--- ----- -- ----",184947.39999997616,184946,184432.667,184433.79999998212,184449.37,184959.938,,9,"relationship,"
screen,html.Screen,2_1_0_1_10,2022-02-17T16:48:40.021Z,,,,,,,,,,,,,,,,,53,,,,,,,,,,,,,,455.4619999761635,,response,,,,99,,,,,,,Space,keypress(Space),,,,,,,,---- -- ----- -- ------ - ------- --- ----------<br>------------- common ------ ---- ---- ------- ----- -- ----<br>-------- ------- -- ---------- --- - --- ----- ----- ----<br>---- --- --- ----- --- ---- ---- ------- ----- ---- -------<br>--- --- -- ----- -- --- ---- -- --- ---- -- ------ ------<br>--- ----- -- ----,185416.39999997616,185415.39999997616,184943.252,184947.5,184959.938,185418.046,,10,common
screen,html.Screen,2_1_0_1_11,2022-02-17T16:48:40.457Z,,,,,,,,,,,,,,,,,53,,,,,,,,,,,,,,433.2539999821165,,response,,,,99,,,,,,,Space,keypress(Space),,,,,,,,---- -- ----- -- ------ - ------- --- ----------<br>------------- ------ wisdom ---- ---- ------- ----- -- ----<br>-------- ------- -- ---------- --- - --- ----- ----- ----<br>---- --- --- ----- --- ---- ---- ------- ----- ---- -------<br>--- --- -- ----- -- --- ---- -- --- ---- -- ------ ------<br>--- ----- -- ----,185852.29999998212,185851.29999998212,185401.32,185416.59999999404,185418.046,185866.366,,11,wisdom
screen,html.Screen,2_1_0_1_12,2022-02-17T16:48:40.944Z,,,,,,,,,,,,,,,,,53,,,,,,,,,,,,,,471.23399999403046,,response,,,,99,,,,,,,Space,keypress(Space),,,,,,,,---- -- ----- -- ------ - ------- --- ----------<br>------------- ------ ------ says ---- ------- ----- -- ----<br>-------- ------- -- ---------- --- - --- ----- ----- ----<br>---- --- --- ----- --- ---- ---- ------- ----- ---- -------<br>--- --- -- ----- -- --- ---- -- --- ---- -- ------ ------<br>--- ----- -- ----,186338.59999999404,186337.59999999404,185849.698,185852.39999997616,185866.366,186350.474,,12,says
screen,html.Screen,2_1_0_1_13,2022-02-17T16:48:41.318Z,,,,,,,,,,,,,,,,,53,,,,,,,,,,,,,,361.72599998809164,,response,,,,99,,,,,,,Space,keypress(Space),,,,,,,,---- -- ----- -- ------ - ------- --- ----------<br>------------- ------ ------ ---- that ------- ----- -- ----<br>-------- ------- -- ---------- --- - --- ----- ----- ----<br>---- --- --- ----- --- ---- ---- ------- ----- ---- -------<br>--- --- -- ----- -- --- ---- -- --- ---- -- ------ ------<br>--- ----- -- ----,186713.09999999404,186712.19999998808,186333.811,186338.69999998808,186350.474,186725.595,,13,that
screen,html.Screen,2_1_0_1_14,2022-02-17T16:48:41.746Z,,,,,,,,,,,,,,,,,53,,,,,,,,,,,,,,414.20499998211744,,response,,,,99,,,,,,,Space,keypress(Space),,,,,,,,---- -- ----- -- ------ - ------- --- ----------<br>------------- ------ ------ ---- ---- feeling ----- -- ----<br>-------- ------- -- ---------- --- - --- ----- ----- ----<br>---- --- --- ----- --- ---- ---- ------- ----- ---- -------<br>--- --- -- ----- -- --- ---- -- --- ---- -- ------ ------<br>--- ----- -- ----,187140.69999998808,187139.79999998212,186708.926,186713.19999998808,186725.595,187156.685,,14,feeling
screen,html.Screen,2_1_0_1_15,2022-02-17T16:48:42.130Z,,,,,,,,,,,,,,,,,53,,,,,,,,,,,,,,365.91499999404186,,response,,,,99,,,,,,,Space,keypress(Space),,,,,,,,---- -- ----- -- ------ - ------- --- ----------<br>------------- ------ ------ ---- ---- ------- close -- ----<br>-------- ------- -- ---------- --- - --- ----- ----- ----<br>---- --- --- ----- --- ---- ---- ------- ----- ---- -------<br>--- --- -- ----- -- --- ---- -- --- ---- -- ------ ------<br>--- ----- -- ----,187524.69999998808,187522.59999999404,187140.015,187140.79999998212,187156.685,187534.135,,15,close
screen,html.Screen,2_1_0_1_16,2022-02-17T16:48:42.551Z,,,,,,,,,,,,,,,,,53,,,,,,,,,,,,,,410.76499997614883,,response,,,,99,,,,,,,Space,keypress(Space),,,,,,,,---- -- ----- -- ------ - ------- --- ----------<br>------------- ------ ------ ---- ---- ------- ----- to ----<br>-------- ------- -- ---------- --- - --- ----- ----- ----<br>---- --- --- ----- --- ---- ---- ------- ----- ---- -------<br>--- --- -- ----- -- --- ---- -- --- ---- -- ------ ------<br>--- ----- -- ----,187946,187944.89999997616,187517.46,187524.89999997616,187534.135,187962.601,,16,to
screen,html.Screen,2_1_0_1_17,2022-02-17T16:48:43.089Z,,,,,,,,,,,,,,,,,53,,,,,,,,,,,,,,520.8990000000049,,response,,,,99,,,,,,,Space,keypress(Space),,,,,,,,---- -- ----- -- ------ - ------- --- ----------<br>------------- ------ ------ ---- ---- ------- ----- -- your<br>-------- ------- -- ---------- --- - --- ----- ----- ----<br>---- --- --- ----- --- ---- ---- ------- ----- ---- -------<br>--- --- -- ----- -- --- ---- -- --- ---- -- ------ ------<br>--- ----- -- ----,188484.5,188483.5,187945.914,187946.09999999404,187962.601,188492.285,,17,your
screen,html.Screen,2_1_0_1_18,2022-02-17T16:48:43.598Z,,,,,,,,,,,,,,,,,53,,,,,,,,,,,,,,499.5149999821151,,response,,,,99,,,,,,,Space,keypress(Space),,,,,,,,---- -- ----- -- ------ - ------- --- ----------<br>------------- ------ ------ ---- ---- ------- ----- -- ----<br>romantic ------- -- ---------- --- - --- ----- ----- ----<br>---- --- --- ----- --- ---- ---- ------- ----- ---- -------<br>--- --- -- ----- -- --- ---- -- --- ---- -- ------ ------<br>--- ----- -- ----,188992.69999998808,188991.79999998212,188475.616,188484.59999999404,188492.285,188996.399,,18,romantic
screen,html.Screen,2_1_0_1_19,2022-02-17T16:48:43.929Z,,,,,,,,,,,,,,,,,53,,,,,,,,,,,,,,326.6009999999951,,response,,,,99,,,,,,,Space,keypress(Space),,,,,,,,---- -- ----- -- ------ - ------- --- ----------<br>------------- ------ ------ ---- ---- ------- ----- -- ----<br>-------- partner -- ---------- --- - --- ----- ----- ----<br>---- --- --- ----- --- ---- ---- ------- ----- ---- -------<br>--- --- -- ----- -- --- ---- -- --- ---- -- ------ ------<br>--- ----- -- ----,189324,189323,188979.737,188992.89999997616,188996.399,189333.382,,19,partner
screen,html.Screen,2_1_0_1_20,2022-02-17T16:48:44.445Z,,,,,,,,,,,,,,,,,53,,,,,,,,,,,,,,505.7179999940272,,response,,,,99,,,,,,,Space,keypress(Space),,,,,,,,---- -- ----- -- ------ - ------- --- ----------<br>------------- ------ ------ ---- ---- ------- ----- -- ----<br>-------- ------- is ---------- --- - --- ----- ----- ----<br>---- --- --- ----- --- ---- ---- ------- ----- ---- -------<br>--- --- -- ----- -- --- ---- -- --- ---- -- ------ ------<br>--- ----- -- ----,189840.19999998808,189839.09999999404,189316.722,189324.09999999404,189333.382,189850.009,,20,is
screen,html.Screen,2_1_0_1_21,2022-02-17T16:48:44.845Z,,,,,,,,,,,,,,,,,53,,,,,,,,,,,,,,389.3909999761672,,response,,,,99,,,,,,,Space,keypress(Space),,,,,,,,---- -- ----- -- ------ - ------- --- ----------<br>------------- ------ ------ ---- ---- ------- ----- -- ----<br>-------- ------- -- paramount. --- - --- ----- ----- ----<br>---- --- --- ----- --- ---- ---- ------- ----- ---- -------<br>--- --- -- ----- -- --- ---- -- --- ---- -- ------ ------<br>--- ----- -- ----,190240.29999998212,190239.39999997616,189833.274,189840.39999997616,189850.009,190242.687,,21,paramount.
screen,html.Screen,2_1_0_1_22,2022-02-17T16:48:45.319Z,,,,,,,,,,,,,,,,,53,,,,,,,,,,,,,,470.61299998211325,,response,,,,99,,,,,,,Space,keypress(Space),,,,,,,,---- -- ----- -- ------ - ------- --- ----------<br>------------- ------ ------ ---- ---- ------- ----- -- ----<br>-------- ------- -- ---------- But - --- ----- ----- ----<br>---- --- --- ----- --- ---- ---- ------- ----- ---- -------<br>--- --- -- ----- -- --- ---- -- --- ---- -- ------ ------<br>--- ----- -- ----,190714.29999998212,190713.29999998212,190226.004,190240.39999997616,190242.687,190727.377,,22,But
screen,html.Screen,2_1_0_1_23,2022-02-17T16:48:45.822Z,,,,,,,,,,,,,,,,,53,,,,,,,,,,,,,,489.1229999999923,,response,,,,99,,,,,,,Space,keypress(Space),,,,,,,,---- -- ----- -- ------ - ------- --- ----------<br>------------- ------ ------ ---- ---- ------- ----- -- ----<br>-------- ------- -- ---------- --- a --- ----- ----- ----<br>---- --- --- ----- --- ---- ---- ------- ----- ---- -------<br>--- --- -- ----- -- --- ---- -- --- ---- -- ------ ------<br>--- ----- -- ----,191217.5,191216.5,190710.396,190714.39999997616,190727.377,191229.977,,23,a
screen,html.Screen,2_1_0_1_24,2022-02-17T16:48:46.319Z,,,,,,,,,,,,,,,,,53,,,,,,,,,,,,,,483.42299997614464,,response,,,,99,,,,,,,Space,keypress(Space),,,,,,,,---- -- ----- -- ------ - ------- --- ----------<br>------------- ------ ------ ---- ---- ------- ----- -- ----<br>-------- ------- -- ---------- --- - new ----- ----- ----<br>---- --- --- ----- --- ---- ---- ------- ----- ---- -------<br>--- --- -- ----- -- --- ---- -- --- ---- -- ------ ------<br>--- ----- -- ----,191714.39999997616,191713.39999997616,191213.312,191217.59999999404,191229.977,191721.126,,24,new
screen,html.Screen,2_1_0_1_25,2022-02-17T16:48:46.717Z,,,,,,,,,,,,,,,,,53,,,,,,,,,,,,,,389.47399999405025,,response,,,,99,,,,,,,Space,keypress(Space),,,,,,,,---- -- ----- -- ------ - ------- --- ----------<br>------------- ------ ------ ---- ---- ------- ----- -- ----<br>-------- ------- -- ---------- --- - --- study ----- ----<br>---- --- --- ----- --- ---- ---- ------- ----- ---- -------<br>--- --- -- ----- -- --- ---- -- --- ---- -- ------ ------<br>--- ----- -- ----,192111.59999999404,192110.59999999404,191704.423,191714.5,191721.126,192120.973,,25,study
screen,html.Screen,2_1_0_1_26,2022-02-17T16:48:47.125Z,,,,,,,,,,,,,,,,,53,,,,,,,,,,,,,,398.22699998808093,,response,,,,99,,,,,,,Space,keypress(Space),,,,,,,,---- -- ----- -- ------ - ------- --- ----------<br>------------- ------ ------ ---- ---- ------- ----- -- ----<br>-------- ------- -- ---------- --- - --- ----- finds ----<br>---- --- --- ----- --- ---- ---- ------- ----- ---- -------<br>--- --- -- ----- -- --- ---- -- --- ---- -- ------ ------<br>--- ----- -- ----,192520.19999998808,192519.19999998808,192104.287,192111.79999998212,192120.973,192534.54,,26,finds
screen,html.Screen,2_1_0_1_27,2022-02-17T16:48:47.511Z,,,,,,,,,,,,,,,,,53,,,,,,,,,,,,,,370.5599999940314,,response,,,,99,,,,,,,Space,keypress(Space),,,,,,,,---- -- ----- -- ------ - ------- --- ----------<br>------------- ------ ------ ---- ---- ------- ----- -- ----<br>-------- ------- -- ---------- --- - --- ----- ----- that<br>---- --- --- ----- --- ---- ---- ------- ----- ---- -------<br>--- --- -- ----- -- --- ---- -- --- ---- -- ------ ------<br>--- ----- -- ----,192906,192905.09999999404,192517.814,192520.29999998212,192534.54,192916.006,,27,that
screen,html.Screen,2_1_0_1_28,2022-02-17T16:48:48.000Z,,,,,,,,,,,,,,,,,53,,,,,,,,,,,,,,477.99400000000605,,response,,,,99,,,,,,,Space,keypress(Space),,,,,,,,---- -- ----- -- ------ - ------- --- ----------<br>------------- ------ ------ ---- ---- ------- ----- -- ----<br>-------- ------- -- ---------- --- - --- ----- ----- ----<br>it's --- --- ----- --- ---- ---- ------- ----- ---- -------<br>--- --- -- ----- -- --- ---- -- --- ---- -- ------ ------<br>--- ----- -- ----,193394.89999997616,193394,192899.338,192906.19999998808,192916.006,193405.951,,28,it's
screen,html.Screen,2_1_0_1_29,2022-02-17T16:48:48.392Z,,,,,,,,,,,,,,,,,53,,,,,,,,,,,,,,379.74899998807814,,response,,,,99,,,,,,,Space,keypress(Space),,,,,,,,---- -- ----- -- ------ - ------- --- ----------<br>------------- ------ ------ ---- ---- ------- ----- -- ----<br>-------- ------- -- ---------- --- - --- ----- ----- ----<br>---- not --- ----- --- ---- ---- ------- ----- ---- -------<br>--- --- -- ----- -- --- ---- -- --- ---- -- ------ ------<br>--- ----- -- ----,193786.69999998808,193785.69999998808,193389.288,193395,193405.951,193792.331,,29,not
screen,html.Screen,2_1_0_1_30,2022-02-17T16:48:48.790Z,,,,,,,,,,,,,,,,,53,,,,,,,,,,,,,,391.56899997615255,,response,,,,99,,,,,,,Space,keypress(Space),,,,,,,,---- -- ----- -- ------ - ------- --- ----------<br>------------- ------ ------ ---- ---- ------- ----- -- ----<br>-------- ------- -- ---------- --- - --- ----- ----- ----<br>---- --- how ----- --- ---- ---- ------- ----- ---- -------<br>--- --- -- ----- -- --- ---- -- --- ---- -- ------ ------<br>--- ----- -- ----,194184.89999997616,194183.89999997616,193775.662,193786.89999997616,193792.331,194196.366,,30,how
screen,html.Screen,2_1_0_1_31,2022-02-17T16:48:49.207Z,,,,,,,,,,,,,,,,,53,,,,,,,,,,,,,,404.4339999821095,,response,,,,99,,,,,,,Space,keypress(Space),,,,,,,,---- -- ----- -- ------ - ------- --- ----------<br>------------- ------ ------ ---- ---- ------- ----- -- ----<br>-------- ------- -- ---------- --- - --- ----- ----- ----<br>---- --- --- close --- ---- ---- ------- ----- ---- -------<br>--- --- -- ----- -- --- ---- -- --- ---- -- ------ ------<br>--- ----- -- ----,194601.79999998212,194600.79999998212,194179.696,194185,194196.366,194608.139,,31,close
screen,html.Screen,2_1_0_1_32,2022-02-17T16:48:49.598Z,,,,,,,,,,,,,,,,,53,,,,,,,,,,,,,,383.76099997616257,,response,,,,99,,,,,,,Space,keypress(Space),,,,,,,,---- -- ----- -- ------ - ------- --- ----------<br>------------- ------ ------ ---- ---- ------- ----- -- ----<br>-------- ------- -- ---------- --- - --- ----- ----- ----<br>---- --- --- ----- you ---- ---- ------- ----- ---- -------<br>--- --- -- ----- -- --- ---- -- --- ---- -- ------ ------<br>--- ----- -- ----,194992.79999998212,194991.89999997616,194591.464,194602,194608.139,195004.04,,32,you
screen,html.Screen,2_1_0_1_33,2022-02-17T16:48:50.002Z,,,,,,,,,,,,,,,,,53,,,,,,,,,,,,,,391.95999999999185,,response,,,,99,,,,,,,Space,keypress(Space),,,,,,,,---- -- ----- -- ------ - ------- --- ----------<br>------------- ------ ------ ---- ---- ------- ----- -- ----<br>-------- ------- -- ---------- --- - --- ----- ----- ----<br>---- --- --- ----- --- feel ---- ------- ----- ---- -------<br>--- --- -- ----- -- --- ---- -- --- ---- -- ------ ------<br>--- ----- -- ----,195396.89999997616,195396,194987.353,194993.09999999404,195004.04,195406.34,,33,feel
screen,html.Screen,2_1_0_1_34,2022-02-17T16:48:50.441Z,,,,,,,,,,,,,,,,,53,,,,,,,,,,,,,,428.85999998808256,,response,,,,99,,,,,,,Space,keypress(Space),,,,,,,,---- -- ----- -- ------ - ------- --- ----------<br>------------- ------ ------ ---- ---- ------- ----- -- ----<br>-------- ------- -- ---------- --- - --- ----- ----- ----<br>---- --- --- ----- --- ---- that ------- ----- ---- -------<br>--- --- -- ----- -- --- ---- -- --- ---- -- ------ ------<br>--- ----- -- ----,195836.19999998808,195835.19999998808,195389.671,195397.09999999404,195406.34,195846.777,,34,that
screen,html.Screen,2_1_0_1_35,2022-02-17T16:48:50.870Z,,,,,,,,,,,,,,,,,53,,,,,,,,,,,,,,417.6229999761563,,response,,,,99,,,,,,,Space,keypress(Space),,,,,,,,---- -- ----- -- ------ - ------- --- ----------<br>------------- ------ ------ ---- ---- ------- ----- -- ----<br>-------- ------- -- ---------- --- - --- ----- ----- ----<br>---- --- --- ----- --- ---- ---- matters ----- ---- -------<br>--- --- -- ----- -- --- ---- -- --- ---- -- ------ ------<br>--- ----- -- ----,196265.39999997616,196264.39999997616,195830.115,195836.39999997616,195846.777,196266.955,,35,matters
screen,html.Screen,2_1_0_1_36,2022-02-17T16:48:51.267Z,,,,,,,,,,,,,,,,,53,,,,,,,,,,,,,,393.94499997617095,,response,,,,99,,,,,,,Space,keypress(Space),,,,,,,,"---- -- ----- -- ------ - ------- --- ----------<br>------------- ------ ------ ---- ---- ------- ----- -- ----<br>-------- ------- -- ---------- --- - --- ----- ----- ----<br>---- --- --- ----- --- ---- ---- ------- most, ---- -------<br>--- --- -- ----- -- --- ---- -- --- ---- -- ------ ------<br>--- ----- -- ----",196661.89999997616,196660.89999997616,196250.295,196265.59999999404,196266.955,196677.419,,36,"most,"
screen,html.Screen,2_1_0_1_37,2022-02-17T16:48:51.749Z,,,,,,,,,,,,,,,,,53,,,,,,,,,,,,,,465.6809999940451,,response,,,,99,,,,,,,Space,keypress(Space),,,,,,,,---- -- ----- -- ------ - ------- --- ----------<br>------------- ------ ------ ---- ---- ------- ----- -- ----<br>-------- ------- -- ---------- --- - --- ----- ----- ----<br>---- --- --- ----- --- ---- ---- ------- ----- it's -------<br>--- --- -- ----- -- --- ---- -- --- ---- -- ------ ------<br>--- ----- -- ----,197144.19999998808,197143.09999999404,196660.684,196662.09999999404,196677.419,197150.565,,37,it's
screen,html.Screen,2_1_0_1_38,2022-02-17T16:48:52.126Z,,,,,,,,,,,,,,,,,53,,,,,,,,,,,,,,369.8349999761558,,response,,,,99,,,,,,,Space,keypress(Space),,,,,,,,---- -- ----- -- ------ - ------- --- ----------<br>------------- ------ ------ ---- ---- ------- ----- -- ----<br>-------- ------- -- ---------- --- - --- ----- ----- ----<br>---- --- --- ----- --- ---- ---- ------- ----- ---- whether<br>--- --- -- ----- -- --- ---- -- --- ---- -- ------ ------<br>--- ----- -- ----,197521.5,197520.39999997616,197133.882,197144.29999998212,197150.565,197530.789,,38,whether
screen,html.Screen,2_1_0_1_39,2022-02-17T16:48:52.503Z,,,,,,,,,,,,,,,,,53,,,,,,,,,,,,,,365.8109999940498,,response,,,,99,,,,,,,Space,keypress(Space),,,,,,,,---- -- ----- -- ------ - ------- --- ----------<br>------------- ------ ------ ---- ---- ------- ----- -- ----<br>-------- ------- -- ---------- --- - --- ----- ----- ----<br>---- --- --- ----- --- ---- ---- ------- ----- ---- -------<br>you --- -- ----- -- --- ---- -- --- ---- -- ------ ------<br>--- ----- -- ----,197898.19999998808,197896.59999999404,197513.808,197521.59999999404,197530.789,197912.267,,39,you
screen,html.Screen,2_1_0_1_40,2022-02-17T16:48:52.945Z,,,,,,,,,,,,,,,,,53,,,,,,,,,,,,,,426.6329999761656,,response,,,,99,,,,,,,Space,keypress(Space),,,,,,,,---- -- ----- -- ------ - ------- --- ----------<br>------------- ------ ------ ---- ---- ------- ----- -- ----<br>-------- ------- -- ---------- --- - --- ----- ----- ----<br>---- --- --- ----- --- ---- ---- ------- ----- ---- -------<br>--- are -- ----- -- --- ---- -- --- ---- -- ------ ------<br>--- ----- -- ----,198339.79999998212,198338.89999997616,197895.602,197898.39999997616,197912.267,198345.654,,40,are
screen,html.Screen,2_1_0_1_41,2022-02-17T16:48:53.326Z,,,,,,,,,,,,,,,,,53,,,,,,,,,,,,,,374.34599999999045,,response,,,,99,,,,,,,Space,keypress(Space),,,,,,,,---- -- ----- -- ------ - ------- --- ----------<br>------------- ------ ------ ---- ---- ------- ----- -- ----<br>-------- ------- -- ---------- --- - --- ----- ----- ----<br>---- --- --- ----- --- ---- ---- ------- ----- ---- -------<br>--- --- as ----- -- --- ---- -- --- ---- -- ------ ------<br>--- ----- -- ----,198721.09999999404,198720,198328.951,198339.89999997616,198345.654,198732.616,,41,as
screen,html.Screen,2_1_0_1_42,2022-02-17T16:48:53.782Z,,,,,,,,,,,,,,,,,53,,,,,,,,,,,,,,443.1839999821095,,response,,,,99,,,,,,,Space,keypress(Space),,,,,,,,---- -- ----- -- ------ - ------- --- ----------<br>------------- ------ ------ ---- ---- ------- ----- -- ----<br>-------- ------- -- ---------- --- - --- ----- ----- ----<br>---- --- --- ----- --- ---- ---- ------- ----- ---- -------<br>--- --- -- close -- --- ---- -- --- ---- -- ------ ------<br>--- ----- -- ----,199176.89999997616,199175.79999998212,198715.93,198722.5,198732.616,199194.529,,42,close
screen,html.Screen,2_1_0_1_43,2022-02-17T16:48:54.154Z,,,,,,,,,,,,,,,,,53,,,,,,,,,,,,,,352.97099999999045,,response,,,,99,,,,,,,Space,keypress(Space),,,,,,,,---- -- ----- -- ------ - ------- --- ----------<br>------------- ------ ------ ---- ---- ------- ----- -- ----<br>-------- ------- -- ---------- --- - --- ----- ----- ----<br>---- --- --- ----- --- ---- ---- ------- ----- ---- -------<br>--- --- -- ----- as --- ---- -- --- ---- -- ------ ------<br>--- ----- -- ----,199548.59999999404,199547.5,199177.803,199177,199194.529,199561.199,,43,as
screen,html.Screen,2_1_0_1_44,2022-02-17T16:48:54.596Z,,,,,,,,,,,,,,,,,53,,,,,,,,,,,,,,429.0009999880858,,response,,,,99,,,,,,,Space,keypress(Space),,,,,,,,---- -- ----- -- ------ - ------- --- ----------<br>------------- ------ ------ ---- ---- ------- ----- -- ----<br>-------- ------- -- ---------- --- - --- ----- ----- ----<br>---- --- --- ----- --- ---- ---- ------- ----- ---- -------<br>--- --- -- ----- -- you ---- -- --- ---- -- ------ ------<br>--- ----- -- ----,199991.19999998808,199990.19999998808,199544.531,199548.69999998808,199561.199,199995.876,,44,you
screen,html.Screen,2_1_0_1_45,2022-02-17T16:48:55.082Z,,,,,,,,,,,,,,,,,53,,,,,,,,,,,,,,480.4239999821293,,response,,,,99,,,,,,,Space,keypress(Space),,,,,,,,---- -- ----- -- ------ - ------- --- ----------<br>------------- ------ ------ ---- ---- ------- ----- -- ----<br>-------- ------- -- ---------- --- - --- ----- ----- ----<br>---- --- --- ----- --- ---- ---- ------- ----- ---- -------<br>--- --- -- ----- -- --- want -- --- ---- -- ------ ------<br>--- ----- -- ----,200477.39999997616,200476.29999998212,199979.213,199991.29999998212,199995.876,200481.539,,45,want
screen,html.Screen,2_1_0_1_46,2022-02-17T16:48:55.531Z,,,,,,,,,,,,,,,,,53,,,,,,,,,,,,,,443.96100000001024,,response,,,,99,,,,,,,Space,keypress(Space),,,,,,,,---- -- ----- -- ------ - ------- --- ----------<br>------------- ------ ------ ---- ---- ------- ----- -- ----<br>-------- ------- -- ---------- --- - --- ----- ----- ----<br>---- --- --- ----- --- ---- ---- ------- ----- ---- -------<br>--- --- -- ----- -- --- ---- to --- ---- -- ------ ------<br>--- ----- -- ----,200926.29999998212,200925.5,200464.87,200477.5,200481.539,200929.49,,46,to
screen,html.Screen,2_1_0_1_47,2022-02-17T16:48:55.986Z,,,,,,,,,,,,,,,,,53,,,,,,,,,,,,,,450.3099999821279,,response,,,,99,,,,,,,Space,keypress(Space),,,,,,,,"---- -- ----- -- ------ - ------- --- ----------<br>------------- ------ ------ ---- ---- ------- ----- -- ----<br>-------- ------- -- ---------- --- - --- ----- ----- ----<br>---- --- --- ----- --- ---- ---- ------- ----- ---- -------<br>--- --- -- ----- -- --- ---- -- be, ---- -- ------ ------<br>--- ----- -- ----",201380.79999998212,201379.79999998212,200912.82,200926.5,200929.49,201395.946,,47,"be,"
screen,html.Screen,2_1_0_1_48,2022-02-17T16:48:56.493Z,,,,,,,,,,,,,,,,,53,,,,,,,,,,,,,,491.2539999880828,,response,,,,99,,,,,,,Space,keypress(Space),,,,,,,,---- -- ----- -- ------ - ------- --- ----------<br>------------- ------ ------ ---- ---- ------- ----- -- ----<br>-------- ------- -- ---------- --- - --- ----- ----- ----<br>---- --- --- ----- --- ---- ---- ------- ----- ---- -------<br>--- --- -- ----- -- --- ---- -- --- even -- ------ ------<br>--- ----- -- ----,201888.19999998808,201887.19999998808,201379.271,201381,201395.946,201898.601,,48,even
screen,html.Screen,2_1_0_1_49,2022-02-17T16:48:56.898Z,,,,,,,,,,,,,,,,,53,,,,,,,,,,,,,,393.09899998808396,,response,,,,99,,,,,,,Space,keypress(Space),,,,,,,,---- -- ----- -- ------ - ------- --- ----------<br>------------- ------ ------ ---- ---- ------- ----- -- ----<br>-------- ------- -- ---------- --- - --- ----- ----- ----<br>---- --- --- ----- --- ---- ---- ------- ----- ---- -------<br>--- --- -- ----- -- --- ---- -- --- ---- if ------ ------<br>--- ----- -- ----,202292.59999999404,202291.69999998808,201881.914,201888.39999997616,201898.601,202299.06,,49,if
screen,html.Screen,2_1_0_1_50,2022-02-17T16:48:57.340Z,,,,,,,,,,,,,,,,,53,,,,,,,,,,,,,,434.4400000000023,,response,,,,99,,,,,,,Space,keypress(Space),,,,,,,,---- -- ----- -- ------ - ------- --- ----------<br>------------- ------ ------ ---- ---- ------- ----- -- ----<br>-------- ------- -- ---------- --- - --- ----- ----- ----<br>---- --- --- ----- --- ---- ---- ------- ----- ---- -------<br>--- --- -- ----- -- --- ---- -- --- ---- -- that's ------<br>--- ----- -- ----,202734.59999999404,202733.5,202282.391,202292.79999998212,202299.06,202742.729,,50,that's
screen,html.Screen,2_1_0_1_51,2022-02-17T16:48:57.730Z,,,,,,,,,,,,,,,,,53,,,,,,,,,,,,,,381.2710000000079,,response,,,,99,,,,,,,Space,keypress(Space),,,,,,,,---- -- ----- -- ------ - ------- --- ----------<br>------------- ------ ------ ---- ---- ------- ----- -- ----<br>-------- ------- -- ---------- --- - --- ----- ----- ----<br>---- --- --- ----- --- ---- ---- ------- ----- ---- -------<br>--- --- -- ----- -- --- ---- -- --- ---- -- ------ really<br>--- ----- -- ----,203124.89999997616,203124,202726.067,202734.79999998212,202742.729,203129.058,,51,really
screen,html.Screen,2_1_0_1_52,2022-02-17T16:48:58.200Z,,,,,,,,,,,,,,,,,53,,,,,,,,,,,,,,465.1419999880891,,response,,,,99,,,,,,,Space,keypress(Space),,,,,,,,---- -- ----- -- ------ - ------- --- ----------<br>------------- ------ ------ ---- ---- ------- ----- -- ----<br>-------- ------- -- ---------- --- - --- ----- ----- ----<br>---- --- --- ----- --- ---- ---- ------- ----- ---- -------<br>--- --- -- ----- -- --- ---- -- --- ---- -- ------ ------<br>not ----- -- ----,203595.29999998212,203594.19999998808,203112.398,203125,203129.058,203609.18,,52,not
screen,html.Screen,2_1_0_1_53,2022-02-17T16:48:58.652Z,,,,,,,,,,,,,,,,,53,,,,,,,,,,,,,,436.820000000007,,response,,,,99,,,,,,,Space,keypress(Space),,,,,,,,---- -- ----- -- ------ - ------- --- ----------<br>------------- ------ ------ ---- ---- ------- ----- -- ----<br>-------- ------- -- ---------- --- - --- ----- ----- ----<br>---- --- --- ----- --- ---- ---- ------- ----- ---- -------<br>--- --- -- ----- -- --- ---- -- --- ---- -- ------ ------<br>--- close -- ----,204046.89999997616,204046,203592.445,203595.39999997616,203609.18,204058.695,,53,close
screen,html.Screen,2_1_0_1_54,2022-02-17T16:48:59.042Z,,,,,,,,,,,,,,,,,53,,,,,,,,,,,,,,377.70499997615116,,response,,,,99,,,,,,,Space,keypress(Space),,,,,,,,---- -- ----- -- ------ - ------- --- ----------<br>------------- ------ ------ ---- ---- ------- ----- -- ----<br>-------- ------- -- ---------- --- - --- ----- ----- ----<br>---- --- --- ----- --- ---- ---- ------- ----- ---- -------<br>--- --- -- ----- -- --- ---- -- --- ---- -- ------ ------<br>--- ----- at ----,204437.39999997616,204436.39999997616,204042.012,204047.09999999404,204058.695,204443.14,,54,at
screen,html.Screen,2_1_0_1_55,2022-02-17T16:49:00.320Z,,,,,,,,,,,,,,,,,53,,,,,,,,,,,,,,1271.2599999761442,,response,,,,99,,,,,,,Space,keypress(Space),,,,,,,,---- -- ----- -- ------ - ------- --- ----------<br>------------- ------ ------ ---- ---- ------- ----- -- ----<br>-------- ------- -- ---------- --- - --- ----- ----- ----<br>---- --- --- ----- --- ---- ---- ------- ----- ---- -------<br>--- --- -- ----- -- --- ---- -- --- ---- -- ------ ------<br>--- ----- -- all.,205715.39999997616,205714.39999997616,204426.159,204437.5,204443.14,205732.362,,55,all.
Item 99,flow.Loop,2_1_0_1,2022-02-17T16:49:00.321Z,,,,,,,,,,,,,,,,,,,,,,,,,,,,,,,26801.977999976167,,completion,,,,,F,,,,,,,,,,,silence,,,,,205715.79999998212,205714.39999997616,178895.747,178898.5,178912.422,205732.362,,,
Question 1,html.Screen,2_1_0_2,2022-02-17T16:49:07.313Z,,,,,,,,,,,,,,,,,,,,,,,,,,,,true,FALSE,,6972.737999994046,,response,,,,99,F,,,,,,FALSE,click #choice-2,,,,silence,,,,,212708.19999998808,212705.09999999404,205715.697,205715.89999997616,205732.362,212710.285,,,
Question 2,html.Screen,2_1_0_3,2022-02-17T16:49:13.767Z,,,,,,,,,,,,,,,,,,,,,,,,,,,,false,TRUE,,6448.514999982115,,response,,,,99,F,,,,,,FALSE,click #choice-2,,,,silence,,,,,219161.79999998212,219158.79999998212,212693.62,212708.39999997616,212710.285,219169.277,,,
Item 99,flow.Sequence,2_1_0,2022-02-17T16:49:13.767Z,,,,,,,,,,,,,,,,,,,,,,,,,,,,,,,50250.06699998211,,completion,,,,,,,,,,,,,,,,,,,,,219162,219158.79999998212,168892.064,168900.69999998808,168908.733,219169.277,,,
Holding screen,html.Screen,2_1_1_0,2022-02-17T16:49:23.766Z,,,,,,,,,,,,,,,,,,,,,,,,,,,,,,,10006.787000000011,,timeout,,,,,,,,,,,,,,,,,,,,,229161.09999999404,229159.379,219152.59,219162.19999998808,219169.277,229176.064,,,
screen,html.Screen,2_1_1_1_0,2022-02-17T16:49:24.756Z,,,,,,,,,,,,,,,,,54,,,,,,,,,,,,,,973.5359999940265,,response,,,,100,,,,,,,Space,keypress(Space),,,,,,,,At --- ---- --- ------ ----- ------- ---- -- --- ------- --<br>------- ---------- ------ -- ----- -- ----- -- ---- ------<br>--- ----- --- --- ------ -------- ----- --- ------ ----- --<br>----- ----- ---------- --- --- ------ ------ ---- -- ------<br>------- --- ------ ----- --- ---- ------- -- ---- --- --<br>------- ------,230150.79999998212,230149.59999999404,229159.379,229161.29999998212,229176.064,230164.177,,0,At
screen,html.Screen,2_1_1_1_1,2022-02-17T16:49:25.253Z,,,,,,,,,,,,,,,,,54,,,,,,,,,,,,,,483.12299998212256,,response,,,,100,,,,,,,Space,keypress(Space),,,,,,,,-- the ---- --- ------ ----- ------- ---- -- --- ------- --<br>------- ---------- ------ -- ----- -- ----- -- ---- ------<br>--- ----- --- --- ------ -------- ----- --- ------ ----- --<br>----- ----- ---------- --- --- ------ ------ ---- -- ------<br>------- --- ------ ----- --- ---- ------- -- ---- --- --<br>------- ------,230648.29999998212,230647.29999998212,230147.454,230150.89999997616,230164.177,230656.525,,1,the
screen,html.Screen,2_1_1_1_2,2022-02-17T16:49:25.681Z,,,,,,,,,,,,,,,,,54,,,,,,,,,,,,,,418.9750000000058,,response,,,,100,,,,,,,Space,keypress(Space),,,,,,,,-- --- time --- ------ ----- ------- ---- -- --- ------- --<br>------- ---------- ------ -- ----- -- ----- -- ---- ------<br>--- ----- --- --- ------ -------- ----- --- ------ ----- --<br>----- ----- ---------- --- --- ------ ------ ---- -- ------<br>------- --- ------ ----- --- ---- ------- -- ---- --- --<br>------- ------,231076.5,231075.5,230639.854,230648.39999997616,230656.525,231089.021,,2,time
screen,html.Screen,2_1_1_1_3,2022-02-17T16:49:26.061Z,,,,,,,,,,,,,,,,,54,,,,,,,,,,,,,,366.4789999999921,,response,,,,100,,,,,,,Space,keypress(Space),,,,,,,,-- --- ---- the ------ ----- ------- ---- -- --- ------- --<br>------- ---------- ------ -- ----- -- ----- -- ---- ------<br>--- ----- --- --- ------ -------- ----- --- ------ ----- --<br>----- ----- ---------- --- --- ------ ------ ---- -- ------<br>------- --- ------ ----- --- ---- ------- -- ---- --- --<br>------- ------,231456.39999997616,231455.5,231072.358,231076.59999999404,231089.021,231465.353,,3,the
screen,html.Screen,2_1_1_1_4,2022-02-17T16:49:26.507Z,,,,,,,,,,,,,,,,,54,,,,,,,,,,,,,,436.04699997615535,,response,,,,100,,,,,,,Space,keypress(Space),,,,,,,,-- --- ---- --- French ----- ------- ---- -- --- ------- --<br>------- ---------- ------ -- ----- -- ----- -- ---- ------<br>--- ----- --- --- ------ -------- ----- --- ------ ----- --<br>----- ----- ---------- --- --- ------ ------ ---- -- ------<br>------- --- ------ ----- --- ---- ------- -- ---- --- --<br>------- ------,231902.39999997616,231901.39999997616,231448.684,231456.5,231465.353,231910.454,,4,French
screen,html.Screen,2_1_1_1_5,2022-02-17T16:49:26.885Z,,,,,,,,,,,,,,,,,54,,,,,,,,,,,,,,368.5460000000021,,response,,,,100,,,,,,,Space,keypress(Space),,,,,,,,-- --- ---- --- ------ crown ------- ---- -- --- ------- --<br>------- ---------- ------ -- ----- -- ----- -- ---- ------<br>--- ----- --- --- ------ -------- ----- --- ------ ----- --<br>----- ----- ---------- --- --- ------ ------ ---- -- ------<br>------- --- ------ ----- --- ---- ------- -- ---- --- --<br>------- ------,232280.39999997616,232279,231893.784,231902.59999999404,231910.454,232294.118,,5,crown
screen,html.Screen,2_1_1_1_6,2022-02-17T16:49:27.335Z,,,,,,,,,,,,,,,,,54,,,,,,,,,,,,,,434.7819999761705,,response,,,,100,,,,,,,Space,keypress(Space),,,,,,,,-- --- ---- --- ------ ----- secured ---- -- --- ------- --<br>------- ---------- ------ -- ----- -- ----- -- ---- ------<br>--- ----- --- --- ------ -------- ----- --- ------ ----- --<br>----- ----- ---------- --- --- ------ ------ ---- -- ------<br>------- --- ------ ----- --- ---- ------- -- ---- --- --<br>------- ------,232729.89999997616,232728.89999997616,232277.445,232280.59999999404,232294.118,232741.498,,6,secured
screen,html.Screen,2_1_1_1_7,2022-02-17T16:49:27.856Z,,,,,,,,,,,,,,,,,54,,,,,,,,,,,,,,508.4019999761658,,response,,,,100,,,,,,,Space,keypress(Space),,,,,,,,-- --- ---- --- ------ ----- ------- much -- --- ------- --<br>------- ---------- ------ -- ----- -- ----- -- ---- ------<br>--- ----- --- --- ------ -------- ----- --- ------ ----- --<br>----- ----- ---------- --- --- ------ ------ ---- -- ------<br>------- --- ------ ----- --- ---- ------- -- ---- --- --<br>------- ------,233250.89999997616,233249.89999997616,232724.811,232730,232741.498,233267.233,,7,much
screen,html.Screen,2_1_1_1_8,2022-02-17T16:49:28.272Z,,,,,,,,,,,,,,,,,54,,,,,,,,,,,,,,398.6669999761507,,response,,,,100,,,,,,,Space,keypress(Space),,,,,,,,-- --- ---- --- ------ ----- ------- ---- of --- ------- --<br>------- ---------- ------ -- ----- -- ----- -- ---- ------<br>--- ----- --- --- ------ -------- ----- --- ------ ----- --<br>----- ----- ---------- --- --- ------ ------ ---- -- ------<br>------- --- ------ ----- --- ---- ------- -- ---- --- --<br>------- ------,233666.89999997616,233665.89999997616,233250.561,233251.09999999404,233267.233,233678.787,,8,of
screen,html.Screen,2_1_1_1_9,2022-02-17T16:49:28.621Z,,,,,,,,,,,,,,,,,54,,,,,,,,,,,,,,336.11299997614697,,response,,,,100,,,,,,,Space,keypress(Space),,,,,,,,-- --- ---- --- ------ ----- ------- ---- -- its ------- --<br>------- ---------- ------ -- ----- -- ----- -- ---- ------<br>--- ----- --- --- ------ -------- ----- --- ------ ----- --<br>----- ----- ---------- --- --- ------ ------ ---- -- ------<br>------- --- ------ ----- --- ---- ------- -- ---- --- --<br>------- ------,234015.89999997616,234014.89999997616,233662.128,233667.19999998808,233678.787,234020.238,,9,its
screen,html.Screen,2_1_1_1_10,2022-02-17T16:49:29.019Z,,,,,,,,,,,,,,,,,54,,,,,,,,,,,,,,393.0619999821065,,response,,,,100,,,,,,,Space,keypress(Space),,,,,,,,-- --- ---- --- ------ ----- ------- ---- -- --- revenue --<br>------- ---------- ------ -- ----- -- ----- -- ---- ------<br>--- ----- --- --- ------ -------- ----- --- ------ ----- --<br>----- ----- ---------- --- --- ------ ------ ---- -- ------<br>------- --- ------ ----- --- ---- ------- -- ---- --- --<br>------- ------,234414.29999998212,234413.29999998212,234003.507,234016.19999998808,234020.238,234421.996,,10,revenue
screen,html.Screen,2_1_1_1_11,2022-02-17T16:49:29.487Z,,,,,,,,,,,,,,,,,54,,,,,,,,,,,,,,458.6039999940258,,response,,,,100,,,,,,,Space,keypress(Space),,,,,,,,-- --- ---- --- ------ ----- ------- ---- -- --- ------- by<br>------- ---------- ------ -- ----- -- ----- -- ---- ------<br>--- ----- --- --- ------ -------- ----- --- ------ ----- --<br>----- ----- ---------- --- --- ------ ------ ---- -- ------<br>------- --- ------ ----- --- ---- ------- -- ---- --- --<br>------- ------,234881.59999999404,234880.59999999404,234405.316,234414.5,234421.996,234887.037,,11,by
screen,html.Screen,2_1_1_1_12,2022-02-17T16:49:29.910Z,,,,,,,,,,,,,,,,,54,,,,,,,,,,,,,,417.4629999999888,,response,,,,100,,,,,,,Space,keypress(Space),,,,,,,,-- --- ---- --- ------ ----- ------- ---- -- --- ------- --<br>issuing ---------- ------ -- ----- -- ----- -- ---- ------<br>--- ----- --- --- ------ -------- ----- --- ------ ----- --<br>----- ----- ---------- --- --- ------ ------ ---- -- ------<br>------- --- ------ ----- --- ---- ------- -- ---- --- --<br>------- ------,235305.29999998212,235304.5,234870.357,234881.69999998808,234887.037,235308.966,,12,issuing
screen,html.Screen,2_1_1_1_13,2022-02-17T16:49:30.326Z,,,,,,,,,,,,,,,,,54,,,,,,,,,,,,,,411.2339999880933,,response,,,,100,,,,,,,Space,keypress(Space),,,,,,,,-- --- ---- --- ------ ----- ------- ---- -- --- ------- --<br>------- government ------ -- ----- -- ----- -- ---- ------<br>--- ----- --- --- ------ -------- ----- --- ------ ----- --<br>----- ----- ---------- --- --- ------ ------ ---- -- ------<br>------- --- ------ ----- --- ---- ------- -- ---- --- --<br>------- ------,235721.09999999404,235720.19999998808,235292.041,235305.59999999404,235308.966,235739.385,,13,government
screen,html.Screen,2_1_1_1_14,2022-02-17T16:49:30.693Z,,,,,,,,,,,,,,,,,54,,,,,,,,,,,,,,348.01499997614883,,response,,,,100,,,,,,,Space,keypress(Space),,,,,,,,-- --- ---- --- ------ ----- ------- ---- -- --- ------- --<br>------- ---------- bonds. -- ----- -- ----- -- ---- ------<br>--- ----- --- --- ------ -------- ----- --- ------ ----- --<br>----- ----- ---------- --- --- ------ ------ ---- -- ------<br>------- --- ------ ----- --- ---- ------- -- ---- --- --<br>------- ------,236087.89999997616,236087.39999997616,235722.818,235721.09999999404,235739.385,236089.434,,14,bonds.
screen,html.Screen,2_1_1_1_15,2022-02-17T16:49:31.109Z,,,,,,,,,,,,,,,,,54,,,,,,,,,,,,,,413.3659999821102,,response,,,,100,,,,,,,Space,keypress(Space),,,,,,,,-- --- ---- --- ------ ----- ------- ---- -- --- ------- --<br>------- ---------- ------ In ----- -- ----- -- ---- ------<br>--- ----- --- --- ------ -------- ----- --- ------ ----- --<br>----- ----- ---------- --- --- ------ ------ ---- -- ------<br>------- --- ------ ----- --- ---- ------- -- ---- --- --<br>------- ------,236503.79999998212,236502.79999998212,236072.765,236088,236089.434,236506.955,,15,In
screen,html.Screen,2_1_1_1_16,2022-02-17T16:49:31.562Z,,,,,,,,,,,,,,,,,54,,,,,,,,,,,,,,449.14499999405234,,response,,,,100,,,,,,,Space,keypress(Space),,,,,,,,"-- --- ---- --- ------ ----- ------- ---- -- --- ------- --<br>------- ---------- ------ -- 1727, -- ----- -- ---- ------<br>--- ----- --- --- ------ -------- ----- --- ------ ----- --<br>----- ----- ---------- --- --- ------ ------ ---- -- ------<br>------- --- ------ ----- --- ---- ------- -- ---- --- --<br>------- ------",236957.09999999404,236956.09999999404,236490.268,236504,236506.955,236967.897,,16,"1727,"
screen,html.Screen,2_1_1_1_17,2022-02-17T16:49:33.365Z,,,,,,,,,,,,,,,,,54,,,,,,,,,,,,,,1791.502999976161,,response,,,,100,,,,,,,Space,keypress(Space),,,,,,,,-- --- ---- --- ------ ----- ------- ---- -- --- ------- --<br>------- ---------- ------ -- ----- in ----- -- ---- ------<br>--- ----- --- --- ------ -------- ----- --- ------ ----- --<br>----- ----- ---------- --- --- ------ ------ ---- -- ------<br>------- --- ------ ----- --- ---- ------- -- ---- --- --<br>------- ------,238760.29999998212,238759.39999997616,236951.225,236957.29999998212,236967.897,238776.686,,17,in
screen,html.Screen,2_1_1_1_18,2022-02-17T16:49:33.764Z,,,,,,,,,,,,,,,,,54,,,,,,,,,,,,,,381.7139999761712,,response,,,,100,,,,,,,Space,keypress(Space),,,,,,,,-- --- ---- --- ------ ----- ------- ---- -- --- ------- --<br>------- ---------- ------ -- ----- -- order -- ---- ------<br>--- ----- --- --- ------ -------- ----- --- ------ ----- --<br>----- ----- ---------- --- --- ------ ------ ---- -- ------<br>------- --- ------ ----- --- ---- ------- -- ---- --- --<br>------- ------,239159.19999998808,239158.39999997616,238760.02,238760.39999997616,238776.686,239163.178,,18,order
screen,html.Screen,2_1_1_1_19,2022-02-17T16:49:34.160Z,,,,,,,,,,,,,,,,,54,,,,,,,,,,,,,,390.32199999998556,,response,,,,100,,,,,,,Space,keypress(Space),,,,,,,,-- --- ---- --- ------ ----- ------- ---- -- --- ------- --<br>------- ---------- ------ -- ----- -- ----- to ---- ------<br>--- ----- --- --- ------ -------- ----- --- ------ ----- --<br>----- ----- ---------- --- --- ------ ------ ---- -- ------<br>------- --- ------ ----- --- ---- ------- -- ---- --- --<br>------- ------,239554.69999998808,239553.5,239146.447,239159.29999998212,239163.178,239568.481,,19,to
screen,html.Screen,2_1_1_1_20,2022-02-17T16:49:34.697Z,,,,,,,,,,,,,,,,,54,,,,,,,,,,,,,,522.2189999880793,,response,,,,100,,,,,,,Space,keypress(Space),,,,,,,,-- --- ---- --- ------ ----- ------- ---- -- --- ------- --<br>------- ---------- ------ -- ----- -- ----- -- save ------<br>--- ----- --- --- ------ -------- ----- --- ------ ----- --<br>----- ----- ---------- --- --- ------ ------ ---- -- ------<br>------- --- ------ ----- --- ---- ------- -- ---- --- --<br>------- ------,240091.59999999404,240090.69999998808,239551.75,239554.79999998212,239568.481,240094.759,,20,save
screen,html.Screen,2_1_1_1_21,2022-02-17T16:49:35.128Z,,,,,,,,,,,,,,,,,54,,,,,,,,,,,,,,427.7410000000091,,response,,,,100,,,,,,,Space,keypress(Space),,,,,,,,"-- --- ---- --- ------ ----- ------- ---- -- --- ------- --<br>------- ---------- ------ -- ----- -- ----- -- ---- money,<br>--- ----- --- --- ------ -------- ----- --- ------ ----- --<br>----- ----- ---------- --- --- ------ ------ ---- -- ------<br>------- --- ------ ----- --- ---- ------- -- ---- --- --<br>------- ------",240523.39999997616,240522.5,240078.079,240091.69999998808,240094.759,240540.156,,21,"money,"
screen,html.Screen,2_1_1_1_22,2022-02-17T16:49:35.660Z,,,,,,,,,,,,,,,,,54,,,,,,,,,,,,,,514.043999988091,,response,,,,100,,,,,,,Space,keypress(Space),,,,,,,,-- --- ---- --- ------ ----- ------- ---- -- --- ------- --<br>------- ---------- ------ -- ----- -- ----- -- ---- ------<br>the ----- --- --- ------ -------- ----- --- ------ ----- --<br>----- ----- ---------- --- --- ------ ------ ---- -- ------<br>------- --- ------ ----- --- ---- ------- -- ---- --- --<br>------- ------,241055.19999998808,241054.19999998808,240523.231,240523.5,240540.156,241058.512,,22,the
screen,html.Screen,2_1_1_1_23,2022-02-17T16:49:35.969Z,,,,,,,,,,,,,,,,,54,,,,,,,,,,,,,,304.6879999880912,,response,,,,100,,,,,,,Space,keypress(Space),,,,,,,,-- --- ---- --- ------ ----- ------- ---- -- --- ------- --<br>------- ---------- ------ -- ----- -- ----- -- ---- ------<br>--- state --- --- ------ -------- ----- --- ------ ----- --<br>----- ----- ---------- --- --- ------ ------ ---- -- ------<br>------- --- ------ ----- --- ---- ------- -- ---- --- --<br>------- ------,241364.09999999404,241363.19999998808,241041.847,241055.29999998212,241058.512,241378.792,,23,state
screen,html.Screen,2_1_1_1_24,2022-02-17T16:49:36.360Z,,,,,,,,,,,,,,,,,54,,,,,,,,,,,,,,375.0079999821319,,response,,,,100,,,,,,,Space,keypress(Space),,,,,,,,-- --- ---- --- ------ ----- ------- ---- -- --- ------- --<br>------- ---------- ------ -- ----- -- ----- -- ---- ------<br>--- ----- cut --- ------ -------- ----- --- ------ ----- --<br>----- ----- ---------- --- --- ------ ------ ---- -- ------<br>------- --- ------ ----- --- ---- ------- -- ---- --- --<br>------- ------,241754.69999998808,241753.79999998212,241362.091,241364.29999998212,241378.792,241757.971,,24,cut
screen,html.Screen,2_1_1_1_25,2022-02-17T16:49:36.732Z,,,,,,,,,,,,,,,,,54,,,,,,,,,,,,,,368.6289999940491,,response,,,,100,,,,,,,Space,keypress(Space),,,,,,,,-- --- ---- --- ------ ----- ------- ---- -- --- ------- --<br>------- ---------- ------ -- ----- -- ----- -- ---- ------<br>--- ----- --- the ------ -------- ----- --- ------ ----- --<br>----- ----- ---------- --- --- ------ ------ ---- -- ------<br>------- --- ------ ----- --- ---- ------- -- ---- --- --<br>------- ------,242127.59999999404,242126.59999999404,241741.286,241754.79999998212,241757.971,242134.755,,25,the
screen,html.Screen,2_1_1_1_26,2022-02-17T16:49:37.057Z,,,,,,,,,,,,,,,,,54,,,,,,,,,,,,,,316.6449999761535,,response,,,,100,,,,,,,Space,keypress(Space),,,,,,,,-- --- ---- --- ------ ----- ------- ---- -- --- ------- --<br>------- ---------- ------ -- ----- -- ----- -- ---- ------<br>--- ----- --- --- bonds' -------- ----- --- ------ ----- --<br>----- ----- ---------- --- --- ------ ------ ---- -- ------<br>------- --- ------ ----- --- ---- ------- -- ---- --- --<br>------- ------,242452.29999998212,242451.39999997616,242118.036,242127.79999998212,242134.755,242458.598,,26,bonds'
screen,html.Screen,2_1_1_1_27,2022-02-17T16:49:37.588Z,,,,,,,,,,,,,,,,,54,,,,,,,,,,,,,,523.4020000000019,,response,,,,100,,,,,,,Space,keypress(Space),,,,,,,,-- --- ---- --- ------ ----- ------- ---- -- --- ------- --<br>------- ---------- ------ -- ----- -- ----- -- ---- ------<br>--- ----- --- --- ------ interest ----- --- ------ ----- --<br>----- ----- ---------- --- --- ------ ------ ---- -- ------<br>------- --- ------ ----- --- ---- ------- -- ---- --- --<br>------- ------,242983,242982,242441.928,242452.5,242458.598,242995.948,,27,interest
screen,html.Screen,2_1_1_1_28,2022-02-17T16:49:37.958Z,,,,,,,,,,,,,,,,,54,,,,,,,,,,,,,,356.6519999940356,,response,,,,100,,,,,,,Space,keypress(Space),,,,,,,,-- --- ---- --- ------ ----- ------- ---- -- --- ------- --<br>------- ---------- ------ -- ----- -- ----- -- ---- ------<br>--- ----- --- --- ------ -------- rate. --- ------ ----- --<br>----- ----- ---------- --- --- ------ ------ ---- -- ------<br>------- --- ------ ----- --- ---- ------- -- ---- --- --<br>------- ------,243353.39999997616,243352.59999999404,242979.284,242983.19999998808,242995.948,243354.885,,28,rate.
screen,html.Screen,2_1_1_1_29,2022-02-17T16:49:38.420Z,,,,,,,,,,,,,,,,,54,,,,,,,,,,,,,,459.2149999940302,,response,,,,100,,,,,,,Space,keypress(Space),,,,,,,,-- --- ---- --- ------ ----- ------- ---- -- --- ------- --<br>------- ---------- ------ -- ----- -- ----- -- ---- ------<br>--- ----- --- --- ------ -------- ----- The ------ ----- --<br>----- ----- ---------- --- --- ------ ------ ---- -- ------<br>------- --- ------ ----- --- ---- ------- -- ---- --- --<br>------- ------,243815,243814.09999999404,243338.216,243353.59999999404,243354.885,243818.997,,29,The
screen,html.Screen,2_1_1_1_30,2022-02-17T16:49:38.803Z,,,,,,,,,,,,,,,,,54,,,,,,,,,,,,,,378.6029999940365,,response,,,,100,,,,,,,Space,keypress(Space),,,,,,,,-- --- ---- --- ------ ----- ------- ---- -- --- ------- --<br>------- ---------- ------ -- ----- -- ----- -- ---- ------<br>--- ----- --- --- ------ -------- ----- --- market ----- --<br>----- ----- ---------- --- --- ------ ------ ---- -- ------<br>------- --- ------ ----- --- ---- ------- -- ---- --- --<br>------- ------,244198.5,244197.59999999404,243802.327,243815.19999998808,243818.997,244206.049,,30,market
screen,html.Screen,2_1_1_1_31,2022-02-17T16:49:39.193Z,,,,,,,,,,,,,,,,,54,,,,,,,,,,,,,,381.25099998211954,,response,,,,100,,,,,,,Space,keypress(Space),,,,,,,,-- --- ---- --- ------ ----- ------- ---- -- --- ------- --<br>------- ---------- ------ -- ----- -- ----- -- ---- ------<br>--- ----- --- --- ------ -------- ----- --- ------ value --<br>----- ----- ---------- --- --- ------ ------ ---- -- ------<br>------- --- ------ ----- --- ---- ------- -- ---- --- --<br>------- ------,244588.39999997616,244587.29999998212,244189.376,244198.69999998808,244206.049,244603.211,,31,value
screen,html.Screen,2_1_1_1_32,2022-02-17T16:49:39.687Z,,,,,,,,,,,,,,,,,54,,,,,,,,,,,,,,478.3889999940293,,response,,,,100,,,,,,,Space,keypress(Space),,,,,,,,-- --- ---- --- ------ ----- ------- ---- -- --- ------- --<br>------- ---------- ------ -- ----- -- ----- -- ---- ------<br>--- ----- --- --- ------ -------- ----- --- ------ ----- of<br>----- ----- ---------- --- --- ------ ------ ---- -- ------<br>------- --- ------ ----- --- ---- ------- -- ---- --- --<br>------- ------,245082.39999997616,245081.59999999404,244586.541,244590,244603.211,245097.914,,32,of
screen,html.Screen,2_1_1_1_33,2022-02-17T16:49:40.083Z,,,,,,,,,,,,,,,,,54,,,,,,,,,,,,,,379.7859999880893,,response,,,,100,,,,,,,Space,keypress(Space),,,,,,,,-- --- ---- --- ------ ----- ------- ---- -- --- ------- --<br>------- ---------- ------ -- ----- -- ----- -- ---- ------<br>--- ----- --- --- ------ -------- ----- --- ------ ----- --<br>these ----- ---------- --- --- ------ ------ ---- -- ------<br>------- --- ------ ----- --- ---- ------- -- ---- --- --<br>------- ------,245478.59999999404,245477.69999998808,245081.244,245082.5,245097.914,245490.562,,33,these
screen,html.Screen,2_1_1_1_34,2022-02-17T16:49:40.468Z,,,,,,,,,,,,,,,,,54,,,,,,,,,,,,,,371.93799999999464,,response,,,,100,,,,,,,Space,keypress(Space),,,,,,,,-- --- ---- --- ------ ----- ------- ---- -- --- ------- --<br>------- ---------- ------ -- ----- -- ----- -- ---- ------<br>--- ----- --- --- ------ -------- ----- --- ------ ----- --<br>----- bonds ---------- --- --- ------ ------ ---- -- ------<br>------- --- ------ ----- --- ---- ------- -- ---- --- --<br>------- ------,245863.59999999404,245862.5,245473.896,245478.79999998212,245490.562,245879.697,,34,bonds
screen,html.Screen,2_1_1_1_35,2022-02-17T16:49:40.872Z,,,,,,,,,,,,,,,,,54,,,,,,,,,,,,,,386.40299999405397,,response,,,,100,,,,,,,Space,keypress(Space),,,,,,,,"-- --- ---- --- ------ ----- ------- ---- -- --- ------- --<br>------- ---------- ------ -- ----- -- ----- -- ---- ------<br>--- ----- --- --- ------ -------- ----- --- ------ ----- --<br>----- ----- plummeted, --- --- ------ ------ ---- -- ------<br>------- --- ------ ----- --- ---- ------- -- ---- --- --<br>------- ------",246267.09999999404,246266.09999999404,245863.038,245863.69999998808,245879.697,246282.504,,35,"plummeted,"
screen,html.Screen,2_1_1_1_36,2022-02-17T16:49:41.364Z,,,,,,,,,,,,,,,,,54,,,,,,,,,,,,,,475.99600000001374,,response,,,,100,,,,,,,Space,keypress(Space),,,,,,,,-- --- ---- --- ------ ----- ------- ---- -- --- ------- --<br>------- ---------- ------ -- ----- -- ----- -- ---- ------<br>--- ----- --- --- ------ -------- ----- --- ------ ----- --<br>----- ----- ---------- and --- ------ ------ ---- -- ------<br>------- --- ------ ----- --- ---- ------- -- ---- --- --<br>------- ------,246759.59999999404,246758.5,246265.773,246267.29999998212,246282.504,246765.837,,36,and
screen,html.Screen,2_1_1_1_37,2022-02-17T16:49:41.691Z,,,,,,,,,,,,,,,,,54,,,,,,,,,,,,,,319.9629999821191,,response,,,,100,,,,,,,Space,keypress(Space),,,,,,,,-- --- ---- --- ------ ----- ------- ---- -- --- ------- --<br>------- ---------- ------ -- ----- -- ----- -- ---- ------<br>--- ----- --- --- ------ -------- ----- --- ------ ----- --<br>----- ----- ---------- --- the ------ ------ ---- -- ------<br>------- --- ------ ----- --- ---- ------- -- ---- --- --<br>------- ------,247086.59999999404,247085.79999998212,246749.157,246759.69999998808,246765.837,247098.992,,37,the
screen,html.Screen,2_1_1_1_38,2022-02-17T16:49:41.935Z,,,,,,,,,,,,,,,,,54,,,,,,,,,,,,,,230.2079999880807,,response,,,,100,,,,,,,Space,keypress(Space),,,,,,,,-- --- ---- --- ------ ----- ------- ---- -- --- ------- --<br>------- ---------- ------ -- ----- -- ----- -- ---- ------<br>--- ----- --- --- ------ -------- ----- --- ------ ----- --<br>----- ----- ---------- --- --- market ------ ---- -- ------<br>------- --- ------ ----- --- ---- ------- -- ---- --- --<br>------- ------,247330.19999998808,247329.19999998808,247082.067,247086.89999997616,247098.992,247346.257,,38,market
screen,html.Screen,2_1_1_1_39,2022-02-17T16:49:42.480Z,,,,,,,,,,,,,,,,,54,,,,,,,,,,,,,,527.9429999880667,,response,,,,100,,,,,,,Space,keypress(Space),,,,,,,,-- --- ---- --- ------ ----- ------- ---- -- --- ------- --<br>------- ---------- ------ -- ----- -- ----- -- ---- ------<br>--- ----- --- --- ------ -------- ----- --- ------ ----- --<br>----- ----- ---------- --- --- ------ became ---- -- ------<br>------- --- ------ ----- --- ---- ------- -- ---- --- --<br>------- ------,247875.29999998212,247874.19999998808,247329.592,247330.29999998212,247346.257,247891.916,,39,became
screen,html.Screen,2_1_1_1_40,2022-02-17T16:49:42.907Z,,,,,,,,,,,,,,,,,54,,,,,,,,,,,,,,409.4839999761607,,response,,,,100,,,,,,,Space,keypress(Space),,,,,,,,-- --- ---- --- ------ ----- ------- ---- -- --- ------- --<br>------- ---------- ------ -- ----- -- ----- -- ---- ------<br>--- ----- --- --- ------ -------- ----- --- ------ ----- --<br>----- ----- ---------- --- --- ------ ------ wary -- ------<br>------- --- ------ ----- --- ---- ------- -- ---- --- --<br>------- ------,248302.39999997616,248301.39999997616,247875.215,247875.39999997616,247891.916,248316.621,,40,wary
screen,html.Screen,2_1_1_1_41,2022-02-17T16:49:43.341Z,,,,,,,,,,,,,,,,,54,,,,,,,,,,,,,,418.2789999761444,,response,,,,100,,,,,,,Space,keypress(Space),,,,,,,,-- --- ---- --- ------ ----- ------- ---- -- --- ------- --<br>------- ---------- ------ -- ----- -- ----- -- ---- ------<br>--- ----- --- --- ------ -------- ----- --- ------ ----- --<br>----- ----- ---------- --- --- ------ ------ ---- of ------<br>------- --- ------ ----- --- ---- ------- -- ---- --- --<br>------- ------,248736,248734.89999997616,248299.936,248302.5,248316.621,248746.056,,41,of
screen,html.Screen,2_1_1_1_42,2022-02-17T16:49:43.702Z,,,,,,,,,,,,,,,,,54,,,,,,,,,,,,,,350.4439999999886,,response,,,,100,,,,,,,Space,keypress(Space),,,,,,,,-- --- ---- --- ------ ----- ------- ---- -- --- ------- --<br>------- ---------- ------ -- ----- -- ----- -- ---- ------<br>--- ----- --- --- ------ -------- ----- --- ------ ----- --<br>----- ----- ---------- --- --- ------ ------ ---- -- French<br>------- --- ------ ----- --- ---- ------- -- ---- --- --<br>------- ------,249097.5,249096.5,248729.337,248736.19999998808,248746.056,249104.18,,42,French
screen,html.Screen,2_1_1_1_43,2022-02-17T16:49:44.169Z,,,,,,,,,,,,,,,,,54,,,,,,,,,,,,,,459.1199999821256,,response,,,,100,,,,,,,Space,keypress(Space),,,,,,,,-- --- ---- --- ------ ----- ------- ---- -- --- ------- --<br>------- ---------- ------ -- ----- -- ----- -- ---- ------<br>--- ----- --- --- ------ -------- ----- --- ------ ----- --<br>----- ----- ---------- --- --- ------ ------ ---- -- ------<br>credit. --- ------ ----- --- ---- ------- -- ---- --- --<br>------- ------,249564.29999998212,249563.29999998212,249087.51,249097.59999999404,249104.18,249573.943,,43,credit.
screen,html.Screen,2_1_1_1_44,2022-02-17T16:49:44.575Z,,,,,,,,,,,,,,,,,54,,,,,,,,,,,,,,395.5570000000007,,response,,,,100,,,,,,,Space,keypress(Space),,,,,,,,-- --- ---- --- ------ ----- ------- ---- -- --- ------- --<br>------- ---------- ------ -- ----- -- ----- -- ---- ------<br>--- ----- --- --- ------ -------- ----- --- ------ ----- --<br>----- ----- ---------- --- --- ------ ------ ---- -- ------<br>------- The ------ ----- --- ---- ------- -- ---- --- --<br>------- ------,249970.39999997616,249969.5,249557.279,249564.5,249573.943,249981.043,,44,The
screen,html.Screen,2_1_1_1_45,2022-02-17T16:49:44.914Z,,,,,,,,,,,,,,,,,54,,,,,,,,,,,,,,327.65699998807395,,response,,,,100,,,,,,,Space,keypress(Space),,,,,,,,-- --- ---- --- ------ ----- ------- ---- -- --- ------- --<br>------- ---------- ------ -- ----- -- ----- -- ---- ------<br>--- ----- --- --- ------ -------- ----- --- ------ ----- --<br>----- ----- ---------- --- --- ------ ------ ---- -- ------<br>------- --- French ----- --- ---- ------- -- ---- --- --<br>------- ------,250309.69999998808,250308.69999998808,249964.374,249970.5,249981.043,250318.815,,45,French
screen,html.Screen,2_1_1_1_46,2022-02-17T16:49:45.258Z,,,,,,,,,,,,,,,,,54,,,,,,,,,,,,,,333.1849999999977,,response,,,,100,,,,,,,Space,keypress(Space),,,,,,,,-- --- ---- --- ------ ----- ------- ---- -- --- ------- --<br>------- ---------- ------ -- ----- -- ----- -- ---- ------<br>--- ----- --- --- ------ -------- ----- --- ------ ----- --<br>----- ----- ---------- --- --- ------ ------ ---- -- ------<br>------- --- ------ state --- ---- ------- -- ---- --- --<br>------- ------,250653.09999999404,250652,250302.145,250309.89999997616,250318.815,250657.497,,46,state
screen,html.Screen,2_1_1_1_47,2022-02-17T16:49:45.638Z,,,,,,,,,,,,,,,,,54,,,,,,,,,,,,,,375.002999999997,,response,,,,100,,,,,,,Space,keypress(Space),,,,,,,,-- --- ---- --- ------ ----- ------- ---- -- --- ------- --<br>------- ---------- ------ -- ----- -- ----- -- ---- ------<br>--- ----- --- --- ------ -------- ----- --- ------ ----- --<br>----- ----- ---------- --- --- ------ ------ ---- -- ------<br>------- --- ------ ----- was ---- ------- -- ---- --- --<br>------- ------,251033.59999999404,251032.5,250640.824,250653.19999998808,250657.497,251041.608,,47,was
screen,html.Screen,2_1_1_1_48,2022-02-17T16:49:46.049Z,,,,,,,,,,,,,,,,,54,,,,,,,,,,,,,,401.5919999880716,,response,,,,100,,,,,,,Space,keypress(Space),,,,,,,,-- --- ---- --- ------ ----- ------- ---- -- --- ------- --<br>------- ---------- ------ -- ----- -- ----- -- ---- ------<br>--- ----- --- --- ------ -------- ----- --- ------ ----- --<br>----- ----- ---------- --- --- ------ ------ ---- -- ------<br>------- --- ------ ----- --- left ------- -- ---- --- --<br>------- ------,251444.19999998808,251443.19999998808,251024.921,251033.69999998808,251041.608,251452.973,,48,left
screen,html.Screen,2_1_1_1_49,2022-02-17T16:49:46.543Z,,,,,,,,,,,,,,,,,54,,,,,,,,,,,,,,484.52700000000186,,response,,,,100,,,,,,,Space,keypress(Space),,,,,,,,-- --- ---- --- ------ ----- ------- ---- -- --- ------- --<br>------- ---------- ------ -- ----- -- ----- -- ---- ------<br>--- ----- --- --- ------ -------- ----- --- ------ ----- --<br>----- ----- ---------- --- --- ------ ------ ---- -- ------<br>------- --- ------ ----- --- ---- without -- ---- --- --<br>------- ------,251938.39999997616,251937.5,251436.303,251444.29999998212,251452.973,251952.983,,49,without
screen,html.Screen,2_1_1_1_50,2022-02-17T16:49:46.881Z,,,,,,,,,,,,,,,,,54,,,,,,,,,,,,,,322.6169999940321,,response,,,,100,,,,,,,Space,keypress(Space),,,,,,,,-- --- ---- --- ------ ----- ------- ---- -- --- ------- --<br>------- ---------- ------ -- ----- -- ----- -- ---- ------<br>--- ----- --- --- ------ -------- ----- --- ------ ----- --<br>----- ----- ---------- --- --- ------ ------ ---- -- ------<br>------- --- ------ ----- --- ---- ------- an ---- --- --<br>------- ------,252276.5,252275.59999999404,251936.317,251938.59999999404,251952.983,252278.817,,50,an
screen,html.Screen,2_1_1_1_51,2022-02-17T16:49:47.270Z,,,,,,,,,,,,,,,,,54,,,,,,,,,,,,,,385.18299999999,,response,,,,100,,,,,,,Space,keypress(Space),,,,,,,,-- --- ---- --- ------ ----- ------- ---- -- --- ------- --<br>------- ---------- ------ -- ----- -- ----- -- ---- ------<br>--- ----- --- --- ------ -------- ----- --- ------ ----- --<br>----- ----- ---------- --- --- ------ ------ ---- -- ------<br>------- --- ------ ----- --- ---- ------- -- easy --- --<br>------- ------,252665,252664,252262.158,252276.69999998808,252278.817,252676.664,,51,easy
screen,html.Screen,2_1_1_1_52,2022-02-17T16:49:47.633Z,,,,,,,,,,,,,,,,,54,,,,,,,,,,,,,,350.5359999880893,,response,,,,100,,,,,,,Space,keypress(Space),,,,,,,,-- --- ---- --- ------ ----- ------- ---- -- --- ------- --<br>------- ---------- ------ -- ----- -- ----- -- ---- ------<br>--- ----- --- --- ------ -------- ----- --- ------ ----- --<br>----- ----- ---------- --- --- ------ ------ ---- -- ------<br>------- --- ------ ----- --- ---- ------- -- ---- way --<br>------- ------,253028.29999998212,253027.19999998808,252659.933,252665.09999999404,252676.664,253044.291,,52,way
screen,html.Screen,2_1_1_1_53,2022-02-17T16:49:48.005Z,,,,,,,,,,,,,,,,,54,,,,,,,,,,,,,,354.8089999940421,,response,,,,100,,,,,,,Space,keypress(Space),,,,,,,,-- --- ---- --- ------ ----- ------- ---- -- --- ------- --<br>------- ---------- ------ -- ----- -- ----- -- ---- ------<br>--- ----- --- --- ------ -------- ----- --- ------ ----- --<br>----- ----- ---------- --- --- ------ ------ ---- -- ------<br>------- --- ------ ----- --- ---- ------- -- ---- --- of<br>------- ------,253400.09999999404,253399.09999999404,253027.611,253028.5,253044.291,253412.861,,53,of
screen,html.Screen,2_1_1_1_54,2022-02-17T16:49:48.406Z,,,,,,,,,,,,,,,,,54,,,,,,,,,,,,,,387.83899998807465,,response,,,,100,,,,,,,Space,keypress(Space),,,,,,,,-- --- ---- --- ------ ----- ------- ---- -- --- ------- --<br>------- ---------- ------ -- ----- -- ----- -- ---- ------<br>--- ----- --- --- ------ -------- ----- --- ------ ----- --<br>----- ----- ---------- --- --- ------ ------ ---- -- ------<br>------- --- ------ ----- --- ---- ------- -- ---- --- --<br>raising ------,253801.79999998212,253800.69999998808,253395.936,253400.19999998808,253412.861,253816.716,,54,raising
screen,html.Screen,2_1_1_1_55,2022-02-17T16:49:48.806Z,,,,,,,,,,,,,,,,,54,,,,,,,,,,,,,,383.7840000000142,,response,,,,100,,,,,,,Space,keypress(Space),,,,,,,,-- --- ---- --- ------ ----- ------- ---- -- --- ------- --<br>------- ---------- ------ -- ----- -- ----- -- ---- ------<br>--- ----- --- --- ------ -------- ----- --- ------ ----- --<br>----- ----- ---------- --- --- ------ ------ ---- -- ------<br>------- --- ------ ----- --- ---- ------- -- ---- --- --<br>------- money.,254201.5,254200.5,253800.051,253801.89999997616,253816.716,254205.444,,55,money.
Item 100,flow.Loop,2_1_1_1,2022-02-17T16:49:48.806Z,,,,,,,,,,,,,,,,,,,,,,,,,,,,,,,25024.435999999987,,completion,,,,,F,,,,,,,,,,,silence,,,,,254201.69999998808,254200.5,229159.379,229161.29999998212,229176.064,254205.444,,,
Question 1,html.Screen,2_1_1_2,2022-02-17T16:49:51.926Z,,,,,,,,,,,,,,,,,,,,,,,,,,,,true,TRUE,,3113.2559999880905,,response,,,,100,F,,,,,,TRUE,click #choice-1,,,,silence,,,,,257321.79999998212,257318.69999998808,254188.743,254201.89999997616,254205.444,257325.097,,,
Question 2,html.Screen,2_1_1_3,2022-02-17T16:49:54.554Z,,,,,,,,,,,,,,,,,,,,,,,,,,,,true,FALSE,,2621.902999999991,,response,,,,100,F,,,,,,FALSE,click #choice-2,,,,silence,,,,,259949.09999999404,259947,257308.414,257322,257325.097,259963.606,,,
Item 100,flow.Sequence,2_1_1,2022-02-17T16:49:54.554Z,,,,,,,,,,,,,,,,,,,,,,,,,,,,,,,40777.723,,completion,,,,,,,,,,,,,,,,,,,,,259949.39999997616,259947,219152.59,219162.19999998808,219169.277,259963.606,,,
End of Practice,html.Page,2_1_2,2022-02-17T16:50:02.204Z,,,,,,,,,,,,,,,,,,,,,,,,,,,,,,,7635.193999982119,,form submission,,,,,,,,,,,,,,,,,,,,,267599.6999999881,267598.7999999821,259946.881,259949.5,259963.606,267612.085,,,
Practice,flow.Sequence,2_1,2022-02-17T16:50:02.205Z,,,,,,,,,,,,,,,,,,,,,,,,,,,,,,,98690.06699998211,,completion,,,,,,,,,,,,,,,,,,,,,267600,267598.7999999821,168892.064,168900.69999998808,168908.733,267612.085,,,
Trap_instruction,html.Page,2_2_0,2022-02-17T16:50:09.323Z,,,,,,,,,,,,,,,,,,,,,,,,,,,,,,,7105.614999988058,,form submission,,,,,,,,,,,,,,,,,,,,,274718.09999999404,274717.6999999881,267595.419,267600.09999999404,267612.085,274727.78,,,
trap_trial,html.Screen,2_2_1,2022-02-17T16:50:13.791Z,,,,,,,,,,,,,,,,,,,,,,,,,,,,true,1,,4456.419999988051,,response,,,,,,,,,,,1,click #choice-1,,,,,,,,,279186.1999999881,279184.1999999881,274711.069,274718.2999999821,274727.78,279189.106,,,
end of trap trial,html.Page,2_2_2,2022-02-17T16:50:15.899Z,,,,,,,,,,,,,,,,,,,,,,,,,,,,,,,2103.9939999940107,,form submission,,,,,,,,,,,,,,,,,,,,,281294,281293.09999999404,279172.443,279186.2999999821,279189.106,281292.834,,,
Trap 1,flow.Sequence,2_2,2022-02-17T16:50:15.899Z,,,,,,,,,,,,,,,,,,,,,,,,,,,,,,,13681.014999994019,,completion,,,,,,,,,,,,,,,,,,,,,281294.2999999821,281293.09999999404,267595.419,267600.09999999404,267612.085,281292.834,,,
Standby,html.Page,2_3_0,2022-02-17T16:50:23.885Z,,,,,,,,,,,,,,,,,,,,,,,,,,,,,,,8002.827000000048,,timeout,,,,,,,,,,,,,,,,,,,,,289280.5,289278.983,281276.149,281294.39999997616,281292.834,289295.661,,,
Holding screen,html.Screen,2_3_1_0_0,2022-02-17T16:50:30.879Z,,,,,,,,,,,,,,,,,,,,,,,,,,,,,,,6994.436999999976,,timeout,,,,,,,,,,,,,,,,,,,,,296274.5,296273.415,289278.983,289280.89999997616,289295.661,296290.098,,,
screen,html.Screen,2_3_1_0_1_0,2022-02-17T16:50:31.807Z,,,,,,,,,,,,,,,,,48,,,,,,,,,,,,,,910.6019999880809,,response,,,,10,F,,,,,,Space,keypress(Space),,,,instrumental,,,,As -- --- ------ ------- --------- ----------- --------<br>--------- -------- --- ------- -- ------- ---- -- ------<br>-- --- -------- -------- ---------- ---- ---- ---- ------<br>-- --------- -- ---- -- --- -- --- ------- -- - -----<br>---------- -- -- -- ---- ----- -- ------ -- --- ------<br>-------,297201.89999997616,297200.6999999881,296273.415,296274.6999999881,296290.098,297215.472,,0,As
screen,html.Screen,2_3_1_0_1_1,2022-02-17T16:50:32.295Z,,,,,,,,,,,,,,,,,48,,,,,,,,,,,,,,473.52799999999115,,response,,,,10,F,,,,,,Space,keypress(Space),,,,instrumental,,,,-- in --- ------ ------- --------- ----------- --------<br>--------- -------- --- ------- -- ------- ---- -- ------<br>-- --- -------- -------- ---------- ---- ---- ---- ------<br>-- --------- -- ---- -- --- -- --- ------- -- - -----<br>---------- -- -- -- ---- ----- -- ------ -- --- ------<br>-------,297690.09999999404,297689,297198.806,297202.09999999404,297215.472,297702.218,,1,in
screen,html.Screen,2_3_1_0_1_2,2022-02-17T16:50:32.747Z,,,,,,,,,,,,,,,,,48,,,,,,,,,,,,,,439.0819999821251,,response,,,,10,F,,,,,,Space,keypress(Space),,,,instrumental,,,,-- -- the ------ ------- --------- ----------- --------<br>--------- -------- --- ------- -- ------- ---- -- ------<br>-- --- -------- -------- ---------- ---- ---- ---- ------<br>-- --------- -- ---- -- --- -- --- ------- -- - -----<br>---------- -- -- -- ---- ----- -- ------ -- --- ------<br>-------,298142.39999997616,298141.2999999821,297685.55,297690.2999999821,297702.218,298154.75,,2,the
screen,html.Screen,2_3_1_0_1_3,2022-02-17T16:50:33.227Z,,,,,,,,,,,,,,,,,48,,,,,,,,,,,,,,466.5499999821186,,response,,,,10,F,,,,,,Space,keypress(Space),,,,instrumental,,,,-- -- --- United ------- --------- ----------- --------<br>--------- -------- --- ------- -- ------- ---- -- ------<br>-- --- -------- -------- ---------- ---- ---- ---- ------<br>-- --------- -- ---- -- --- -- --- ------- -- - -----<br>---------- -- -- -- ---- ----- -- ------ -- --- ------<br>-------,298622.1999999881,298621.2999999821,298138.087,298142.59999999404,298154.75,298629.029,,3,United
screen,html.Screen,2_3_1_0_1_4,2022-02-17T16:50:33.626Z,,,,,,,,,,,,,,,,,48,,,,,,,,,,,,,,391.47100000001956,,response,,,,10,F,,,,,,Space,keypress(Space),,,,instrumental,,,,"-- -- --- ------ States, --------- ----------- --------<br>--------- -------- --- ------- -- ------- ---- -- ------<br>-- --- -------- -------- ---------- ---- ---- ---- ------<br>-- --------- -- ---- -- --- -- --- ------- -- - -----<br>---------- -- -- -- ---- ----- -- ------ -- --- ------<br>-------",299021.5,299020.5,298612.308,298622.2999999821,298629.029,299029.594,,4,"States,"
screen,html.Screen,2_3_1_0_1_5,2022-02-17T16:50:34.198Z,,,,,,,,,,,,,,,,,48,,,,,,,,,,,,,,563.2059999821358,,response,,,,10,F,,,,,,Space,keypress(Space),,,,instrumental,,,,-- -- --- ------ ------- Colombian ----------- --------<br>--------- -------- --- ------- -- ------- ---- -- ------<br>-- --- -------- -------- ---------- ---- ---- ---- ------<br>-- --------- -- ---- -- --- -- --- ------- -- - -----<br>---------- -- -- -- ---- ----- -- ------ -- --- ------<br>-------,299593.59999999404,299592.7999999821,299012.914,299021.5,299029.594,299598.508,,5,Colombian
screen,html.Screen,2_3_1_0_1_6,2022-02-17T16:50:34.734Z,,,,,,,,,,,,,,,,,48,,,,,,,,,,,,,,529.9920000000275,,response,,,,10,F,,,,,,Space,keypress(Space),,,,instrumental,,,,-- -- --- ------ ------- --------- legislation --------<br>--------- -------- --- ------- -- ------- ---- -- ------<br>-- --- -------- -------- ---------- ---- ---- ---- ------<br>-- --------- -- ---- -- --- -- --- ------- -- - -----<br>---------- -- -- -- ---- ----- -- ------ -- --- ------<br>-------,300129.39999997616,300128.5,299581.627,299593.6999999881,299598.508,300139.567,,6,legislation
screen,html.Screen,2_3_1_0_1_7,2022-02-17T16:50:35.141Z,,,,,,,,,,,,,,,,,48,,,,,,,,,,,,,,395.9330000000191,,response,,,,10,F,,,,,,Space,keypress(Space),,,,instrumental,,,,-- -- --- ------ ------- --------- ----------- requires<br>--------- -------- --- ------- -- ------- ---- -- ------<br>-- --- -------- -------- ---------- ---- ---- ---- ------<br>-- --------- -- ---- -- --- -- --- ------- -- - -----<br>---------- -- -- -- ---- ----- -- ------ -- --- ------<br>-------,300536.5,300535.5,300122.906,300129.59999999404,300139.567,300546.795,,7,requires
screen,html.Screen,2_3_1_0_1_8,2022-02-17T16:50:35.681Z,,,,,,,,,,,,,,,,,48,,,,,,,,,,,,,,528.5049999821349,,response,,,,10,F,,,,,,Space,keypress(Space),,,,instrumental,,,,-- -- --- ------ ------- --------- ----------- --------<br>travelers -------- --- ------- -- ------- ---- -- ------<br>-- --- -------- -------- ---------- ---- ---- ---- ------<br>-- --------- -- ---- -- --- -- --- ------- -- - -----<br>---------- -- -- -- ---- ----- -- ------ -- --- ------<br>-------,301076.2999999821,301075.2999999821,300530.11,300536.6999999881,300546.795,301078.327,,8,travelers
screen,html.Screen,2_3_1_0_1_9,2022-02-17T16:50:36.217Z,,,,,,,,,,,,,,,,,48,,,,,,,,,,,,,,532.5729999761679,,response,,,,10,F,,,,,,Space,keypress(Space),,,,instrumental,,,,-- -- --- ------ ------- --------- ----------- --------<br>--------- entering --- ------- -- ------- ---- -- ------<br>-- --- -------- -------- ---------- ---- ---- ---- ------<br>-- --------- -- ---- -- --- -- --- ------- -- - -----<br>---------- -- -- -- ---- ----- -- ------ -- --- ------<br>-------,301612.09999999404,301610.89999997616,301061.649,301076.5,301078.327,301624.019,,9,entering
screen,html.Screen,2_3_1_0_1_10,2022-02-17T16:50:36.640Z,,,,,,,,,,,,,,,,,48,,,,,,,,,,,,,,410.0809999940684,,response,,,,10,F,,,,,,Space,keypress(Space),,,,instrumental,,,,-- -- --- ------ ------- --------- ----------- --------<br>--------- -------- the ------- -- ------- ---- -- ------<br>-- --- -------- -------- ---------- ---- ---- ---- ------<br>-- --------- -- ---- -- --- -- --- ------- -- - -----<br>---------- -- -- -- ---- ----- -- ------ -- --- ------<br>-------,302035,302034.09999999404,301607.309,301612.2999999821,301624.019,302041.624,,10,the
screen,html.Screen,2_3_1_0_1_11,2022-02-17T16:50:37.017Z,,,,,,,,,,,,,,,,,48,,,,,,,,,,,,,,368.9759999940288,,response,,,,10,F,,,,,,Space,keypress(Space),,,,instrumental,,,,-- -- --- ------ ------- --------- ----------- --------<br>--------- -------- --- country -- ------- ---- -- ------<br>-- --- -------- -------- ---------- ---- ---- ---- ------<br>-- --------- -- ---- -- --- -- --- ------- -- - -----<br>---------- -- -- -- ---- ----- -- ------ -- --- ------<br>-------,302411.59999999404,302410.59999999404,302024.957,302035.1999999881,302041.624,302415.177,,11,country
screen,html.Screen,2_3_1_0_1_12,2022-02-17T16:50:37.525Z,,,,,,,,,,,,,,,,,48,,,,,,,,,,,,,,503.5229999880539,,response,,,,10,F,,,,,,Space,keypress(Space),,,,instrumental,,,,-- -- --- ------ ------- --------- ----------- --------<br>--------- -------- --- ------- to ------- ---- -- ------<br>-- --- -------- -------- ---------- ---- ---- ---- ------<br>-- --------- -- ---- -- --- -- --- ------- -- - -----<br>---------- -- -- -- ---- ----- -- ------ -- --- ------<br>-------,302919.7999999821,302918.6999999881,302398.513,302411.7999999821,302415.177,302922.225,,12,to
screen,html.Screen,2_3_1_0_1_13,2022-02-17T16:50:37.907Z,,,,,,,,,,,,,,,,,48,,,,,,,,,,,,,,378.2750000000233,,response,,,,10,F,,,,,,Space,keypress(Space),,,,instrumental,,,,-- -- --- ------ ------- --------- ----------- --------<br>--------- -------- --- ------- -- declare ---- -- ------<br>-- --- -------- -------- ---------- ---- ---- ---- ------<br>-- --------- -- ---- -- --- -- --- ------- -- - -----<br>---------- -- -- -- ---- ----- -- ------ -- --- ------<br>-------,303301.5,303300.5,302904.515,302919.89999997616,302922.225,303312.22,,13,declare
screen,html.Screen,2_3_1_0_1_14,2022-02-17T16:50:38.273Z,,,,,,,,,,,,,,,,,48,,,,,,,,,,,,,,354.78000000002794,,response,,,,10,F,,,,,,Space,keypress(Space),,,,instrumental,,,,-- -- --- ------ ------- --------- ----------- --------<br>--------- -------- --- ------- -- ------- cash -- ------<br>-- --- -------- -------- ---------- ---- ---- ---- ------<br>-- --------- -- ---- -- --- -- --- ------- -- - -----<br>---------- -- -- -- ---- ----- -- ------ -- --- ------<br>-------,303668,303667,303295.55,303301.6999999881,303312.22,303673.661,,14,cash
screen,html.Screen,2_3_1_0_1_15,2022-02-17T16:50:38.728Z,,,,,,,,,,,,,,,,,48,,,,,,,,,,,,,,447.8389999999781,,response,,,,10,F,,,,,,Space,keypress(Space),,,,instrumental,,,,-- -- --- ------ ------- --------- ----------- --------<br>--------- -------- --- ------- -- ------- ---- in ------<br>-- --- -------- -------- ---------- ---- ---- ---- ------<br>-- --------- -- ---- -- --- -- --- ------- -- - -----<br>---------- -- -- -- ---- ----- -- ------ -- --- ------<br>-------,304122.39999997616,304121.5,303656.992,303668.1999999881,303673.661,304138.616,,15,in
screen,html.Screen,2_3_1_0_1_16,2022-02-17T16:50:39.208Z,,,,,,,,,,,,,,,,,48,,,,,,,,,,,,,,463.0839999880991,,response,,,,10,F,,,,,,Space,keypress(Space),,,,instrumental,,,,-- -- --- ------ ------- --------- ----------- --------<br>--------- -------- --- ------- -- ------- ---- -- excess<br>-- --- -------- -------- ---------- ---- ---- ---- ------<br>-- --------- -- ---- -- --- -- --- ------- -- - -----<br>---------- -- -- -- ---- ----- -- ------ -- --- ------<br>-------,304602.6999999881,304601.6999999881,304121.933,304122.59999999404,304138.616,304616.586,,16,excess
screen,html.Screen,2_3_1_0_1_17,2022-02-17T16:50:39.580Z,,,,,,,,,,,,,,,,,48,,,,,,,,,,,,,,356.91399999998976,,response,,,,10,F,,,,,,Space,keypress(Space),,,,instrumental,,,,-- -- --- ------ ------- --------- ----------- --------<br>--------- -------- --- ------- -- ------- ---- -- ------<br>of --- -------- -------- ---------- ---- ---- ---- ------<br>-- --------- -- ---- -- --- -- --- ------- -- - -----<br>---------- -- -- -- ---- ----- -- ------ -- --- ------<br>-------,304974.5,304973.5,304599.92,304602.7999999821,304616.586,304991.68,,17,of
screen,html.Screen,2_3_1_0_1_18,2022-02-17T16:50:39.964Z,,,,,,,,,,,,,,,,,48,,,,,,,,,,,,,,366.2199999761651,,response,,,,10,F,,,,,,Space,keypress(Space),,,,instrumental,,,,-- -- --- ------ ------- --------- ----------- --------<br>--------- -------- --- ------- -- ------- ---- -- ------<br>-- ten -------- -------- ---------- ---- ---- ---- ------<br>-- --------- -- ---- -- --- -- --- ------- -- - -----<br>---------- -- -- -- ---- ----- -- ------ -- --- ------<br>-------,305358.89999997616,305357.89999997616,304975.012,304974.5,304991.68,305372.208,,18,ten
screen,html.Screen,2_3_1_0_1_19,2022-02-17T16:50:40.416Z,,,,,,,,,,,,,,,,,48,,,,,,,,,,,,,,437.79200000001583,,response,,,,10,F,,,,,,Space,keypress(Space),,,,instrumental,,,,-- -- --- ------ ------- --------- ----------- --------<br>--------- -------- --- ------- -- ------- ---- -- ------<br>-- --- thousand -------- ---------- ---- ---- ---- ------<br>-- --------- -- ---- -- --- -- --- ------- -- - -----<br>---------- -- -- -- ---- ----- -- ------ -- --- ------<br>-------,305811.09999999404,305810,305355.545,305359,305372.208,305813.983,,19,thousand
screen,html.Screen,2_3_1_0_1_20,2022-02-17T16:50:40.899Z,,,,,,,,,,,,,,,,,48,,,,,,,,,,,,,,479.1169999940321,,response,,,,10,F,,,,,,Space,keypress(Space),,,,instrumental,,,,-- -- --- ------ ------- --------- ----------- --------<br>--------- -------- --- ------- -- ------- ---- -- ------<br>-- --- -------- dollars. ---------- ---- ---- ---- ------<br>-- --------- -- ---- -- --- -- --- ------- -- - -----<br>---------- -- -- -- ---- ----- -- ------ -- --- ------<br>-------,306294,306293.09999999404,305797.262,305811.2999999821,305813.983,306295.044,,20,dollars.
screen,html.Screen,2_3_1_0_1_21,2022-02-17T16:50:41.267Z,,,,,,,,,,,,,,,,,48,,,,,,,,,,,,,,366.0559999940451,,response,,,,10,F,,,,,,Space,keypress(Space),,,,instrumental,,,,-- -- --- ------ ------- --------- ----------- --------<br>--------- -------- --- ------- -- ------- ---- -- ------<br>-- --- -------- -------- Concealing ---- ---- ---- ------<br>-- --------- -- ---- -- --- -- --- ------- -- - -----<br>---------- -- -- -- ---- ----- -- ------ -- --- ------<br>-------,306662.09999999404,306661.09999999404,306278.364,306294.09999999404,306295.044,306675.244,,21,Concealing
screen,html.Screen,2_3_1_0_1_22,2022-02-17T16:50:41.878Z,,,,,,,,,,,,,,,,,48,,,,,,,,,,,,,,596.3559999940335,,response,,,,10,F,,,,,,Space,keypress(Space),,,,instrumental,,,,-- -- --- ------ ------- --------- ----------- --------<br>--------- -------- --- ------- -- ------- ---- -- ------<br>-- --- -------- -------- ---------- more ---- ---- ------<br>-- --------- -- ---- -- --- -- --- ------- -- - -----<br>---------- -- -- -- ---- ----- -- ------ -- --- ------<br>-------,307272.59999999404,307271.59999999404,306658.559,306662.2999999821,306675.244,307278.904,,22,more
screen,html.Screen,2_3_1_0_1_23,2022-02-17T16:50:42.353Z,,,,,,,,,,,,,,,,,48,,,,,,,,,,,,,,467.59600000001956,,response,,,,10,F,,,,,,Space,keypress(Space),,,,instrumental,,,,-- -- --- ------ ------- --------- ----------- --------<br>--------- -------- --- ------- -- ------- ---- -- ------<br>-- --- -------- -------- ---------- ---- than ---- ------<br>-- --------- -- ---- -- --- -- --- ------- -- - -----<br>---------- -- -- -- ---- ----- -- ------ -- --- ------<br>-------,307747.5,307746.5,307262.188,307272.7999999821,307278.904,307750.848,,23,than
screen,html.Screen,2_3_1_0_1_24,2022-02-17T16:50:42.797Z,,,,,,,,,,,,,,,,,48,,,,,,,,,,,,,,439.85199998808093,,response,,,,10,F,,,,,,Space,keypress(Space),,,,instrumental,,,,-- -- --- ------ ------- --------- ----------- --------<br>--------- -------- --- ------- -- ------- ---- -- ------<br>-- --- -------- -------- ---------- ---- ---- that ------<br>-- --------- -- ---- -- --- -- --- ------- -- - -----<br>---------- -- -- -- ---- ----- -- ------ -- --- ------<br>-------,308191.5,308190.6999999881,307734.138,307747.59999999404,307750.848,308208.845,,24,that
screen,html.Screen,2_3_1_0_1_25,2022-02-17T16:50:43.407Z,,,,,,,,,,,,,,,,,48,,,,,,,,,,,,,,591.5549999761861,,response,,,,10,F,,,,,,Space,keypress(Space),,,,instrumental,,,,-- -- --- ------ ------- --------- ----------- --------<br>--------- -------- --- ------- -- ------- ---- -- ------<br>-- --- -------- -------- ---------- ---- ---- ---- amount<br>-- --------- -- ---- -- --- -- --- ------- -- - -----<br>---------- -- -- -- ---- ----- -- ------ -- --- ------<br>-------,308801.39999997616,308800.39999997616,308192.178,308191.59999999404,308208.845,308817.629,,25,amount
screen,html.Screen,2_3_1_0_1_26,2022-02-17T16:50:43.867Z,,,,,,,,,,,,,,,,,48,,,,,,,,,,,,,,443.2709999761428,,response,,,,10,F,,,,,,Space,keypress(Space),,,,instrumental,,,,-- -- --- ------ ------- --------- ----------- --------<br>--------- -------- --- ------- -- ------- ---- -- ------<br>-- --- -------- -------- ---------- ---- ---- ---- ------<br>to --------- -- ---- -- --- -- --- ------- -- - -----<br>---------- -- -- -- ---- ----- -- ------ -- --- ------<br>-------,309261.7999999821,309260.89999997616,308800.965,308801.59999999404,308817.629,309271.129,,26,to
screen,html.Screen,2_3_1_0_1_27,2022-02-17T16:50:44.338Z,,,,,,,,,,,,,,,,,48,,,,,,,,,,,,,,460.0709999880637,,response,,,,10,F,,,,,,Space,keypress(Space),,,,instrumental,,,,-- -- --- ------ ------- --------- ----------- --------<br>--------- -------- --- ------- -- ------- ---- -- ------<br>-- --- -------- -------- ---------- ---- ---- ---- ------<br>-- transport -- ---- -- --- -- --- ------- -- - -----<br>---------- -- -- -- ---- ----- -- ------ -- --- ------<br>-------,309732.39999997616,309731.1999999881,309253.419,309261.89999997616,309271.129,309738.875,,27,transport
screen,html.Screen,2_3_1_0_1_28,2022-02-17T16:50:44.939Z,,,,,,,,,,,,,,,,,48,,,,,,,,,,,,,,593.3249999880791,,response,,,,10,F,,,,,,Space,keypress(Space),,,,instrumental,,,,-- -- --- ------ ------- --------- ----------- --------<br>--------- -------- --- ------- -- ------- ---- -- ------<br>-- --- -------- -------- ---------- ---- ---- ---- ------<br>-- --------- it ---- -- --- -- --- ------- -- - -----<br>---------- -- -- -- ---- ----- -- ------ -- --- ------<br>-------,310333.1999999881,310332.1999999881,309722.205,309732.5,309738.875,310349.101,,28,it
screen,html.Screen,2_3_1_0_1_29,2022-02-17T16:50:45.369Z,,,,,,,,,,,,,,,,,48,,,,,,,,,,,,,,413.1989999820944,,response,,,,10,F,,,,,,Space,keypress(Space),,,,instrumental,,,,-- -- --- ------ ------- --------- ----------- --------<br>--------- -------- --- ------- -- ------- ---- -- ------<br>-- --- -------- -------- ---------- ---- ---- ---- ------<br>-- --------- -- into -- --- -- --- ------- -- - -----<br>---------- -- -- -- ---- ----- -- ------ -- --- ------<br>-------,310763.2999999821,310762.2999999821,310332.432,310333.2999999821,310349.101,310769.836,,29,into
screen,html.Screen,2_3_1_0_1_30,2022-02-17T16:50:45.873Z,,,,,,,,,,,,,,,,,48,,,,,,,,,,,,,,496.66399999998976,,response,,,,10,F,,,,,,Space,keypress(Space),,,,instrumental,,,,-- -- --- ------ ------- --------- ----------- --------<br>--------- -------- --- ------- -- ------- ---- -- ------<br>-- --- -------- -------- ---------- ---- ---- ---- ------<br>-- --------- -- ---- or --- -- --- ------- -- - -----<br>---------- -- -- -- ---- ----- -- ------ -- --- ------<br>-------,311267.5,311266.5,310753.153,310763.39999997616,310769.836,311283.177,,30,or
screen,html.Screen,2_3_1_0_1_31,2022-02-17T16:50:46.317Z,,,,,,,,,,,,,,,,,48,,,,,,,,,,,,,,427.222999976133,,response,,,,10,F,,,,,,Space,keypress(Space),,,,instrumental,,,,-- -- --- ------ ------- --------- ----------- --------<br>--------- -------- --- ------- -- ------- ---- -- ------<br>-- --- -------- -------- ---------- ---- ---- ---- ------<br>-- --------- -- ---- -- out -- --- ------- -- - -----<br>---------- -- -- -- ---- ----- -- ------ -- --- ------<br>-------,311711.39999997616,311710.39999997616,311266.511,311267.5,311283.177,311715.859,,31,out
screen,html.Screen,2_3_1_0_1_32,2022-02-17T16:50:46.634Z,,,,,,,,,,,,,,,,,48,,,,,,,,,,,,,,311.7409999940428,,response,,,,10,F,,,,,,Space,keypress(Space),,,,instrumental,,,,-- -- --- ------ ------- --------- ----------- --------<br>--------- -------- --- ------- -- ------- ---- -- ------<br>-- --- -------- -------- ---------- ---- ---- ---- ------<br>-- --------- -- ---- -- --- of --- ------- -- - -----<br>---------- -- -- -- ---- ----- -- ------ -- --- ------<br>-------,312028.6999999881,312027.59999999404,311699.191,311711.5,311715.859,312037.919,,32,of
screen,html.Screen,2_3_1_0_1_33,2022-02-17T16:50:47.032Z,,,,,,,,,,,,,,,,,48,,,,,,,,,,,,,,387.3809999821242,,response,,,,10,F,,,,,,Space,keypress(Space),,,,instrumental,,,,-- -- --- ------ ------- --------- ----------- --------<br>--------- -------- --- ------- -- ------- ---- -- ------<br>-- --- -------- -------- ---------- ---- ---- ---- ------<br>-- --------- -- ---- -- --- -- the ------- -- - -----<br>---------- -- -- -- ---- ----- -- ------ -- --- ------<br>-------,312426.2999999821,312425.2999999821,312021.256,312028.89999997616,312037.919,312434.046,,33,the
screen,html.Screen,2_3_1_0_1_34,2022-02-17T16:50:47.466Z,,,,,,,,,,,,,,,,,48,,,,,,,,,,,,,,425.6539999881061,,response,,,,10,F,,,,,,Space,keypress(Space),,,,instrumental,,,,-- -- --- ------ ------- --------- ----------- --------<br>--------- -------- --- ------- -- ------- ---- -- ------<br>-- --- -------- -------- ---------- ---- ---- ---- ------<br>-- --------- -- ---- -- --- -- --- country -- - -----<br>---------- -- -- -- ---- ----- -- ------ -- --- ------<br>-------,312860.89999997616,312859.6999999881,312417.325,312426.5,312434.046,312868.15,,34,country
screen,html.Screen,2_3_1_0_1_35,2022-02-17T16:50:47.955Z,,,,,,,,,,,,,,,,,48,,,,,,,,,,,,,,480.74999997613486,,response,,,,10,F,,,,,,Space,keypress(Space),,,,instrumental,,,,-- -- --- ------ ------- --------- ----------- --------<br>--------- -------- --- ------- -- ------- ---- -- ------<br>-- --- -------- -------- ---------- ---- ---- ---- ------<br>-- --------- -- ---- -- --- -- --- ------- is - -----<br>---------- -- -- -- ---- ----- -- ------ -- --- ------<br>-------,313349.89999997616,313348.89999997616,312851.47,312861,312868.15,313356.638,,35,is
screen,html.Screen,2_3_1_0_1_36,2022-02-17T16:50:48.429Z,,,,,,,,,,,,,,,,,48,,,,,,,,,,,,,,465.3620000000228,,response,,,,10,F,,,,,,Space,keypress(Space),,,,instrumental,,,,-- -- --- ------ ------- --------- ----------- --------<br>--------- -------- --- ------- -- ------- ---- -- ------<br>-- --- -------- -------- ---------- ---- ---- ---- ------<br>-- --------- -- ---- -- --- -- --- ------- -- a -----<br>---------- -- -- -- ---- ----- -- ------ -- --- ------<br>-------,313823.1999999881,313822,313339.757,313350.09999999404,313356.638,313827.528,,36,a
screen,html.Screen,2_3_1_0_1_37,2022-02-17T16:50:48.955Z,,,,,,,,,,,,,,,,,48,,,,,,,,,,,,,,521.371999976167,,response,,,,10,F,,,,,,Space,keypress(Space),,,,instrumental,,,,-- -- --- ------ ------- --------- ----------- --------<br>--------- -------- --- ------- -- ------- ---- -- ------<br>-- --- -------- -------- ---------- ---- ---- ---- ------<br>-- --------- -- ---- -- --- -- --- ------- -- - crime<br>---------- -- -- -- ---- ----- -- ------ -- --- ------<br>-------,314349.89999997616,314348.89999997616,313810.867,313823.39999997616,313827.528,314354.535,,37,crime
screen,html.Screen,2_3_1_0_1_38,2022-02-17T16:50:49.329Z,,,,,,,,,,,,,,,,,48,,,,,,,,,,,,,,367.7649999821442,,response,,,,10,F,,,,,,Space,keypress(Space),,,,instrumental,,,,-- -- --- ------ ------- --------- ----------- --------<br>--------- -------- --- ------- -- ------- ---- -- ------<br>-- --- -------- -------- ---------- ---- ---- ---- ------<br>-- --------- -- ---- -- --- -- --- ------- -- - -----<br>punishable -- -- -- ---- ----- -- ------ -- --- ------<br>-------,314723.2999999821,314722.2999999821,314337.85,314350,314354.535,314739.968,,38,punishable
screen,html.Screen,2_3_1_0_1_39,2022-02-17T16:50:49.745Z,,,,,,,,,,,,,,,,,48,,,,,,,,,,,,,,399.13199999404605,,response,,,,10,F,,,,,,Space,keypress(Space),,,,instrumental,,,,-- -- --- ------ ------- --------- ----------- --------<br>--------- -------- --- ------- -- ------- ---- -- ------<br>-- --- -------- -------- ---------- ---- ---- ---- ------<br>-- --------- -- ---- -- --- -- --- ------- -- - -----<br>---------- by -- -- ---- ----- -- ------ -- --- ------<br>-------,315140,315139.09999999404,314723.252,314723.39999997616,314739.968,315150.159,,39,by
screen,html.Screen,2_3_1_0_1_40,2022-02-17T16:50:50.172Z,,,,,,,,,,,,,,,,,48,,,,,,,,,,,,,,414.94099999405444,,response,,,,10,F,,,,,,Space,keypress(Space),,,,instrumental,,,,-- -- --- ------ ------- --------- ----------- --------<br>--------- -------- --- ------- -- ------- ---- -- ------<br>-- --- -------- -------- ---------- ---- ---- ---- ------<br>-- --------- -- ---- -- --- -- --- ------- -- - -----<br>---------- -- up -- ---- ----- -- ------ -- --- ------<br>-------,315566.2999999821,315565.09999999404,315133.449,315140.09999999404,315150.159,315574.531,,40,up
screen,html.Screen,2_3_1_0_1_41,2022-02-17T16:50:50.566Z,,,,,,,,,,,,,,,,,48,,,,,,,,,,,,,,384.66899998806184,,response,,,,10,F,,,,,,Space,keypress(Space),,,,instrumental,,,,-- -- --- ------ ------- --------- ----------- --------<br>--------- -------- --- ------- -- ------- ---- -- ------<br>-- --- -------- -------- ---------- ---- ---- ---- ------<br>-- --------- -- ---- -- --- -- --- ------- -- - -----<br>---------- -- -- to ---- ----- -- ------ -- --- ------<br>-------,315960.1999999881,315959.1999999881,315557.864,315566.39999997616,315574.531,315973.713,,41,to
screen,html.Screen,2_3_1_0_1_42,2022-02-17T16:50:51.051Z,,,,,,,,,,,,,,,,,48,,,,,,,,,,,,,,471.0869999821298,,response,,,,10,F,,,,,,Space,keypress(Space),,,,instrumental,,,,-- -- --- ------ ------- --------- ----------- --------<br>--------- -------- --- ------- -- ------- ---- -- ------<br>-- --- -------- -------- ---------- ---- ---- ---- ------<br>-- --------- -- ---- -- --- -- --- ------- -- - -----<br>---------- -- -- -- five ----- -- ------ -- --- ------<br>-------,316445.6999999881,316444.7999999821,315957.049,315960.39999997616,315973.713,316449.484,,42,five
