sender,sender_type,sender_id,timestamp,meta,,Blues,Classical,Country,Dance,Electronic,Folk,Gospel,Hip-Hop,Jazz,Latin,Musical/Film,New-age,Pop,Prolific_id,Provo_ID,R&B,Rap,Reggae,Religious,Rock,Soul,Swing,Traditional,age,artist_name,correct,correctResponse,distraction,duration,education,ended_on,familiarity,gender,headphone_check_performance,item,list,music_frequency,offensiveness,pleasantness,position_correct,preference,response,response_action,snippet_file,song_name,song_rating,sound,stimulus_1,stimulus_2,stimulus_3,text,time_commit,time_end,time_render,time_run,time_show,time_switch,url,word,word_ID
Prolific ID,html.Form,0,2022-02-17T12:50:12.614Z,"{""labjs_version"":""20.2.2"",""labjs_build"":{""flavor"":""production"",""commit"":""a25486e0c714a0ae2ce03ff94b7bb6896854dcfa""},""location"":""https://run.pavlovia.org/mvasilev/prolific2_music_d/"",""userAgent"":""Mozilla/5.0 (Windows NT 10.0; Win64; x64) AppleWebKit/537.36 (KHTML, like Gecko) Chrome/98.0.4758.102 Safari/537.36"",""platform"":""Win32"",""language"":""en-GB"",""locale"":""en-US"",""timeZone"":""Europe/London"",""timezoneOffset"":0,""screen_width"":1366,""screen_height"":768,""scroll_width"":1366,""scroll_height"":577,""window_innerWidth"":1366,""window_innerHeight"":625,""devicePixelRatio"":1}",,,,,,,,,,,,,,,62029afdef1cb18a1337c75b,,,,,,,,,,,,,,,13557.603000047684,,form submission,,,,,,,,,,,,,,,,,,,,,26121.5,26121.200000047684,12530.395,12539.700000047684,12563.597,26128.108,{},,
Introduction,html.Screen,1_0,2022-02-17T12:50:16.918Z,,,,,,,,,,,,,,,,,,,,,,,,,,,,,,,4296.192000011921,,response,,,,,,,,,,,continue,click button,,,,,,,,,30425.700000047684,30424.30000001192,26111.515,26121.700000047684,26128.108,30427.423,,,
Volume calibration,html.Screen,1_1,2022-02-17T12:51:05.753Z,,,,,,,,,,,,,,,,,,,,,,,,,,,,,,,48832.67700002385,,response,,,,,,,,,,,continue,click button,,,,,,,,,79260.70000004768,79260.10000002384,30410.829,30425.80000001192,30427.423,79269.527,,,
Task instructions,html.Screen,1_2,2022-02-17T12:51:17.221Z,,,,,,,,,,,,,,,,,,,,,,,,,,,,,,,11458.57300002384,,response,,,,,,,,,,,continue,click button,,,,,,,,,90728.80000001192,90728.10000002384,79252.86,79260.70000004768,79269.527,90734.21,,,
Sounds,html.Screen,1_3_0_0,2022-02-17T12:51:21.468Z,,,,,,,,,,,,,,,,,,,,,,,,,,,,,,,4249.304999999993,,timeout,,,,,,,,,1,,,,,,,,S,O,I,,94975.70000004768,94967.032,90717.531,90728.80000001192,90734.21,94983.515,,,
Judgement,html.Screen,1_3_0_1,2022-02-17T12:51:22.414Z,,,,,,,,,,,,,,,,,,,,,,,,,,,,true,1,,936.8850000357634,,response,,,,,,,,,1,,1,click #choice-1,,,,,S,O,I,,95921,95920.40000003576,94967.032,94975.80000001192,94983.515,95933.454,,,
Trial,flow.Sequence,1_3_0,2022-02-17T12:51:22.414Z,,,,,,,,,,,,,,,,,,,,,,,,,,,,,,,5186.190000035756,,completion,,,,,,,,,1,,,,,,,,S,O,I,,95921.30000001192,95920.40000003576,90717.531,90728.80000001192,90734.21,95933.454,,,
Sounds,html.Screen,1_3_1_0,2022-02-17T12:51:26.659Z,,,,,,,,,,,,,,,,,,,,,,,,,,,,,,,4249.323000000004,,timeout,,,,,,,,,1,,,,,,,,S,I,O,,100166.60000002384,100166.129,95916.834,95921.40000003576,95933.454,100182.777,,,
Judgement,html.Screen,1_3_1_1,2022-02-17T12:51:28.234Z,,,,,,,,,,,,,,,,,,,,,,,,,,,,true,1,,1557.523000011919,,response,,,,,,,,,1,,1,click #choice-1,,,,,S,I,O,,101741,101740.30000001192,100166.129,100166.70000004768,100182.777,101749.107,,,
Trial,flow.Sequence,1_3_1,2022-02-17T12:51:28.234Z,,,,,,,,,,,,,,,,,,,,,,,,,,,,,,,5806.846000011923,,completion,,,,,,,,,1,,,,,,,,S,I,O,,101741.30000001192,101740.30000001192,95916.834,95921.30000001192,95933.454,101749.107,,,
Sounds,html.Screen,1_3_2_0,2022-02-17T12:51:32.475Z,,,,,,,,,,,,,,,,,,,,,,,,,,,,,,,4249.349999999991,,timeout,,,,,,,,,3,,,,,,,,I,O,S,,105982.30000001192,105981.749,101732.587,101741.40000003576,101749.107,105998.457,,,
Judgement,html.Screen,1_3_2_1,2022-02-17T12:51:33.150Z,,,,,,,,,,,,,,,,,,,,,,,,,,,,true,3,,657.7430000476888,,response,,,,,,,,,3,,3,click #choice-3,,,,,I,O,S,,106656.90000003576,106656.20000004768,105981.749,105982.40000003576,105998.457,106664.944,,,
Trial,flow.Sequence,1_3_2,2022-02-17T12:51:33.150Z,,,,,,,,,,,,,,,,,,,,,,,,,,,,,,,4907.09300004768,,completion,,,,,,,,,3,,,,,,,,I,O,S,,106657,106656.20000004768,101732.587,101741.40000003576,101749.107,106664.944,,,
Sounds,html.Screen,1_3_3_0,2022-02-17T12:51:37.391Z,,,,,,,,,,,,,,,,,,,,,,,,,,,,,,,4249.2880000000005,,timeout,,,,,,,,,3,,,,,,,,O,I,S,,110898.20000004768,110897.683,106648.441,106657.10000002384,106664.944,110914.232,,,
Judgement,html.Screen,1_3_3_1,2022-02-17T12:51:38.077Z,,,,,,,,,,,,,,,,,,,,,,,,,,,,true,3,,669.9680000476801,,response,,,,,,,,,3,,3,click #choice-3,,,,,O,I,S,,111584.80000001192,111584.20000004768,110897.683,110898.30000001192,110914.232,111597.52,,,
Trial,flow.Sequence,1_3_3,2022-02-17T12:51:38.078Z,,,,,,,,,,,,,,,,,,,,,,,,,,,,,,,4919.256000047681,,completion,,,,,,,,,3,,,,,,,,O,I,S,,111584.90000003576,111584.20000004768,106648.441,106657.10000002384,106664.944,111597.52,,,
Sounds,html.Screen,1_3_4_0,2022-02-17T12:51:42.323Z,,,,,,,,,,,,,,,,,,,,,,,,,,,,,,,4249.3949999999895,,timeout,,,,,,,,,2,,,,,,,,O,S,I,,115830.70000004768,115830.214,111580.913,111585,111597.52,115846.915,,,
Judgement,html.Screen,1_3_4_1,2022-02-17T12:51:42.898Z,,,,,,,,,,,,,,,,,,,,,,,,,,,,true,2,,557.3850000119273,,response,,,,,,,,,2,,2,click #choice-2,,,,,O,S,I,,116405,116404.30000001192,115830.214,115830.70000004768,115846.915,116413.355,,,
Trial,flow.Sequence,1_3_4,2022-02-17T12:51:42.898Z,,,,,,,,,,,,,,,,,,,,,,,,,,,,,,,4806.780000011917,,completion,,,,,,,,,2,,,,,,,,O,S,I,,116405.10000002384,116404.30000001192,111580.913,111585,111597.52,116413.355,,,
Sounds,html.Screen,1_3_5_0,2022-02-17T12:51:47.139Z,,,,,,,,,,,,,,,,,,,,,,,,,,,,,,,4249.385999999999,,timeout,,,,,,,,,2,,,,,,,,I,S,O,,120646.5,120646.055,116396.698,116405.10000002384,116413.355,120662.741,,,
Judgement,html.Screen,1_3_5_1,2022-02-17T12:51:47.709Z,,,,,,,,,,,,,,,,,,,,,,,,,,,,true,2,,553.2590000000055,,response,,,,,,,,,2,,2,click #choice-2,,,,,I,S,O,,121216.70000004768,121216,120646.055,120646.60000002384,120662.741,121229.247,,,
Trial,flow.Sequence,1_3_5,2022-02-17T12:51:47.709Z,,,,,,,,,,,,,,,,,,,,,,,,,,,,,,,4802.645000000004,,completion,,,,,,,,,2,,,,,,,,I,S,O,,121216.80000001192,121216,116396.698,116405.10000002384,116413.355,121229.247,,,
Task,flow.Loop,1_3,2022-02-17T12:51:47.713Z,,,,,,,,,,,,,,,,,,,,,,,,,,,,,,,30481.789999999994,,completion,,,1,,,,,,,,,,,,,,,,,,121219.90000003576,121216,90717.531,90728.80000001192,90734.21,121229.247,,,
Trap,html.Screen,1_4,2022-02-17T12:51:47.713Z,,,,,,,,,,,,,,,,,,,,,,,,,,,,,,,NaN,,skipped,,,,,,,,,,,,,,,,,,,,,121220.70000004768,121216,,121220.60000002384,,121229.247,,,
Thanks,html.Screen,1_5,2022-02-17T12:51:52.550Z,,,,,,,,,,,,,,,,,,,,,,,,,,,,,,,4826.752999999997,,response,,,,,,,,,,,continue,click button,,,,,,,,,126056.60000002384,126056,121212.657,121220.70000004768,121229.247,130877.671,,,
Headphone screening,flow.Sequence,1,2022-02-17T12:51:52.550Z,,,,,,,,,,,,,,,,,,,,,,,,,,,,,,,99927.89199999999,,completion,,,,,,,,,,,,,,,,,,,,,126056.70000004768,126056,26111.515,26121.700000047684,26128.108,130877.671,,,
Instructions,html.Page,2_0,2022-02-17T12:52:11.477Z,,,,,,,,,,,,,,,,,,,,,,,,,,,,,,,14106.029000047682,,form submission,,,,,,,,,,,,,,,,,,,,,144984,144983.70000004768,130861.121,130881.60000002384,130877.671,144992.074,,,
Holding screen,html.Screen,2_1_0_0,2022-02-17T12:52:21.467Z,,,,,,,,,,,,,,,,,,,,,,,,,,,,,,,9998.350000000006,,timeout,,,,,,,,,,,,,,,,,,,,,154974.30000001192,154973.842,144975.489,144984.10000002384,144992.074,154990.424,,,
screen,html.Screen,2_1_0_1_0,2022-02-17T12:52:22.436Z,,,,,,,,,,,,,,,,,53,,,,,,,,,,,,,,950.9760000357637,,response,,,,99,,,,,,,Space,keypress(Space),,,,,,,,When -- ----- -- ------ - ------- --- ----------<br>------------- ------ ------ ---- ---- ------- ----- -- ----<br>-------- ------- -- ---------- --- - --- ----- ----- ----<br>---- --- --- ----- --- ---- ---- ------- ----- ---- -------<br>--- --- -- ----- -- --- ---- -- --- ---- -- ------ ------<br>--- ----- -- ----,155942.80000001192,155941.40000003576,154973.842,154974.5,154990.424,155956.883,,0,When
screen,html.Screen,2_1_0_1_1,2022-02-17T12:52:22.894Z,,,,,,,,,,,,,,,,,53,,,,,,,,,,,,,,443.8170000476821,,response,,,,99,,,,,,,Space,keypress(Space),,,,,,,,---- it ----- -- ------ - ------- --- ----------<br>------------- ------ ------ ---- ---- ------- ----- -- ----<br>-------- ------- -- ---------- --- - --- ----- ----- ----<br>---- --- --- ----- --- ---- ---- ------- ----- ---- -------<br>--- --- -- ----- -- --- ---- -- --- ---- -- ------ ------<br>--- ----- -- ----,156401.10000002384,156400.70000004768,155940.426,155942.90000003576,155956.883,156406.842,,1,it
screen,html.Screen,2_1_0_1_2,2022-02-17T12:52:23.291Z,,,,,,,,,,,,,,,,,53,,,,,,,,,,,,,,390.8580000476795,,response,,,,99,,,,,,,Space,keypress(Space),,,,,,,,---- -- comes -- ------ - ------- --- ----------<br>------------- ------ ------ ---- ---- ------- ----- -- ----<br>-------- ------- -- ---------- --- - --- ----- ----- ----<br>---- --- --- ----- --- ---- ---- ------- ----- ---- -------<br>--- --- -- ----- -- --- ---- -- --- ---- -- ------ ------<br>--- ----- -- ----,156798.10000002384,156797.70000004768,156390.326,156401.10000002384,156406.842,156806.788,,2,comes
screen,html.Screen,2_1_0_1_3,2022-02-17T12:52:23.736Z,,,,,,,,,,,,,,,,,53,,,,,,,,,,,,,,435.41200004768325,,response,,,,99,,,,,,,Space,keypress(Space),,,,,,,,---- -- ----- to ------ - ------- --- ----------<br>------------- ------ ------ ---- ---- ------- ----- -- ----<br>-------- ------- -- ---------- --- - --- ----- ----- ----<br>---- --- --- ----- --- ---- ---- ------- ----- ---- -------<br>--- --- -- ----- -- --- ---- -- --- ---- -- ------ ------<br>--- ----- -- ----,157242.60000002384,157242.20000004768,156790.105,156798.20000004768,156806.788,157256.741,,3,to
screen,html.Screen,2_1_0_1_4,2022-02-17T12:52:24.116Z,,,,,,,,,,,,,,,,,53,,,,,,,,,,,,,,366.05900001191185,,response,,,,99,,,,,,,Space,keypress(Space),,,,,,,,---- -- ----- -- having - ------- --- ----------<br>------------- ------ ------ ---- ---- ------- ----- -- ----<br>-------- ------- -- ---------- --- - --- ----- ----- ----<br>---- --- --- ----- --- ---- ---- ------- ----- ---- -------<br>--- --- -- ----- -- --- ---- -- --- ---- -- ------ ------<br>--- ----- -- ----,157623.30000001192,157622.80000001192,157240.227,157242.60000002384,157256.741,157640.027,,4,having
screen,html.Screen,2_1_0_1_5,2022-02-17T12:52:24.578Z,,,,,,,,,,,,,,,,,53,,,,,,,,,,,,,,444.8730000357609,,response,,,,99,,,,,,,Space,keypress(Space),,,,,,,,---- -- ----- -- ------ a ------- --- ----------<br>------------- ------ ------ ---- ---- ------- ----- -- ----<br>-------- ------- -- ---------- --- - --- ----- ----- ----<br>---- --- --- ----- --- ---- ---- ------- ----- ---- -------<br>--- --- -- ----- -- --- ---- -- --- ---- -- ------ ------<br>--- ----- -- ----,158085.30000001192,158084.90000003576,157623.495,157623.30000001192,157640.027,158089.861,,5,a
screen,html.Screen,2_1_0_1_6,2022-02-17T12:52:25.065Z,,,,,,,,,,,,,,,,,53,,,,,,,,,,,,,,481.73900002383743,,response,,,,99,,,,,,,Space,keypress(Space),,,,,,,,---- -- ----- -- ------ - lasting --- ----------<br>------------- ------ ------ ---- ---- ------- ----- -- ----<br>-------- ------- -- ---------- --- - --- ----- ----- ----<br>---- --- --- ----- --- ---- ---- ------- ----- ---- -------<br>--- --- -- ----- -- --- ---- -- --- ---- -- ------ ------<br>--- ----- -- ----,158572.10000002384,158571.60000002384,158073.228,158085.40000003576,158089.861,158591.131,,6,lasting
screen,html.Screen,2_1_0_1_7,2022-02-17T12:52:25.503Z,,,,,,,,,,,,,,,,,53,,,,,,,,,,,,,,417.9690000238479,,response,,,,99,,,,,,,Space,keypress(Space),,,,,,,,---- -- ----- -- ------ - ------- and ----------<br>------------- ------ ------ ---- ---- ------- ----- -- ----<br>-------- ------- -- ---------- --- - --- ----- ----- ----<br>---- --- --- ----- --- ---- ---- ------- ----- ---- -------<br>--- --- -- ----- -- --- ---- -- --- ---- -- ------ ------<br>--- ----- -- ----,159009.5,159009.10000002384,158556.49,158572.10000002384,158591.131,159023.201,,7,and
screen,html.Screen,2_1_0_1_8,2022-02-17T12:52:25.989Z,,,,,,,,,,,,,,,,,53,,,,,,,,,,,,,,472.3990000238409,,response,,,,99,,,,,,,Space,keypress(Space),,,,,,,,---- -- ----- -- ------ - ------- --- fulfilling<br>------------- ------ ------ ---- ---- ------- ----- -- ----<br>-------- ------- -- ---------- --- - --- ----- ----- ----<br>---- --- --- ----- --- ---- ---- ------- ----- ---- -------<br>--- --- -- ----- -- --- ---- -- --- ---- -- ------ ------<br>--- ----- -- ----,159496,159495.60000002384,159006.536,159009.60000002384,159023.201,159506.369,,8,fulfilling
screen,html.Screen,2_1_0_1_9,2022-02-17T12:52:26.411Z,,,,,,,,,,,,,,,,,53,,,,,,,,,,,,,,410.63099999999395,,response,,,,99,,,,,,,Space,keypress(Space),,,,,,,,"---- -- ----- -- ------ - ------- --- ----------<br>relationship, ------ ------ ---- ---- ------- ----- -- ----<br>-------- ------- -- ---------- --- - --- ----- ----- ----<br>---- --- --- ----- --- ---- ---- ------- ----- ---- -------<br>--- --- -- ----- -- --- ---- -- --- ---- -- ------ ------<br>--- ----- -- ----",159917.40000003576,159917,159489.716,159496,159506.369,159922.987,,9,"relationship,"
screen,html.Screen,2_1_0_1_10,2022-02-17T12:52:26.799Z,,,,,,,,,,,,,,,,,53,,,,,,,,,,,,,,382.9130000357691,,response,,,,99,,,,,,,Space,keypress(Space),,,,,,,,---- -- ----- -- ------ - ------- --- ----------<br>------------- common ------ ---- ---- ------- ----- -- ----<br>-------- ------- -- ---------- --- - --- ----- ----- ----<br>---- --- --- ----- --- ---- ---- ------- ----- ---- -------<br>--- --- -- ----- -- --- ---- -- --- ---- -- ------ ------<br>--- ----- -- ----,160306.30000001192,160305.90000003576,159906.298,159917.5,159922.987,160322.964,,10,common
screen,html.Screen,2_1_0_1_11,2022-02-17T12:52:27.127Z,,,,,,,,,,,,,,,,,53,,,,,,,,,,,,,,310.43600003575557,,response,,,,99,,,,,,,Space,keypress(Space),,,,,,,,---- -- ----- -- ------ - ------- --- ----------<br>------------- ------ wisdom ---- ---- ------- ----- -- ----<br>-------- ------- -- ---------- --- - --- ----- ----- ----<br>---- --- --- ----- --- ---- ---- ------- ----- ---- -------<br>--- --- -- ----- -- --- ---- -- --- ---- -- ------ ------<br>--- ----- -- ----,160633.70000004768,160633.40000003576,160306.342,160306.40000003576,160322.964,160639.533,,11,wisdom
screen,html.Screen,2_1_0_1_12,2022-02-17T12:52:27.692Z,,,,,,,,,,,,,,,,,53,,,,,,,,,,,,,,559.2670000119251,,response,,,,99,,,,,,,Space,keypress(Space),,,,,,,,---- -- ----- -- ------ - ------- --- ----------<br>------------- ------ ------ says ---- ------- ----- -- ----<br>-------- ------- -- ---------- --- - --- ----- ----- ----<br>---- --- --- ----- --- ---- ---- ------- ----- ---- -------<br>--- --- -- ----- -- --- ---- -- --- ---- -- ------ ------<br>--- ----- -- ----,161199.20000004768,161198.80000001192,160622.906,160633.80000001192,160639.533,161206.078,,12,says
screen,html.Screen,2_1_0_1_13,2022-02-17T12:52:28.077Z,,,,,,,,,,,,,,,,,53,,,,,,,,,,,,,,377.3220000357542,,response,,,,99,,,,,,,Space,keypress(Space),,,,,,,,---- -- ----- -- ------ - ------- --- ----------<br>------------- ------ ------ ---- that ------- ----- -- ----<br>-------- ------- -- ---------- --- - --- ----- ----- ----<br>---- --- --- ----- --- ---- ---- ------- ----- ---- -------<br>--- --- -- ----- -- --- ---- -- --- ---- -- ------ ------<br>--- ----- -- ----,161583.70000004768,161583.40000003576,161189.558,161199.20000004768,161206.078,161589.37,,13,that
screen,html.Screen,2_1_0_1_14,2022-02-17T12:52:28.492Z,,,,,,,,,,,,,,,,,53,,,,,,,,,,,,,,408.7300000238465,,response,,,,99,,,,,,,Space,keypress(Space),,,,,,,,---- -- ----- -- ------ - ------- --- ----------<br>------------- ------ ------ ---- ---- feeling ----- -- ----<br>-------- ------- -- ---------- --- - --- ----- ----- ----<br>---- --- --- ----- --- ---- ---- ------- ----- ---- -------<br>--- --- -- ----- -- --- ---- -- --- ---- -- ------ ------<br>--- ----- -- ----,161998.60000002384,161998.10000002384,161572.79,161583.80000001192,161589.37,162005.995,,14,feeling
screen,html.Screen,2_1_0_1_15,2022-02-17T12:52:28.926Z,,,,,,,,,,,,,,,,,53,,,,,,,,,,,,,,426.3050000119256,,response,,,,99,,,,,,,Space,keypress(Space),,,,,,,,---- -- ----- -- ------ - ------- --- ----------<br>------------- ------ ------ ---- ---- ------- close -- ----<br>-------- ------- -- ---------- --- - --- ----- ----- ----<br>---- --- --- ----- --- ---- ---- ------- ----- ---- -------<br>--- --- -- ----- -- --- ---- -- --- ---- -- ------ ------<br>--- ----- -- ----,162432.60000002384,162432.30000001192,161989.439,161998.60000002384,162005.995,162439.219,,15,close
screen,html.Screen,2_1_0_1_16,2022-02-17T12:52:29.300Z,,,,,,,,,,,,,,,,,53,,,,,,,,,,,,,,367.38100002383,,response,,,,99,,,,,,,Space,keypress(Space),,,,,,,,---- -- ----- -- ------ - ------- --- ----------<br>------------- ------ ------ ---- ---- ------- ----- to ----<br>-------- ------- -- ---------- --- - --- ----- ----- ----<br>---- --- --- ----- --- ---- ---- ------- ----- ---- -------<br>--- --- -- ----- -- --- ---- -- --- ---- -- ------ ------<br>--- ----- -- ----,162807,162806.60000002384,162422.698,162432.70000004768,162439.219,162822.605,,16,to
screen,html.Screen,2_1_0_1_17,2022-02-17T12:52:29.769Z,,,,,,,,,,,,,,,,,53,,,,,,,,,,,,,,452.59500004767324,,response,,,,99,,,,,,,Space,keypress(Space),,,,,,,,---- -- ----- -- ------ - ------- --- ----------<br>------------- ------ ------ ---- ---- ------- ----- -- your<br>-------- ------- -- ---------- --- - --- ----- ----- ----<br>---- --- --- ----- --- ---- ---- ------- ----- ---- -------<br>--- --- -- ----- -- --- ---- -- --- ---- -- ------ ------<br>--- ----- -- ----,163275.60000002384,163275.20000004768,162805.926,162807.10000002384,162822.605,163289.198,,17,your
screen,html.Screen,2_1_0_1_18,2022-02-17T12:52:30.265Z,,,,,,,,,,,,,,,,,53,,,,,,,,,,,,,,482.30199999999604,,response,,,,99,,,,,,,Space,keypress(Space),,,,,,,,---- -- ----- -- ------ - ------- --- ----------<br>------------- ------ ------ ---- ---- ------- ----- -- ----<br>romantic ------- -- ---------- --- - --- ----- ----- ----<br>---- --- --- ----- --- ---- ---- ------- ----- ---- -------<br>--- --- -- ----- -- --- ---- -- --- ---- -- ------ ------<br>--- ----- -- ----,163771.90000003576,163771.5,163272.521,163275.60000002384,163289.198,163789.05,,18,romantic
screen,html.Screen,2_1_0_1_19,2022-02-17T12:52:30.802Z,,,,,,,,,,,,,,,,,53,,,,,,,,,,,,,,519.0500000238535,,response,,,,99,,,,,,,Space,keypress(Space),,,,,,,,---- -- ----- -- ------ - ------- --- ----------<br>------------- ------ ------ ---- ---- ------- ----- -- ----<br>-------- partner -- ---------- --- - --- ----- ----- ----<br>---- --- --- ----- --- ---- ---- ------- ----- ---- -------<br>--- --- -- ----- -- --- ---- -- --- ---- -- ------ ------<br>--- ----- -- ----,164308.60000002384,164308.10000002384,163755.824,163771.90000003576,163789.05,164322.322,,19,partner
screen,html.Screen,2_1_0_1_20,2022-02-17T12:52:31.324Z,,,,,,,,,,,,,,,,,53,,,,,,,,,,,,,,507.87800004769815,,response,,,,99,,,,,,,Space,keypress(Space),,,,,,,,---- -- ----- -- ------ - ------- --- ----------<br>------------- ------ ------ ---- ---- ------- ----- -- ----<br>-------- ------- is ---------- --- - --- ----- ----- ----<br>---- --- --- ----- --- ---- ---- ------- ----- ---- -------<br>--- --- -- ----- -- --- ---- -- --- ---- -- ------ ------<br>--- ----- -- ----,164830.60000002384,164830.20000004768,164305.675,164308.60000002384,164322.322,164838.851,,20,is
screen,html.Screen,2_1_0_1_21,2022-02-17T12:52:31.798Z,,,,,,,,,,,,,,,,,53,,,,,,,,,,,,,,465.9490000119258,,response,,,,99,,,,,,,Space,keypress(Space),,,,,,,,---- -- ----- -- ------ - ------- --- ----------<br>------------- ------ ------ ---- ---- ------- ----- -- ----<br>-------- ------- -- paramount. --- - --- ----- ----- ----<br>---- --- --- ----- --- ---- ---- ------- ----- ---- -------<br>--- --- -- ----- -- --- ---- -- --- ---- -- ------ ------<br>--- ----- -- ----,165305.20000004768,165304.80000001192,164822.127,164830.80000001192,164838.851,165322.136,,21,paramount.
screen,html.Screen,2_1_0_1_22,2022-02-17T12:52:32.266Z,,,,,,,,,,,,,,,,,53,,,,,,,,,,,,,,450.5640000476851,,response,,,,99,,,,,,,Space,keypress(Space),,,,,,,,---- -- ----- -- ------ - ------- --- ----------<br>------------- ------ ------ ---- ---- ------- ----- -- ----<br>-------- ------- -- ---------- But - --- ----- ----- ----<br>---- --- --- ----- --- ---- ---- ------- ----- ---- -------<br>--- --- -- ----- -- --- ---- -- --- ---- -- ------ ------<br>--- ----- -- ----,165773.10000002384,165772.70000004768,165288.89,165305.20000004768,165322.136,165788.789,,22,But
screen,html.Screen,2_1_0_1_23,2022-02-17T12:52:32.607Z,,,,,,,,,,,,,,,,,53,,,,,,,,,,,,,,324.91100004769396,,response,,,,99,,,,,,,Space,keypress(Space),,,,,,,,---- -- ----- -- ------ - ------- --- ----------<br>------------- ------ ------ ---- ---- ------- ----- -- ----<br>-------- ------- -- ---------- --- a --- ----- ----- ----<br>---- --- --- ----- --- ---- ---- ------- ----- ---- -------<br>--- --- -- ----- -- --- ---- -- --- ---- -- ------ ------<br>--- ----- -- ----,166114.10000002384,166113.70000004768,165772.135,165773.20000004768,165788.789,166121.956,,23,a
screen,html.Screen,2_1_0_1_24,2022-02-17T12:52:33.387Z,,,,,,,,,,,,,,,,,53,,,,,,,,,,,,,,771.5439999999944,,response,,,,99,,,,,,,Space,keypress(Space),,,,,,,,---- -- ----- -- ------ - ------- --- ----------<br>------------- ------ ------ ---- ---- ------- ----- -- ----<br>-------- ------- -- ---------- --- - new ----- ----- ----<br>---- --- --- ----- --- ---- ---- ------- ----- ---- -------<br>--- --- -- ----- -- --- ---- -- --- ---- -- ------ ------<br>--- ----- -- ----,166894,166893.5,166105.377,166114.10000002384,166121.956,166905.195,,24,new
screen,html.Screen,2_1_0_1_25,2022-02-17T12:52:33.831Z,,,,,,,,,,,,,,,,,53,,,,,,,,,,,,,,432.7050000357558,,response,,,,99,,,,,,,Space,keypress(Space),,,,,,,,---- -- ----- -- ------ - ------- --- ----------<br>------------- ------ ------ ---- ---- ------- ----- -- ----<br>-------- ------- -- ---------- --- - --- study ----- ----<br>---- --- --- ----- --- ---- ---- ------- ----- ---- -------<br>--- --- -- ----- -- --- ---- -- --- ---- -- ------ ------<br>--- ----- -- ----,167338.30000001192,167337.90000003576,166888.625,166894.10000002384,166905.195,167371.71,,25,study
screen,html.Screen,2_1_0_1_26,2022-02-17T12:52:34.261Z,,,,,,,,,,,,,,,,,53,,,,,,,,,,,,,,395.39000002385,,response,,,,99,,,,,,,Space,keypress(Space),,,,,,,,---- -- ----- -- ------ - ------- --- ----------<br>------------- ------ ------ ---- ---- ------- ----- -- ----<br>-------- ------- -- ---------- --- - --- ----- finds ----<br>---- --- --- ----- --- ---- ---- ------- ----- ---- -------<br>--- --- -- ----- -- --- ---- -- --- ---- -- ------ ------<br>--- ----- -- ----,167767.5,167767.10000002384,167355.06,167338.30000001192,167371.71,167771.69,,26,finds
screen,html.Screen,2_1_0_1_27,2022-02-17T12:52:35.041Z,,,,,,,,,,,,,,,,,53,,,,,,,,,,,,,,775.3099999999977,,response,,,,99,,,,,,,Space,keypress(Space),,,,,,,,---- -- ----- -- ------ - ------- --- ----------<br>------------- ------ ------ ---- ---- ------- ----- -- ----<br>-------- ------- -- ---------- --- - --- ----- ----- that<br>---- --- --- ----- --- ---- ---- ------- ----- ---- -------<br>--- --- -- ----- -- --- ---- -- --- ---- -- ------ ------<br>--- ----- -- ----,168547.90000003576,168547,167755.132,167767.60000002384,167771.69,168555.199,,27,that
screen,html.Screen,2_1_0_1_28,2022-02-17T12:52:35.525Z,,,,,,,,,,,,,,,,,53,,,,,,,,,,,,,,476.30100000000675,,response,,,,99,,,,,,,Space,keypress(Space),,,,,,,,---- -- ----- -- ------ - ------- --- ----------<br>------------- ------ ------ ---- ---- ------- ----- -- ----<br>-------- ------- -- ---------- --- - --- ----- ----- ----<br>it's --- --- ----- --- ---- ---- ------- ----- ---- -------<br>--- --- -- ----- -- --- ---- -- --- ---- -- ------ ------<br>--- ----- -- ----,169031.90000003576,169031.5,168538.342,168548,168555.199,169038.168,,28,it's
screen,html.Screen,2_1_0_1_29,2022-02-17T12:52:36.064Z,,,,,,,,,,,,,,,,,53,,,,,,,,,,,,,,532.0320000476786,,response,,,,99,,,,,,,Space,keypress(Space),,,,,,,,---- -- ----- -- ------ - ------- --- ----------<br>------------- ------ ------ ---- ---- ------- ----- -- ----<br>-------- ------- -- ---------- --- - --- ----- ----- ----<br>---- not --- ----- --- ---- ---- ------- ----- ---- -------<br>--- --- -- ----- -- --- ---- -- --- ---- -- ------ ------<br>--- ----- -- ----,169570.60000002384,169570.20000004768,169021.595,169032,169038.168,169603.672,,29,not
screen,html.Screen,2_1_0_1_30,2022-02-17T12:52:36.626Z,,,,,,,,,,,,,,,,,53,,,,,,,,,,,,,,528.8280000000086,,response,,,,99,,,,,,,Space,keypress(Space),,,,,,,,---- -- ----- -- ------ - ------- --- ----------<br>------------- ------ ------ ---- ---- ------- ----- -- ----<br>-------- ------- -- ---------- --- - --- ----- ----- ----<br>---- --- how ----- --- ---- ---- ------- ----- ---- -------<br>--- --- -- ----- -- --- ---- -- --- ---- -- ------ ------<br>--- ----- -- ----,170132.90000003576,170132.5,169554.883,169570.60000002384,169603.672,170137.967,,30,how
screen,html.Screen,2_1_0_1_31,2022-02-17T12:52:37.071Z,,,,,,,,,,,,,,,,,53,,,,,,,,,,,,,,440.0329999999958,,response,,,,99,,,,,,,Space,keypress(Space),,,,,,,,---- -- ----- -- ------ - ------- --- ----------<br>------------- ------ ------ ---- ---- ------- ----- -- ----<br>-------- ------- -- ---------- --- - --- ----- ----- ----<br>---- --- --- close --- ---- ---- ------- ----- ---- -------<br>--- --- -- ----- -- --- ---- -- --- ---- -- ------ ------<br>--- ----- -- ----,170578.30000001192,170578,170121.396,170133,170137.967,170587.829,,31,close
screen,html.Screen,2_1_0_1_32,2022-02-17T12:52:37.554Z,,,,,,,,,,,,,,,,,53,,,,,,,,,,,,,,472.8710000476858,,response,,,,99,,,,,,,Space,keypress(Space),,,,,,,,---- -- ----- -- ------ - ------- --- ----------<br>------------- ------ ------ ---- ---- ------- ----- -- ----<br>-------- ------- -- ---------- --- - --- ----- ----- ----<br>---- --- --- ----- you ---- ---- ------- ----- ---- -------<br>--- --- -- ----- -- --- ---- -- --- ---- -- ------ ------<br>--- ----- -- ----,171061.10000002384,171060.70000004768,170571.216,170578.40000003576,170587.829,171071.167,,32,you
screen,html.Screen,2_1_0_1_33,2022-02-17T12:52:37.993Z,,,,,,,,,,,,,,,,,53,,,,,,,,,,,,,,428.33300000001327,,response,,,,99,,,,,,,Space,keypress(Space),,,,,,,,---- -- ----- -- ------ - ------- --- ----------<br>------------- ------ ------ ---- ---- ------- ----- -- ----<br>-------- ------- -- ---------- --- - --- ----- ----- ----<br>---- --- --- ----- --- feel ---- ------- ----- ---- -------<br>--- --- -- ----- -- --- ---- -- --- ---- -- ------ ------<br>--- ----- -- ----,171499.80000001192,171499.5,171054.426,171061.20000004768,171071.167,171504.433,,33,feel
screen,html.Screen,2_1_0_1_34,2022-02-17T12:52:38.483Z,,,,,,,,,,,,,,,,,53,,,,,,,,,,,,,,484.66700002385187,,response,,,,99,,,,,,,Space,keypress(Space),,,,,,,,---- -- ----- -- ------ - ------- --- ----------<br>------------- ------ ------ ---- ---- ------- ----- -- ----<br>-------- ------- -- ---------- --- - --- ----- ----- ----<br>---- --- --- ----- --- ---- that ------- ----- ---- -------<br>--- --- -- ----- -- --- ---- -- --- ---- -- ------ ------<br>--- ----- -- ----,171989.5,171989.10000002384,171487.837,171499.90000003576,171504.433,172004.41,,34,that
screen,html.Screen,2_1_0_1_35,2022-02-17T12:52:38.879Z,,,,,,,,,,,,,,,,,53,,,,,,,,,,,,,,381.19000002383837,,response,,,,99,,,,,,,Space,keypress(Space),,,,,,,,---- -- ----- -- ------ - ------- --- ----------<br>------------- ------ ------ ---- ---- ------- ----- -- ----<br>-------- ------- -- ---------- --- - --- ----- ----- ----<br>---- --- --- ----- --- ---- ---- matters ----- ---- -------<br>--- --- -- ----- -- --- ---- -- --- ---- -- ------ ------<br>--- ----- -- ----,172385.90000003576,172385.60000002384,171987.694,171989.60000002384,172004.41,172387.531,,35,matters
screen,html.Screen,2_1_0_1_36,2022-02-17T12:52:39.294Z,,,,,,,,,,,,,,,,,53,,,,,,,,,,,,,,412.6690000476956,,response,,,,99,,,,,,,Space,keypress(Space),,,,,,,,"---- -- ----- -- ------ - ------- --- ----------<br>------------- ------ ------ ---- ---- ------- ----- -- ----<br>-------- ------- -- ---------- --- - --- ----- ----- ----<br>---- --- --- ----- --- ---- ---- ------- most, ---- -------<br>--- --- -- ----- -- --- ---- -- --- ---- -- ------ ------<br>--- ----- -- ----",172800.60000002384,172800.20000004768,172370.966,172386,172387.531,172804.197,,36,"most,"
screen,html.Screen,2_1_0_1_37,2022-02-17T12:52:39.898Z,,,,,,,,,,,,,,,,,53,,,,,,,,,,,,,,600.1030000119354,,response,,,,99,,,,,,,Space,keypress(Space),,,,,,,,---- -- ----- -- ------ - ------- --- ----------<br>------------- ------ ------ ---- ---- ------- ----- -- ----<br>-------- ------- -- ---------- --- - --- ----- ----- ----<br>---- --- --- ----- --- ---- ---- ------- ----- it's -------<br>--- --- -- ----- -- --- ---- -- --- ---- -- ------ ------<br>--- ----- -- ----,173404.70000004768,173404.30000001192,172787.625,172800.60000002384,172804.197,173420.756,,37,it's
screen,html.Screen,2_1_0_1_38,2022-02-17T12:52:40.370Z,,,,,,,,,,,,,,,,,53,,,,,,,,,,,,,,456.14400003576884,,response,,,,99,,,,,,,Space,keypress(Space),,,,,,,,---- -- ----- -- ------ - ------- --- ----------<br>------------- ------ ------ ---- ---- ------- ----- -- ----<br>-------- ------- -- ---------- --- - --- ----- ----- ----<br>---- --- --- ----- --- ---- ---- ------- ----- ---- whether<br>--- --- -- ----- -- --- ---- -- --- ---- -- ------ ------<br>--- ----- -- ----,173877.20000004768,173876.90000003576,173404.105,173404.80000001192,173420.756,173887.358,,38,whether
screen,html.Screen,2_1_0_1_39,2022-02-17T12:52:40.811Z,,,,,,,,,,,,,,,,,53,,,,,,,,,,,,,,430.14199999999255,,response,,,,99,,,,,,,Space,keypress(Space),,,,,,,,---- -- ----- -- ------ - ------- --- ----------<br>------------- ------ ------ ---- ---- ------- ----- -- ----<br>-------- ------- -- ---------- --- - --- ----- ----- ----<br>---- --- --- ----- --- ---- ---- ------- ----- ---- -------<br>you --- -- ----- -- --- ---- -- --- ---- -- ------ ------<br>--- ----- -- ----,174317.90000003576,174317.5,173870.657,173877.30000001192,173887.358,174320.612,,39,you
screen,html.Screen,2_1_0_1_40,2022-02-17T12:52:41.345Z,,,,,,,,,,,,,,,,,53,,,,,,,,,,,,,,531.4880000238481,,response,,,,99,,,,,,,Space,keypress(Space),,,,,,,,---- -- ----- -- ------ - ------- --- ----------<br>------------- ------ ------ ---- ---- ------- ----- -- ----<br>-------- ------- -- ---------- --- - --- ----- ----- ----<br>---- --- --- ----- --- ---- ---- ------- ----- ---- -------<br>--- are -- ----- -- --- ---- -- --- ---- -- ------ ------<br>--- ----- -- ----,174852.40000003576,174852.10000002384,174304.076,174318,174320.612,174853.817,,40,are
screen,html.Screen,2_1_0_1_41,2022-02-17T12:52:41.878Z,,,,,,,,,,,,,,,,,53,,,,,,,,,,,,,,531.2830000238318,,response,,,,99,,,,,,,Space,keypress(Space),,,,,,,,---- -- ----- -- ------ - ------- --- ----------<br>------------- ------ ------ ---- ---- ------- ----- -- ----<br>-------- ------- -- ---------- --- - --- ----- ----- ----<br>---- --- --- ----- --- ---- ---- ------- ----- ---- -------<br>--- --- as ----- -- --- ---- -- --- ---- -- ------ ------<br>--- ----- -- ----,175385.40000003576,175385.10000002384,174837.225,174852.5,174853.817,175387.021,,41,as
screen,html.Screen,2_1_0_1_42,2022-02-17T12:52:42.415Z,,,,,,,,,,,,,,,,,53,,,,,,,,,,,,,,534.4789999999921,,response,,,,99,,,,,,,Space,keypress(Space),,,,,,,,---- -- ----- -- ------ - ------- --- ----------<br>------------- ------ ------ ---- ---- ------- ----- -- ----<br>-------- ------- -- ---------- --- - --- ----- ----- ----<br>---- --- --- ----- --- ---- ---- ------- ----- ---- -------<br>--- --- -- close -- --- ---- -- --- ---- -- ------ ------<br>--- ----- -- ----,175921.90000003576,175921.5,175370.514,175385.5,175387.021,175937.152,,42,close
screen,html.Screen,2_1_0_1_43,2022-02-17T12:52:42.897Z,,,,,,,,,,,,,,,,,53,,,,,,,,,,,,,,466.7480000357609,,response,,,,99,,,,,,,Space,keypress(Space),,,,,,,,---- -- ----- -- ------ - ------- --- ----------<br>------------- ------ ------ ---- ---- ------- ----- -- ----<br>-------- ------- -- ---------- --- - --- ----- ----- ----<br>---- --- --- ----- --- ---- ---- ------- ----- ---- -------<br>--- --- -- ----- as --- ---- -- --- ---- -- ------ ------<br>--- ----- -- ----,176404.40000003576,176403.90000003576,175920.341,175921.90000003576,175937.152,176420.392,,43,as
screen,html.Screen,2_1_0_1_44,2022-02-17T12:52:43.385Z,,,,,,,,,,,,,,,,,53,,,,,,,,,,,,,,471.50800003577024,,response,,,,99,,,,,,,Space,keypress(Space),,,,,,,,---- -- ----- -- ------ - ------- --- ----------<br>------------- ------ ------ ---- ---- ------- ----- -- ----<br>-------- ------- -- ---------- --- - --- ----- ----- ----<br>---- --- --- ----- --- ---- ---- ------- ----- ---- -------<br>--- --- -- ----- -- you ---- -- --- ---- -- ------ ------<br>--- ----- -- ----,176892.30000001192,176891.90000003576,176403.72,176404.5,176420.392,176903.624,,44,you
screen,html.Screen,2_1_0_1_45,2022-02-17T12:52:43.823Z,,,,,,,,,,,,,,,,,53,,,,,,,,,,,,,,425.7760000357521,,response,,,,99,,,,,,,Space,keypress(Space),,,,,,,,---- -- ----- -- ------ - ------- --- ----------<br>------------- ------ ------ ---- ---- ------- ----- -- ----<br>-------- ------- -- ---------- --- - --- ----- ----- ----<br>---- --- --- ----- --- ---- ---- ------- ----- ---- -------<br>--- --- -- ----- -- --- want -- --- ---- -- ------ ------<br>--- ----- -- ----,177329.90000003576,177329.40000003576,176886.833,176892.30000001192,176903.624,177336.796,,45,want
screen,html.Screen,2_1_0_1_46,2022-02-17T12:52:44.322Z,,,,,,,,,,,,,,,,,53,,,,,,,,,,,,,,491.7039999999979,,response,,,,99,,,,,,,Space,keypress(Space),,,,,,,,---- -- ----- -- ------ - ------- --- ----------<br>------------- ------ ------ ---- ---- ------- ----- -- ----<br>-------- ------- -- ---------- --- - --- ----- ----- ----<br>---- --- --- ----- --- ---- ---- ------- ----- ---- -------<br>--- --- -- ----- -- --- ---- to --- ---- -- ------ ------<br>--- ----- -- ----,177828.90000003576,177828.5,177320.231,177329.90000003576,177336.796,177836.68,,46,to
screen,html.Screen,2_1_0_1_47,2022-02-17T12:52:44.895Z,,,,,,,,,,,,,,,,,53,,,,,,,,,,,,,,564.6200000119279,,response,,,,99,,,,,,,Space,keypress(Space),,,,,,,,"---- -- ----- -- ------ - ------- --- ----------<br>------------- ------ ------ ---- ---- ------- ----- -- ----<br>-------- ------- -- ---------- --- - --- ----- ----- ----<br>---- --- --- ----- --- ---- ---- ------- ----- ---- -------<br>--- --- -- ----- -- --- ---- -- be, ---- -- ------ ------<br>--- ----- -- ----",178401.70000004768,178401.30000001192,177820.099,177829,177836.68,178403.221,,47,"be,"
screen,html.Screen,2_1_0_1_48,2022-02-17T12:52:45.416Z,,,,,,,,,,,,,,,,,53,,,,,,,,,,,,,,518.9790000476933,,response,,,,99,,,,,,,Space,keypress(Space),,,,,,,,---- -- ----- -- ------ - ------- --- ----------<br>------------- ------ ------ ---- ---- ------- ----- -- ----<br>-------- ------- -- ---------- --- - --- ----- ----- ----<br>---- --- --- ----- --- ---- ---- ------- ----- ---- -------<br>--- --- -- ----- -- --- ---- -- --- even -- ------ ------<br>--- ----- -- ----,178922.60000002384,178922.20000004768,178386.74,178401.70000004768,178403.221,178937.598,,48,even
screen,html.Screen,2_1_0_1_49,2022-02-17T12:52:46.091Z,,,,,,,,,,,,,,,,,53,,,,,,,,,,,,,,660.4020000000019,,response,,,,99,,,,,,,Space,keypress(Space),,,,,,,,---- -- ----- -- ------ - ------- --- ----------<br>------------- ------ ------ ---- ---- ------- ----- -- ----<br>-------- ------- -- ---------- --- - --- ----- ----- ----<br>---- --- --- ----- --- ---- ---- ------- ----- ---- -------<br>--- --- -- ----- -- --- ---- -- --- ---- if ------ ------<br>--- ----- -- ----,179598.40000003576,179598,178919.973,178922.70000004768,178937.598,179603.056,,49,if
screen,html.Screen,2_1_0_1_50,2022-02-17T12:52:46.762Z,,,,,,,,,,,,,,,,,53,,,,,,,,,,,,,,665.2440000119095,,response,,,,99,,,,,,,Space,keypress(Space),,,,,,,,---- -- ----- -- ------ - ------- --- ----------<br>------------- ------ ------ ---- ---- ------- ----- -- ----<br>-------- ------- -- ---------- --- - --- ----- ----- ----<br>---- --- --- ----- --- ---- ---- ------- ----- ---- -------<br>--- --- -- ----- -- --- ---- -- --- ---- -- that's ------<br>--- ----- -- ----,180268.80000001192,180268.30000001192,179586.564,179598.5,179603.056,180299.927,,50,that's
screen,html.Screen,2_1_0_1_51,2022-02-17T12:52:47.664Z,,,,,,,,,,,,,,,,,53,,,,,,,,,,,,,,870.6730000238458,,response,,,,99,,,,,,,Space,keypress(Space),,,,,,,,---- -- ----- -- ------ - ------- --- ----------<br>------------- ------ ------ ---- ---- ------- ----- -- ----<br>-------- ------- -- ---------- --- - --- ----- ----- ----<br>---- --- --- ----- --- ---- ---- ------- ----- ---- -------<br>--- --- -- ----- -- --- ---- -- --- ---- -- ------ really<br>--- ----- -- ----,181170.90000003576,181170.60000002384,180253.113,180268.90000003576,180299.927,181186.275,,51,really
screen,html.Screen,2_1_0_1_52,2022-02-17T12:52:48.346Z,,,,,,,,,,,,,,,,,53,,,,,,,,,,,,,,665.8250000238477,,response,,,,99,,,,,,,Space,keypress(Space),,,,,,,,---- -- ----- -- ------ - ------- --- ----------<br>------------- ------ ------ ---- ---- ------- ----- -- ----<br>-------- ------- -- ---------- --- - --- ----- ----- ----<br>---- --- --- ----- --- ---- ---- ------- ----- ---- -------<br>--- --- -- ----- -- --- ---- -- --- ---- -- ------ ------<br>not ----- -- ----,181852.5,181852.10000002384,181169.629,181171,181186.275,181869.504,,52,not
screen,html.Screen,2_1_0_1_53,2022-02-17T12:52:49.296Z,,,,,,,,,,,,,,,,,53,,,,,,,,,,,,,,933.0960000238556,,response,,,,99,,,,,,,Space,keypress(Space),,,,,,,,---- -- ----- -- ------ - ------- --- ----------<br>------------- ------ ------ ---- ---- ------- ----- -- ----<br>-------- ------- -- ---------- --- - --- ----- ----- ----<br>---- --- --- ----- --- ---- ---- ------- ----- ---- -------<br>--- --- -- ----- -- --- ---- -- --- ---- -- ------ ------<br>--- close -- ----,182803,182802.60000002384,181852.859,181852.60000002384,181869.504,182819.256,,53,close
screen,html.Screen,2_1_0_1_54,2022-02-17T12:52:49.729Z,,,,,,,,,,,,,,,,,53,,,,,,,,,,,,,,415.94400004768977,,response,,,,99,,,,,,,Space,keypress(Space),,,,,,,,---- -- ----- -- ------ - ------- --- ----------<br>------------- ------ ------ ---- ---- ------- ----- -- ----<br>-------- ------- -- ---------- --- - --- ----- ----- ----<br>---- --- --- ----- --- ---- ---- ------- ----- ---- -------<br>--- --- -- ----- -- --- ---- -- --- ---- -- ------ ------<br>--- ----- at ----,183235.60000002384,183235.20000004768,182802.712,182803,182819.256,183252.454,,54,at
screen,html.Screen,2_1_0_1_55,2022-02-17T12:52:50.827Z,,,,,,,,,,,,,,,,,53,,,,,,,,,,,,,,1081.2460000476858,,response,,,,99,,,,,,,Space,keypress(Space),,,,,,,,---- -- ----- -- ------ - ------- --- ----------<br>------------- ------ ------ ---- ---- ------- ----- -- ----<br>-------- ------- -- ---------- --- - --- ----- ----- ----<br>---- --- --- ----- --- ---- ---- ------- ----- ---- -------<br>--- --- -- ----- -- --- ---- -- --- ---- -- ------ ------<br>--- ----- -- all.,184334.20000004768,184333.70000004768,183219.61,183235.60000002384,183252.454,184353.794,,55,all.
Item 99,flow.Loop,2_1_0_1,2022-02-17T12:52:50.828Z,,,,,,,,,,,,,,,,,,,,,,,,,,,,,,,29343.276000047685,,completion,,,,,D,,,,,,,,,,,silence,,,,,184334.80000001192,184333.70000004768,154973.842,154974.40000003576,154990.424,184353.794,,,
Question 1,html.Screen,2_1_0_2,2022-02-17T12:52:54.610Z,,,,,,,,,,,,,,,,,,,,,,,,,,,,false,FALSE,,3762.3060000238474,,response,,,,99,D,,,,,,TRUE,click #choice-1,,,,silence,,,,,188116.70000004768,188116.10000002384,184318.992,184334.80000001192,184353.794,188120.38,,,
Question 2,html.Screen,2_1_0_3,2022-02-17T12:52:58.402Z,,,,,,,,,,,,,,,,,,,,,,,,,,,,true,TRUE,,3787.820000047679,,response,,,,99,D,,,,,,TRUE,click #choice-1,,,,silence,,,,,191908.90000003576,191908.20000004768,188101.767,188116.90000003576,188120.38,191917.713,,,
Item 99,flow.Sequence,2_1_0,2022-02-17T12:52:58.402Z,,,,,,,,,,,,,,,,,,,,,,,,,,,,,,,46916.12600004769,,completion,,,,,,,,,,,,,,,,,,,,,191909,191908.20000004768,144975.489,144984.10000002384,144992.074,191917.713,,,
Holding screen,html.Screen,2_1_1_0,2022-02-17T12:53:08.393Z,,,,,,,,,,,,,,,,,,,,,,,,,,,,,,,9998.52800000002,,timeout,,,,,,,,,,,,,,,,,,,,,201900,201899.523,191901.131,191909.10000002384,191917.713,201916.241,,,
screen,html.Screen,2_1_1_1_0,2022-02-17T12:53:11.761Z,,,,,,,,,,,,,,,,,54,,,,,,,,,,,,,,3350.9590000476746,,response,,,,100,,,,,,,Space,keypress(Space),,,,,,,,At --- ---- --- ------ ----- ------- ---- -- --- ------- --<br>------- ---------- ------ -- ----- -- ----- -- ---- ------<br>--- ----- --- --- ------ -------- ----- --- ------ ----- --<br>----- ----- ---------- --- --- ------ ------ ---- -- ------<br>------- --- ------ ----- --- ---- ------- -- ---- --- --<br>------- ------,205267.60000002384,205267.20000004768,201899.523,201900.10000002384,201916.241,205282.341,,0,At
screen,html.Screen,2_1_1_1_1,2022-02-17T12:53:12.284Z,,,,,,,,,,,,,,,,,54,,,,,,,,,,,,,,508.45900001193513,,response,,,,100,,,,,,,Space,keypress(Space),,,,,,,,-- the ---- --- ------ ----- ------- ---- -- --- ------- --<br>------- ---------- ------ -- ----- -- ----- -- ---- ------<br>--- ----- --- --- ------ -------- ----- --- ------ ----- --<br>----- ----- ---------- --- --- ------ ------ ---- -- ------<br>------- --- ------ ----- --- ---- ------- -- ---- --- --<br>------- ------,205791.20000004768,205790.80000001192,205265.911,205267.70000004768,205282.341,205798.835,,1,the
screen,html.Screen,2_1_1_1_2,2022-02-17T12:53:12.920Z,,,,,,,,,,,,,,,,,54,,,,,,,,,,,,,,627.8650000476919,,response,,,,100,,,,,,,Space,keypress(Space),,,,,,,,-- --- time --- ------ ----- ------- ---- -- --- ------- --<br>------- ---------- ------ -- ----- -- ----- -- ---- ------<br>--- ----- --- --- ------ -------- ----- --- ------ ----- --<br>----- ----- ---------- --- --- ------ ------ ---- -- ------<br>------- --- ------ ----- --- ---- ------- -- ---- --- --<br>------- ------,206427.10000002384,206426.70000004768,205782.281,205791.20000004768,205798.835,206432.039,,2,time
screen,html.Screen,2_1_1_1_3,2022-02-17T12:53:13.524Z,,,,,,,,,,,,,,,,,54,,,,,,,,,,,,,,598.661000047694,,response,,,,100,,,,,,,Space,keypress(Space),,,,,,,,-- --- ---- the ------ ----- ------- ---- -- --- ------- --<br>------- ---------- ------ -- ----- -- ----- -- ---- ------<br>--- ----- --- --- ------ -------- ----- --- ------ ----- --<br>----- ----- ---------- --- --- ------ ------ ---- -- ------<br>------- --- ------ ----- --- ---- ------- -- ---- --- --<br>------- ------,207031.10000002384,207030.70000004768,206415.523,206427.20000004768,206432.039,207052.004,,3,the
screen,html.Screen,2_1_1_1_4,2022-02-17T12:53:14.024Z,,,,,,,,,,,,,,,,,54,,,,,,,,,,,,,,478.19600004769745,,response,,,,100,,,,,,,Space,keypress(Space),,,,,,,,-- --- ---- --- French ----- ------- ---- -- --- ------- --<br>------- ---------- ------ -- ----- -- ----- -- ---- ------<br>--- ----- --- --- ------ -------- ----- --- ------ ----- --<br>----- ----- ---------- --- --- ------ ------ ---- -- ------<br>------- --- ------ ----- --- ---- ------- -- ---- --- --<br>------- ------,207530.60000002384,207530.20000004768,207015.264,207031.10000002384,207052.004,207563.457,,4,French
screen,html.Screen,2_1_1_1_5,2022-02-17T12:53:14.525Z,,,,,,,,,,,,,,,,,54,,,,,,,,,,,,,,468.643000023847,,response,,,,100,,,,,,,Space,keypress(Space),,,,,,,,-- --- ---- --- ------ crown ------- ---- -- --- ------- --<br>------- ---------- ------ -- ----- -- ----- -- ---- ------<br>--- ----- --- --- ------ -------- ----- --- ------ ----- --<br>----- ----- ---------- --- --- ------ ------ ---- -- ------<br>------- --- ------ ----- --- ---- ------- -- ---- --- --<br>------- ------,208032.40000003576,208032.10000002384,207515.218,207530.70000004768,207563.457,208048.558,,5,crown
screen,html.Screen,2_1_1_1_6,2022-02-17T12:53:14.999Z,,,,,,,,,,,,,,,,,54,,,,,,,,,,,,,,457.24200001193094,,response,,,,100,,,,,,,Space,keypress(Space),,,,,,,,-- --- ---- --- ------ ----- secured ---- -- --- ------- --<br>------- ---------- ------ -- ----- -- ----- -- ---- ------<br>--- ----- --- --- ------ -------- ----- --- ------ ----- --<br>----- ----- ---------- --- --- ------ ------ ---- -- ------<br>------- --- ------ ----- --- ---- ------- -- ---- --- --<br>------- ------,208506.20000004768,208505.80000001192,208031.82,208032.60000002384,208048.558,208515.059,,6,secured
screen,html.Screen,2_1_1_1_7,2022-02-17T12:53:15.619Z,,,,,,,,,,,,,,,,,54,,,,,,,,,,,,,,610.9409999999916,,response,,,,100,,,,,,,Space,keypress(Space),,,,,,,,-- --- ---- --- ------ ----- ------- much -- --- ------- --<br>------- ---------- ------ -- ----- -- ----- -- ---- ------<br>--- ----- --- --- ------ -------- ----- --- ------ ----- --<br>----- ----- ---------- --- --- ------ ------ ---- -- ------<br>------- --- ------ ----- --- ---- ------- -- ---- --- --<br>------- ------,209126.30000001192,209126,208498.483,208506.30000001192,208515.059,209131.615,,7,much
screen,html.Screen,2_1_1_1_8,2022-02-17T12:53:16.942Z,,,,,,,,,,,,,,,,,54,,,,,,,,,,,,,,1316.785000035772,,response,,,,100,,,,,,,Space,keypress(Space),,,,,,,,-- --- ---- --- ------ ----- ------- ---- of --- ------- --<br>------- ---------- ------ -- ----- -- ----- -- ---- ------<br>--- ----- --- --- ------ -------- ----- --- ------ ----- --<br>----- ----- ---------- --- --- ------ ------ ---- -- ------<br>------- --- ------ ----- --- ---- ------- -- ---- --- --<br>------- ------,210448.90000003576,210448.40000003576,209115.057,209126.5,209131.615,210464.799,,8,of
screen,html.Screen,2_1_1_1_9,2022-02-17T12:53:17.384Z,,,,,,,,,,,,,,,,,54,,,,,,,,,,,,,,425.3010000238428,,response,,,,100,,,,,,,Space,keypress(Space),,,,,,,,-- --- ---- --- ------ ----- ------- ---- -- its ------- --<br>------- ---------- ------ -- ----- -- ----- -- ---- ------<br>--- ----- --- --- ------ -------- ----- --- ------ ----- --<br>----- ----- ---------- --- --- ------ ------ ---- -- ------<br>------- --- ------ ----- --- ---- ------- -- ---- --- --<br>------- ------,210890.60000002384,210890.10000002384,210448.236,210448.90000003576,210464.799,210898.003,,9,its
screen,html.Screen,2_1_1_1_10,2022-02-17T12:53:17.974Z,,,,,,,,,,,,,,,,,54,,,,,,,,,,,,,,582.6970000476867,,response,,,,100,,,,,,,Space,keypress(Space),,,,,,,,-- --- ---- --- ------ ----- ------- ---- -- --- revenue --<br>------- ---------- ------ -- ----- -- ----- -- ---- ------<br>--- ----- --- --- ------ -------- ----- --- ------ ----- --<br>----- ----- ---------- --- --- ------ ------ ---- -- ------<br>------- --- ------ ----- --- ---- ------- -- ---- --- --<br>------- ------,211481.20000004768,211480.70000004768,210881.434,210890.60000002384,210898.003,211497.88,,10,revenue
screen,html.Screen,2_1_1_1_11,2022-02-17T12:53:18.582Z,,,,,,,,,,,,,,,,,54,,,,,,,,,,,,,,590.9200000119163,,response,,,,100,,,,,,,Space,keypress(Space),,,,,,,,-- --- ---- --- ------ ----- ------- ---- -- --- ------- by<br>------- ---------- ------ -- ----- -- ----- -- ---- ------<br>--- ----- --- --- ------ -------- ----- --- ------ ----- --<br>----- ----- ---------- --- --- ------ ------ ---- -- ------<br>------- --- ------ ----- --- ---- ------- -- ---- --- --<br>------- ------,212089.20000004768,212088.80000001192,211481.286,211481.40000003576,211497.88,212097.823,,11,by
screen,html.Screen,2_1_1_1_12,2022-02-17T12:53:19.125Z,,,,,,,,,,,,,,,,,54,,,,,,,,,,,,,,533.3770000476798,,response,,,,100,,,,,,,Space,keypress(Space),,,,,,,,-- --- ---- --- ------ ----- ------- ---- -- --- ------- --<br>issuing ---------- ------ -- ----- -- ----- -- ---- ------<br>--- ----- --- --- ------ -------- ----- --- ------ ----- --<br>----- ----- ---------- --- --- ------ ------ ---- -- ------<br>------- --- ------ ----- --- ---- ------- -- ---- --- --<br>------- ------,212631.5,212631.20000004768,212081.271,212089.20000004768,212097.823,212647.812,,12,issuing
screen,html.Screen,2_1_1_1_13,2022-02-17T12:53:19.731Z,,,,,,,,,,,,,,,,,54,,,,,,,,,,,,,,590.1879999999946,,response,,,,100,,,,,,,Space,keypress(Space),,,,,,,,-- --- ---- --- ------ ----- ------- ---- -- --- ------- --<br>------- government ------ -- ----- -- ----- -- ---- ------<br>--- ----- --- --- ------ -------- ----- --- ------ ----- --<br>----- ----- ---------- --- --- ------ ------ ---- -- ------<br>------- --- ------ ----- --- ---- ------- -- ---- --- --<br>------- ------,213238.40000003576,213238,212631.141,212631.60000002384,212647.812,213247.607,,13,government
screen,html.Screen,2_1_1_1_14,2022-02-17T12:53:20.766Z,,,,,,,,,,,,,,,,,54,,,,,,,,,,,,,,1024.7930000357737,,response,,,,100,,,,,,,Space,keypress(Space),,,,,,,,-- --- ---- --- ------ ----- ------- ---- -- --- ------- --<br>------- ---------- bonds. -- ----- -- ----- -- ---- ------<br>--- ----- --- --- ------ -------- ----- --- ------ ----- --<br>----- ----- ---------- --- --- ------ ------ ---- -- ------<br>------- --- ------ ----- --- ---- ------- -- ---- --- --<br>------- ------,214272.80000001192,214272.40000003576,213231.04,213238.40000003576,213247.607,214280.766,,14,bonds.
screen,html.Screen,2_1_1_1_15,2022-02-17T12:53:21.305Z,,,,,,,,,,,,,,,,,54,,,,,,,,,,,,,,530.6340000357595,,response,,,,100,,,,,,,Space,keypress(Space),,,,,,,,-- --- ---- --- ------ ----- ------- ---- -- --- ------- --<br>------- ---------- ------ In ----- -- ----- -- ---- ------<br>--- ----- --- --- ------ -------- ----- --- ------ ----- --<br>----- ----- ---------- --- --- ------ ------ ---- -- ------<br>------- --- ------ ----- --- ---- ------- -- ---- --- --<br>------- ------,214811.80000001192,214811.40000003576,214264.241,214273,214280.766,214813.97,,15,In
screen,html.Screen,2_1_1_1_16,2022-02-17T12:53:21.982Z,,,,,,,,,,,,,,,,,54,,,,,,,,,,,,,,675.0299999999988,,response,,,,100,,,,,,,Space,keypress(Space),,,,,,,,"-- --- ---- --- ------ ----- ------- ---- -- --- ------- --<br>------- ---------- ------ -- 1727, -- ----- -- ---- ------<br>--- ----- --- --- ------ -------- ----- --- ------ ----- --<br>----- ----- ---------- --- --- ------ ------ ---- -- ------<br>------- --- ------ ----- --- ---- ------- -- ---- --- --<br>------- ------",215489.5,215489,214797.375,214811.90000003576,214813.97,215497.22,,16,"1727,"
screen,html.Screen,2_1_1_1_17,2022-02-17T12:53:22.396Z,,,,,,,,,,,,,,,,,54,,,,,,,,,,,,,,405.27999999999884,,response,,,,100,,,,,,,Space,keypress(Space),,,,,,,,-- --- ---- --- ------ ----- ------- ---- -- --- ------- --<br>------- ---------- ------ -- ----- in ----- -- ---- ------<br>--- ----- --- --- ------ -------- ----- --- ------ ----- --<br>----- ----- ---------- --- --- ------ ------ ---- -- ------<br>------- --- ------ ----- --- ---- ------- -- ---- --- --<br>------- ------,215902.90000003576,215902.5,215480.626,215489.5,215497.22,215913.934,,17,in
screen,html.Screen,2_1_1_1_18,2022-02-17T12:53:22.699Z,,,,,,,,,,,,,,,,,54,,,,,,,,,,,,,,291.5659999999916,,response,,,,100,,,,,,,Space,keypress(Space),,,,,,,,-- --- ---- --- ------ ----- ------- ---- -- --- ------- --<br>------- ---------- ------ -- ----- -- order -- ---- ------<br>--- ----- --- --- ------ -------- ----- --- ------ ----- --<br>----- ----- ---------- --- --- ------ ------ ---- -- ------<br>------- --- ------ ----- --- ---- ------- -- ---- --- --<br>------- ------,216205.90000003576,216205.5,215897.252,215903,215913.934,216213.882,,18,order
screen,html.Screen,2_1_1_1_19,2022-02-17T12:53:23.228Z,,,,,,,,,,,,,,,,,54,,,,,,,,,,,,,,520.4180000119086,,response,,,,100,,,,,,,Space,keypress(Space),,,,,,,,-- --- ---- --- ------ ----- ------- ---- -- --- ------- --<br>------- ---------- ------ -- ----- -- ----- to ---- ------<br>--- ----- --- --- ------ -------- ----- --- ------ ----- --<br>----- ----- ---------- --- --- ------ ------ ---- -- ------<br>------- --- ------ ----- --- ---- ------- -- ---- --- --<br>------- ------,216734.70000004768,216734.30000001192,216197.215,216206,216213.882,216747.148,,19,to
screen,html.Screen,2_1_1_1_20,2022-02-17T12:53:23.720Z,,,,,,,,,,,,,,,,,54,,,,,,,,,,,,,,479.2520000357763,,response,,,,100,,,,,,,Space,keypress(Space),,,,,,,,-- --- ---- --- ------ ----- ------- ---- -- --- ------- --<br>------- ---------- ------ -- ----- -- ----- -- save ------<br>--- ----- --- --- ------ -------- ----- --- ------ ----- --<br>----- ----- ---------- --- --- ------ ------ ---- -- ------<br>------- --- ------ ----- --- ---- ------- -- ---- --- --<br>------- ------,217226.80000001192,217226.40000003576,216730.472,216734.80000001192,216747.148,217230.281,,20,save
screen,html.Screen,2_1_1_1_21,2022-02-17T12:53:24.446Z,,,,,,,,,,,,,,,,,54,,,,,,,,,,,,,,722.2190000000119,,response,,,,100,,,,,,,Space,keypress(Space),,,,,,,,"-- --- ---- --- ------ ----- ------- ---- -- --- ------- --<br>------- ---------- ------ -- ----- -- ----- -- ---- money,<br>--- ----- --- --- ------ -------- ----- --- ------ ----- --<br>----- ----- ---------- --- --- ------ ------ ---- -- ------<br>------- --- ------ ----- --- ---- ------- -- ---- --- --<br>------- ------",217952.90000003576,217952.5,217213.74,217226.80000001192,217230.281,217963.502,,21,"money,"
screen,html.Screen,2_1_1_1_22,2022-02-17T12:53:25.706Z,,,,,,,,,,,,,,,,,54,,,,,,,,,,,,,,1248.898000035755,,response,,,,100,,,,,,,Space,keypress(Space),,,,,,,,-- --- ---- --- ------ ----- ------- ---- -- --- ------- --<br>------- ---------- ------ -- ----- -- ----- -- ---- ------<br>the ----- --- --- ------ -------- ----- --- ------ ----- --<br>----- ----- ---------- --- --- ------ ------ ---- -- ------<br>------- --- ------ ----- --- ---- ------- -- ---- --- --<br>------- ------,219212.70000004768,219212.40000003576,217946.983,217952.90000003576,217963.502,219240.312,,22,the
screen,html.Screen,2_1_1_1_23,2022-02-17T12:53:26.609Z,,,,,,,,,,,,,,,,,54,,,,,,,,,,,,,,875.2880000238365,,response,,,,100,,,,,,,Space,keypress(Space),,,,,,,,-- --- ---- --- ------ ----- ------- ---- -- --- ------- --<br>------- ---------- ------ -- ----- -- ----- -- ---- ------<br>--- state --- --- ------ -------- ----- --- ------ ----- --<br>----- ----- ---------- --- --- ------ ------ ---- -- ------<br>------- --- ------ ----- --- ---- ------- -- ---- --- --<br>------- ------,220116,220115.60000002384,219196.661,219212.80000001192,219240.312,220129.823,,23,state
screen,html.Screen,2_1_1_1_24,2022-02-17T12:53:27.263Z,,,,,,,,,,,,,,,,,54,,,,,,,,,,,,,,639.8770000476798,,response,,,,100,,,,,,,Space,keypress(Space),,,,,,,,-- --- ---- --- ------ ----- ------- ---- -- --- ------- --<br>------- ---------- ------ -- ----- -- ----- -- ---- ------<br>--- ----- cut --- ------ -------- ----- --- ------ ----- --<br>----- ----- ---------- --- --- ------ ------ ---- -- ------<br>------- --- ------ ----- --- ---- ------- -- ---- --- --<br>------- ------,220770.10000002384,220769.70000004768,220113.246,220116,220129.823,220779.827,,24,cut
screen,html.Screen,2_1_1_1_25,2022-02-17T12:53:28.013Z,,,,,,,,,,,,,,,,,54,,,,,,,,,,,,,,739.8730000476935,,response,,,,100,,,,,,,Space,keypress(Space),,,,,,,,-- --- ---- --- ------ ----- ------- ---- -- --- ------- --<br>------- ---------- ------ -- ----- -- ----- -- ---- ------<br>--- ----- --- the ------ -------- ----- --- ------ ----- --<br>----- ----- ---------- --- --- ------ ------ ---- -- ------<br>------- --- ------ ----- --- ---- ------- -- ---- --- --<br>------- ------,221520.20000004768,221519.70000004768,220763.071,220770.20000004768,220779.827,221529.658,,25,the
screen,html.Screen,2_1_1_1_26,2022-02-17T12:53:28.533Z,,,,,,,,,,,,,,,,,54,,,,,,,,,,,,,,509.6420000119251,,response,,,,100,,,,,,,Space,keypress(Space),,,,,,,,-- --- ---- --- ------ ----- ------- ---- -- --- ------- --<br>------- ---------- ------ -- ----- -- ----- -- ---- ------<br>--- ----- --- --- bonds' -------- ----- --- ------ ----- --<br>----- ----- ---------- --- --- ------ ------ ---- -- ------<br>------- --- ------ ----- --- ---- ------- -- ---- --- --<br>------- ------,222039.60000002384,222039.30000001192,221513.027,221520.20000004768,221529.658,222046.155,,26,bonds'
screen,html.Screen,2_1_1_1_27,2022-02-17T12:53:29.058Z,,,,,,,,,,,,,,,,,54,,,,,,,,,,,,,,518.0450000476849,,response,,,,100,,,,,,,Space,keypress(Space),,,,,,,,-- --- ---- --- ------ ----- ------- ---- -- --- ------- --<br>------- ---------- ------ -- ----- -- ----- -- ---- ------<br>--- ----- --- --- ------ interest ----- --- ------ ----- --<br>----- ----- ---------- --- --- ------ ------ ---- -- ------<br>------- --- ------ ----- --- ---- ------- -- ---- --- --<br>------- ------,222564.5,222564.20000004768,222029.626,222039.70000004768,222046.155,222579.402,,27,interest
screen,html.Screen,2_1_1_1_28,2022-02-17T12:53:29.443Z,,,,,,,,,,,,,,,,,54,,,,,,,,,,,,,,369.4980000357609,,response,,,,100,,,,,,,Space,keypress(Space),,,,,,,,-- --- ---- --- ------ ----- ------- ---- -- --- ------- --<br>------- ---------- ------ -- ----- -- ----- -- ---- ------<br>--- ----- --- --- ------ -------- rate. --- ------ ----- --<br>----- ----- ---------- --- --- ------ ------ ---- -- ------<br>------- --- ------ ----- --- ---- ------- -- ---- --- --<br>------- ------,222949.5,222948.90000003576,222562.788,222564.60000002384,222579.402,222962.714,,28,rate.
screen,html.Screen,2_1_1_1_29,2022-02-17T12:53:29.813Z,,,,,,,,,,,,,,,,,54,,,,,,,,,,,,,,356.9860000476765,,response,,,,100,,,,,,,Space,keypress(Space),,,,,,,,-- --- ---- --- ------ ----- ------- ---- -- --- ------- --<br>------- ---------- ------ -- ----- -- ----- -- ---- ------<br>--- ----- --- --- ------ -------- ----- The ------ ----- --<br>----- ----- ---------- --- --- ------ ------ ---- -- ------<br>------- --- ------ ----- --- ---- ------- -- ---- --- --<br>------- ------,223320.20000004768,223319.70000004768,222946.116,222949.60000002384,222962.714,223329.262,,29,The
screen,html.Screen,2_1_1_1_30,2022-02-17T12:53:30.231Z,,,,,,,,,,,,,,,,,54,,,,,,,,,,,,,,408.6380000357749,,response,,,,100,,,,,,,Space,keypress(Space),,,,,,,,-- --- ---- --- ------ ----- ------- ---- -- --- ------- --<br>------- ---------- ------ -- ----- -- ----- -- ---- ------<br>--- ----- --- --- ------ -------- ----- --- market ----- --<br>----- ----- ---------- --- --- ------ ------ ---- -- ------<br>------- --- ------ ----- --- ---- ------- -- ---- --- --<br>------- ------,223738.30000001192,223737.90000003576,223312.718,223320.30000001192,223329.262,223745.913,,30,market
screen,html.Screen,2_1_1_1_31,2022-02-17T12:53:30.643Z,,,,,,,,,,,,,,,,,54,,,,,,,,,,,,,,404.08699999999953,,response,,,,100,,,,,,,Space,keypress(Space),,,,,,,,-- --- ---- --- ------ ----- ------- ---- -- --- ------- --<br>------- ---------- ------ -- ----- -- ----- -- ---- ------<br>--- ----- --- --- ------ -------- ----- --- ------ value --<br>----- ----- ---------- --- --- ------ ------ ---- -- ------<br>------- --- ------ ----- --- ---- ------- -- ---- --- --<br>------- ------,224150.30000001192,224150,223729.324,223738.40000003576,223745.913,224162.566,,31,value
screen,html.Screen,2_1_1_1_32,2022-02-17T12:53:31.083Z,,,,,,,,,,,,,,,,,54,,,,,,,,,,,,,,427.4340000000084,,response,,,,100,,,,,,,Space,keypress(Space),,,,,,,,-- --- ---- --- ------ ----- ------- ---- -- --- ------- --<br>------- ---------- ------ -- ----- -- ----- -- ---- ------<br>--- ----- --- --- ------ -------- ----- --- ------ ----- of<br>----- ----- ---------- --- --- ------ ------ ---- -- ------<br>------- --- ------ ----- --- ---- ------- -- ---- --- --<br>------- ------,224590.30000001192,224590,224145.921,224150.40000003576,224162.566,224595.759,,32,of
screen,html.Screen,2_1_1_1_33,2022-02-17T12:53:31.543Z,,,,,,,,,,,,,,,,,54,,,,,,,,,,,,,,454.04100001193,,response,,,,100,,,,,,,Space,keypress(Space),,,,,,,,-- --- ---- --- ------ ----- ------- ---- -- --- ------- --<br>------- ---------- ------ -- ----- -- ----- -- ---- ------<br>--- ----- --- --- ------ -------- ----- --- ------ ----- --<br>these ----- ---------- --- --- ------ ------ ---- -- ------<br>------- --- ------ ----- --- ---- ------- -- ---- --- --<br>------- ------,225050.20000004768,225049.80000001192,224579.189,224590.40000003576,224595.759,225062.432,,33,these
screen,html.Screen,2_1_1_1_34,2022-02-17T12:53:32.192Z,,,,,,,,,,,,,,,,,54,,,,,,,,,,,,,,636.0679999999993,,response,,,,100,,,,,,,Space,keypress(Space),,,,,,,,-- --- ---- --- ------ ----- ------- ---- -- --- ------- --<br>------- ---------- ------ -- ----- -- ----- -- ---- ------<br>--- ----- --- --- ------ -------- ----- --- ------ ----- --<br>----- bonds ---------- --- --- ------ ------ ---- -- ------<br>------- --- ------ ----- --- ---- ------- -- ---- --- --<br>------- ------,225698.90000003576,225698.5,225045.675,225050.20000004768,225062.432,225712.246,,34,bonds
screen,html.Screen,2_1_1_1_35,2022-02-17T12:53:32.862Z,,,,,,,,,,,,,,,,,54,,,,,,,,,,,,,,655.7539999999863,,response,,,,100,,,,,,,Space,keypress(Space),,,,,,,,"-- --- ---- --- ------ ----- ------- ---- -- --- ------- --<br>------- ---------- ------ -- ----- -- ----- -- ---- ------<br>--- ----- --- --- ------ -------- ----- --- ------ ----- --<br>----- ----- plummeted, --- --- ------ ------ ---- -- ------<br>------- --- ------ ----- --- ---- ------- -- ---- --- --<br>------- ------",226368.5,226368,225695.645,225699,225712.246,226378.897,,35,"plummeted,"
screen,html.Screen,2_1_1_1_36,2022-02-17T12:53:33.411Z,,,,,,,,,,,,,,,,,54,,,,,,,,,,,,,,539.1030000000028,,response,,,,100,,,,,,,Space,keypress(Space),,,,,,,,-- --- ---- --- ------ ----- ------- ---- -- --- ------- --<br>------- ---------- ------ -- ----- -- ----- -- ---- ------<br>--- ----- --- --- ------ -------- ----- --- ------ ----- --<br>----- ----- ---------- and --- ------ ------ ---- -- ------<br>------- --- ------ ----- --- ---- ------- -- ---- --- --<br>------- ------,226918.30000001192,226918,226362.26,226368.60000002384,226378.897,226928.722,,36,and
screen,html.Screen,2_1_1_1_37,2022-02-17T12:53:34.016Z,,,,,,,,,,,,,,,,,54,,,,,,,,,,,,,,593.4780000476749,,response,,,,100,,,,,,,Space,keypress(Space),,,,,,,,-- --- ---- --- ------ ----- ------- ---- -- --- ------- --<br>------- ---------- ------ -- ----- -- ----- -- ---- ------<br>--- ----- --- --- ------ -------- ----- --- ------ ----- --<br>----- ----- ---------- --- the ------ ------ ---- -- ------<br>------- --- ------ ----- --- ---- ------- -- ---- --- --<br>------- ------,227522.60000002384,227522.20000004768,226912.042,226918.30000001192,226928.722,227528.595,,37,the
screen,html.Screen,2_1_1_1_38,2022-02-17T12:53:34.577Z,,,,,,,,,,,,,,,,,54,,,,,,,,,,,,,,554.5050000238407,,response,,,,100,,,,,,,Space,keypress(Space),,,,,,,,-- --- ---- --- ------ ----- ------- ---- -- --- ------- --<br>------- ---------- ------ -- ----- -- ----- -- ---- ------<br>--- ----- --- --- ------ -------- ----- --- ------ ----- --<br>----- ----- ---------- --- --- market ------ ---- -- ------<br>------- --- ------ ----- --- ---- ------- -- ---- --- --<br>------- ------,228083.5,228083.10000002384,227512.069,227522.70000004768,227528.595,228095.289,,38,market
screen,html.Screen,2_1_1_1_39,2022-02-17T12:53:35.236Z,,,,,,,,,,,,,,,,,54,,,,,,,,,,,,,,646.911000047694,,response,,,,100,,,,,,,Space,keypress(Space),,,,,,,,-- --- ---- --- ------ ----- ------- ---- -- --- ------- --<br>------- ---------- ------ -- ----- -- ----- -- ---- ------<br>--- ----- --- --- ------ -------- ----- --- ------ ----- --<br>----- ----- ---------- --- --- ------ became ---- -- ------<br>------- --- ------ ----- --- ---- ------- -- ---- --- --<br>------- ------,228742.60000002384,228742.20000004768,228078.621,228083.60000002384,228095.289,228745.193,,39,became
screen,html.Screen,2_1_1_1_40,2022-02-17T12:53:35.978Z,,,,,,,,,,,,,,,,,54,,,,,,,,,,,,,,739.4070000238426,,response,,,,100,,,,,,,Space,keypress(Space),,,,,,,,-- --- ---- --- ------ ----- ------- ---- -- --- ------- --<br>------- ---------- ------ -- ----- -- ----- -- ---- ------<br>--- ----- --- --- ------ -------- ----- --- ------ ----- --<br>----- ----- ---------- --- --- ------ ------ wary -- ------<br>------- --- ------ ----- --- ---- ------- -- ---- --- --<br>------- ------,229485,229484.60000002384,228728.457,228742.70000004768,228745.193,229495.053,,40,wary
screen,html.Screen,2_1_1_1_41,2022-02-17T12:53:36.475Z,,,,,,,,,,,,,,,,,54,,,,,,,,,,,,,,486.94699999998556,,response,,,,100,,,,,,,Space,keypress(Space),,,,,,,,-- --- ---- --- ------ ----- ------- ---- -- --- ------- --<br>------- ---------- ------ -- ----- -- ----- -- ---- ------<br>--- ----- --- --- ------ -------- ----- --- ------ ----- --<br>----- ----- ---------- --- --- ------ ------ ---- of ------<br>------- --- ------ ----- --- ---- ------- -- ---- --- --<br>------- ------,229982.40000003576,229982,229478.308,229485,229495.053,229994.951,,41,of
screen,html.Screen,2_1_1_1_42,2022-02-17T12:53:37.094Z,,,,,,,,,,,,,,,,,54,,,,,,,,,,,,,,605.5489999999991,,response,,,,100,,,,,,,Space,keypress(Space),,,,,,,,-- --- ---- --- ------ ----- ------- ---- -- --- ------- --<br>------- ---------- ------ -- ----- -- ----- -- ---- ------<br>--- ----- --- --- ------ -------- ----- --- ------ ----- --<br>----- ----- ---------- --- --- ------ ------ ---- -- French<br>------- --- ------ ----- --- ---- ------- -- ---- --- --<br>------- ------,230600.90000003576,230600.5,229978.202,229982.5,229994.951,230611.482,,42,French
screen,html.Screen,2_1_1_1_43,2022-02-17T12:53:37.872Z,,,,,,,,,,,,,,,,,54,,,,,,,,,,,,,,767.5180000000109,,response,,,,100,,,,,,,Space,keypress(Space),,,,,,,,-- --- ---- --- ------ ----- ------- ---- -- --- ------- --<br>------- ---------- ------ -- ----- -- ----- -- ---- ------<br>--- ----- --- --- ------ -------- ----- --- ------ ----- --<br>----- ----- ---------- --- --- ------ ------ ---- -- ------<br>credit. --- ------ ----- --- ---- ------- -- ---- --- --<br>------- ------,231379.40000003576,231379,230594.872,230601,230611.482,231394.736,,43,credit.
screen,html.Screen,2_1_1_1_44,2022-02-17T12:53:38.302Z,,,,,,,,,,,,,,,,,54,,,,,,,,,,,,,,413.7639999999956,,response,,,,100,,,,,,,Space,keypress(Space),,,,,,,,-- --- ---- --- ------ ----- ------- ---- -- --- ------- --<br>------- ---------- ------ -- ----- -- ----- -- ---- ------<br>--- ----- --- --- ------ -------- ----- --- ------ ----- --<br>----- ----- ---------- --- --- ------ ------ ---- -- ------<br>------- The ------ ----- --- ---- ------- -- ---- --- --<br>------- ------,231808.90000003576,231808.5,231378.02,231379.40000003576,231394.736,231811.187,,44,The
screen,html.Screen,2_1_1_1_45,2022-02-17T12:53:39.196Z,,,,,,,,,,,,,,,,,54,,,,,,,,,,,,,,891.7130000357574,,response,,,,100,,,,,,,Space,keypress(Space),,,,,,,,-- --- ---- --- ------ ----- ------- ---- -- --- ------- --<br>------- ---------- ------ -- ----- -- ----- -- ---- ------<br>--- ----- --- --- ------ -------- ----- --- ------ ----- --<br>----- ----- ---------- --- --- ------ ------ ---- -- ------<br>------- --- French ----- --- ---- ------- -- ---- --- --<br>------- ------,232703.30000001192,232702.90000003576,231794.662,231809,231811.187,232711.032,,45,French
screen,html.Screen,2_1_1_1_46,2022-02-17T12:53:39.839Z,,,,,,,,,,,,,,,,,54,,,,,,,,,,,,,,634.1680000476772,,response,,,,100,,,,,,,Space,keypress(Space),,,,,,,,-- --- ---- --- ------ ----- ------- ---- -- --- ------- --<br>------- ---------- ------ -- ----- -- ----- -- ---- ------<br>--- ----- --- --- ------ -------- ----- --- ------ ----- --<br>----- ----- ---------- --- --- ------ ------ ---- -- ------<br>------- --- ------ state --- ---- ------- -- ---- --- --<br>------- ------,233345.5,233345.20000004768,232694.55,232703.40000003576,232711.032,233362.654,,46,state
screen,html.Screen,2_1_1_1_47,2022-02-17T12:53:40.401Z,,,,,,,,,,,,,,,,,54,,,,,,,,,,,,,,544.8459999999905,,response,,,,100,,,,,,,Space,keypress(Space),,,,,,,,-- --- ---- --- ------ ----- ------- ---- -- --- ------- --<br>------- ---------- ------ -- ----- -- ----- -- ---- ------<br>--- ----- --- --- ------ -------- ----- --- ------ ----- --<br>----- ----- ---------- --- --- ------ ------ ---- -- ------<br>------- --- ------ ----- was ---- ------- -- ---- --- --<br>------- ------,233907.90000003576,233907.5,233344.413,233345.60000002384,233362.654,233910.811,,47,was
screen,html.Screen,2_1_1_1_48,2022-02-17T12:53:41.066Z,,,,,,,,,,,,,,,,,54,,,,,,,,,,,,,,661.489000011934,,response,,,,100,,,,,,,Space,keypress(Space),,,,,,,,-- --- ---- --- ------ ----- ------- ---- -- --- ------- --<br>------- ---------- ------ -- ----- -- ----- -- ---- ------<br>--- ----- --- --- ------ -------- ----- --- ------ ----- --<br>----- ----- ---------- --- --- ------ ------ ---- -- ------<br>------- --- ------ ----- --- left ------- -- ---- --- --<br>------- ------,234572.70000004768,234572.30000001192,233894.327,233908,233910.811,234577.456,,48,left
screen,html.Screen,2_1_1_1_49,2022-02-17T12:53:41.739Z,,,,,,,,,,,,,,,,,54,,,,,,,,,,,,,,668.3440000119153,,response,,,,100,,,,,,,Space,keypress(Space),,,,,,,,-- --- ---- --- ------ ----- ------- ---- -- --- ------- --<br>------- ---------- ------ -- ----- -- ----- -- ---- ------<br>--- ----- --- --- ------ -------- ----- --- ------ ----- --<br>----- ----- ---------- --- --- ------ ------ ---- -- ------<br>------- --- ------ ----- --- ---- without -- ---- --- --<br>------- ------,235246.20000004768,235245.80000001192,234560.781,234572.70000004768,234577.456,235260.781,,49,without
screen,html.Screen,2_1_1_1_50,2022-02-17T12:53:42.353Z,,,,,,,,,,,,,,,,,54,,,,,,,,,,,,,,599.1190000357747,,response,,,,100,,,,,,,Space,keypress(Space),,,,,,,,-- --- ---- --- ------ ----- ------- ---- -- --- ------- --<br>------- ---------- ------ -- ----- -- ----- -- ---- ------<br>--- ----- --- --- ------ -------- ----- --- ------ ----- --<br>----- ----- ---------- --- --- ------ ------ ---- -- ------<br>------- --- ------ ----- --- ---- ------- an ---- --- --<br>------- ------,235860.20000004768,235859.90000003576,235244.018,235246.20000004768,235260.781,235877.197,,50,an
screen,html.Screen,2_1_1_1_51,2022-02-17T12:53:43.200Z,,,,,,,,,,,,,,,,,54,,,,,,,,,,,,,,829.6030000119354,,response,,,,100,,,,,,,Space,keypress(Space),,,,,,,,-- --- ---- --- ------ ----- ------- ---- -- --- ------- --<br>------- ---------- ------ -- ----- -- ----- -- ---- ------<br>--- ----- --- --- ------ -------- ----- --- ------ ----- --<br>----- ----- ---------- --- --- ------ ------ ---- -- ------<br>------- --- ------ ----- --- ---- ------- -- easy --- --<br>------- ------,236707.30000001192,236706.80000001192,235860.581,235860.30000001192,235877.197,236710.434,,51,easy
screen,html.Screen,2_1_1_1_52,2022-02-17T12:53:44.137Z,,,,,,,,,,,,,,,,,54,,,,,,,,,,,,,,933.6660000238335,,response,,,,100,,,,,,,Space,keypress(Space),,,,,,,,-- --- ---- --- ------ ----- ------- ---- -- --- ------- --<br>------- ---------- ------ -- ----- -- ----- -- ---- ------<br>--- ----- --- --- ------ -------- ----- --- ------ ----- --<br>----- ----- ---------- --- --- ------ ------ ---- -- ------<br>------- --- ------ ----- --- ---- ------- -- ---- way --<br>------- ------,237644.40000003576,237644.10000002384,236693.908,236707.30000001192,236710.434,237660.33,,52,way
screen,html.Screen,2_1_1_1_53,2022-02-17T12:53:44.540Z,,,,,,,,,,,,,,,,,54,,,,,,,,,,,,,,385.77000002385466,,response,,,,100,,,,,,,Space,keypress(Space),,,,,,,,-- --- ---- --- ------ ----- ------- ---- -- --- ------- --<br>------- ---------- ------ -- ----- -- ----- -- ---- ------<br>--- ----- --- --- ------ -------- ----- --- ------ ----- --<br>----- ----- ---------- --- --- ------ ------ ---- -- ------<br>------- --- ------ ----- --- ---- ------- -- ---- --- of<br>------- ------,238046.80000001192,238046.10000002384,237643.727,237644.5,237660.33,238060.3,,53,of
screen,html.Screen,2_1_1_1_54,2022-02-17T12:53:45.214Z,,,,,,,,,,,,,,,,,54,,,,,,,,,,,,,,660.1000000357744,,response,,,,100,,,,,,,Space,keypress(Space),,,,,,,,-- --- ---- --- ------ ----- ------- ---- -- --- ------- --<br>------- ---------- ------ -- ----- -- ----- -- ---- ------<br>--- ----- --- --- ------ -------- ----- --- ------ ----- --<br>----- ----- ---------- --- --- ------ ------ ---- -- ------<br>------- --- ------ ----- --- ---- ------- -- ---- --- --<br>raising ------,238720.80000001192,238720.40000003576,238043.679,238047,238060.3,238726.774,,54,raising
screen,html.Screen,2_1_1_1_55,2022-02-17T12:53:45.707Z,,,,,,,,,,,,,,,,,54,,,,,,,,,,,,,,486.6260000357579,,response,,,,100,,,,,,,Space,keypress(Space),,,,,,,,-- --- ---- --- ------ ----- ------- ---- -- --- ------- --<br>------- ---------- ------ -- ----- -- ----- -- ---- ------<br>--- ----- --- --- ------ -------- ----- --- ------ ----- --<br>----- ----- ---------- --- --- ------ ------ ---- -- ------<br>------- --- ------ ----- --- ---- ------- -- ---- --- --<br>------- money.,239213.90000003576,239213.40000003576,238710.16,238720.80000001192,238726.774,239226.735,,55,money.
Item 100,flow.Loop,2_1_1_1,2022-02-17T12:53:45.707Z,,,,,,,,,,,,,,,,,,,,,,,,,,,,,,,37297.159000035754,,completion,,,,,D,,,,,,,,,,,silence,,,,,239213.90000003576,239213.40000003576,201899.523,201900.10000002384,201916.241,239226.735,,,
Question 1,html.Screen,2_1_1_2,2022-02-17T12:53:48.238Z,,,,,,,,,,,,,,,,,,,,,,,,,,,,true,TRUE,,2517.1650000357768,,response,,,,100,D,,,,,,TRUE,click #choice-1,,,,silence,,,,,241744.5,241743.90000003576,239209.965,239214.10000002384,239226.735,241759.697,,,
Question 2,html.Screen,2_1_1_3,2022-02-17T12:53:50.362Z,,,,,,,,,,,,,,,,,,,,,,,,,,,,true,FALSE,,2108.503000047698,,response,,,,100,D,,,,,,FALSE,click #choice-2,,,,silence,,,,,243868.70000004768,243868.20000004768,241742.888,241744.60000002384,241759.697,243875.941,,,
Item 100,flow.Sequence,2_1_1,2022-02-17T12:53:50.362Z,,,,,,,,,,,,,,,,,,,,,,,,,,,,,,,51950.487000047695,,completion,,,,,,,,,,,,,,,,,,,,,243868.80000001192,243868.20000004768,191901.131,191909,191917.713,243875.941,,,
End of Practice,html.Page,2_1_2,2022-02-17T12:53:52.974Z,,,,,,,,,,,,,,,,,,,,,,,,,,,,,,,2605.1590000238502,,form submission,,,,,,,,,,,,,,,,,,,,,246481.30000001192,246481.10000002384,243859.211,243868.80000001192,243875.941,246492.192,,,
Practice,flow.Sequence,2_1,2022-02-17T12:53:52.975Z,,,,,,,,,,,,,,,,,,,,,,,,,,,,,,,101489.02600002385,,completion,,,,,,,,,,,,,,,,,,,,,246481.40000003576,246481.10000002384,144975.489,144984.10000002384,144992.074,246492.192,,,
Trap_instruction,html.Page,2_2_0,2022-02-17T12:53:57.382Z,,,,,,,,,,,,,,,,,,,,,,,,,,,,,,,4397.008000047674,,form submission,,,,,,,,,,,,,,,,,,,,,250889.30000001192,250889.20000004768,246475.502,246481.5,246492.192,250891.435,,,
trap_trial,html.Screen,2_2_1,2022-02-17T12:54:05.206Z,,,,,,,,,,,,,,,,,,,,,,,,,,,,true,1,,7820.465000035765,,response,,,,,,,,,,,1,click #choice-1,,,,,,,,,258712.5,258711.90000003576,250874.845,250889.40000003576,250891.435,258723.536,,,
end of trap trial,html.Page,2_2_2,2022-02-17T12:54:07.318Z,,,,,,,,,,,,,,,,,,,,,,,,,,,,,,,2101.36400003577,,form submission,,,,,,,,,,,,,,,,,,,,,260825.20000004768,260824.90000003576,258706.903,258712.5,258723.536,260839.807,,,
Trap 1,flow.Sequence,2_2,2022-02-17T12:54:07.318Z,,,,,,,,,,,,,,,,,,,,,,,,,,,,,,,14332.708000035753,,completion,,,,,,,,,,,,,,,,,,,,,260825.20000004768,260824.90000003576,246475.502,246481.5,246492.192,260839.807,,,
Standby,html.Page,2_3_0,2022-02-17T12:54:15.315Z,,,,,,,,,,,,,,,,,,,,,,,,,,,,,,,7998.844000000012,,timeout,,,,,,,,,,,,,,,,,,,,,268822.2000000477,268821.842,260823.178,260825.40000003576,260839.807,268838.651,,,
Holding screen,html.Screen,2_3_1_0_0,2022-02-17T12:54:22.314Z,,,,,,,,,,,,,,,,,,,,,,,,,,,,,,,6998.809999999998,,timeout,,,,,,,,,,,,,,,,,,,,,275821.2000000477,275820.671,268821.842,268822.40000003576,268838.651,275837.461,,,
screen,html.Screen,2_3_1_0_1_0,2022-02-17T12:54:23.608Z,,,,,,,,,,,,,,,,,2,,,,,,,,,,,,,,1277.1390000238316,,response,,,,1,D,,,,,,Space,keypress(Space),,,,silence,,,,Two ---- ------ --- ------- ---------- ------- ----------<br>--- --------- --- ----------- ------- ----- ------- ---<br>--------- ---- -- --- ---- -- --------- -- ---- -------<br>-- --------- ------ --- ----- ------ ---- --- --------- --<br>------ - ---- -- --- ----------- ------- ---- ----- -----<br>--- -------- - ------ ---- -- ----- ---- --- --- -----------<br>-- -------,277115,277114.60000002384,275820.671,275821.3000000119,275837.461,277120.45,,0,Two
screen,html.Screen,2_3_1_0_1_1,2022-02-17T12:54:24.049Z,,,,,,,,,,,,,,,,,2,,,,,,,,,,,,,,435.1500000238302,,response,,,,1,D,,,,,,Space,keypress(Space),,,,silence,,,,--- days ------ --- ------- ---------- ------- ----------<br>--- --------- --- ----------- ------- ----- ------- ---<br>--------- ---- -- --- ---- -- --------- -- ---- -------<br>-- --------- ------ --- ----- ------ ---- --- --------- --<br>------ - ---- -- --- ----------- ------- ---- ----- -----<br>--- -------- - ------ ---- -- ----- ---- --- --- -----------<br>-- -------,277555.90000003576,277555.60000002384,277104.035,277115.10000002384,277120.45,277570.473,,1,days
screen,html.Screen,2_3_1_0_1_2,2022-02-17T12:54:24.481Z,,,,,,,,,,,,,,,,,2,,,,,,,,,,,,,,416.6270000238437,,response,,,,1,D,,,,,,Space,keypress(Space),,,,silence,,,,"--- ---- later, --- ------- ---------- ------- ----------<br>--- --------- --- ----------- ------- ----- ------- ---<br>--------- ---- -- --- ---- -- --------- -- ---- -------<br>-- --------- ------ --- ----- ------ ---- --- --------- --<br>------ - ---- -- --- ----------- ------- ---- ----- -----<br>--- -------- - ------ ---- -- ----- ---- --- --- -----------<br>-- -------",277987.60000002384,277987.10000002384,277553.802,277556,277570.473,278003.716,,2,"later,"
screen,html.Screen,2_3_1_0_1_3,2022-02-17T12:54:24.993Z,,,,,,,,,,,,,,,,,2,,,,,,,,,,,,,,495.9840000476688,,response,,,,1,D,,,,,,Space,keypress(Space),,,,silence,,,,--- ---- ------ the ------- ---------- ------- ----------<br>--- --------- --- ----------- ------- ----- ------- ---<br>--------- ---- -- --- ---- -- --------- -- ---- -------<br>-- --------- ------ --- ----- ------ ---- --- --------- --<br>------ - ---- -- --- ----------- ------- ---- ----- -----<br>--- -------- - ------ ---- -- ----- ---- --- --- -----------<br>-- -------,278500.2000000477,278499.7000000477,277987.131,277987.60000002384,278003.716,278503.545,,3,the
screen,html.Screen,2_3_1_0_1_4,2022-02-17T12:54:25.406Z,,,,,,,,,,,,,,,,,2,,,,,,,,,,,,,,408.9550000000163,,response,,,,1,D,,,,,,Space,keypress(Space),,,,silence,,,,--- ---- ------ --- British ---------- ------- ----------<br>--- --------- --- ----------- ------- ----- ------- ---<br>--------- ---- -- --- ---- -- --------- -- ---- -------<br>-- --------- ------ --- ----- ------ ---- --- --------- --<br>------ - ---- -- --- ----------- ------- ---- ----- -----<br>--- -------- - ------ ---- -- ----- ---- --- --- -----------<br>-- -------,278912.90000003576,278912.5,278487.064,278500.2000000477,278503.545,278920.282,,4,British
screen,html.Screen,2_3_1_0_1_5,2022-02-17T12:54:25.881Z,,,,,,,,,,,,,,,,,2,,,,,,,,,,,,,,467.5180000119144,,response,,,,1,D,,,,,,Space,keypress(Space),,,,silence,,,,--- ---- ------ --- ------- astronomer ------- ----------<br>--- --------- --- ----------- ------- ----- ------- ---<br>--------- ---- -- --- ---- -- --------- -- ---- -------<br>-- --------- ------ --- ----- ------ ---- --- --------- --<br>------ - ---- -- --- ----------- ------- ---- ----- -----<br>--- -------- - ------ ---- -- ----- ---- --- --- -----------<br>-- -------,279388.2000000477,279387.8000000119,278903.645,278913,278920.282,279403.563,,5,astronomer
screen,html.Screen,2_3_1_0_1_6,2022-02-17T12:54:26.393Z,,,,,,,,,,,,,,,,,2,,,,,,,,,,,,,,495.7370000118972,,response,,,,1,D,,,,,,Space,keypress(Space),,,,silence,,,,--- ---- ------ --- ------- ---------- Richard ----------<br>--- --------- --- ----------- ------- ----- ------- ---<br>--------- ---- -- --- ---- -- --------- -- ---- -------<br>-- --------- ------ --- ----- ------ ---- --- --------- --<br>------ - ---- -- --- ----------- ------- ---- ----- -----<br>--- -------- - ------ ---- -- ----- ---- --- --- -----------<br>-- -------,279899.7000000477,279899.3000000119,279386.911,279388.3000000119,279403.563,279903.519,,6,Richard
screen,html.Screen,2_3_1_0_1_7,2022-02-17T12:54:26.945Z,,,,,,,,,,,,,,,,,2,,,,,,,,,,,,,,547.8810000357917,,response,,,,1,D,,,,,,Space,keypress(Space),,,,silence,,,,--- ---- ------ --- ------- ---------- ------- Carrington<br>--- --------- --- ----------- ------- ----- ------- ---<br>--------- ---- -- --- ---- -- --------- -- ---- -------<br>-- --------- ------ --- ----- ------ ---- --- --------- --<br>------ - ---- -- --- ----------- ------- ---- ----- -----<br>--- -------- - ------ ---- -- ----- ---- --- --- -----------<br>-- -------,280451.8000000119,280451.40000003576,279886.837,279899.8000000119,279903.519,280472.475,,7,Carrington
screen,html.Screen,2_3_1_0_1_8,2022-02-17T12:54:27.389Z,,,,,,,,,,,,,,,,,2,,,,,,,,,,,,,,422.92500003578607,,response,,,,1,D,,,,,,Space,keypress(Space),,,,silence,,,,--- ---- ------ --- ------- ---------- ------- ----------<br>was --------- --- ----------- ------- ----- ------- ---<br>--------- ---- -- --- ---- -- --------- -- ---- -------<br>-- --------- ------ --- ----- ------ ---- --- --------- --<br>------ - ---- -- --- ----------- ------- ---- ----- -----<br>--- -------- - ------ ---- -- ----- ---- --- --- -----------<br>-- -------,280895.8000000119,280895.40000003576,280436.689,280451.90000003576,280472.475,280903.243,,8,was
screen,html.Screen,2_3_1_0_1_9,2022-02-17T12:54:27.865Z,,,,,,,,,,,,,,,,,2,,,,,,,,,,,,,,468.55700001190417,,response,,,,1,D,,,,,,Space,keypress(Space),,,,silence,,,,--- ---- ------ --- ------- ---------- ------- ----------<br>--- observing --- ----------- ------- ----- ------- ---<br>--------- ---- -- --- ---- -- --------- -- ---- -------<br>-- --------- ------ --- ----- ------ ---- --- --------- --<br>------ - ---- -- --- ----------- ------- ---- ----- -----<br>--- -------- - ------ ---- -- ----- ---- --- --- -----------<br>-- -------,281372.2000000477,281371.8000000119,280886.548,280896,280903.243,281386.534,,9,observing
screen,html.Screen,2_3_1_0_1_10,2022-02-17T12:54:28.430Z,,,,,,,,,,,,,,,,,2,,,,,,,,,,,,,,549.6660000476986,,response,,,,1,D,,,,,,Space,keypress(Space),,,,silence,,,,--- ---- ------ --- ------- ---------- ------- ----------<br>--- --------- the ----------- ------- ----- ------- ---<br>--------- ---- -- --- ---- -- --------- -- ---- -------<br>-- --------- ------ --- ----- ------ ---- --- --------- --<br>------ - ---- -- --- ----------- ------- ---- ----- -----<br>--- -------- - ------ ---- -- ----- ---- --- --- -----------<br>-- -------,281936.7000000477,281936.2000000477,281369.811,281372.3000000119,281386.534,281953.148,,10,the
screen,html.Screen,2_3_1_0_1_11,2022-02-17T12:54:28.813Z,,,,,,,,,,,,,,,,,2,,,,,,,,,,,,,,366.8520000000135,,response,,,,1,D,,,,,,Space,keypress(Space),,,,silence,,,,--- ---- ------ --- ------- ---------- ------- ----------<br>--- --------- --- interesting ------- ----- ------- ---<br>--------- ---- -- --- ---- -- --------- -- ---- -------<br>-- --------- ------ --- ----- ------ ---- --- --------- --<br>------ - ---- -- --- ----------- ------- ---- ----- -----<br>--- -------- - ------ ---- -- ----- ---- --- --- -----------<br>-- -------,282320.40000003576,282320,281936.476,281936.7000000477,281953.148,282336.4,,11,interesting
screen,html.Screen,2_3_1_0_1_12,2022-02-17T12:54:29.284Z,,,,,,,,,,,,,,,,,2,,,,,,,,,,,,,,454.5999999999767,,response,,,,1,D,,,,,,Space,keypress(Space),,,,silence,,,,--- ---- ------ --- ------- ---------- ------- ----------<br>--- --------- --- ----------- sunspot ----- ------- ---<br>--------- ---- -- --- ---- -- --------- -- ---- -------<br>-- --------- ------ --- ----- ------ ---- --- --------- --<br>------ - ---- -- --- ----------- ------- ---- ----- -----<br>--- -------- - ------ ---- -- ----- ---- --- --- -----------<br>-- -------,282791.40000003576,282791,282319.758,282320.5,282336.4,282803.013,,12,sunspot
screen,html.Screen,2_3_1_0_1_13,2022-02-17T12:54:30.115Z,,,,,,,,,,,,,,,,,2,,,,,,,,,,,,,,818.5870000238647,,response,,,,1,D,,,,,,Space,keypress(Space),,,,silence,,,,--- ---- ------ --- ------- ---------- ------- ----------<br>--- --------- --- ----------- ------- group ------- ---<br>--------- ---- -- --- ---- -- --------- -- ---- -------<br>-- --------- ------ --- ----- ------ ---- --- --------- --<br>------ - ---- -- --- ----------- ------- ---- ----- -----<br>--- -------- - ------ ---- -- ----- ---- --- --- -----------<br>-- -------,283621.90000003576,283621.60000002384,282786.394,282791.5,282803.013,283636.103,,13,group
screen,html.Screen,2_3_1_0_1_14,2022-02-17T12:54:30.700Z,,,,,,,,,,,,,,,,,2,,,,,,,,,,,,,,570.79700003576,,response,,,,1,D,,,,,,Space,keypress(Space),,,,silence,,,,--- ---- ------ --- ------- ---------- ------- ----------<br>--- --------- --- ----------- ------- ----- through ---<br>--------- ---- -- --- ---- -- --------- -- ---- -------<br>-- --------- ------ --- ----- ------ ---- --- --------- --<br>------ - ---- -- --- ----------- ------- ---- ----- -----<br>--- -------- - ------ ---- -- ----- ---- --- --- -----------<br>-- -------,284207.3000000119,284206.90000003576,283619.526,283622,283636.103,284219.349,,14,through
screen,html.Screen,2_3_1_0_1_15,2022-02-17T12:54:31.334Z,,,,,,,,,,,,,,,,,2,,,,,,,,,,,,,,620.7510000238544,,response,,,,1,D,,,,,,Space,keypress(Space),,,,silence,,,,--- ---- ------ --- ------- ---------- ------- ----------<br>--- --------- --- ----------- ------- ----- ------- his<br>--------- ---- -- --- ---- -- --------- -- ---- -------<br>-- --------- ------ --- ----- ------ ---- --- --------- --<br>------ - ---- -- --- ----------- ------- ---- ----- -----<br>--- -------- - ------ ---- -- ----- ---- --- --- -----------<br>-- -------,284840.40000003576,284840.10000002384,284202.813,284207.40000003576,284219.349,284852.6,,15,his
screen,html.Screen,2_3_1_0_1_16,2022-02-17T12:54:32.737Z,,,,,,,,,,,,,,,,,2,,,,,,,,,,,,,,1390.5000000238651,,response,,,,1,D,,,,,,Space,keypress(Space),,,,silence,,,,--- ---- ------ --- ------- ---------- ------- ----------<br>--- --------- --- ----------- ------- ----- ------- ---<br>telescope ---- -- --- ---- -- --------- -- ---- -------<br>-- --------- ------ --- ----- ------ ---- --- --------- --<br>------ - ---- -- --- ----------- ------- ---- ----- -----<br>--- -------- - ------ ---- -- ----- ---- --- --- -----------<br>-- -------,286243.40000003576,286243.10000002384,284836.063,284840.5,284852.6,286252.377,,16,telescope
screen,html.Screen,2_3_1_0_1_17,2022-02-17T12:54:33.421Z,,,,,,,,,,,,,,,,,2,,,,,,,,,,,,,,674.7230000238633,,response,,,,1,D,,,,,,Space,keypress(Space),,,,silence,,,,--- ---- ------ --- ------- ---------- ------- ----------<br>--- --------- --- ----------- ------- ----- ------- ---<br>--------- when -- --- ---- -- --------- -- ---- -------<br>-- --------- ------ --- ----- ------ ---- --- --------- --<br>------ - ---- -- --- ----------- ------- ---- ----- -----<br>--- -------- - ------ ---- -- ----- ---- --- --- -----------<br>-- -------,286927.60000002384,286927.10000002384,286235.858,286243.60000002384,286252.377,286935.57,,17,when
screen,html.Screen,2_3_1_0_1_18,2022-02-17T12:54:33.922Z,,,,,,,,,,,,,,,,,2,,,,,,,,,,,,,,492.63000004767673,,response,,,,1,D,,,,,,Space,keypress(Space),,,,silence,,,,--- ---- ------ --- ------- ---------- ------- ----------<br>--- --------- --- ----------- ------- ----- ------- ---<br>--------- ---- he --- ---- -- --------- -- ---- -------<br>-- --------- ------ --- ----- ------ ---- --- --------- --<br>------ - ---- -- --- ----------- ------- ---- ----- -----<br>--- -------- - ------ ---- -- ----- ---- --- --- -----------<br>-- -------,287428.60000002384,287428.2000000477,286919.015,286927.7000000477,286935.57,287435.585,,18,he
screen,html.Screen,2_3_1_0_1_19,2022-02-17T12:54:34.315Z,,,,,,,,,,,,,,,,,2,,,,,,,,,,,,,,385.7150000119,,response,,,,1,D,,,,,,Space,keypress(Space),,,,silence,,,,--- ---- ------ --- ------- ---------- ------- ----------<br>--- --------- --- ----------- ------- ----- ------- ---<br>--------- ---- -- saw ---- -- --------- -- ---- -------<br>-- --------- ------ --- ----- ------ ---- --- --------- --<br>------ - ---- -- --- ----------- ------- ---- ----- -----<br>--- -------- - ------ ---- -- ----- ---- --- --- -----------<br>-- -------,287821.8000000119,287821.3000000119,287418.932,287428.60000002384,287435.585,287835.532,,19,saw
screen,html.Screen,2_3_1_0_1_20,2022-02-17T12:54:34.739Z,,,,,,,,,,,,,,,,,2,,,,,,,,,,,,,,409.4679999999935,,response,,,,1,D,,,,,,Space,keypress(Space),,,,silence,,,,--- ---- ------ --- ------- ---------- ------- ----------<br>--- --------- --- ----------- ------- ----- ------- ---<br>--------- ---- -- --- what -- --------- -- ---- -------<br>-- --------- ------ --- ----- ------ ---- --- --------- --<br>------ - ---- -- --- ----------- ------- ---- ----- -----<br>--- -------- - ------ ---- -- ----- ---- --- --- -----------<br>-- -------,288245.5,288245,287818.879,287821.90000003576,287835.532,288252.062,,20,what
screen,html.Screen,2_3_1_0_1_21,2022-02-17T12:54:35.150Z,,,,,,,,,,,,,,,,,2,,,,,,,,,,,,,,404.0380000238656,,response,,,,1,D,,,,,,Space,keypress(Space),,,,silence,,,,--- ---- ------ --- ------- ---------- ------- ----------<br>--- --------- --- ----------- ------- ----- ------- ---<br>--------- ---- -- --- ---- he --------- -- ---- -------<br>-- --------- ------ --- ----- ------ ---- --- --------- --<br>------ - ---- -- --- ----------- ------- ---- ----- -----<br>--- -------- - ------ ---- -- ----- ---- --- --- -----------<br>-- -------,288656.40000003576,288656.10000002384,288235.453,288245.5,288252.062,288668.752,,21,he
screen,html.Screen,2_3_1_0_1_22,2022-02-17T12:54:35.697Z,,,,,,,,,,,,,,,,,2,,,,,,,,,,,,,,534.9480000477051,,response,,,,1,D,,,,,,Space,keypress(Space),,,,silence,,,,--- ---- ------ --- ------- ---------- ------- ----------<br>--- --------- --- ----------- ------- ----- ------- ---<br>--------- ---- -- --- ---- -- described -- ---- -------<br>-- --------- ------ --- ----- ------ ---- --- --------- --<br>------ - ---- -- --- ----------- ------- ---- ----- -----<br>--- -------- - ------ ---- -- ----- ---- --- --- -----------<br>-- -------,289204.10000002384,289203.7000000477,288651.94,288656.60000002384,288668.752,289218.62,,22,described
screen,html.Screen,2_3_1_0_1_23,2022-02-17T12:54:36.129Z,,,,,,,,,,,,,,,,,2,,,,,,,,,,,,,,417.0800000476884,,response,,,,1,D,,,,,,Space,keypress(Space),,,,silence,,,,--- ---- ------ --- ------- ---------- ------- ----------<br>--- --------- --- ----------- ------- ----- ------- ---<br>--------- ---- -- --- ---- -- --------- as ---- -------<br>-- --------- ------ --- ----- ------ ---- --- --------- --<br>------ - ---- -- --- ----------- ------- ---- ----- -----<br>--- -------- - ------ ---- -- ----- ---- --- --- -----------<br>-- -------,289636.2000000477,289635.7000000477,289202.004,289204.10000002384,289218.62,289651.814,,23,as
screen,html.Screen,2_3_1_0_1_24,2022-02-17T12:54:36.519Z,,,,,,,,,,,,,,,,,2,,,,,,,,,,,,,,373.4860000119079,,response,,,,1,D,,,,,,Space,keypress(Space),,,,silence,,,,"--- ---- ------ --- ------- ---------- ------- ----------<br>--- --------- --- ----------- ------- ----- ------- ---<br>--------- ---- -- --- ---- -- --------- -- ""two -------<br>-- --------- ------ --- ----- ------ ---- --- --------- --<br>------ - ---- -- --- ----------- ------- ---- ----- -----<br>--- -------- - ------ ---- -- ----- ---- --- --- -----------<br>-- -------",290025.8000000119,290025.3000000119,289635.184,289636.3000000119,289651.814,290035.138,,24,"""two"
screen,html.Screen,2_3_1_0_1_25,2022-02-17T12:54:36.958Z,,,,,,,,,,,,,,,,,2,,,,,,,,,,,,,,429.66200001194375,,response,,,,1,D,,,,,,Space,keypress(Space),,,,silence,,,,--- ---- ------ --- ------- ---------- ------- ----------<br>--- --------- --- ----------- ------- ----- ------- ---<br>--------- ---- -- --- ---- -- --------- -- ---- patches<br>-- --------- ------ --- ----- ------ ---- --- --------- --<br>------ - ---- -- --- ----------- ------- ---- ----- -----<br>--- -------- - ------ ---- -- ----- ---- --- --- -----------<br>-- -------,290465.2000000477,290464.8000000119,290018.418,290025.90000003576,290035.138,290468.324,,25,patches
screen,html.Screen,2_3_1_0_1_26,2022-02-17T12:54:37.365Z,,,,,,,,,,,,,,,,,2,,,,,,,,,,,,,,403.17599999997765,,response,,,,1,D,,,,,,Space,keypress(Space),,,,silence,,,,--- ---- ------ --- ------- ---------- ------- ----------<br>--- --------- --- ----------- ------- ----- ------- ---<br>--------- ---- -- --- ---- -- --------- -- ---- -------<br>of --------- ------ --- ----- ------ ---- --- --------- --<br>------ - ---- -- --- ----------- ------- ---- ----- -----<br>--- -------- - ------ ---- -- ----- ---- --- --- -----------<br>-- -------,290871.90000003576,290871.5,290451.744,290465.3000000119,290468.324,290885.029,,26,of
screen,html.Screen,2_3_1_0_1_27,2022-02-17T12:54:37.864Z,,,,,,,,,,,,,,,,,2,,,,,,,,,,,,,,485.0710000238614,,response,,,,1,D,,,,,,Space,keypress(Space),,,,silence,,,,--- ---- ------ --- ------- ---------- ------- ----------<br>--- --------- --- ----------- ------- ----- ------- ---<br>--------- ---- -- --- ---- -- --------- -- ---- -------<br>-- intensely ------ --- ----- ------ ---- --- --------- --<br>------ - ---- -- --- ----------- ------- ---- ----- -----<br>--- -------- - ------ ---- -- ----- ---- --- --- -----------<br>-- -------,291370.60000002384,291370.10000002384,290868.249,290871.90000003576,290885.029,291384.932,,27,intensely
screen,html.Screen,2_3_1_0_1_28,2022-02-17T12:54:38.351Z,,,,,,,,,,,,,,,,,2,,,,,,,,,,,,,,471.9680000357912,,response,,,,1,D,,,,,,Space,keypress(Space),,,,silence,,,,--- ---- ------ --- ------- ---------- ------- ----------<br>--- --------- --- ----------- ------- ----- ------- ---<br>--------- ---- -- --- ---- -- --------- -- ---- -------<br>-- --------- bright --- ----- ------ ---- --- --------- --<br>------ - ---- -- --- ----------- ------- ---- ----- -----<br>--- -------- - ------ ---- -- ----- ---- --- --- -----------<br>-- -------,291858.3000000119,291856.90000003576,291368.194,291370.60000002384,291384.932,291868.059,,28,bright
screen,html.Screen,2_3_1_0_1_29,2022-02-17T12:54:38.812Z,,,,,,,,,,,,,,,,,2,,,,,,,,,,,,,,450.24100001191255,,response,,,,1,D,,,,,,Space,keypress(Space),,,,silence,,,,--- ---- ------ --- ------- ---------- ------- ----------<br>--- --------- --- ----------- ------- ----- ------- ---<br>--------- ---- -- --- ---- -- --------- -- ---- -------<br>-- --------- ------ and ----- ------ ---- --- --------- --<br>------ - ---- -- --- ----------- ------- ---- ----- -----<br>--- -------- - ------ ---- -- ----- ---- --- --- -----------<br>-- -------,292318.7000000477,292318.3000000119,291851.528,291858.5,291868.059,292334.766,,29,and
screen,html.Screen,2_3_1_0_1_30,2022-02-17T12:54:39.261Z,,,,,,,,,,,,,,,,,2,,,,,,,,,,,,,,432.73399999999674,,response,,,,1,D,,,,,,Space,keypress(Space),,,,silence,,,,--- ---- ------ --- ------- ---------- ------- ----------<br>--- --------- --- ----------- ------- ----- ------- ---<br>--------- ---- -- --- ---- -- --------- -- ---- -------<br>-- --------- ------ --- white ------ ---- --- --------- --<br>------ - ---- -- --- ----------- ------- ---- ----- -----<br>--- -------- - ------ ---- -- ----- ---- --- --- -----------<br>-- -------,292768,292767.5,292317.973,292318.8000000119,292334.766,292784.596,,30,white
screen,html.Screen,2_3_1_0_1_31,2022-02-17T12:54:40.099Z,,,,,,,,,,,,,,,,,2,,,,,,,,,,,,,,820.6040000476642,,response,,,,1,D,,,,,,Space,keypress(Space),,,,silence,,,,"--- ---- ------ --- ------- ---------- ------- ----------<br>--- --------- --- ----------- ------- ----- ------- ---<br>--------- ---- -- --- ---- -- --------- -- ---- -------<br>-- --------- ------ --- ----- light"" ---- --- --------- --<br>------ - ---- -- --- ----------- ------- ---- ----- -----<br>--- -------- - ------ ---- -- ----- ---- --- --- -----------<br>-- -------",293605.7000000477,293605.2000000477,292767.981,292768,292784.596,293617.821,,31,"light"""
screen,html.Screen,2_3_1_0_1_32,2022-02-17T12:54:40.566Z,,,,,,,,,,,,,,,,,2,,,,,,,,,,,,,,454.5790000357665,,response,,,,1,D,,,,,,Space,keypress(Space),,,,silence,,,,--- ---- ------ --- ------- ---------- ------- ----------<br>--- --------- --- ----------- ------- ----- ------- ---<br>--------- ---- -- --- ---- -- --------- -- ---- -------<br>-- --------- ------ --- ----- ------ over --- --------- --<br>------ - ---- -- --- ----------- ------- ---- ----- -----<br>--- -------- - ------ ---- -- ----- ---- --- --- -----------<br>-- -------,294072.8000000119,294072.40000003576,293601.15,293605.8000000119,293617.821,294084.373,,32,over
screen,html.Screen,2_3_1_0_1_33,2022-02-17T12:54:41.031Z,,,,,,,,,,,,,,,,,2,,,,,,,,,,,,,,453.52700003574137,,response,,,,1,D,,,,,,Space,keypress(Space),,,,silence,,,,--- ---- ------ --- ------- ---------- ------- ----------<br>--- --------- --- ----------- ------- ----- ------- ---<br>--------- ---- -- --- ---- -- --------- -- ---- -------<br>-- --------- ------ --- ----- ------ ---- the --------- --<br>------ - ---- -- --- ----------- ------- ---- ----- -----<br>--- -------- - ------ ---- -- ----- ---- --- --- -----------<br>-- -------,294538.40000003576,294537.90000003576,294067.712,294072.90000003576,294084.373,294551.035,,33,the
screen,html.Screen,2_3_1_0_1_34,2022-02-17T12:54:41.954Z,,,,,,,,,,,,,,,,,2,,,,,,,,,,,,,,909.0650000238675,,response,,,,1,D,,,,,,Space,keypress(Space),,,,silence,,,,--- ---- ------ --- ------- ---------- ------- ----------<br>--- --------- --- ----------- ------- ----- ------- ---<br>--------- ---- -- --- ---- -- --------- -- ---- -------<br>-- --------- ------ --- ----- ------ ---- --- sunspots. --<br>------ - ---- -- --- ----------- ------- ---- ----- -----<br>--- -------- - ------ ---- -- ----- ---- --- --- -----------<br>-- -------,295460.5,295460.10000002384,294534.424,294538.40000003576,294551.035,295467.508,,34,sunspots.
screen,html.Screen,2_3_1_0_1_35,2022-02-17T12:54:42.375Z,,,,,,,,,,,,,,,,,2,,,,,,,,,,,,,,413.7920000119484,,response,,,,1,D,,,,,,Space,keypress(Space),,,,silence,,,,--- ---- ------ --- ------- ---------- ------- ----------<br>--- --------- --- ----------- ------- ----- ------- ---<br>--------- ---- -- --- ---- -- --------- -- ---- -------<br>-- --------- ------ --- ----- ------ ---- --- --------- He<br>------ - ---- -- --- ----------- ------- ---- ----- -----<br>--- -------- - ------ ---- -- ----- ---- --- --- -----------<br>-- -------,295881.8000000119,295881.3000000119,295450.993,295460.60000002384,295467.508,295884.029,,35,He
screen,html.Screen,2_3_1_0_1_36,2022-02-17T12:54:43.081Z,,,,,,,,,,,,,,,,,2,,,,,,,,,,,,,,703.6710000477033,,response,,,,1,D,,,,,,Space,keypress(Space),,,,silence,,,,--- ---- ------ --- ------- ---------- ------- ----------<br>--- --------- --- ----------- ------- ----- ------- ---<br>--------- ---- -- --- ---- -- --------- -- ---- -------<br>-- --------- ------ --- ----- ------ ---- --- --------- --<br>jotted - ---- -- --- ----------- ------- ---- ----- -----<br>--- -------- - ------ ---- -- ----- ---- --- --- -----------<br>-- -------,296588.2000000477,296587.7000000477,295867.549,295881.90000003576,295884.029,296600.69,,36,jotted
screen,html.Screen,2_3_1_0_1_37,2022-02-17T12:54:43.573Z,,,,,,,,,,,,,,,,,2,,,,,,,,,,,,,,479.1100000119186,,response,,,,1,D,,,,,,Space,keypress(Space),,,,silence,,,,--- ---- ------ --- ------- ---------- ------- ----------<br>--- --------- --- ----------- ------- ----- ------- ---<br>--------- ---- -- --- ---- -- --------- -- ---- -------<br>-- --------- ------ --- ----- ------ ---- --- --------- --<br>------ a ---- -- --- ----------- ------- ---- ----- -----<br>--- -------- - ------ ---- -- ----- ---- --- --- -----------<br>-- -------,297080.2000000477,297079.8000000119,296583.982,296588.2000000477,296600.69,297083.925,,37,a
