sender,sender_type,sender_id,timestamp,meta,,Blues,Classical,Country,Dance,Electronic,Folk,Gospel,Hip-Hop,Jazz,Latin,Musical/Film,New-age,Pop,Prolific_id,Provo_ID,R&B,Rap,Reggae,Religious,Rock,Soul,Swing,Traditional,age,artist_name,correct,correctResponse,distraction,duration,education,ended_on,familiarity,gender,headphone_check_performance,item,list,music_frequency,offensiveness,pleasantness,position_correct,preference,response,response_action,snippet_file,song_name,song_rating,sound,stimulus_1,stimulus_2,stimulus_3,text,time_commit,time_end,time_render,time_run,time_show,time_switch,url,word,word_ID
Prolific ID,html.Form,0,2022-02-04T11:30:19.290Z,"{""labjs_version"":""20.2.2"",""labjs_build"":{""flavor"":""production"",""commit"":""a25486e0c714a0ae2ce03ff94b7bb6896854dcfa""},""location"":""https://run.pavlovia.org/mvasilev/prolific2_music_c/"",""userAgent"":""Mozilla/5.0 (Macintosh; Intel Mac OS X 10_15_7) AppleWebKit/537.36 (KHTML, like Gecko) Chrome/98.0.4758.80 Safari/537.36"",""platform"":""MacIntel"",""language"":""en-GB"",""locale"":""en-GB"",""timeZone"":""Europe/London"",""timezoneOffset"":0,""screen_width"":1440,""screen_height"":900,""scroll_width"":1363,""scroll_height"":669,""window_innerWidth"":1363,""window_innerHeight"":717,""devicePixelRatio"":1}",,,,,,,,,,,,,,,5e4414e7445bef2992d2667a,,,,,,,,,,,,,,,32715.432999976158,,form submission,,,,,,,,,,,,,,,,,,,,,47634.89999997616,47634.39999997616,14885.633,14882.399999976158,14918.967,47636.288,{},,
Introduction,html.Screen,1_0,2022-02-04T11:30:35.998Z,,,,,,,,,,,,,,,,,,,,,,,,,,,,,,,16679.611999976158,,response,,,,,,,,,,,continue,click button,,,,,,,,,64341.89999997616,64315.89999997616,47619.621,47635.30000001192,47636.288,64403.29,,,
Volume calibration,html.Screen,1_1,2022-02-04T11:30:39.750Z,,,,,,,,,,,,,,,,,,,,,,,,,,,,,,,3681.51000001192,,response,,,,,,,,,,,continue,click button,,,,,,,,,68094.19999998808,68084.80000001192,64319.955,64342.5,64403.29,68103.364,,,
Task instructions,html.Screen,1_2,2022-02-04T11:30:41.794Z,,,,,,,,,,,,,,,,,,,,,,,,,,,,,,,2031.2360000238405,,response,,,,,,,,,,,continue,click button,,,,,,,,,70138.30000001192,70134.60000002384,68086.697,68094.30000001192,68103.364,70153.405,,,
Sounds,html.Screen,1_3_0_0,2022-02-04T11:30:46.050Z,,,,,,,,,,,,,,,,,,,,,,,,,,,,,,,4250.085000000006,,timeout,,,,,,,,,2,,,,,,,,I,S,O,,74394.30000001192,74386.823,70136.738,70138.69999998808,70153.405,74403.49,,,
Judgement,html.Screen,1_3_0_1,2022-02-04T11:30:47.820Z,,,,,,,,,,,,,,,,,,,,,,,,,,,,true,2,,1757.909999976153,,response,,,,,,,,,2,,2,click #choice-2,,,,,I,S,O,,76164.5,76161.39999997616,74386.823,74394.69999998808,74403.49,76186.859,,,
Trial,flow.Sequence,1_3_0,2022-02-04T11:30:47.821Z,,,,,,,,,,,,,,,,,,,,,,,,,,,,,,,6007.994999976159,,completion,,,,,,,,,2,,,,,,,,I,S,O,,76164.89999997616,76161.39999997616,70136.738,70138.69999998808,70153.405,76186.859,,,
Sounds,html.Screen,1_3_1_0,2022-02-04T11:30:52.078Z,,,,,,,,,,,,,,,,,,,,,,,,,,,,,,,4250.085000000006,,timeout,,,,,,,,,2,,,,,,,,O,S,I,,80422.10000002384,80420.277,76170.192,76166.69999998808,76186.859,80436.944,,,
Judgement,html.Screen,1_3_1_1,2022-02-04T11:30:52.713Z,,,,,,,,,,,,,,,,,,,,,,,,,,,,true,2,,616.1560000238387,,response,,,,,,,,,2,,2,click #choice-2,,,,,O,S,I,,81056.69999998808,81053.10000002384,80420.277,80422.30000001192,80436.944,81070.29,,,
Trial,flow.Sequence,1_3_1,2022-02-04T11:30:52.713Z,,,,,,,,,,,,,,,,,,,,,,,,,,,,,,,4866.241000023845,,completion,,,,,,,,,2,,,,,,,,O,S,I,,81056.89999997616,81053.10000002384,76170.192,76165.10000002384,76186.859,81070.29,,,
Sounds,html.Screen,1_3_2_0,2022-02-04T11:30:56.963Z,,,,,,,,,,,,,,,,,,,,,,,,,,,,,,,4250.085000000006,,timeout,,,,,,,,,3,,,,,,,,O,I,S,,85306.89999997616,85303.708,81053.623,81057.10000002384,81070.29,85320.375,,,
Judgement,html.Screen,1_3_2_1,2022-02-04T11:30:57.602Z,,,,,,,,,,,,,,,,,,,,,,,,,,,,true,3,,621.4250000119209,,response,,,,,,,,,3,,3,click #choice-3,,,,,O,I,S,,85945.89999997616,85941.80000001192,85303.708,85307.30000001192,85320.375,85970.388,,,
Trial,flow.Sequence,1_3_2,2022-02-04T11:30:57.602Z,,,,,,,,,,,,,,,,,,,,,,,,,,,,,,,4871.510000011927,,completion,,,,,,,,,3,,,,,,,,O,I,S,,85946.19999998808,85941.80000001192,81053.623,81057,81070.29,85970.388,,,
Sounds,html.Screen,1_3_3_0,2022-02-04T11:31:01.863Z,,,,,,,,,,,,,,,,,,,,,,,,,,,,,,,4250.084999999992,,timeout,,,,,,,,,1,,,,,,,,S,O,I,,90206.60000002384,90203.806,85953.721,85946.5,85970.388,90220.473,,,
Judgement,html.Screen,1_3_3_1,2022-02-04T11:31:02.455Z,,,,,,,,,,,,,,,,,,,,,,,,,,,,true,1,,562.5270000000019,,response,,,,,,,,,1,,1,click #choice-1,,,,,S,O,I,,90798.80000001192,90783,90203.806,90206.69999998808,90220.473,90803.818,,,
Trial,flow.Sequence,1_3_3,2022-02-04T11:31:02.455Z,,,,,,,,,,,,,,,,,,,,,,,,,,,,,,,4812.611999999994,,completion,,,,,,,,,1,,,,,,,,S,O,I,,90798.89999997616,90783,85953.721,85946.39999997616,85970.388,90803.818,,,
Sounds,html.Screen,1_3_4_0,2022-02-04T11:31:06.696Z,,,,,,,,,,,,,,,,,,,,,,,,,,,,,,,4250.085000000006,,timeout,,,,,,,,,3,,,,,,,,I,O,S,,95039.80000001192,95037.236,90787.151,90799.19999998808,90803.818,95053.903,,,
Judgement,html.Screen,1_3_4_1,2022-02-04T11:31:07.203Z,,,,,,,,,,,,,,,,,,,,,,,,,,,,true,3,,488.99699997615244,,response,,,,,,,,,3,,3,click #choice-3,,,,,I,O,S,,95547.19999998808,95542.89999997616,95037.236,95040,95053.903,95570.58,,,
Trial,flow.Sequence,1_3_4,2022-02-04T11:31:07.204Z,,,,,,,,,,,,,,,,,,,,,,,,,,,,,,,4739.081999976159,,completion,,,,,,,,,3,,,,,,,,I,O,S,,95547.5,95542.89999997616,90787.151,90799.10000002384,90803.818,95570.58,,,
Sounds,html.Screen,1_3_5_0,2022-02-04T11:31:11.461Z,,,,,,,,,,,,,,,,,,,,,,,,,,,,,,,4250.084999999992,,timeout,,,,,,,,,1,,,,,,,,S,I,O,,99805.10000002384,99803.998,95553.913,95547.80000001192,95570.58,99820.665,,,
Judgement,html.Screen,1_3_5_1,2022-02-04T11:31:11.978Z,,,,,,,,,,,,,,,,,,,,,,,,,,,,true,1,,496.8350000000064,,response,,,,,,,,,1,,1,click #choice-1,,,,,S,I,O,,100321.80000001192,100317.5,99803.998,99805.39999997616,99820.665,100354.009,,,
Trial,flow.Sequence,1_3_5,2022-02-04T11:31:11.978Z,,,,,,,,,,,,,,,,,,,,,,,,,,,,,,,4746.919999999998,,completion,,,,,,,,,1,,,,,,,,S,I,O,,100322.19999998808,100317.5,95553.913,95547.69999998808,95570.58,100354.009,,,
Task,flow.Loop,1_3,2022-02-04T11:31:11.996Z,,,,,,,,,,,,,,,,,,,,,,,,,,,,,,,30164.095,,completion,,,1,,,,,,,,,,,,,,,,,,100340.30000001192,100317.5,70136.738,70138.5,70153.405,100354.009,,,
Trap,html.Screen,1_4,2022-02-04T11:31:12.003Z,,,,,,,,,,,,,,,,,,,,,,,,,,,,,,,NaN,,skipped,,,,,,,,,,,,,,,,,,,,,100347.10000002384,100317.5,,100347,,100354.009,,,
Thanks,html.Screen,1_5,2022-02-04T11:31:13.939Z,,,,,,,,,,,,,,,,,,,,,,,,,,,,,,,1925.6909999880736,,response,,,,,,,,,,,continue,click button,,,,,,,,,102282.89999997616,102279.69999998808,100320.675,100347.19999998808,100354.009,109320.855,,,
Headphone screening,flow.Sequence,1,2022-02-04T11:31:13.939Z,,,,,,,,,,,,,,,,,,,,,,,,,,,,,,,54643.41199998808,,completion,,,,,,,,,,,,,,,,,,,,,102283.10000002384,102279.69999998808,47619.621,47635.19999998808,47636.288,109320.855,,,
Instructions,html.Page,2_0,2022-02-04T11:31:26.863Z,,,,,,,,,,,,,,,,,,,,,,,,,,,,,,,5883.544999976162,,form submission,,,,,,,,,,,,,,,,,,,,,115206.39999997616,115204.39999997616,109104.184,109314.39999997616,109320.855,115216.461,,,
Holding screen,html.Screen,2_1_0_0,2022-02-04T11:31:36.858Z,,,,,,,,,,,,,,,,,,,,,,,,,,,,,,,10216.871,,timeout,,,,,,,,,,,,,,,,,,,,,125201.89999997616,125199.994,115199.794,115207.30000001192,115216.461,125433.332,,,
screen,html.Screen,2_1_0_1_0,2022-02-04T11:31:38.580Z,,,,,,,,,,,,,,,,,53,,,,,,,,,,,,,,1479.6680000000051,,response,,,,99,,,,,,,Space,keypress(Space),,,,,,,,When -- ----- -- ------ - ------- --- ----------<br>------------- ------ ------ ---- ---- ------- ----- -- ----<br>-------- ------- -- ---------- --- - --- ----- ----- ----<br>---- --- --- ----- --- ---- ---- ------- ----- ---- -------<br>--- --- -- ----- -- --- ---- -- --- ---- -- ------ ------<br>--- ----- -- ----,126923,126913,125199.994,125202.39999997616,125433.332,126933.362,,0,When
screen,html.Screen,2_1_0_1_1,2022-02-04T11:31:39.111Z,,,,,,,,,,,,,,,,,53,,,,,,,,,,,,,,514.4380000119272,,response,,,,99,,,,,,,Space,keypress(Space),,,,,,,,---- it ----- -- ------ - ------- --- ----------<br>------------- ------ ------ ---- ---- ------- ----- -- ----<br>-------- ------- -- ---------- --- - --- ----- ----- ----<br>---- --- --- ----- --- ---- ---- ------- ----- ---- -------<br>--- --- -- ----- -- --- ---- -- --- ---- -- ------ ------<br>--- ----- -- ----,127454.10000002384,127447.80000001192,126916.695,126923.19999998808,126933.362,127466.706,,1,it
screen,html.Screen,2_1_0_1_2,2022-02-04T11:31:39.591Z,,,,,,,,,,,,,,,,,53,,,,,,,,,,,,,,460.9939999880735,,response,,,,99,,,,,,,Space,keypress(Space),,,,,,,,---- -- comes -- ------ - ------- --- ----------<br>------------- ------ ------ ---- ---- ------- ----- -- ----<br>-------- ------- -- ---------- --- - --- ----- ----- ----<br>---- --- --- ----- --- ---- ---- ------- ----- ---- -------<br>--- --- -- ----- -- --- ---- -- --- ---- -- ------ ------<br>--- ----- -- ----,127934.39999997616,127927.69999998808,127450.039,127454.19999998808,127466.706,127950.049,,2,comes
screen,html.Screen,2_1_0_1_3,2022-02-04T11:31:40.007Z,,,,,,,,,,,,,,,,,53,,,,,,,,,,,,,,393.5510000238428,,response,,,,99,,,,,,,Space,keypress(Space),,,,,,,,---- -- ----- to ------ - ------- --- ----------<br>------------- ------ ------ ---- ---- ------- ----- -- ----<br>-------- ------- -- ---------- --- - --- ----- ----- ----<br>---- --- --- ----- --- ---- ---- ------- ----- ---- -------<br>--- --- -- ----- -- --- ---- -- --- ---- -- ------ ------<br>--- ----- -- ----,128350.10000002384,128343.60000002384,127933.382,127934.80000001192,127950.049,128366.724,,3,to
screen,html.Screen,2_1_0_1_4,2022-02-04T11:31:40.365Z,,,,,,,,,,,,,,,,,53,,,,,,,,,,,,,,335.8760000238399,,response,,,,99,,,,,,,Space,keypress(Space),,,,,,,,---- -- ----- -- having - ------- --- ----------<br>------------- ------ ------ ---- ---- ------- ----- -- ----<br>-------- ------- -- ---------- --- - --- ----- ----- ----<br>---- --- --- ----- --- ---- ---- ------- ----- ---- -------<br>--- --- -- ----- -- --- ---- -- --- ---- -- ------ ------<br>--- ----- -- ----,128708.89999997616,128702.60000002384,128350.057,128350.30000001192,128366.724,128716.731,,4,having
screen,html.Screen,2_1_0_1_5,2022-02-04T11:31:40.698Z,,,,,,,,,,,,,,,,,53,,,,,,,,,,,,,,316.76900000000023,,response,,,,99,,,,,,,Space,keypress(Space),,,,,,,,---- -- ----- -- ------ a ------- --- ----------<br>------------- ------ ------ ---- ---- ------- ----- -- ----<br>-------- ------- -- ---------- --- - --- ----- ----- ----<br>---- --- --- ----- --- ---- ---- ------- ----- ---- -------<br>--- --- -- ----- -- --- ---- -- --- ---- -- ------ ------<br>--- ----- -- ----,129041.19999998808,129033.5,128700.064,128713.39999997616,128716.731,129050.071,,5,a
screen,html.Screen,2_1_0_1_6,2022-02-04T11:31:41.034Z,,,,,,,,,,,,,,,,,53,,,,,,,,,,,,,,321.5290000238456,,response,,,,99,,,,,,,Space,keypress(Space),,,,,,,,---- -- ----- -- ------ - lasting --- ----------<br>------------- ------ ------ ---- ---- ------- ----- -- ----<br>-------- ------- -- ---------- --- - --- ----- ----- ----<br>---- --- --- ----- --- ---- ---- ------- ----- ---- -------<br>--- --- -- ----- -- --- ---- -- --- ---- -- ------ ------<br>--- ----- -- ----,129377.80000001192,129371.60000002384,129033.404,129041.39999997616,129050.071,129383.411,,6,lasting
screen,html.Screen,2_1_0_1_7,2022-02-04T11:31:41.386Z,,,,,,,,,,,,,,,,,53,,,,,,,,,,,,,,339.0890000000072,,response,,,,99,,,,,,,Space,keypress(Space),,,,,,,,---- -- ----- -- ------ - ------- and ----------<br>------------- ------ ------ ---- ---- ------- ----- -- ----<br>-------- ------- -- ---------- --- - --- ----- ----- ----<br>---- --- --- ----- --- ---- ---- ------- ----- ---- -------<br>--- --- -- ----- -- --- ---- -- --- ---- -- ------ ------<br>--- ----- -- ----,129728.89999997616,129722.5,129366.744,129377.89999997616,129383.411,129733.418,,7,and
screen,html.Screen,2_1_0_1_8,2022-02-04T11:31:41.824Z,,,,,,,,,,,,,,,,,53,,,,,,,,,,,,,,425.0819999999949,,response,,,,99,,,,,,,Space,keypress(Space),,,,,,,,---- -- ----- -- ------ - ------- --- fulfilling<br>------------- ------ ------ ---- ---- ------- ----- -- ----<br>-------- ------- -- ---------- --- - --- ----- ----- ----<br>---- --- --- ----- --- ---- ---- ------- ----- ---- -------<br>--- --- -- ----- -- --- ---- -- --- ---- -- ------ ------<br>--- ----- -- ----,130167.30000001192,130158.5,129716.751,129729,129733.418,130183.427,,8,fulfilling
screen,html.Screen,2_1_0_1_9,2022-02-04T11:31:42.269Z,,,,,,,,,,,,,,,,,53,,,,,,,,,,,,,,423.07300000000396,,response,,,,99,,,,,,,Space,keypress(Space),,,,,,,,"---- -- ----- -- ------ - ------- --- ----------<br>relationship, ------ ------ ---- ---- ------- ----- -- ----<br>-------- ------- -- ---------- --- - --- ----- ----- ----<br>---- --- --- ----- --- ---- ---- ------- ----- ---- -------<br>--- --- -- ----- -- --- ---- -- --- ---- -- ------ ------<br>--- ----- -- ----",130612.5,130606.5,130166.76,130167.39999997616,130183.427,130616.769,,9,"relationship,"
screen,html.Screen,2_1_0_1_10,2022-02-04T11:31:42.825Z,,,,,,,,,,,,,,,,,53,,,,,,,,,,,,,,545.7309999999998,,response,,,,99,,,,,,,Space,keypress(Space),,,,,,,,---- -- ----- -- ------ - ------- --- ----------<br>------------- common ------ ---- ---- ------- ----- -- ----<br>-------- ------- -- ---------- --- - --- ----- ----- ----<br>---- --- --- ----- --- ---- ---- ------- ----- ---- -------<br>--- --- -- ----- -- --- ---- -- --- ---- -- ------ ------<br>--- ----- -- ----,131168.30000001192,131162.5,130600.102,130612.69999998808,130616.769,131183.447,,10,common
screen,html.Screen,2_1_0_1_11,2022-02-04T11:31:43.186Z,,,,,,,,,,,,,,,,,53,,,,,,,,,,,,,,340.05300000001444,,response,,,,99,,,,,,,Space,keypress(Space),,,,,,,,---- -- ----- -- ------ - ------- --- ----------<br>------------- ------ wisdom ---- ---- ------- ----- -- ----<br>-------- ------- -- ---------- --- - --- ----- ----- ----<br>---- --- --- ----- --- ---- ---- ------- ----- ---- -------<br>--- --- -- ----- -- --- ---- -- --- ---- -- ------ ------<br>--- ----- -- ----,131529.39999997616,131523.5,131166.78,131168.5,131183.447,131533.454,,11,wisdom
screen,html.Screen,2_1_0_1_12,2022-02-04T11:31:43.548Z,,,,,,,,,,,,,,,,,53,,,,,,,,,,,,,,348.0460000000021,,response,,,,99,,,,,,,Space,keypress(Space),,,,,,,,---- -- ----- -- ------ - ------- --- ----------<br>------------- ------ ------ says ---- ------- ----- -- ----<br>-------- ------- -- ---------- --- - --- ----- ----- ----<br>---- --- --- ----- --- ---- ---- ------- ----- ---- -------<br>--- --- -- ----- -- --- ---- -- --- ---- -- ------ ------<br>--- ----- -- ----,131891.60000002384,131881.5,131516.787,131529.5,131533.454,131916.795,,12,says
screen,html.Screen,2_1_0_1_13,2022-02-04T11:31:43.919Z,,,,,,,,,,,,,,,,,53,,,,,,,,,,,,,,341.5050000119081,,response,,,,99,,,,,,,Space,keypress(Space),,,,,,,,---- -- ----- -- ------ - ------- --- ----------<br>------------- ------ ------ ---- that ------- ----- -- ----<br>-------- ------- -- ---------- --- - --- ----- ----- ----<br>---- --- --- ----- --- ---- ---- ------- ----- ---- -------<br>--- --- -- ----- -- --- ---- -- --- ---- -- ------ ------<br>--- ----- -- ----,132262.60000002384,132258.30000001192,131900.128,131891.80000001192,131916.795,132283.469,,13,that
screen,html.Screen,2_1_0_1_14,2022-02-04T11:31:44.311Z,,,,,,,,,,,,,,,,,53,,,,,,,,,,,,,,364.93099997614627,,response,,,,99,,,,,,,Space,keypress(Space),,,,,,,,---- -- ----- -- ------ - ------- --- ----------<br>------------- ------ ------ ---- ---- feeling ----- -- ----<br>-------- ------- -- ---------- --- - --- ----- ----- ----<br>---- --- --- ----- --- ---- ---- ------- ----- ---- -------<br>--- --- -- ----- -- --- ---- -- --- ---- -- ------ ------<br>--- ----- -- ----,132654.30000001192,132648.39999997616,132266.802,132262.69999998808,132283.469,132666.81,,14,feeling
screen,html.Screen,2_1_0_1_15,2022-02-04T11:31:44.691Z,,,,,,,,,,,,,,,,,53,,,,,,,,,,,,,,361.3899999880814,,response,,,,99,,,,,,,Space,keypress(Space),,,,,,,,---- -- ----- -- ------ - ------- --- ----------<br>------------- ------ ------ ---- ---- ------- close -- ----<br>-------- ------- -- ---------- --- - --- ----- ----- ----<br>---- --- --- ----- --- ---- ---- ------- ----- ---- -------<br>--- --- -- ----- -- --- ---- -- --- ---- -- ------ ------<br>--- ----- -- ----,133034.30000001192,133028.19999998808,132650.143,132654.60000002384,132666.81,133050.151,,15,close
screen,html.Screen,2_1_0_1_16,2022-02-04T11:31:45.037Z,,,,,,,,,,,,,,,,,53,,,,,,,,,,,,,,321.14900001190836,,response,,,,99,,,,,,,Space,keypress(Space),,,,,,,,---- -- ----- -- ------ - ------- --- ----------<br>------------- ------ ------ ---- ---- ------- ----- to ----<br>-------- ------- -- ---------- --- - --- ----- ----- ----<br>---- --- --- ----- --- ---- ---- ------- ----- ---- -------<br>--- --- -- ----- -- --- ---- -- --- ---- -- ------ ------<br>--- ----- -- ----,133380.30000001192,133371.30000001192,133033.484,133034.5,133050.151,133400.158,,16,to
screen,html.Screen,2_1_0_1_17,2022-02-04T11:31:45.432Z,,,,,,,,,,,,,,,,,53,,,,,,,,,,,,,,369.1420000119251,,response,,,,99,,,,,,,Space,keypress(Space),,,,,,,,---- -- ----- -- ------ - ------- --- ----------<br>------------- ------ ------ ---- ---- ------- ----- -- your<br>-------- ------- -- ---------- --- - --- ----- ----- ----<br>---- --- --- ----- --- ---- ---- ------- ----- ---- -------<br>--- --- -- ----- -- --- ---- -- --- ---- -- ------ ------<br>--- ----- -- ----,133775.30000001192,133769.30000001192,133383.491,133380.60000002384,133400.158,133783.499,,17,your
screen,html.Screen,2_1_0_1_18,2022-02-04T11:31:45.898Z,,,,,,,,,,,,,,,,,53,,,,,,,,,,,,,,451.70099998806836,,response,,,,99,,,,,,,Space,keypress(Space),,,,,,,,---- -- ----- -- ------ - ------- --- ----------<br>------------- ------ ------ ---- ---- ------- ----- -- ----<br>romantic ------- -- ---------- --- - --- ----- ----- ----<br>---- --- --- ----- --- ---- ---- ------- ----- ---- -------<br>--- --- -- ----- -- --- ---- -- --- ---- -- ------ ------<br>--- ----- -- ----,134241.19999998808,134235.19999998808,133766.832,133775.5,133783.499,134250.175,,18,romantic
screen,html.Screen,2_1_0_1_19,2022-02-04T11:31:46.276Z,,,,,,,,,,,,,,,,,53,,,,,,,,,,,,,,363.12500001193257,,response,,,,99,,,,,,,Space,keypress(Space),,,,,,,,---- -- ----- -- ------ - ------- --- ----------<br>------------- ------ ------ ---- ---- ------- ----- -- ----<br>-------- partner -- ---------- --- - --- ----- ----- ----<br>---- --- --- ----- --- ---- ---- ------- ----- ---- -------<br>--- --- -- ----- -- --- ---- -- --- ---- -- ------ ------<br>--- ----- -- ----,134619.39999997616,134613.30000001192,134233.508,134241.30000001192,134250.175,134633.516,,19,partner
screen,html.Screen,2_1_0_1_20,2022-02-04T11:31:46.644Z,,,,,,,,,,,,,,,,,53,,,,,,,,,,,,,,349.78400001191767,,response,,,,99,,,,,,,Space,keypress(Space),,,,,,,,---- -- ----- -- ------ - ------- --- ----------<br>------------- ------ ------ ---- ---- ------- ----- -- ----<br>-------- ------- is ---------- --- - --- ----- ----- ----<br>---- --- --- ----- --- ---- ---- ------- ----- ---- -------<br>--- --- -- ----- -- --- ---- -- --- ---- -- ------ ------<br>--- ----- -- ----,134987.60000002384,134983.30000001192,134616.849,134619.5,134633.516,135000.19,,20,is
screen,html.Screen,2_1_0_1_21,2022-02-04T11:31:46.953Z,,,,,,,,,,,,,,,,,53,,,,,,,,,,,,,,290.1100000119186,,response,,,,99,,,,,,,Space,keypress(Space),,,,,,,,---- -- ----- -- ------ - ------- --- ----------<br>------------- ------ ------ ---- ---- ------- ----- -- ----<br>-------- ------- -- paramount. --- - --- ----- ----- ----<br>---- --- --- ----- --- ---- ---- ------- ----- ---- -------<br>--- --- -- ----- -- --- ---- -- --- ---- -- ------ ------<br>--- ----- -- ----,135296.30000001192,135290.30000001192,134983.523,134987.69999998808,135000.19,135300.196,,21,paramount.
screen,html.Screen,2_1_0_1_22,2022-02-04T11:31:47.458Z,,,,,,,,,,,,,,,,,53,,,,,,,,,,,,,,495.0039999880828,,response,,,,99,,,,,,,Space,keypress(Space),,,,,,,,---- -- ----- -- ------ - ------- --- ----------<br>------------- ------ ------ ---- ---- ------- ----- -- ----<br>-------- ------- -- ---------- But - --- ----- ----- ----<br>---- --- --- ----- --- ---- ---- ------- ----- ---- -------<br>--- --- -- ----- -- --- ---- -- --- ---- -- ------ ------<br>--- ----- -- ----,135801.10000002384,135795.19999998808,135283.529,135296.5,135300.196,135816.873,,22,But
screen,html.Screen,2_1_0_1_23,2022-02-04T11:31:47.826Z,,,,,,,,,,,,,,,,,53,,,,,,,,,,,,,,346.22700002384954,,response,,,,99,,,,,,,Space,keypress(Space),,,,,,,,---- -- ----- -- ------ - ------- --- ----------<br>------------- ------ ------ ---- ---- ------- ----- -- ----<br>-------- ------- -- ---------- --- a --- ----- ----- ----<br>---- --- --- ----- --- ---- ---- ------- ----- ---- -------<br>--- --- -- ----- -- --- ---- -- --- ---- -- ------ ------<br>--- ----- -- ----,136169.30000001192,136163.10000002384,135800.206,135801.30000001192,135816.873,136183.547,,23,a
screen,html.Screen,2_1_0_1_24,2022-02-04T11:31:48.354Z,,,,,,,,,,,,,,,,,53,,,,,,,,,,,,,,502.4530000000086,,response,,,,99,,,,,,,Space,keypress(Space),,,,,,,,---- -- ----- -- ------ - ------- --- ----------<br>------------- ------ ------ ---- ---- ------- ----- -- ----<br>-------- ------- -- ---------- --- - new ----- ----- ----<br>---- --- --- ----- --- ---- ---- ------- ----- ---- -------<br>--- --- -- ----- -- --- ---- -- --- ---- -- ------ ------<br>--- ----- -- ----,136697.39999997616,136686,136166.88,136169.39999997616,136183.547,136716.891,,24,new
screen,html.Screen,2_1_0_1_25,2022-02-04T11:31:48.767Z,,,,,,,,,,,,,,,,,53,,,,,,,,,,,,,,386.2090000238386,,response,,,,99,,,,,,,Space,keypress(Space),,,,,,,,---- -- ----- -- ------ - ------- --- ----------<br>------------- ------ ------ ---- ---- ------- ----- -- ----<br>-------- ------- -- ---------- --- - --- study ----- ----<br>---- --- --- ----- --- ---- ---- ------- ----- ---- -------<br>--- --- -- ----- -- --- ---- -- --- ---- -- ------ ------<br>--- ----- -- ----,137109.80000001192,137103.10000002384,136700.224,136697.5,136716.891,137116.899,,25,study
screen,html.Screen,2_1_0_1_26,2022-02-04T11:31:49.177Z,,,,,,,,,,,,,,,,,53,,,,,,,,,,,,,,398.1009999999951,,response,,,,99,,,,,,,Space,keypress(Space),,,,,,,,---- -- ----- -- ------ - ------- --- ----------<br>------------- ------ ------ ---- ---- ------- ----- -- ----<br>-------- ------- -- ---------- --- - --- ----- finds ----<br>---- --- --- ----- --- ---- ---- ------- ----- ---- -------<br>--- --- -- ----- -- --- ---- -- --- ---- -- ------ ------<br>--- ----- -- ----,137520.60000002384,137515,137100.232,137109.89999997616,137116.899,137533.574,,26,finds
screen,html.Screen,2_1_0_1_27,2022-02-04T11:31:49.503Z,,,,,,,,,,,,,,,,,53,,,,,,,,,,,,,,303.6259999880858,,response,,,,99,,,,,,,Space,keypress(Space),,,,,,,,---- -- ----- -- ------ - ------- --- ----------<br>------------- ------ ------ ---- ---- ------- ----- -- ----<br>-------- ------- -- ---------- --- - --- ----- ----- that<br>---- --- --- ----- --- ---- ---- ------- ----- ---- -------<br>--- --- -- ----- -- --- ---- -- --- ---- -- ------ ------<br>--- ----- -- ----,137845.89999997616,137837.19999998808,137516.907,137520.89999997616,137533.574,137850.247,,27,that
screen,html.Screen,2_1_0_1_28,2022-02-04T11:31:49.821Z,,,,,,,,,,,,,,,,,53,,,,,,,,,,,,,,307.95299998807604,,response,,,,99,,,,,,,Space,keypress(Space),,,,,,,,---- -- ----- -- ------ - ------- --- ----------<br>------------- ------ ------ ---- ---- ------- ----- -- ----<br>-------- ------- -- ---------- --- - --- ----- ----- ----<br>it's --- --- ----- --- ---- ---- ------- ----- ---- -------<br>--- --- -- ----- -- --- ---- -- --- ---- -- ------ ------<br>--- ----- -- ----,138163.89999997616,138158.19999998808,137833.58,137846,137850.247,138166.92,,28,it's
screen,html.Screen,2_1_0_1_29,2022-02-04T11:31:50.162Z,,,,,,,,,,,,,,,,,53,,,,,,,,,,,,,,332.18000002382905,,response,,,,99,,,,,,,Space,keypress(Space),,,,,,,,---- -- ----- -- ------ - ------- --- ----------<br>------------- ------ ------ ---- ---- ------- ----- -- ----<br>-------- ------- -- ---------- --- - --- ----- ----- ----<br>---- not --- ----- --- ---- ---- ------- ----- ---- -------<br>--- --- -- ----- -- --- ---- -- --- ---- -- ------ ------<br>--- ----- -- ----,138505,138499.10000002384,138150.253,138164.19999998808,138166.92,138516.927,,29,not
screen,html.Screen,2_1_0_1_30,2022-02-04T11:31:50.529Z,,,,,,,,,,,,,,,,,53,,,,,,,,,,,,,,349.1730000238458,,response,,,,99,,,,,,,Space,keypress(Space),,,,,,,,---- -- ----- -- ------ - ------- --- ----------<br>------------- ------ ------ ---- ---- ------- ----- -- ----<br>-------- ------- -- ---------- --- - --- ----- ----- ----<br>---- --- how ----- --- ---- ---- ------- ----- ---- -------<br>--- --- -- ----- -- --- ---- -- --- ---- -- ------ ------<br>--- ----- -- ----,138872,138866.10000002384,138500.26,138505.30000001192,138516.927,138883.601,,30,how
screen,html.Screen,2_1_0_1_31,2022-02-04T11:31:50.861Z,,,,,,,,,,,,,,,,,53,,,,,,,,,,,,,,316.49900002384675,,response,,,,99,,,,,,,Space,keypress(Space),,,,,,,,---- -- ----- -- ------ - ------- --- ----------<br>------------- ------ ------ ---- ---- ------- ----- -- ----<br>-------- ------- -- ---------- --- - --- ----- ----- ----<br>---- --- --- close --- ---- ---- ------- ----- ---- -------<br>--- --- -- ----- -- --- ---- -- --- ---- -- ------ ------<br>--- ----- -- ----,139204.30000001192,139200.10000002384,138866.934,138872.10000002384,138883.601,139216.941,,31,close
screen,html.Screen,2_1_0_1_32,2022-02-04T11:31:51.180Z,,,,,,,,,,,,,,,,,53,,,,,,,,,,,,,,300.8590000119293,,response,,,,99,,,,,,,Space,keypress(Space),,,,,,,,---- -- ----- -- ------ - ------- --- ----------<br>------------- ------ ------ ---- ---- ------- ----- -- ----<br>-------- ------- -- ---------- --- - --- ----- ----- ----<br>---- --- --- ----- you ---- ---- ------- ----- ---- -------<br>--- --- -- ----- -- --- ---- -- --- ---- -- ------ ------<br>--- ----- -- ----,139523.69999998808,139517.80000001192,139200.274,139204.39999997616,139216.941,139533.614,,32,you
screen,html.Screen,2_1_0_1_33,2022-02-04T11:31:51.533Z,,,,,,,,,,,,,,,,,53,,,,,,,,,,,,,,336.3859999999986,,response,,,,99,,,,,,,Space,keypress(Space),,,,,,,,---- -- ----- -- ------ - ------- --- ----------<br>------------- ------ ------ ---- ---- ------- ----- -- ----<br>-------- ------- -- ---------- --- - --- ----- ----- ----<br>---- --- --- ----- --- feel ---- ------- ----- ---- -------<br>--- --- -- ----- -- --- ---- -- --- ---- -- ------ ------<br>--- ----- -- ----,139876,139870,139516.947,139523.89999997616,139533.614,139883.621,,33,feel
screen,html.Screen,2_1_0_1_34,2022-02-04T11:31:51.936Z,,,,,,,,,,,,,,,,,53,,,,,,,,,,,,,,382.4790000238281,,response,,,,99,,,,,,,Space,keypress(Space),,,,,,,,---- -- ----- -- ------ - ------- --- ----------<br>------------- ------ ------ ---- ---- ------- ----- -- ----<br>-------- ------- -- ---------- --- - --- ----- ----- ----<br>---- --- --- ----- --- ---- that ------- ----- ---- -------<br>--- --- -- ----- -- --- ---- -- --- ---- -- ------ ------<br>--- ----- -- ----,140279.30000001192,140266.10000002384,139866.954,139876.10000002384,139883.621,140283.629,,34,that
screen,html.Screen,2_1_0_1_35,2022-02-04T11:31:52.219Z,,,,,,,,,,,,,,,,,53,,,,,,,,,,,,,,272.17100001193467,,response,,,,99,,,,,,,Space,keypress(Space),,,,,,,,---- -- ----- -- ------ - ------- --- ----------<br>------------- ------ ------ ---- ---- ------- ----- -- ----<br>-------- ------- -- ---------- --- - --- ----- ----- ----<br>---- --- --- ----- --- ---- ---- matters ----- ---- -------<br>--- --- -- ----- -- --- ---- -- --- ---- -- ------ ------<br>--- ----- -- ----,140562.10000002384,140555.80000001192,140266.962,140279.30000001192,140283.629,140583.635,,35,matters
screen,html.Screen,2_1_0_1_36,2022-02-04T11:31:52.543Z,,,,,,,,,,,,,,,,,53,,,,,,,,,,,,,,296.1650000119116,,response,,,,99,,,,,,,Space,keypress(Space),,,,,,,,"---- -- ----- -- ------ - ------- --- ----------<br>------------- ------ ------ ---- ---- ------- ----- -- ----<br>-------- ------- -- ---------- --- - --- ----- ----- ----<br>---- --- --- ----- --- ---- ---- ------- most, ---- -------<br>--- --- -- ----- -- --- ---- -- --- ---- -- ------ ------<br>--- ----- -- ----",140885.80000001192,140879.80000001192,140566.968,140562.39999997616,140583.635,140900.308,,36,"most,"
screen,html.Screen,2_1_0_1_37,2022-02-04T11:31:52.915Z,,,,,,,,,,,,,,,,,53,,,,,,,,,,,,,,351.59199997616815,,response,,,,99,,,,,,,Space,keypress(Space),,,,,,,,---- -- ----- -- ------ - ------- --- ----------<br>------------- ------ ------ ---- ---- ------- ----- -- ----<br>-------- ------- -- ---------- --- - --- ----- ----- ----<br>---- --- --- ----- --- ---- ---- ------- ----- it's -------<br>--- --- -- ----- -- --- ---- -- --- ---- -- ------ ------<br>--- ----- -- ----,141257.69999998808,141251.89999997616,140883.641,140886,140900.308,141266.982,,37,it's
screen,html.Screen,2_1_0_1_38,2022-02-04T11:31:53.208Z,,,,,,,,,,,,,,,,,53,,,,,,,,,,,,,,277.9179999761691,,response,,,,99,,,,,,,Space,keypress(Space),,,,,,,,---- -- ----- -- ------ - ------- --- ----------<br>------------- ------ ------ ---- ---- ------- ----- -- ----<br>-------- ------- -- ---------- --- - --- ----- ----- ----<br>---- --- --- ----- --- ---- ---- ------- ----- ---- whether<br>--- --- -- ----- -- --- ---- -- --- ---- -- ------ ------<br>--- ----- -- ----,141550.89999997616,141544.89999997616,141250.315,141257.89999997616,141266.982,141566.988,,38,whether
screen,html.Screen,2_1_0_1_39,2022-02-04T11:31:53.466Z,,,,,,,,,,,,,,,,,53,,,,,,,,,,,,,,235.91199997614603,,response,,,,99,,,,,,,Space,keypress(Space),,,,,,,,---- -- ----- -- ------ - ------- --- ----------<br>------------- ------ ------ ---- ---- ------- ----- -- ----<br>-------- ------- -- ---------- --- - --- ----- ----- ----<br>---- --- --- ----- --- ---- ---- ------- ----- ---- -------<br>you --- -- ----- -- --- ---- -- --- ---- -- ------ ------<br>--- ----- -- ----,141808.89999997616,141802.89999997616,141550.321,141551.10000002384,141566.988,141816.993,,39,you
screen,html.Screen,2_1_0_1_40,2022-02-04T11:31:53.631Z,,,,,,,,,,,,,,,,,53,,,,,,,,,,,,,,150.7069999880914,,response,,,,99,,,,,,,Space,keypress(Space),,,,,,,,---- -- ----- -- ------ - ------- --- ----------<br>------------- ------ ------ ---- ---- ------- ----- -- ----<br>-------- ------- -- ---------- --- - --- ----- ----- ----<br>---- --- --- ----- --- ---- ---- ------- ----- ---- -------<br>--- are -- ----- -- --- ---- -- --- ---- -- ------ ------<br>--- ----- -- ----,141973.80000001192,141967.69999998808,141800.326,141809.10000002384,141816.993,141983.663,,40,are
screen,html.Screen,2_1_0_1_41,2022-02-04T11:31:53.814Z,,,,,,,,,,,,,,,,,53,,,,,,,,,,,,,,168.0369999880786,,response,,,,99,,,,,,,Space,keypress(Space),,,,,,,,---- -- ----- -- ------ - ------- --- ----------<br>------------- ------ ------ ---- ---- ------- ----- -- ----<br>-------- ------- -- ---------- --- - --- ----- ----- ----<br>---- --- --- ----- --- ---- ---- ------- ----- ---- -------<br>--- --- as ----- -- --- ---- -- --- ---- -- ------ ------<br>--- ----- -- ----,142156.69999998808,142151.69999998808,141966.996,141974,141983.663,142167,,41,as
screen,html.Screen,2_1_0_1_42,2022-02-04T11:31:54.018Z,,,,,,,,,,,,,,,,,53,,,,,,,,,,,,,,187.89999997615814,,response,,,,99,,,,,,,Space,keypress(Space),,,,,,,,---- -- ----- -- ------ - ------- --- ----------<br>------------- ------ ------ ---- ---- ------- ----- -- ----<br>-------- ------- -- ---------- --- - --- ----- ----- ----<br>---- --- --- ----- --- ---- ---- ------- ----- ---- -------<br>--- --- -- close -- --- ---- -- --- ---- -- ------ ------<br>--- ----- -- ----,142360.80000001192,142354.89999997616,142150.333,142156.80000001192,142167,142367.004,,42,close
screen,html.Screen,2_1_0_1_43,2022-02-04T11:31:54.333Z,,,,,,,,,,,,,,,,,53,,,,,,,,,,,,,,299.79600001193467,,response,,,,99,,,,,,,Space,keypress(Space),,,,,,,,---- -- ----- -- ------ - ------- --- ----------<br>------------- ------ ------ ---- ---- ------- ----- -- ----<br>-------- ------- -- ---------- --- - --- ----- ----- ----<br>---- --- --- ----- --- ---- ---- ------- ----- ---- -------<br>--- --- -- ----- as --- ---- -- --- ---- -- ------ ------<br>--- ----- -- ----,142676,142666.80000001192,142350.337,142361,142367.004,142683.677,,43,as
screen,html.Screen,2_1_0_1_44,2022-02-04T11:31:54.600Z,,,,,,,,,,,,,,,,,53,,,,,,,,,,,,,,253.2229999761621,,response,,,,99,,,,,,,Space,keypress(Space),,,,,,,,---- -- ----- -- ------ - ------- --- ----------<br>------------- ------ ------ ---- ---- ------- ----- -- ----<br>-------- ------- -- ---------- --- - --- ----- ----- ----<br>---- --- --- ----- --- ---- ---- ------- ----- ---- -------<br>--- --- -- ----- -- you ---- -- --- ---- -- ------ ------<br>--- ----- -- ----,142942.80000001192,142936.89999997616,142667.01,142676.19999998808,142683.677,142950.349,,44,you
screen,html.Screen,2_1_0_1_45,2022-02-04T11:31:54.876Z,,,,,,,,,,,,,,,,,53,,,,,,,,,,,,,,262.4510000119335,,response,,,,99,,,,,,,Space,keypress(Space),,,,,,,,---- -- ----- -- ------ - ------- --- ----------<br>------------- ------ ------ ---- ---- ------- ----- -- ----<br>-------- ------- -- ---------- --- - --- ----- ----- ----<br>---- --- --- ----- --- ---- ---- ------- ----- ---- -------<br>--- --- -- ----- -- --- want -- --- ---- -- ------ ------<br>--- ----- -- ----,143218.80000001192,143212.80000001192,142933.682,142942.89999997616,142950.349,143233.688,,45,want
screen,html.Screen,2_1_0_1_46,2022-02-04T11:31:55.135Z,,,,,,,,,,,,,,,,,53,,,,,,,,,,,,,,238.9120000238472,,response,,,,99,,,,,,,Space,keypress(Space),,,,,,,,---- -- ----- -- ------ - ------- --- ----------<br>------------- ------ ------ ---- ---- ------- ----- -- ----<br>-------- ------- -- ---------- --- - --- ----- ----- ----<br>---- --- --- ----- --- ---- ---- ------- ----- ---- -------<br>--- --- -- ----- -- --- ---- to --- ---- -- ------ ------<br>--- ----- -- ----,143478.39999997616,143472.60000002384,143217.021,143218.89999997616,143233.688,143483.693,,46,to
screen,html.Screen,2_1_0_1_47,2022-02-04T11:31:55.374Z,,,,,,,,,,,,,,,,,53,,,,,,,,,,,,,,227.00699998807977,,response,,,,99,,,,,,,Space,keypress(Space),,,,,,,,"---- -- ----- -- ------ - ------- --- ----------<br>------------- ------ ------ ---- ---- ------- ----- -- ----<br>-------- ------- -- ---------- --- - --- ----- ----- ----<br>---- --- --- ----- --- ---- ---- ------- ----- ---- -------<br>--- --- -- ----- -- --- ---- -- be, ---- -- ------ ------<br>--- ----- -- ----",143716.69999998808,143710.69999998808,143467.026,143478.60000002384,143483.693,143733.698,,47,"be,"
screen,html.Screen,2_1_0_1_48,2022-02-04T11:31:55.645Z,,,,,,,,,,,,,,,,,53,,,,,,,,,,,,,,247.9020000238379,,response,,,,99,,,,,,,Space,keypress(Space),,,,,,,,---- -- ----- -- ------ - ------- --- ----------<br>------------- ------ ------ ---- ---- ------- ----- -- ----<br>-------- ------- -- ---------- --- - --- ----- ----- ----<br>---- --- --- ----- --- ---- ---- ------- ----- ---- -------<br>--- --- -- ----- -- --- ---- -- --- even -- ------ ------<br>--- ----- -- ----,143988,143981.60000002384,143717.031,143716.80000001192,143733.698,144000.37,,48,even
screen,html.Screen,2_1_0_1_49,2022-02-04T11:31:55.907Z,,,,,,,,,,,,,,,,,53,,,,,,,,,,,,,,244.32999998808373,,response,,,,99,,,,,,,Space,keypress(Space),,,,,,,,---- -- ----- -- ------ - ------- --- ----------<br>------------- ------ ------ ---- ---- ------- ----- -- ----<br>-------- ------- -- ---------- --- - --- ----- ----- ----<br>---- --- --- ----- --- ---- ---- ------- ----- ---- -------<br>--- --- -- ----- -- --- ---- -- --- ---- if ------ ------<br>--- ----- -- ----,144250.60000002384,144244.69999998808,143983.703,143988.30000001192,144000.37,144267.042,,49,if
screen,html.Screen,2_1_0_1_50,2022-02-04T11:31:56.123Z,,,,,,,,,,,,,,,,,53,,,,,,,,,,,,,,192.7580000119342,,response,,,,99,,,,,,,Space,keypress(Space),,,,,,,,---- -- ----- -- ------ - ------- --- ----------<br>------------- ------ ------ ---- ---- ------- ----- -- ----<br>-------- ------- -- ---------- --- - --- ----- ----- ----<br>---- --- --- ----- --- ---- ---- ------- ----- ---- -------<br>--- --- -- ----- -- --- ---- -- --- ---- -- that's ------<br>--- ----- -- ----,144465.60000002384,144459.80000001192,144250.375,144250.80000001192,144267.042,144483.713,,50,that's
screen,html.Screen,2_1_0_1_51,2022-02-04T11:31:56.433Z,,,,,,,,,,,,,,,,,53,,,,,,,,,,,,,,286.98699998809025,,response,,,,99,,,,,,,Space,keypress(Space),,,,,,,,---- -- ----- -- ------ - ------- --- ----------<br>------------- ------ ------ ---- ---- ------- ----- -- ----<br>-------- ------- -- ---------- --- - --- ----- ----- ----<br>---- --- --- ----- --- ---- ---- ------- ----- ---- -------<br>--- --- -- ----- -- --- ---- -- --- ---- -- ------ really<br>--- ----- -- ----,144776.60000002384,144770.69999998808,144467.046,144465.80000001192,144483.713,144783.719,,51,really
screen,html.Screen,2_1_0_1_52,2022-02-04T11:31:56.732Z,,,,,,,,,,,,,,,,,53,,,,,,,,,,,,,,285.9809999880672,,response,,,,99,,,,,,,Space,keypress(Space),,,,,,,,---- -- ----- -- ------ - ------- --- ----------<br>------------- ------ ------ ---- ---- ------- ----- -- ----<br>-------- ------- -- ---------- --- - --- ----- ----- ----<br>---- --- --- ----- --- ---- ---- ------- ----- ---- -------<br>--- --- -- ----- -- --- ---- -- --- ---- -- ------ ------<br>not ----- -- ----,145075.5,145069.69999998808,144767.052,144776.69999998808,144783.719,145083.725,,52,not
screen,html.Screen,2_1_0_1_53,2022-02-04T11:31:57.019Z,,,,,,,,,,,,,,,,,53,,,,,,,,,,,,,,270.87500002383604,,response,,,,99,,,,,,,Space,keypress(Space),,,,,,,,---- -- ----- -- ------ - ------- --- ----------<br>------------- ------ ------ ---- ---- ------- ----- -- ----<br>-------- ------- -- ---------- --- - --- ----- ----- ----<br>---- --- --- ----- --- ---- ---- ------- ----- ---- -------<br>--- --- -- ----- -- --- ---- -- --- ---- -- ------ ------<br>--- close -- ----,145362.10000002384,145354.60000002384,145067.058,145075.69999998808,145083.725,145367.064,,53,close
screen,html.Screen,2_1_0_1_54,2022-02-04T11:31:57.318Z,,,,,,,,,,,,,,,,,53,,,,,,,,,,,,,,287.63599998806603,,response,,,,99,,,,,,,Space,keypress(Space),,,,,,,,---- -- ----- -- ------ - ------- --- ----------<br>------------- ------ ------ ---- ---- ------- ----- -- ----<br>-------- ------- -- ---------- --- - --- ----- ----- ----<br>---- --- --- ----- --- ---- ---- ------- ----- ---- -------<br>--- --- -- ----- -- --- ---- -- --- ---- -- ------ ------<br>--- ----- at ----,145660.60000002384,145654.69999998808,145350.397,145362.30000001192,145367.064,145667.07,,54,at
screen,html.Screen,2_1_0_1_55,2022-02-04T11:31:57.651Z,,,,,,,,,,,,,,,,,53,,,,,,,,,,,,,,320.5300000238349,,response,,,,99,,,,,,,Space,keypress(Space),,,,,,,,---- -- ----- -- ------ - ------- --- ----------<br>------------- ------ ------ ---- ---- ------- ----- -- ----<br>-------- ------- -- ---------- --- - --- ----- ----- ----<br>---- --- --- ----- --- ---- ---- ------- ----- ---- -------<br>--- --- -- ----- -- --- ---- -- --- ---- -- ------ ------<br>--- ----- -- all.,145993.89999997616,145987.60000002384,145650.403,145660.80000001192,145667.07,146000.41,,55,all.
Item 99,flow.Loop,2_1_0_1,2022-02-04T11:31:57.651Z,,,,,,,,,,,,,,,,,,,,,,,,,,,,,,,20554.268000023847,,completion,,,,,C,,,,,,,,,,,silence,,,,,145994.19999998808,145987.60000002384,125199.994,125202.10000002384,125433.332,146000.41,,,
Question 1,html.Screen,2_1_0_2,2022-02-04T11:32:04.915Z,,,,,,,,,,,,,,,,,,,,,,,,,,,,false,FALSE,,7247.989999976155,,response,,,,99,C,,,,,,TRUE,click #choice-1,,,,silence,,,,,153257.69999998808,153248.39999997616,145983.743,145994.39999997616,146000.41,153267.222,,,
Question 2,html.Screen,2_1_0_3,2022-02-04T11:32:10.207Z,,,,,,,,,,,,,,,,,,,,,,,,,,,,true,TRUE,,5278.878000023833,,response,,,,99,C,,,,,,TRUE,click #choice-1,,,,silence,,,,,158549.80000001192,158546.10000002384,153250.555,153257.80000001192,153267.222,158567.328,,,
Item 99,flow.Sequence,2_1_0,2022-02-04T11:32:10.207Z,,,,,,,,,,,,,,,,,,,,,,,,,,,,,,,43329.639000023846,,completion,,,,,,,,,,,,,,,,,,,,,158550.19999998808,158546.10000002384,115199.794,115207.19999998808,115216.461,158567.328,,,
Holding screen,html.Screen,2_1_1_0,2022-02-04T11:32:20.211Z,,,,,,,,,,,,,,,,,,,,,,,,,,,,,,,10000.199999999983,,timeout,,,,,,,,,,,,,,,,,,,,,168553.39999997616,168550.861,158550.661,158550.5,158567.328,168567.528,,,
screen,html.Screen,2_1_1_1_0,2022-02-04T11:32:21.071Z,,,,,,,,,,,,,,,,,54,,,,,,,,,,,,,,836.371999976167,,response,,,,100,,,,,,,Space,keypress(Space),,,,,,,,At --- ---- --- ------ ----- ------- ---- -- --- ------- --<br>------- ---------- ------ -- ----- -- ----- -- ---- ------<br>--- ----- --- --- ------ -------- ----- --- ------ ----- --<br>----- ----- ---------- --- --- ------ ------ ---- -- ------<br>------- --- ------ ----- --- ---- ------- -- ---- --- --<br>------- ------,169413.89999997616,169403.89999997616,168550.861,168553.80000001192,168567.528,169417.545,,0,At
screen,html.Screen,2_1_1_1_1,2022-02-04T11:32:21.364Z,,,,,,,,,,,,,,,,,54,,,,,,,,,,,,,,283.05500002382905,,response,,,,100,,,,,,,Space,keypress(Space),,,,,,,,-- the ---- --- ------ ----- ------- ---- -- --- ------- --<br>------- ---------- ------ -- ----- -- ----- -- ---- ------<br>--- ----- --- --- ------ -------- ----- --- ------ ----- --<br>----- ----- ---------- --- --- ------ ------ ---- -- ------<br>------- --- ------ ----- --- ---- ------- -- ---- --- --<br>------- ------,169706.5,169700.60000002384,169400.878,169414.39999997616,169417.545,169717.551,,1,the
screen,html.Screen,2_1_1_1_2,2022-02-04T11:32:21.542Z,,,,,,,,,,,,,,,,,54,,,,,,,,,,,,,,161.0490000238351,,response,,,,100,,,,,,,Space,keypress(Space),,,,,,,,-- --- time --- ------ ----- ------- ---- -- --- ------- --<br>------- ---------- ------ -- ----- -- ----- -- ---- ------<br>--- ----- --- --- ------ -------- ----- --- ------ ----- --<br>----- ----- ---------- --- --- ------ ------ ---- -- ------<br>------- --- ------ ----- --- ---- ------- -- ---- --- --<br>------- ------,169884.39999997616,169878.60000002384,169700.884,169706.69999998808,169717.551,169900.888,,2,time
screen,html.Screen,2_1_1_1_3,2022-02-04T11:32:21.792Z,,,,,,,,,,,,,,,,,54,,,,,,,,,,,,,,227.71200002383557,,response,,,,100,,,,,,,Space,keypress(Space),,,,,,,,-- --- ---- the ------ ----- ------- ---- -- --- ------- --<br>------- ---------- ------ -- ----- -- ----- -- ---- ------<br>--- ----- --- --- ------ -------- ----- --- ------ ----- --<br>----- ----- ---------- --- --- ------ ------ ---- -- ------<br>------- --- ------ ----- --- ---- ------- -- ---- --- --<br>------- ------,170134.39999997616,170128.60000002384,169884.221,169884.60000002384,169900.888,170150.893,,3,the
screen,html.Screen,2_1_1_1_4,2022-02-04T11:32:21.965Z,,,,,,,,,,,,,,,,,54,,,,,,,,,,,,,,150.60699999998906,,response,,,,100,,,,,,,Space,keypress(Space),,,,,,,,-- --- ---- --- French ----- ------- ---- -- --- ------- --<br>------- ---------- ------ -- ----- -- ----- -- ---- ------<br>--- ----- --- --- ------ -------- ----- --- ------ ----- --<br>----- ----- ---------- --- --- ------ ------ ---- -- ------<br>------- --- ------ ----- --- ---- ------- -- ---- --- --<br>------- ------,170307.39999997616,170301.5,170134.226,170134.5,170150.893,170317.563,,4,French
screen,html.Screen,2_1_1_1_5,2022-02-04T11:32:22.131Z,,,,,,,,,,,,,,,,,54,,,,,,,,,,,,,,148.8369999761635,,response,,,,100,,,,,,,Space,keypress(Space),,,,,,,,-- --- ---- --- ------ crown ------- ---- -- --- ------- --<br>------- ---------- ------ -- ----- -- ----- -- ---- ------<br>--- ----- --- --- ------ -------- ----- --- ------ ----- --<br>----- ----- ---------- --- --- ------ ------ ---- -- ------<br>------- --- ------ ----- --- ---- ------- -- ---- --- --<br>------- ------,170473.60000002384,170466.39999997616,170300.896,170307.60000002384,170317.563,170484.233,,5,crown
screen,html.Screen,2_1_1_1_6,2022-02-04T11:32:23.469Z,,,,,,,,,,,,,,,,,54,,,,,,,,,,,,,,1319.2669999999925,,response,,,,100,,,,,,,Space,keypress(Space),,,,,,,,-- --- ---- --- ------ ----- secured ---- -- --- ------- --<br>------- ---------- ------ -- ----- -- ----- -- ---- ------<br>--- ----- --- --- ------ -------- ----- --- ------ ----- --<br>----- ----- ---------- --- --- ------ ------ ---- -- ------<br>------- --- ------ ----- --- ---- ------- -- ---- --- --<br>------- ------,171811.39999997616,171803.5,170467.566,170473.80000001192,170484.233,171817.593,,6,secured
screen,html.Screen,2_1_1_1_7,2022-02-04T11:32:23.764Z,,,,,,,,,,,,,,,,,54,,,,,,,,,,,,,,283.70700001192745,,response,,,,100,,,,,,,Space,keypress(Space),,,,,,,,-- --- ---- --- ------ ----- ------- much -- --- ------- --<br>------- ---------- ------ -- ----- -- ----- -- ---- ------<br>--- ----- --- --- ------ -------- ----- --- ------ ----- --<br>----- ----- ---------- --- --- ------ ------ ---- -- ------<br>------- --- ------ ----- --- ---- ------- -- ---- --- --<br>------- ------,172107.10000002384,172101.30000001192,171800.926,171811.5,171817.593,172117.599,,7,much
screen,html.Screen,2_1_1_1_8,2022-02-04T11:32:24.201Z,,,,,,,,,,,,,,,,,54,,,,,,,,,,,,,,419.9010000000126,,response,,,,100,,,,,,,Space,keypress(Space),,,,,,,,-- --- ---- --- ------ ----- ------- ---- of --- ------- --<br>------- ---------- ------ -- ----- -- ----- -- ---- ------<br>--- ----- --- --- ------ -------- ----- --- ------ ----- --<br>----- ----- ---------- --- --- ------ ------ ---- -- ------<br>------- --- ------ ----- --- ---- ------- -- ---- --- --<br>------- ------,172543.39999997616,172537.5,172100.932,172107.30000001192,172117.599,172550.941,,8,of
screen,html.Screen,2_1_1_1_9,2022-02-04T11:32:24.474Z,,,,,,,,,,,,,,,,,54,,,,,,,,,,,,,,259.5590000000084,,response,,,,100,,,,,,,Space,keypress(Space),,,,,,,,-- --- ---- --- ------ ----- ------- ---- -- its ------- --<br>------- ---------- ------ -- ----- -- ----- -- ---- ------<br>--- ----- --- --- ------ -------- ----- --- ------ ----- --<br>----- ----- ---------- --- --- ------ ------ ---- -- ------<br>------- --- ------ ----- --- ---- ------- -- ---- --- --<br>------- ------,172816.60000002384,172810.5,172534.274,172543.69999998808,172550.941,172850.947,,9,its
screen,html.Screen,2_1_1_1_10,2022-02-04T11:32:24.775Z,,,,,,,,,,,,,,,,,54,,,,,,,,,,,,,,260.4529999761726,,response,,,,100,,,,,,,Space,keypress(Space),,,,,,,,-- --- ---- --- ------ ----- ------- ---- -- --- revenue --<br>------- ---------- ------ -- ----- -- ----- -- ---- ------<br>--- ----- --- --- ------ -------- ----- --- ------ ----- --<br>----- ----- ---------- --- --- ------ ------ ---- -- ------<br>------- --- ------ ----- --- ---- ------- -- ---- --- --<br>------- ------,173117.5,173111.39999997616,172817.613,172816.80000001192,172850.947,173134.286,,10,revenue
screen,html.Screen,2_1_1_1_11,2022-02-04T11:32:25.132Z,,,,,,,,,,,,,,,,,54,,,,,,,,,,,,,,334.2140000000072,,response,,,,100,,,,,,,Space,keypress(Space),,,,,,,,-- --- ---- --- ------ ----- ------- ---- -- --- ------- by<br>------- ---------- ------ -- ----- -- ----- -- ---- ------<br>--- ----- --- --- ------ -------- ----- --- ------ ----- --<br>----- ----- ---------- --- --- ------ ------ ---- -- ------<br>------- --- ------ ----- --- ---- ------- -- ---- --- --<br>------- ------,173474.69999998808,173468.5,173117.619,173117.69999998808,173134.286,173484.293,,11,by
screen,html.Screen,2_1_1_1_12,2022-02-04T11:32:25.573Z,,,,,,,,,,,,,,,,,54,,,,,,,,,,,,,,425.106999976153,,response,,,,100,,,,,,,Space,keypress(Space),,,,,,,,-- --- ---- --- ------ ----- ------- ---- -- --- ------- --<br>issuing ---------- ------ -- ----- -- ----- -- ---- ------<br>--- ----- --- --- ------ -------- ----- --- ------ ----- --<br>----- ----- ---------- --- --- ------ ------ ---- -- ------<br>------- --- ------ ----- --- ---- ------- -- ---- --- --<br>------- ------,173915.19999998808,173909.39999997616,173467.626,173474.80000001192,173484.293,173917.635,,12,issuing
screen,html.Screen,2_1_1_1_13,2022-02-04T11:32:25.974Z,,,,,,,,,,,,,,,,,54,,,,,,,,,,,,,,392.6650000119116,,response,,,,100,,,,,,,Space,keypress(Space),,,,,,,,-- --- ---- --- ------ ----- ------- ---- -- --- ------- --<br>------- government ------ -- ----- -- ----- -- ---- ------<br>--- ----- --- --- ------ -------- ----- --- ------ ----- --<br>----- ----- ---------- --- --- ------ ------ ---- -- ------<br>------- --- ------ ----- --- ---- ------- -- ---- --- --<br>------- ------,174316.39999997616,174310.30000001192,173900.968,173915.39999997616,173917.635,174334.31,,13,government
screen,html.Screen,2_1_1_1_14,2022-02-04T11:32:26.289Z,,,,,,,,,,,,,,,,,54,,,,,,,,,,,,,,291.99000001192326,,response,,,,100,,,,,,,Space,keypress(Space),,,,,,,,-- --- ---- --- ------ ----- ------- ---- -- --- ------- --<br>------- ---------- bonds. -- ----- -- ----- -- ---- ------<br>--- ----- --- --- ------ -------- ----- --- ------ ----- --<br>----- ----- ---------- --- --- ------ ------ ---- -- ------<br>------- --- ------ ----- --- ---- ------- -- ---- --- --<br>------- ------,174631.89999997616,174626.30000001192,174317.643,174316.5,174334.31,174650.983,,14,bonds.
screen,html.Screen,2_1_1_1_15,2022-02-04T11:32:27.272Z,,,,,,,,,,,,,,,,,54,,,,,,,,,,,,,,957.3170000119135,,response,,,,100,,,,,,,Space,keypress(Space),,,,,,,,-- --- ---- --- ------ ----- ------- ---- -- --- ------- --<br>------- ---------- ------ In ----- -- ----- -- ---- ------<br>--- ----- --- --- ------ -------- ----- --- ------ ----- --<br>----- ----- ---------- --- --- ------ ------ ---- -- ------<br>------- --- ------ ----- --- ---- ------- -- ---- --- --<br>------- ------,175614.39999997616,175608.30000001192,174634.316,174632,174650.983,175617.669,,15,In
screen,html.Screen,2_1_1_1_16,2022-02-04T11:32:27.585Z,,,,,,,,,,,,,,,,,54,,,,,,,,,,,,,,302.73099997616373,,response,,,,100,,,,,,,Space,keypress(Space),,,,,,,,"-- --- ---- --- ------ ----- ------- ---- -- --- ------- --<br>------- ---------- ------ -- 1727, -- ----- -- ---- ------<br>--- ----- --- --- ------ -------- ----- --- ------ ----- --<br>----- ----- ---------- --- --- ------ ------ ---- -- ------<br>------- --- ------ ----- --- ---- ------- -- ---- --- --<br>------- ------",175927.30000001192,175920.39999997616,175601.002,175614.60000002384,175617.669,175934.342,,16,"1727,"
screen,html.Screen,2_1_1_1_17,2022-02-04T11:32:28.019Z,,,,,,,,,,,,,,,,,54,,,,,,,,,,,,,,420.95800001191674,,response,,,,100,,,,,,,Space,keypress(Space),,,,,,,,-- --- ---- --- ------ ----- ------- ---- -- --- ------- --<br>------- ---------- ------ -- ----- in ----- -- ---- ------<br>--- ----- --- --- ------ -------- ----- --- ------ ----- --<br>----- ----- ---------- --- --- ------ ------ ---- -- ------<br>------- --- ------ ----- --- ---- ------- -- ---- --- --<br>------- ------,176361.10000002384,176355.30000001192,175917.675,175927.5,175934.342,176367.684,,17,in
screen,html.Screen,2_1_1_1_18,2022-02-04T11:32:28.483Z,,,,,,,,,,,,,,,,,54,,,,,,,,,,,,,,450.61600001191255,,response,,,,100,,,,,,,Space,keypress(Space),,,,,,,,-- --- ---- --- ------ ----- ------- ---- -- --- ------- --<br>------- ---------- ------ -- ----- -- order -- ---- ------<br>--- ----- --- --- ------ -------- ----- --- ------ ----- --<br>----- ----- ---------- --- --- ------ ------ ---- -- ------<br>------- --- ------ ----- --- ---- ------- -- ---- --- --<br>------- ------,176825.39999997616,176818.30000001192,176351.017,176361.30000001192,176367.684,176834.36,,18,order
screen,html.Screen,2_1_1_1_19,2022-02-04T11:32:28.721Z,,,,,,,,,,,,,,,,,54,,,,,,,,,,,,,,219.9400000119349,,response,,,,100,,,,,,,Space,keypress(Space),,,,,,,,-- --- ---- --- ------ ----- ------- ---- -- --- ------- --<br>------- ---------- ------ -- ----- -- ----- to ---- ------<br>--- ----- --- --- ------ -------- ----- --- ------ ----- --<br>----- ----- ---------- --- --- ------ ------ ---- -- ------<br>------- --- ------ ----- --- ---- ------- -- ---- --- --<br>------- ------,177063.19999998808,177054.30000001192,176817.693,176825.5,176834.36,177067.698,,19,to
screen,html.Screen,2_1_1_1_20,2022-02-04T11:32:28.869Z,,,,,,,,,,,,,,,,,54,,,,,,,,,,,,,,137.5019999880751,,response,,,,100,,,,,,,Space,keypress(Space),,,,,,,,-- --- ---- --- ------ ----- ------- ---- -- --- ------- --<br>------- ---------- ------ -- ----- -- ----- -- save ------<br>--- ----- --- --- ------ -------- ----- --- ------ ----- --<br>----- ----- ---------- --- --- ------ ------ ---- -- ------<br>------- --- ------ ----- --- ---- ------- -- ---- --- --<br>------- ------,177211.30000001192,177205.19999998808,177051.031,177063.5,177067.698,177217.701,,20,save
screen,html.Screen,2_1_1_1_21,2022-02-04T11:32:29.199Z,,,,,,,,,,,,,,,,,54,,,,,,,,,,,,,,319.29899999999907,,response,,,,100,,,,,,,Space,keypress(Space),,,,,,,,"-- --- ---- --- ------ ----- ------- ---- -- --- ------- --<br>------- ---------- ------ -- ----- -- ----- -- ---- money,<br>--- ----- --- --- ------ -------- ----- --- ------ ----- --<br>----- ----- ---------- --- --- ------ ------ ---- -- ------<br>------- --- ------ ----- --- ---- ------- -- ---- --- --<br>------- ------",177541.69999998808,177537,177201.034,177211.39999997616,177217.701,177551.041,,21,"money,"
screen,html.Screen,2_1_1_1_22,2022-02-04T11:32:29.549Z,,,,,,,,,,,,,,,,,54,,,,,,,,,,,,,,331.95900000000256,,response,,,,100,,,,,,,Space,keypress(Space),,,,,,,,-- --- ---- --- ------ ----- ------- ---- -- --- ------- --<br>------- ---------- ------ -- ----- -- ----- -- ---- ------<br>the ----- --- --- ------ -------- ----- --- ------ ----- --<br>----- ----- ---------- --- --- ------ ------ ---- -- ------<br>------- --- ------ ----- --- ---- ------- -- ---- --- --<br>------- ------,177891.39999997616,177883,177534.374,177541.89999997616,177551.041,177901.048,,22,the
screen,html.Screen,2_1_1_1_23,2022-02-04T11:32:29.855Z,,,,,,,,,,,,,,,,,54,,,,,,,,,,,,,,290.0520000238321,,response,,,,100,,,,,,,Space,keypress(Space),,,,,,,,-- --- ---- --- ------ ----- ------- ---- -- --- ------- --<br>------- ---------- ------ -- ----- -- ----- -- ---- ------<br>--- state --- --- ------ -------- ----- --- ------ ----- --<br>----- ----- ---------- --- --- ------ ------ ---- -- ------<br>------- --- ------ ----- --- ---- ------- -- ---- --- --<br>------- ------,178197.39999997616,178191.10000002384,177884.381,177891.60000002384,177901.048,178201.054,,23,state
screen,html.Screen,2_1_1_1_24,2022-02-04T11:32:30.169Z,,,,,,,,,,,,,,,,,54,,,,,,,,,,,,,,306.9459999999963,,response,,,,100,,,,,,,Space,keypress(Space),,,,,,,,-- --- ---- --- ------ ----- ------- ---- -- --- ------- --<br>------- ---------- ------ -- ----- -- ----- -- ---- ------<br>--- ----- cut --- ------ -------- ----- --- ------ ----- --<br>----- ----- ---------- --- --- ------ ------ ---- -- ------<br>------- --- ------ ----- --- ---- ------- -- ---- --- --<br>------- ------,178512,178508,178184.387,178197.60000002384,178201.054,178517.727,,24,cut
screen,html.Screen,2_1_1_1_25,2022-02-04T11:32:30.500Z,,,,,,,,,,,,,,,,,54,,,,,,,,,,,,,,318.47299998806557,,response,,,,100,,,,,,,Space,keypress(Space),,,,,,,,-- --- ---- --- ------ ----- ------- ---- -- --- ------- --<br>------- ---------- ------ -- ----- -- ----- -- ---- ------<br>--- ----- --- the ------ -------- ----- --- ------ ----- --<br>----- ----- ---------- --- --- ------ ------ ---- -- ------<br>------- --- ------ ----- --- ---- ------- -- ---- --- --<br>------- ------,178842.39999997616,178836.19999998808,178501.06,178512.10000002384,178517.727,178851.067,,25,the
screen,html.Screen,2_1_1_1_26,2022-02-04T11:32:30.772Z,,,,,,,,,,,,,,,,,54,,,,,,,,,,,,,,256.93299999999,,response,,,,100,,,,,,,Space,keypress(Space),,,,,,,,-- --- ---- --- ------ ----- ------- ---- -- --- ------- --<br>------- ---------- ------ -- ----- -- ----- -- ---- ------<br>--- ----- --- --- bonds' -------- ----- --- ------ ----- --<br>----- ----- ---------- --- --- ------ ------ ---- -- ------<br>------- --- ------ ----- --- ---- ------- -- ---- --- --<br>------- ------,179114.10000002384,179108,178834.4,178842.5,178851.067,179117.739,,26,bonds'
screen,html.Screen,2_1_1_1_27,2022-02-04T11:32:31.106Z,,,,,,,,,,,,,,,,,54,,,,,,,,,,,,,,324.36100002384046,,response,,,,100,,,,,,,Space,keypress(Space),,,,,,,,-- --- ---- --- ------ ----- ------- ---- -- --- ------- --<br>------- ---------- ------ -- ----- -- ----- -- ---- ------<br>--- ----- --- --- ------ interest ----- --- ------ ----- --<br>----- ----- ---------- --- --- ------ ------ ---- -- ------<br>------- --- ------ ----- --- ---- ------- -- ---- --- --<br>------- ------,179448.39999997616,179442.10000002384,179101.072,179114.19999998808,179117.739,179451.079,,27,interest
screen,html.Screen,2_1_1_1_28,2022-02-04T11:32:31.429Z,,,,,,,,,,,,,,,,,54,,,,,,,,,,,,,,315.02100002384395,,response,,,,100,,,,,,,Space,keypress(Space),,,,,,,,-- --- ---- --- ------ ----- ------- ---- -- --- ------- --<br>------- ---------- ------ -- ----- -- ----- -- ---- ------<br>--- ----- --- --- ------ -------- rate. --- ------ ----- --<br>----- ----- ---------- --- --- ------ ------ ---- -- ------<br>------- --- ------ ----- --- ---- ------- -- ---- --- --<br>------- ------,179771.80000001192,179766.10000002384,179434.412,179448.60000002384,179451.079,179784.419,,28,rate.
screen,html.Screen,2_1_1_1_29,2022-02-04T11:32:31.741Z,,,,,,,,,,,,,,,,,54,,,,,,,,,,,,,,293.5810000000056,,response,,,,100,,,,,,,Space,keypress(Space),,,,,,,,-- --- ---- --- ------ ----- ------- ---- -- --- ------- --<br>------- ---------- ------ -- ----- -- ----- -- ---- ------<br>--- ----- --- --- ------ -------- ----- The ------ ----- --<br>----- ----- ---------- --- --- ------ ------ ---- -- ------<br>------- --- ------ ----- --- ---- ------- -- ---- --- --<br>------- ------,180083.80000001192,180078,179767.752,179771.89999997616,179784.419,180101.092,,29,The
screen,html.Screen,2_1_1_1_30,2022-02-04T11:32:32.089Z,,,,,,,,,,,,,,,,,54,,,,,,,,,,,,,,324.80799997615395,,response,,,,100,,,,,,,Space,keypress(Space),,,,,,,,-- --- ---- --- ------ ----- ------- ---- -- --- ------- --<br>------- ---------- ------ -- ----- -- ----- -- ---- ------<br>--- ----- --- --- ------ -------- ----- --- market ----- --<br>----- ----- ---------- --- --- ------ ------ ---- -- ------<br>------- --- ------ ----- --- ---- ------- -- ---- --- --<br>------- ------,180432,180425.89999997616,180084.425,180083.89999997616,180101.092,180434.432,,30,market
screen,html.Screen,2_1_1_1_31,2022-02-04T11:32:32.354Z,,,,,,,,,,,,,,,,,54,,,,,,,,,,,,,,255.5679999999993,,response,,,,100,,,,,,,Space,keypress(Space),,,,,,,,-- --- ---- --- ------ ----- ------- ---- -- --- ------- --<br>------- ---------- ------ -- ----- -- ----- -- ---- ------<br>--- ----- --- --- ------ -------- ----- --- ------ value --<br>----- ----- ---------- --- --- ------ ------ ---- -- ------<br>------- --- ------ ----- --- ---- ------- -- ---- --- --<br>------- ------,180696.10000002384,180690,180417.765,180432.10000002384,180434.432,180701.104,,31,value
screen,html.Screen,2_1_1_1_32,2022-02-04T11:32:32.662Z,,,,,,,,,,,,,,,,,54,,,,,,,,,,,,,,297.8960000000079,,response,,,,100,,,,,,,Space,keypress(Space),,,,,,,,-- --- ---- --- ------ ----- ------- ---- -- --- ------- --<br>------- ---------- ------ -- ----- -- ----- -- ---- ------<br>--- ----- --- --- ------ -------- ----- --- ------ ----- of<br>----- ----- ---------- --- --- ------ ------ ---- -- ------<br>------- --- ------ ----- --- ---- ------- -- ---- --- --<br>------- ------,181005,180999,180684.437,180696.30000001192,180701.104,181017.777,,32,of
screen,html.Screen,2_1_1_1_33,2022-02-04T11:32:32.902Z,,,,,,,,,,,,,,,,,54,,,,,,,,,,,,,,221.22299999999814,,response,,,,100,,,,,,,Space,keypress(Space),,,,,,,,-- --- ---- --- ------ ----- ------- ---- -- --- ------- --<br>------- ---------- ------ -- ----- -- ----- -- ---- ------<br>--- ----- --- --- ------ -------- ----- --- ------ ----- --<br>these ----- ---------- --- --- ------ ------ ---- -- ------<br>------- --- ------ ----- --- ---- ------- -- ---- --- --<br>------- ------,181244.80000001192,181239,181001.11,181005.10000002384,181017.777,181251.115,,33,these
screen,html.Screen,2_1_1_1_34,2022-02-04T11:32:33.229Z,,,,,,,,,,,,,,,,,54,,,,,,,,,,,,,,314.8850000000093,,response,,,,100,,,,,,,Space,keypress(Space),,,,,,,,-- --- ---- --- ------ ----- ------- ---- -- --- ------- --<br>------- ---------- ------ -- ----- -- ----- -- ---- ------<br>--- ----- --- --- ------ -------- ----- --- ------ ----- --<br>----- bonds ---------- --- --- ------ ------ ---- -- ------<br>------- --- ------ ----- --- ---- ------- -- ---- --- --<br>------- ------,181571.89999997616,181566,181234.448,181245,181251.115,181584.455,,34,bonds
screen,html.Screen,2_1_1_1_35,2022-02-04T11:32:33.616Z,,,,,,,,,,,,,,,,,54,,,,,,,,,,,,,,368.5450000000128,,response,,,,100,,,,,,,Space,keypress(Space),,,,,,,,"-- --- ---- --- ------ ----- ------- ---- -- --- ------- --<br>------- ---------- ------ -- ----- -- ----- -- ---- ------<br>--- ----- --- --- ------ -------- ----- --- ------ ----- --<br>----- ----- plummeted, --- --- ------ ------ ---- -- ------<br>------- --- ------ ----- --- ---- ------- -- ---- --- --<br>------- ------",181959,181953,181567.788,181572.10000002384,181584.455,181967.796,,35,"plummeted,"
screen,html.Screen,2_1_1_1_36,2022-02-04T11:32:33.937Z,,,,,,,,,,,,,,,,,54,,,,,,,,,,,,,,306.10399997615605,,response,,,,100,,,,,,,Space,keypress(Space),,,,,,,,-- --- ---- --- ------ ----- ------- ---- -- --- ------- --<br>------- ---------- ------ -- ----- -- ----- -- ---- ------<br>--- ----- --- --- ------ -------- ----- --- ------ ----- --<br>----- ----- ---------- and --- ------ ------ ---- -- ------<br>------- --- ------ ----- --- ---- ------- -- ---- --- --<br>------- ------,182280,182273.89999997616,181951.129,181959.19999998808,181967.796,182284.469,,36,and
screen,html.Screen,2_1_1_1_37,2022-02-04T11:32:34.258Z,,,,,,,,,,,,,,,,,54,,,,,,,,,,,,,,310.43099997614627,,response,,,,100,,,,,,,Space,keypress(Space),,,,,,,,-- --- ---- --- ------ ----- ------- ---- -- --- ------- --<br>------- ---------- ------ -- ----- -- ----- -- ---- ------<br>--- ----- --- --- ------ -------- ----- --- ------ ----- --<br>----- ----- ---------- --- the ------ ------ ---- -- ------<br>------- --- ------ ----- --- ---- ------- -- ---- --- --<br>------- ------,182601,182594.89999997616,182267.802,182280.19999998808,182284.469,182617.809,,37,the
screen,html.Screen,2_1_1_1_38,2022-02-04T11:32:34.590Z,,,,,,,,,,,,,,,,,54,,,,,,,,,,,,,,308.09099997614976,,response,,,,100,,,,,,,Space,keypress(Space),,,,,,,,-- --- ---- --- ------ ----- ------- ---- -- --- ------- --<br>------- ---------- ------ -- ----- -- ----- -- ---- ------<br>--- ----- --- --- ------ -------- ----- --- ------ ----- --<br>----- ----- ---------- --- --- market ------ ---- -- ------<br>------- --- ------ ----- --- ---- ------- -- ---- --- --<br>------- ------,182932.60000002384,182925.89999997616,182601.142,182601.10000002384,182617.809,182951.149,,38,market
screen,html.Screen,2_1_1_1_39,2022-02-04T11:32:34.935Z,,,,,,,,,,,,,,,,,54,,,,,,,,,,,,,,320.75099997615325,,response,,,,100,,,,,,,Space,keypress(Space),,,,,,,,-- --- ---- --- ------ ----- ------- ---- -- --- ------- --<br>------- ---------- ------ -- ----- -- ----- -- ---- ------<br>--- ----- --- --- ------ -------- ----- --- ------ ----- --<br>----- ----- ---------- --- --- ------ became ---- -- ------<br>------- --- ------ ----- --- ---- ------- -- ---- --- --<br>------- ------,183277.89999997616,183271.89999997616,182934.482,182932.69999998808,182951.149,183284.489,,39,became
screen,html.Screen,2_1_1_1_40,2022-02-04T11:32:35.275Z,,,,,,,,,,,,,,,,,54,,,,,,,,,,,,,,327.41099997615675,,response,,,,100,,,,,,,Space,keypress(Space),,,,,,,,-- --- ---- --- ------ ----- ------- ---- -- --- ------- --<br>------- ---------- ------ -- ----- -- ----- -- ---- ------<br>--- ----- --- --- ------ -------- ----- --- ------ ----- --<br>----- ----- ---------- --- --- ------ ------ wary -- ------<br>------- --- ------ ----- --- ---- ------- -- ---- --- --<br>------- ------,183617.60000002384,183611.89999997616,183267.822,183278.10000002384,183284.489,183634.496,,40,wary
screen,html.Screen,2_1_1_1_41,2022-02-04T11:32:35.647Z,,,,,,,,,,,,,,,,,54,,,,,,,,,,,,,,347.4039999761444,,response,,,,100,,,,,,,Space,keypress(Space),,,,,,,,-- --- ---- --- ------ ----- ------- ---- -- --- ------- --<br>------- ---------- ------ -- ----- -- ----- -- ---- ------<br>--- ----- --- --- ------ -------- ----- --- ------ ----- --<br>----- ----- ---------- --- --- ------ ------ ---- of ------<br>------- --- ------ ----- --- ---- ------- -- ---- --- --<br>------- ------,183989.69999998808,183981.89999997616,183617.829,183617.80000001192,183634.496,184001.17,,41,of
screen,html.Screen,2_1_1_1_42,2022-02-04T11:32:36.034Z,,,,,,,,,,,,,,,,,54,,,,,,,,,,,,,,369.72999997614534,,response,,,,100,,,,,,,Space,keypress(Space),,,,,,,,-- --- ---- --- ------ ----- ------- ---- -- --- ------- --<br>------- ---------- ------ -- ----- -- ----- -- ---- ------<br>--- ----- --- --- ------ -------- ----- --- ------ ----- --<br>----- ----- ---------- --- --- ------ ------ ---- -- French<br>------- --- ------ ----- --- ---- ------- -- ---- --- --<br>------- ------,184376.69999998808,184370.89999997616,183984.503,183989.80000001192,184001.17,184384.511,,42,French
screen,html.Screen,2_1_1_1_43,2022-02-04T11:32:36.361Z,,,,,,,,,,,,,,,,,54,,,,,,,,,,,,,,313.38899997615954,,response,,,,100,,,,,,,Space,keypress(Space),,,,,,,,-- --- ---- --- ------ ----- ------- ---- -- --- ------- --<br>------- ---------- ------ -- ----- -- ----- -- ---- ------<br>--- ----- --- --- ------ -------- ----- --- ------ ----- --<br>----- ----- ---------- --- --- ------ ------ ---- -- ------<br>credit. --- ------ ----- --- ---- ------- -- ---- --- --<br>------- ------,184703.69999998808,184697.89999997616,184367.844,184376.89999997616,184384.511,184717.851,,43,credit.
screen,html.Screen,2_1_1_1_44,2022-02-04T11:32:36.760Z,,,,,,,,,,,,,,,,,54,,,,,,,,,,,,,,378.9490000119258,,response,,,,100,,,,,,,Space,keypress(Space),,,,,,,,-- --- ---- --- ------ ----- ------- ---- -- --- ------- --<br>------- ---------- ------ -- ----- -- ----- -- ---- ------<br>--- ----- --- --- ------ -------- ----- --- ------ ----- --<br>----- ----- ---------- --- --- ------ ------ ---- -- ------<br>------- The ------ ----- --- ---- ------- -- ---- --- --<br>------- ------,185102.80000001192,185096.80000001192,184701.184,184703.89999997616,184717.851,185117.859,,44,The
screen,html.Screen,2_1_1_1_45,2022-02-04T11:32:37.357Z,,,,,,,,,,,,,,,,,54,,,,,,,,,,,,,,575.8409999880823,,response,,,,100,,,,,,,Space,keypress(Space),,,,,,,,-- --- ---- --- ------ ----- ------- ---- -- --- ------- --<br>------- ---------- ------ -- ----- -- ----- -- ---- ------<br>--- ----- --- --- ------ -------- ----- --- ------ ----- --<br>----- ----- ---------- --- --- ------ ------ ---- -- ------<br>------- --- French ----- --- ---- ------- -- ---- --- --<br>------- ------,185699.5,185693.69999998808,185101.192,185102.89999997616,185117.859,185717.871,,45,French
screen,html.Screen,2_1_1_1_46,2022-02-04T11:32:37.661Z,,,,,,,,,,,,,,,,,54,,,,,,,,,,,,,,278.9290000119072,,response,,,,100,,,,,,,Space,keypress(Space),,,,,,,,-- --- ---- --- ------ ----- ------- ---- -- --- ------- --<br>------- ---------- ------ -- ----- -- ----- -- ---- ------<br>--- ----- --- --- ------ -------- ----- --- ------ ----- --<br>----- ----- ---------- --- --- ------ ------ ---- -- ------<br>------- --- ------ state --- ---- ------- -- ---- --- --<br>------- ------,186003.30000001192,185996.80000001192,185701.204,185699.60000002384,185717.871,186017.877,,46,state
screen,html.Screen,2_1_1_1_47,2022-02-04T11:32:37.893Z,,,,,,,,,,,,,,,,,54,,,,,,,,,,,,,,210.8229999880714,,response,,,,100,,,,,,,Space,keypress(Space),,,,,,,,-- --- ---- --- ------ ----- ------- ---- -- --- ------- --<br>------- ---------- ------ -- ----- -- ----- -- ---- ------<br>--- ----- --- --- ------ -------- ----- --- ------ ----- --<br>----- ----- ---------- --- --- ------ ------ ---- -- ------<br>------- --- ------ ----- was ---- ------- -- ---- --- --<br>------- ------,186235.89999997616,186228.69999998808,186001.21,186003.30000001192,186017.877,186251.215,,47,was
screen,html.Screen,2_1_1_1_48,2022-02-04T11:32:38.220Z,,,,,,,,,,,,,,,,,54,,,,,,,,,,,,,,305.48499998808256,,response,,,,100,,,,,,,Space,keypress(Space),,,,,,,,-- --- ---- --- ------ ----- ------- ---- -- --- ------- --<br>------- ---------- ------ -- ----- -- ----- -- ---- ------<br>--- ----- --- --- ------ -------- ----- --- ------ ----- --<br>----- ----- ---------- --- --- ------ ------ ---- -- ------<br>------- --- ------ ----- --- left ------- -- ---- --- --<br>------- ------,186562.60000002384,186556.69999998808,186234.548,186236,186251.215,186567.888,,48,left
screen,html.Screen,2_1_1_1_49,2022-02-04T11:32:38.490Z,,,,,,,,,,,,,,,,,54,,,,,,,,,,,,,,258.8119999880728,,response,,,,100,,,,,,,Space,keypress(Space),,,,,,,,-- --- ---- --- ------ ----- ------- ---- -- --- ------- --<br>------- ---------- ------ -- ----- -- ----- -- ---- ------<br>--- ----- --- --- ------ -------- ----- --- ------ ----- --<br>----- ----- ---------- --- --- ------ ------ ---- -- ------<br>------- --- ------ ----- --- ---- without -- ---- --- --<br>------- ------,186832.39999997616,186826.69999998808,186551.221,186562.69999998808,186567.888,186851.227,,49,without
screen,html.Screen,2_1_1_1_50,2022-02-04T11:32:38.819Z,,,,,,,,,,,,,,,,,54,,,,,,,,,,,,,,303.47299998806557,,response,,,,100,,,,,,,Space,keypress(Space),,,,,,,,-- --- ---- --- ------ ----- ------- ---- -- --- ------- --<br>------- ---------- ------ -- ----- -- ----- -- ---- ------<br>--- ----- --- --- ------ -------- ----- --- ------ ----- --<br>----- ----- ---------- --- --- ------ ------ ---- -- ------<br>------- --- ------ ----- --- ---- ------- an ---- --- --<br>------- ------,187161.5,187154.69999998808,186834.56,186832.60000002384,186851.227,187167.9,,50,an
screen,html.Screen,2_1_1_1_51,2022-02-04T11:32:39.205Z,,,,,,,,,,,,,,,,,54,,,,,,,,,,,,,,373.7999999880849,,response,,,,100,,,,,,,Space,keypress(Space),,,,,,,,-- --- ---- --- ------ ----- ------- ---- -- --- ------- --<br>------- ---------- ------ -- ----- -- ----- -- ---- ------<br>--- ----- --- --- ------ -------- ----- --- ------ ----- --<br>----- ----- ---------- --- --- ------ ------ ---- -- ------<br>------- --- ------ ----- --- ---- ------- -- easy --- --<br>------- ------,187548,187541.69999998808,187151.233,187161.69999998808,187167.9,187551.241,,51,easy
screen,html.Screen,2_1_1_1_52,2022-02-04T11:32:39.543Z,,,,,,,,,,,,,,,,,54,,,,,,,,,,,,,,327.45899998807,,response,,,,100,,,,,,,Space,keypress(Space),,,,,,,,-- --- ---- --- ------ ----- ------- ---- -- --- ------- --<br>------- ---------- ------ -- ----- -- ----- -- ---- ------<br>--- ----- --- --- ------ -------- ----- --- ------ ----- --<br>----- ----- ---------- --- --- ------ ------ ---- -- ------<br>------- --- ------ ----- --- ---- ------- -- ---- way --<br>------- ------,187885,187878.69999998808,187534.574,187548.19999998808,187551.241,187901.248,,52,way
screen,html.Screen,2_1_1_1_53,2022-02-04T11:32:39.914Z,,,,,,,,,,,,,,,,,54,,,,,,,,,,,,,,349.35200002384954,,response,,,,100,,,,,,,Space,keypress(Space),,,,,,,,-- --- ---- --- ------ ----- ------- ---- -- --- ------- --<br>------- ---------- ------ -- ----- -- ----- -- ---- ------<br>--- ----- --- --- ------ -------- ----- --- ------ ----- --<br>----- ----- ---------- --- --- ------ ------ ---- -- ------<br>------- --- ------ ----- --- ---- ------- -- ---- --- of<br>------- ------,188256.60000002384,188250.60000002384,187884.581,187885.10000002384,187901.248,188267.922,,53,of
screen,html.Screen,2_1_1_1_54,2022-02-04T11:32:40.473Z,,,,,,,,,,,,,,,,,54,,,,,,,,,,,,,,541.6780000238505,,response,,,,100,,,,,,,Space,keypress(Space),,,,,,,,-- --- ---- --- ------ ----- ------- ---- -- --- ------- --<br>------- ---------- ------ -- ----- -- ----- -- ---- ------<br>--- ----- --- --- ------ -------- ----- --- ------ ----- --<br>----- ----- ---------- --- --- ------ ------ ---- -- ------<br>------- --- ------ ----- --- ---- ------- -- ---- --- --<br>raising ------,188815.69999998808,188809.60000002384,188251.255,188256.69999998808,188267.922,188834.6,,54,raising
screen,html.Screen,2_1_1_1_55,2022-02-04T11:32:41.149Z,,,,,,,,,,,,,,,,,54,,,,,,,,,,,,,,650.7999999761523,,response,,,,100,,,,,,,Space,keypress(Space),,,,,,,,-- --- ---- --- ------ ----- ------- ---- -- --- ------- --<br>------- ---------- ------ -- ----- -- ----- -- ---- ------<br>--- ----- --- --- ------ -------- ----- --- ------ ----- --<br>----- ----- ---------- --- --- ------ ------ ---- -- ------<br>------- --- ------ ----- --- ---- ------- -- ---- --- --<br>------- money.,189491.89999997616,189485.39999997616,188817.933,188815.80000001192,188834.6,189501.28,,55,money.
Item 100,flow.Loop,2_1_1_1,2022-02-04T11:32:41.150Z,,,,,,,,,,,,,,,,,,,,,,,,,,,,,,,20917.871999976167,,completion,,,,,C,,,,,,,,,,,silence,,,,,189492.19999998808,189485.39999997616,168550.861,168553.60000002384,168567.528,189501.28,,,
Question 1,html.Screen,2_1_1_2,2022-02-04T11:32:45.030Z,,,,,,,,,,,,,,,,,,,,,,,,,,,,true,TRUE,,3866.720000000001,,response,,,,100,C,,,,,,TRUE,click #choice-1,,,,silence,,,,,193371.89999997616,193368,189484.613,189492.39999997616,189501.28,193384.691,,,
Question 2,html.Screen,2_1_1_3,2022-02-04T11:32:47.208Z,,,,,,,,,,,,,,,,,,,,,,,,,,,,true,FALSE,,2162.0089999880875,,response,,,,100,C,,,,,,FALSE,click #choice-2,,,,silence,,,,,195550.60000002384,195546.69999998808,193368.024,193372.19999998808,193384.691,195568.068,,,
Item 100,flow.Sequence,2_1_1,2022-02-04T11:32:47.209Z,,,,,,,,,,,,,,,,,,,,,,,,,,,,,,,36979.37199998807,,completion,,,,,,,,,,,,,,,,,,,,,195550.80000001192,195546.69999998808,158550.661,158550.39999997616,158567.328,195568.068,,,
End of Practice,html.Page,2_1_2,2022-02-04T11:32:50.820Z,,,,,,,,,,,,,,,,,,,,,,,,,,,,,,,3591.831999976159,,form submission,,,,,,,,,,,,,,,,,,,,,199162.19999998808,199159.89999997616,195551.401,195551,195568.068,199184.807,,,
Practice,flow.Sequence,2_1,2022-02-04T11:32:50.821Z,,,,,,,,,,,,,,,,,,,,,,,,,,,,,,,83943.43899997616,,completion,,,,,,,,,,,,,,,,,,,,,199163.19999998808,199159.89999997616,115199.794,115206.89999997616,115216.461,199184.807,,,
Trap_instruction,html.Page,2_2_0,2022-02-04T11:32:54.197Z,,,,,,,,,,,,,,,,,,,,,,,,,,,,,,,3353.6929999999993,,form submission,,,,,,,,,,,,,,,,,,,,,202539.10000002384,202538.5,199168.14,199164.19999998808,199184.807,202618.209,,,
trap_trial,html.Screen,2_2_1,2022-02-04T11:32:58.068Z,,,,,,,,,,,,,,,,,,,,,,,,,,,,true,1,,3787.5910000119184,,response,,,,,,,,,,,1,click #choice-1,,,,,,,,,206410,206405.80000001192,202534.874,202539.19999998808,202618.209,206434.952,,,
end of trap trial,html.Page,2_2_2,2022-02-04T11:33:00.683Z,,,,,,,,,,,,,,,,,,,,,,,,,,,,,,,2589.6480000238516,,form submission,,,,,,,,,,,,,,,,,,,,,209025.60000002384,209024.60000002384,206418.285,206410.30000001192,206434.952,209035.004,,,
Trap 1,flow.Sequence,2_2,2022-02-04T11:33:00.684Z,,,,,,,,,,,,,,,,,,,,,,,,,,,,,,,9839.793000023841,,completion,,,,,,,,,,,,,,,,,,,,,209025.69999998808,209024.60000002384,199168.14,199164.10000002384,199184.807,209035.004,,,
Standby,html.Page,2_3_0,2022-02-04T11:33:08.679Z,,,,,,,,,,,,,,,,,,,,,,,,,,,,,,,8000.1600000000035,,timeout,,,,,,,,,,,,,,,,,,,,,217020.5,217018.497,209018.337,209025.89999997616,209035.004,217035.164,,,
Holding screen,html.Screen,2_3_1_0_0,2022-02-04T11:33:15.679Z,,,,,,,,,,,,,,,,,,,,,,,,,,,,,,,7000.140000000014,,timeout,,,,,,,,,,,,,,,,,,,,,224020.60000002384,224018.637,217018.497,217021,217035.164,224035.304,,,
screen,html.Screen,2_3_1_0_1_0,2022-02-04T11:33:17.350Z,,,,,,,,,,,,,,,,,51,,,,,,,,,,,,,,1636.2960000238381,,response,,,,13,C,,,,,,Space,keypress(Space),,,,instrumental,,,,American -------- --- --- ---- --- --- ------ -- --------<br>---- --------- --- ------- ------------ ---------- ---------<br>--- ---------- ------- ---------- ------- -- -------- ----<br>---- --- ------ ----- ------ -- ---- --- ----- -- - -------<br>-------- -- --- --- -- ----- ----------- ----- -----------<br>---- --- ---------- --- ---- --- -- ----------,225692.30000001192,225671.60000002384,224018.637,224020.89999997616,224035.304,225702.004,,0,American
screen,html.Screen,2_3_1_0_1_1,2022-02-04T11:33:17.682Z,,,,,,,,,,,,,,,,,51,,,,,,,,,,,,,,315.3959999761719,,response,,,,13,C,,,,,,Space,keypress(Space),,,,instrumental,,,,-------- industry --- --- ---- --- --- ------ -- --------<br>---- --------- --- ------- ------------ ---------- ---------<br>--- ---------- ------- ---------- ------- -- -------- ----<br>---- --- ------ ----- ------ -- ---- --- ----- -- - -------<br>-------- -- --- --- -- ----- ----------- ----- -----------<br>---- --- ---------- --- ---- --- -- ----------,226023.69999998808,226017.39999997616,225685.337,225692.39999997616,225702.004,226035.344,,1,industry
screen,html.Screen,2_3_1_0_1_2,2022-02-04T11:33:18.053Z,,,,,,,,,,,,,,,,,51,,,,,,,,,,,,,,352.95600001190905,,response,,,,13,C,,,,,,Space,keypress(Space),,,,instrumental,,,,-------- -------- may --- ---- --- --- ------ -- --------<br>---- --------- --- ------- ------------ ---------- ---------<br>--- ---------- ------- ---------- ------- -- -------- ----<br>---- --- ------ ----- ------ -- ---- --- ----- -- - -------<br>-------- -- --- --- -- ----- ----------- ----- -----------<br>---- --- ---------- --- ---- --- -- ----------,226394.39999997616,226388.30000001192,226018.677,226023.89999997616,226035.344,226402.018,,2,may
screen,html.Screen,2_3_1_0_1_3,2022-02-04T11:33:18.461Z,,,,,,,,,,,,,,,,,51,,,,,,,,,,,,,,393.28200001191,,response,,,,13,C,,,,,,Space,keypress(Space),,,,instrumental,,,,-------- -------- --- not ---- --- --- ------ -- --------<br>---- --------- --- ------- ------------ ---------- ---------<br>--- ---------- ------- ---------- ------- -- -------- ----<br>---- --- ------ ----- ------ -- ---- --- ----- -- - -------<br>-------- -- --- --- -- ----- ----------- ----- -----------<br>---- --- ---------- --- ---- --- -- ----------,226802.80000001192,226795.30000001192,226385.351,226394.60000002384,226402.018,226818.693,,3,not
screen,html.Screen,2_3_1_0_1_4,2022-02-04T11:33:18.759Z,,,,,,,,,,,,,,,,,51,,,,,,,,,,,,,,275.70699997615884,,response,,,,13,C,,,,,,Space,keypress(Space),,,,instrumental,,,,-------- -------- --- --- know --- --- ------ -- --------<br>---- --------- --- ------- ------------ ---------- ---------<br>--- ---------- ------- ---------- ------- -- -------- ----<br>---- --- ------ ----- ------ -- ---- --- ----- -- - -------<br>-------- -- --- --- -- ----- ----------- ----- -----------<br>---- --- ---------- --- ---- --- -- ----------,227100.60000002384,227094.39999997616,226802.026,226803,226818.693,227118.699,,4,know
screen,html.Screen,2_3_1_0_1_5,2022-02-04T11:33:19.040Z,,,,,,,,,,,,,,,,,51,,,,,,,,,,,,,,257.6010000119277,,response,,,,13,C,,,,,,Space,keypress(Space),,,,instrumental,,,,"-------- -------- --- --- ---- it, --- ------ -- --------<br>---- --------- --- ------- ------------ ---------- ---------<br>--- ---------- ------- ---------- ------- -- -------- ----<br>---- --- ------ ----- ------ -- ---- --- ----- -- - -------<br>-------- -- --- --- -- ----- ----------- ----- -----------<br>---- --- ---------- --- ---- --- -- ----------",227381.80000001192,227376.30000001192,227102.032,227100.80000001192,227118.699,227385.371,,5,"it,"
screen,html.Screen,2_3_1_0_1_6,2022-02-04T11:33:19.433Z,,,,,,,,,,,,,,,,,51,,,,,,,,,,,,,,382.9290000119072,,response,,,,13,C,,,,,,Space,keypress(Space),,,,instrumental,,,,-------- -------- --- --- ---- --- but ------ -- --------<br>---- --------- --- ------- ------------ ---------- ---------<br>--- ---------- ------- ---------- ------- -- -------- ----<br>---- --- ------ ----- ------ -- ---- --- ----- -- - -------<br>-------- -- --- --- -- ----- ----------- ----- -----------<br>---- --- ---------- --- ---- --- -- ----------,227775.19999998808,227768.30000001192,227368.704,227381.89999997616,227385.371,227785.379,,6,but
screen,html.Screen,2_3_1_0_1_7,2022-02-04T11:33:19.752Z,,,,,,,,,,,,,,,,,51,,,,,,,,,,,,,,302.7210000238556,,response,,,,13,C,,,,,,Space,keypress(Space),,,,instrumental,,,,-------- -------- --- --- ---- --- --- debate -- --------<br>---- --------- --- ------- ------------ ---------- ---------<br>--- ---------- ------- ---------- ------- -- -------- ----<br>---- --- ------ ----- ------ -- ---- --- ----- -- - -------<br>-------- -- --- --- -- ----- ----------- ----- -----------<br>---- --- ---------- --- ---- --- -- ----------,228093.89999997616,228088.10000002384,227768.712,227775.39999997616,227785.379,228102.052,,7,debate
screen,html.Screen,2_3_1_0_1_8,2022-02-04T11:33:20.209Z,,,,,,,,,,,,,,,,,51,,,,,,,,,,,,,,442.44800000000396,,response,,,,13,C,,,,,,Space,keypress(Space),,,,instrumental,,,,-------- -------- --- --- ---- --- --- ------ in --------<br>---- --------- --- ------- ------------ ---------- ---------<br>--- ---------- ------- ---------- ------- -- -------- ----<br>---- --- ------ ----- ------ -- ---- --- ----- -- - -------<br>-------- -- --- --- -- ----- ----------- ----- -----------<br>---- --- ---------- --- ---- --- -- ----------,228550.39999997616,228544.5,228085.385,228094,228102.052,228552.061,,8,in
screen,html.Screen,2_3_1_0_1_9,2022-02-04T11:33:20.517Z,,,,,,,,,,,,,,,,,51,,,,,,,,,,,,,,300.1389999880921,,response,,,,13,C,,,,,,Space,keypress(Space),,,,instrumental,,,,-------- -------- --- --- ---- --- --- ------ -- Congress<br>---- --------- --- ------- ------------ ---------- ---------<br>--- ---------- ------- ---------- ------- -- -------- ----<br>---- --- ------ ----- ------ -- ---- --- ----- -- - -------<br>-------- -- --- --- -- ----- ----------- ----- -----------<br>---- --- ---------- --- ---- --- -- ----------,228858.5,228852.19999998808,228535.394,228550.60000002384,228552.061,228868.734,,9,Congress
screen,html.Screen,2_3_1_0_1_10,2022-02-04T11:33:20.831Z,,,,,,,,,,,,,,,,,51,,,,,,,,,,,,,,296.26600000000326,,response,,,,13,C,,,,,,Space,keypress(Space),,,,instrumental,,,,-------- -------- --- --- ---- --- --- ------ -- --------<br>over --------- --- ------- ------------ ---------- ---------<br>--- ---------- ------- ---------- ------- -- -------- ----<br>---- --- ------ ----- ------ -- ---- --- ----- -- - -------<br>-------- -- --- --- -- ----- ----------- ----- -----------<br>---- --- ---------- --- ---- --- -- ----------,229172.5,229165,228852.067,228858.69999998808,228868.734,229185.407,,10,over
screen,html.Screen,2_3_1_0_1_11,2022-02-04T11:33:21.129Z,,,,,,,,,,,,,,,,,51,,,,,,,,,,,,,,278.69300002383534,,response,,,,13,C,,,,,,Space,keypress(Space),,,,instrumental,,,,-------- -------- --- --- ---- --- --- ------ -- --------<br>---- reforming --- ------- ------------ ---------- ---------<br>--- ---------- ------- ---------- ------- -- -------- ----<br>---- --- ------ ----- ------ -- ---- --- ----- -- - -------<br>-------- -- --- --- -- ----- ----------- ----- -----------<br>---- --- ---------- --- ---- --- -- ----------,229471.10000002384,229464.10000002384,229168.74,229172.60000002384,229185.407,229485.413,,11,reforming
screen,html.Screen,2_3_1_0_1_12,2022-02-04T11:33:21.395Z,,,,,,,,,,,,,,,,,51,,,,,,,,,,,,,,244.6870000238414,,response,,,,13,C,,,,,,Space,keypress(Space),,,,instrumental,,,,-------- -------- --- --- ---- --- --- ------ -- --------<br>---- --------- the ------- ------------ ---------- ---------<br>--- ---------- ------- ---------- ------- -- -------- ----<br>---- --- ------ ----- ------ -- ---- --- ----- -- - -------<br>-------- -- --- --- -- ----- ----------- ----- -----------<br>---- --- ---------- --- ---- --- -- ----------,229736.30000001192,229730.10000002384,229468.746,229471.30000001192,229485.413,229752.085,,12,the
screen,html.Screen,2_3_1_0_1_13,2022-02-04T11:33:21.606Z,,,,,,,,,,,,,,,,,51,,,,,,,,,,,,,,190.11499998808722,,response,,,,13,C,,,,,,Space,keypress(Space),,,,instrumental,,,,-------- -------- --- --- ---- --- --- ------ -- --------<br>---- --------- --- federal ------------ ---------- ---------<br>--- ---------- ------- ---------- ------- -- -------- ----<br>---- --- ------ ----- ------ -- ---- --- ----- -- - -------<br>-------- -- --- --- -- ----- ----------- ----- -----------<br>---- --- ---------- --- ---- --- -- ----------,229948.19999998808,229942.19999998808,229735.418,229736.5,229752.085,229952.089,,13,federal
screen,html.Screen,2_3_1_0_1_14,2022-02-04T11:33:21.940Z,,,,,,,,,,,,,,,,,51,,,,,,,,,,,,,,324.11099998807185,,response,,,,13,C,,,,,,Space,keypress(Space),,,,instrumental,,,,-------- -------- --- --- ---- --- --- ------ -- --------<br>---- --------- --- ------- government's ---------- ---------<br>--- ---------- ------- ---------- ------- -- -------- ----<br>---- --- ------ ----- ------ -- ---- --- ----- -- - -------<br>-------- -- --- --- -- ----- ----------- ----- -----------<br>---- --- ---------- --- ---- --- -- ----------,230282.30000001192,230276.19999998808,229935.422,229948.30000001192,229952.089,230285.429,,14,government's
screen,html.Screen,2_3_1_0_1_15,2022-02-04T11:33:22.275Z,,,,,,,,,,,,,,,,,51,,,,,,,,,,,,,,324.67100002383813,,response,,,,13,C,,,,,,Space,keypress(Space),,,,instrumental,,,,-------- -------- --- --- ---- --- --- ------ -- --------<br>---- --------- --- ------- ------------ regulatory ---------<br>--- ---------- ------- ---------- ------- -- -------- ----<br>---- --- ------ ----- ------ -- ---- --- ----- -- - -------<br>-------- -- --- --- -- ----- ----------- ----- -----------<br>---- --- ---------- --- ---- --- -- ----------,230616.30000001192,230610.10000002384,230268.762,230282.5,230285.429,230635.436,,15,regulatory
screen,html.Screen,2_3_1_0_1_16,2022-02-04T11:33:22.688Z,,,,,,,,,,,,,,,,,51,,,,,,,,,,,,,,388.56400000001304,,response,,,,13,C,,,,,,Space,keypress(Space),,,,instrumental,,,,-------- -------- --- --- ---- --- --- ------ -- --------<br>---- --------- --- ------- ------------ ---------- apparatus<br>--- ---------- ------- ---------- ------- -- -------- ----<br>---- --- ------ ----- ------ -- ---- --- ----- -- - -------<br>-------- -- --- --- -- ----- ----------- ----- -----------<br>---- --- ---------- --- ---- --- -- ----------,231030.19999998808,231024,230618.769,230616.80000001192,230635.436,231035.444,,16,apparatus
screen,html.Screen,2_3_1_0_1_17,2022-02-04T11:33:23.060Z,,,,,,,,,,,,,,,,,51,,,,,,,,,,,,,,359.65600002385327,,response,,,,13,C,,,,,,Space,keypress(Space),,,,instrumental,,,,-------- -------- --- --- ---- --- --- ------ -- --------<br>---- --------- --- ------- ------------ ---------- ---------<br>may ---------- ------- ---------- ------- -- -------- ----<br>---- --- ------ ----- ------ -- ---- --- ----- -- - -------<br>-------- -- --- --- -- ----- ----------- ----- -----------<br>---- --- ---------- --- ---- --- -- ----------,231401.5,231395.10000002384,231018.777,231030.30000001192,231035.444,231418.785,,17,may
screen,html.Screen,2_3_1_0_1_18,2022-02-04T11:33:23.408Z,,,,,,,,,,,,,,,,,51,,,,,,,,,,,,,,324.4149999880756,,response,,,,13,C,,,,,,Space,keypress(Space),,,,instrumental,,,,-------- -------- --- --- ---- --- --- ------ -- --------<br>---- --------- --- ------- ------------ ---------- ---------<br>--- profoundly ------- ---------- ------- -- -------- ----<br>---- --- ------ ----- ------ -- ---- --- ----- -- - -------<br>-------- -- --- --- -- ----- ----------- ----- -----------<br>---- --- ---------- --- ---- --- -- ----------,231750,231743.19999998808,231402.118,231401.60000002384,231418.785,231768.792,,18,profoundly
screen,html.Screen,2_3_1_0_1_19,2022-02-04T11:33:23.716Z,,,,,,,,,,,,,,,,,51,,,,,,,,,,,,,,283.30800002385513,,response,,,,13,C,,,,,,Space,keypress(Space),,,,instrumental,,,,-------- -------- --- --- ---- --- --- ------ -- --------<br>---- --------- --- ------- ------------ ---------- ---------<br>--- ---------- improve ---------- ------- -- -------- ----<br>---- --- ------ ----- ------ -- ---- --- ----- -- - -------<br>-------- -- --- --- -- ----- ----------- ----- -----------<br>---- --- ---------- --- ---- --- -- ----------,232058,232052.10000002384,231752.125,231750.10000002384,231768.792,232068.798,,19,improve
screen,html.Screen,2_3_1_0_1_20,2022-02-04T11:33:24.054Z,,,,,,,,,,,,,,,,,51,,,,,,,,,,,,,,321.2019999999902,,response,,,,13,C,,,,,,Space,keypress(Space),,,,instrumental,,,,-------- -------- --- --- ---- --- --- ------ -- --------<br>---- --------- --- ------- ------------ ---------- ---------<br>--- ---------- ------- companies' ------- -- -------- ----<br>---- --- ------ ----- ------ -- ---- --- ----- -- - -------<br>-------- -- --- --- -- ----- ----------- ----- -----------<br>---- --- ---------- --- ---- --- -- ----------,232396,232390,232052.131,232058.10000002384,232068.798,232402.138,,20,companies'
screen,html.Screen,2_3_1_0_1_21,2022-02-04T11:33:24.392Z,,,,,,,,,,,,,,,,,51,,,,,,,,,,,,,,323.66200001191464,,response,,,,13,C,,,,,,Space,keypress(Space),,,,instrumental,,,,-------- -------- --- --- ---- --- --- ------ -- --------<br>---- --------- --- ------- ------------ ---------- ---------<br>--- ---------- ------- ---------- ability -- -------- ----<br>---- --- ------ ----- ------ -- ---- --- ----- -- - -------<br>-------- -- --- --- -- ----- ----------- ----- -----------<br>---- --- ---------- --- ---- --- -- ----------,232733.30000001192,232725.80000001192,232385.471,232396.19999998808,232402.138,232735.478,,21,ability
screen,html.Screen,2_3_1_0_1_22,2022-02-04T11:33:24.733Z,,,,,,,,,,,,,,,,,51,,,,,,,,,,,,,,333.5219999999972,,response,,,,13,C,,,,,,Space,keypress(Space),,,,instrumental,,,,-------- -------- --- --- ---- --- --- ------ -- --------<br>---- --------- --- ------- ------------ ---------- ---------<br>--- ---------- ------- ---------- ------- to -------- ----<br>---- --- ------ ----- ------ -- ---- --- ----- -- - -------<br>-------- -- --- --- -- ----- ----------- ----- -----------<br>---- --- ---------- --- ---- --- -- ----------,233074.80000001192,233069,232718.811,232733.5,232735.478,233085.485,,22,to
screen,html.Screen,2_3_1_0_1_23,2022-02-04T11:33:25.060Z,,,,,,,,,,,,,,,,,51,,,,,,,,,,,,,,310.51500000001397,,response,,,,13,C,,,,,,Space,keypress(Space),,,,instrumental,,,,-------- -------- --- --- ---- --- --- ------ -- --------<br>---- --------- --- ------- ------------ ---------- ---------<br>--- ---------- ------- ---------- ------- -- survive. ----<br>---- --- ------ ----- ------ -- ---- --- ----- -- - -------<br>-------- -- --- --- -- ----- ----------- ----- -----------<br>---- --- ---------- --- ---- --- -- ----------,233401.5,233396,233068.818,233075,233085.485,233418.825,,23,survive.
screen,html.Screen,2_3_1_0_1_24,2022-02-04T11:33:25.516Z,,,,,,,,,,,,,,,,,51,,,,,,,,,,,,,,431.9750000119093,,response,,,,13,C,,,,,,Space,keypress(Space),,,,instrumental,,,,-------- -------- --- --- ---- --- --- ------ -- --------<br>---- --------- --- ------- ------------ ---------- ---------<br>--- ---------- ------- ---------- ------- -- -------- This<br>---- --- ------ ----- ------ -- ---- --- ----- -- - -------<br>-------- -- --- --- -- ----- ----------- ----- -----------<br>---- --- ---------- --- ---- --- -- ----------,233858.30000001192,233850.80000001192,233402.158,233401.69999998808,233418.825,233868.834,,24,This
screen,html.Screen,2_3_1_0_1_25,2022-02-04T11:33:25.768Z,,,,,,,,,,,,,,,,,51,,,,,,,,,,,,,,234.06599997615558,,response,,,,13,C,,,,,,Space,keypress(Space),,,,instrumental,,,,-------- -------- --- --- ---- --- --- ------ -- --------<br>---- --------- --- ------- ------------ ---------- ---------<br>--- ---------- ------- ---------- ------- -- -------- ----<br>week --- ------ ----- ------ -- ---- --- ----- -- - -------<br>-------- -- --- --- -- ----- ----------- ----- -----------<br>---- --- ---------- --- ---- --- -- ----------,234109.69999998808,234102.89999997616,233852.167,233858.39999997616,233868.834,234118.839,,25,week
screen,html.Screen,2_3_1_0_1_26,2022-02-04T11:33:25.911Z,,,,,,,,,,,,,,,,,51,,,,,,,,,,,,,,127.06099997615092,,response,,,,13,C,,,,,,Space,keypress(Space),,,,instrumental,,,,-------- -------- --- --- ---- --- --- ------ -- --------<br>---- --------- --- ------- ------------ ---------- ---------<br>--- ---------- ------- ---------- ------- -- -------- ----<br>---- the ------ ----- ------ -- ---- --- ----- -- - -------<br>-------- -- --- --- -- ----- ----------- ----- -----------<br>---- --- ---------- --- ---- --- -- ----------,234252.5,234245.89999997616,234102.172,234109.80000001192,234118.839,234268.842,,26,the
screen,html.Screen,2_3_1_0_1_27,2022-02-04T11:33:26.127Z,,,,,,,,,,,,,,,,,51,,,,,,,,,,,,,,194.05799997615395,,response,,,,13,C,,,,,,Space,keypress(Space),,,,instrumental,,,,-------- -------- --- --- ---- --- --- ------ -- --------<br>---- --------- --- ------- ------------ ---------- ---------<br>--- ---------- ------- ---------- ------- -- -------- ----<br>---- --- Senate ----- ------ -- ---- --- ----- -- - -------<br>-------- -- --- --- -- ----- ----------- ----- -----------<br>---- --- ---------- --- ---- --- -- ----------,234469.10000002384,234462.89999997616,234252.175,234254.5,234268.842,234485.513,,27,Senate
screen,html.Screen,2_3_1_0_1_28,2022-02-04T11:33:26.393Z,,,,,,,,,,,,,,,,,51,,,,,,,,,,,,,,243.28700001191464,,response,,,,13,C,,,,,,Space,keypress(Space),,,,instrumental,,,,-------- -------- --- --- ---- --- --- ------ -- --------<br>---- --------- --- ------- ------------ ---------- ---------<br>--- ---------- ------- ---------- ------- -- -------- ----<br>---- --- ------ seems ------ -- ---- --- ----- -- - -------<br>-------- -- --- --- -- ----- ----------- ----- -----------<br>---- --- ---------- --- ---- --- -- ----------,234735,234728.80000001192,234468.846,234469.19999998808,234485.513,234752.185,,28,seems
screen,html.Screen,2_3_1_0_1_29,2022-02-04T11:33:27.038Z,,,,,,,,,,,,,,,,,51,,,,,,,,,,,,,,621.6150000119233,,response,,,,13,C,,,,,,Space,keypress(Space),,,,instrumental,,,,-------- -------- --- --- ---- --- --- ------ -- --------<br>---- --------- --- ------- ------------ ---------- ---------<br>--- ---------- ------- ---------- ------- -- -------- ----<br>---- --- ------ ----- poised -- ---- --- ----- -- - -------<br>-------- -- --- --- -- ----- ----------- ----- -----------<br>---- --- ---------- --- ---- --- -- ----------,235380,235373.80000001192,234735.518,234735.10000002384,234752.185,235385.531,,29,poised
screen,html.Screen,2_3_1_0_1_30,2022-02-04T11:33:27.448Z,,,,,,,,,,,,,,,,,51,,,,,,,,,,,,,,397.56900002385373,,response,,,,13,C,,,,,,Space,keypress(Space),,,,instrumental,,,,-------- -------- --- --- ---- --- --- ------ -- --------<br>---- --------- --- ------- ------------ ---------- ---------<br>--- ---------- ------- ---------- ------- -- -------- ----<br>---- --- ------ ----- ------ to ---- --- ----- -- - -------<br>-------- -- --- --- -- ----- ----------- ----- -----------<br>---- --- ---------- --- ---- --- -- ----------,235790.19999998808,235783.10000002384,235368.864,235380.10000002384,235385.531,235802.206,,30,to
screen,html.Screen,2_3_1_0_1_31,2022-02-04T11:33:27.802Z,,,,,,,,,,,,,,,,,51,,,,,,,,,,,,,,335.4939999880735,,response,,,,13,C,,,,,,Space,keypress(Space),,,,instrumental,,,,-------- -------- --- --- ---- --- --- ------ -- --------<br>---- --------- --- ------- ------------ ---------- ---------<br>--- ---------- ------- ---------- ------- -- -------- ----<br>---- --- ------ ----- ------ -- join --- ----- -- - -------<br>-------- -- --- --- -- ----- ----------- ----- -----------<br>---- --- ---------- --- ---- --- -- ----------,236143.60000002384,236137.69999998808,235785.539,235790.30000001192,235802.206,236152.213,,31,join
screen,html.Screen,2_3_1_0_1_32,2022-02-04T11:33:28.096Z,,,,,,,,,,,,,,,,,51,,,,,,,,,,,,,,279.6869999761693,,response,,,,13,C,,,,,,Space,keypress(Space),,,,instrumental,,,,-------- -------- --- --- ---- --- --- ------ -- --------<br>---- --------- --- ------- ------------ ---------- ---------<br>--- ---------- ------- ---------- ------- -- -------- ----<br>---- --- ------ ----- ------ -- ---- the ----- -- - -------<br>-------- -- --- --- -- ----- ----------- ----- -----------<br>---- --- ---------- --- ---- --- -- ----------,236437.80000001192,236431.89999997616,236135.546,236143.89999997616,236152.213,236452.219,,32,the
screen,html.Screen,2_3_1_0_1_33,2022-02-04T11:33:28.423Z,,,,,,,,,,,,,,,,,51,,,,,,,,,,,,,,304.58100001190905,,response,,,,13,C,,,,,,Space,keypress(Space),,,,instrumental,,,,-------- -------- --- --- ---- --- --- ------ -- --------<br>---- --------- --- ------- ------------ ---------- ---------<br>--- ---------- ------- ---------- ------- -- -------- ----<br>---- --- ------ ----- ------ -- ---- --- House -- - -------<br>-------- -- --- --- -- ----- ----------- ----- -----------<br>---- --- ---------- --- ---- --- -- ----------,236764.30000001192,236756.80000001192,236435.552,236437.89999997616,236452.219,236768.892,,33,House
screen,html.Screen,2_3_1_0_1_34,2022-02-04T11:33:28.704Z,,,,,,,,,,,,,,,,,51,,,,,,,,,,,,,,270.8079999880865,,response,,,,13,C,,,,,,Space,keypress(Space),,,,instrumental,,,,-------- -------- --- --- ---- --- --- ------ -- --------<br>---- --------- --- ------- ------------ ---------- ---------<br>--- ---------- ------- ---------- ------- -- -------- ----<br>---- --- ------ ----- ------ -- ---- --- ----- in - -------<br>-------- -- --- --- -- ----- ----------- ----- -----------<br>---- --- ---------- --- ---- --- -- ----------,237045.60000002384,237039.69999998808,236752.225,236764.60000002384,236768.892,237052.231,,34,in
screen,html.Screen,2_3_1_0_1_35,2022-02-04T11:33:28.994Z,,,,,,,,,,,,,,,,,51,,,,,,,,,,,,,,278.6689999761584,,response,,,,13,C,,,,,,Space,keypress(Space),,,,instrumental,,,,-------- -------- --- --- ---- --- --- ------ -- --------<br>---- --------- --- ------- ------------ ---------- ---------<br>--- ---------- ------- ---------- ------- -- -------- ----<br>---- --- ------ ----- ------ -- ---- --- ----- -- a -------<br>-------- -- --- --- -- ----- ----------- ----- -----------<br>---- --- ---------- --- ---- --- -- ----------,237335.69999998808,237330.89999997616,237035.564,237045.80000001192,237052.231,237352.237,,35,a
screen,html.Screen,2_3_1_0_1_36,2022-02-04T11:33:29.412Z,,,,,,,,,,,,,,,,,51,,,,,,,,,,,,,,393.46299998808536,,response,,,,13,C,,,,,,Space,keypress(Space),,,,instrumental,,,,-------- -------- --- --- ---- --- --- ------ -- --------<br>---- --------- --- ------- ------------ ---------- ---------<br>--- ---------- ------- ---------- ------- -- -------- ----<br>---- --- ------ ----- ------ -- ---- --- ----- -- - massive<br>-------- -- --- --- -- ----- ----------- ----- -----------<br>---- --- ---------- --- ---- --- -- ----------,237753.69999998808,237745.69999998808,237335.57,237335.80000001192,237352.237,237768.912,,36,massive
screen,html.Screen,2_3_1_0_1_37,2022-02-04T11:33:29.729Z,,,,,,,,,,,,,,,,,51,,,,,,,,,,,,,,295.6880000238307,,response,,,,13,C,,,,,,Space,keypress(Space),,,,instrumental,,,,-------- -------- --- --- ---- --- --- ------ -- --------<br>---- --------- --- ------- ------------ ---------- ---------<br>--- ---------- ------- ---------- ------- -- -------- ----<br>---- --- ------ ----- ------ -- ---- --- ----- -- - -------<br>overhaul -- --- --- -- ----- ----------- ----- -----------<br>---- --- ---------- --- ---- --- -- ----------,238070.5,238064.60000002384,237752.245,237753.89999997616,237768.912,238085.585,,37,overhaul
screen,html.Screen,2_3_1_0_1_38,2022-02-04T11:33:30.113Z,,,,,,,,,,,,,,,,,51,,,,,,,,,,,,,,363.01500002385,,response,,,,13,C,,,,,,Space,keypress(Space),,,,instrumental,,,,-------- -------- --- --- ---- --- --- ------ -- --------<br>---- --------- --- ------- ------------ ---------- ---------<br>--- ---------- ------- ---------- ------- -- -------- ----<br>---- --- ------ ----- ------ -- ---- --- ----- -- - -------<br>-------- of --- --- -- ----- ----------- ----- -----------<br>---- --- ---------- --- ---- --- -- ----------,238454.39999997616,238448.60000002384,238068.918,238070.69999998808,238085.585,238468.926,,38,of
