sender,sender_type,sender_id,timestamp,meta,,Blues,Classical,Country,Dance,Electronic,Folk,Gospel,Hip-Hop,Jazz,Latin,Musical/Film,New-age,Pop,Prolific_id,Provo_ID,R&B,Rap,Reggae,Religious,Rock,Soul,Swing,Traditional,age,artist_name,correct,correctResponse,distraction,duration,education,ended_on,familiarity,gender,headphone_check_performance,item,list,music_frequency,offensiveness,pleasantness,position_correct,preference,response,response_action,snippet_file,song_name,song_rating,sound,stimulus_1,stimulus_2,stimulus_3,text,time_commit,time_end,time_render,time_run,time_show,time_switch,url,word,word_ID
Prolific ID,html.Form,0,2022-02-02T14:41:31.564Z,"{""labjs_version"":""20.2.2"",""labjs_build"":{""flavor"":""production"",""commit"":""a25486e0c714a0ae2ce03ff94b7bb6896854dcfa""},""location"":""https://run.pavlovia.org/mvasilev/prolific2_music_c/"",""userAgent"":""Mozilla/5.0 (Windows NT 10.0; Win64; x64) AppleWebKit/537.36 (KHTML, like Gecko) Chrome/97.0.4692.99 Safari/537.36"",""platform"":""Win32"",""language"":""en-GB"",""locale"":""en-GB"",""timeZone"":""Europe/London"",""timezoneOffset"":0,""screen_width"":1920,""screen_height"":1080,""scroll_width"":1920,""scroll_height"":921,""window_innerWidth"":1920,""window_innerHeight"":969,""devicePixelRatio"":1}",,,,,,,,,,,,,,,5aeb4aff51a97200012bb5e7,,,,,,,,,,,,,,,12289.160000095368,,form submission,,,,,,,,,,,,,,,,,,,,,24037.400000095367,24036.900000095367,11654.329,11664.60000038147,11747.74,24067.72,{},,
Introduction,html.Screen,1_0,2022-02-02T14:41:35.094Z,,,,,,,,,,,,,,,,,,,,,,,,,,,,,,,3495.779999999999,,response,,,,,,,,,,,continue,click button,,,,,,,,,27567.60000038147,27563.5,24036.155,24037.800000190735,24067.72,27604.229,,,
Volume calibration,html.Screen,1_1,2022-02-02T14:42:18.289Z,,,,,,,,,,,,,,,,,,,,,,,,,,,,,,,43154.9710002861,,response,,,,,,,,,,,continue,click button,,,,,,,,,70763.7000002861,70759.2000002861,27564.241,27567.700000286102,27604.229,70790.328,,,
Task instructions,html.Screen,1_2,2022-02-02T14:42:27.268Z,,,,,,,,,,,,,,,,,,,,,,,,,,,,,,,8950.872000286108,,response,,,,,,,,,,,continue,click button,,,,,,,,,79742.7000002861,79741.2000002861,70759.353,70763.90000009537,70790.328,79765.58,,,
Sounds,html.Screen,1_3_0_0,2022-02-02T14:42:31.515Z,,,,,,,,,,,,,,,,,,,,,,,,,,,,,,,4235.080999999991,,timeout,,,,,,,,,2,,,,,,,,I,S,O,,83989.40000009537,83983.235,79737.018,79742.90000009537,79765.58,84000.661,,,
Judgement,html.Screen,1_3_0_1,2022-02-02T14:42:33.698Z,,,,,,,,,,,,,,,,,,,,,,,,,,,,true,2,,2170.2390000953746,,response,,,,,,,,,2,,2,click #choice-2,,,,,I,S,O,,86172.60000038147,86170.90000009537,83983.235,83989.80000019073,84000.661,86203.174,,,
Trial,flow.Sequence,1_3_0,2022-02-02T14:42:33.699Z,,,,,,,,,,,,,,,,,,,,,,,,,,,,,,,6405.320000095366,,completion,,,,,,,,,2,,,,,,,,I,S,O,,86173,86170.90000009537,79737.018,79742.90000009537,79765.58,86203.174,,,
Sounds,html.Screen,1_3_1_0,2022-02-02T14:42:37.929Z,,,,,,,,,,,,,,,,,,,,,,,,,,,,,,,4229.664000000004,,timeout,,,,,,,,,2,,,,,,,,O,S,I,,90403.30000019073,90401.241,86169.526,86173.30000019073,86203.174,90432.838,,,
Judgement,html.Screen,1_3_1_1,2022-02-02T14:42:38.510Z,,,,,,,,,,,,,,,,,,,,,,,,,,,,true,2,,549.9620001907315,,response,,,,,,,,,2,,2,click #choice-2,,,,,O,S,I,,90984.10000038147,90982.80000019073,90401.241,90403.7000002861,90432.838,91002.841,,,
Trial,flow.Sequence,1_3_1,2022-02-02T14:42:38.510Z,,,,,,,,,,,,,,,,,,,,,,,,,,,,,,,4779.626000190736,,completion,,,,,,,,,2,,,,,,,,O,S,I,,90984.30000019073,90982.80000019073,86169.526,86173,86203.174,91002.841,,,
Sounds,html.Screen,1_3_2_0,2022-02-02T14:42:42.739Z,,,,,,,,,,,,,,,,,,,,,,,,,,,,,,,4239.866999999998,,timeout,,,,,,,,,1,,,,,,,,S,I,O,,95212.90000009537,95211.1,90968.511,90984.5,91002.841,95242.708,,,
Judgement,html.Screen,1_3_2_1,2022-02-02T14:42:43.542Z,,,,,,,,,,,,,,,,,,,,,,,,,,,,true,1,,772.0920001907361,,response,,,,,,,,,1,,1,click #choice-1,,,,,S,I,O,,96016.5,96014.80000019073,95211.1,95213.5,95242.708,96025.716,,,
Trial,flow.Sequence,1_3_2,2022-02-02T14:42:43.543Z,,,,,,,,,,,,,,,,,,,,,,,,,,,,,,,5011.9590001907345,,completion,,,,,,,,,1,,,,,,,,S,I,O,,96016.80000019073,96014.80000019073,90968.511,90984.40000009537,91002.841,96025.716,,,
Sounds,html.Screen,1_3_3_0,2022-02-02T14:42:47.790Z,,,,,,,,,,,,,,,,,,,,,,,,,,,,,,,4268.801999999996,,timeout,,,,,,,,,3,,,,,,,,O,I,S,,100264.7000002861,100262.935,96010.779,96017,96025.716,100294.518,,,
Judgement,html.Screen,1_3_3_1,2022-02-02T14:42:48.230Z,,,,,,,,,,,,,,,,,,,,,,,,,,,,true,3,,408.58200038147334,,response,,,,,,,,,3,,3,click #choice-3,,,,,O,I,S,,100704.7000002861,100703.10000038147,100262.935,100265,100294.518,100724.397,,,
Trial,flow.Sequence,1_3_3,2022-02-02T14:42:48.231Z,,,,,,,,,,,,,,,,,,,,,,,,,,,,,,,4677.384000381469,,completion,,,,,,,,,3,,,,,,,,O,I,S,,100704.90000009537,100703.10000038147,96010.779,96016.90000009537,96025.716,100724.397,,,
Sounds,html.Screen,1_3_4_0,2022-02-02T14:42:52.484Z,,,,,,,,,,,,,,,,,,,,,,,,,,,,,,,4267.059000000008,,timeout,,,,,,,,,1,,,,,,,,S,O,I,,104958.10000038147,104957.607,100703.159,100705,100724.397,104991.456,,,
Judgement,html.Screen,1_3_4_1,2022-02-02T14:42:52.944Z,,,,,,,,,,,,,,,,,,,,,,,,,,,,true,1,,425.5439999999944,,response,,,,,,,,,1,,1,click #choice-1,,,,,S,O,I,,105418.7000002861,105417,104957.607,104958.2000002861,104991.456,105439.824,,,
Trial,flow.Sequence,1_3_4,2022-02-02T14:42:52.946Z,,,,,,,,,,,,,,,,,,,,,,,,,,,,,,,4692.603000000003,,completion,,,,,,,,,1,,,,,,,,S,O,I,,105420.40000009537,105417,100703.159,100705,100724.397,105439.824,,,
Sounds,html.Screen,1_3_5_0,2022-02-02T14:42:57.193Z,,,,,,,,,,,,,,,,,,,,,,,,,,,,,,,4256.940000000002,,timeout,,,,,,,,,3,,,,,,,,I,O,S,,109667,109666.01,105406.52,105420.5,105439.824,109696.764,,,
Judgement,html.Screen,1_3_5_1,2022-02-02T14:42:57.681Z,,,,,,,,,,,,,,,,,,,,,,,,,,,,true,3,,457.0360001907393,,response,,,,,,,,,3,,3,click #choice-3,,,,,I,O,S,,110155.5,110153.80000019073,109666.01,109667.10000038147,109696.764,110182.847,,,
Trial,flow.Sequence,1_3_5,2022-02-02T14:42:57.681Z,,,,,,,,,,,,,,,,,,,,,,,,,,,,,,,4713.976000190742,,completion,,,,,,,,,3,,,,,,,,I,O,S,,110155.7000002861,110153.80000019073,105406.52,105420.5,105439.824,110182.847,,,
Task,flow.Loop,1_3,2022-02-02T14:42:57.687Z,,,,,,,,,,,,,,,,,,,,,,,,,,,,,,,30388.220000190733,,completion,,,1,,,,,,,,,,,,,,,,,,110161.40000009537,110153.80000019073,79737.018,79742.90000009537,79765.58,110182.847,,,
Trap,html.Screen,1_4,2022-02-02T14:42:57.689Z,,,,,,,,,,,,,,,,,,,,,,,,,,,,,,,NaN,,skipped,,,,,,,,,,,,,,,,,,,,,110162.90000009537,110153.80000019073,,110162.80000019073,,110182.847,,,
Thanks,html.Screen,1_5,2022-02-02T14:43:01.176Z,,,,,,,,,,,,,,,,,,,,,,,,,,,,,,,3466.053000095373,,response,,,,,,,,,,,continue,click button,,,,,,,,,113649.90000009537,113648.90000009537,110146.96,110163,110182.847,116276.141,,,
Headphone screening,flow.Sequence,1,2022-02-02T14:43:01.176Z,,,,,,,,,,,,,,,,,,,,,,,,,,,,,,,89581.18000009537,,completion,,,,,,,,,,,,,,,,,,,,,113650,113648.90000009537,24036.155,24037.700000286102,24067.72,116276.141,,,
Instructions,html.Page,2_0,2022-02-02T14:43:16.922Z,,,,,,,,,,,,,,,,,,,,,,,,,,,,,,,13118.759000095364,,form submission,,,,,,,,,,,,,,,,,,,,,129395.90000009537,129394.90000009537,116245.298,116254.5,116276.141,129423.038,,,
Holding screen,html.Screen,2_1_0_0,2022-02-02T14:43:26.910Z,,,,,,,,,,,,,,,,,,,,,,,,,,,,,,,9991.975999999995,,timeout,,,,,,,,,,,,,,,,,,,,,139384.30000019073,139382.828,129383.996,129396,129423.038,139415.014,,,
screen,html.Screen,2_1_0_1_0,2022-02-02T14:43:27.853Z,,,,,,,,,,,,,,,,,53,,,,,,,,,,,,,,906.1860002861067,,response,,,,99,,,,,,,Space,keypress(Space),,,,,,,,When -- ----- -- ------ - ------- --- ----------<br>------------- ------ ------ ---- ---- ------- ----- -- ----<br>-------- ------- -- ---------- --- - --- ----- ----- ----<br>---- --- --- ----- --- ---- ---- ------- ----- ---- -------<br>--- --- -- ----- -- --- ---- -- --- ---- -- ------ ------<br>--- ----- -- ----,140327.30000019073,140321.2000002861,139382.828,139384.60000038147,139415.014,140346.194,,0,When
screen,html.Screen,2_1_0_1_1,2022-02-02T14:43:28.256Z,,,,,,,,,,,,,,,,,53,,,,,,,,,,,,,,382.20600009537884,,response,,,,99,,,,,,,Space,keypress(Space),,,,,,,,---- it ----- -- ------ - ------- --- ----------<br>------------- ------ ------ ---- ---- ------- ----- -- ----<br>-------- ------- -- ---------- --- - --- ----- ----- ----<br>---- --- --- ----- --- ---- ---- ------- ----- ---- -------<br>--- --- -- ----- -- --- ---- -- --- ---- -- ------ ------<br>--- ----- -- ----,140729.7000002861,140728.40000009537,140328.308,140327.60000038147,140346.194,140753.092,,1,it
screen,html.Screen,2_1_0_1_2,2022-02-02T14:43:28.674Z,,,,,,,,,,,,,,,,,53,,,,,,,,,,,,,,393.80800009536324,,response,,,,99,,,,,,,Space,keypress(Space),,,,,,,,---- -- comes -- ------ - ------- --- ----------<br>------------- ------ ------ ---- ---- ------- ----- -- ----<br>-------- ------- -- ---------- --- - --- ----- ----- ----<br>---- --- --- ----- --- ---- ---- ------- ----- ---- -------<br>--- --- -- ----- -- --- ---- -- --- ---- -- ------ ------<br>--- ----- -- ----,141148.2000002861,141146.90000009537,140728.243,140730,140753.092,141175.2,,2,comes
screen,html.Screen,2_1_0_1_3,2022-02-02T14:43:29.008Z,,,,,,,,,,,,,,,,,53,,,,,,,,,,,,,,305.4000003814581,,response,,,,99,,,,,,,Space,keypress(Space),,,,,,,,---- -- ----- to ------ - ------- --- ----------<br>------------- ------ ------ ---- ---- ------- ----- -- ----<br>-------- ------- -- ---------- --- - --- ----- ----- ----<br>---- --- --- ----- --- ---- ---- ------- ----- ---- -------<br>--- --- -- ----- -- --- ---- -- --- ---- -- ------ ------<br>--- ----- -- ----,141481.90000009537,141480.60000038147,141134.862,141148.5,141175.2,141515.418,,3,to
screen,html.Screen,2_1_0_1_4,2022-02-02T14:43:29.319Z,,,,,,,,,,,,,,,,,53,,,,,,,,,,,,,,276.88200019072974,,response,,,,99,,,,,,,Space,keypress(Space),,,,,,,,---- -- ----- -- having - ------- --- ----------<br>------------- ------ ------ ---- ---- ------- ----- -- ----<br>-------- ------- -- ---------- --- - --- ----- ----- ----<br>---- --- --- ----- --- ---- ---- ------- ----- ---- -------<br>--- --- -- ----- -- --- ---- -- --- ---- -- ------ ------<br>--- ----- -- ----,141793.7000002861,141792.30000019073,141470.054,141482.30000019073,141515.418,141827.153,,4,having
screen,html.Screen,2_1_0_1_5,2022-02-02T14:43:29.627Z,,,,,,,,,,,,,,,,,53,,,,,,,,,,,,,,271.4470003814786,,response,,,,99,,,,,,,Space,keypress(Space),,,,,,,,---- -- ----- -- ------ a ------- --- ----------<br>------------- ------ ------ ---- ---- ------- ----- -- ----<br>-------- ------- -- ---------- --- - --- ----- ----- ----<br>---- --- --- ----- --- ---- ---- ------- ----- ---- -------<br>--- --- -- ----- -- --- ---- -- --- ---- -- ------ ------<br>--- ----- -- ----,142101,142098.60000038147,141794.743,141793.90000009537,141827.153,142123.255,,5,a
screen,html.Screen,2_1_0_1_6,2022-02-02T14:43:29.944Z,,,,,,,,,,,,,,,,,53,,,,,,,,,,,,,,293.44500028609764,,response,,,,99,,,,,,,Space,keypress(Space),,,,,,,,---- -- ----- -- ------ - lasting --- ----------<br>------------- ------ ------ ---- ---- ------- ----- -- ----<br>-------- ------- -- ---------- --- - --- ----- ----- ----<br>---- --- --- ----- --- ---- ---- ------- ----- ---- -------<br>--- --- -- ----- -- --- ---- -- --- ---- -- ------ ------<br>--- ----- -- ----,142418,142416.7000002861,142091.647,142101.40000009537,142123.255,142450.652,,6,lasting
screen,html.Screen,2_1_0_1_7,2022-02-02T14:43:30.240Z,,,,,,,,,,,,,,,,,53,,,,,,,,,,,,,,262.24800009536557,,response,,,,99,,,,,,,Space,keypress(Space),,,,,,,,---- -- ----- -- ------ - ------- and ----------<br>------------- ------ ------ ---- ---- ------- ----- -- ----<br>-------- ------- -- ---------- --- - --- ----- ----- ----<br>---- --- --- ----- --- ---- ---- ------- ----- ---- -------<br>--- --- -- ----- -- --- ---- -- --- ---- -- ------ ------<br>--- ----- -- ----,142714.5,142712.90000009537,142418.402,142418.30000019073,142450.652,142733.723,,7,and
screen,html.Screen,2_1_0_1_8,2022-02-02T14:43:30.600Z,,,,,,,,,,,,,,,,,53,,,,,,,,,,,,,,339.1770000953693,,response,,,,99,,,,,,,Space,keypress(Space),,,,,,,,---- -- ----- -- ------ - ------- --- fulfilling<br>------------- ------ ------ ---- ---- ------- ----- -- ----<br>-------- ------- -- ---------- --- - --- ----- ----- ----<br>---- --- --- ----- --- ---- ---- ------- ----- ---- -------<br>--- --- -- ----- -- --- ---- -- --- ---- -- ------ ------<br>--- ----- -- ----,143074.5,143072.90000009537,142715.339,142714.80000019073,142733.723,143093.565,,8,fulfilling
screen,html.Screen,2_1_0_1_9,2022-02-02T14:43:30.954Z,,,,,,,,,,,,,,,,,53,,,,,,,,,,,,,,333.3350000953651,,response,,,,99,,,,,,,Space,keypress(Space),,,,,,,,"---- -- ----- -- ------ - ------- --- ----------<br>relationship, ------ ------ ---- ---- ------- ----- -- ----<br>-------- ------- -- ---------- --- - --- ----- ----- ----<br>---- --- --- ----- --- ---- ---- ------- ----- ---- -------<br>--- --- -- ----- -- --- ---- -- --- ---- -- ------ ------<br>--- ----- -- ----",143428.2000002861,143426.90000009537,143065.369,143074.80000019073,143093.565,143452.241,,9,"relationship,"
screen,html.Screen,2_1_0_1_10,2022-02-02T14:43:31.304Z,,,,,,,,,,,,,,,,,53,,,,,,,,,,,,,,324.7589999999909,,response,,,,99,,,,,,,Space,keypress(Space),,,,,,,,---- -- ----- -- ------ - ------- --- ----------<br>------------- common ------ ---- ---- ------- ----- -- ----<br>-------- ------- -- ---------- --- - --- ----- ----- ----<br>---- --- --- ----- --- ---- ---- ------- ----- ---- -------<br>--- --- -- ----- -- --- ---- -- --- ---- -- ------ ------<br>--- ----- -- ----,143778.60000038147,143777,143424.942,143428.40000009537,143452.241,143800.834,,10,common
screen,html.Screen,2_1_0_1_11,2022-02-02T14:43:31.616Z,,,,,,,,,,,,,,,,,53,,,,,,,,,,,,,,287.9660001907323,,response,,,,99,,,,,,,Space,keypress(Space),,,,,,,,---- -- ----- -- ------ - ------- --- ----------<br>------------- ------ wisdom ---- ---- ------- ----- -- ----<br>-------- ------- -- ---------- --- - --- ----- ----- ----<br>---- --- --- ----- --- ---- ---- ------- ----- ---- -------<br>--- --- -- ----- -- --- ---- -- --- ---- -- ------ ------<br>--- ----- -- ----,144090.5,144088.80000019073,143766.298,143779,143800.834,144114.45,,11,wisdom
screen,html.Screen,2_1_0_1_12,2022-02-02T14:43:31.983Z,,,,,,,,,,,,,,,,,53,,,,,,,,,,,,,,341.6500003814581,,response,,,,99,,,,,,,Space,keypress(Space),,,,,,,,---- -- ----- -- ------ - ------- --- ----------<br>------------- ------ ------ says ---- ------- ----- -- ----<br>-------- ------- -- ---------- --- - --- ----- ----- ----<br>---- --- --- ----- --- ---- ---- ------- ----- ---- -------<br>--- --- -- ----- -- --- ---- -- --- ---- -- ------ ------<br>--- ----- -- ----,144457.60000038147,144456.10000038147,144079.883,144091,144114.45,144489.072,,12,says
screen,html.Screen,2_1_0_1_13,2022-02-02T14:43:32.304Z,,,,,,,,,,,,,,,,,53,,,,,,,,,,,,,,287.92800000001444,,response,,,,99,,,,,,,Space,keypress(Space),,,,,,,,---- -- ----- -- ------ - ------- --- ----------<br>------------- ------ ------ ---- that ------- ----- -- ----<br>-------- ------- -- ---------- --- - --- ----- ----- ----<br>---- --- --- ----- --- ---- ---- ------- ----- ---- -------<br>--- --- -- ----- -- --- ---- -- --- ---- -- ------ ------<br>--- ----- -- ----,144778.5,144777,144445.668,144457.90000009537,144489.072,144798.055,,13,that
screen,html.Screen,2_1_0_1_14,2022-02-02T14:43:32.568Z,,,,,,,,,,,,,,,,,53,,,,,,,,,,,,,,242.5450003814767,,response,,,,99,,,,,,,Space,keypress(Space),,,,,,,,---- -- ----- -- ------ - ------- --- ----------<br>------------- ------ ------ ---- ---- feeling ----- -- ----<br>-------- ------- -- ---------- --- - --- ----- ----- ----<br>---- --- --- ----- --- ---- ---- ------- ----- ---- -------<br>--- --- -- ----- -- --- ---- -- --- ---- -- ------ ------<br>--- ----- -- ----,145042.2000002861,145040.60000038147,144769.725,144778.80000019073,144798.055,145062.67,,14,feeling
screen,html.Screen,2_1_0_1_15,2022-02-02T14:43:32.920Z,,,,,,,,,,,,,,,,,53,,,,,,,,,,,,,,329.8299999999872,,response,,,,99,,,,,,,Space,keypress(Space),,,,,,,,---- -- ----- -- ------ - ------- --- ----------<br>------------- ------ ------ ---- ---- ------- close -- ----<br>-------- ------- -- ---------- --- - --- ----- ----- ----<br>---- --- --- ----- --- ---- ---- ------- ----- ---- -------<br>--- --- -- ----- -- --- ---- -- --- ---- -- ------ ------<br>--- ----- -- ----,145393.90000009537,145392.5,145029.413,145042.5,145062.67,145426.955,,15,close
screen,html.Screen,2_1_0_1_16,2022-02-02T14:43:33.224Z,,,,,,,,,,,,,,,,,53,,,,,,,,,,,,,,269.94500009538024,,response,,,,99,,,,,,,Space,keypress(Space),,,,,,,,---- -- ----- -- ------ - ------- --- ----------<br>------------- ------ ------ ---- ---- ------- ----- to ----<br>-------- ------- -- ---------- --- - --- ----- ----- ----<br>---- --- --- ----- --- ---- ---- ------- ----- ---- -------<br>--- --- -- ----- -- --- ---- -- --- ---- -- ------ ------<br>--- ----- -- ----,145698.5,145696.90000009537,145392.321,145394.2000002861,145426.955,145724.713,,16,to
screen,html.Screen,2_1_0_1_17,2022-02-02T14:43:33.510Z,,,,,,,,,,,,,,,,,53,,,,,,,,,,,,,,258.8870003814809,,response,,,,99,,,,,,,Space,keypress(Space),,,,,,,,---- -- ----- -- ------ - ------- --- ----------<br>------------- ------ ------ ---- ---- ------- ----- -- your<br>-------- ------- -- ---------- --- - --- ----- ----- ----<br>---- --- --- ----- --- ---- ---- ------- ----- ---- -------<br>--- --- -- ----- -- --- ---- -- --- ---- -- ------ ------<br>--- ----- -- ----,145984.40000009537,145983.60000038147,145691.876,145698.80000019073,145724.713,146002.502,,17,your
screen,html.Screen,2_1_0_1_18,2022-02-02T14:43:33.831Z,,,,,,,,,,,,,,,,,53,,,,,,,,,,,,,,301.4979999999923,,response,,,,99,,,,,,,Space,keypress(Space),,,,,,,,---- -- ----- -- ------ - ------- --- ----------<br>------------- ------ ------ ---- ---- ------- ----- -- ----<br>romantic ------- -- ---------- --- - --- ----- ----- ----<br>---- --- --- ----- --- ---- ---- ------- ----- ---- -------<br>--- --- -- ----- -- --- ---- -- --- ---- -- ------ ------<br>--- ----- -- ----,146305.40000009537,146304,145972.399,145984.60000038147,146002.502,146333.179,,18,romantic
screen,html.Screen,2_1_0_1_19,2022-02-02T14:43:34.131Z,,,,,,,,,,,,,,,,,53,,,,,,,,,,,,,,270.12100019073114,,response,,,,99,,,,,,,Space,keypress(Space),,,,,,,,---- -- ----- -- ------ - ------- --- ----------<br>------------- ------ ------ ---- ---- ------- ----- -- ----<br>-------- partner -- ---------- --- - --- ----- ----- ----<br>---- --- --- ----- --- ---- ---- ------- ----- ---- -------<br>--- --- -- ----- -- --- ---- -- --- ---- -- ------ ------<br>--- ----- -- ----,146604.7000002861,146603.30000019073,146300.548,146305.7000002861,146333.179,146629.42,,19,partner
screen,html.Screen,2_1_0_1_20,2022-02-02T14:43:34.384Z,,,,,,,,,,,,,,,,,53,,,,,,,,,,,,,,227.18000038145692,,response,,,,99,,,,,,,Space,keypress(Space),,,,,,,,---- -- ----- -- ------ - ------- --- ----------<br>------------- ------ ------ ---- ---- ------- ----- -- ----<br>-------- ------- is ---------- --- - --- ----- ----- ----<br>---- --- --- ----- --- ---- ---- ------- ----- ---- -------<br>--- --- -- ----- -- --- ---- -- --- ---- -- ------ ------<br>--- ----- -- ----,146858.10000038147,146856.60000038147,146597.429,146605,146629.42,146881.174,,20,is
screen,html.Screen,2_1_0_1_21,2022-02-02T14:43:34.649Z,,,,,,,,,,,,,,,,,53,,,,,,,,,,,,,,240.42600038147066,,response,,,,99,,,,,,,Space,keypress(Space),,,,,,,,---- -- ----- -- ------ - ------- --- ----------<br>------------- ------ ------ ---- ---- ------- ----- -- ----<br>-------- ------- -- paramount. --- - --- ----- ----- ----<br>---- --- --- ----- --- ---- ---- ------- ----- ---- -------<br>--- --- -- ----- -- --- ---- -- --- ---- -- ------ ------<br>--- ----- -- ----,147123.2000002861,147121.60000038147,146844.081,146858.5,146881.174,147149.169,,21,paramount.
screen,html.Screen,2_1_0_1_22,2022-02-02T14:43:34.952Z,,,,,,,,,,,,,,,,,53,,,,,,,,,,,,,,275.63100019074045,,response,,,,99,,,,,,,Space,keypress(Space),,,,,,,,---- -- ----- -- ------ - ------- --- ----------<br>------------- ------ ------ ---- ---- ------- ----- -- ----<br>-------- ------- -- ---------- But - --- ----- ----- ----<br>---- --- --- ----- --- ---- ---- ------- ----- ---- -------<br>--- --- -- ----- -- --- ---- -- --- ---- -- ------ ------<br>--- ----- -- ----,147426.30000019073,147424.80000019073,147110.448,147123.40000009537,147149.169,147447.969,,22,But
screen,html.Screen,2_1_0_1_23,2022-02-02T14:43:35.256Z,,,,,,,,,,,,,,,,,53,,,,,,,,,,,,,,280.831000190723,,response,,,,99,,,,,,,Space,keypress(Space),,,,,,,,---- -- ----- -- ------ - ------- --- ----------<br>------------- ------ ------ ---- ---- ------- ----- -- ----<br>-------- ------- -- ---------- --- a --- ----- ----- ----<br>---- --- --- ----- --- ---- ---- ------- ----- ---- -------<br>--- --- -- ----- -- --- ---- -- --- ---- -- ------ ------<br>--- ----- -- ----,147730.5,147728.80000019073,147411.831,147426.60000038147,147447.969,147762.898,,23,a
screen,html.Screen,2_1_0_1_24,2022-02-02T14:43:35.519Z,,,,,,,,,,,,,,,,,53,,,,,,,,,,,,,,229.00200009538094,,response,,,,99,,,,,,,Space,keypress(Space),,,,,,,,---- -- ----- -- ------ - ------- --- ----------<br>------------- ------ ------ ---- ---- ------- ----- -- ----<br>-------- ------- -- ---------- --- - new ----- ----- ----<br>---- --- --- ----- --- ---- ---- ------- ----- ---- -------<br>--- --- -- ----- -- --- ---- -- --- ---- -- ------ ------<br>--- ----- -- ----,147993.2000002861,147991.90000009537,147726.648,147730.7000002861,147762.898,148014.851,,24,new
screen,html.Screen,2_1_0_1_25,2022-02-02T14:43:35.784Z,,,,,,,,,,,,,,,,,53,,,,,,,,,,,,,,241.6490000000049,,response,,,,99,,,,,,,Space,keypress(Space),,,,,,,,---- -- ----- -- ------ - ------- --- ----------<br>------------- ------ ------ ---- ---- ------- ----- -- ----<br>-------- ------- -- ---------- --- - --- study ----- ----<br>---- --- --- ----- --- ---- ---- ------- ----- ---- -------<br>--- --- -- ----- -- --- ---- -- --- ---- -- ------ ------<br>--- ----- -- ----,148257.90000009537,148256.5,147993.856,147993.40000009537,148014.851,148281.072,,25,study
screen,html.Screen,2_1_0_1_26,2022-02-02T14:43:36.056Z,,,,,,,,,,,,,,,,,53,,,,,,,,,,,,,,247.42800000001444,,response,,,,99,,,,,,,Space,keypress(Space),,,,,,,,---- -- ----- -- ------ - ------- --- ----------<br>------------- ------ ------ ---- ---- ------- ----- -- ----<br>-------- ------- -- ---------- --- - --- ----- finds ----<br>---- --- --- ----- --- ---- ---- ------- ----- ---- -------<br>--- --- -- ----- -- --- ---- -- --- ---- -- ------ ------<br>--- ----- -- ----,148530.10000038147,148528.5,148247.242,148258.2000002861,148281.072,148561.949,,26,finds
screen,html.Screen,2_1_0_1_27,2022-02-02T14:43:36.384Z,,,,,,,,,,,,,,,,,53,,,,,,,,,,,,,,294.6510003814765,,response,,,,99,,,,,,,Space,keypress(Space),,,,,,,,---- -- ----- -- ------ - ------- --- ----------<br>------------- ------ ------ ---- ---- ------- ----- -- ----<br>-------- ------- -- ---------- --- - --- ----- ----- that<br>---- --- --- ----- --- ---- ---- ------- ----- ---- -------<br>--- --- -- ----- -- --- ---- -- --- ---- -- ------ ------<br>--- ----- -- ----,148858,148856.60000038147,148528.635,148530.40000009537,148561.949,148889.402,,27,that
screen,html.Screen,2_1_0_1_28,2022-02-02T14:43:36.680Z,,,,,,,,,,,,,,,,,53,,,,,,,,,,,,,,263.398000190733,,response,,,,99,,,,,,,Space,keypress(Space),,,,,,,,---- -- ----- -- ------ - ------- --- ----------<br>------------- ------ ------ ---- ---- ------- ----- -- ----<br>-------- ------- -- ---------- --- - --- ----- ----- ----<br>it's --- --- ----- --- ---- ---- ------- ----- ---- -------<br>--- --- -- ----- -- --- ---- -- --- ---- -- ------ ------<br>--- ----- -- ----,149154.30000019073,149152.80000019073,148843.241,148858.40000009537,148889.402,149185.782,,28,it's
screen,html.Screen,2_1_0_1_29,2022-02-02T14:43:36.936Z,,,,,,,,,,,,,,,,,53,,,,,,,,,,,,,,223.01800019072834,,response,,,,99,,,,,,,Space,keypress(Space),,,,,,,,---- -- ----- -- ------ - ------- --- ----------<br>------------- ------ ------ ---- ---- ------- ----- -- ----<br>-------- ------- -- ---------- --- - --- ----- ----- ----<br>---- not --- ----- --- ---- ---- ------- ----- ---- -------<br>--- --- -- ----- -- --- ---- -- --- ---- -- ------ ------<br>--- ----- -- ----,149410.40000009537,149408.80000019073,149151.592,149154.80000019073,149185.782,149434.998,,29,not
screen,html.Screen,2_1_0_1_30,2022-02-02T14:43:37.232Z,,,,,,,,,,,,,,,,,53,,,,,,,,,,,,,,269.4020000953751,,response,,,,99,,,,,,,Space,keypress(Space),,,,,,,,---- -- ----- -- ------ - ------- --- ----------<br>------------- ------ ------ ---- ---- ------- ----- -- ----<br>-------- ------- -- ---------- --- - --- ----- ----- ----<br>---- --- how ----- --- ---- ---- ------- ----- ---- -------<br>--- --- -- ----- -- --- ---- -- --- ---- -- ------ ------<br>--- ----- -- ----,149706,149704.40000009537,149399.336,149410.60000038147,149434.998,149731.242,,30,how
screen,html.Screen,2_1_0_1_31,2022-02-02T14:43:37.514Z,,,,,,,,,,,,,,,,,53,,,,,,,,,,,,,,255.95800028610392,,response,,,,99,,,,,,,Space,keypress(Space),,,,,,,,---- -- ----- -- ------ - ------- --- ----------<br>------------- ------ ------ ---- ---- ------- ----- -- ----<br>-------- ------- -- ---------- --- - --- ----- ----- ----<br>---- --- --- close --- ---- ---- ------- ----- ---- -------<br>--- --- -- ----- -- --- ---- -- --- ---- -- ------ ------<br>--- ----- -- ----,149988.7000002861,149987.2000002861,149699.448,149706.40000009537,149731.242,150014.4,,31,close
screen,html.Screen,2_1_0_1_32,2022-02-02T14:43:37.752Z,,,,,,,,,,,,,,,,,53,,,,,,,,,,,,,,210.50000009537325,,response,,,,99,,,,,,,Space,keypress(Space),,,,,,,,---- -- ----- -- ------ - ------- --- ----------<br>------------- ------ ------ ---- ---- ------- ----- -- ----<br>-------- ------- -- ---------- --- - --- ----- ----- ----<br>---- --- --- ----- you ---- ---- ------- ----- ---- -------<br>--- --- -- ----- -- --- ---- -- --- ---- -- ------ ------<br>--- ----- -- ----,150226.40000009537,150224.90000009537,149980.252,149989,150014.4,150245.55,,32,you
screen,html.Screen,2_1_0_1_33,2022-02-02T14:43:38.049Z,,,,,,,,,,,,,,,,,53,,,,,,,,,,,,,,276.2500001907465,,response,,,,99,,,,,,,Space,keypress(Space),,,,,,,,---- -- ----- -- ------ - ------- --- ----------<br>------------- ------ ------ ---- ---- ------- ----- -- ----<br>-------- ------- -- ---------- --- - --- ----- ----- ----<br>---- --- --- ----- --- feel ---- ------- ----- ---- -------<br>--- --- -- ----- -- --- ---- -- --- ---- -- ------ ------<br>--- ----- -- ----,150523.30000019073,150521.80000019073,150211.313,150226.7000002861,150245.55,150545.149,,33,feel
screen,html.Screen,2_1_0_1_34,2022-02-02T14:43:38.335Z,,,,,,,,,,,,,,,,,53,,,,,,,,,,,,,,262.8509999999951,,response,,,,99,,,,,,,Space,keypress(Space),,,,,,,,---- -- ----- -- ------ - ------- --- ----------<br>------------- ------ ------ ---- ---- ------- ----- -- ----<br>-------- ------- -- ---------- --- - --- ----- ----- ----<br>---- --- --- ----- --- ---- that ------- ----- ---- -------<br>--- --- -- ----- -- --- ---- -- --- ---- -- ------ ------<br>--- ----- -- ----,150809.5,150808,150524.105,150523.60000038147,150545.149,150828.576,,34,that
screen,html.Screen,2_1_0_1_35,2022-02-02T14:43:38.656Z,,,,,,,,,,,,,,,,,53,,,,,,,,,,,,,,300.12400028610136,,response,,,,99,,,,,,,Space,keypress(Space),,,,,,,,---- -- ----- -- ------ - ------- --- ----------<br>------------- ------ ------ ---- ---- ------- ----- -- ----<br>-------- ------- -- ---------- --- - --- ----- ----- ----<br>---- --- --- ----- --- ---- ---- matters ----- ---- -------<br>--- --- -- ----- -- --- ---- -- --- ---- -- ------ ------<br>--- ----- -- ----,151130.2000002861,151128.7000002861,150809.04,150809.80000019073,150828.576,151154.752,,35,matters
screen,html.Screen,2_1_0_1_36,2022-02-02T14:43:39.056Z,,,,,,,,,,,,,,,,,53,,,,,,,,,,,,,,374.14800009535975,,response,,,,99,,,,,,,Space,keypress(Space),,,,,,,,"---- -- ----- -- ------ - ------- --- ----------<br>------------- ------ ------ ---- ---- ------- ----- -- ----<br>-------- ------- -- ---------- --- - --- ----- ----- ----<br>---- --- --- ----- --- ---- ---- ------- most, ---- -------<br>--- --- -- ----- -- --- ---- -- --- ---- -- ------ ------<br>--- ----- -- ----",151530.30000019073,151528.90000009537,151126.59,151130.5,151154.752,151562.485,,36,"most,"
screen,html.Screen,2_1_0_1_37,2022-02-02T14:43:39.368Z,,,,,,,,,,,,,,,,,53,,,,,,,,,,,,,,278.4150000953814,,response,,,,99,,,,,,,Space,keypress(Space),,,,,,,,---- -- ----- -- ------ - ------- --- ----------<br>------------- ------ ------ ---- ---- ------- ----- -- ----<br>-------- ------- -- ---------- --- - --- ----- ----- ----<br>---- --- --- ----- --- ---- ---- ------- ----- it's -------<br>--- --- -- ----- -- --- ---- -- --- ---- -- ------ ------<br>--- ----- -- ----,151842.40000009537,151840.90000009537,151519.239,151530.90000009537,151562.485,151905.937,,37,it's
screen,html.Screen,2_1_0_1_38,2022-02-02T14:43:39.647Z,,,,,,,,,,,,,,,,,53,,,,,,,,,,,,,,214.46300009536208,,response,,,,99,,,,,,,Space,keypress(Space),,,,,,,,---- -- ----- -- ------ - ------- --- ----------<br>------------- ------ ------ ---- ---- ------- ----- -- ----<br>-------- ------- -- ---------- --- - --- ----- ----- ----<br>---- --- --- ----- --- ---- ---- ------- ----- ---- whether<br>--- --- -- ----- -- --- ---- -- --- ---- -- ------ ------<br>--- ----- -- ----,152121.7000002861,152120.40000009537,151875.045,151842.7000002861,151905.937,152140.113,,38,whether
screen,html.Screen,2_1_0_1_39,2022-02-02T14:43:39.956Z,,,,,,,,,,,,,,,,,53,,,,,,,,,,,,,,290.18700019072276,,response,,,,99,,,,,,,Space,keypress(Space),,,,,,,,---- -- ----- -- ------ - ------- --- ----------<br>------------- ------ ------ ---- ---- ------- ----- -- ----<br>-------- ------- -- ---------- --- - --- ----- ----- ----<br>---- --- --- ----- --- ---- ---- ------- ----- ---- -------<br>you --- -- ----- -- --- ---- -- --- ---- -- ------ ------<br>--- ----- -- ----,152430.7000002861,152430.30000019073,152120.648,152121.90000009537,152140.113,152451.338,,39,you
screen,html.Screen,2_1_0_1_40,2022-02-02T14:43:40.207Z,,,,,,,,,,,,,,,,,53,,,,,,,,,,,,,,228.66200000001118,,response,,,,99,,,,,,,Space,keypress(Space),,,,,,,,---- -- ----- -- ------ - ------- --- ----------<br>------------- ------ ------ ---- ---- ------- ----- -- ----<br>-------- ------- -- ---------- --- - --- ----- ----- ----<br>---- --- --- ----- --- ---- ---- ------- ----- ---- -------<br>--- are -- ----- -- --- ---- -- --- ---- -- ------ ------<br>--- ----- -- ----,152681.40000009537,152680,152420.801,152430.80000019073,152451.338,152702.146,,40,are
screen,html.Screen,2_1_0_1_41,2022-02-02T14:43:40.472Z,,,,,,,,,,,,,,,,,53,,,,,,,,,,,,,,242.75400009535952,,response,,,,99,,,,,,,Space,keypress(Space),,,,,,,,---- -- ----- -- ------ - ------- --- ----------<br>------------- ------ ------ ---- ---- ------- ----- -- ----<br>-------- ------- -- ---------- --- - --- ----- ----- ----<br>---- --- --- ----- --- ---- ---- ------- ----- ---- -------<br>--- --- as ----- -- --- ---- -- --- ---- -- ------ ------<br>--- ----- -- ----,152946.40000009537,152944.90000009537,152666.33,152681.7000002861,152702.146,152966.945,,41,as
screen,html.Screen,2_1_0_1_42,2022-02-02T14:43:40.754Z,,,,,,,,,,,,,,,,,53,,,,,,,,,,,,,,259.7550002860953,,response,,,,99,,,,,,,Space,keypress(Space),,,,,,,,---- -- ----- -- ------ - ------- --- ----------<br>------------- ------ ------ ---- ---- ------- ----- -- ----<br>-------- ------- -- ---------- --- - --- ----- ----- ----<br>---- --- --- ----- --- ---- ---- ------- ----- ---- -------<br>--- --- -- close -- --- ---- -- --- ---- -- ------ ------<br>--- ----- -- ----,153228,153226.7000002861,152931.897,152946.80000019073,152966.945,153250.543,,42,close
screen,html.Screen,2_1_0_1_43,2022-02-02T14:43:41.055Z,,,,,,,,,,,,,,,,,53,,,,,,,,,,,,,,277.6570002860972,,response,,,,99,,,,,,,Space,keypress(Space),,,,,,,,---- -- ----- -- ------ - ------- --- ----------<br>------------- ------ ------ ---- ---- ------- ----- -- ----<br>-------- ------- -- ---------- --- - --- ----- ----- ----<br>---- --- --- ----- --- ---- ---- ------- ----- ---- -------<br>--- --- -- ----- as --- ---- -- --- ---- -- ------ ------<br>--- ----- -- ----,153529.5,153528.2000002861,153212.681,153228.30000019073,153250.543,153561.764,,43,as
screen,html.Screen,2_1_0_1_44,2022-02-02T14:43:41.288Z,,,,,,,,,,,,,,,,,53,,,,,,,,,,,,,,198.73600000000442,,response,,,,99,,,,,,,Space,keypress(Space),,,,,,,,---- -- ----- -- ------ - ------- --- ----------<br>------------- ------ ------ ---- ---- ------- ----- -- ----<br>-------- ------- -- ---------- --- - --- ----- ----- ----<br>---- --- --- ----- --- ---- ---- ------- ----- ---- -------<br>--- --- -- ----- -- you ---- -- --- ---- -- ------ ------<br>--- ----- -- ----,153761.80000019073,153760.5,153529.084,153529.7000002861,153561.764,153792.889,,44,you
screen,html.Screen,2_1_0_1_45,2022-02-02T14:43:41.544Z,,,,,,,,,,,,,,,,,53,,,,,,,,,,,,,,224.01100009537186,,response,,,,99,,,,,,,Space,keypress(Space),,,,,,,,---- -- ----- -- ------ - ------- --- ----------<br>------------- ------ ------ ---- ---- ------- ----- -- ----<br>-------- ------- -- ---------- --- - --- ----- ----- ----<br>---- --- --- ----- --- ---- ---- ------- ----- ---- -------<br>--- --- -- ----- -- --- want -- --- ---- -- ------ ------<br>--- ----- -- ----,154018.40000009537,154016.90000009537,153759.085,153762,153792.889,154038.013,,45,want
screen,html.Screen,2_1_0_1_46,2022-02-02T14:43:41.809Z,,,,,,,,,,,,,,,,,53,,,,,,,,,,,,,,241.9869999999937,,response,,,,99,,,,,,,Space,keypress(Space),,,,,,,,---- -- ----- -- ------ - ------- --- ----------<br>------------- ------ ------ ---- ---- ------- ----- -- ----<br>-------- ------- -- ---------- --- - --- ----- ----- ----<br>---- --- --- ----- --- ---- ---- ------- ----- ---- -------<br>--- --- -- ----- -- --- ---- to --- ---- -- ------ ------<br>--- ----- -- ----,154282.90000009537,154280,154008.156,154018.60000038147,154038.013,154301.47,,46,to
screen,html.Screen,2_1_0_1_47,2022-02-02T14:43:42.104Z,,,,,,,,,,,,,,,,,53,,,,,,,,,,,,,,275.63000038146856,,response,,,,99,,,,,,,Space,keypress(Space),,,,,,,,"---- -- ----- -- ------ - ------- --- ----------<br>------------- ------ ------ ---- ---- ------- ----- -- ----<br>-------- ------- -- ---------- --- - --- ----- ----- ----<br>---- --- --- ----- --- ---- ---- ------- ----- ---- -------<br>--- --- -- ----- -- --- ---- -- be, ---- -- ------ ------<br>--- ----- -- ----",154578.40000009537,154577.10000038147,154269.182,154283.2000002861,154301.47,154598.271,,47,"be,"
screen,html.Screen,2_1_0_1_48,2022-02-02T14:43:42.368Z,,,,,,,,,,,,,,,,,53,,,,,,,,,,,,,,242.52900019072695,,response,,,,99,,,,,,,Space,keypress(Space),,,,,,,,---- -- ----- -- ------ - ------- --- ----------<br>------------- ------ ------ ---- ---- ------- ----- -- ----<br>-------- ------- -- ---------- --- - --- ----- ----- ----<br>---- --- --- ----- --- ---- ---- ------- ----- ---- -------<br>--- --- -- ----- -- --- ---- -- --- even -- ------ ------<br>--- ----- -- ----,154842.2000002861,154840.80000019073,154563.659,154578.7000002861,154598.271,154863.166,,48,even
screen,html.Screen,2_1_0_1_49,2022-02-02T14:43:42.658Z,,,,,,,,,,,,,,,,,53,,,,,,,,,,,,,,267.1340001907374,,response,,,,99,,,,,,,Space,keypress(Space),,,,,,,,---- -- ----- -- ------ - ------- --- ----------<br>------------- ------ ------ ---- ---- ------- ----- -- ----<br>-------- ------- -- ---------- --- - --- ----- ----- ----<br>---- --- --- ----- --- ---- ---- ------- ----- ---- -------<br>--- --- -- ----- -- --- ---- -- --- ---- if ------ ------<br>--- ----- -- ----,155131.80000019073,155130.30000019073,154826.958,154842.5,154863.166,155158.736,,49,if
screen,html.Screen,2_1_0_1_50,2022-02-02T14:43:42.904Z,,,,,,,,,,,,,,,,,53,,,,,,,,,,,,,,217.76399999999558,,response,,,,99,,,,,,,Space,keypress(Space),,,,,,,,---- -- ----- -- ------ - ------- --- ----------<br>------------- ------ ------ ---- ---- ------- ----- -- ----<br>-------- ------- -- ---------- --- - --- ----- ----- ----<br>---- --- --- ----- --- ---- ---- ------- ----- ---- -------<br>--- --- -- ----- -- --- ---- -- --- ---- -- that's ------<br>--- ----- -- ----,155377.90000009537,155376.5,155125.306,155132,155158.736,155408.787,,50,that's
screen,html.Screen,2_1_0_1_51,2022-02-02T14:43:43.168Z,,,,,,,,,,,,,,,,,53,,,,,,,,,,,,,,232.11300009535626,,response,,,,99,,,,,,,Space,keypress(Space),,,,,,,,---- -- ----- -- ------ - ------- --- ----------<br>------------- ------ ------ ---- ---- ------- ----- -- ----<br>-------- ------- -- ---------- --- - --- ----- ----- ----<br>---- --- --- ----- --- ---- ---- ------- ----- ---- -------<br>--- --- -- ----- -- --- ---- -- --- ---- -- ------ really<br>--- ----- -- ----,155642.40000009537,155640.90000009537,155373.456,155378.40000009537,155408.787,155674.81,,51,really
screen,html.Screen,2_1_0_1_52,2022-02-02T14:43:43.560Z,,,,,,,,,,,,,,,,,53,,,,,,,,,,,,,,358.09000009536976,,response,,,,99,,,,,,,Space,keypress(Space),,,,,,,,---- -- ----- -- ------ - ------- --- ----------<br>------------- ------ ------ ---- ---- ------- ----- -- ----<br>-------- ------- -- ---------- --- - --- ----- ----- ----<br>---- --- --- ----- --- ---- ---- ------- ----- ---- -------<br>--- --- -- ----- -- --- ---- -- --- ---- -- ------ ------<br>not ----- -- ----,156034.7000002861,156032.90000009537,155639.705,155642.80000019073,155674.81,156065.365,,52,not
screen,html.Screen,2_1_0_1_53,2022-02-02T14:43:43.817Z,,,,,,,,,,,,,,,,,53,,,,,,,,,,,,,,224.03500009537674,,response,,,,99,,,,,,,Space,keypress(Space),,,,,,,,---- -- ----- -- ------ - ------- --- ----------<br>------------- ------ ------ ---- ---- ------- ----- -- ----<br>-------- ------- -- ---------- --- - --- ----- ----- ----<br>---- --- --- ----- --- ---- ---- ------- ----- ---- -------<br>--- --- -- ----- -- --- ---- -- --- ---- -- ------ ------<br>--- close -- ----,156290.80000019073,156289.40000009537,156022.678,156034.90000009537,156065.365,156316.225,,53,close
screen,html.Screen,2_1_0_1_54,2022-02-02T14:43:44.113Z,,,,,,,,,,,,,,,,,53,,,,,,,,,,,,,,269.1750000953616,,response,,,,99,,,,,,,Space,keypress(Space),,,,,,,,---- -- ----- -- ------ - ------- --- ----------<br>------------- ------ ------ ---- ---- ------- ----- -- ----<br>-------- ------- -- ---------- --- - --- ----- ----- ----<br>---- --- --- ----- --- ---- ---- ------- ----- ---- -------<br>--- --- -- ----- -- --- ---- -- --- ---- -- ------ ------<br>--- ----- at ----,156587,156585.40000009537,156280.068,156291,156316.225,156613.973,,54,at
screen,html.Screen,2_1_0_1_55,2022-02-02T14:43:44.456Z,,,,,,,,,,,,,,,,,53,,,,,,,,,,,,,,315.1270003814716,,response,,,,99,,,,,,,Space,keypress(Space),,,,,,,,---- -- ----- -- ------ - ------- --- ----------<br>------------- ------ ------ ---- ---- ------- ----- -- ----<br>-------- ------- -- ---------- --- - --- ----- ----- ----<br>---- --- --- ----- --- ---- ---- ------- ----- ---- -------<br>--- --- -- ----- -- --- ---- -- --- ---- -- ------ ------<br>--- ----- -- all.,156930.60000038147,156929.10000038147,156581.633,156587.2000002861,156613.973,156956.987,,55,all.
Item 99,flow.Loop,2_1_0_1,2022-02-02T14:43:44.457Z,,,,,,,,,,,,,,,,,,,,,,,,,,,,,,,17514.086000381474,,completion,,,,,C,,,,,,,,,,,silence,,,,,156931.10000038147,156929.10000038147,139382.828,139384.5,139415.014,156956.987,,,
Question 1,html.Screen,2_1_0_2,2022-02-02T14:43:51.324Z,,,,,,,,,,,,,,,,,,,,,,,,,,,,true,FALSE,,6839.613000381476,,response,,,,99,C,,,,,,FALSE,click #choice-2,,,,silence,,,,,163798.30000019073,163796.60000038147,156928.956,156931.30000019073,156956.987,163818.515,,,
Question 2,html.Screen,2_1_0_3,2022-02-02T14:43:57.624Z,,,,,,,,,,,,,,,,,,,,,,,,,,,,true,TRUE,,6278.085000381456,,response,,,,99,C,,,,,,TRUE,click #choice-1,,,,silence,,,,,170098.40000009537,170096.60000038147,163792.485,163798.5,163818.515,170124.417,,,
Item 99,flow.Sequence,2_1_0,2022-02-02T14:43:57.624Z,,,,,,,,,,,,,,,,,,,,,,,,,,,,,,,40673.56200038147,,completion,,,,,,,,,,,,,,,,,,,,,170098.5,170096.60000038147,129383.996,129396,129423.038,170124.417,,,
Holding screen,html.Screen,2_1_1_0,2022-02-02T14:44:07.623Z,,,,,,,,,,,,,,,,,,,,,,,,,,,,,,,10001.682,,timeout,,,,,,,,,,,,,,,,,,,,,180097.10000038147,180095.808,170082.656,170098.7000002861,170124.417,180126.099,,,
screen,html.Screen,2_1_1_1_0,2022-02-02T14:44:08.264Z,,,,,,,,,,,,,,,,,54,,,,,,,,,,,,,,611.1010002861149,,response,,,,100,,,,,,,Space,keypress(Space),,,,,,,,At --- ---- --- ------ ----- ------- ---- -- --- ------- --<br>------- ---------- ------ -- ----- -- ----- -- ---- ------<br>--- ----- --- --- ------ -------- ----- --- ------ ----- --<br>----- ----- ---------- --- --- ------ ------ ---- -- ------<br>------- --- ------ ----- --- ---- ------- -- ---- --- --<br>------- ------,180738.5,180737.2000002861,180095.808,180097.40000009537,180126.099,180770.753,,0,At
screen,html.Screen,2_1_1_1_1,2022-02-02T14:44:08.648Z,,,,,,,,,,,,,,,,,54,,,,,,,,,,,,,,349.64700009537046,,response,,,,100,,,,,,,Space,keypress(Space),,,,,,,,-- the ---- --- ------ ----- ------- ---- -- --- ------- --<br>------- ---------- ------ -- ----- -- ----- -- ---- ------<br>--- ----- --- --- ------ -------- ----- --- ------ ----- --<br>----- ----- ---------- --- --- ------ ------ ---- -- ------<br>------- --- ------ ----- --- ---- ------- -- ---- --- --<br>------- ------,181121.80000019073,181120.40000009537,180723.942,180738.80000019073,180770.753,181145.991,,1,the
screen,html.Screen,2_1_1_1_2,2022-02-02T14:44:08.927Z,,,,,,,,,,,,,,,,,54,,,,,,,,,,,,,,254.00899999999092,,response,,,,100,,,,,,,Space,keypress(Space),,,,,,,,-- --- time --- ------ ----- ------- ---- -- --- ------- --<br>------- ---------- ------ -- ----- -- ----- -- ---- ------<br>--- ----- --- --- ------ -------- ----- --- ------ ----- --<br>----- ----- ---------- --- --- ------ ------ ---- -- ------<br>------- --- ------ ----- --- ---- ------- -- ---- --- --<br>------- ------,181401.40000009537,181400,181115.993,181122.10000038147,181145.991,181427.456,,2,time
screen,html.Screen,2_1_1_1_3,2022-02-02T14:44:09.263Z,,,,,,,,,,,,,,,,,54,,,,,,,,,,,,,,308.7440002860967,,response,,,,100,,,,,,,Space,keypress(Space),,,,,,,,-- --- ---- the ------ ----- ------- ---- -- --- ------- --<br>------- ---------- ------ -- ----- -- ----- -- ---- ------<br>--- ----- --- --- ------ -------- ----- --- ------ ----- --<br>----- ----- ---------- --- --- ------ ------ ---- -- ------<br>------- --- ------ ----- --- ---- ------- -- ---- --- --<br>------- ------,181737.40000009537,181736.2000002861,181394.394,181401.7000002861,181427.456,181770.427,,3,the
screen,html.Screen,2_1_1_1_4,2022-02-02T14:44:09.592Z,,,,,,,,,,,,,,,,,54,,,,,,,,,,,,,,294.07300000000396,,response,,,,100,,,,,,,Space,keypress(Space),,,,,,,,-- --- ---- --- French ----- ------- ---- -- --- ------- --<br>------- ---------- ------ -- ----- -- ----- -- ---- ------<br>--- ----- --- --- ------ -------- ----- --- ------ ----- --<br>----- ----- ---------- --- --- ------ ------ ---- -- ------<br>------- --- ------ ----- --- ---- ------- -- ---- --- --<br>------- ------,182066,182064.5,181725.749,181737.7000002861,181770.427,182096.766,,4,French
screen,html.Screen,2_1_1_1_5,2022-02-02T14:44:09.897Z,,,,,,,,,,,,,,,,,54,,,,,,,,,,,,,,272.73399999999674,,response,,,,100,,,,,,,Space,keypress(Space),,,,,,,,-- --- ---- --- ------ crown ------- ---- -- --- ------- --<br>------- ---------- ------ -- ----- -- ----- -- ---- ------<br>--- ----- --- --- ------ -------- ----- --- ------ ----- --<br>----- ----- ---------- --- --- ------ ------ ---- -- ------<br>------- --- ------ ----- --- ---- ------- -- ---- --- --<br>------- ------,182370.80000019073,182369.5,182064.964,182066.2000002861,182096.766,182403.372,,5,crown
screen,html.Screen,2_1_1_1_6,2022-02-02T14:44:10.351Z,,,,,,,,,,,,,,,,,54,,,,,,,,,,,,,,420.92800019073184,,response,,,,100,,,,,,,Space,keypress(Space),,,,,,,,-- --- ---- --- ------ ----- secured ---- -- --- ------- --<br>------- ---------- ------ -- ----- -- ----- -- ---- ------<br>--- ----- --- --- ------ -------- ----- --- ------ ----- --<br>----- ----- ---------- --- --- ------ ------ ---- -- ------<br>------- --- ------ ----- --- ---- ------- -- ---- --- --<br>------- ------,182825.7000002861,182824.30000019073,182361.588,182370.90000009537,182403.372,182845.499,,6,secured
screen,html.Screen,2_1_1_1_7,2022-02-02T14:44:10.717Z,,,,,,,,,,,,,,,,,54,,,,,,,,,,,,,,345.2010002860916,,response,,,,100,,,,,,,Space,keypress(Space),,,,,,,,-- --- ---- --- ------ ----- ------- much -- --- ------- --<br>------- ---------- ------ -- ----- -- ----- -- ---- ------<br>--- ----- --- --- ------ -------- ----- --- ------ ----- --<br>----- ----- ---------- --- --- ------ ------ ---- -- ------<br>------- --- ------ ----- --- ---- ------- -- ---- --- --<br>------- ------,183191.2000002861,183190.7000002861,182818.089,182826,182845.499,183221.129,,7,much
screen,html.Screen,2_1_1_1_8,2022-02-02T14:44:11.031Z,,,,,,,,,,,,,,,,,54,,,,,,,,,,,,,,283.1710001907486,,response,,,,100,,,,,,,Space,keypress(Space),,,,,,,,-- --- ---- --- ------ ----- ------- ---- of --- ------- --<br>------- ---------- ------ -- ----- -- ----- -- ---- ------<br>--- ----- --- --- ------ -------- ----- --- ------ ----- --<br>----- ----- ---------- --- --- ------ ------ ---- -- ------<br>------- --- ------ ----- --- ---- ------- -- ---- --- --<br>------- ------,183505.7000002861,183504.30000019073,183176.185,183191.30000019073,183221.129,183528.953,,8,of
screen,html.Screen,2_1_1_1_9,2022-02-02T14:44:11.304Z,,,,,,,,,,,,,,,,,54,,,,,,,,,,,,,,247.84700019072625,,response,,,,100,,,,,,,Space,keypress(Space),,,,,,,,-- --- ---- --- ------ ----- ------- ---- -- its ------- --<br>------- ---------- ------ -- ----- -- ----- -- ---- ------<br>--- ----- --- --- ------ -------- ----- --- ------ ----- --<br>----- ----- ---------- --- --- ------ ------ ---- -- ------<br>------- --- ------ ----- --- ---- ------- -- ---- --- --<br>------- ------,183777.80000019073,183776.80000019073,183502.403,183505.90000009537,183528.953,183807.529,,9,its
screen,html.Screen,2_1_1_1_10,2022-02-02T14:44:11.568Z,,,,,,,,,,,,,,,,,54,,,,,,,,,,,,,,232.87100009535789,,response,,,,100,,,,,,,Space,keypress(Space),,,,,,,,-- --- ---- --- ------ ----- ------- ---- -- --- revenue --<br>------- ---------- ------ -- ----- -- ----- -- ---- ------<br>--- ----- --- --- ------ -------- ----- --- ------ ----- --<br>----- ----- ---------- --- --- ------ ------ ---- -- ------<br>------- --- ------ ----- --- ---- ------- -- ---- --- --<br>------- ------,184041.90000009537,184040.40000009537,183776.296,183778.10000038147,183807.529,184073.857,,10,revenue
screen,html.Screen,2_1_1_1_11,2022-02-02T14:44:11.912Z,,,,,,,,,,,,,,,,,54,,,,,,,,,,,,,,310.84300028611324,,response,,,,100,,,,,,,Space,keypress(Space),,,,,,,,-- --- ---- --- ------ ----- ------- ---- -- --- ------- by<br>------- ---------- ------ -- ----- -- ----- -- ---- ------<br>--- ----- --- --- ------ -------- ----- --- ------ ----- --<br>----- ----- ---------- --- --- ------ ------ ---- -- ------<br>------- --- ------ ----- --- ---- ------- -- ---- --- --<br>------- ------,184386.10000038147,184384.7000002861,184038.685,184042.2000002861,184073.857,184405.29,,11,by
screen,html.Screen,2_1_1_1_12,2022-02-02T14:44:12.192Z,,,,,,,,,,,,,,,,,54,,,,,,,,,,,,,,259.1100000953593,,response,,,,100,,,,,,,Space,keypress(Space),,,,,,,,-- --- ---- --- ------ ----- ------- ---- -- --- ------- --<br>issuing ---------- ------ -- ----- -- ----- -- ---- ------<br>--- ----- --- --- ------ -------- ----- --- ------ ----- --<br>----- ----- ---------- --- --- ------ ------ ---- -- ------<br>------- --- ------ ----- --- ---- ------- -- ---- --- --<br>------- ------,184665.80000019073,184664.40000009537,184372.553,184386.5,184405.29,184689.103,,12,issuing
screen,html.Screen,2_1_1_1_13,2022-02-02T14:44:12.455Z,,,,,,,,,,,,,,,,,54,,,,,,,,,,,,,,239.19700019073207,,response,,,,100,,,,,,,Space,keypress(Space),,,,,,,,-- --- ---- --- ------ ----- ------- ---- -- --- ------- --<br>------- government ------ -- ----- -- ----- -- ---- ------<br>--- ----- --- --- ------ -------- ----- --- ------ ----- --<br>----- ----- ---------- --- --- ------ ------ ---- -- ------<br>------- --- ------ ----- --- ---- ------- -- ---- --- --<br>------- ------,184929.7000002861,184928.30000019073,184651.226,184666,184689.103,184955.534,,13,government
screen,html.Screen,2_1_1_1_14,2022-02-02T14:44:12.817Z,,,,,,,,,,,,,,,,,54,,,,,,,,,,,,,,333.86600009535323,,response,,,,100,,,,,,,Space,keypress(Space),,,,,,,,-- --- ---- --- ------ ----- ------- ---- -- --- ------- --<br>------- ---------- bonds. -- ----- -- ----- -- ---- ------<br>--- ----- --- --- ------ -------- ----- --- ------ ----- --<br>----- ----- ---------- --- --- ------ ------ ---- -- ------<br>------- --- ------ ----- --- ---- ------- -- ---- --- --<br>------- ------,185290.80000019073,185289.40000009537,184918.544,184929.90000009537,184955.534,185318.328,,14,bonds.
screen,html.Screen,2_1_1_1_15,2022-02-02T14:44:13.176Z,,,,,,,,,,,,,,,,,54,,,,,,,,,,,,,,330.0720000953588,,response,,,,100,,,,,,,Space,keypress(Space),,,,,,,,-- --- ---- --- ------ ----- ------- ---- -- --- ------- --<br>------- ---------- ------ In ----- -- ----- -- ---- ------<br>--- ----- --- --- ------ -------- ----- --- ------ ----- --<br>----- ----- ---------- --- --- ------ ------ ---- -- ------<br>------- --- ------ ----- --- ---- ------- -- ---- --- --<br>------- ------,185650.10000038147,185648.40000009537,185287.855,185291,185318.328,185680.197,,15,In
screen,html.Screen,2_1_1_1_16,2022-02-02T14:44:13.528Z,,,,,,,,,,,,,,,,,54,,,,,,,,,,,,,,320.20300009538187,,response,,,,100,,,,,,,Space,keypress(Space),,,,,,,,"-- --- ---- --- ------ ----- ------- ---- -- --- ------- --<br>------- ---------- ------ -- 1727, -- ----- -- ---- ------<br>--- ----- --- --- ------ -------- ----- --- ------ ----- --<br>----- ----- ---------- --- --- ------ ------ ---- -- ------<br>------- --- ------ ----- --- ---- ------- -- ---- --- --<br>------- ------",186001.7000002861,186000.40000009537,185649.39,185650.40000009537,185680.197,186025.413,,16,"1727,"
screen,html.Screen,2_1_1_1_17,2022-02-02T14:44:13.903Z,,,,,,,,,,,,,,,,,54,,,,,,,,,,,,,,350.8870001907344,,response,,,,100,,,,,,,Space,keypress(Space),,,,,,,,-- --- ---- --- ------ ----- ------- ---- -- --- ------- --<br>------- ---------- ------ -- ----- in ----- -- ---- ------<br>--- ----- --- --- ------ -------- ----- --- ------ ----- --<br>----- ----- ---------- --- --- ------ ------ ---- -- ------<br>------- --- ------ ----- --- ---- ------- -- ---- --- --<br>------- ------,186377.7000002861,186376.30000019073,185994.787,186002,186025.413,186401.515,,17,in
screen,html.Screen,2_1_1_1_18,2022-02-02T14:44:14.256Z,,,,,,,,,,,,,,,,,54,,,,,,,,,,,,,,326.88500009535346,,response,,,,100,,,,,,,Space,keypress(Space),,,,,,,,-- --- ---- --- ------ ----- ------- ---- -- --- ------- --<br>------- ---------- ------ -- ----- -- order -- ---- ------<br>--- ----- --- --- ------ -------- ----- --- ------ ----- --<br>----- ----- ---------- --- --- ------ ------ ---- -- ------<br>------- --- ------ ----- --- ---- ------- -- ---- --- --<br>------- ------,186730,186728.40000009537,186373.472,186379.90000009537,186401.515,186761.849,,18,order
screen,html.Screen,2_1_1_1_19,2022-02-02T14:44:14.664Z,,,,,,,,,,,,,,,,,54,,,,,,,,,,,,,,374.55100009538,,response,,,,100,,,,,,,Space,keypress(Space),,,,,,,,-- --- ---- --- ------ ----- ------- ---- -- --- ------- --<br>------- ---------- ------ -- ----- -- ----- to ---- ------<br>--- ----- --- --- ------ -------- ----- --- ------ ----- --<br>----- ----- ---------- --- --- ------ ------ ---- -- ------<br>------- --- ------ ----- --- ---- ------- -- ---- --- --<br>------- ------,187137.80000019073,187136.40000009537,186716.556,186730.30000019073,186761.849,187170.371,,19,to
screen,html.Screen,2_1_1_1_20,2022-02-02T14:44:15.015Z,,,,,,,,,,,,,,,,,54,,,,,,,,,,,,,,317.82900028608856,,response,,,,100,,,,,,,Space,keypress(Space),,,,,,,,-- --- ---- --- ------ ----- ------- ---- -- --- ------- --<br>------- ---------- ------ -- ----- -- ----- -- save ------<br>--- ----- --- --- ------ -------- ----- --- ------ ----- --<br>----- ----- ---------- --- --- ------ ------ ---- -- ------<br>------- --- ------ ----- --- ---- ------- -- ---- --- --<br>------- ------,187489.60000038147,187488.2000002861,187124.807,187138.10000038147,187170.371,187516.498,,20,save
screen,html.Screen,2_1_1_1_21,2022-02-02T14:44:15.415Z,,,,,,,,,,,,,,,,,54,,,,,,,,,,,,,,371.6020003814774,,response,,,,100,,,,,,,Space,keypress(Space),,,,,,,,"-- --- ---- --- ------ ----- ------- ---- -- --- ------- --<br>------- ---------- ------ -- ----- -- ----- -- ---- money,<br>--- ----- --- --- ------ -------- ----- --- ------ ----- --<br>----- ----- ---------- --- --- ------ ------ ---- -- ------<br>------- --- ------ ----- --- ---- ------- -- ---- --- --<br>------- ------",187889.30000019073,187888.10000038147,187483.226,187490,187516.498,187912.149,,21,"money,"
screen,html.Screen,2_1_1_1_22,2022-02-02T14:44:15.767Z,,,,,,,,,,,,,,,,,54,,,,,,,,,,,,,,327.8509999999951,,response,,,,100,,,,,,,Space,keypress(Space),,,,,,,,-- --- ---- --- ------ ----- ------- ---- -- --- ------- --<br>------- ---------- ------ -- ----- -- ----- -- ---- ------<br>the ----- --- --- ------ -------- ----- --- ------ ----- --<br>----- ----- ---------- --- --- ------ ------ ---- -- ------<br>------- --- ------ ----- --- ---- ------- -- ---- --- --<br>------- ------,188241.60000038147,188240,187881.845,187889.5,187912.149,188273.624,,22,the
screen,html.Screen,2_1_1_1_23,2022-02-02T14:44:16.015Z,,,,,,,,,,,,,,,,,54,,,,,,,,,,,,,,214.27600009535672,,response,,,,100,,,,,,,Space,keypress(Space),,,,,,,,-- --- ---- --- ------ ----- ------- ---- -- --- ------- --<br>------- ---------- ------ -- ----- -- ----- -- ---- ------<br>--- state --- --- ------ -------- ----- --- ------ ----- --<br>----- ----- ---------- --- --- ------ ------ ---- -- ------<br>------- --- ------ ----- --- ---- ------- -- ---- --- --<br>------- ------,188489.2000002861,188487.90000009537,188226.57,188241.80000019073,188273.624,188509.943,,23,state
screen,html.Screen,2_1_1_1_24,2022-02-02T14:44:16.360Z,,,,,,,,,,,,,,,,,54,,,,,,,,,,,,,,322.85700019073556,,response,,,,100,,,,,,,Space,keypress(Space),,,,,,,,-- --- ---- --- ------ ----- ------- ---- -- --- ------- --<br>------- ---------- ------ -- ----- -- ----- -- ---- ------<br>--- ----- cut --- ------ -------- ----- --- ------ ----- --<br>----- ----- ---------- --- --- ------ ------ ---- -- ------<br>------- --- ------ ----- --- ---- ------- -- ---- --- --<br>------- ------,188834.30000019073,188832.80000019073,188486.996,188489.40000009537,188509.943,188853.796,,24,cut
screen,html.Screen,2_1_1_1_25,2022-02-02T14:44:16.632Z,,,,,,,,,,,,,,,,,54,,,,,,,,,,,,,,250.50400019073277,,response,,,,100,,,,,,,Space,keypress(Space),,,,,,,,-- --- ---- --- ------ ----- ------- ---- -- --- ------- --<br>------- ---------- ------ -- ----- -- ----- -- ---- ------<br>--- ----- --- the ------ -------- ----- --- ------ ----- --<br>----- ----- ---------- --- --- ------ ------ ---- -- ------<br>------- --- ------ ----- --- ---- ------- -- ---- --- --<br>------- ------,189105.80000019073,189104.30000019073,188824.485,188834.60000038147,188853.796,189136.005,,25,the
screen,html.Screen,2_1_1_1_26,2022-02-02T14:44:16.839Z,,,,,,,,,,,,,,,,,54,,,,,,,,,,,,,,176.2950001907302,,response,,,,100,,,,,,,Space,keypress(Space),,,,,,,,-- --- ---- --- ------ ----- ------- ---- -- --- ------- --<br>------- ---------- ------ -- ----- -- ----- -- ---- ------<br>--- ----- --- --- bonds' -------- ----- --- ------ ----- --<br>----- ----- ---------- --- --- ------ ------ ---- -- ------<br>------- --- ------ ----- --- ---- ------- -- ---- --- --<br>------- ------,189313.60000038147,189312.30000019073,189101.502,189106.2000002861,189136.005,189337.599,,26,bonds'
screen,html.Screen,2_1_1_1_27,2022-02-02T14:44:17.207Z,,,,,,,,,,,,,,,,,54,,,,,,,,,,,,,,342.80100009538,,response,,,,100,,,,,,,Space,keypress(Space),,,,,,,,-- --- ---- --- ------ ----- ------- ---- -- --- ------- --<br>------- ---------- ------ -- ----- -- ----- -- ---- ------<br>--- ----- --- --- ------ interest ----- --- ------ ----- --<br>----- ----- ---------- --- --- ------ ------ ---- -- ------<br>------- --- ------ ----- --- ---- ------- -- ---- --- --<br>------- ------,189681.7000002861,189680.40000009537,189299.733,189313.90000009537,189337.599,189703.838,,27,interest
screen,html.Screen,2_1_1_1_28,2022-02-02T14:44:17.495Z,,,,,,,,,,,,,,,,,54,,,,,,,,,,,,,,264.2620003814809,,response,,,,100,,,,,,,Space,keypress(Space),,,,,,,,-- --- ---- --- ------ ----- ------- ---- -- --- ------- --<br>------- ---------- ------ -- ----- -- ----- -- ---- ------<br>--- ----- --- --- ------ -------- rate. --- ------ ----- --<br>----- ----- ---------- --- --- ------ ------ ---- -- ------<br>------- --- ------ ----- --- ---- ------- -- ---- --- --<br>------- ------,189969.60000038147,189968.10000038147,189673.069,189681.90000009537,189703.838,189999.738,,28,rate.
screen,html.Screen,2_1_1_1_29,2022-02-02T14:44:17.775Z,,,,,,,,,,,,,,,,,54,,,,,,,,,,,,,,248.56200019072276,,response,,,,100,,,,,,,Space,keypress(Space),,,,,,,,-- --- ---- --- ------ ----- ------- ---- -- --- ------- --<br>------- ---------- ------ -- ----- -- ----- -- ---- ------<br>--- ----- --- --- ------ -------- ----- The ------ ----- --<br>----- ----- ---------- --- --- ------ ------ ---- -- ------<br>------- --- ------ ----- --- ---- ------- -- ---- --- --<br>------- ------,190249.60000038147,190248.30000019073,189968.078,189969.90000009537,189999.738,190281.636,,29,The
screen,html.Screen,2_1_1_1_30,2022-02-02T14:44:18.103Z,,,,,,,,,,,,,,,,,54,,,,,,,,,,,,,,294.8640000000014,,response,,,,100,,,,,,,Space,keypress(Space),,,,,,,,-- --- ---- --- ------ ----- ------- ---- -- --- ------- --<br>------- ---------- ------ -- ----- -- ----- -- ---- ------<br>--- ----- --- --- ------ -------- ----- --- market ----- --<br>----- ----- ---------- --- --- ------ ------ ---- -- ------<br>------- --- ------ ----- --- ---- ------- -- ---- --- --<br>------- ------,190577.7000002861,190576.5,190248.02,190249.80000019073,190281.636,190610.653,,30,market
screen,html.Screen,2_1_1_1_31,2022-02-02T14:44:18.496Z,,,,,,,,,,,,,,,,,54,,,,,,,,,,,,,,358.04700028611114,,response,,,,100,,,,,,,Space,keypress(Space),,,,,,,,-- --- ---- --- ------ ----- ------- ---- -- --- ------- --<br>------- ---------- ------ -- ----- -- ----- -- ---- ------<br>--- ----- --- --- ------ -------- ----- --- ------ value --<br>----- ----- ---------- --- --- ------ ------ ---- -- ------<br>------- --- ------ ----- --- ---- ------- -- ---- --- --<br>------- ------,190970,190968.7000002861,190564.257,190578.10000038147,190610.653,191001.05,,31,value
screen,html.Screen,2_1_1_1_32,2022-02-02T14:44:18.801Z,,,,,,,,,,,,,,,,,54,,,,,,,,,,,,,,272.55000038148137,,response,,,,100,,,,,,,Space,keypress(Space),,,,,,,,-- --- ---- --- ------ ----- ------- ---- -- --- ------- --<br>------- ---------- ------ -- ----- -- ----- -- ---- ------<br>--- ----- --- --- ------ -------- ----- --- ------ ----- of<br>----- ----- ---------- --- --- ------ ------ ---- -- ------<br>------- --- ------ ----- --- ---- ------- -- ---- --- --<br>------- ------,191275,191273.60000038147,190955.642,190970.30000019073,191001.05,191301.589,,32,of
screen,html.Screen,2_1_1_1_33,2022-02-02T14:44:19.120Z,,,,,,,,,,,,,,,,,54,,,,,,,,,,,,,,291.1110002860951,,response,,,,100,,,,,,,Space,keypress(Space),,,,,,,,-- --- ---- --- ------ ----- ------- ---- -- --- ------- --<br>------- ---------- ------ -- ----- -- ----- -- ---- ------<br>--- ----- --- --- ------ -------- ----- --- ------ ----- --<br>these ----- ---------- --- --- ------ ------ ---- -- ------<br>------- --- ------ ----- --- ---- ------- -- ---- --- --<br>------- ------,191594.2000002861,191592.7000002861,191263.53,191275.30000019073,191301.589,191613.968,,33,these
screen,html.Screen,2_1_1_1_34,2022-02-02T14:44:19.367Z,,,,,,,,,,,,,,,,,54,,,,,,,,,,,,,,226.33200019074138,,response,,,,100,,,,,,,Space,keypress(Space),,,,,,,,-- --- ---- --- ------ ----- ------- ---- -- --- ------- --<br>------- ---------- ------ -- ----- -- ----- -- ---- ------<br>--- ----- --- --- ------ -------- ----- --- ------ ----- --<br>----- bonds ---------- --- --- ------ ------ ---- -- ------<br>------- --- ------ ----- --- ---- ------- -- ---- --- --<br>------- ------,191841.60000038147,191840.30000019073,191583.065,191594.5,191613.968,191863.237,,34,bonds
screen,html.Screen,2_1_1_1_35,2022-02-02T14:44:19.622Z,,,,,,,,,,,,,,,,,54,,,,,,,,,,,,,,231.96300028610858,,response,,,,100,,,,,,,Space,keypress(Space),,,,,,,,"-- --- ---- --- ------ ----- ------- ---- -- --- ------- --<br>------- ---------- ------ -- ----- -- ----- -- ---- ------<br>--- ----- --- --- ------ -------- ----- --- ------ ----- --<br>----- ----- plummeted, --- --- ------ ------ ---- -- ------<br>------- --- ------ ----- --- ---- ------- -- ---- --- --<br>------- ------",192096.10000038147,192095.2000002861,191828.474,191841.90000009537,191863.237,192127.3,,35,"plummeted,"
screen,html.Screen,2_1_1_1_36,2022-02-02T14:44:19.911Z,,,,,,,,,,,,,,,,,54,,,,,,,,,,,,,,257.1000000953791,,response,,,,100,,,,,,,Space,keypress(Space),,,,,,,,-- --- ---- --- ------ ----- ------- ---- -- --- ------- --<br>------- ---------- ------ -- ----- -- ----- -- ---- ------<br>--- ----- --- --- ------ -------- ----- --- ------ ----- --<br>----- ----- ---------- and --- ------ ------ ---- -- ------<br>------- --- ------ ----- --- ---- ------- -- ---- --- --<br>------- ------,192385.60000038147,192384.40000009537,192091.685,192096.30000019073,192127.3,192405.859,,36,and
screen,html.Screen,2_1_1_1_37,2022-02-02T14:44:20.217Z,,,,,,,,,,,,,,,,,54,,,,,,,,,,,,,,284.34100028610555,,response,,,,100,,,,,,,Space,keypress(Space),,,,,,,,-- --- ---- --- ------ ----- ------- ---- -- --- ------- --<br>------- ---------- ------ -- ----- -- ----- -- ---- ------<br>--- ----- --- --- ------ -------- ----- --- ------ ----- --<br>----- ----- ---------- --- the ------ ------ ---- -- ------<br>------- --- ------ ----- --- ---- ------- -- ---- --- --<br>------- ------,192691.7000002861,192690.2000002861,192374.73,192385.90000009537,192405.859,192719.652,,37,the
screen,html.Screen,2_1_1_1_38,2022-02-02T14:44:20.423Z,,,,,,,,,,,,,,,,,54,,,,,,,,,,,,,,176.24800009536557,,response,,,,100,,,,,,,Space,keypress(Space),,,,,,,,-- --- ---- --- ------ ----- ------- ---- -- --- ------- --<br>------- ---------- ------ -- ----- -- ----- -- ---- ------<br>--- ----- --- --- ------ -------- ----- --- ------ ----- --<br>----- ----- ---------- --- --- market ------ ---- -- ------<br>------- --- ------ ----- --- ---- ------- -- ---- --- --<br>------- ------,192897.30000019073,192895.90000009537,192686.695,192691.90000009537,192719.652,192924.697,,38,market
screen,html.Screen,2_1_1_1_39,2022-02-02T14:44:20.792Z,,,,,,,,,,,,,,,,,54,,,,,,,,,,,,,,339.70300009538187,,response,,,,100,,,,,,,Space,keypress(Space),,,,,,,,-- --- ---- --- ------ ----- ------- ---- -- --- ------- --<br>------- ---------- ------ -- ----- -- ----- -- ---- ------<br>--- ----- --- --- ------ -------- ----- --- ------ ----- --<br>----- ----- ---------- --- --- ------ became ---- -- ------<br>------- --- ------ ----- --- ---- ------- -- ---- --- --<br>------- ------,193265.80000019073,193264.40000009537,192884.418,192897.60000038147,192924.697,193298.601,,39,became
screen,html.Screen,2_1_1_1_40,2022-02-02T14:44:21.095Z,,,,,,,,,,,,,,,,,54,,,,,,,,,,,,,,269.4990003814746,,response,,,,100,,,,,,,Space,keypress(Space),,,,,,,,-- --- ---- --- ------ ----- ------- ---- -- --- ------- --<br>------- ---------- ------ -- ----- -- ----- -- ---- ------<br>--- ----- --- --- ------ -------- ----- --- ------ ----- --<br>----- ----- ---------- --- --- ------ ------ wary -- ------<br>------- --- ------ ----- --- ---- ------- -- ---- --- --<br>------- ------,193569.40000009537,193568.10000038147,193253.04,193266.10000038147,193298.601,193594.937,,40,wary
screen,html.Screen,2_1_1_1_41,2022-02-02T14:44:21.336Z,,,,,,,,,,,,,,,,,54,,,,,,,,,,,,,,213.46300009536208,,response,,,,100,,,,,,,Space,keypress(Space),,,,,,,,-- --- ---- --- ------ ----- ------- ---- -- --- ------- --<br>------- ---------- ------ -- ----- -- ----- -- ---- ------<br>--- ----- --- --- ------ -------- ----- --- ------ ----- --<br>----- ----- ---------- --- --- ------ ------ ---- of ------<br>------- --- ------ ----- --- ---- ------- -- ---- --- --<br>------- ------,193809.90000009537,193808.40000009537,193560.443,193569.7000002861,193594.937,193831.507,,41,of
screen,html.Screen,2_1_1_1_42,2022-02-02T14:44:21.639Z,,,,,,,,,,,,,,,,,54,,,,,,,,,,,,,,280.3930000953551,,response,,,,100,,,,,,,Space,keypress(Space),,,,,,,,-- --- ---- --- ------ ----- ------- ---- -- --- ------- --<br>------- ---------- ------ -- ----- -- ----- -- ---- ------<br>--- ----- --- --- ------ -------- ----- --- ------ ----- --<br>----- ----- ---------- --- --- ------ ------ ---- -- French<br>------- --- ------ ----- --- ---- ------- -- ---- --- --<br>------- ------,194113.5,194111.90000009537,193809.18,193810.2000002861,193831.507,194143.911,,42,French
screen,html.Screen,2_1_1_1_43,2022-02-02T14:44:21.943Z,,,,,,,,,,,,,,,,,54,,,,,,,,,,,,,,271.7890002861095,,response,,,,100,,,,,,,Space,keypress(Space),,,,,,,,-- --- ---- --- ------ ----- ------- ---- -- --- ------- --<br>------- ---------- ------ -- ----- -- ----- -- ---- ------<br>--- ----- --- --- ------ -------- ----- --- ------ ----- --<br>----- ----- ---------- --- --- ------ ------ ---- -- ------<br>credit. --- ------ ----- --- ---- ------- -- ---- --- --<br>------- ------,194417.10000038147,194415.7000002861,194113.06,194113.80000019073,194143.911,194440.583,,43,credit.
screen,html.Screen,2_1_1_1_44,2022-02-02T14:44:22.248Z,,,,,,,,,,,,,,,,,54,,,,,,,,,,,,,,280.01700038145646,,response,,,,100,,,,,,,Space,keypress(Space),,,,,,,,-- --- ---- --- ------ ----- ------- ---- -- --- ------- --<br>------- ---------- ------ -- ----- -- ----- -- ---- ------<br>--- ----- --- --- ------ -------- ----- --- ------ ----- --<br>----- ----- ---------- --- --- ------ ------ ---- -- ------<br>------- The ------ ----- --- ---- ------- -- ---- --- --<br>------- ------,194722.30000019073,194720.60000038147,194408.836,194417.40000009537,194440.583,194752.802,,44,The
screen,html.Screen,2_1_1_1_45,2022-02-02T14:44:22.512Z,,,,,,,,,,,,,,,,,54,,,,,,,,,,,,,,231.99800019073882,,response,,,,100,,,,,,,Space,keypress(Space),,,,,,,,-- --- ---- --- ------ ----- ------- ---- -- --- ------- --<br>------- ---------- ------ -- ----- -- ----- -- ---- ------<br>--- ----- --- --- ------ -------- ----- --- ------ ----- --<br>----- ----- ---------- --- --- ------ ------ ---- -- ------<br>------- --- French ----- --- ---- ------- -- ---- --- --<br>------- ------,194986.5,194984.80000019073,194721.993,194722.60000038147,194752.802,195017.739,,45,French
screen,html.Screen,2_1_1_1_46,2022-02-02T14:44:22.775Z,,,,,,,,,,,,,,,,,54,,,,,,,,,,,,,,230.4610002861009,,response,,,,100,,,,,,,Space,keypress(Space),,,,,,,,-- --- ---- --- ------ ----- ------- ---- -- --- ------- --<br>------- ---------- ------ -- ----- -- ----- -- ---- ------<br>--- ----- --- --- ------ -------- ----- --- ------ ----- --<br>----- ----- ---------- --- --- ------ ------ ---- -- ------<br>------- --- ------ state --- ---- ------- -- ---- --- --<br>------- ------,195249.60000038147,195248.2000002861,194984.743,194986.80000019073,195017.739,195269.382,,46,state
screen,html.Screen,2_1_1_1_47,2022-02-02T14:44:23.048Z,,,,,,,,,,,,,,,,,54,,,,,,,,,,,,,,250.81800028608995,,response,,,,100,,,,,,,Space,keypress(Space),,,,,,,,-- --- ---- --- ------ ----- ------- ---- -- --- ------- --<br>------- ---------- ------ -- ----- -- ----- -- ---- ------<br>--- ----- --- --- ------ -------- ----- --- ------ ----- --<br>----- ----- ---------- --- --- ------ ------ ---- -- ------<br>------- --- ------ ----- was ---- ------- -- ---- --- --<br>------- ------,195521.90000009537,195520.2000002861,195249.967,195249.80000019073,195269.382,195552.123,,47,was
screen,html.Screen,2_1_1_1_48,2022-02-02T14:44:23.288Z,,,,,,,,,,,,,,,,,54,,,,,,,,,,,,,,208.4770003814774,,response,,,,100,,,,,,,Space,keypress(Space),,,,,,,,-- --- ---- --- ------ ----- ------- ---- -- --- ------- --<br>------- ---------- ------ -- ----- -- ----- -- ---- ------<br>--- ----- --- --- ------ -------- ----- --- ------ ----- --<br>----- ----- ---------- --- --- ------ ------ ---- -- ------<br>------- --- ------ ----- --- left ------- -- ---- --- --<br>------- ------,195761.90000009537,195760.60000038147,195517.375,195522.2000002861,195552.123,195786.899,,48,left
screen,html.Screen,2_1_1_1_49,2022-02-02T14:44:23.608Z,,,,,,,,,,,,,,,,,54,,,,,,,,,,,,,,293.50100009536254,,response,,,,100,,,,,,,Space,keypress(Space),,,,,,,,-- --- ---- --- ------ ----- ------- ---- -- --- ------- --<br>------- ---------- ------ -- ----- -- ----- -- ---- ------<br>--- ----- --- --- ------ -------- ----- --- ------ ----- --<br>----- ----- ---------- --- --- ------ ------ ---- -- ------<br>------- --- ------ ----- --- ---- without -- ---- --- --<br>------- ------,196082.2000002861,196080.40000009537,195750.638,195762.2000002861,195786.899,196115.427,,49,without
screen,html.Screen,2_1_1_1_50,2022-02-02T14:44:23.881Z,,,,,,,,,,,,,,,,,54,,,,,,,,,,,,,,238.27300028610625,,response,,,,100,,,,,,,Space,keypress(Space),,,,,,,,-- --- ---- --- ------ ----- ------- ---- -- --- ------- --<br>------- ---------- ------ -- ----- -- ----- -- ---- ------<br>--- ----- --- --- ------ -------- ----- --- ------ ----- --<br>----- ----- ---------- --- --- ------ ------ ---- -- ------<br>------- --- ------ ----- --- ---- ------- an ---- --- --<br>------- ------,196354.90000009537,196353.7000002861,196068.261,196082.40000009537,196115.427,196381.87,,50,an
screen,html.Screen,2_1_1_1_51,2022-02-02T14:44:24.168Z,,,,,,,,,,,,,,,,,54,,,,,,,,,,,,,,258.63000000000466,,response,,,,100,,,,,,,Space,keypress(Space),,,,,,,,-- --- ---- --- ------ ----- ------- ---- -- --- ------- --<br>------- ---------- ------ -- ----- -- ----- -- ---- ------<br>--- ----- --- --- ------ -------- ----- --- ------ ----- --<br>----- ----- ---------- --- --- ------ ------ ---- -- ------<br>------- --- ------ ----- --- ---- ------- -- easy --- --<br>------- ------,196642,196640.5,196344.135,196355.2000002861,196381.87,196664.154,,51,easy
screen,html.Screen,2_1_1_1_52,2022-02-02T14:44:24.463Z,,,,,,,,,,,,,,,,,54,,,,,,,,,,,,,,272.1460001907253,,response,,,,100,,,,,,,Space,keypress(Space),,,,,,,,-- --- ---- --- ------ ----- ------- ---- -- --- ------- --<br>------- ---------- ------ -- ----- -- ----- -- ---- ------<br>--- ----- --- --- ------ -------- ----- --- ------ ----- --<br>----- ----- ---------- --- --- ------ ------ ---- -- ------<br>------- --- ------ ----- --- ---- ------- -- ---- way --<br>------- ------,196937.5,196936.30000019073,196630.257,196642.30000019073,196664.154,196960.948,,52,way
screen,html.Screen,2_1_1_1_53,2022-02-02T14:44:24.751Z,,,,,,,,,,,,,,,,,54,,,,,,,,,,,,,,263.4520000953635,,response,,,,100,,,,,,,Space,keypress(Space),,,,,,,,-- --- ---- --- ------ ----- ------- ---- -- --- ------- --<br>------- ---------- ------ -- ----- -- ----- -- ---- ------<br>--- ----- --- --- ------ -------- ----- --- ------ ----- --<br>----- ----- ---------- --- --- ------ ------ ---- -- ------<br>------- --- ------ ----- --- ---- ------- -- ---- --- of<br>------- ------,197225.7000002861,197224.40000009537,196925.775,196937.7000002861,196960.948,197258.102,,53,of
screen,html.Screen,2_1_1_1_54,2022-02-02T14:44:25.103Z,,,,,,,,,,,,,,,,,54,,,,,,,,,,,,,,318.19800019072136,,response,,,,100,,,,,,,Space,keypress(Space),,,,,,,,-- --- ---- --- ------ ----- ------- ---- -- --- ------- --<br>------- ---------- ------ -- ----- -- ----- -- ---- ------<br>--- ----- --- --- ------ -------- ----- --- ------ ----- --<br>----- ----- ---------- --- --- ------ ------ ---- -- ------<br>------- --- ------ ----- --- ---- ------- -- ---- --- --<br>raising ------,197577.5,197576.30000019073,197224.967,197226,197258.102,197600.961,,54,raising
screen,html.Screen,2_1_1_1_55,2022-02-02T14:44:25.663Z,,,,,,,,,,,,,,,,,54,,,,,,,,,,,,,,534.739000286092,,response,,,,100,,,,,,,Space,keypress(Space),,,,,,,,-- --- ---- --- ------ ----- ------- ---- -- --- ------- --<br>------- ---------- ------ -- ----- -- ----- -- ---- ------<br>--- ----- --- --- ------ -------- ----- --- ------ ----- --<br>----- ----- ---------- --- --- ------ ------ ---- -- ------<br>------- --- ------ ----- --- ---- ------- -- ---- --- --<br>------- money.,198137.10000038147,198135.7000002861,197573.488,197577.90000009537,197600.961,198167.983,,55,money.
Item 100,flow.Loop,2_1_1_1,2022-02-02T14:44:25.663Z,,,,,,,,,,,,,,,,,,,,,,,,,,,,,,,18009.601000286115,,completion,,,,,C,,,,,,,,,,,silence,,,,,198137.5,198135.7000002861,180095.808,180097.30000019073,180126.099,198167.983,,,
Question 1,html.Screen,2_1_1_2,2022-02-02T14:44:29.736Z,,,,,,,,,,,,,,,,,,,,,,,,,,,,true,TRUE,,4040.8170001907274,,response,,,,100,C,,,,,,TRUE,click #choice-1,,,,silence,,,,,202210.60000038147,202208.80000019073,198133.218,198137.80000019073,198167.983,202234.482,,,
Question 2,html.Screen,2_1_1_3,2022-02-02T14:44:31.516Z,,,,,,,,,,,,,,,,,,,,,,,,,,,,true,FALSE,,1754.2180002861132,,response,,,,100,C,,,,,,FALSE,click #choice-2,,,,silence,,,,,203990.5,203988.7000002861,202204.669,202210.7000002861,202234.482,204021.604,,,
Item 100,flow.Sequence,2_1_1,2022-02-02T14:44:31.516Z,,,,,,,,,,,,,,,,,,,,,,,,,,,,,,,33864.283000286116,,completion,,,,,,,,,,,,,,,,,,,,,203990.7000002861,203988.7000002861,170082.656,170098.60000038147,170124.417,204021.604,,,
End of Practice,html.Page,2_1_2,2022-02-02T14:44:37.190Z,,,,,,,,,,,,,,,,,,,,,,,,,,,,,,,5641.796000095375,,form submission,,,,,,,,,,,,,,,,,,,,,209664.40000009537,209663.40000009537,203977.998,203990.80000019073,204021.604,209691.975,,,
Practice,flow.Sequence,2_1,2022-02-02T14:44:37.190Z,,,,,,,,,,,,,,,,,,,,,,,,,,,,,,,80240.36200009537,,completion,,,,,,,,,,,,,,,,,,,,,209664.7000002861,209663.40000009537,129383.996,129396,129423.038,209691.975,,,
Trap_instruction,html.Page,2_2_0,2022-02-02T14:44:41.794Z,,,,,,,,,,,,,,,,,,,,,,,,,,,,,,,4576.2250002860965,,form submission,,,,,,,,,,,,,,,,,,,,,214268.60000038147,214268.2000002861,209646.084,209664.7000002861,209691.975,214279.303,,,
trap_trial,html.Screen,2_2_1,2022-02-02T14:44:46.054Z,,,,,,,,,,,,,,,,,,,,,,,,,,,,true,1,,4247.196999999986,,response,,,,,,,,,,,1,click #choice-1,,,,,,,,,218528,218526.5,214265.651,214268.7000002861,214279.303,218557.472,,,
end of trap trial,html.Page,2_2_2,2022-02-02T14:44:54.015Z,,,,,,,,,,,,,,,,,,,,,,,,,,,,,,,7931.228000286093,,form submission,,,,,,,,,,,,,,,,,,,,,226489.60000038147,226488.7000002861,218512.491,218528.2000002861,218557.472,226506.613,,,
Trap 1,flow.Sequence,2_2,2022-02-02T14:44:54.015Z,,,,,,,,,,,,,,,,,,,,,,,,,,,,,,,16796.725000286096,,completion,,,,,,,,,,,,,,,,,,,,,226489.80000019073,226488.7000002861,209646.084,209664.7000002861,209691.975,226506.613,,,
Standby,html.Page,2_3_0,2022-02-02T14:45:02.016Z,,,,,,,,,,,,,,,,,,,,,,,,,,,,,,,8022.457999999984,,timeout,,,,,,,,,,,,,,,,,,,,,234490.5,234489.314,226478.801,226489.90000009537,226506.613,234529.071,,,
Holding screen,html.Screen,2_3_1_0_0,2022-02-02T14:45:09.018Z,,,,,,,,,,,,,,,,,,,,,,,,,,,,,,,6995.149000000005,,timeout,,,,,,,,,,,,,,,,,,,,,241491.90000009537,241489.72,234489.314,234490.80000019073,234529.071,241524.22,,,
screen,html.Screen,2_3_1_0_1_0,2022-02-02T14:45:10.425Z,,,,,,,,,,,,,,,,,48,,,,,,,,,,,,,,1373.5800001907337,,response,,,,10,C,,,,,,Space,keypress(Space),,,,instrumental,,,,As -- --- ------ ------- --------- ----------- --------<br>--------- -------- --- ------- -- ------- ---- -- ------<br>-- --- -------- -------- ---------- ---- ---- ---- ------<br>-- --------- -- ---- -- --- -- --- ------- -- - -----<br>---------- -- -- -- ---- ----- -- ------ -- --- ------<br>-------,242899.40000009537,242897.80000019073,241489.72,241492.90000009537,241524.22,242928.532,,0,As
screen,html.Screen,2_3_1_0_1_1,2022-02-02T14:45:10.824Z,,,,,,,,,,,,,,,,,48,,,,,,,,,,,,,,368.26800019072834,,response,,,,10,C,,,,,,Space,keypress(Space),,,,instrumental,,,,-- in --- ------ ------- --------- ----------- --------<br>--------- -------- --- ------- -- ------- ---- -- ------<br>-- --- -------- -------- ---------- ---- ---- ---- ------<br>-- --------- -- ---- -- --- -- --- ------- -- - -----<br>---------- -- -- -- ---- ----- -- ------ -- --- ------<br>-------,243298.7000002861,243296.80000019073,242891.761,242899.7000002861,242928.532,243329.339,,1,in
screen,html.Screen,2_3_1_0_1_2,2022-02-02T14:45:11.215Z,,,,,,,,,,,,,,,,,48,,,,,,,,,,,,,,358.7610003814625,,response,,,,10,C,,,,,,Space,keypress(Space),,,,instrumental,,,,-- -- the ------ ------- --------- ----------- --------<br>--------- -------- --- ------- -- ------- ---- -- ------<br>-- --- -------- -------- ---------- ---- ---- ---- ------<br>-- --------- -- ---- -- --- -- --- ------- -- - -----<br>---------- -- -- -- ---- ----- -- ------ -- --- ------<br>-------,243689.5,243688.10000038147,243293.201,243299,243329.339,243709.487,,2,the
screen,html.Screen,2_3_1_0_1_3,2022-02-02T14:45:11.499Z,,,,,,,,,,,,,,,,,48,,,,,,,,,,,,,,262.0130000000063,,response,,,,10,C,,,,,,Space,keypress(Space),,,,instrumental,,,,-- -- --- United ------- --------- ----------- --------<br>--------- -------- --- ------- -- ------- ---- -- ------<br>-- --- -------- -------- ---------- ---- ---- ---- ------<br>-- --------- -- ---- -- --- -- --- ------- -- - -----<br>---------- -- -- -- ---- ----- -- ------ -- --- ------<br>-------,243972.80000019073,243971.5,243676.407,243689.80000019073,243709.487,243999.815,,3,United
screen,html.Screen,2_3_1_0_1_4,2022-02-02T14:45:11.832Z,,,,,,,,,,,,,,,,,48,,,,,,,,,,,,,,304.5850000953651,,response,,,,10,C,,,,,,Space,keypress(Space),,,,instrumental,,,,"-- -- --- ------ States, --------- ----------- --------<br>--------- -------- --- ------- -- ------- ---- -- ------<br>-- --- -------- -------- ---------- ---- ---- ---- ------<br>-- --------- -- ---- -- --- -- --- ------- -- - -----<br>---------- -- -- -- ---- ----- -- ------ -- --- ------<br>-------",244306.10000038147,244304.40000009537,243969.271,243973,243999.815,244339.237,,4,"States,"
screen,html.Screen,2_3_1_0_1_5,2022-02-02T14:45:12.158Z,,,,,,,,,,,,,,,,,48,,,,,,,,,,,,,,292.06300019074115,,response,,,,10,C,,,,,,Space,keypress(Space),,,,instrumental,,,,-- -- --- ------ ------- Colombian ----------- --------<br>--------- -------- --- ------- -- ------- ---- -- ------<br>-- --- -------- -------- ---------- ---- ---- ---- ------<br>-- --------- -- ---- -- --- -- --- ------- -- - -----<br>---------- -- -- -- ---- ----- -- ------ -- --- ------<br>-------,244632.10000038147,244631.30000019073,244306.402,244306.5,244339.237,244650.539,,5,Colombian
screen,html.Screen,2_3_1_0_1_6,2022-02-02T14:45:12.495Z,,,,,,,,,,,,,,,,,48,,,,,,,,,,,,,,317.46100000001024,,response,,,,10,C,,,,,,Space,keypress(Space),,,,instrumental,,,,-- -- --- ------ ------- --------- legislation --------<br>--------- -------- --- ------- -- ------- ---- -- ------<br>-- --- -------- -------- ---------- ---- ---- ---- ------<br>-- --------- -- ---- -- --- -- --- ------- -- - -----<br>---------- -- -- -- ---- ----- -- ------ -- --- ------<br>-------,244969.40000009537,244968,244621.168,244632.30000019073,244650.539,244999.57,,6,legislation
screen,html.Screen,2_3_1_0_1_7,2022-02-02T14:45:12.861Z,,,,,,,,,,,,,,,,,48,,,,,,,,,,,,,,334.929999999993,,response,,,,10,C,,,,,,Space,keypress(Space),,,,instrumental,,,,-- -- --- ------ ------- --------- ----------- requires<br>--------- -------- --- ------- -- ------- ---- -- ------<br>-- --- -------- -------- ---------- ---- ---- ---- ------<br>-- --------- -- ---- -- --- -- --- ------- -- - -----<br>---------- -- -- -- ---- ----- -- ------ -- --- ------<br>-------,245335.10000038147,245334.5,244967.544,244969.80000019073,244999.57,245369.242,,7,requires
screen,html.Screen,2_3_1_0_1_8,2022-02-02T14:45:13.183Z,,,,,,,,,,,,,,,,,48,,,,,,,,,,,,,,286.85800038147136,,response,,,,10,C,,,,,,Space,keypress(Space),,,,instrumental,,,,-- -- --- ------ ------- --------- ----------- --------<br>travelers -------- --- ------- -- ------- ---- -- ------<br>-- --- -------- -------- ---------- ---- ---- ---- ------<br>-- --------- -- ---- -- --- -- --- ------- -- - -----<br>---------- -- -- -- ---- ----- -- ------ -- --- ------<br>-------,245657.40000009537,245656.10000038147,245334.003,245335.2000002861,245369.242,245679.774,,8,travelers
screen,html.Screen,2_3_1_0_1_9,2022-02-02T14:45:13.529Z,,,,,,,,,,,,,,,,,48,,,,,,,,,,,,,,321.9260002860974,,response,,,,10,C,,,,,,Space,keypress(Space),,,,instrumental,,,,-- -- --- ------ ------- --------- ----------- --------<br>--------- entering --- ------- -- ------- ---- -- ------<br>-- --- -------- -------- ---------- ---- ---- ---- ------<br>-- --------- -- ---- -- --- -- --- ------- -- - -----<br>---------- -- -- -- ---- ----- -- ------ -- --- ------<br>-------,246003,246001.7000002861,245642.741,245657.7000002861,245679.774,246029.772,,9,entering
screen,html.Screen,2_3_1_0_1_10,2022-02-02T14:45:13.887Z,,,,,,,,,,,,,,,,,48,,,,,,,,,,,,,,330.2280000000028,,response,,,,10,C,,,,,,Space,keypress(Space),,,,instrumental,,,,-- -- --- ------ ------- --------- ----------- --------<br>--------- -------- the ------- -- ------- ---- -- ------<br>-- --- -------- -------- ---------- ---- ---- ---- ------<br>-- --------- -- ---- -- --- -- --- ------- -- - -----<br>---------- -- -- -- ---- ----- -- ------ -- --- ------<br>-------,246361.30000019073,246360,246003.362,246003.30000019073,246029.772,246389.34,,10,the
screen,html.Screen,2_3_1_0_1_11,2022-02-02T14:45:14.239Z,,,,,,,,,,,,,,,,,48,,,,,,,,,,,,,,322.1600000000035,,response,,,,10,C,,,,,,Space,keypress(Space),,,,instrumental,,,,-- -- --- ------ ------- --------- ----------- --------<br>--------- -------- --- country -- ------- ---- -- ------<br>-- --- -------- -------- ---------- ---- ---- ---- ------<br>-- --------- -- ---- -- --- -- --- ------- -- - -----<br>---------- -- -- -- ---- ----- -- ------ -- --- ------<br>-------,246712.90000009537,246711.5,246353.345,246361.60000038147,246389.34,246739.293,,11,country
screen,html.Screen,2_3_1_0_1_12,2022-02-02T14:45:14.581Z,,,,,,,,,,,,,,,,,48,,,,,,,,,,,,,,315.50700019072974,,response,,,,10,C,,,,,,Space,keypress(Space),,,,instrumental,,,,-- -- --- ------ ------- --------- ----------- --------<br>--------- -------- --- ------- to ------- ---- -- ------<br>-- --- -------- -------- ---------- ---- ---- ---- ------<br>-- --------- -- ---- -- --- -- --- ------- -- - -----<br>---------- -- -- -- ---- ----- -- ------ -- --- ------<br>-------,247055.30000019073,247054.80000019073,246704.495,246713.10000038147,246739.293,247089.34,,12,to
screen,html.Screen,2_3_1_0_1_13,2022-02-02T14:45:14.871Z,,,,,,,,,,,,,,,,,48,,,,,,,,,,,,,,254.3600002861058,,response,,,,10,C,,,,,,Space,keypress(Space),,,,instrumental,,,,-- -- --- ------ ------- --------- ----------- --------<br>--------- -------- --- ------- -- declare ---- -- ------<br>-- --- -------- -------- ---------- ---- ---- ---- ------<br>-- --------- -- ---- -- --- -- --- ------- -- - -----<br>---------- -- -- -- ---- ----- -- ------ -- --- ------<br>-------,247345.10000038147,247343.7000002861,247046.236,247055.30000019073,247089.34,247379.425,,13,declare
screen,html.Screen,2_3_1_0_1_14,2022-02-02T14:45:15.200Z,,,,,,,,,,,,,,,,,48,,,,,,,,,,,,,,292.8750001907465,,response,,,,10,C,,,,,,Space,keypress(Space),,,,instrumental,,,,-- -- --- ------ ------- --------- ----------- --------<br>--------- -------- --- ------- -- ------- cash -- ------<br>-- --- -------- -------- ---------- ---- ---- ---- ------<br>-- --------- -- ---- -- --- -- --- ------- -- - -----<br>---------- -- -- -- ---- ----- -- ------ -- --- ------<br>-------,247673.80000019073,247672.30000019073,247346.151,247345.5,247379.425,247699.704,,14,cash
screen,html.Screen,2_3_1_0_1_15,2022-02-02T14:45:15.496Z,,,,,,,,,,,,,,,,,48,,,,,,,,,,,,,,268.6960000953695,,response,,,,10,C,,,,,,Space,keypress(Space),,,,instrumental,,,,-- -- --- ------ ------- --------- ----------- --------<br>--------- -------- --- ------- -- ------- ---- in ------<br>-- --- -------- -------- ---------- ---- ---- ---- ------<br>-- --------- -- ---- -- --- -- --- ------- -- - -----<br>---------- -- -- -- ---- ----- -- ------ -- --- ------<br>-------,247969.7000002861,247968.40000009537,247669.5,247674.10000038147,247699.704,247989.503,,15,in
screen,html.Screen,2_3_1_0_1_16,2022-02-02T14:45:15.738Z,,,,,,,,,,,,,,,,,48,,,,,,,,,,,,,,221.19700028610532,,response,,,,10,C,,,,,,Space,keypress(Space),,,,instrumental,,,,-- -- --- ------ ------- --------- ----------- --------<br>--------- -------- --- ------- -- ------- ---- -- excess<br>-- --- -------- -------- ---------- ---- ---- ---- ------<br>-- --------- -- ---- -- --- -- --- ------- -- - -----<br>---------- -- -- -- ---- ----- -- ------ -- --- ------<br>-------,248211.90000009537,248210.7000002861,247956.198,247970,247989.503,248239.358,,16,excess
screen,html.Screen,2_3_1_0_1_17,2022-02-02T14:45:16.071Z,,,,,,,,,,,,,,,,,48,,,,,,,,,,,,,,304.4420001907274,,response,,,,10,C,,,,,,Space,keypress(Space),,,,instrumental,,,,-- -- --- ------ ------- --------- ----------- --------<br>--------- -------- --- ------- -- ------- ---- -- ------<br>of --- -------- -------- ---------- ---- ---- ---- ------<br>-- --------- -- ---- -- --- -- --- ------- -- - -----<br>---------- -- -- -- ---- ----- -- ------ -- --- ------<br>-------,248545.10000038147,248543.80000019073,248211.635,248212.2000002861,248239.358,248619.625,,17,of
screen,html.Screen,2_3_1_0_1_18,2022-02-02T14:45:16.319Z,,,,,,,,,,,,,,,,,48,,,,,,,,,,,,,,172.17500019073486,,response,,,,10,C,,,,,,Space,keypress(Space),,,,instrumental,,,,-- -- --- ------ ------- --------- ----------- --------<br>--------- -------- --- ------- -- ------- ---- -- ------<br>-- ten -------- -------- ---------- ---- ---- ---- ------<br>-- --------- -- ---- -- --- -- --- ------- -- - -----<br>---------- -- -- -- ---- ----- -- ------ -- --- ------<br>-------,248793.2000002861,248791.80000019073,248579.516,248545.40000009537,248619.625,248829.051,,18,ten
screen,html.Screen,2_3_1_0_1_19,2022-02-02T14:45:16.697Z,,,,,,,,,,,,,,,,,48,,,,,,,,,,,,,,340.549000381463,,response,,,,10,C,,,,,,Space,keypress(Space),,,,instrumental,,,,-- -- --- ------ ------- --------- ----------- --------<br>--------- -------- --- ------- -- ------- ---- -- ------<br>-- --- thousand -------- ---------- ---- ---- ---- ------<br>-- --------- -- ---- -- --- -- --- ------- -- - -----<br>---------- -- -- -- ---- ----- -- ------ -- --- ------<br>-------,249171.40000009537,249169.60000038147,248792.867,248793.5,248829.051,249199.543,,19,thousand
screen,html.Screen,2_3_1_0_1_20,2022-02-02T14:45:17.016Z,,,,,,,,,,,,,,,,,48,,,,,,,,,,,,,,288.5570003814646,,response,,,,10,C,,,,,,Space,keypress(Space),,,,instrumental,,,,-- -- --- ------ ------- --------- ----------- --------<br>--------- -------- --- ------- -- ------- ---- -- ------<br>-- --- -------- dollars. ---------- ---- ---- ---- ------<br>-- --------- -- ---- -- --- -- --- ------- -- - -----<br>---------- -- -- -- ---- ----- -- ------ -- --- ------<br>-------,249489.5,249488.10000038147,249169.743,249171.80000019073,249199.543,249519.356,,20,dollars.
screen,html.Screen,2_3_1_0_1_21,2022-02-02T14:45:17.332Z,,,,,,,,,,,,,,,,,48,,,,,,,,,,,,,,286.54400009536766,,response,,,,10,C,,,,,,Space,keypress(Space),,,,instrumental,,,,-- -- --- ------ ------- --------- ----------- --------<br>--------- -------- --- ------- -- ------- ---- -- ------<br>-- --- -------- -------- Concealing ---- ---- ---- ------<br>-- --------- -- ---- -- --- -- --- ------- -- - -----<br>---------- -- -- -- ---- ----- -- ------ -- --- ------<br>-------,249806.40000009537,249805.90000009537,249489.645,249489.80000019073,249519.356,249825.541,,21,Concealing
screen,html.Screen,2_3_1_0_1_22,2022-02-02T14:45:17.679Z,,,,,,,,,,,,,,,,,48,,,,,,,,,,,,,,326.45900000000256,,response,,,,10,C,,,,,,Space,keypress(Space),,,,instrumental,,,,-- -- --- ------ ------- --------- ----------- --------<br>--------- -------- --- ------- -- ------- ---- -- ------<br>-- --- -------- -------- ---------- more ---- ---- ------<br>-- --------- -- ---- -- --- -- --- ------- -- - -----<br>---------- -- -- -- ---- ----- -- ------ -- --- ------<br>-------,250153.40000009537,250152,249792.968,249806.40000009537,249825.541,250179.061,,22,more
screen,html.Screen,2_3_1_0_1_23,2022-02-02T14:45:17.896Z,,,,,,,,,,,,,,,,,48,,,,,,,,,,,,,,189.13900028611533,,response,,,,10,C,,,,,,Space,keypress(Space),,,,instrumental,,,,-- -- --- ------ ------- --------- ----------- --------<br>--------- -------- --- ------- -- ------- ---- -- ------<br>-- --- -------- -------- ---------- ---- than ---- ------<br>-- --------- -- ---- -- --- -- --- ------- -- - -----<br>---------- -- -- -- ---- ----- -- ------ -- --- ------<br>-------,250369.60000038147,250368.2000002861,250142.956,250153.60000038147,250179.061,250399.492,,23,than
screen,html.Screen,2_3_1_0_1_24,2022-02-02T14:45:18.257Z,,,,,,,,,,,,,,,,,48,,,,,,,,,,,,,,330.2080002861039,,response,,,,10,C,,,,,,Space,keypress(Space),,,,instrumental,,,,-- -- --- ------ ------- --------- ----------- --------<br>--------- -------- --- ------- -- ------- ---- -- ------<br>-- --- -------- -------- ---------- ---- ---- that ------<br>-- --------- -- ---- -- --- -- --- ------- -- - -----<br>---------- -- -- -- ---- ----- -- ------ -- --- ------<br>-------,250730.90000009537,250729.7000002861,250369.515,250369.90000009537,250399.492,250759.239,,24,that
screen,html.Screen,2_3_1_0_1_25,2022-02-02T14:45:18.616Z,,,,,,,,,,,,,,,,,48,,,,,,,,,,,,,,328.9610002861009,,response,,,,10,C,,,,,,Space,keypress(Space),,,,instrumental,,,,-- -- --- ------ ------- --------- ----------- --------<br>--------- -------- --- ------- -- ------- ---- -- ------<br>-- --- -------- -------- ---------- ---- ---- ---- amount<br>-- --------- -- ---- -- --- -- --- ------- -- - -----<br>---------- -- -- -- ---- ----- -- ------ -- --- ------<br>-------,251089.5,251088.2000002861,250729.635,250731.2000002861,250759.239,251119.468,,25,amount
screen,html.Screen,2_3_1_0_1_26,2022-02-02T14:45:18.936Z,,,,,,,,,,,,,,,,,48,,,,,,,,,,,,,,289.3320001907414,,response,,,,10,C,,,,,,Space,keypress(Space),,,,instrumental,,,,-- -- --- ------ ------- --------- ----------- --------<br>--------- -------- --- ------- -- ------- ---- -- ------<br>-- --- -------- -------- ---------- ---- ---- ---- ------<br>to --------- -- ---- -- --- -- --- ------- -- - -----<br>---------- -- -- -- ---- ----- -- ------ -- --- ------<br>-------,251410.40000009537,251408.80000019073,251083.294,251089.7000002861,251119.468,251429.296,,26,to
screen,html.Screen,2_3_1_0_1_27,2022-02-02T14:45:19.392Z,,,,,,,,,,,,,,,,,48,,,,,,,,,,,,,,434.80400038146763,,response,,,,10,C,,,,,,Space,keypress(Space),,,,instrumental,,,,-- -- --- ------ ------- --------- ----------- --------<br>--------- -------- --- ------- -- ------- ---- -- ------<br>-- --- -------- -------- ---------- ---- ---- ---- ------<br>-- transport -- ---- -- --- -- --- ------- -- - -----<br>---------- -- -- -- ---- ----- -- ------ -- --- ------<br>-------,251865.5,251864.10000038147,251400.572,251410.7000002861,251429.296,251889.572,,27,transport
screen,html.Screen,2_3_1_0_1_28,2022-02-02T14:45:19.630Z,,,,,,,,,,,,,,,,,48,,,,,,,,,,,,,,213.82800009538187,,response,,,,10,C,,,,,,Space,keypress(Space),,,,instrumental,,,,-- -- --- ------ ------- --------- ----------- --------<br>--------- -------- --- ------- -- ------- ---- -- ------<br>-- --- -------- -------- ---------- ---- ---- ---- ------<br>-- --------- it ---- -- --- -- --- ------- -- - -----<br>---------- -- -- -- ---- ----- -- ------ -- --- ------<br>-------,252104.40000009537,252103.40000009537,251850.936,251865.80000019073,251889.572,252130.147,,28,it
screen,html.Screen,2_3_1_0_1_29,2022-02-02T14:45:19.893Z,,,,,,,,,,,,,,,,,48,,,,,,,,,,,,,,236.0530002861051,,response,,,,10,C,,,,,,Space,keypress(Space),,,,instrumental,,,,-- -- --- ------ ------- --------- ----------- --------<br>--------- -------- --- ------- -- ------- ---- -- ------<br>-- --- -------- -------- ---------- ---- ---- ---- ------<br>-- --------- -- into -- --- -- --- ------- -- - -----<br>---------- -- -- -- ---- ----- -- ------ -- --- ------<br>-------,252366.80000019073,252366.2000002861,252099.358,252104.60000038147,252130.147,252388.765,,29,into
screen,html.Screen,2_3_1_0_1_30,2022-02-02T14:45:20.137Z,,,,,,,,,,,,,,,,,48,,,,,,,,,,,,,,220.63500009535346,,response,,,,10,C,,,,,,Space,keypress(Space),,,,instrumental,,,,-- -- --- ------ ------- --------- ----------- --------<br>--------- -------- --- ------- -- ------- ---- -- ------<br>-- --- -------- -------- ---------- ---- ---- ---- ------<br>-- --------- -- ---- or --- -- --- ------- -- - -----<br>---------- -- -- -- ---- ----- -- ------ -- --- ------<br>-------,252610.90000009537,252609.40000009537,252361.934,252366.80000019073,252388.765,252630.094,,30,or
screen,html.Screen,2_3_1_0_1_31,2022-02-02T14:45:20.378Z,,,,,,,,,,,,,,,,,48,,,,,,,,,,,,,,220.40599999998813,,response,,,,10,C,,,,,,Space,keypress(Space),,,,instrumental,,,,-- -- --- ------ ------- --------- ----------- --------<br>--------- -------- --- ------- -- ------- ---- -- ------<br>-- --- -------- -------- ---------- ---- ---- ---- ------<br>-- --------- -- ---- -- out -- --- ------- -- - -----<br>---------- -- -- -- ---- ----- -- ------ -- --- ------<br>-------,252852,252850.5,252595.807,252611.2000002861,252630.094,252879.804,,31,out
screen,html.Screen,2_3_1_0_1_32,2022-02-02T14:45:20.768Z,,,,,,,,,,,,,,,,,48,,,,,,,,,,,,,,361.1959999999963,,response,,,,10,C,,,,,,Space,keypress(Space),,,,instrumental,,,,-- -- --- ------ ------- --------- ----------- --------<br>--------- -------- --- ------- -- ------- ---- -- ------<br>-- --- -------- -------- ---------- ---- ---- ---- ------<br>-- --------- -- ---- -- --- of --- ------- -- - -----<br>---------- -- -- -- ---- ----- -- ------ -- --- ------<br>-------,253242.30000019073,253241,252850.018,252852.40000009537,252879.804,253260.927,,32,of
screen,html.Screen,2_3_1_0_1_33,2022-02-02T14:45:20.985Z,,,,,,,,,,,,,,,,,48,,,,,,,,,,,,,,196.57300000000396,,response,,,,10,C,,,,,,Space,keypress(Space),,,,instrumental,,,,-- -- --- ------ ------- --------- ----------- --------<br>--------- -------- --- ------- -- ------- ---- -- ------<br>-- --- -------- -------- ---------- ---- ---- ---- ------<br>-- --------- -- ---- -- --- -- the ------- -- - -----<br>---------- -- -- -- ---- ----- -- ------ -- --- ------<br>-------,253458.80000019073,253457.5,253227.699,253242.60000038147,253260.927,253489.247,,33,the
screen,html.Screen,2_3_1_0_1_34,2022-02-02T14:45:21.184Z,,,,,,,,,,,,,,,,,48,,,,,,,,,,,,,,167.75299999999697,,response,,,,10,C,,,,,,Space,keypress(Space),,,,instrumental,,,,-- -- --- ------ ------- --------- ----------- --------<br>--------- -------- --- ------- -- ------- ---- -- ------<br>-- --- -------- -------- ---------- ---- ---- ---- ------<br>-- --------- -- ---- -- --- -- --- country -- - -----<br>---------- -- -- -- ---- ----- -- ------ -- --- ------<br>-------,253658.2000002861,253657,253452.488,253459.10000038147,253489.247,253689.38,,34,country
screen,html.Screen,2_3_1_0_1_35,2022-02-02T14:45:21.480Z,,,,,,,,,,,,,,,,,48,,,,,,,,,,,,,,263.4200001907302,,response,,,,10,C,,,,,,Space,keypress(Space),,,,instrumental,,,,-- -- --- ------ ------- --------- ----------- --------<br>--------- -------- --- ------- -- ------- ---- -- ------<br>-- --- -------- -------- ---------- ---- ---- ---- ------<br>-- --------- -- ---- -- --- -- --- ------- is - -----<br>---------- -- -- -- ---- ----- -- ------ -- --- ------<br>-------,253954.30000019073,253952.80000019073,253654.043,253658.5,253689.38,253989.476,,35,is
screen,html.Screen,2_3_1_0_1_36,2022-02-02T14:45:21.719Z,,,,,,,,,,,,,,,,,48,,,,,,,,,,,,,,202.42400009537232,,response,,,,10,C,,,,,,Space,keypress(Space),,,,instrumental,,,,-- -- --- ------ ------- --------- ----------- --------<br>--------- -------- --- ------- -- ------- ---- -- ------<br>-- --- -------- -------- ---------- ---- ---- ---- ------<br>-- --------- -- ---- -- --- -- --- ------- -- a -----<br>---------- -- -- -- ---- ----- -- ------ -- --- ------<br>-------,254193.2000002861,254191.90000009537,253953.852,253954.7000002861,253989.476,254219.18,,36,a
screen,html.Screen,2_3_1_0_1_37,2022-02-02T14:45:21.992Z,,,,,,,,,,,,,,,,,48,,,,,,,,,,,,,,245.32000000000698,,response,,,,10,C,,,,,,Space,keypress(Space),,,,instrumental,,,,-- -- --- ------ ------- --------- ----------- --------<br>--------- -------- --- ------- -- ------- ---- -- ------<br>-- --- -------- -------- ---------- ---- ---- ---- ------<br>-- --------- -- ---- -- --- -- --- ------- -- - crime<br>---------- -- -- -- ---- ----- -- ------ -- --- ------<br>-------,254466.30000019073,254464.5,254186.707,254193.40000009537,254219.18,254499.521,,37,crime
screen,html.Screen,2_3_1_0_1_38,2022-02-02T14:45:22.287Z,,,,,,,,,,,,,,,,,48,,,,,,,,,,,,,,260.5790003814618,,response,,,,10,C,,,,,,Space,keypress(Space),,,,instrumental,,,,-- -- --- ------ ------- --------- ----------- --------<br>--------- -------- --- ------- -- ------- ---- -- ------<br>-- --- -------- -------- ---------- ---- ---- ---- ------<br>-- --------- -- ---- -- --- -- --- ------- -- - -----<br>punishable -- -- -- ---- ----- -- ------ -- --- ------<br>-------,254761.40000009537,254760.10000038147,254466.436,254466.60000038147,254499.521,254789.482,,38,punishable
screen,html.Screen,2_3_1_0_1_39,2022-02-02T14:45:22.574Z,,,,,,,,,,,,,,,,,48,,,,,,,,,,,,,,257.21800028611324,,response,,,,10,C,,,,,,Space,keypress(Space),,,,instrumental,,,,-- -- --- ------ ------- --------- ----------- --------<br>--------- -------- --- ------- -- ------- ---- -- ------<br>-- --- -------- -------- ---------- ---- ---- ---- ------<br>-- --------- -- ---- -- --- -- --- ------- -- - -----<br>---------- by -- -- ---- ----- -- ------ -- --- ------<br>-------,255047.60000038147,255046.7000002861,254749.664,254761.60000038147,254789.482,255070.148,,39,by
screen,html.Screen,2_3_1_0_1_40,2022-02-02T14:45:22.857Z,,,,,,,,,,,,,,,,,48,,,,,,,,,,,,,,258.75200009538094,,response,,,,10,C,,,,,,Space,keypress(Space),,,,instrumental,,,,-- -- --- ------ ------- --------- ----------- --------<br>--------- -------- --- ------- -- ------- ---- -- ------<br>-- --- -------- -------- ---------- ---- ---- ---- ------<br>-- --------- -- ---- -- --- -- --- ------- -- - -----<br>---------- -- up -- ---- ----- -- ------ -- --- ------<br>-------,255330.40000009537,255328.90000009537,255040.954,255047.80000019073,255070.148,255359.219,,40,up
screen,html.Screen,2_3_1_0_1_41,2022-02-02T14:45:23.135Z,,,,,,,,,,,,,,,,,48,,,,,,,,,,,,,,248.48100028609042,,response,,,,10,C,,,,,,Space,keypress(Space),,,,instrumental,,,,-- -- --- ------ ------- --------- ----------- --------<br>--------- -------- --- ------- -- ------- ---- -- ------<br>-- --- -------- -------- ---------- ---- ---- ---- ------<br>-- --------- -- ---- -- --- -- --- ------- -- - -----<br>---------- -- -- to ---- ----- -- ------ -- --- ------<br>-------,255609,255607.7000002861,255326.293,255330.7000002861,255359.219,255639.536,,41,to
screen,html.Screen,2_3_1_0_1_42,2022-02-02T14:45:23.519Z,,,,,,,,,,,,,,,,,48,,,,,,,,,,,,,,352.36400009537465,,response,,,,10,C,,,,,,Space,keypress(Space),,,,instrumental,,,,-- -- --- ------ ------- --------- ----------- --------<br>--------- -------- --- ------- -- ------- ---- -- ------<br>-- --- -------- -------- ---------- ---- ---- ---- ------<br>-- --------- -- ---- -- --- -- --- ------- -- - -----<br>---------- -- -- -- five ----- -- ------ -- --- ------<br>-------,255993.2000002861,255991.90000009537,255599.709,255609.2000002861,255639.536,256019.471,,42,five
