sender,sender_type,sender_id,timestamp,meta,,Blues,Classical,Country,Dance,Electronic,Folk,Gospel,Hip-Hop,Jazz,Latin,Musical/Film,New-age,Pop,Prolific_id,Provo_ID,R&B,Rap,Reggae,Religious,Rock,Soul,Swing,Traditional,age,artist_name,correct,correctResponse,distraction,duration,education,ended_on,familiarity,gender,headphone_check_performance,item,list,music_frequency,offensiveness,pleasantness,position_correct,preference,response,response_action,snippet_file,song_name,song_rating,sound,stimulus_1,stimulus_2,stimulus_3,text,time_commit,time_end,time_render,time_run,time_show,time_switch,url,word,word_ID
Prolific ID,html.Form,0,2022-02-15T12:28:33.000Z,"{""labjs_version"":""20.2.2"",""labjs_build"":{""flavor"":""production"",""commit"":""a25486e0c714a0ae2ce03ff94b7bb6896854dcfa""},""location"":""https://run.pavlovia.org/mvasilev/prolific2_music_d/"",""userAgent"":""Mozilla/5.0 (Windows NT 6.1; Win64; x64) AppleWebKit/537.36 (KHTML, like Gecko) Chrome/97.0.4692.99 Safari/537.36"",""platform"":""Win32"",""language"":""en-US"",""locale"":""en-US"",""timeZone"":""Europe/London"",""timezoneOffset"":0,""screen_width"":1093,""screen_height"":615,""scroll_width"":1094,""scroll_height"":474,""window_innerWidth"":1094,""window_innerHeight"":474,""devicePixelRatio"":1.25}",,,,,,,,,,,,,,,57be9976c5234c00014706c1,,,,,,,,,,,,,,,8254.832000047682,,form submission,,,,,,,,,,,,,,,,,,,,,51772.700000047684,51771.200000047684,43466.37,43481.700000047684,43516.368,51782.704,{},,
Introduction,html.Screen,1_0,2022-02-15T12:29:13.982Z,,,,,,,,,,,,,,,,,,,,,,,,,,,,,,,40964.296,,response,,,,,,,,,,,continue,click button,,,,,,,,,92754.70000004768,92747,51749.372,51773.89999997616,51782.704,92781.064,,,
Volume calibration,html.Screen,1_1,2022-02-15T12:30:43.098Z,,,,,,,,,,,,,,,,,,,,,,,,,,,,,,,89077.63600004769,,response,,,,,,,,,,,continue,click button,,,,,,,,,181868.60000002384,181858.70000004768,92747.732,92755.10000002384,92781.064,181877.5,,,
Task instructions,html.Screen,1_2,2022-02-15T12:31:03.516Z,,,,,,,,,,,,,,,,,,,,,,,,,,,,,,,20406.200000047684,,response,,,,,,,,,,,continue,click button,,,,,,,,,202285.70000004768,202283.70000004768,181860.834,181869,181877.5,202293.35,,,
Sounds,html.Screen,1_3_0_0,2022-02-15T12:31:07.764Z,,,,,,,,,,,,,,,,,,,,,,,,,,,,,,,4249.829999999987,,timeout,,,,,,,,,3,,,,,,,,I,O,S,,206533.80000007153,206526.514,202276.684,202286.30000007153,202293.35,206543.18,,,
Judgement,html.Screen,1_3_0_1,2022-02-15T12:31:09.352Z,,,,,,,,,,,,,,,,,,,,,,,,,,,,true,3,,1572.9200000238488,,response,,,,,,,,,3,,3,click #choice-3,,,,,I,O,S,,208122.30000007153,208116.10000002384,206526.514,206534.20000004768,206543.18,208126.45,,,
Trial,flow.Sequence,1_3_0,2022-02-15T12:31:09.353Z,,,,,,,,,,,,,,,,,,,,,,,,,,,,,,,5822.750000023836,,completion,,,,,,,,,3,,,,,,,,I,O,S,,208123.5,208116.10000002384,202276.684,202286.20000004768,202293.35,208126.45,,,
Sounds,html.Screen,1_3_1_0,2022-02-15T12:31:13.591Z,,,,,,,,,,,,,,,,,,,,,,,,,,,,,,,4249.829999999987,,timeout,,,,,,,,,1,,,,,,,,S,I,O,,212360.70000004768,212359.614,208109.784,208124,208126.45,212376.28,,,
Judgement,html.Screen,1_3_1_1,2022-02-15T12:31:14.932Z,,,,,,,,,,,,,,,,,,,,,,,,,,,,true,1,,1323.6199999761593,,response,,,,,,,,,1,,1,click #choice-1,,,,,S,I,O,,213702.39999997616,213699.89999997616,212359.614,212361.20000004768,212376.28,213709.56,,,
Trial,flow.Sequence,1_3_1,2022-02-15T12:31:14.933Z,,,,,,,,,,,,,,,,,,,,,,,,,,,,,,,5573.4499999761465,,completion,,,,,,,,,1,,,,,,,,S,I,O,,213703.39999997616,213699.89999997616,208109.784,208123.89999997616,208126.45,213709.56,,,
Sounds,html.Screen,1_3_2_0,2022-02-15T12:31:19.174Z,,,,,,,,,,,,,,,,,,,,,,,,,,,,,,,4249.830000000016,,timeout,,,,,,,,,2,,,,,,,,I,S,O,,217944.39999997616,217942.724,213692.894,213704,213709.56,217959.39,,,
Judgement,html.Screen,1_3_2_1,2022-02-15T12:31:20.472Z,,,,,,,,,,,,,,,,,,,,,,,,,,,,true,2,,1279.0099999761442,,response,,,,,,,,,2,,2,click #choice-2,,,,,I,S,O,,219242.10000002384,219238.39999997616,217942.724,217944.70000004768,217959.39,219242.672,,,
Trial,flow.Sequence,1_3_2,2022-02-15T12:31:20.472Z,,,,,,,,,,,,,,,,,,,,,,,,,,,,,,,5528.8399999761605,,completion,,,,,,,,,2,,,,,,,,I,S,O,,219242.60000002384,219238.39999997616,213692.894,213703.80000007153,213709.56,219242.672,,,
Sounds,html.Screen,1_3_3_0,2022-02-15T12:31:24.707Z,,,,,,,,,,,,,,,,,,,,,,,,,,,,,,,4249.830000000016,,timeout,,,,,,,,,3,,,,,,,,O,I,S,,223476.70000004768,223475.836,219226.006,219242.80000007153,219242.672,223492.502,,,
Judgement,html.Screen,1_3_3_1,2022-02-15T12:31:26.000Z,,,,,,,,,,,,,,,,,,,,,,,,,,,,true,3,,1275.8979999761505,,response,,,,,,,,,3,,3,click #choice-3,,,,,O,I,S,,224770.60000002384,224768.39999997616,223475.836,223476.89999997616,223492.502,224775.784,,,
Trial,flow.Sequence,1_3_3,2022-02-15T12:31:26.001Z,,,,,,,,,,,,,,,,,,,,,,,,,,,,,,,5525.727999976167,,completion,,,,,,,,,3,,,,,,,,O,I,S,,224771.20000004768,224768.39999997616,219226.006,219242.80000007153,219242.672,224775.784,,,
Sounds,html.Screen,1_3_4_0,2022-02-15T12:31:30.241Z,,,,,,,,,,,,,,,,,,,,,,,,,,,,,,,4249.829999999987,,timeout,,,,,,,,,2,,,,,,,,O,S,I,,229010.70000004768,229008.948,224759.118,224771.80000007153,224775.784,229025.614,,,
Judgement,html.Screen,1_3_4_1,2022-02-15T12:31:31.467Z,,,,,,,,,,,,,,,,,,,,,,,,,,,,true,2,,1209.2859999761567,,response,,,,,,,,,2,,2,click #choice-2,,,,,O,S,I,,230237.10000002384,230234.89999997616,229008.948,229011,229025.614,230242.232,,,
Trial,flow.Sequence,1_3_4,2022-02-15T12:31:31.468Z,,,,,,,,,,,,,,,,,,,,,,,,,,,,,,,5459.115999976144,,completion,,,,,,,,,2,,,,,,,,O,S,I,,230238.20000004768,230234.89999997616,224759.118,224771.70000004768,224775.784,230242.232,,,
Sounds,html.Screen,1_3_5_0,2022-02-15T12:31:35.710Z,,,,,,,,,,,,,,,,,,,,,,,,,,,,,,,4249.830000000016,,timeout,,,,,,,,,1,,,,,,,,S,O,I,,234480.10000002384,234475.396,230225.566,230238.60000002384,230242.232,234492.062,,,
Judgement,html.Screen,1_3_5_1,2022-02-15T12:31:36.890Z,,,,,,,,,,,,,,,,,,,,,,,,,,,,true,1,,1166.1380000476784,,response,,,,,,,,,1,,1,click #choice-1,,,,,S,O,I,,235660.5,235658.20000004768,234475.396,234480.5,234492.062,235675.348,,,
Trial,flow.Sequence,1_3_5,2022-02-15T12:31:36.891Z,,,,,,,,,,,,,,,,,,,,,,,,,,,,,,,5415.968000047695,,completion,,,,,,,,,1,,,,,,,,S,O,I,,235661.30000007153,235658.20000004768,230225.566,230238.5,230242.232,235675.348,,,
Task,flow.Loop,1_3,2022-02-15T12:31:36.906Z,,,,,,,,,,,,,,,,,,,,,,,,,,,,,,,33364.85000004768,,completion,,,1,,,,,,,,,,,,,,,,,,235676.60000002384,235658.20000004768,202276.684,202286.10000002384,202293.35,235675.348,,,
Trap,html.Screen,1_4,2022-02-15T12:31:36.911Z,,,,,,,,,,,,,,,,,,,,,,,,,,,,,,,NaN,,skipped,,,,,,,,,,,,,,,,,,,,,235680.80000007153,235658.20000004768,,235680.30000007153,,235675.348,,,
Thanks,html.Screen,1_5,2022-02-15T12:31:43.176Z,,,,,,,,,,,,,,,,,,,,,,,,,,,,,,,6267.952000071527,,response,,,,,,,,,,,continue,click button,,,,,,,,,241945.39999997616,241943.30000007153,235658.682,235681.20000004768,235675.348,249608.124,,,
Headphone screening,flow.Sequence,1,2022-02-15T12:31:43.177Z,,,,,,,,,,,,,,,,,,,,,,,,,,,,,,,190160.59600007153,,completion,,,,,,,,,,,,,,,,,,,,,241946,241943.30000007153,51749.372,51773.700000047684,51782.704,249608.124,,,
Instructions,html.Page,2_0,2022-02-15T12:32:24.194Z,,,,,,,,,,,,,,,,,,,,,,,,,,,,,,,33353.97600002383,,form submission,,,,,,,,,,,,,,,,,,,,,282963.3000000715,282962.10000002384,249591.458,249602.70000004768,249608.124,282973.456,,,
Holding screen,html.Screen,2_1_0_0,2022-02-15T12:32:34.188Z,,,,,,,,,,,,,,,,,,,,,,,,,,,,,,,9999.599999999977,,timeout,,,,,,,,,,,,,,,,,,,,,292957.5,292956.39,282956.79,282963.89999997616,282973.456,292973.056,,,
screen,html.Screen,2_1_0_1_0,2022-02-15T12:32:35.711Z,,,,,,,,,,,,,,,,,53,,,,,,,,,,,,,,1499.5440000238596,,response,,,,99,,,,,,,Space,keypress(Space),,,,,,,,When -- ----- -- ------ - ------- --- ----------<br>------------- ------ ------ ---- ---- ------- ----- -- ----<br>-------- ------- -- ---------- --- - --- ----- ----- ----<br>---- --- --- ----- --- ---- ---- ------- ----- ---- -------<br>--- --- -- ----- -- --- ---- -- --- ---- -- ------ ------<br>--- ----- -- ----,294480.2000000477,294472.60000002384,292956.39,292958.10000002384,292973.056,294489.662,,0,When
screen,html.Screen,2_1_0_1_1,2022-02-15T12:32:36.441Z,,,,,,,,,,,,,,,,,53,,,,,,,,,,,,,,719.237999976147,,response,,,,99,,,,,,,Space,keypress(Space),,,,,,,,---- it ----- -- ------ - ------- --- ----------<br>------------- ------ ------ ---- ---- ------- ----- -- ----<br>-------- ------- -- ---------- --- - --- ----- ----- ----<br>---- --- --- ----- --- ---- ---- ------- ----- ---- -------<br>--- --- -- ----- -- --- ---- -- --- ---- -- ------ ------<br>--- ----- -- ----,295210.39999997616,295208.89999997616,294472.996,294480.60000002384,294489.662,295222.966,,1,it
screen,html.Screen,2_1_0_1_2,2022-02-15T12:32:37.074Z,,,,,,,,,,,,,,,,,53,,,,,,,,,,,,,,619.3340000715107,,response,,,,99,,,,,,,Space,keypress(Space),,,,,,,,---- -- comes -- ------ - ------- --- ----------<br>------------- ------ ------ ---- ---- ------- ----- -- ----<br>-------- ------- -- ---------- --- - --- ----- ----- ----<br>---- --- --- ----- --- ---- ---- ------- ----- ---- -------<br>--- --- -- ----- -- --- ---- -- --- ---- -- ------ ------<br>--- ----- -- ----,295843.8000000715,295842.3000000715,295206.3,295210.8000000715,295222.966,295856.274,,2,comes
screen,html.Screen,2_1_0_1_3,2022-02-15T12:32:37.565Z,,,,,,,,,,,,,,,,,53,,,,,,,,,,,,,,476.92600004770793,,response,,,,99,,,,,,,Space,keypress(Space),,,,,,,,---- -- ----- to ------ - ------- --- ----------<br>------------- ------ ------ ---- ---- ------- ----- -- ----<br>-------- ------- -- ---------- --- - --- ----- ----- ----<br>---- --- --- ----- --- ---- ---- ------- ----- ---- -------<br>--- --- -- ----- -- --- ---- -- --- ---- -- ------ ------<br>--- ----- -- ----,296334.7000000477,296333.2000000477,295839.608,295844.3000000715,295856.274,296339.588,,3,to
screen,html.Screen,2_1_0_1_4,2022-02-15T12:32:38.058Z,,,,,,,,,,,,,,,,,53,,,,,,,,,,,,,,487.01200002385303,,response,,,,99,,,,,,,Space,keypress(Space),,,,,,,,---- -- ----- -- having - ------- --- ----------<br>------------- ------ ------ ---- ---- ------- ----- -- ----<br>-------- ------- -- ---------- --- - --- ----- ----- ----<br>---- --- --- ----- --- ---- ---- ------- ----- ---- -------<br>--- --- -- ----- -- --- ---- -- --- ---- -- ------ ------<br>--- ----- -- ----,296827.89999997616,296826.60000002384,296322.922,296335,296339.588,296839.568,,4,having
screen,html.Screen,2_1_0_1_5,2022-02-15T12:32:38.538Z,,,,,,,,,,,,,,,,,53,,,,,,,,,,,,,,466.53200002381345,,response,,,,99,,,,,,,Space,keypress(Space),,,,,,,,---- -- ----- -- ------ a ------- --- ----------<br>------------- ------ ------ ---- ---- ------- ----- -- ----<br>-------- ------- -- ---------- --- - --- ----- ----- ----<br>---- --- --- ----- --- ---- ---- ------- ----- ---- -------<br>--- --- -- ----- -- --- ---- -- --- ---- -- ------ ------<br>--- ----- -- ----,297307.39999997616,297306.10000002384,296822.902,296828.3000000715,296839.568,297322.882,,5,a
screen,html.Screen,2_1_0_1_6,2022-02-15T12:32:39.026Z,,,,,,,,,,,,,,,,,53,,,,,,,,,,,,,,470.8180000477005,,response,,,,99,,,,,,,Space,keypress(Space),,,,,,,,---- -- ----- -- ------ - lasting --- ----------<br>------------- ------ ------ ---- ---- ------- ----- -- ----<br>-------- ------- -- ---------- --- - --- ----- ----- ----<br>---- --- --- ----- --- ---- ---- ------- ----- ---- -------<br>--- --- -- ----- -- --- ---- -- --- ---- -- ------ ------<br>--- ----- -- ----,297795,297793.7000000477,297306.216,297307.8000000715,297322.882,297806.196,,6,lasting
screen,html.Screen,2_1_0_1_7,2022-02-15T12:32:39.740Z,,,,,,,,,,,,,,,,,53,,,,,,,,,,,,,,701.3040000000037,,response,,,,99,,,,,,,Space,keypress(Space),,,,,,,,---- -- ----- -- ------ - ------- and ----------<br>------------- ------ ------ ---- ---- ------- ----- -- ----<br>-------- ------- -- ---------- --- - --- ----- ----- ----<br>---- --- --- ----- --- ---- ---- ------- ----- ---- -------<br>--- --- -- ----- -- --- ---- -- --- ---- -- ------ ------<br>--- ----- -- ----,298509,298507.5,297789.53,297795.39999997616,297806.196,298522.834,,7,and
screen,html.Screen,2_1_0_1_8,2022-02-15T12:32:40.419Z,,,,,,,,,,,,,,,,,53,,,,,,,,,,,,,,664.0659999761847,,response,,,,99,,,,,,,Space,keypress(Space),,,,,,,,---- -- ----- -- ------ - ------- --- fulfilling<br>------------- ------ ------ ---- ---- ------- ----- -- ----<br>-------- ------- -- ---------- --- - --- ----- ----- ----<br>---- --- --- ----- --- ---- ---- ------- ----- ---- -------<br>--- --- -- ----- -- --- ---- -- --- ---- -- ------ ------<br>--- ----- -- ----,299188.39999997616,299186.89999997616,298506.168,298509.3000000715,298522.834,299206.14,,8,fulfilling
screen,html.Screen,2_1_0_1_9,2022-02-15T12:32:40.973Z,,,,,,,,,,,,,,,,,53,,,,,,,,,,,,,,535.0600000476697,,response,,,,99,,,,,,,Space,keypress(Space),,,,,,,,"---- -- ----- -- ------ - ------- --- ----------<br>relationship, ------ ------ ---- ---- ------- ----- -- ----<br>-------- ------- -- ---------- --- - --- ----- ----- ----<br>---- --- --- ----- --- ---- ---- ------- ----- ---- -------<br>--- --- -- ----- -- --- ---- -- --- ---- -- ------ ------<br>--- ----- -- ----",299742.5,299741.2000000477,299189.474,299188.7000000477,299206.14,299756.118,,9,"relationship,"
screen,html.Screen,2_1_0_1_10,2022-02-15T12:32:41.420Z,,,,,,,,,,,,,,,,,53,,,,,,,,,,,,,,431.7819999761414,,response,,,,99,,,,,,,Space,keypress(Space),,,,,,,,---- -- ----- -- ------ - ------- --- ----------<br>------------- common ------ ---- ---- ------- ----- -- ----<br>-------- ------- -- ---------- --- - --- ----- ----- ----<br>---- --- --- ----- --- ---- ---- ------- ----- ---- -------<br>--- --- -- ----- -- --- ---- -- --- ---- -- ------ ------<br>--- ----- -- ----,300189.5,300187.89999997616,299739.452,299742.89999997616,299756.118,300206.1,,10,common
screen,html.Screen,2_1_0_1_11,2022-02-15T12:32:41.992Z,,,,,,,,,,,,,,,,,53,,,,,,,,,,,,,,554.100000047707,,response,,,,99,,,,,,,Space,keypress(Space),,,,,,,,---- -- ----- -- ------ - ------- --- ----------<br>------------- ------ wisdom ---- ---- ------- ----- -- ----<br>-------- ------- -- ---------- --- - --- ----- ----- ----<br>---- --- --- ----- --- ---- ---- ------- ----- ---- -------<br>--- --- -- ----- -- --- ---- -- --- ---- -- ------ ------<br>--- ----- -- ----,300761.60000002384,300760.2000000477,300189.434,300189.8000000715,300206.1,300772.744,,11,wisdom
screen,html.Screen,2_1_0_1_12,2022-02-15T12:32:42.475Z,,,,,,,,,,,,,,,,,53,,,,,,,,,,,,,,463.45600004767766,,response,,,,99,,,,,,,Space,keypress(Space),,,,,,,,---- -- ----- -- ------ - ------- --- ----------<br>------------- ------ ------ says ---- ------- ----- -- ----<br>-------- ------- -- ---------- --- - --- ----- ----- ----<br>---- --- --- ----- --- ---- ---- ------- ----- ---- -------<br>--- --- -- ----- -- --- ---- -- --- ---- -- ------ ------<br>--- ----- -- ----,301244.3000000715,301236.2000000477,300756.078,300761.89999997616,300772.744,301256.058,,12,says
screen,html.Screen,2_1_0_1_13,2022-02-15T12:32:42.891Z,,,,,,,,,,,,,,,,,53,,,,,,,,,,,,,,402.04200002382277,,response,,,,99,,,,,,,Space,keypress(Space),,,,,,,,---- -- ----- -- ------ - ------- --- ----------<br>------------- ------ ------ ---- that ------- ----- -- ----<br>-------- ------- -- ---------- --- - --- ----- ----- ----<br>---- --- --- ----- --- ---- ---- ------- ----- ---- -------<br>--- --- -- ----- -- --- ---- -- --- ---- -- ------ ------<br>--- ----- -- ----,301659.8000000715,301658.10000002384,301239.392,301244.60000002384,301256.058,301672.708,,13,that
screen,html.Screen,2_1_0_1_14,2022-02-15T12:32:43.278Z,,,,,,,,,,,,,,,,,53,,,,,,,,,,,,,,372.691999976174,,response,,,,99,,,,,,,Space,keypress(Space),,,,,,,,---- -- ----- -- ------ - ------- --- ----------<br>------------- ------ ------ ---- ---- feeling ----- -- ----<br>-------- ------- -- ---------- --- - --- ----- ----- ----<br>---- --- --- ----- --- ---- ---- ------- ----- ---- -------<br>--- --- -- ----- -- --- ---- -- --- ---- -- ------ ------<br>--- ----- -- ----,302046.7000000477,302045.39999997616,301656.042,301660.10000002384,301672.708,302056.026,,14,feeling
screen,html.Screen,2_1_0_1_15,2022-02-15T12:32:43.633Z,,,,,,,,,,,,,,,,,53,,,,,,,,,,,,,,344.5740000238293,,response,,,,99,,,,,,,Space,keypress(Space),,,,,,,,---- -- ----- -- ------ - ------- --- ----------<br>------------- ------ ------ ---- ---- ------- close -- ----<br>-------- ------- -- ---------- --- - --- ----- ----- ----<br>---- --- --- ----- --- ---- ---- ------- ----- ---- -------<br>--- --- -- ----- -- --- ---- -- --- ---- -- ------ ------<br>--- ----- -- ----,302402,302400.60000002384,302039.36,302047.10000002384,302056.026,302406.012,,15,close
screen,html.Screen,2_1_0_1_16,2022-02-15T12:32:44.078Z,,,,,,,,,,,,,,,,,53,,,,,,,,,,,,,,439.9880000000121,,response,,,,99,,,,,,,Space,keypress(Space),,,,,,,,---- -- ----- -- ------ - ------- --- ----------<br>------------- ------ ------ ---- ---- ------- ----- to ----<br>-------- ------- -- ---------- --- - --- ----- ----- ----<br>---- --- --- ----- --- ---- ---- ------- ----- ---- -------<br>--- --- -- ----- -- --- ---- -- --- ---- -- ------ ------<br>--- ----- -- ----,302847.3000000715,302846,302389.346,302402.3000000715,302406.012,302855.994,,16,to
screen,html.Screen,2_1_0_1_17,2022-02-15T12:32:44.561Z,,,,,,,,,,,,,,,,,53,,,,,,,,,,,,,,472.9059999761521,,response,,,,99,,,,,,,Space,keypress(Space),,,,,,,,---- -- ----- -- ------ - ------- --- ----------<br>------------- ------ ------ ---- ---- ------- ----- -- your<br>-------- ------- -- ---------- --- - --- ----- ----- ----<br>---- --- --- ----- --- ---- ---- ------- ----- ---- -------<br>--- --- -- ----- -- --- ---- -- --- ---- -- ------ ------<br>--- ----- -- ----,303330.5,303328.89999997616,302839.328,302847.7000000477,302855.994,303339.308,,17,your
screen,html.Screen,2_1_0_1_18,2022-02-15T12:32:45.040Z,,,,,,,,,,,,,,,,,53,,,,,,,,,,,,,,468.3920000476646,,response,,,,99,,,,,,,Space,keypress(Space),,,,,,,,---- -- ----- -- ------ - ------- --- ----------<br>------------- ------ ------ ---- ---- ------- ----- -- ----<br>romantic ------- -- ---------- --- - --- ----- ----- ----<br>---- --- --- ----- --- ---- ---- ------- ----- ---- -------<br>--- --- -- ----- -- --- ---- -- --- ---- -- ------ ------<br>--- ----- -- ----,303809.10000002384,303807.7000000477,303322.642,303330.89999997616,303339.308,303822.622,,18,romantic
screen,html.Screen,2_1_0_1_19,2022-02-15T12:32:45.485Z,,,,,,,,,,,,,,,,,53,,,,,,,,,,,,,,430.2779999761842,,response,,,,99,,,,,,,Space,keypress(Space),,,,,,,,---- -- ----- -- ------ - ------- --- ----------<br>------------- ------ ------ ---- ---- ------- ----- -- ----<br>-------- partner -- ---------- --- - --- ----- ----- ----<br>---- --- --- ----- --- ---- ---- ------- ----- ---- -------<br>--- --- -- ----- -- --- ---- -- --- ---- -- ------ ------<br>--- ----- -- ----,304254.2000000477,304252.89999997616,303805.956,303809.5,303822.622,304255.938,,19,partner
screen,html.Screen,2_1_0_1_20,2022-02-15T12:32:45.901Z,,,,,,,,,,,,,,,,,53,,,,,,,,,,,,,,412.3620000715018,,response,,,,99,,,,,,,Space,keypress(Space),,,,,,,,---- -- ----- -- ------ - ------- --- ----------<br>------------- ------ ------ ---- ---- ------- ----- -- ----<br>-------- ------- is ---------- --- - --- ----- ----- ----<br>---- --- --- ----- --- ---- ---- ------- ----- ---- -------<br>--- --- -- ----- -- --- ---- -- --- ---- -- ------ ------<br>--- ----- -- ----,304669.8000000715,304668.3000000715,304239.272,304254.60000002384,304255.938,304689.254,,20,is
screen,html.Screen,2_1_0_1_21,2022-02-15T12:32:46.520Z,,,,,,,,,,,,,,,,,53,,,,,,,,,,,,,,598.7459999999846,,response,,,,99,,,,,,,Space,keypress(Space),,,,,,,,---- -- ----- -- ------ - ------- --- ----------<br>------------- ------ ------ ---- ---- ------- ----- -- ----<br>-------- ------- -- paramount. --- - --- ----- ----- ----<br>---- --- --- ----- --- ---- ---- ------- ----- ---- -------<br>--- --- -- ----- -- --- ---- -- --- ---- -- ------ ------<br>--- ----- -- ----,305289.3000000715,305288,304672.588,304672.89999997616,304689.254,305305.896,,21,paramount.
screen,html.Screen,2_1_0_1_22,2022-02-15T12:32:47.161Z,,,,,,,,,,,,,,,,,53,,,,,,,,,,,,,,623.0039999761502,,response,,,,99,,,,,,,Space,keypress(Space),,,,,,,,---- -- ----- -- ------ - ------- --- ----------<br>------------- ------ ------ ---- ---- ------- ----- -- ----<br>-------- ------- -- ---------- But - --- ----- ----- ----<br>---- --- --- ----- --- ---- ---- ------- ----- ---- -------<br>--- --- -- ----- -- --- ---- -- --- ---- -- ------ ------<br>--- ----- -- ----,305930.3000000715,305928.89999997616,305289.23,305289.7000000477,305305.896,305939.204,,22,But
screen,html.Screen,2_1_0_1_23,2022-02-15T12:32:47.669Z,,,,,,,,,,,,,,,,,53,,,,,,,,,,,,,,497.19599997613113,,response,,,,99,,,,,,,Space,keypress(Space),,,,,,,,---- -- ----- -- ------ - ------- --- ----------<br>------------- ------ ------ ---- ---- ------- ----- -- ----<br>-------- ------- -- ---------- --- a --- ----- ----- ----<br>---- --- --- ----- --- ---- ---- ------- ----- ---- -------<br>--- --- -- ----- -- --- ---- -- --- ---- -- ------ ------<br>--- ----- -- ----,306437.89999997616,306436.39999997616,305922.538,305930.7000000477,305939.204,306455.85,,23,a
screen,html.Screen,2_1_0_1_24,2022-02-15T12:32:48.178Z,,,,,,,,,,,,,,,,,53,,,,,,,,,,,,,,489.350000047707,,response,,,,99,,,,,,,Space,keypress(Space),,,,,,,,---- -- ----- -- ------ - ------- --- ----------<br>------------- ------ ------ ---- ---- ------- ----- -- ----<br>-------- ------- -- ---------- --- - new ----- ----- ----<br>---- --- --- ----- --- ---- ---- ------- ----- ---- -------<br>--- --- -- ----- -- --- ---- -- --- ---- -- ------ ------<br>--- ----- -- ----,306946.7000000477,306945.2000000477,306439.184,306438.2000000477,306455.85,306955.83,,24,new
screen,html.Screen,2_1_0_1_25,2022-02-15T12:32:48.635Z,,,,,,,,,,,,,,,,,53,,,,,,,,,,,,,,446.4700000715093,,response,,,,99,,,,,,,Space,keypress(Space),,,,,,,,---- -- ----- -- ------ - ------- --- ----------<br>------------- ------ ------ ---- ---- ------- ----- -- ----<br>-------- ------- -- ---------- --- - --- study ----- ----<br>---- --- --- ----- --- ---- ---- ------- ----- ---- -------<br>--- --- -- ----- -- --- ---- -- --- ---- -- ------ ------<br>--- ----- -- ----,307403.89999997616,307402.3000000715,306939.164,306947.10000002384,306955.83,307405.812,,25,study
screen,html.Screen,2_1_0_1_26,2022-02-15T12:32:49.098Z,,,,,,,,,,,,,,,,,53,,,,,,,,,,,,,,459.7880000238656,,response,,,,99,,,,,,,Space,keypress(Space),,,,,,,,---- -- ----- -- ------ - ------- --- ----------<br>------------- ------ ------ ---- ---- ------- ----- -- ----<br>-------- ------- -- ---------- --- - --- ----- finds ----<br>---- --- --- ----- --- ---- ---- ------- ----- ---- -------<br>--- --- -- ----- -- --- ---- -- --- ---- -- ------ ------<br>--- ----- -- ----,307867,307865.60000002384,307389.146,307404.39999997616,307405.812,307872.46,,26,finds
screen,html.Screen,2_1_0_1_27,2022-02-15T12:32:49.596Z,,,,,,,,,,,,,,,,,53,,,,,,,,,,,,,,491.9399999761372,,response,,,,99,,,,,,,Space,keypress(Space),,,,,,,,---- -- ----- -- ------ - ------- --- ----------<br>------------- ------ ------ ---- ---- ------- ----- -- ----<br>-------- ------- -- ---------- --- - --- ----- ----- that<br>---- --- --- ----- --- ---- ---- ------- ----- ---- -------<br>--- --- -- ----- -- --- ---- -- --- ---- -- ------ ------<br>--- ----- -- ----,308365.7000000477,308364.39999997616,307855.794,307867.3000000715,307872.46,308372.44,,27,that
screen,html.Screen,2_1_0_1_28,2022-02-15T12:32:50.085Z,,,,,,,,,,,,,,,,,53,,,,,,,,,,,,,,480.16000002383953,,response,,,,99,,,,,,,Space,keypress(Space),,,,,,,,---- -- ----- -- ------ - ------- --- ----------<br>------------- ------ ------ ---- ---- ------- ----- -- ----<br>-------- ------- -- ---------- --- - --- ----- ----- ----<br>it's --- --- ----- --- ---- ---- ------- ----- ---- -------<br>--- --- -- ----- -- --- ---- -- --- ---- -- ------ ------<br>--- ----- -- ----,308853.89999997616,308852.60000002384,308355.774,308366.3000000715,308372.44,308855.754,,28,it's
screen,html.Screen,2_1_0_1_29,2022-02-15T12:32:50.590Z,,,,,,,,,,,,,,,,,53,,,,,,,,,,,,,,502.24599999998463,,response,,,,99,,,,,,,Space,keypress(Space),,,,,,,,---- -- ----- -- ------ - ------- --- ----------<br>------------- ------ ------ ---- ---- ------- ----- -- ----<br>-------- ------- -- ---------- --- - --- ----- ----- ----<br>---- not --- ----- --- ---- ---- ------- ----- ---- -------<br>--- --- -- ----- -- --- ---- -- --- ---- -- ------ ------<br>--- ----- -- ----,309359.60000002384,309358,308839.088,308854.3000000715,308855.754,309372.4,,29,not
screen,html.Screen,2_1_0_1_30,2022-02-15T12:32:51.116Z,,,,,,,,,,,,,,,,,53,,,,,,,,,,,,,,511.0999999999767,,response,,,,99,,,,,,,Space,keypress(Space),,,,,,,,---- -- ----- -- ------ - ------- --- ----------<br>------------- ------ ------ ---- ---- ------- ----- -- ----<br>-------- ------- -- ---------- --- - --- ----- ----- ----<br>---- --- how ----- --- ---- ---- ------- ----- ---- -------<br>--- --- -- ----- -- --- ---- -- --- ---- -- ------ ------<br>--- ----- -- ----,309884.8000000715,309883.5,309355.734,309359.89999997616,309372.4,309889.046,,30,how
screen,html.Screen,2_1_0_1_31,2022-02-15T12:32:51.559Z,,,,,,,,,,,,,,,,,53,,,,,,,,,,,,,,437.6540000477107,,response,,,,99,,,,,,,Space,keypress(Space),,,,,,,,---- -- ----- -- ------ - ------- --- ----------<br>------------- ------ ------ ---- ---- ------- ----- -- ----<br>-------- ------- -- ---------- --- - --- ----- ----- ----<br>---- --- --- close --- ---- ---- ------- ----- ---- -------<br>--- --- -- ----- -- --- ---- -- --- ---- -- ------ ------<br>--- ----- -- ----,310328.39999997616,310326.7000000477,309872.38,309885.10000002384,309889.046,310339.028,,31,close
screen,html.Screen,2_1_0_1_32,2022-02-15T12:32:52.001Z,,,,,,,,,,,,,,,,,53,,,,,,,,,,,,,,429.47200000000885,,response,,,,99,,,,,,,Space,keypress(Space),,,,,,,,---- -- ----- -- ------ - ------- --- ----------<br>------------- ------ ------ ---- ---- ------- ----- -- ----<br>-------- ------- -- ---------- --- - --- ----- ----- ----<br>---- --- --- ----- you ---- ---- ------- ----- ---- -------<br>--- --- -- ----- -- --- ---- -- --- ---- -- ------ ------<br>--- ----- -- ----,310770.10000002384,310768.5,310322.362,310328.7000000477,310339.028,310772.344,,32,you
screen,html.Screen,2_1_0_1_33,2022-02-15T12:32:52.764Z,,,,,,,,,,,,,,,,,53,,,,,,,,,,,,,,759.9560000715428,,response,,,,99,,,,,,,Space,keypress(Space),,,,,,,,---- -- ----- -- ------ - ------- --- ----------<br>------------- ------ ------ ---- ---- ------- ----- -- ----<br>-------- ------- -- ---------- --- - --- ----- ----- ----<br>---- --- --- ----- --- feel ---- ------- ----- ---- -------<br>--- --- -- ----- -- --- ---- -- --- ---- -- ------ ------<br>--- ----- -- ----,311533.60000002384,311532.3000000715,310755.678,310770.39999997616,310772.344,311538.98,,33,feel
screen,html.Screen,2_1_0_1_34,2022-02-15T12:32:53.201Z,,,,,,,,,,,,,,,,,53,,,,,,,,,,,,,,430.41999997617677,,response,,,,99,,,,,,,Space,keypress(Space),,,,,,,,---- -- ----- -- ------ - ------- --- ----------<br>------------- ------ ------ ---- ---- ------- ----- -- ----<br>-------- ------- -- ---------- --- - --- ----- ----- ----<br>---- --- --- ----- --- ---- that ------- ----- ---- -------<br>--- --- -- ----- -- --- ---- -- --- ---- -- ------ ------<br>--- ----- -- ----,311970.60000002384,311969.39999997616,311522.314,311533.89999997616,311538.98,311972.296,,34,that
screen,html.Screen,2_1_0_1_35,2022-02-15T12:32:53.668Z,,,,,,,,,,,,,,,,,53,,,,,,,,,,,,,,463.5040000715526,,response,,,,99,,,,,,,Space,keypress(Space),,,,,,,,---- -- ----- -- ------ - ------- --- ----------<br>------------- ------ ------ ---- ---- ------- ----- -- ----<br>-------- ------- -- ---------- --- - --- ----- ----- ----<br>---- --- --- ----- --- ---- ---- matters ----- ---- -------<br>--- --- -- ----- -- --- ---- -- --- ---- -- ------ ------<br>--- ----- -- ----,312437.10000002384,312435.8000000715,311955.63,311971,311972.296,312438.944,,35,matters
screen,html.Screen,2_1_0_1_36,2022-02-15T12:32:54.489Z,,,,,,,,,,,,,,,,,53,,,,,,,,,,,,,,817.5559999999823,,response,,,,99,,,,,,,Space,keypress(Space),,,,,,,,"---- -- ----- -- ------ - ------- --- ----------<br>------------- ------ ------ ---- ---- ------- ----- -- ----<br>-------- ------- -- ---------- --- - --- ----- ----- ----<br>---- --- --- ----- --- ---- ---- ------- most, ---- -------<br>--- --- -- ----- -- --- ---- -- --- ---- -- ------ ------<br>--- ----- -- ----",313257.8000000715,313256.5,312422.278,312437.60000002384,312438.944,313272.244,,36,"most,"
screen,html.Screen,2_1_0_1_37,2022-02-15T12:32:54.888Z,,,,,,,,,,,,,,,,,53,,,,,,,,,,,,,,382.75599999999395,,response,,,,99,,,,,,,Space,keypress(Space),,,,,,,,---- -- ----- -- ------ - ------- --- ----------<br>------------- ------ ------ ---- ---- ------- ----- -- ----<br>-------- ------- -- ---------- --- - --- ----- ----- ----<br>---- --- --- ----- --- ---- ---- ------- ----- it's -------<br>--- --- -- ----- -- --- ---- -- --- ---- -- ------ ------<br>--- ----- -- ----,313657.10000002384,313655,313255.578,313258.10000002384,313272.244,313672.228,,37,it's
screen,html.Screen,2_1_0_1_38,2022-02-15T12:32:55.405Z,,,,,,,,,,,,,,,,,53,,,,,,,,,,,,,,500.7719999999972,,response,,,,99,,,,,,,Space,keypress(Space),,,,,,,,---- -- ----- -- ------ - ------- --- ----------<br>------------- ------ ------ ---- ---- ------- ----- -- ----<br>-------- ------- -- ---------- --- - --- ----- ----- ----<br>---- --- --- ----- --- ---- ---- ------- ----- ---- whether<br>--- --- -- ----- -- --- ---- -- --- ---- -- ------ ------<br>--- ----- -- ----,314174.39999997616,314173,313655.562,313657.39999997616,313672.228,314188.874,,38,whether
screen,html.Screen,2_1_0_1_39,2022-02-15T12:32:55.831Z,,,,,,,,,,,,,,,,,53,,,,,,,,,,,,,,408.52599997614743,,response,,,,99,,,,,,,Space,keypress(Space),,,,,,,,---- -- ----- -- ------ - ------- --- ----------<br>------------- ------ ------ ---- ---- ------- ----- -- ----<br>-------- ------- -- ---------- --- - --- ----- ----- ----<br>---- --- --- ----- --- ---- ---- ------- ----- ---- -------<br>you --- -- ----- -- --- ---- -- --- ---- -- ------ ------<br>--- ----- -- ----,314600.3000000715,314597.39999997616,314172.208,314174.8000000715,314188.874,314622.19,,39,you
screen,html.Screen,2_1_0_1_40,2022-02-15T12:32:56.307Z,,,,,,,,,,,,,,,,,53,,,,,,,,,,,,,,452.3099999999977,,response,,,,99,,,,,,,Space,keypress(Space),,,,,,,,---- -- ----- -- ------ - ------- --- ----------<br>------------- ------ ------ ---- ---- ------- ----- -- ----<br>-------- ------- -- ---------- --- - --- ----- ----- ----<br>---- --- --- ----- --- ---- ---- ------- ----- ---- -------<br>--- are -- ----- -- --- ---- -- --- ---- -- ------ ------<br>--- ----- -- ----,315075.89999997616,315074.5,314605.524,314600.60000002384,314622.19,315088.838,,40,are
screen,html.Screen,2_1_0_1_41,2022-02-15T12:32:56.761Z,,,,,,,,,,,,,,,,,53,,,,,,,,,,,,,,440.26200002385303,,response,,,,99,,,,,,,Space,keypress(Space),,,,,,,,---- -- ----- -- ------ - ------- --- ----------<br>------------- ------ ------ ---- ---- ------- ----- -- ----<br>-------- ------- -- ---------- --- - --- ----- ----- ----<br>---- --- --- ----- --- ---- ---- ------- ----- ---- -------<br>--- --- as ----- -- --- ---- -- --- ---- -- ------ ------<br>--- ----- -- ----,315530.5,315529.10000002384,315072.172,315076.3000000715,315088.838,315538.82,,41,as
screen,html.Screen,2_1_0_1_42,2022-02-15T12:32:57.230Z,,,,,,,,,,,,,,,,,53,,,,,,,,,,,,,,458.88000004767673,,response,,,,99,,,,,,,Space,keypress(Space),,,,,,,,---- -- ----- -- ------ - ------- --- ----------<br>------------- ------ ------ ---- ---- ------- ----- -- ----<br>-------- ------- -- ---------- --- - --- ----- ----- ----<br>---- --- --- ----- --- ---- ---- ------- ----- ---- -------<br>--- --- -- close -- --- ---- -- --- ---- -- ------ ------<br>--- ----- -- ----,315999,315997.7000000477,315522.154,315530.8000000715,315538.82,316005.468,,42,close
screen,html.Screen,2_1_0_1_43,2022-02-15T12:32:57.750Z,,,,,,,,,,,,,,,,,53,,,,,,,,,,,,,,512.2320000476902,,response,,,,99,,,,,,,Space,keypress(Space),,,,,,,,---- -- ----- -- ------ - ------- --- ----------<br>------------- ------ ------ ---- ---- ------- ----- -- ----<br>-------- ------- -- ---------- --- - --- ----- ----- ----<br>---- --- --- ----- --- ---- ---- ------- ----- ---- -------<br>--- --- -- ----- as --- ---- -- --- ---- -- ------ ------<br>--- ----- -- ----,316519,316517.7000000477,315988.802,315999.3000000715,316005.468,316522.114,,43,as
screen,html.Screen,2_1_0_1_44,2022-02-15T12:32:58.177Z,,,,,,,,,,,,,,,,,53,,,,,,,,,,,,,,423.1860000715242,,response,,,,99,,,,,,,Space,keypress(Space),,,,,,,,---- -- ----- -- ------ - ------- --- ----------<br>------------- ------ ------ ---- ---- ------- ----- -- ----<br>-------- ------- -- ---------- --- - --- ----- ----- ----<br>---- --- --- ----- --- ---- ---- ------- ----- ---- -------<br>--- --- -- ----- -- you ---- -- --- ---- -- ------ ------<br>--- ----- -- ----,316946.60000002384,316945.3000000715,316505.448,316519.39999997616,316522.114,316955.43,,44,you
screen,html.Screen,2_1_0_1_45,2022-02-15T12:32:58.639Z,,,,,,,,,,,,,,,,,53,,,,,,,,,,,,,,451.2700000476907,,response,,,,99,,,,,,,Space,keypress(Space),,,,,,,,---- -- ----- -- ------ - ------- --- ----------<br>------------- ------ ------ ---- ---- ------- ----- -- ----<br>-------- ------- -- ---------- --- - --- ----- ----- ----<br>---- --- --- ----- --- ---- ---- ------- ----- ---- -------<br>--- --- -- ----- -- --- want -- --- ---- -- ------ ------<br>--- ----- -- ----,317407.89999997616,317406.7000000477,316938.764,316947,316955.43,317422.078,,45,want
screen,html.Screen,2_1_0_1_46,2022-02-15T12:32:59.079Z,,,,,,,,,,,,,,,,,53,,,,,,,,,,,,,,424.32199997617863,,response,,,,99,,,,,,,Space,keypress(Space),,,,,,,,---- -- ----- -- ------ - ------- --- ----------<br>------------- ------ ------ ---- ---- ------- ----- -- ----<br>-------- ------- -- ---------- --- - --- ----- ----- ----<br>---- --- --- ----- --- ---- ---- ------- ----- ---- -------<br>--- --- -- ----- -- --- ---- to --- ---- -- ------ ------<br>--- ----- -- ----,317847.89999997616,317846.39999997616,317405.412,317408.3000000715,317422.078,317855.394,,46,to
screen,html.Screen,2_1_0_1_47,2022-02-15T12:32:59.557Z,,,,,,,,,,,,,,,,,53,,,,,,,,,,,,,,467.70600002387073,,response,,,,99,,,,,,,Space,keypress(Space),,,,,,,,"---- -- ----- -- ------ - ------- --- ----------<br>------------- ------ ------ ---- ---- ------- ----- -- ----<br>-------- ------- -- ---------- --- - --- ----- ----- ----<br>---- --- --- ----- --- ---- ---- ------- ----- ---- -------<br>--- --- -- ----- -- --- ---- -- be, ---- -- ------ ------<br>--- ----- -- ----",318325.89999997616,318323.10000002384,317838.728,317848.2000000477,317855.394,318355.374,,47,"be,"
screen,html.Screen,2_1_0_1_48,2022-02-15T12:33:00.014Z,,,,,,,,,,,,,,,,,53,,,,,,,,,,,,,,426.72600002383115,,response,,,,99,,,,,,,Space,keypress(Space),,,,,,,,---- -- ----- -- ------ - ------- --- ----------<br>------------- ------ ------ ---- ---- ------- ----- -- ----<br>-------- ------- -- ---------- --- - --- ----- ----- ----<br>---- --- --- ----- --- ---- ---- ------- ----- ---- -------<br>--- --- -- ----- -- --- ---- -- --- even -- ------ ------<br>--- ----- -- ----,318783.39999997616,318782.10000002384,318338.708,318326.2000000477,318355.374,318788.69,,48,even
screen,html.Screen,2_1_0_1_49,2022-02-15T12:33:00.438Z,,,,,,,,,,,,,,,,,53,,,,,,,,,,,,,,416.5100000476814,,response,,,,99,,,,,,,Space,keypress(Space),,,,,,,,---- -- ----- -- ------ - ------- --- ----------<br>------------- ------ ------ ---- ---- ------- ----- -- ----<br>-------- ------- -- ---------- --- - --- ----- ----- ----<br>---- --- --- ----- --- ---- ---- ------- ----- ---- -------<br>--- --- -- ----- -- --- ---- -- --- ---- if ------ ------<br>--- ----- -- ----,319206.7000000477,319205.2000000477,318772.024,318784.10000002384,318788.69,319222.006,,49,if
screen,html.Screen,2_1_0_1_50,2022-02-15T12:33:00.825Z,,,,,,,,,,,,,,,,,53,,,,,,,,,,,,,,370.99400000000605,,response,,,,99,,,,,,,Space,keypress(Space),,,,,,,,---- -- ----- -- ------ - ------- --- ----------<br>------------- ------ ------ ---- ---- ------- ----- -- ----<br>-------- ------- -- ---------- --- - --- ----- ----- ----<br>---- --- --- ----- --- ---- ---- ------- ----- ---- -------<br>--- --- -- ----- -- --- ---- -- --- ---- -- that's ------<br>--- ----- -- ----,319594.3000000715,319593,319205.34,319207.10000002384,319222.006,319605.324,,50,that's
screen,html.Screen,2_1_0_1_51,2022-02-15T12:33:01.277Z,,,,,,,,,,,,,,,,,53,,,,,,,,,,,,,,439.5759999761358,,response,,,,99,,,,,,,Space,keypress(Space),,,,,,,,---- -- ----- -- ------ - ------- --- ----------<br>------------- ------ ------ ---- ---- ------- ----- -- ----<br>-------- ------- -- ---------- --- - --- ----- ----- ----<br>---- --- --- ----- --- ---- ---- ------- ----- ---- -------<br>--- --- -- ----- -- --- ---- -- --- ---- -- ------ really<br>--- ----- -- ----,320046.39999997616,320044.89999997616,319588.658,319594.60000002384,319605.324,320055.306,,51,really
screen,html.Screen,2_1_0_1_52,2022-02-15T12:33:01.719Z,,,,,,,,,,,,,,,,,53,,,,,,,,,,,,,,431.09399997617584,,response,,,,99,,,,,,,Space,keypress(Space),,,,,,,,---- -- ----- -- ------ - ------- --- ----------<br>------------- ------ ------ ---- ---- ------- ----- -- ----<br>-------- ------- -- ---------- --- - --- ----- ----- ----<br>---- --- --- ----- --- ---- ---- ------- ----- ---- -------<br>--- --- -- ----- -- --- ---- -- --- ---- -- ------ ------<br>not ----- -- ----,320487.8000000715,320486.39999997616,320038.64,320046.7000000477,320055.306,320505.288,,52,not
screen,html.Screen,2_1_0_1_53,2022-02-15T12:33:02.181Z,,,,,,,,,,,,,,,,,53,,,,,,,,,,,,,,443.5120000715251,,response,,,,99,,,,,,,Space,keypress(Space),,,,,,,,---- -- ----- -- ------ - ------- --- ----------<br>------------- ------ ------ ---- ---- ------- ----- -- ----<br>-------- ------- -- ---------- --- - --- ----- ----- ----<br>---- --- --- ----- --- ---- ---- ------- ----- ---- -------<br>--- --- -- ----- -- --- ---- -- --- ---- -- ------ ------<br>--- close -- ----,320950.10000002384,320948.8000000715,320488.622,320488.10000002384,320505.288,320955.27,,53,close
screen,html.Screen,2_1_0_1_54,2022-02-15T12:33:02.657Z,,,,,,,,,,,,,,,,,53,,,,,,,,,,,,,,469.1299999761395,,response,,,,99,,,,,,,Space,keypress(Space),,,,,,,,---- -- ----- -- ------ - ------- --- ----------<br>------------- ------ ------ ---- ---- ------- ----- -- ----<br>-------- ------- -- ---------- --- - --- ----- ----- ----<br>---- --- --- ----- --- ---- ---- ------- ----- ---- -------<br>--- --- -- ----- -- --- ---- -- --- ---- -- ------ ------<br>--- ----- at ----,321425.89999997616,321424.39999997616,320938.604,320950.39999997616,320955.27,321438.584,,54,at
screen,html.Screen,2_1_0_1_55,2022-02-15T12:33:05.119Z,,,,,,,,,,,,,,,,,53,,,,,,,,,,,,,,2448.3159999761847,,response,,,,99,,,,,,,Space,keypress(Space),,,,,,,,---- -- ----- -- ------ - ------- --- ----------<br>------------- ------ ------ ---- ---- ------- ----- -- ----<br>-------- ------- -- ---------- --- - --- ----- ----- ----<br>---- --- --- ----- --- ---- ---- ------- ----- ---- -------<br>--- --- -- ----- -- --- ---- -- --- ---- -- ------ ------<br>--- ----- -- all.,323888.2000000477,323886.89999997616,321421.918,321426.3000000715,321438.584,323905.152,,55,all.
Item 99,flow.Loop,2_1_0_1,2022-02-15T12:33:05.120Z,,,,,,,,,,,,,,,,,,,,,,,,,,,,,,,30913.843999976176,,completion,,,,,D,,,,,,,,,,,silence,,,,,323889.3000000715,323886.89999997616,292956.39,292957.89999997616,292973.056,323905.152,,,
Question 1,html.Screen,2_1_0_2,2022-02-15T12:33:12.217Z,,,,,,,,,,,,,,,,,,,,,,,,,,,,true,FALSE,,7079.247999976156,,response,,,,99,D,,,,,,FALSE,click #choice-2,,,,silence,,,,,330986.39999997616,330984.39999997616,323888.486,323889.60000002384,323905.152,330988.202,,,
Question 2,html.Screen,2_1_0_3,2022-02-15T12:33:21.017Z,,,,,,,,,,,,,,,,,,,,,,,,,,,,true,TRUE,,8796.197999976168,,response,,,,99,D,,,,,,TRUE,click #choice-1,,,,silence,,,,,339786.60000002384,339784.39999997616,330971.536,330986.8000000715,330988.202,339804.516,,,
Item 99,flow.Sequence,2_1_0,2022-02-15T12:33:21.018Z,,,,,,,,,,,,,,,,,,,,,,,,,,,,,,,56810.94399997615,,completion,,,,,,,,,,,,,,,,,,,,,339787.5,339784.39999997616,282956.79,282963.89999997616,282973.456,339804.516,,,
Holding screen,html.Screen,2_1_1_0,2022-02-15T12:33:31.020Z,,,,,,,,,,,,,,,,,,,,,,,,,,,,,,,9999.599999999977,,timeout,,,,,,,,,,,,,,,,,,,,,349789.10000002384,349787.45,339771.184,339787.8000000715,339804.516,349804.116,,,
screen,html.Screen,2_1_1_1_0,2022-02-15T12:33:32.368Z,,,,,,,,,,,,,,,,,54,,,,,,,,,,,,,,1331.4840000238619,,response,,,,100,,,,,,,Space,keypress(Space),,,,,,,,At --- ---- --- ------ ----- ------- ---- -- --- ------- --<br>------- ---------- ------ -- ----- -- ----- -- ---- ------<br>--- ----- --- --- ------ -------- ----- --- ------ ----- --<br>----- ----- ---------- --- --- ------ ------ ---- -- ------<br>------- --- ------ ----- --- ---- ------- -- ---- --- --<br>------- ------,351137.39999997616,351135.60000002384,349787.45,349789.5,349804.116,351137.396,,0,At
screen,html.Screen,2_1_1_1_1,2022-02-15T12:33:32.800Z,,,,,,,,,,,,,,,,,54,,,,,,,,,,,,,,430.40400007151766,,response,,,,100,,,,,,,Space,keypress(Space),,,,,,,,-- the ---- --- ------ ----- ------- ---- -- --- ------- --<br>------- ---------- ------ -- ----- -- ----- -- ---- ------<br>--- ----- --- --- ------ -------- ----- --- ------ ----- --<br>----- ----- ---------- --- --- ------ ------ ---- -- ------<br>------- --- ------ ----- --- ---- ------- -- ---- --- --<br>------- ------,351569.2000000477,351567.8000000715,351120.73,351137.7000000477,351137.396,351570.712,,1,the
screen,html.Screen,2_1_1_1_2,2022-02-15T12:33:33.250Z,,,,,,,,,,,,,,,,,54,,,,,,,,,,,,,,446.3880000238423,,response,,,,100,,,,,,,Space,keypress(Space),,,,,,,,-- --- time --- ------ ----- ------- ---- -- --- ------- --<br>------- ---------- ------ -- ----- -- ----- -- ---- ------<br>--- ----- --- --- ------ -------- ----- --- ------ ----- --<br>----- ----- ---------- --- --- ------ ------ ---- -- ------<br>------- --- ------ ----- --- ---- ------- -- ---- --- --<br>------- ------,352019.10000002384,352017.10000002384,351554.046,351569.60000002384,351570.712,352020.694,,2,time
screen,html.Screen,2_1_1_1_3,2022-02-15T12:33:33.630Z,,,,,,,,,,,,,,,,,54,,,,,,,,,,,,,,377.20599997614045,,response,,,,100,,,,,,,Space,keypress(Space),,,,,,,,-- --- ---- the ------ ----- ------- ---- -- --- ------- --<br>------- ---------- ------ -- ----- -- ----- -- ---- ------<br>--- ----- --- --- ------ -------- ----- --- ------ ----- --<br>----- ----- ---------- --- --- ------ ------ ---- -- ------<br>------- --- ------ ----- --- ---- ------- -- ---- --- --<br>------- ------,352399.3000000715,352397.89999997616,352004.028,352019.5,352020.694,352404.012,,3,the
screen,html.Screen,2_1_1_1_4,2022-02-15T12:33:34.077Z,,,,,,,,,,,,,,,,,54,,,,,,,,,,,,,,441.1880000476958,,response,,,,100,,,,,,,Space,keypress(Space),,,,,,,,-- --- ---- --- French ----- ------- ---- -- --- ------- --<br>------- ---------- ------ -- ----- -- ----- -- ---- ------<br>--- ----- --- --- ------ -------- ----- --- ------ ----- --<br>----- ----- ---------- --- --- ------ ------ ---- -- ------<br>------- --- ------ ----- --- ---- ------- -- ---- --- --<br>------- ------,352846.5,352845.2000000477,352387.346,352399.60000002384,352404.012,352853.994,,4,French
screen,html.Screen,2_1_1_1_5,2022-02-15T12:33:34.581Z,,,,,,,,,,,,,,,,,54,,,,,,,,,,,,,,494.50599999999395,,response,,,,100,,,,,,,Space,keypress(Space),,,,,,,,-- --- ---- --- ------ crown ------- ---- -- --- ------- --<br>------- ---------- ------ -- ----- -- ----- -- ---- ------<br>--- ----- --- --- ------ -------- ----- --- ------ ----- --<br>----- ----- ---------- --- --- ------ ------ ---- -- ------<br>------- --- ------ ----- --- ---- ------- -- ---- --- --<br>------- ------,353349.89999997616,353348.5,352837.328,352846.89999997616,352853.994,353353.974,,5,crown
screen,html.Screen,2_1_1_1_6,2022-02-15T12:33:34.992Z,,,,,,,,,,,,,,,,,54,,,,,,,,,,,,,,405.5260000000126,,response,,,,100,,,,,,,Space,keypress(Space),,,,,,,,-- --- ---- --- ------ ----- secured ---- -- --- ------- --<br>------- ---------- ------ -- ----- -- ----- -- ---- ------<br>--- ----- --- --- ------ -------- ----- --- ------ ----- --<br>----- ----- ---------- --- --- ------ ------ ---- -- ------<br>------- --- ------ ----- --- ---- ------- -- ---- --- --<br>------- ------,353760.89999997616,353759.5,353337.308,353350.3000000715,353353.974,353770.624,,6,secured
screen,html.Screen,2_1_1_1_7,2022-02-15T12:33:35.387Z,,,,,,,,,,,,,,,,,54,,,,,,,,,,,,,,384.17600007151486,,response,,,,100,,,,,,,Space,keypress(Space),,,,,,,,-- --- ---- --- ------ ----- ------- much -- --- ------- --<br>------- ---------- ------ -- ----- -- ----- -- ---- ------<br>--- ----- --- --- ------ -------- ----- --- ------ ----- --<br>----- ----- ---------- --- --- ------ ------ ---- -- ------<br>------- --- ------ ----- --- ---- ------- -- ---- --- --<br>------- ------,354156.10000002384,354154.8000000715,353753.958,353761.3000000715,353770.624,354187.274,,7,much
screen,html.Screen,2_1_1_1_8,2022-02-15T12:33:35.836Z,,,,,,,,,,,,,,,,,54,,,,,,,,,,,,,,416.62599997618236,,response,,,,100,,,,,,,Space,keypress(Space),,,,,,,,-- --- ---- --- ------ ----- ------- ---- of --- ------- --<br>------- ---------- ------ -- ----- -- ----- -- ---- ------<br>--- ----- --- --- ------ -------- ----- --- ------ ----- --<br>----- ----- ---------- --- --- ------ ------ ---- -- ------<br>------- --- ------ ----- --- ---- ------- -- ---- --- --<br>------- ------,354605.3000000715,354603.89999997616,354170.608,354156.39999997616,354187.274,354620.59,,8,of
screen,html.Screen,2_1_1_1_9,2022-02-15T12:33:36.154Z,,,,,,,,,,,,,,,,,54,,,,,,,,,,,,,,301.21000007149996,,response,,,,100,,,,,,,Space,keypress(Space),,,,,,,,-- --- ---- --- ------ ----- ------- ---- -- its ------- --<br>------- ---------- ------ -- ----- -- ----- -- ---- ------<br>--- ----- --- --- ------ -------- ----- --- ------ ----- --<br>----- ----- ---------- --- --- ------ ------ ---- -- ------<br>------- --- ------ ----- --- ---- ------- -- ---- --- --<br>------- ------,354922.7000000477,354921.8000000715,354603.924,354605.60000002384,354620.59,354937.244,,9,its
screen,html.Screen,2_1_1_1_10,2022-02-15T12:33:36.672Z,,,,,,,,,,,,,,,,,54,,,,,,,,,,,,,,502.6559999761521,,response,,,,100,,,,,,,Space,keypress(Space),,,,,,,,-- --- ---- --- ------ ----- ------- ---- -- --- revenue --<br>------- ---------- ------ -- ----- -- ----- -- ---- ------<br>--- ----- --- --- ------ -------- ----- --- ------ ----- --<br>----- ----- ---------- --- --- ------ ------ ---- -- ------<br>------- --- ------ ----- --- ---- ------- -- ---- --- --<br>------- ------,355441.10000002384,355439.89999997616,354920.578,354923,354937.244,355453.89,,10,revenue
screen,html.Screen,2_1_1_1_11,2022-02-15T12:33:37.254Z,,,,,,,,,,,,,,,,,54,,,,,,,,,,,,,,567.7100000238279,,response,,,,100,,,,,,,Space,keypress(Space),,,,,,,,-- --- ---- --- ------ ----- ------- ---- -- --- ------- by<br>------- ---------- ------ -- ----- -- ----- -- ---- ------<br>--- ----- --- --- ------ -------- ----- --- ------ ----- --<br>----- ----- ---------- --- --- ------ ------ ---- -- ------<br>------- --- ------ ----- --- ---- ------- -- ---- --- --<br>------- ------,356022.89999997616,356021.60000002384,355437.224,355441.60000002384,355453.89,356037.2,,11,by
screen,html.Screen,2_1_1_1_12,2022-02-15T12:33:37.754Z,,,,,,,,,,,,,,,,,54,,,,,,,,,,,,,,485.29999999998836,,response,,,,100,,,,,,,Space,keypress(Space),,,,,,,,-- --- ---- --- ------ ----- ------- ---- -- --- ------- --<br>issuing ---------- ------ -- ----- -- ----- -- ---- ------<br>--- ----- --- --- ------ -------- ----- --- ------ ----- --<br>----- ----- ---------- --- --- ------ ------ ---- -- ------<br>------- --- ------ ----- --- ---- ------- -- ---- --- --<br>------- ------,356523.60000002384,356522.5,356020.534,356023.39999997616,356037.2,356537.18,,12,issuing
screen,html.Screen,2_1_1_1_13,2022-02-15T12:33:38.158Z,,,,,,,,,,,,,,,,,54,,,,,,,,,,,,,,388.42000002384884,,response,,,,100,,,,,,,Space,keypress(Space),,,,,,,,-- --- ---- --- ------ ----- ------- ---- -- --- ------- --<br>------- government ------ -- ----- -- ----- -- ---- ------<br>--- ----- --- --- ------ -------- ----- --- ------ ----- --<br>----- ----- ---------- --- --- ------ ------ ---- -- ------<br>------- --- ------ ----- --- ---- ------- -- ---- --- --<br>------- ------,356926.8000000715,356925.60000002384,356520.514,356524.3000000715,356537.18,356937.164,,13,government
screen,html.Screen,2_1_1_1_14,2022-02-15T12:33:38.584Z,,,,,,,,,,,,,,,,,54,,,,,,,,,,,,,,413.1360000715358,,response,,,,100,,,,,,,Space,keypress(Space),,,,,,,,-- --- ---- --- ------ ----- ------- ---- -- --- ------- --<br>------- ---------- bonds. -- ----- -- ----- -- ---- ------<br>--- ----- --- --- ------ -------- ----- --- ------ ----- --<br>----- ----- ---------- --- --- ------ ------ ---- -- ------<br>------- --- ------ ----- --- ---- ------- -- ---- --- --<br>------- ------,357352.8000000715,357350.3000000715,356920.498,356927.39999997616,356937.164,357370.48,,14,bonds.
screen,html.Screen,2_1_1_1_15,2022-02-15T12:33:39.462Z,,,,,,,,,,,,,,,,,54,,,,,,,,,,,,,,859.2200000477023,,response,,,,100,,,,,,,Space,keypress(Space),,,,,,,,-- --- ---- --- ------ ----- ------- ---- -- --- ------- --<br>------- ---------- ------ In ----- -- ----- -- ---- ------<br>--- ----- --- --- ------ -------- ----- --- ------ ----- --<br>----- ----- ---------- --- --- ------ ------ ---- -- ------<br>------- --- ------ ----- --- ---- ------- -- ---- --- --<br>------- ------,358231.7000000477,358229.7000000477,357353.814,357353.5,357370.48,358237.112,,15,In
screen,html.Screen,2_1_1_1_16,2022-02-15T12:33:39.802Z,,,,,,,,,,,,,,,,,54,,,,,,,,,,,,,,332.68800007150276,,response,,,,100,,,,,,,Space,keypress(Space),,,,,,,,"-- --- ---- --- ------ ----- ------- ---- -- --- ------- --<br>------- ---------- ------ -- 1727, -- ----- -- ---- ------<br>--- ----- --- --- ------ -------- ----- --- ------ ----- --<br>----- ----- ---------- --- --- ------ ------ ---- -- ------<br>------- --- ------ ----- --- ---- ------- -- ---- --- --<br>------- ------",358571.10000002384,358569.8000000715,358220.446,358231.89999997616,358237.112,358587.098,,16,"1727,"
screen,html.Screen,2_1_1_1_17,2022-02-15T12:33:40.745Z,,,,,,,,,,,,,,,,,54,,,,,,,,,,,,,,925.7020000715274,,response,,,,100,,,,,,,Space,keypress(Space),,,,,,,,-- --- ---- --- ------ ----- ------- ---- -- --- ------- --<br>------- ---------- ------ -- ----- in ----- -- ---- ------<br>--- ----- --- --- ------ -------- ----- --- ------ ----- --<br>----- ----- ---------- --- --- ------ ------ ---- -- ------<br>------- --- ------ ----- --- ---- ------- -- ---- --- --<br>------- ------,359513.89999997616,359512.8000000715,358570.432,358571.8000000715,358587.098,359520.394,,17,in
screen,html.Screen,2_1_1_1_18,2022-02-15T12:33:41.256Z,,,,,,,,,,,,,,,,,54,,,,,,,,,,,,,,500.90600007155444,,response,,,,100,,,,,,,Space,keypress(Space),,,,,,,,-- --- ---- --- ------ ----- ------- ---- -- --- ------- --<br>------- ---------- ------ -- ----- -- order -- ---- ------<br>--- ----- --- --- ------ -------- ----- --- ------ ----- --<br>----- ----- ---------- --- --- ------ ------ ---- -- ------<br>------- --- ------ ----- --- ---- ------- -- ---- --- --<br>------- ------,360025.10000002384,360021.3000000715,359503.728,359514.60000002384,359520.394,360037.04,,18,order
screen,html.Screen,2_1_1_1_19,2022-02-15T12:33:41.754Z,,,,,,,,,,,,,,,,,54,,,,,,,,,,,,,,484.76000007154653,,response,,,,100,,,,,,,Space,keypress(Space),,,,,,,,-- --- ---- --- ------ ----- ------- ---- -- --- ------- --<br>------- ---------- ------ -- ----- -- ----- to ---- ------<br>--- ----- --- --- ------ -------- ----- --- ------ ----- --<br>----- ----- ---------- --- --- ------ ------ ---- -- ------<br>------- --- ------ ----- --- ---- ------- -- ---- --- --<br>------- ------,360523,360521.8000000715,360020.374,360025.39999997616,360037.04,360537.02,,19,to
screen,html.Screen,2_1_1_1_20,2022-02-15T12:33:42.219Z,,,,,,,,,,,,,,,,,54,,,,,,,,,,,,,,448.6800000476651,,response,,,,100,,,,,,,Space,keypress(Space),,,,,,,,-- --- ---- --- ------ ----- ------- ---- -- --- ------- --<br>------- ---------- ------ -- ----- -- ----- -- save ------<br>--- ----- --- --- ------ -------- ----- --- ------ ----- --<br>----- ----- ---------- --- --- ------ ------ ---- -- ------<br>------- --- ------ ----- --- ---- ------- -- ---- --- --<br>------- ------,360987,360985.7000000477,360520.354,360523.7000000477,360537.02,361003.668,,20,save
screen,html.Screen,2_1_1_1_21,2022-02-15T12:33:42.672Z,,,,,,,,,,,,,,,,,54,,,,,,,,,,,,,,435.231999976153,,response,,,,100,,,,,,,Space,keypress(Space),,,,,,,,"-- --- ---- --- ------ ----- ------- ---- -- --- ------- --<br>------- ---------- ------ -- ----- -- ----- -- ---- money,<br>--- ----- --- --- ------ -------- ----- --- ------ ----- --<br>----- ----- ---------- --- --- ------ ------ ---- -- ------<br>------- --- ------ ----- --- ---- ------- -- ---- --- --<br>------- ------",361440.10000002384,361438.89999997616,360987.002,360987.5,361003.668,361453.65,,21,"money,"
screen,html.Screen,2_1_1_1_22,2022-02-15T12:33:43.112Z,,,,,,,,,,,,,,,,,54,,,,,,,,,,,,,,425.3499999999767,,response,,,,100,,,,,,,Space,keypress(Space),,,,,,,,-- --- ---- --- ------ ----- ------- ---- -- --- ------- --<br>------- ---------- ------ -- ----- -- ----- -- ---- ------<br>the ----- --- --- ------ -------- ----- --- ------ ----- --<br>----- ----- ---------- --- --- ------ ------ ---- -- ------<br>------- --- ------ ----- --- ---- ------- -- ---- --- --<br>------- ------,361880.60000002384,361879,361436.984,361440.7000000477,361453.65,361886.966,,22,the
screen,html.Screen,2_1_1_1_23,2022-02-15T12:33:43.462Z,,,,,,,,,,,,,,,,,54,,,,,,,,,,,,,,342.63400002382696,,response,,,,100,,,,,,,Space,keypress(Space),,,,,,,,-- --- ---- --- ------ ----- ------- ---- -- --- ------- --<br>------- ---------- ------ -- ----- -- ----- -- ---- ------<br>--- state --- --- ------ -------- ----- --- ------ ----- --<br>----- ----- ---------- --- --- ------ ------ ---- -- ------<br>------- --- ------ ----- --- ---- ------- -- ---- --- --<br>------- ------,362230.89999997616,362229.60000002384,361870.3,361881,361886.966,362236.952,,23,state
screen,html.Screen,2_1_1_1_24,2022-02-15T12:33:43.912Z,,,,,,,,,,,,,,,,,54,,,,,,,,,,,,,,442.2480000476935,,response,,,,100,,,,,,,Space,keypress(Space),,,,,,,,-- --- ---- --- ------ ----- ------- ---- -- --- ------- --<br>------- ---------- ------ -- ----- -- ----- -- ---- ------<br>--- ----- cut --- ------ -------- ----- --- ------ ----- --<br>----- ----- ---------- --- --- ------ ------ ---- -- ------<br>------- --- ------ ----- --- ---- ------- -- ---- --- --<br>------- ------,362680.3000000715,362679.2000000477,362220.286,362231.60000002384,362236.952,362686.934,,24,cut
screen,html.Screen,2_1_1_1_25,2022-02-15T12:33:44.342Z,,,,,,,,,,,,,,,,,54,,,,,,,,,,,,,,422.1660000238335,,response,,,,100,,,,,,,Space,keypress(Space),,,,,,,,-- --- ---- --- ------ ----- ------- ---- -- --- ------- --<br>------- ---------- ------ -- ----- -- ----- -- ---- ------<br>--- ----- --- the ------ -------- ----- --- ------ ----- --<br>----- ----- ---------- --- --- ------ ------ ---- -- ------<br>------- --- ------ ----- --- ---- ------- -- ---- --- --<br>------- ------,363110.7000000477,363109.10000002384,362670.268,362681,362686.934,363120.25,,25,the
screen,html.Screen,2_1_1_1_26,2022-02-15T12:33:44.752Z,,,,,,,,,,,,,,,,,54,,,,,,,,,,,,,,399.5500000715256,,response,,,,100,,,,,,,Space,keypress(Space),,,,,,,,-- --- ---- --- ------ ----- ------- ---- -- --- ------- --<br>------- ---------- ------ -- ----- -- ----- -- ---- ------<br>--- ----- --- --- bonds' -------- ----- --- ------ ----- --<br>----- ----- ---------- --- --- ------ ------ ---- -- ------<br>------- --- ------ ----- --- ---- ------- -- ---- --- --<br>------- ------,363521.10000002384,363519.8000000715,363103.584,363111.10000002384,363120.25,363536.9,,26,bonds'
screen,html.Screen,2_1_1_1_27,2022-02-15T12:33:45.243Z,,,,,,,,,,,,,,,,,54,,,,,,,,,,,,,,473.9000000715023,,response,,,,100,,,,,,,Space,keypress(Space),,,,,,,,-- --- ---- --- ------ ----- ------- ---- -- --- ------- --<br>------- ---------- ------ -- ----- -- ----- -- ---- ------<br>--- ----- --- --- ------ interest ----- --- ------ ----- --<br>----- ----- ---------- --- --- ------ ------ ---- -- ------<br>------- --- ------ ----- --- ---- ------- -- ---- --- --<br>------- ------,364012,364010.8000000715,363520.234,363521.7000000477,363536.9,364020.214,,27,interest
screen,html.Screen,2_1_1_1_28,2022-02-15T12:33:46.234Z,,,,,,,,,,,,,,,,,54,,,,,,,,,,,,,,980.8860000238637,,response,,,,100,,,,,,,Space,keypress(Space),,,,,,,,-- --- ---- --- ------ ----- ------- ---- -- --- ------- --<br>------- ---------- ------ -- ----- -- ----- -- ---- ------<br>--- ----- --- --- ------ -------- rate. --- ------ ----- --<br>----- ----- ---------- --- --- ------ ------ ---- -- ------<br>------- --- ------ ----- --- ---- ------- -- ---- --- --<br>------- ------,365002.39999997616,365001.10000002384,364003.548,364012.10000002384,364020.214,365020.174,,28,rate.
screen,html.Screen,2_1_1_1_29,2022-02-15T12:33:46.630Z,,,,,,,,,,,,,,,,,54,,,,,,,,,,,,,,376.2259999761591,,response,,,,100,,,,,,,Space,keypress(Space),,,,,,,,-- --- ---- --- ------ ----- ------- ---- -- --- ------- --<br>------- ---------- ------ -- ----- -- ----- -- ---- ------<br>--- ----- --- --- ------ -------- ----- The ------ ----- --<br>----- ----- ---------- --- --- ------ ------ ---- -- ------<br>------- --- ------ ----- --- ---- ------- -- ---- --- --<br>------- ------,365398.39999997616,365396.39999997616,365003.508,365002.8000000715,365020.174,365403.492,,29,The
screen,html.Screen,2_1_1_1_30,2022-02-15T12:33:47.006Z,,,,,,,,,,,,,,,,,54,,,,,,,,,,,,,,369.6080000238144,,response,,,,100,,,,,,,Space,keypress(Space),,,,,,,,-- --- ---- --- ------ ----- ------- ---- -- --- ------- --<br>------- ---------- ------ -- ----- -- ----- -- ---- ------<br>--- ----- --- --- ------ -------- ----- --- market ----- --<br>----- ----- ---------- --- --- ------ ------ ---- -- ------<br>------- --- ------ ----- --- ---- ------- -- ---- --- --<br>------- ------,365774.3000000715,365773.10000002384,365386.826,365398.8000000715,365403.492,365786.81,,30,market
screen,html.Screen,2_1_1_1_31,2022-02-15T12:33:47.446Z,,,,,,,,,,,,,,,,,54,,,,,,,,,,,,,,425.89000004768604,,response,,,,100,,,,,,,Space,keypress(Space),,,,,,,,-- --- ---- --- ------ ----- ------- ---- -- --- ------- --<br>------- ---------- ------ -- ----- -- ----- -- ---- ------<br>--- ----- --- --- ------ -------- ----- --- ------ value --<br>----- ----- ---------- --- --- ------ ------ ---- -- ------<br>------- --- ------ ----- --- ---- ------- -- ---- --- --<br>------- ------,366214.10000002384,366212.7000000477,365770.144,365774.7000000477,365786.81,366220.126,,31,value
screen,html.Screen,2_1_1_1_32,2022-02-15T12:33:47.893Z,,,,,,,,,,,,,,,,,54,,,,,,,,,,,,,,440.1740000715363,,response,,,,100,,,,,,,Space,keypress(Space),,,,,,,,-- --- ---- --- ------ ----- ------- ---- -- --- ------- --<br>------- ---------- ------ -- ----- -- ----- -- ---- ------<br>--- ----- --- --- ------ -------- ----- --- ------ ----- of<br>----- ----- ---------- --- --- ------ ------ ---- -- ------<br>------- --- ------ ----- --- ---- ------- -- ---- --- --<br>------- ------,366661.3000000715,366660.3000000715,366203.46,366214.39999997616,366220.126,366670.108,,32,of
screen,html.Screen,2_1_1_1_33,2022-02-15T12:33:48.330Z,,,,,,,,,,,,,,,,,54,,,,,,,,,,,,,,427.09200004767627,,response,,,,100,,,,,,,Space,keypress(Space),,,,,,,,-- --- ---- --- ------ ----- ------- ---- -- --- ------- --<br>------- ---------- ------ -- ----- -- ----- -- ---- ------<br>--- ----- --- --- ------ -------- ----- --- ------ ----- --<br>these ----- ---------- --- --- ------ ------ ---- -- ------<br>------- --- ------ ----- --- ---- ------- -- ---- --- --<br>------- ------,367098.89999997616,367097.2000000477,366653.442,366661.5,366670.108,367103.424,,33,these
screen,html.Screen,2_1_1_1_34,2022-02-15T12:33:48.831Z,,,,,,,,,,,,,,,,,54,,,,,,,,,,,,,,495.1760000238428,,response,,,,100,,,,,,,Space,keypress(Space),,,,,,,,-- --- ---- --- ------ ----- ------- ---- -- --- ------- --<br>------- ---------- ------ -- ----- -- ----- -- ---- ------<br>--- ----- --- --- ------ -------- ----- --- ------ ----- --<br>----- bonds ---------- --- --- ------ ------ ---- -- ------<br>------- --- ------ ----- --- ---- ------- -- ---- --- --<br>------- ------,367599.8000000715,367598.60000002384,367086.758,367099.2000000477,367103.424,367603.404,,34,bonds
screen,html.Screen,2_1_1_1_35,2022-02-15T12:33:49.555Z,,,,,,,,,,,,,,,,,54,,,,,,,,,,,,,,718.4959999761777,,response,,,,100,,,,,,,Space,keypress(Space),,,,,,,,"-- --- ---- --- ------ ----- ------- ---- -- --- ------- --<br>------- ---------- ------ -- ----- -- ----- -- ---- ------<br>--- ----- --- --- ------ -------- ----- --- ------ ----- --<br>----- ----- plummeted, --- --- ------ ------ ---- -- ------<br>------- --- ------ ----- --- ---- ------- -- ---- --- --<br>------- ------",368323.10000002384,368321.89999997616,367586.738,367600.39999997616,367603.404,368336.708,,35,"plummeted,"
screen,html.Screen,2_1_1_1_36,2022-02-15T12:33:50.122Z,,,,,,,,,,,,,,,,,54,,,,,,,,,,,,,,551.9920000476995,,response,,,,100,,,,,,,Space,keypress(Space),,,,,,,,-- --- ---- --- ------ ----- ------- ---- -- --- ------- --<br>------- ---------- ------ -- ----- -- ----- -- ---- ------<br>--- ----- --- --- ------ -------- ----- --- ------ ----- --<br>----- ----- ---------- and --- ------ ------ ---- -- ------<br>------- --- ------ ----- --- ---- ------- -- ---- --- --<br>------- ------,368890.10000002384,368888.7000000477,368320.042,368323.7000000477,368336.708,368903.352,,36,and
screen,html.Screen,2_1_1_1_37,2022-02-15T12:33:50.515Z,,,,,,,,,,,,,,,,,54,,,,,,,,,,,,,,378.74800002382835,,response,,,,100,,,,,,,Space,keypress(Space),,,,,,,,-- --- ---- --- ------ ----- ------- ---- -- --- ------- --<br>------- ---------- ------ -- ----- -- ----- -- ---- ------<br>--- ----- --- --- ------ -------- ----- --- ------ ----- --<br>----- ----- ---------- --- the ------ ------ ---- -- ------<br>------- --- ------ ----- --- ---- ------- -- ---- --- --<br>------- ------,369283.8000000715,369282.10000002384,368886.686,368890.5,368903.352,369286.67,,37,the
screen,html.Screen,2_1_1_1_38,2022-02-15T12:33:50.883Z,,,,,,,,,,,,,,,,,54,,,,,,,,,,,,,,362.5300000477,,response,,,,100,,,,,,,Space,keypress(Space),,,,,,,,-- --- ---- --- ------ ----- ------- ---- -- --- ------- --<br>------- ---------- ------ -- ----- -- ----- -- ---- ------<br>--- ----- --- --- ------ -------- ----- --- ------ ----- --<br>----- ----- ---------- --- --- market ------ ---- -- ------<br>------- --- ------ ----- --- ---- ------- -- ---- --- --<br>------- ------,369651.7000000477,369649.2000000477,369270.004,369284.2000000477,369286.67,369653.322,,38,market
screen,html.Screen,2_1_1_1_39,2022-02-15T12:33:51.297Z,,,,,,,,,,,,,,,,,54,,,,,,,,,,,,,,410.97800007154,,response,,,,100,,,,,,,Space,keypress(Space),,,,,,,,-- --- ---- --- ------ ----- ------- ---- -- --- ------- --<br>------- ---------- ------ -- ----- -- ----- -- ---- ------<br>--- ----- --- --- ------ -------- ----- --- ------ ----- --<br>----- ----- ---------- --- --- ------ became ---- -- ------<br>------- --- ------ ----- --- ---- ------- -- ---- --- --<br>------- ------,370065.8000000715,370064.3000000715,369636.656,369652.10000002384,369653.322,370069.972,,39,became
screen,html.Screen,2_1_1_1_40,2022-02-15T12:33:51.654Z,,,,,,,,,,,,,,,,,54,,,,,,,,,,,,,,351.52799999999115,,response,,,,100,,,,,,,Space,keypress(Space),,,,,,,,-- --- ---- --- ------ ----- ------- ---- -- --- ------- --<br>------- ---------- ------ -- ----- -- ----- -- ---- ------<br>--- ----- --- --- ------ -------- ----- --- ------ ----- --<br>----- ----- ---------- --- --- ------ ------ wary -- ------<br>------- --- ------ ----- --- ---- ------- -- ---- --- --<br>------- ------,370422.8000000715,370421.5,370053.306,370066.2000000477,370069.972,370436.624,,40,wary
screen,html.Screen,2_1_1_1_41,2022-02-15T12:33:52.101Z,,,,,,,,,,,,,,,,,54,,,,,,,,,,,,,,431.8759999999893,,response,,,,100,,,,,,,Space,keypress(Space),,,,,,,,-- --- ---- --- ------ ----- ------- ---- -- --- ------- --<br>------- ---------- ------ -- ----- -- ----- -- ---- ------<br>--- ----- --- --- ------ -------- ----- --- ------ ----- --<br>----- ----- ---------- --- --- ------ ------ ---- of ------<br>------- --- ------ ----- --- ---- ------- -- ---- --- --<br>------- ------,370870,370868.5,370419.958,370423.5,370436.624,370886.606,,41,of
screen,html.Screen,2_1_1_1_42,2022-02-15T12:33:52.580Z,,,,,,,,,,,,,,,,,54,,,,,,,,,,,,,,460.39399999997113,,response,,,,100,,,,,,,Space,keypress(Space),,,,,,,,-- --- ---- --- ------ ----- ------- ---- -- --- ------- --<br>------- ---------- ------ -- ----- -- ----- -- ---- ------<br>--- ----- --- --- ------ -------- ----- --- ------ ----- --<br>----- ----- ---------- --- --- ------ ------ ---- -- French<br>------- --- ------ ----- --- ---- ------- -- ---- --- --<br>------- ------,371348.8000000715,371347,370869.94,370870.5,370886.606,371353.254,,42,French
screen,html.Screen,2_1_1_1_43,2022-02-15T12:33:53.169Z,,,,,,,,,,,,,,,,,54,,,,,,,,,,,,,,582.9460000476683,,response,,,,100,,,,,,,Space,keypress(Space),,,,,,,,-- --- ---- --- ------ ----- ------- ---- -- --- ------- --<br>------- ---------- ------ -- ----- -- ----- -- ---- ------<br>--- ----- --- --- ------ -------- ----- --- ------ ----- --<br>----- ----- ---------- --- --- ------ ------ ---- -- ------<br>credit. --- ------ ----- --- ---- ------- -- ---- --- --<br>------- ------,371937.89999997616,371936.2000000477,371336.588,371349.2000000477,371353.254,371953.23,,43,credit.
screen,html.Screen,2_1_1_1_44,2022-02-15T12:33:53.673Z,,,,,,,,,,,,,,,,,54,,,,,,,,,,,,,,486.5700000715442,,response,,,,100,,,,,,,Space,keypress(Space),,,,,,,,-- --- ---- --- ------ ----- ------- ---- -- --- ------- --<br>------- ---------- ------ -- ----- -- ----- -- ---- ------<br>--- ----- --- --- ------ -------- ----- --- ------ ----- --<br>----- ----- ---------- --- --- ------ ------ ---- -- ------<br>------- The ------ ----- --- ---- ------- -- ---- --- --<br>------- ------,372441.3000000715,372439.8000000715,371936.564,371938.2000000477,371953.23,372453.21,,44,The
screen,html.Screen,2_1_1_1_45,2022-02-15T12:33:54.063Z,,,,,,,,,,,,,,,,,54,,,,,,,,,,,,,,377.5900000715046,,response,,,,100,,,,,,,Space,keypress(Space),,,,,,,,-- --- ---- --- ------ ----- ------- ---- -- --- ------- --<br>------- ---------- ------ -- ----- -- ----- -- ---- ------<br>--- ----- --- --- ------ -------- ----- --- ------ ----- --<br>----- ----- ---------- --- --- ------ ------ ---- -- ------<br>------- --- French ----- --- ---- ------- -- ---- --- --<br>------- ------,372831.89999997616,372830.8000000715,372436.544,372441.8000000715,372453.21,372836.528,,45,French
screen,html.Screen,2_1_1_1_46,2022-02-15T12:33:54.454Z,,,,,,,,,,,,,,,,,54,,,,,,,,,,,,,,384.871999976167,,response,,,,100,,,,,,,Space,keypress(Space),,,,,,,,-- --- ---- --- ------ ----- ------- ---- -- --- ------- --<br>------- ---------- ------ -- ----- -- ----- -- ---- ------<br>--- ----- --- --- ------ -------- ----- --- ------ ----- --<br>----- ----- ---------- --- --- ------ ------ ---- -- ------<br>------- --- ------ state --- ---- ------- -- ---- --- --<br>------- ------,373222.5,373221.39999997616,372819.862,372832.60000002384,372836.528,373253.178,,46,state
screen,html.Screen,2_1_1_1_47,2022-02-15T12:33:54.928Z,,,,,,,,,,,,,,,,,54,,,,,,,,,,,,,,442.0220000476693,,response,,,,100,,,,,,,Space,keypress(Space),,,,,,,,-- --- ---- --- ------ ----- ------- ---- -- --- ------- --<br>------- ---------- ------ -- ----- -- ----- -- ---- ------<br>--- ----- --- --- ------ -------- ----- --- ------ ----- --<br>----- ----- ---------- --- --- ------ ------ ---- -- ------<br>------- --- ------ ----- was ---- ------- -- ---- --- --<br>------- ------,373696.5,373695.2000000477,373236.512,373223.2000000477,373253.178,373703.16,,47,was
screen,html.Screen,2_1_1_1_48,2022-02-15T12:33:55.356Z,,,,,,,,,,,,,,,,,54,,,,,,,,,,,,,,420.1400000715512,,response,,,,100,,,,,,,Space,keypress(Space),,,,,,,,-- --- ---- --- ------ ----- ------- ---- -- --- ------- --<br>------- ---------- ------ -- ----- -- ----- -- ---- ------<br>--- ----- --- --- ------ -------- ----- --- ------ ----- --<br>----- ----- ---------- --- --- ------ ------ ---- -- ------<br>------- --- ------ ----- --- left ------- -- ---- --- --<br>------- ------,374124.39999997616,374123.3000000715,373686.494,373697.10000002384,373703.16,374136.476,,48,left
screen,html.Screen,2_1_1_1_49,2022-02-15T12:33:55.891Z,,,,,,,,,,,,,,,,,54,,,,,,,,,,,,,,521.8240000715014,,response,,,,100,,,,,,,Space,keypress(Space),,,,,,,,-- --- ---- --- ------ ----- ------- ---- -- --- ------- --<br>------- ---------- ------ -- ----- -- ----- -- ---- ------<br>--- ----- --- --- ------ -------- ----- --- ------ ----- --<br>----- ----- ---------- --- --- ------ ------ ---- -- ------<br>------- --- ------ ----- --- ---- without -- ---- --- --<br>------- ------,374659.7000000477,374658.3000000715,374119.81,374125.10000002384,374136.476,374669.788,,49,without
screen,html.Screen,2_1_1_1_50,2022-02-15T12:33:56.341Z,,,,,,,,,,,,,,,,,54,,,,,,,,,,,,,,438.71199999999953,,response,,,,100,,,,,,,Space,keypress(Space),,,,,,,,-- --- ---- --- ------ ----- ------- ---- -- --- ------- --<br>------- ---------- ------ -- ----- -- ----- -- ---- ------<br>--- ----- --- --- ------ -------- ----- --- ------ ----- --<br>----- ----- ---------- --- --- ------ ------ ---- -- ------<br>------- --- ------ ----- --- ---- ------- an ---- --- --<br>------- ------,375109.8000000715,375108.5,374653.122,374660,374669.788,375119.77,,50,an
screen,html.Screen,2_1_1_1_51,2022-02-15T12:33:56.820Z,,,,,,,,,,,,,,,,,54,,,,,,,,,,,,,,468.03000007150695,,response,,,,100,,,,,,,Space,keypress(Space),,,,,,,,-- --- ---- --- ------ ----- ------- ---- -- --- ------- --<br>------- ---------- ------ -- ----- -- ----- -- ---- ------<br>--- ----- --- --- ------ -------- ----- --- ------ ----- --<br>----- ----- ---------- --- --- ------ ------ ---- -- ------<br>------- --- ------ ----- --- ---- ------- -- easy --- --<br>------- ------,375589,375587.8000000715,375103.104,375110.60000002384,375119.77,375603.084,,51,easy
screen,html.Screen,2_1_1_1_52,2022-02-15T12:33:57.328Z,,,,,,,,,,,,,,,,,54,,,,,,,,,,,,,,492.5160000238684,,response,,,,100,,,,,,,Space,keypress(Space),,,,,,,,-- --- ---- --- ------ ----- ------- ---- -- --- ------- --<br>------- ---------- ------ -- ----- -- ----- -- ---- ------<br>--- ----- --- --- ------ -------- ----- --- ------ ----- --<br>----- ----- ---------- --- --- ------ ------ ---- -- ------<br>------- --- ------ ----- --- ---- ------- -- ---- way --<br>------- ------,376096.8000000715,376095.60000002384,375586.418,375589.60000002384,375603.084,376103.064,,52,way
screen,html.Screen,2_1_1_1_53,2022-02-15T12:33:57.723Z,,,,,,,,,,,,,,,,,54,,,,,,,,,,,,,,386.93599999998696,,response,,,,100,,,,,,,Space,keypress(Space),,,,,,,,-- --- ---- --- ------ ----- ------- ---- -- --- ------- --<br>------- ---------- ------ -- ----- -- ----- -- ---- ------<br>--- ----- --- --- ------ -------- ----- --- ------ ----- --<br>----- ----- ---------- --- --- ------ ------ ---- -- ------<br>------- --- ------ ----- --- ---- ------- -- ---- --- of<br>------- ------,376491.2000000477,376490,376086.398,376097.5,376103.064,376503.048,,53,of
screen,html.Screen,2_1_1_1_54,2022-02-15T12:33:58.163Z,,,,,,,,,,,,,,,,,54,,,,,,,,,,,,,,427.85199997614836,,response,,,,100,,,,,,,Space,keypress(Space),,,,,,,,-- --- ---- --- ------ ----- ------- ---- -- --- ------- --<br>------- ---------- ------ -- ----- -- ----- -- ---- ------<br>--- ----- --- --- ------ -------- ----- --- ------ ----- --<br>----- ----- ---------- --- --- ------ ------ ---- -- ------<br>------- --- ------ ----- --- ---- ------- -- ---- --- --<br>raising ------,376932.10000002384,376930.89999997616,376486.382,376491.8000000715,376503.048,376936.364,,54,raising
screen,html.Screen,2_1_1_1_55,2022-02-15T12:33:59.155Z,,,,,,,,,,,,,,,,,54,,,,,,,,,,,,,,984.4360000715242,,response,,,,100,,,,,,,Space,keypress(Space),,,,,,,,-- --- ---- --- ------ ----- ------- ---- -- --- ------- --<br>------- ---------- ------ -- ----- -- ----- -- ---- ------<br>--- ----- --- --- ------ -------- ----- --- ------ ----- --<br>----- ----- ---------- --- --- ------ ------ ---- -- ------<br>------- --- ------ ----- --- ---- ------- -- ---- --- --<br>------- money.,377923.60000002384,377920.8000000715,376919.698,376932.7000000477,376936.364,377936.324,,55,money.
Item 100,flow.Loop,2_1_1_1,2022-02-15T12:33:59.156Z,,,,,,,,,,,,,,,,,,,,,,,,,,,,,,,28116.684000071546,,completion,,,,,D,,,,,,,,,,,silence,,,,,377924.10000002384,377920.8000000715,349787.45,349789.39999997616,349804.116,377936.324,,,
Question 1,html.Screen,2_1_1_2,2022-02-15T12:34:03.117Z,,,,,,,,,,,,,,,,,,,,,,,,,,,,true,TRUE,,3947.1759999999776,,response,,,,100,D,,,,,,TRUE,click #choice-1,,,,silence,,,,,381885.60000002384,381883.5,377919.658,377924.39999997616,377936.324,381902.832,,,
Question 2,html.Screen,2_1_1_3,2022-02-15T12:34:06.731Z,,,,,,,,,,,,,,,,,,,,,,,,,,,,true,FALSE,,3595.168000000005,,response,,,,100,D,,,,,,FALSE,click #choice-2,,,,silence,,,,,385500,385498,381886.166,381885.89999997616,381902.832,385502.688,,,
Item 100,flow.Sequence,2_1_1,2022-02-15T12:34:06.732Z,,,,,,,,,,,,,,,,,,,,,,,,,,,,,,,45693.484,,completion,,,,,,,,,,,,,,,,,,,,,385500.39999997616,385498,339771.184,339787.7000000477,339804.516,385502.688,,,
End of Practice,html.Page,2_1_2,2022-02-15T12:34:14.651Z,,,,,,,,,,,,,,,,,,,,,,,,,,,,,,,7915.311999999976,,form submission,,,,,,,,,,,,,,,,,,,,,393419.3000000715,393418,385486.022,385500.8000000715,385502.688,393419.038,,,
Practice,flow.Sequence,2_1,2022-02-15T12:34:14.651Z,,,,,,,,,,,,,,,,,,,,,,,,,,,,,,,110444.544,,completion,,,,,,,,,,,,,,,,,,,,,393419.8000000715,393418,282956.79,282963.7000000477,282973.456,393419.038,,,
Trap_instruction,html.Page,2_2_0,2022-02-15T12:34:25.784Z,,,,,,,,,,,,,,,,,,,,,,,,,,,,,,,11132.662000047683,,form submission,,,,,,,,,,,,,,,,,,,,,404552.89999997616,404551.7000000477,393402.372,393420.3000000715,393419.038,404585.258,,,
trap_trial,html.Screen,2_2_1,2022-02-15T12:34:31.015Z,,,,,,,,,,,,,,,,,,,,,,,,,,,,true,1,,5195.641999976186,,response,,,,,,,,,,,1,click #choice-1,,,,,,,,,409783.2000000477,409780.89999997616,404551.926,404553.2000000477,404585.258,409785.05,,,
end of trap trial,html.Page,2_2_2,2022-02-15T12:34:34.766Z,,,,,,,,,,,,,,,,,,,,,,,,,,,,,,,3748.34999997617,,form submission,,,,,,,,,,,,,,,,,,,,,413534.60000002384,413533.39999997616,409768.384,409783.60000002384,409785.05,413534.9,,,
Trap 1,flow.Sequence,2_2,2022-02-15T12:34:34.767Z,,,,,,,,,,,,,,,,,,,,,,,,,,,,,,,20114.361999976158,,completion,,,,,,,,,,,,,,,,,,,,,413535.2000000477,413533.39999997616,393402.372,393420.2000000477,393419.038,413534.9,,,
Standby,html.Page,2_3_0,2022-02-15T12:34:42.752Z,,,,,,,,,,,,,,,,,,,,,,,,,,,,,,,7999.679999999993,,timeout,,,,,,,,,,,,,,,,,,,,,421519.5,421517.914,413518.234,413535.60000002384,413534.9,421534.58,,,
Holding screen,html.Screen,2_3_1_0_0,2022-02-15T12:34:49.752Z,,,,,,,,,,,,,,,,,,,,,,,,,,,,,,,6999.719999999972,,timeout,,,,,,,,,,,,,,,,,,,,,428519.7000000477,428517.634,421517.914,421520.10000002384,421534.58,428534.3,,,
screen,html.Screen,2_3_1_0_1_0,2022-02-15T12:34:50.258Z,,,,,,,,,,,,,,,,,48,,,,,,,,,,,,,,489.70000000001164,,response,,,,10,D,,,,,,Space,keypress(Space),,,,silence,,,,As -- --- ------ ------- --------- ----------- --------<br>--------- -------- --- ------- -- ------- ---- -- ------<br>-- --- -------- -------- ---------- ---- ---- ---- ------<br>-- --------- -- ---- -- --- -- --- ------- -- - -----<br>---------- -- -- -- ---- ----- -- ------ -- --- ------<br>-------,429025.8000000715,429024,428517.634,428520.2000000477,428534.3,429034.28,,0,As
screen,html.Screen,2_3_1_0_1_1,2022-02-15T12:34:50.656Z,,,,,,,,,,,,,,,,,48,,,,,,,,,,,,,,387.4200000476558,,response,,,,10,D,,,,,,Space,keypress(Space),,,,silence,,,,-- in --- ------ ------- --------- ----------- --------<br>--------- -------- --- ------- -- ------- ---- -- ------<br>-- --- -------- -------- ---------- ---- ---- ---- ------<br>-- --------- -- ---- -- --- -- --- ------- -- - -----<br>---------- -- -- -- ---- ----- -- ------ -- --- ------<br>-------,429423.5,429421.7000000477,429017.614,429026.2000000477,429034.28,429434.264,,1,in
screen,html.Screen,2_3_1_0_1_2,2022-02-15T12:34:51.049Z,,,,,,,,,,,,,,,,,48,,,,,,,,,,,,,,380.5360000715009,,response,,,,10,D,,,,,,Space,keypress(Space),,,,silence,,,,-- -- the ------ ------- --------- ----------- --------<br>--------- -------- --- ------- -- ------- ---- -- ------<br>-- --- -------- -------- ---------- ---- ---- ---- ------<br>-- --------- -- ---- -- --- -- --- ------- -- - -----<br>---------- -- -- -- ---- ----- -- ------ -- --- ------<br>-------,429816.10000002384,429814.8000000715,429417.598,429423.89999997616,429434.264,429817.582,,2,the
screen,html.Screen,2_3_1_0_1_3,2022-02-15T12:34:51.455Z,,,,,,,,,,,,,,,,,48,,,,,,,,,,,,,,403.4180000000051,,response,,,,10,D,,,,,,Space,keypress(Space),,,,silence,,,,-- -- --- United ------- --------- ----------- --------<br>--------- -------- --- ------- -- ------- ---- -- ------<br>-- --- -------- -------- ---------- ---- ---- ---- ------<br>-- --------- -- ---- -- --- -- --- ------- -- - -----<br>---------- -- -- -- ---- ----- -- ------ -- --- ------<br>-------,430222.39999997616,430221,429800.916,429816.5,429817.582,430234.232,,3,United
screen,html.Screen,2_3_1_0_1_4,2022-02-15T12:34:51.941Z,,,,,,,,,,,,,,,,,48,,,,,,,,,,,,,,473.0680000715074,,response,,,,10,D,,,,,,Space,keypress(Space),,,,silence,,,,"-- -- --- ------ States, --------- ----------- --------<br>--------- -------- --- ------- -- ------- ---- -- ------<br>-- --- -------- -------- ---------- ---- ---- ---- ------<br>-- --------- -- ---- -- --- -- --- ------- -- - -----<br>---------- -- -- -- ---- ----- -- ------ -- --- ------<br>-------",430709,430707.3000000715,430217.566,430222.8000000715,430234.232,430717.546,,4,"States,"
screen,html.Screen,2_3_1_0_1_5,2022-02-15T12:34:52.430Z,,,,,,,,,,,,,,,,,48,,,,,,,,,,,,,,478.55400002386887,,response,,,,10,D,,,,,,Space,keypress(Space),,,,silence,,,,-- -- --- ------ ------- Colombian ----------- --------<br>--------- -------- --- ------- -- ------- ---- -- ------<br>-- --- -------- -------- ---------- ---- ---- ---- ------<br>-- --------- -- ---- -- --- -- --- ------- -- - -----<br>---------- -- -- -- ---- ----- -- ------ -- --- ------<br>-------,431197.7000000477,431196.10000002384,430700.88,430709.3000000715,430717.546,431200.86,,5,Colombian
screen,html.Screen,2_3_1_0_1_6,2022-02-15T12:34:53.087Z,,,,,,,,,,,,,,,,,48,,,,,,,,,,,,,,652.5399999761721,,response,,,,10,D,,,,,,Space,keypress(Space),,,,silence,,,,-- -- --- ------ ------- --------- legislation --------<br>--------- -------- --- ------- -- ------- ---- -- ------<br>-- --- -------- -------- ---------- ---- ---- ---- ------<br>-- --------- -- ---- -- --- -- --- ------- -- - -----<br>---------- -- -- -- ---- ----- -- ------ -- --- ------<br>-------,431854.60000002384,431853.39999997616,431184.194,431198,431200.86,431867.5,,6,legislation
screen,html.Screen,2_3_1_0_1_7,2022-02-15T12:34:53.700Z,,,,,,,,,,,,,,,,,48,,,,,,,,,,,,,,599.1000000238419,,response,,,,10,D,,,,,,Space,keypress(Space),,,,silence,,,,-- -- --- ------ ------- --------- ----------- requires<br>--------- -------- --- ------- -- ------- ---- -- ------<br>-- --- -------- -------- ---------- ---- ---- ---- ------<br>-- --------- -- ---- -- --- -- --- ------- -- - -----<br>---------- -- -- -- ---- ----- -- ------ -- --- ------<br>-------,432467.89999997616,432466.60000002384,431850.834,431854.89999997616,431867.5,432484.142,,7,requires
screen,html.Screen,2_3_1_0_1_8,2022-02-15T12:34:54.124Z,,,,,,,,,,,,,,,,,48,,,,,,,,,,,,,,405.658000071533,,response,,,,10,D,,,,,,Space,keypress(Space),,,,silence,,,,-- -- --- ------ ------- --------- ----------- --------<br>travelers -------- --- ------- -- ------- ---- -- ------<br>-- --- -------- -------- ---------- ---- ---- ---- ------<br>-- --------- -- ---- -- --- -- --- ------- -- - -----<br>---------- -- -- -- ---- ----- -- ------ -- --- ------<br>-------,432891.10000002384,432889.8000000715,432467.476,432468.2000000477,432484.142,432900.792,,8,travelers
screen,html.Screen,2_3_1_0_1_9,2022-02-15T12:34:54.545Z,,,,,,,,,,,,,,,,,48,,,,,,,,,,,,,,410.70799999998417,,response,,,,10,D,,,,,,Space,keypress(Space),,,,silence,,,,-- -- --- ------ ------- --------- ----------- --------<br>--------- entering --- ------- -- ------- ---- -- ------<br>-- --- -------- -------- ---------- ---- ---- ---- ------<br>-- --------- -- ---- -- --- -- --- ------- -- - -----<br>---------- -- -- -- ---- ----- -- ------ -- --- ------<br>-------,433312.89999997616,433311.5,432884.126,432891.39999997616,432900.792,433317.442,,9,entering
screen,html.Screen,2_3_1_0_1_10,2022-02-15T12:34:54.929Z,,,,,,,,,,,,,,,,,48,,,,,,,,,,,,,,378.15800002386095,,response,,,,10,D,,,,,,Space,keypress(Space),,,,silence,,,,-- -- --- ------ ------- --------- ----------- --------<br>--------- -------- the ------- -- ------- ---- -- ------<br>-- --- -------- -------- ---------- ---- ---- ---- ------<br>-- --------- -- ---- -- --- -- --- ------- -- - -----<br>---------- -- -- -- ---- ----- -- ------ -- --- ------<br>-------,433696.89999997616,433695.60000002384,433300.776,433313.2000000477,433317.442,433700.76,,10,the
screen,html.Screen,2_3_1_0_1_11,2022-02-15T12:34:55.325Z,,,,,,,,,,,,,,,,,48,,,,,,,,,,,,,,391.04000007151626,,response,,,,10,D,,,,,,Space,keypress(Space),,,,silence,,,,-- -- --- ------ ------- --------- ----------- --------<br>--------- -------- --- country -- ------- ---- -- ------<br>-- --- -------- -------- ---------- ---- ---- ---- ------<br>-- --------- -- ---- -- --- -- --- ------- -- - -----<br>---------- -- -- -- ---- ----- -- ------ -- --- ------<br>-------,434093.10000002384,434091.8000000715,433684.094,433697.3000000715,433700.76,434100.744,,11,country
screen,html.Screen,2_3_1_0_1_12,2022-02-15T12:34:55.677Z,,,,,,,,,,,,,,,,,48,,,,,,,,,,,,,,342.95600004767766,,response,,,,10,D,,,,,,Space,keypress(Space),,,,silence,,,,-- -- --- ------ ------- --------- ----------- --------<br>--------- -------- --- ------- to ------- ---- -- ------<br>-- --- -------- -------- ---------- ---- ---- ---- ------<br>-- --------- -- ---- -- --- -- --- ------- -- - -----<br>---------- -- -- -- ---- ----- -- ------ -- --- ------<br>-------,434445,434443.7000000477,434084.078,434093.39999997616,434100.744,434450.73,,12,to
screen,html.Screen,2_3_1_0_1_13,2022-02-15T12:34:56.095Z,,,,,,,,,,,,,,,,,48,,,,,,,,,,,,,,410.47000004770234,,response,,,,10,D,,,,,,Space,keypress(Space),,,,silence,,,,-- -- --- ------ ------- --------- ----------- --------<br>--------- -------- --- ------- -- declare ---- -- ------<br>-- --- -------- -------- ---------- ---- ---- ---- ------<br>-- --------- -- ---- -- --- -- --- ------- -- - -----<br>---------- -- -- -- ---- ----- -- ------ -- --- ------<br>-------,434862.60000002384,434861.2000000477,434434.064,434445.3000000715,434450.73,434867.38,,13,declare
screen,html.Screen,2_3_1_0_1_14,2022-02-15T12:34:56.499Z,,,,,,,,,,,,,,,,,48,,,,,,,,,,,,,,388.7200000238372,,response,,,,10,D,,,,,,Space,keypress(Space),,,,silence,,,,-- -- --- ------ ------- --------- ----------- --------<br>--------- -------- --- ------- -- ------- cash -- ------<br>-- --- -------- -------- ---------- ---- ---- ---- ------<br>-- --------- -- ---- -- --- -- --- ------- -- - -----<br>---------- -- -- -- ---- ----- -- ------ -- --- ------<br>-------,435266.3000000715,435256.10000002384,434850.714,434862.89999997616,434867.38,435267.364,,14,cash
screen,html.Screen,2_3_1_0_1_15,2022-02-15T12:34:56.924Z,,,,,,,,,,,,,,,,,48,,,,,,,,,,,,,,422.6359999999986,,response,,,,10,D,,,,,,Space,keypress(Space),,,,silence,,,,-- -- --- ------ ------- --------- ----------- --------<br>--------- -------- --- ------- -- ------- ---- in ------<br>-- --- -------- -------- ---------- ---- ---- ---- ------<br>-- --------- -- ---- -- --- -- --- ------- -- - -----<br>---------- -- -- -- ---- ----- -- ------ -- --- ------<br>-------,435691.3000000715,435690,435250.698,435266.8000000715,435267.364,435700.68,,15,in
screen,html.Screen,2_3_1_0_1_16,2022-02-15T12:34:57.459Z,,,,,,,,,,,,,,,,,48,,,,,,,,,,,,,,524.4200000238488,,response,,,,10,D,,,,,,Space,keypress(Space),,,,silence,,,,-- -- --- ------ ------- --------- ----------- --------<br>--------- -------- --- ------- -- ------- ---- -- excess<br>-- --- -------- -------- ---------- ---- ---- ---- ------<br>-- --------- -- ---- -- --- -- --- ------- -- - -----<br>---------- -- -- -- ---- ----- -- ------ -- --- ------<br>-------,436226.39999997616,436225.10000002384,435684.014,435691.60000002384,435700.68,436233.992,,16,excess
screen,html.Screen,2_3_1_0_1_17,2022-02-15T12:34:57.892Z,,,,,,,,,,,,,,,,,48,,,,,,,,,,,,,,424.0079999999725,,response,,,,10,D,,,,,,Space,keypress(Space),,,,silence,,,,-- -- --- ------ ------- --------- ----------- --------<br>--------- -------- --- ------- -- ------- ---- -- ------<br>of --- -------- -------- ---------- ---- ---- ---- ------<br>-- --------- -- ---- -- --- -- --- ------- -- - -----<br>---------- -- -- -- ---- ----- -- ------ -- --- ------<br>-------,436659.3000000715,436658,436217.326,436226.7000000477,436233.992,436667.308,,17,of
screen,html.Screen,2_3_1_0_1_18,2022-02-15T12:34:58.286Z,,,,,,,,,,,,,,,,,48,,,,,,,,,,,,,,383.59199997613905,,response,,,,10,D,,,,,,Space,keypress(Space),,,,silence,,,,-- -- --- ------ ------- --------- ----------- --------<br>--------- -------- --- ------- -- ------- ---- -- ------<br>-- ten -------- -------- ---------- ---- ---- ---- ------<br>-- --------- -- ---- -- --- -- --- ------- -- - -----<br>---------- -- -- -- ---- ----- -- ------ -- --- ------<br>-------,437053.3000000715,437050.89999997616,436650.642,436659.60000002384,436667.308,437067.292,,18,ten
screen,html.Screen,2_3_1_0_1_19,2022-02-15T12:34:58.721Z,,,,,,,,,,,,,,,,,48,,,,,,,,,,,,,,420.308000023826,,response,,,,10,D,,,,,,Space,keypress(Space),,,,silence,,,,-- -- --- ------ ------- --------- ----------- --------<br>--------- -------- --- ------- -- ------- ---- -- ------<br>-- --- thousand -------- ---------- ---- ---- ---- ------<br>-- --------- -- ---- -- --- -- --- ------- -- - -----<br>---------- -- -- -- ---- ----- -- ------ -- --- ------<br>-------,437489,437487.60000002384,437050.626,437053.60000002384,437067.292,437500.608,,19,thousand
screen,html.Screen,2_3_1_0_1_20,2022-02-15T12:34:59.103Z,,,,,,,,,,,,,,,,,48,,,,,,,,,,,,,,368.4920000238344,,response,,,,10,D,,,,,,Space,keypress(Space),,,,silence,,,,-- -- --- ------ ------- --------- ----------- --------<br>--------- -------- --- ------- -- ------- ---- -- ------<br>-- --- -------- dollars. ---------- ---- ---- ---- ------<br>-- --------- -- ---- -- --- -- --- ------- -- - -----<br>---------- -- -- -- ---- ----- -- ------ -- --- ------<br>-------,437870.5,437869.10000002384,437483.942,437489.39999997616,437500.608,437883.926,,20,dollars.
screen,html.Screen,2_3_1_0_1_21,2022-02-15T12:34:59.528Z,,,,,,,,,,,,,,,,,48,,,,,,,,,,,,,,410.07400000002235,,response,,,,10,D,,,,,,Space,keypress(Space),,,,silence,,,,-- -- --- ------ ------- --------- ----------- --------<br>--------- -------- --- ------- -- ------- ---- -- ------<br>-- --- -------- -------- Concealing ---- ---- ---- ------<br>-- --------- -- ---- -- --- -- --- ------- -- - -----<br>---------- -- -- -- ---- ----- -- ------ -- --- ------<br>-------,438295.60000002384,438294,437867.26,437870.89999997616,437883.926,438300.576,,21,Concealing
screen,html.Screen,2_3_1_0_1_22,2022-02-15T12:34:59.936Z,,,,,,,,,,,,,,,,,48,,,,,,,,,,,,,,402.1240000476828,,response,,,,10,D,,,,,,Space,keypress(Space),,,,silence,,,,-- -- --- ------ ------- --------- ----------- --------<br>--------- -------- --- ------- -- ------- ---- -- ------<br>-- --- -------- -------- ---------- more ---- ---- ------<br>-- --------- -- ---- -- --- -- --- ------- -- - -----<br>---------- -- -- -- ---- ----- -- ------ -- --- ------<br>-------,438704,438702.7000000477,438283.91,438295.8000000715,438300.576,438717.226,,22,more
screen,html.Screen,2_3_1_0_1_23,2022-02-15T12:35:00.296Z,,,,,,,,,,,,,,,,,48,,,,,,,,,,,,,,344.87400002381764,,response,,,,10,D,,,,,,Space,keypress(Space),,,,silence,,,,-- -- --- ------ ------- --------- ----------- --------<br>--------- -------- --- ------- -- ------- ---- -- ------<br>-- --- -------- -------- ---------- ---- than ---- ------<br>-- --------- -- ---- -- --- -- --- ------- -- - -----<br>---------- -- -- -- ---- ----- -- ------ -- --- ------<br>-------,439063.7000000477,439062.10000002384,438700.56,438704.3000000715,438717.226,439067.212,,23,than
screen,html.Screen,2_3_1_0_1_24,2022-02-15T12:35:00.660Z,,,,,,,,,,,,,,,,,48,,,,,,,,,,,,,,358.58800007152604,,response,,,,10,D,,,,,,Space,keypress(Space),,,,silence,,,,-- -- --- ------ ------- --------- ----------- --------<br>--------- -------- --- ------- -- ------- ---- -- ------<br>-- --- -------- -------- ---------- ---- ---- that ------<br>-- --------- -- ---- -- --- -- --- ------- -- - -----<br>---------- -- -- -- ---- ----- -- ------ -- --- ------<br>-------,439427.39999997616,439425.8000000715,439050.546,439064.10000002384,439067.212,439433.864,,24,that
screen,html.Screen,2_3_1_0_1_25,2022-02-15T12:35:01.114Z,,,,,,,,,,,,,,,,,48,,,,,,,,,,,,,,446.23600002384046,,response,,,,10,D,,,,,,Space,keypress(Space),,,,silence,,,,-- -- --- ------ ------- --------- ----------- --------<br>--------- -------- --- ------- -- ------- ---- -- ------<br>-- --- -------- -------- ---------- ---- ---- ---- amount<br>-- --------- -- ---- -- --- -- --- ------- -- - -----<br>---------- -- -- -- ---- ----- -- ------ -- --- ------<br>-------,439881.39999997616,439880.10000002384,439417.198,439427.60000002384,439433.864,439883.846,,25,amount
screen,html.Screen,2_3_1_0_1_26,2022-02-15T12:35:01.499Z,,,,,,,,,,,,,,,,,48,,,,,,,,,,,,,,379.15399999998044,,response,,,,10,D,,,,,,Space,keypress(Space),,,,silence,,,,-- -- --- ------ ------- --------- ----------- --------<br>--------- -------- --- ------- -- ------- ---- -- ------<br>-- --- -------- -------- ---------- ---- ---- ---- ------<br>to --------- -- ---- -- --- -- --- ------- -- - -----<br>---------- -- -- -- ---- ----- -- ------ -- --- ------<br>-------,440266.10000002384,440263,439867.18,439881.8000000715,439883.846,440283.83,,26,to
screen,html.Screen,2_3_1_0_1_27,2022-02-15T12:35:01.881Z,,,,,,,,,,,,,,,,,48,,,,,,,,,,,,,,363.3700000476674,,response,,,,10,D,,,,,,Space,keypress(Space),,,,silence,,,,-- -- --- ------ ------- --------- ----------- --------<br>--------- -------- --- ------- -- ------- ---- -- ------<br>-- --- -------- -------- ---------- ---- ---- ---- ------<br>-- transport -- ---- -- --- -- --- ------- -- - -----<br>---------- -- -- -- ---- ----- -- ------ -- --- ------<br>-------,440648.60000002384,440647.2000000477,440267.164,440266.39999997616,440283.83,440650.482,,27,transport
screen,html.Screen,2_3_1_0_1_28,2022-02-15T12:35:02.230Z,,,,,,,,,,,,,,,,,48,,,,,,,,,,,,,,346.1180000238237,,response,,,,10,D,,,,,,Space,keypress(Space),,,,silence,,,,-- -- --- ------ ------- --------- ----------- --------<br>--------- -------- --- ------- -- ------- ---- -- ------<br>-- --- -------- -------- ---------- ---- ---- ---- ------<br>-- --------- it ---- -- --- -- --- ------- -- - -----<br>---------- -- -- -- ---- ----- -- ------ -- --- ------<br>-------,440997.89999997616,440996.60000002384,440633.816,440648.89999997616,440650.482,441000.468,,28,it
screen,html.Screen,2_3_1_0_1_29,2022-02-15T12:35:02.656Z,,,,,,,,,,,,,,,,,48,,,,,,,,,,,,,,422.1320000238484,,response,,,,10,D,,,,,,Space,keypress(Space),,,,silence,,,,-- -- --- ------ ------- --------- ----------- --------<br>--------- -------- --- ------- -- ------- ---- -- ------<br>-- --- -------- -------- ---------- ---- ---- ---- ------<br>-- --------- -- into -- --- -- --- ------- -- - -----<br>---------- -- -- -- ---- ----- -- ------ -- --- ------<br>-------,441424,441422.60000002384,440983.802,440998.2000000477,441000.468,441433.784,,29,into
screen,html.Screen,2_3_1_0_1_30,2022-02-15T12:35:03.030Z,,,,,,,,,,,,,,,,,48,,,,,,,,,,,,,,362.2160000000149,,response,,,,10,D,,,,,,Space,keypress(Space),,,,silence,,,,-- -- --- ------ ------- --------- ----------- --------<br>--------- -------- --- ------- -- ------- ---- -- ------<br>-- --- -------- -------- ---------- ---- ---- ---- ------<br>-- --------- -- ---- or --- -- --- ------- -- - -----<br>---------- -- -- -- ---- ----- -- ------ -- --- ------<br>-------,441797.39999997616,441796,441417.118,441424.3000000715,441433.784,441817.102,,30,or
screen,html.Screen,2_3_1_0_1_31,2022-02-15T12:35:03.402Z,,,,,,,,,,,,,,,,,48,,,,,,,,,,,,,,351.3979999999865,,response,,,,10,D,,,,,,Space,keypress(Space),,,,silence,,,,-- -- --- ------ ------- --------- ----------- --------<br>--------- -------- --- ------- -- ------- ---- -- ------<br>-- --- -------- -------- ---------- ---- ---- ---- ------<br>-- --------- -- ---- -- out -- --- ------- -- - -----<br>---------- -- -- -- ---- ----- -- ------ -- --- ------<br>-------,442169.8000000715,442168.5,441800.436,441797.7000000477,441817.102,442183.754,,31,out
screen,html.Screen,2_3_1_0_1_32,2022-02-15T12:35:03.787Z,,,,,,,,,,,,,,,,,48,,,,,,,,,,,,,,369.6459999761428,,response,,,,10,D,,,,,,Space,keypress(Space),,,,silence,,,,-- -- --- ------ ------- --------- ----------- --------<br>--------- -------- --- ------- -- ------- ---- -- ------<br>-- --- -------- -------- ---------- ---- ---- ---- ------<br>-- --------- -- ---- -- --- of --- ------- -- - -----<br>---------- -- -- -- ---- ----- -- ------ -- --- ------<br>-------,442554.7000000477,442553.39999997616,442167.088,442170.2000000477,442183.754,442567.072,,32,of
screen,html.Screen,2_3_1_0_1_33,2022-02-15T12:35:04.207Z,,,,,,,,,,,,,,,,,48,,,,,,,,,,,,,,406.5280000238563,,response,,,,10,D,,,,,,Space,keypress(Space),,,,silence,,,,-- -- --- ------ ------- --------- ----------- --------<br>--------- -------- --- ------- -- ------- ---- -- ------<br>-- --- -------- -------- ---------- ---- ---- ---- ------<br>-- --------- -- ---- -- --- -- the ------- -- - -----<br>---------- -- -- -- ---- ----- -- ------ -- --- ------<br>-------,442974.89999997616,442973.60000002384,442550.406,442555,442567.072,442983.722,,33,the
screen,html.Screen,2_3_1_0_1_34,2022-02-15T12:35:04.650Z,,,,,,,,,,,,,,,,,48,,,,,,,,,,,,,,432.27799999999115,,response,,,,10,D,,,,,,Space,keypress(Space),,,,silence,,,,-- -- --- ------ ------- --------- ----------- --------<br>--------- -------- --- ------- -- ------- ---- -- ------<br>-- --- -------- -------- ---------- ---- ---- ---- ------<br>-- --------- -- ---- -- --- -- --- country -- - -----<br>---------- -- -- -- ---- ----- -- ------ -- --- ------<br>-------,443417.5,443416,442967.056,442975.3000000715,442983.722,443433.704,,34,country
screen,html.Screen,2_3_1_0_1_35,2022-02-15T12:35:05.003Z,,,,,,,,,,,,,,,,,48,,,,,,,,,,,,,,333.9960000476567,,response,,,,10,D,,,,,,Space,keypress(Space),,,,silence,,,,-- -- --- ------ ------- --------- ----------- --------<br>--------- -------- --- ------- -- ------- ---- -- ------<br>-- --- -------- -------- ---------- ---- ---- ---- ------<br>-- --------- -- ---- -- --- -- --- ------- is - -----<br>---------- -- -- -- ---- ----- -- ------ -- --- ------<br>-------,443770.3000000715,443767.7000000477,443417.038,443417.8000000715,443433.704,443783.69,,35,is
screen,html.Screen,2_3_1_0_1_36,2022-02-15T12:35:05.357Z,,,,,,,,,,,,,,,,,48,,,,,,,,,,,,,,339.41000002383953,,response,,,,10,D,,,,,,Space,keypress(Space),,,,silence,,,,-- -- --- ------ ------- --------- ----------- --------<br>--------- -------- --- ------- -- ------- ---- -- ------<br>-- --- -------- -------- ---------- ---- ---- ---- ------<br>-- --------- -- ---- -- --- -- --- ------- -- a -----<br>---------- -- -- -- ---- ----- -- ------ -- --- ------<br>-------,444124.7000000477,444123.10000002384,443767.024,443770.60000002384,443783.69,444133.676,,36,a
screen,html.Screen,2_3_1_0_1_37,2022-02-15T12:35:05.798Z,,,,,,,,,,,,,,,,,48,,,,,,,,,,,,,,430.4240000238642,,response,,,,10,D,,,,,,Space,keypress(Space),,,,silence,,,,-- -- --- ------ ------- --------- ----------- --------<br>--------- -------- --- ------- -- ------- ---- -- ------<br>-- --- -------- -------- ---------- ---- ---- ---- ------<br>-- --------- -- ---- -- --- -- --- ------- -- - crime<br>---------- -- -- -- ---- ----- -- ------ -- --- ------<br>-------,444565.5,444564.10000002384,444117.01,444125,444133.676,444566.992,,37,crime
screen,html.Screen,2_3_1_0_1_38,2022-02-15T12:35:06.217Z,,,,,,,,,,,,,,,,,48,,,,,,,,,,,,,,416.0079999999725,,response,,,,10,D,,,,,,Space,keypress(Space),,,,silence,,,,-- -- --- ------ ------- --------- ----------- --------<br>--------- -------- --- ------- -- ------- ---- -- ------<br>-- --- -------- -------- ---------- ---- ---- ---- ------<br>-- --------- -- ---- -- --- -- --- ------- -- - -----<br>punishable -- -- -- ---- ----- -- ------ -- --- ------<br>-------,444984.5,444983,444550.326,444565.8000000715,444566.992,445000.308,,38,punishable
screen,html.Screen,2_3_1_0_1_39,2022-02-15T12:35:06.578Z,,,,,,,,,,,,,,,,,48,,,,,,,,,,,,,,343.59199997613905,,response,,,,10,D,,,,,,Space,keypress(Space),,,,silence,,,,-- -- --- ------ ------- --------- ----------- --------<br>--------- -------- --- ------- -- ------- ---- -- ------<br>-- --- -------- -------- ---------- ---- ---- ---- ------<br>-- --------- -- ---- -- --- -- --- ------- -- - -----<br>---------- by -- -- ---- ----- -- ------ -- --- ------<br>-------,445345.2000000477,445343.89999997616,444983.642,444984.8000000715,445000.308,445366.96,,39,by
screen,html.Screen,2_3_1_0_1_40,2022-02-15T12:35:06.971Z,,,,,,,,,,,,,,,,,48,,,,,,,,,,,,,,370.74000004766276,,response,,,,10,D,,,,,,Space,keypress(Space),,,,silence,,,,-- -- --- ------ ------- --------- ----------- --------<br>--------- -------- --- ------- -- ------- ---- -- ------<br>-- --- -------- -------- ---------- ---- ---- ---- ------<br>-- --------- -- ---- -- --- -- --- ------- -- - -----<br>---------- -- up -- ---- ----- -- ------ -- --- ------<br>-------,445739,445737.7000000477,445350.294,445345.5,445366.96,445750.278,,40,up
screen,html.Screen,2_3_1_0_1_41,2022-02-15T12:35:07.296Z,,,,,,,,,,,,,,,,,48,,,,,,,,,,,,,,311.92200004769256,,response,,,,10,D,,,,,,Space,keypress(Space),,,,silence,,,,-- -- --- ------ ------- --------- ----------- --------<br>--------- -------- --- ------- -- ------- ---- -- ------<br>-- --- -------- -------- ---------- ---- ---- ---- ------<br>-- --------- -- ---- -- --- -- --- ------- -- - -----<br>---------- -- -- to ---- ----- -- ------ -- --- ------<br>-------,446063.8000000715,446062.2000000477,445733.612,445739.3000000715,445750.278,446066.932,,41,to
screen,html.Screen,2_3_1_0_1_42,2022-02-15T12:35:07.697Z,,,,,,,,,,,,,,,,,48,,,,,,,,,,,,,,395.868000071554,,response,,,,10,D,,,,,,Space,keypress(Space),,,,silence,,,,-- -- --- ------ ------- --------- ----------- --------<br>--------- -------- --- ------- -- ------- ---- -- ------<br>-- --- -------- -------- ---------- ---- ---- ---- ------<br>-- --------- -- ---- -- --- -- --- ------- -- - -----<br>---------- -- -- -- five ----- -- ------ -- --- ------<br>-------,446464.10000002384,446462.8000000715,446050.266,446064.10000002384,446066.932,446483.582,,42,five
