sender,sender_type,sender_id,timestamp,meta,,Blues,Classical,Country,Dance,Electronic,Folk,Gospel,Hip-Hop,Jazz,Latin,Musical/Film,New-age,Pop,Prolific_id,Provo_ID,R&B,Rap,Reggae,Religious,Rock,Soul,Swing,Traditional,age,artist_name,correct,correctResponse,distraction,duration,education,ended_on,familiarity,gender,headphone_check_performance,item,list,music_frequency,offensiveness,pleasantness,position_correct,preference,response,response_action,snippet_file,song_name,song_rating,sound,stimulus_1,stimulus_2,stimulus_3,text,time_commit,time_end,time_render,time_run,time_show,time_switch,url,word,word_ID
Prolific ID,html.Form,0,2022-02-03T13:04:13.810Z,"{""labjs_version"":""20.2.2"",""labjs_build"":{""flavor"":""production"",""commit"":""a25486e0c714a0ae2ce03ff94b7bb6896854dcfa""},""location"":""https://run.pavlovia.org/mvasilev/prolific2_music_f/"",""userAgent"":""Mozilla/5.0 (Windows NT 10.0; Win64; x64) AppleWebKit/537.36 (KHTML, like Gecko) Chrome/97.0.4692.99 Safari/537.36"",""platform"":""Win32"",""language"":""en-US"",""locale"":""en-US"",""timeZone"":""Europe/London"",""timezoneOffset"":0,""screen_width"":1536,""screen_height"":864,""scroll_width"":1536,""scroll_height"":674,""window_innerWidth"":1536,""window_innerHeight"":722,""devicePixelRatio"":1.25}",,,,,,,,,,,,,,,5ef1bf65b681b07df6e7ef80,,,,,,,,,,,,,,,54811.16299997616,,form submission,,,,,,,,,,,,,,,,,,,,,72235.10000002384,72233.89999997616,17389.437,17399.700000047684,17422.737,72258.24,{},,
Introduction,html.Screen,1_0,2022-02-03T13:04:18.122Z,,,,,,,,,,,,,,,,,,,,,,,,,,,,,,,4283.06000007152,,response,,,,,,,,,,,continue,click button,,,,,,,,,76546.89999997616,76541.30000007153,72225.313,72235.89999997616,72258.24,76554.487,,,
Volume calibration,html.Screen,1_1,2022-02-03T13:04:42.145Z,,,,,,,,,,,,,,,,,,,,,,,,,,,,,,,24007.412999976164,,response,,,,,,,,,,,continue,click button,,,,,,,,,100570.20000004768,100561.89999997616,76538.215,76547.20000004768,76554.487,100566.911,,,
Task instructions,html.Screen,1_2,2022-02-03T13:04:52.331Z,,,,,,,,,,,,,,,,,,,,,,,,,,,,,,,10188.089000000007,,response,,,,,,,,,,,continue,click button,,,,,,,,,110756.39999997616,110755,100550.588,100570.5,100566.911,110757.954,,,
Sounds,html.Screen,1_3_0_0,2022-02-03T13:04:56.568Z,,,,,,,,,,,,,,,,,,,,,,,,,,,,,,,4246.252999999997,,timeout,,,,,,,,,2,,,,,,,,I,S,O,,114992.80000007153,114987.64,110741.306,110756.80000007153,110757.954,115004.207,,,
Judgement,html.Screen,1_3_0_1,2022-02-03T13:04:58.694Z,,,,,,,,,,,,,,,,,,,,,,,,,,,,true,2,,2113.5930000715307,,response,,,,,,,,,2,,2,click #choice-2,,,,,I,S,O,,117119.60000002384,117117.80000007153,114987.64,114993.10000002384,115004.207,117119.045,,,
Trial,flow.Sequence,1_3_0,2022-02-03T13:04:58.695Z,,,,,,,,,,,,,,,,,,,,,,,,,,,,,,,6359.846000071528,,completion,,,,,,,,,2,,,,,,,,I,S,O,,117120.30000007153,117117.80000007153,110741.306,110756.70000004768,110757.954,117119.045,,,
Sounds,html.Screen,1_3_1_0,2022-02-03T13:05:02.925Z,,,,,,,,,,,,,,,,,,,,,,,,,,,,,,,4246.569000000003,,timeout,,,,,,,,,3,,,,,,,,I,O,S,,121350.20000004768,121348.975,117102.802,117120.70000004768,117119.045,121365.614,,,
Judgement,html.Screen,1_3_1_1,2022-02-03T13:05:04.004Z,,,,,,,,,,,,,,,,,,,,,,,,,,,,true,3,,1061.7859999761567,,response,,,,,,,,,3,,3,click #choice-3,,,,,I,O,S,,122429.5,122427.39999997616,121348.975,121350.39999997616,121365.614,122431.125,,,
Trial,flow.Sequence,1_3_1,2022-02-03T13:05:04.005Z,,,,,,,,,,,,,,,,,,,,,,,,,,,,,,,5308.35499997616,,completion,,,,,,,,,3,,,,,,,,I,O,S,,122430.39999997616,122427.39999997616,117102.802,117120.5,117119.045,122431.125,,,
Sounds,html.Screen,1_3_2_0,2022-02-03T13:05:08.237Z,,,,,,,,,,,,,,,,,,,,,,,,,,,,,,,4246.285999999993,,timeout,,,,,,,,,1,,,,,,,,S,O,I,,126662.5,126661.098,122414.809,122430.80000007153,122431.125,126677.411,,,
Judgement,html.Screen,1_3_2_1,2022-02-03T13:05:09.334Z,,,,,,,,,,,,,,,,,,,,,,,,,,,,true,1,,1080.3890000715328,,response,,,,,,,,,1,,1,click #choice-1,,,,,S,O,I,,127759.30000007153,127757.80000007153,126661.098,126662.80000007153,126677.411,127759.837,,,
Trial,flow.Sequence,1_3_2,2022-02-03T13:05:09.335Z,,,,,,,,,,,,,,,,,,,,,,,,,,,,,,,5326.675000071526,,completion,,,,,,,,,1,,,,,,,,S,O,I,,127759.89999997616,127757.80000007153,122414.809,122430.60000002384,122431.125,127759.837,,,
Sounds,html.Screen,1_3_3_0,2022-02-03T13:05:13.565Z,,,,,,,,,,,,,,,,,,,,,,,,,,,,,,,4246.255999999994,,timeout,,,,,,,,,3,,,,,,,,O,I,S,,131990.80000007153,131989.418,127743.513,127760.30000007153,127759.837,132006.093,,,
Judgement,html.Screen,1_3_3_1,2022-02-03T13:05:14.584Z,,,,,,,,,,,,,,,,,,,,,,,,,,,,true,3,,1001.1070000476902,,response,,,,,,,,,3,,3,click #choice-3,,,,,O,I,S,,133009.5,133007.20000004768,131989.418,131991,132006.093,133021.859,,,
Trial,flow.Sequence,1_3_3,2022-02-03T13:05:14.585Z,,,,,,,,,,,,,,,,,,,,,,,,,,,,,,,5247.363000047684,,completion,,,,,,,,,3,,,,,,,,O,I,S,,133009.89999997616,133007.20000004768,127743.513,127760.30000007153,127759.837,133021.859,,,
Sounds,html.Screen,1_3_4_0,2022-02-03T13:05:18.828Z,,,,,,,,,,,,,,,,,,,,,,,,,,,,,,,4246.507000000012,,timeout,,,,,,,,,1,,,,,,,,S,I,O,,137253.10000002384,137251.533,133005.531,133010.30000007153,133021.859,137268.366,,,
Judgement,html.Screen,1_3_4_1,2022-02-03T13:05:19.543Z,,,,,,,,,,,,,,,,,,,,,,,,,,,,true,1,,698.7340000238328,,response,,,,,,,,,1,,1,click #choice-1,,,,,S,I,O,,137968.80000007153,137967.10000002384,137251.533,137253.30000007153,137268.366,137984.449,,,
Trial,flow.Sequence,1_3_4,2022-02-03T13:05:19.544Z,,,,,,,,,,,,,,,,,,,,,,,,,,,,,,,4945.241000023845,,completion,,,,,,,,,1,,,,,,,,S,I,O,,137969.10000002384,137967.10000002384,133005.531,133010.10000002384,133021.859,137984.449,,,
Sounds,html.Screen,1_3_5_0,2022-02-03T13:05:23.790Z,,,,,,,,,,,,,,,,,,,,,,,,,,,,,,,4246.019,,timeout,,,,,,,,,2,,,,,,,,O,S,I,,142215.10000002384,142213.812,137967.52,137969.39999997616,137984.449,142230.468,,,
Judgement,html.Screen,1_3_5_1,2022-02-03T13:05:24.454Z,,,,,,,,,,,,,,,,,,,,,,,,,,,,true,2,,647.1320000238484,,response,,,,,,,,,2,,2,click #choice-2,,,,,O,S,I,,142879,142877.60000002384,142213.812,142217.60000002384,142230.468,142896.604,,,
Trial,flow.Sequence,1_3_5,2022-02-03T13:05:24.454Z,,,,,,,,,,,,,,,,,,,,,,,,,,,,,,,4893.151000023849,,completion,,,,,,,,,2,,,,,,,,O,S,I,,142879.39999997616,142877.60000002384,137967.52,137969.39999997616,137984.449,142896.604,,,
Task,flow.Loop,1_3,2022-02-03T13:05:24.464Z,,,,,,,,,,,,,,,,,,,,,,,,,,,,,,,32119.646000023844,,completion,,,1,,,,,,,,,,,,,,,,,,142889.30000007153,142877.60000002384,110741.306,110756.70000004768,110757.954,142896.604,,,
Trap,html.Screen,1_4,2022-02-03T13:05:24.466Z,,,,,,,,,,,,,,,,,,,,,,,,,,,,,,,NaN,,skipped,,,,,,,,,,,,,,,,,,,,,142891.70000004768,142877.60000002384,,142891.5,,142896.604,,,
Thanks,html.Screen,1_5,2022-02-03T13:05:48.803Z,,,,,,,,,,,,,,,,,,,,,,,,,,,,,,,24330.49600002385,,response,,,,,,,,,,,continue,click button,,,,,,,,,167228.70000004768,167227.10000002384,142863.582,142892,142896.604,172387.394,,,
Headphone screening,flow.Sequence,1,2022-02-03T13:05:48.804Z,,,,,,,,,,,,,,,,,,,,,,,,,,,,,,,94968.86000002384,,completion,,,,,,,,,,,,,,,,,,,,,167229.10000002384,167227.10000002384,72225.313,72235.80000007153,72258.24,172387.394,,,
Instructions,html.Page,2_0,2022-02-03T13:06:14.528Z,,,,,,,,,,,,,,,,,,,,,,,,,,,,,,,20565.806000047683,,form submission,,,,,,,,,,,,,,,,,,,,,192954,192953.20000004768,172370.816,172375.89999997616,172387.394,192952.88,,,
Holding screen,html.Screen,2_1_0_0,2022-02-03T13:06:24.521Z,,,,,,,,,,,,,,,,,,,,,,,,,,,,,,,10024.590999999986,,timeout,,,,,,,,,,,,,,,,,,,,,202946.60000002384,202944.158,192936.551,192954.5,192952.88,202977.471,,,
screen,html.Screen,2_1_0_1_0,2022-02-03T13:06:25.561Z,,,,,,,,,,,,,,,,,53,,,,,,,,,,,,,,1004.0290000000095,,response,,,,99,,,,,,,Space,keypress(Space),,,,,,,,When -- ----- -- ------ - ------- --- ----------<br>------------- ------ ------ ---- ---- ------- ----- -- ----<br>-------- ------- -- ---------- --- - --- ----- ----- ----<br>---- --- --- ----- --- ---- ---- ------- ----- ---- -------<br>--- --- -- ----- -- --- ---- -- --- ---- -- ------ ------<br>--- ----- -- ----,203986.5,203981.5,202944.158,202946.89999997616,202977.471,204010.177,,0,When
screen,html.Screen,2_1_0_1_1,2022-02-03T13:06:26.231Z,,,,,,,,,,,,,,,,,53,,,,,,,,,,,,,,645.323000000004,,response,,,,99,,,,,,,Space,keypress(Space),,,,,,,,---- it ----- -- ------ - ------- --- ----------<br>------------- ------ ------ ---- ---- ------- ----- -- ----<br>-------- ------- -- ---------- --- - --- ----- ----- ----<br>---- --- --- ----- --- ---- ---- ------- ----- ---- -------<br>--- --- -- ----- -- --- ---- -- --- ---- -- ------ ------<br>--- ----- -- ----,204656.39999997616,204655.5,203993.603,203986.80000007153,204010.177,204659.28,,1,it
screen,html.Screen,2_1_0_1_2,2022-02-03T13:06:26.864Z,,,,,,,,,,,,,,,,,53,,,,,,,,,,,,,,628.9200000476849,,response,,,,99,,,,,,,Space,keypress(Space),,,,,,,,---- -- comes -- ------ - ------- --- ----------<br>------------- ------ ------ ---- ---- ------- ----- -- ----<br>-------- ------- -- ---------- --- - --- ----- ----- ----<br>---- --- --- ----- --- ---- ---- ------- ----- ---- -------<br>--- --- -- ----- -- --- ---- -- --- ---- -- ------ ------<br>--- ----- -- ----,205289.39999997616,205288.20000004768,204643.028,204656.60000002384,204659.28,205292.15,,2,comes
screen,html.Screen,2_1_0_1_3,2022-02-03T13:06:27.383Z,,,,,,,,,,,,,,,,,53,,,,,,,,,,,,,,515.0500000476895,,response,,,,99,,,,,,,Space,keypress(Space),,,,,,,,---- -- ----- to ------ - ------- --- ----------<br>------------- ------ ------ ---- ---- ------- ----- -- ----<br>-------- ------- -- ---------- --- - --- ----- ----- ----<br>---- --- --- ----- --- ---- ---- ------- ----- ---- -------<br>--- --- -- ----- -- --- ---- -- --- ---- -- ------ ------<br>--- ----- -- ----,205808.30000007153,205807.20000004768,205275.754,205289.70000004768,205292.15,205825.294,,3,to
screen,html.Screen,2_1_0_1_4,2022-02-03T13:06:28.034Z,,,,,,,,,,,,,,,,,53,,,,,,,,,,,,,,633.2060000000056,,response,,,,99,,,,,,,Space,keypress(Space),,,,,,,,---- -- ----- -- having - ------- --- ----------<br>------------- ------ ------ ---- ---- ------- ----- -- ----<br>-------- ------- -- ---------- --- - --- ----- ----- ----<br>---- --- --- ----- --- ---- ---- ------- ----- ---- -------<br>--- --- -- ----- -- --- ---- -- --- ---- -- ------ ------<br>--- ----- -- ----,206459.60000002384,206458.5,205808.296,205808.5,205825.294,206474.712,,4,having
screen,html.Screen,2_1_0_1_5,2022-02-03T13:06:28.557Z,,,,,,,,,,,,,,,,,53,,,,,,,,,,,,,,506.28800000000047,,response,,,,99,,,,,,,Space,keypress(Space),,,,,,,,---- -- ----- -- ------ a ------- --- ----------<br>------------- ------ ------ ---- ---- ------- ----- -- ----<br>-------- ------- -- ---------- --- - --- ----- ----- ----<br>---- --- --- ----- --- ---- ---- ------- ----- ---- -------<br>--- --- -- ----- -- --- ---- -- --- ---- -- ------ ------<br>--- ----- -- ----,206982.20000004768,206981,206457.801,206459.89999997616,206474.712,206990.609,,5,a
screen,html.Screen,2_1_0_1_6,2022-02-03T13:06:29.155Z,,,,,,,,,,,,,,,,,53,,,,,,,,,,,,,,589.1910000715288,,response,,,,99,,,,,,,Space,keypress(Space),,,,,,,,---- -- ----- -- ------ - lasting --- ----------<br>------------- ------ ------ ---- ---- ------- ----- -- ----<br>-------- ------- -- ---------- --- - --- ----- ----- ----<br>---- --- --- ----- --- ---- ---- ------- ----- ---- -------<br>--- --- -- ----- -- --- ---- -- --- ---- -- ------ ------<br>--- ----- -- ----,207580.70000004768,207579.80000007153,206974.04,206982.39999997616,206990.609,207590.358,,6,lasting
screen,html.Screen,2_1_0_1_7,2022-02-03T13:06:29.675Z,,,,,,,,,,,,,,,,,53,,,,,,,,,,,,,,509.2420000238344,,response,,,,99,,,,,,,Space,keypress(Space),,,,,,,,---- -- ----- -- ------ - ------- and ----------<br>------------- ------ ------ ---- ---- ------- ----- -- ----<br>-------- ------- -- ---------- --- - --- ----- ----- ----<br>---- --- --- ----- --- ---- ---- ------- ----- ---- -------<br>--- --- -- ----- -- --- ---- -- --- ---- -- ------ ------<br>--- ----- -- ----,208100.60000002384,208099.60000002384,207573.508,207580.89999997616,207590.358,208106.339,,7,and
screen,html.Screen,2_1_0_1_8,2022-02-03T13:06:30.170Z,,,,,,,,,,,,,,,,,53,,,,,,,,,,,,,,488.26100002383464,,response,,,,99,,,,,,,Space,keypress(Space),,,,,,,,---- -- ----- -- ------ - ------- --- fulfilling<br>------------- ------ ------ ---- ---- ------- ----- -- ----<br>-------- ------- -- ---------- --- - --- ----- ----- ----<br>---- --- --- ----- --- ---- ---- ------- ----- ---- -------<br>--- --- -- ----- -- --- ---- -- --- ---- -- ------ ------<br>--- ----- -- ----,208595.5,208594.60000002384,208089.718,208100.80000007153,208106.339,208606.137,,8,fulfilling
screen,html.Screen,2_1_0_1_9,2022-02-03T13:06:30.655Z,,,,,,,,,,,,,,,,,53,,,,,,,,,,,,,,473.0630000476958,,response,,,,99,,,,,,,Space,keypress(Space),,,,,,,,"---- -- ----- -- ------ - ------- --- ----------<br>relationship, ------ ------ ---- ---- ------- ----- -- ----<br>-------- ------- -- ---------- --- - --- ----- ----- ----<br>---- --- --- ----- --- ---- ---- ------- ----- ---- -------<br>--- --- -- ----- -- --- ---- -- --- ---- -- ------ ------<br>--- ----- -- ----",209080.30000007153,209079.20000004768,208589.591,208595.80000007153,208606.137,209088.793,,9,"relationship,"
screen,html.Screen,2_1_0_1_10,2022-02-03T13:06:31.111Z,,,,,,,,,,,,,,,,,53,,,,,,,,,,,,,,446.50700007152045,,response,,,,99,,,,,,,Space,keypress(Space),,,,,,,,---- -- ----- -- ------ - ------- --- ----------<br>------------- common ------ ---- ---- ------- ----- -- ----<br>-------- ------- -- ---------- --- - --- ----- ----- ----<br>---- --- --- ----- --- ---- ---- ------- ----- ---- -------<br>--- --- -- ----- -- --- ---- -- --- ---- -- ------ ------<br>--- ----- -- ----,209536.5,209535.30000007153,209072.133,209080.60000002384,209088.793,209538.425,,10,common
screen,html.Screen,2_1_0_1_11,2022-02-03T13:06:31.523Z,,,,,,,,,,,,,,,,,53,,,,,,,,,,,,,,409.1750000238535,,response,,,,99,,,,,,,Space,keypress(Space),,,,,,,,---- -- ----- -- ------ - ------- --- ----------<br>------------- ------ wisdom ---- ---- ------- ----- -- ----<br>-------- ------- -- ---------- --- - --- ----- ----- ----<br>---- --- --- ----- --- ---- ---- ------- ----- ---- -------<br>--- --- -- ----- -- --- ---- -- --- ---- -- ------ ------<br>--- ----- -- ----,209948.5,209947.60000002384,209522.112,209536.80000007153,209538.425,209954.685,,11,wisdom
screen,html.Screen,2_1_0_1_12,2022-02-03T13:06:31.950Z,,,,,,,,,,,,,,,,,53,,,,,,,,,,,,,,419.8150000000023,,response,,,,99,,,,,,,Space,keypress(Space),,,,,,,,---- -- ----- -- ------ - ------- --- ----------<br>------------- ------ ------ says ---- ------- ----- -- ----<br>-------- ------- -- ---------- --- - --- ----- ----- ----<br>---- --- --- ----- --- ---- ---- ------- ----- ---- -------<br>--- --- -- ----- -- --- ---- -- --- ---- -- ------ ------<br>--- ----- -- ----,210375.70000004768,210374.5,209938.361,209948.70000004768,209954.685,210388.016,,12,says
screen,html.Screen,2_1_0_1_13,2022-02-03T13:06:32.328Z,,,,,,,,,,,,,,,,,53,,,,,,,,,,,,,,364.8839999761549,,response,,,,99,,,,,,,Space,keypress(Space),,,,,,,,---- -- ----- -- ------ - ------- --- ----------<br>------------- ------ ------ ---- that ------- ----- -- ----<br>-------- ------- -- ---------- --- - --- ----- ----- ----<br>---- --- --- ----- --- ---- ---- ------- ----- ---- -------<br>--- --- -- ----- -- --- ---- -- --- ---- -- ------ ------<br>--- ----- -- ----,210753.80000007153,210752.89999997616,210371.302,210375.89999997616,210388.016,210771.044,,13,that
screen,html.Screen,2_1_0_1_14,2022-02-03T13:06:32.802Z,,,,,,,,,,,,,,,,,53,,,,,,,,,,,,,,455.55600002384745,,response,,,,99,,,,,,,Space,keypress(Space),,,,,,,,---- -- ----- -- ------ - ------- --- ----------<br>------------- ------ ------ ---- ---- feeling ----- -- ----<br>-------- ------- -- ---------- --- - --- ----- ----- ----<br>---- --- --- ----- --- ---- ---- ------- ----- ---- -------<br>--- --- -- ----- -- --- ---- -- --- ---- -- ------ ------<br>--- ----- -- ----,211227.5,211226.60000002384,210753.961,210754.10000002384,210771.044,211237.184,,14,feeling
screen,html.Screen,2_1_0_1_15,2022-02-03T13:06:33.192Z,,,,,,,,,,,,,,,,,53,,,,,,,,,,,,,,379.3159999999916,,response,,,,99,,,,,,,Space,keypress(Space),,,,,,,,---- -- ----- -- ------ - ------- --- ----------<br>------------- ------ ------ ---- ---- ------- close -- ----<br>-------- ------- -- ---------- --- - --- ----- ----- ----<br>---- --- --- ----- --- ---- ---- ------- ----- ---- -------<br>--- --- -- ----- -- --- ---- -- --- ---- -- ------ ------<br>--- ----- -- ----,211617.5,211616.5,211220.573,211227.80000007153,211237.184,211619.971,,15,close
screen,html.Screen,2_1_0_1_16,2022-02-03T13:06:33.661Z,,,,,,,,,,,,,,,,,53,,,,,,,,,,,,,,465.9289999761677,,response,,,,99,,,,,,,Space,keypress(Space),,,,,,,,---- -- ----- -- ------ - ------- --- ----------<br>------------- ------ ------ ---- ---- ------- ----- to ----<br>-------- ------- -- ---------- --- - --- ----- ----- ----<br>---- --- --- ----- --- ---- ---- ------- ----- ---- -------<br>--- --- -- ----- -- --- ---- -- --- ---- -- ------ ------<br>--- ----- -- ----,212086.80000007153,212085.89999997616,211603.541,211617.80000007153,211619.971,212103.139,,16,to
screen,html.Screen,2_1_0_1_17,2022-02-03T13:06:34.031Z,,,,,,,,,,,,,,,,,53,,,,,,,,,,,,,,352.8610000000044,,response,,,,99,,,,,,,Space,keypress(Space),,,,,,,,---- -- ----- -- ------ - ------- --- ----------<br>------------- ------ ------ ---- ---- ------- ----- -- your<br>-------- ------- -- ---------- --- - --- ----- ----- ----<br>---- --- --- ----- --- ---- ---- ------- ----- ---- -------<br>--- --- -- ----- -- --- ---- -- --- ---- -- ------ ------<br>--- ----- -- ----,212457,212456,212086.15,212087.10000002384,212103.139,212469.525,,17,your
screen,html.Screen,2_1_0_1_18,2022-02-03T13:06:34.443Z,,,,,,,,,,,,,,,,,53,,,,,,,,,,,,,,398.4750000000058,,response,,,,99,,,,,,,Space,keypress(Space),,,,,,,,---- -- ----- -- ------ - ------- --- ----------<br>------------- ------ ------ ---- ---- ------- ----- -- ----<br>romantic ------- -- ---------- --- - --- ----- ----- ----<br>---- --- --- ----- --- ---- ---- ------- ----- ---- -------<br>--- --- -- ----- -- --- ---- -- --- ---- -- ------ ------<br>--- ----- -- ----,212869,212868,212452.802,212457.20000004768,212469.525,212885.833,,18,romantic
screen,html.Screen,2_1_0_1_19,2022-02-03T13:06:34.839Z,,,,,,,,,,,,,,,,,53,,,,,,,,,,,,,,377.4670000715123,,response,,,,99,,,,,,,Space,keypress(Space),,,,,,,,---- -- ----- -- ------ - ------- --- ----------<br>------------- ------ ------ ---- ---- ------- ----- -- ----<br>-------- partner -- ---------- --- - --- ----- ----- ----<br>---- --- --- ----- --- ---- ---- ------- ----- ---- -------<br>--- --- -- ----- -- --- ---- -- --- ---- -- ------ ------<br>--- ----- -- ----,213264.30000007153,213263.30000007153,212868.777,212869.30000007153,212885.833,213268.548,,19,partner
screen,html.Screen,2_1_0_1_20,2022-02-03T13:06:35.181Z,,,,,,,,,,,,,,,,,53,,,,,,,,,,,,,,336.7520000715158,,response,,,,99,,,,,,,Space,keypress(Space),,,,,,,,---- -- ----- -- ------ - ------- --- ----------<br>------------- ------ ------ ---- ---- ------- ----- -- ----<br>-------- ------- is ---------- --- - --- ----- ----- ----<br>---- --- --- ----- --- ---- ---- ------- ----- ---- -------<br>--- --- -- ----- -- --- ---- -- --- ---- -- ------ ------<br>--- ----- -- ----,213606.20000004768,213605.30000007153,213252.125,213264.60000002384,213268.548,213618.437,,20,is
screen,html.Screen,2_1_0_1_21,2022-02-03T13:06:35.576Z,,,,,,,,,,,,,,,,,53,,,,,,,,,,,,,,382.3630000715202,,response,,,,99,,,,,,,Space,keypress(Space),,,,,,,,---- -- ----- -- ------ - ------- --- ----------<br>------------- ------ ------ ---- ---- ------- ----- -- ----<br>-------- ------- -- paramount. --- - --- ----- ----- ----<br>---- --- --- ----- --- ---- ---- ------- ----- ---- -------<br>--- --- -- ----- -- --- ---- -- --- ---- -- ------ ------<br>--- ----- -- ----,214001.89999997616,214000.80000007153,213601.522,213606.5,213618.437,214018.123,,21,paramount.
screen,html.Screen,2_1_0_1_22,2022-02-03T13:06:35.981Z,,,,,,,,,,,,,,,,,53,,,,,,,,,,,,,,387.17700007153326,,response,,,,99,,,,,,,Space,keypress(Space),,,,,,,,---- -- ----- -- ------ - ------- --- ----------<br>------------- ------ ------ ---- ---- ------- ----- -- ----<br>-------- ------- -- ---------- But - --- ----- ----- ----<br>---- --- --- ----- --- ---- ---- ------- ----- ---- -------<br>--- --- -- ----- -- --- ---- -- --- ---- -- ------ ------<br>--- ----- -- ----,214406.20000004768,214405.30000007153,214001.202,214002.30000007153,214018.123,214417.818,,22,But
screen,html.Screen,2_1_0_1_23,2022-02-03T13:06:36.411Z,,,,,,,,,,,,,,,,,53,,,,,,,,,,,,,,417.3820000476844,,response,,,,99,,,,,,,Space,keypress(Space),,,,,,,,---- -- ----- -- ------ - ------- --- ----------<br>------------- ------ ------ ---- ---- ------- ----- -- ----<br>-------- ------- -- ---------- --- a --- ----- ----- ----<br>---- --- --- ----- --- ---- ---- ------- ----- ---- -------<br>--- --- -- ----- -- --- ---- -- --- ---- -- ------ ------<br>--- ----- -- ----,214836.10000002384,214835.20000004768,214401.178,214406.39999997616,214417.818,214850.74,,23,a
screen,html.Screen,2_1_0_1_24,2022-02-03T13:06:36.903Z,,,,,,,,,,,,,,,,,53,,,,,,,,,,,,,,477.2600000000093,,response,,,,99,,,,,,,Space,keypress(Space),,,,,,,,---- -- ----- -- ------ - ------- --- ----------<br>------------- ------ ------ ---- ---- ------- ----- -- ----<br>-------- ------- -- ---------- --- - new ----- ----- ----<br>---- --- --- ----- --- ---- ---- ------- ----- ---- -------<br>--- --- -- ----- -- --- ---- -- --- ---- -- ------ ------<br>--- ----- -- ----,215328.89999997616,215328,214834.173,214836.39999997616,214850.74,215333.332,,24,new
screen,html.Screen,2_1_0_1_25,2022-02-03T13:06:37.312Z,,,,,,,,,,,,,,,,,53,,,,,,,,,,,,,,402.9680000715307,,response,,,,99,,,,,,,Space,keypress(Space),,,,,,,,---- -- ----- -- ------ - ------- --- ----------<br>------------- ------ ------ ---- ---- ------- ----- -- ----<br>-------- ------- -- ---------- --- - --- study ----- ----<br>---- --- --- ----- --- ---- ---- ------- ----- ---- -------<br>--- --- -- ----- -- --- ---- -- --- ---- -- ------ ------<br>--- ----- -- ----,215737.20000004768,215736.30000007153,215316.7,215329.10000002384,215333.332,215749.938,,25,study
screen,html.Screen,2_1_0_1_26,2022-02-03T13:06:37.723Z,,,,,,,,,,,,,,,,,53,,,,,,,,,,,,,,397.36200007153093,,response,,,,99,,,,,,,Space,keypress(Space),,,,,,,,---- -- ----- -- ------ - ------- --- ----------<br>------------- ------ ------ ---- ---- ------- ----- -- ----<br>-------- ------- -- ---------- --- - --- ----- finds ----<br>---- --- --- ----- --- ---- ---- ------- ----- ---- -------<br>--- --- -- ----- -- --- ---- -- --- ---- -- ------ ------<br>--- ----- -- ----,216148.20000004768,216147.30000007153,215733.031,215737.39999997616,215749.938,216149.286,,26,finds
screen,html.Screen,2_1_0_1_27,2022-02-03T13:06:38.153Z,,,,,,,,,,,,,,,,,53,,,,,,,,,,,,,,427.7140000000072,,response,,,,99,,,,,,,Space,keypress(Space),,,,,,,,---- -- ----- -- ------ - ------- --- ----------<br>------------- ------ ------ ---- ---- ------- ----- -- ----<br>-------- ------- -- ---------- --- - --- ----- ----- that<br>---- --- --- ----- --- ---- ---- ------- ----- ---- -------<br>--- --- -- ----- -- --- ---- -- --- ---- -- ------ ------<br>--- ----- -- ----,216578.39999997616,216577,216133,216148.5,216149.286,216582.284,,27,that
screen,html.Screen,2_1_0_1_28,2022-02-03T13:06:38.559Z,,,,,,,,,,,,,,,,,53,,,,,,,,,,,,,,401.11599997614394,,response,,,,99,,,,,,,Space,keypress(Space),,,,,,,,---- -- ----- -- ------ - ------- --- ----------<br>------------- ------ ------ ---- ---- ------- ----- -- ----<br>-------- ------- -- ---------- --- - --- ----- ----- ----<br>it's --- --- ----- --- ---- ---- ------- ----- ---- -------<br>--- --- -- ----- -- --- ---- -- --- ---- -- ------ ------<br>--- ----- -- ----,216984.39999997616,216983.39999997616,216565.883,216578.70000004768,216582.284,216998.851,,28,it's
screen,html.Screen,2_1_0_1_29,2022-02-03T13:06:38.964Z,,,,,,,,,,,,,,,,,53,,,,,,,,,,,,,,389.44900007153046,,response,,,,99,,,,,,,Space,keypress(Space),,,,,,,,---- -- ----- -- ------ - ------- --- ----------<br>------------- ------ ------ ---- ---- ------- ----- -- ----<br>-------- ------- -- ---------- --- - --- ----- ----- ----<br>---- not --- ----- --- ---- ---- ------- ----- ---- -------<br>--- --- -- ----- -- --- ---- -- --- ---- -- ------ ------<br>--- ----- -- ----,217389.5,217388.30000007153,216982.188,216984.80000007153,216998.851,217398.256,,29,not
screen,html.Screen,2_1_0_1_30,2022-02-03T13:06:39.338Z,,,,,,,,,,,,,,,,,53,,,,,,,,,,,,,,364.44400004768977,,response,,,,99,,,,,,,Space,keypress(Space),,,,,,,,---- -- ----- -- ------ - ------- --- ----------<br>------------- ------ ------ ---- ---- ------- ----- -- ----<br>-------- ------- -- ---------- --- - --- ----- ----- ----<br>---- --- how ----- --- ---- ---- ------- ----- ---- -------<br>--- --- -- ----- -- --- ---- -- --- ---- -- ------ ------<br>--- ----- -- ----,217763.70000004768,217762.70000004768,217381.593,217389.70000004768,217398.256,217764.594,,30,how
screen,html.Screen,2_1_0_1_31,2022-02-03T13:06:39.867Z,,,,,,,,,,,,,,,,,53,,,,,,,,,,,,,,527.00600002383,,response,,,,99,,,,,,,Space,keypress(Space),,,,,,,,---- -- ----- -- ------ - ------- --- ----------<br>------------- ------ ------ ---- ---- ------- ----- -- ----<br>-------- ------- -- ---------- --- - --- ----- ----- ----<br>---- --- --- close --- ---- ---- ------- ----- ---- -------<br>--- --- -- ----- -- --- ---- -- --- ---- -- ------ ------<br>--- ----- -- ----,218292.5,218291.60000002384,217748.204,217764,217764.594,218297.407,,31,close
screen,html.Screen,2_1_0_1_32,2022-02-03T13:06:40.283Z,,,,,,,,,,,,,,,,,53,,,,,,,,,,,,,,409.89300007151905,,response,,,,99,,,,,,,Space,keypress(Space),,,,,,,,---- -- ----- -- ------ - ------- --- ----------<br>------------- ------ ------ ---- ---- ------- ----- -- ----<br>-------- ------- -- ---------- --- - --- ----- ----- ----<br>---- --- --- ----- you ---- ---- ------- ----- ---- -------<br>--- --- -- ----- -- --- ---- -- --- ---- -- ------ ------<br>--- ----- -- ----,218708.30000007153,218707.30000007153,218281.137,218292.70000004768,218297.407,218713.736,,32,you
screen,html.Screen,2_1_0_1_33,2022-02-03T13:06:40.721Z,,,,,,,,,,,,,,,,,53,,,,,,,,,,,,,,431.7639999999956,,response,,,,99,,,,,,,Space,keypress(Space),,,,,,,,---- -- ----- -- ------ - ------- --- ----------<br>------------- ------ ------ ---- ---- ------- ----- -- ----<br>-------- ------- -- ---------- --- - --- ----- ----- ----<br>---- --- --- ----- --- feel ---- ------- ----- ---- -------<br>--- --- -- ----- -- --- ---- -- --- ---- -- ------ ------<br>--- ----- -- ----,219146.80000007153,219145.5,218697.429,218708.70000004768,218713.736,219163.679,,33,feel
screen,html.Screen,2_1_0_1_34,2022-02-03T13:06:41.130Z,,,,,,,,,,,,,,,,,53,,,,,,,,,,,,,,391.3209999999963,,response,,,,99,,,,,,,Space,keypress(Space),,,,,,,,---- -- ----- -- ------ - ------- --- ----------<br>------------- ------ ------ ---- ---- ------- ----- -- ----<br>-------- ------- -- ---------- --- - --- ----- ----- ----<br>---- --- --- ----- --- ---- that ------- ----- ---- -------<br>--- --- -- ----- -- --- ---- -- --- ---- -- ------ ------<br>--- ----- -- ----,219555.89999997616,219555,219146.69,219146.89999997616,219163.679,219562.967,,34,that
screen,html.Screen,2_1_0_1_35,2022-02-03T13:06:41.667Z,,,,,,,,,,,,,,,,,53,,,,,,,,,,,,,,528.3330000715214,,response,,,,99,,,,,,,Space,keypress(Space),,,,,,,,---- -- ----- -- ------ - ------- --- ----------<br>------------- ------ ------ ---- ---- ------- ----- -- ----<br>-------- ------- -- ---------- --- - --- ----- ----- ----<br>---- --- --- ----- --- ---- ---- matters ----- ---- -------<br>--- --- -- ----- -- --- ---- -- --- ---- -- ------ ------<br>--- ----- -- ----,220092.30000007153,220091.30000007153,219546.597,219556.10000002384,219562.967,220095.84,,35,matters
screen,html.Screen,2_1_0_1_36,2022-02-03T13:06:42.110Z,,,,,,,,,,,,,,,,,53,,,,,,,,,,,,,,438.1600000000035,,response,,,,99,,,,,,,Space,keypress(Space),,,,,,,,"---- -- ----- -- ------ - ------- --- ----------<br>------------- ------ ------ ---- ---- ------- ----- -- ----<br>-------- ------- -- ---------- --- - --- ----- ----- ----<br>---- --- --- ----- --- ---- ---- ------- most, ---- -------<br>--- --- -- ----- -- --- ---- -- --- ---- -- ------ ------<br>--- ----- -- ----",220535.10000002384,220534,220079.47,220092.60000002384,220095.84,220545.438,,36,"most,"
screen,html.Screen,2_1_0_1_37,2022-02-03T13:06:42.527Z,,,,,,,,,,,,,,,,,53,,,,,,,,,,,,,,405.86200007153093,,response,,,,99,,,,,,,Space,keypress(Space),,,,,,,,---- -- ----- -- ------ - ------- --- ----------<br>------------- ------ ------ ---- ---- ------- ----- -- ----<br>-------- ------- -- ---------- --- - --- ----- ----- ----<br>---- --- --- ----- --- ---- ---- ------- ----- it's -------<br>--- --- -- ----- -- --- ---- -- --- ---- -- ------ ------<br>--- ----- -- ----,220952.10000002384,220951.30000007153,220528.935,220535.39999997616,220545.438,220962.041,,37,it's
screen,html.Screen,2_1_0_1_38,2022-02-03T13:06:42.959Z,,,,,,,,,,,,,,,,,53,,,,,,,,,,,,,,421.75900007152813,,response,,,,99,,,,,,,Space,keypress(Space),,,,,,,,---- -- ----- -- ------ - ------- --- ----------<br>------------- ------ ------ ---- ---- ------- ----- -- ----<br>-------- ------- -- ---------- --- - --- ----- ----- ----<br>---- --- --- ----- --- ---- ---- ------- ----- ---- whether<br>--- --- -- ----- -- --- ---- -- --- ---- -- ------ ------<br>--- ----- -- ----,221384.89999997616,221383.80000007153,220945.083,220952.39999997616,220962.041,221394.993,,38,whether
screen,html.Screen,2_1_0_1_39,2022-02-03T13:06:43.389Z,,,,,,,,,,,,,,,,,53,,,,,,,,,,,,,,418.20700004769606,,response,,,,99,,,,,,,Space,keypress(Space),,,,,,,,---- -- ----- -- ------ - ------- --- ----------<br>------------- ------ ------ ---- ---- ------- ----- -- ----<br>-------- ------- -- ---------- --- - --- ----- ----- ----<br>---- --- --- ----- --- ---- ---- ------- ----- ---- -------<br>you --- -- ----- -- --- ---- -- --- ---- -- ------ ------<br>--- ----- -- ----,221814.30000007153,221813.20000004768,221378.399,221385.10000002384,221394.993,221828.016,,39,you
screen,html.Screen,2_1_0_1_40,2022-02-03T13:06:43.826Z,,,,,,,,,,,,,,,,,53,,,,,,,,,,,,,,422.98399999999674,,response,,,,99,,,,,,,Space,keypress(Space),,,,,,,,---- -- ----- -- ------ - ------- --- ----------<br>------------- ------ ------ ---- ---- ------- ----- -- ----<br>-------- ------- -- ---------- --- - --- ----- ----- ----<br>---- --- --- ----- --- ---- ---- ------- ----- ---- -------<br>--- are -- ----- -- --- ---- -- --- ---- -- ------ ------<br>--- ----- -- ----,222251.70000004768,222251,221811.341,221814.5,221828.016,222260.822,,40,are
screen,html.Screen,2_1_0_1_41,2022-02-03T13:06:44.274Z,,,,,,,,,,,,,,,,,53,,,,,,,,,,,,,,437.67800000001444,,response,,,,99,,,,,,,Space,keypress(Space),,,,,,,,---- -- ----- -- ------ - ------- --- ----------<br>------------- ------ ------ ---- ---- ------- ----- -- ----<br>-------- ------- -- ---------- --- - --- ----- ----- ----<br>---- --- --- ----- --- ---- ---- ------- ----- ---- -------<br>--- --- as ----- -- --- ---- -- --- ---- -- ------ ------<br>--- ----- -- ----,222699.39999997616,222698.5,222244.285,222251.89999997616,222260.822,222710.518,,41,as
screen,html.Screen,2_1_0_1_42,2022-02-03T13:06:44.651Z,,,,,,,,,,,,,,,,,53,,,,,,,,,,,,,,364.8819999761472,,response,,,,99,,,,,,,Space,keypress(Space),,,,,,,,---- -- ----- -- ------ - ------- --- ----------<br>------------- ------ ------ ---- ---- ------- ----- -- ----<br>-------- ------- -- ---------- --- - --- ----- ----- ----<br>---- --- --- ----- --- ---- ---- ------- ----- ---- -------<br>--- --- -- close -- --- ---- -- --- ---- -- ------ ------<br>--- ----- -- ----,223076.39999997616,223075.39999997616,222693.93,222699.70000004768,222710.518,223093.28,,42,close
screen,html.Screen,2_1_0_1_43,2022-02-03T13:06:45.107Z,,,,,,,,,,,,,,,,,53,,,,,,,,,,,,,,438.320000023843,,response,,,,99,,,,,,,Space,keypress(Space),,,,,,,,---- -- ----- -- ------ - ------- --- ----------<br>------------- ------ ------ ---- ---- ------- ----- -- ----<br>-------- ------- -- ---------- --- - --- ----- ----- ----<br>---- --- --- ----- --- ---- ---- ------- ----- ---- -------<br>--- --- -- ----- as --- ---- -- --- ---- -- ------ ------<br>--- ----- -- ----,223532.70000004768,223531.60000002384,223076.573,223076.60000002384,223093.28,223543.167,,43,as
screen,html.Screen,2_1_0_1_44,2022-02-03T13:06:45.475Z,,,,,,,,,,,,,,,,,53,,,,,,,,,,,,,,356.033000047697,,response,,,,99,,,,,,,Space,keypress(Space),,,,,,,,---- -- ----- -- ------ - ------- --- ----------<br>------------- ------ ------ ---- ---- ------- ----- -- ----<br>-------- ------- -- ---------- --- - --- ----- ----- ----<br>---- --- --- ----- --- ---- ---- ------- ----- ---- -------<br>--- --- -- ----- -- you ---- -- --- ---- -- ------ ------<br>--- ----- -- ----,223900.20000004768,223899.20000004768,223526.576,223533,223543.167,223909.325,,44,you
screen,html.Screen,2_1_0_1_45,2022-02-03T13:06:45.894Z,,,,,,,,,,,,,,,,,53,,,,,,,,,,,,,,408.97500007151393,,response,,,,99,,,,,,,Space,keypress(Space),,,,,,,,---- -- ----- -- ------ - ------- --- ----------<br>------------- ------ ------ ---- ---- ------- ----- -- ----<br>-------- ------- -- ---------- --- - --- ----- ----- ----<br>---- --- --- ----- --- ---- ---- ------- ----- ---- -------<br>--- --- -- ----- -- --- want -- --- ---- -- ------ ------<br>--- ----- -- ----,224319.20000004768,224318.30000007153,223892.881,223900.30000007153,223909.325,224325.484,,45,want
screen,html.Screen,2_1_0_1_46,2022-02-03T13:06:46.292Z,,,,,,,,,,,,,,,,,53,,,,,,,,,,,,,,390.81600007152883,,response,,,,99,,,,,,,Space,keypress(Space),,,,,,,,---- -- ----- -- ------ - ------- --- ----------<br>------------- ------ ------ ---- ---- ------- ----- -- ----<br>-------- ------- -- ---------- --- - --- ----- ----- ----<br>---- --- --- ----- --- ---- ---- ------- ----- ---- -------<br>--- --- -- ----- -- --- ---- to --- ---- -- ------ ------<br>--- ----- -- ----,224717.30000007153,224716.30000007153,224309.163,224319.5,224325.484,224725.197,,46,to
screen,html.Screen,2_1_0_1_47,2022-02-03T13:06:46.923Z,,,,,,,,,,,,,,,,,53,,,,,,,,,,,,,,622.9030000238563,,response,,,,99,,,,,,,Space,keypress(Space),,,,,,,,"---- -- ----- -- ------ - ------- --- ----------<br>------------- ------ ------ ---- ---- ------- ----- -- ----<br>-------- ------- -- ---------- --- - --- ----- ----- ----<br>---- --- --- ----- --- ---- ---- ------- ----- ---- -------<br>--- --- -- ----- -- --- ---- -- be, ---- -- ------ ------<br>--- ----- -- ----",225349,225348.10000002384,224708.776,224717.60000002384,224725.197,225358.262,,47,"be,"
screen,html.Screen,2_1_0_1_48,2022-02-03T13:06:47.394Z,,,,,,,,,,,,,,,,,53,,,,,,,,,,,,,,460.4380000476958,,response,,,,99,,,,,,,Space,keypress(Space),,,,,,,,---- -- ----- -- ------ - ------- --- ----------<br>------------- ------ ------ ---- ---- ------- ----- -- ----<br>-------- ------- -- ---------- --- - --- ----- ----- ----<br>---- --- --- ----- --- ---- ---- ------- ----- ---- -------<br>--- --- -- ----- -- --- ---- -- --- even -- ------ ------<br>--- ----- -- ----,225819.60000002384,225818.70000004768,225341.588,225349.30000007153,225358.262,225824.178,,48,even
screen,html.Screen,2_1_0_1_49,2022-02-03T13:06:47.783Z,,,,,,,,,,,,,,,,,53,,,,,,,,,,,,,,383.5220000476693,,response,,,,99,,,,,,,Space,keypress(Space),,,,,,,,---- -- ----- -- ------ - ------- --- ----------<br>------------- ------ ------ ---- ---- ------- ----- -- ----<br>-------- ------- -- ---------- --- - --- ----- ----- ----<br>---- --- --- ----- --- ---- ---- ------- ----- ---- -------<br>--- --- -- ----- -- --- ---- -- --- ---- if ------ ------<br>--- ----- -- ----,226208.60000002384,226207.70000004768,225807.708,225819.80000007153,225824.178,226223.912,,49,if
screen,html.Screen,2_1_0_1_50,2022-02-03T13:06:48.271Z,,,,,,,,,,,,,,,,,53,,,,,,,,,,,,,,471.5879999999888,,response,,,,99,,,,,,,Space,keypress(Space),,,,,,,,---- -- ----- -- ------ - ------- --- ----------<br>------------- ------ ------ ---- ---- ------- ----- -- ----<br>-------- ------- -- ---------- --- - --- ----- ----- ----<br>---- --- --- ----- --- ---- ---- ------- ----- ---- -------<br>--- --- -- ----- -- --- ---- -- --- ---- -- that's ------<br>--- ----- -- ----,226696.5,226695.5,226207.258,226208.89999997616,226223.912,226707.006,,50,that's
screen,html.Screen,2_1_0_1_51,2022-02-03T13:06:48.713Z,,,,,,,,,,,,,,,,,53,,,,,,,,,,,,,,430.49400000000605,,response,,,,99,,,,,,,Space,keypress(Space),,,,,,,,---- -- ----- -- ------ - ------- --- ----------<br>------------- ------ ------ ---- ---- ------- ----- -- ----<br>-------- ------- -- ---------- --- - --- ----- ----- ----<br>---- --- --- ----- --- ---- ---- ------- ----- ---- -------<br>--- --- -- ----- -- --- ---- -- --- ---- -- ------ really<br>--- ----- -- ----,227138.39999997616,227137.5,226690.405,226696.70000004768,226707.006,227139.642,,51,really
screen,html.Screen,2_1_0_1_52,2022-02-03T13:06:49.157Z,,,,,,,,,,,,,,,,,53,,,,,,,,,,,,,,441.4580000238493,,response,,,,99,,,,,,,Space,keypress(Space),,,,,,,,---- -- ----- -- ------ - ------- --- ----------<br>------------- ------ ------ ---- ---- ------- ----- -- ----<br>-------- ------- -- ---------- --- - --- ----- ----- ----<br>---- --- --- ----- --- ---- ---- ------- ----- ---- -------<br>--- --- -- ----- -- --- ---- -- --- ---- -- ------ ------<br>not ----- -- ----,227582.10000002384,227581.10000002384,227123.346,227138.70000004768,227139.642,227589.332,,52,not
screen,html.Screen,2_1_0_1_53,2022-02-03T13:06:49.698Z,,,,,,,,,,,,,,,,,53,,,,,,,,,,,,,,533.4680000715307,,response,,,,99,,,,,,,Space,keypress(Space),,,,,,,,---- -- ----- -- ------ - ------- --- ----------<br>------------- ------ ------ ---- ---- ------- ----- -- ----<br>-------- ------- -- ---------- --- - --- ----- ----- ----<br>---- --- --- ----- --- ---- ---- ------- ----- ---- -------<br>--- --- -- ----- -- --- ---- -- --- ---- -- ------ ------<br>--- close -- ----,228123.5,228122.80000007153,227572.92,227582.39999997616,227589.332,228139.135,,53,close
screen,html.Screen,2_1_0_1_54,2022-02-03T13:06:50.110Z,,,,,,,,,,,,,,,,,53,,,,,,,,,,,,,,395.96500002383254,,response,,,,99,,,,,,,Space,keypress(Space),,,,,,,,---- -- ----- -- ------ - ------- --- ----------<br>------------- ------ ------ ---- ---- ------- ----- -- ----<br>-------- ------- -- ---------- --- - --- ----- ----- ----<br>---- --- --- ----- --- ---- ---- ------- ----- ---- -------<br>--- --- -- ----- -- --- ---- -- --- ---- -- ------ ------<br>--- ----- at ----,228535.89999997616,228535.10000002384,228122.185,228123.70000004768,228139.135,228538.514,,54,at
screen,html.Screen,2_1_0_1_55,2022-02-03T13:06:52.030Z,,,,,,,,,,,,,,,,,53,,,,,,,,,,,,,,1916.28600007153,,response,,,,99,,,,,,,Space,keypress(Space),,,,,,,,---- -- ----- -- ------ - ------- --- ----------<br>------------- ------ ------ ---- ---- ------- ----- -- ----<br>-------- ------- -- ---------- --- - --- ----- ----- ----<br>---- --- --- ----- --- ---- ---- ------- ----- ---- -------<br>--- --- -- ----- -- --- ---- -- --- ---- -- ------ ------<br>--- ----- -- all.,230455.80000007153,230454.80000007153,228522.133,228536.10000002384,228538.514,230470.205,,55,all.
Item 99,flow.Loop,2_1_0_1,2022-02-03T13:06:52.031Z,,,,,,,,,,,,,,,,,,,,,,,,,,,,,,,27477.329000071535,,completion,,,,,F,,,,,,,,,,,silence,,,,,230456.20000004768,230454.80000007153,202944.158,202946.80000007153,202977.471,230470.205,,,
Question 1,html.Screen,2_1_0_2,2022-02-03T13:06:56.556Z,,,,,,,,,,,,,,,,,,,,,,,,,,,,true,FALSE,,4510.295000000013,,response,,,,99,F,,,,,,FALSE,click #choice-2,,,,silence,,,,,234981.89999997616,234980.5,230453.848,230456.5,230470.205,234982.859,,,
Question 2,html.Screen,2_1_0_3,2022-02-03T13:07:01.271Z,,,,,,,,,,,,,,,,,,,,,,,,,,,,true,TRUE,,4712.841000047687,,response,,,,99,F,,,,,,TRUE,click #choice-1,,,,silence,,,,,239697,239695.70000004768,234966.505,234982.10000002384,234982.859,239712.129,,,
Item 99,flow.Sequence,2_1_0,2022-02-03T13:07:01.272Z,,,,,,,,,,,,,,,,,,,,,,,,,,,,,,,46742.82000004768,,completion,,,,,,,,,,,,,,,,,,,,,239697.5,239695.70000004768,192936.551,192954.39999997616,192952.88,239712.129,,,
Holding screen,html.Screen,2_1_1_0,2022-02-03T13:07:11.262Z,,,,,,,,,,,,,,,,,,,,,,,,,,,,,,,9991.478000000003,,timeout,,,,,,,,,,,,,,,,,,,,,249688,249687.019,239695.384,239697.70000004768,239712.129,249703.607,,,
screen,html.Screen,2_1_1_1_0,2022-02-03T13:07:13.148Z,,,,,,,,,,,,,,,,,54,,,,,,,,,,,,,,1869.1930000715365,,response,,,,100,,,,,,,Space,keypress(Space),,,,,,,,At --- ---- --- ------ ----- ------- ---- -- --- ------- --<br>------- ---------- ------ -- ----- -- ----- -- ---- ------<br>--- ----- --- --- ------ -------- ----- --- ------ ----- --<br>----- ----- ---------- --- --- ------ ------ ---- -- ------<br>------- --- ------ ----- --- ---- ------- -- ---- --- --<br>------- ------,251573.80000007153,251572.80000007153,249687.019,249688.30000007153,249703.607,251585.256,,0,At
screen,html.Screen,2_1_1_1_1,2022-02-03T13:07:13.519Z,,,,,,,,,,,,,,,,,54,,,,,,,,,,,,,,358.3440000238479,,response,,,,100,,,,,,,Space,keypress(Space),,,,,,,,-- the ---- --- ------ ----- ------- ---- -- --- ------- --<br>------- ---------- ------ -- ----- -- ----- -- ---- ------<br>--- ----- --- --- ------ -------- ----- --- ------ ----- --<br>----- ----- ---------- --- --- ------ ------ ---- -- ------<br>------- --- ------ ----- --- ---- ------- -- ---- --- --<br>------- ------,251944.39999997616,251943.60000002384,251568.688,251574.10000002384,251585.256,251951.37,,1,the
screen,html.Screen,2_1_1_1_2,2022-02-03T13:07:13.905Z,,,,,,,,,,,,,,,,,54,,,,,,,,,,,,,,378.2300000238465,,response,,,,100,,,,,,,Space,keypress(Space),,,,,,,,-- --- time --- ------ ----- ------- ---- -- --- ------- --<br>------- ---------- ------ -- ----- -- ----- -- ---- ------<br>--- ----- --- --- ------ -------- ----- --- ------ ----- --<br>----- ----- ---------- --- --- ------ ------ ---- -- ------<br>------- --- ------ ----- --- ---- ------- -- ---- --- --<br>------- ------,252330.60000002384,252329.60000002384,251934.782,251944.60000002384,251951.37,252334.421,,2,time
screen,html.Screen,2_1_1_1_3,2022-02-03T13:07:14.271Z,,,,,,,,,,,,,,,,,54,,,,,,,,,,,,,,361.5789999999979,,response,,,,100,,,,,,,Space,keypress(Space),,,,,,,,-- --- ---- the ------ ----- ------- ---- -- --- ------- --<br>------- ---------- ------ -- ----- -- ----- -- ---- ------<br>--- ----- --- --- ------ -------- ----- --- ------ ----- --<br>----- ----- ---------- --- --- ------ ------ ---- -- ------<br>------- --- ------ ----- --- ---- ------- -- ---- --- --<br>------- ------,252697,252696,252317.718,252330.89999997616,252334.421,252700.71,,3,the
screen,html.Screen,2_1_1_1_4,2022-02-03T13:07:14.655Z,,,,,,,,,,,,,,,,,54,,,,,,,,,,,,,,378.99000004769186,,response,,,,100,,,,,,,Space,keypress(Space),,,,,,,,-- --- ---- --- French ----- ------- ---- -- --- ------- --<br>------- ---------- ------ -- ----- -- ----- -- ---- ------<br>--- ----- --- --- ------ -------- ----- --- ------ ----- --<br>----- ----- ---------- --- --- ------ ------ ---- -- ------<br>------- --- ------ ----- --- ---- ------- -- ---- --- --<br>------- ------,253080.70000004768,253079.70000004768,252684.454,252697.30000007153,252700.71,253083.751,,4,French
screen,html.Screen,2_1_1_1_5,2022-02-03T13:07:15.049Z,,,,,,,,,,,,,,,,,54,,,,,,,,,,,,,,390.34900002385257,,response,,,,100,,,,,,,Space,keypress(Space),,,,,,,,-- --- ---- --- ------ crown ------- ---- -- --- ------- --<br>------- ---------- ------ -- ----- -- ----- -- ---- ------<br>--- ----- --- --- ------ -------- ----- --- ------ ----- --<br>----- ----- ---------- --- --- ------ ------ ---- -- ------<br>------- --- ------ ----- --- ---- ------- -- ---- --- --<br>------- ------,253475.10000002384,253474.10000002384,253067.434,253080.89999997616,253083.751,253483.56,,5,crown
screen,html.Screen,2_1_1_1_6,2022-02-03T13:07:15.469Z,,,,,,,,,,,,,,,,,54,,,,,,,,,,,,,,409.9400000000023,,response,,,,100,,,,,,,Space,keypress(Space),,,,,,,,-- --- ---- --- ------ ----- secured ---- -- --- ------- --<br>------- ---------- ------ -- ----- -- ----- -- ---- ------<br>--- ----- --- --- ------ -------- ----- --- ------ ----- --<br>----- ----- ---------- --- --- ------ ------ ---- -- ------<br>------- --- ------ ----- --- ---- ------- -- ---- --- --<br>------- ------,253894.60000002384,253893.5,253467.069,253475.30000007153,253483.56,253899.714,,6,secured
screen,html.Screen,2_1_1_1_7,2022-02-03T13:07:15.876Z,,,,,,,,,,,,,,,,,54,,,,,,,,,,,,,,401.38600002383464,,response,,,,100,,,,,,,Space,keypress(Space),,,,,,,,-- --- ---- --- ------ ----- ------- much -- --- ------- --<br>------- ---------- ------ -- ----- -- ----- -- ---- ------<br>--- ----- --- --- ------ -------- ----- --- ------ ----- --<br>----- ----- ---------- --- --- ------ ------ ---- -- ------<br>------- --- ------ ----- --- ---- ------- -- ---- --- --<br>------- ------,254302.10000002384,254301.10000002384,253883.284,253894.89999997616,253899.714,254316.299,,7,much
screen,html.Screen,2_1_1_1_8,2022-02-03T13:07:16.281Z,,,,,,,,,,,,,,,,,54,,,,,,,,,,,,,,389.70100000000093,,response,,,,100,,,,,,,Space,keypress(Space),,,,,,,,-- --- ---- --- ------ ----- ------- ---- of --- ------- --<br>------- ---------- ------ -- ----- -- ----- -- ---- ------<br>--- ----- --- --- ------ -------- ----- --- ------ ----- --<br>----- ----- ---------- --- --- ------ ------ ---- -- ------<br>------- --- ------ ----- --- ---- ------- -- ---- --- --<br>------- ------,254707.10000002384,254706,254299.785,254302.39999997616,254316.299,254715.856,,8,of
screen,html.Screen,2_1_1_1_9,2022-02-03T13:07:16.641Z,,,,,,,,,,,,,,,,,54,,,,,,,,,,,,,,350.2440000238421,,response,,,,100,,,,,,,Space,keypress(Space),,,,,,,,-- --- ---- --- ------ ----- ------- ---- -- its ------- --<br>------- ---------- ------ -- ----- -- ----- -- ---- ------<br>--- ----- --- --- ------ -------- ----- --- ------ ----- --<br>----- ----- ---------- --- --- ------ ------ ---- -- ------<br>------- --- ------ ----- --- ---- ------- -- ---- --- --<br>------- ------,255067.10000002384,255066.10000002384,254699.339,254707.30000007153,254715.856,255082.289,,9,its
screen,html.Screen,2_1_1_1_10,2022-02-03T13:07:17.091Z,,,,,,,,,,,,,,,,,54,,,,,,,,,,,,,,433.3110000238521,,response,,,,100,,,,,,,Space,keypress(Space),,,,,,,,-- --- ---- --- ------ ----- ------- ---- -- --- revenue --<br>------- ---------- ------ -- ----- -- ----- -- ---- ------<br>--- ----- --- --- ------ -------- ----- --- ------ ----- --<br>----- ----- ---------- --- --- ------ ------ ---- -- ------<br>------- --- ------ ----- --- ---- ------- -- ---- --- --<br>------- ------,255516.60000002384,255515.60000002384,255065.399,255067.30000007153,255082.289,255531.962,,10,revenue
screen,html.Screen,2_1_1_1_11,2022-02-03T13:07:17.556Z,,,,,,,,,,,,,,,,,54,,,,,,,,,,,,,,449.2380000476842,,response,,,,100,,,,,,,Space,keypress(Space),,,,,,,,-- --- ---- --- ------ ----- ------- ---- -- --- ------- by<br>------- ---------- ------ -- ----- -- ----- -- ---- ------<br>--- ----- --- --- ------ -------- ----- --- ------ ----- --<br>----- ----- ---------- --- --- ------ ------ ---- -- ------<br>------- --- ------ ----- --- ---- ------- -- ---- --- --<br>------- ------,255981.80000007153,255981.20000004768,255514.994,255516.80000007153,255531.962,255997.818,,11,by
screen,html.Screen,2_1_1_1_12,2022-02-03T13:07:17.997Z,,,,,,,,,,,,,,,,,54,,,,,,,,,,,,,,424.08199997615884,,response,,,,100,,,,,,,Space,keypress(Space),,,,,,,,-- --- ---- --- ------ ----- ------- ---- -- --- ------- --<br>issuing ---------- ------ -- ----- -- ----- -- ---- ------<br>--- ----- --- --- ------ -------- ----- --- ------ ----- --<br>----- ----- ---------- --- --- ------ ------ ---- -- ------<br>------- --- ------ ----- --- ---- ------- -- ---- --- --<br>------- ------,256422.89999997616,256421.89999997616,255981.156,255982,255997.818,256430.829,,12,issuing
screen,html.Screen,2_1_1_1_13,2022-02-03T13:07:18.453Z,,,,,,,,,,,,,,,,,54,,,,,,,,,,,,,,446.57099997616024,,response,,,,100,,,,,,,Space,keypress(Space),,,,,,,,-- --- ---- --- ------ ----- ------- ---- -- --- ------- --<br>------- government ------ -- ----- -- ----- -- ---- ------<br>--- ----- --- --- ------ -------- ----- --- ------ ----- --<br>----- ----- ---------- --- --- ------ ------ ---- -- ------<br>------- --- ------ ----- --- ---- ------- -- ---- --- --<br>------- ------,256878.30000007153,256877.39999997616,256414.144,256423.30000007153,256430.829,256880.439,,13,government
screen,html.Screen,2_1_1_1_14,2022-02-03T13:07:19.208Z,,,,,,,,,,,,,,,,,54,,,,,,,,,,,,,,751.9609999761451,,response,,,,100,,,,,,,Space,keypress(Space),,,,,,,,-- --- ---- --- ------ ----- ------- ---- -- --- ------- --<br>------- ---------- bonds. -- ----- -- ----- -- ---- ------<br>--- ----- --- --- ------ -------- ----- --- ------ ----- --<br>----- ----- ---------- --- --- ------ ------ ---- -- ------<br>------- --- ------ ----- --- ---- ------- -- ---- --- --<br>------- ------,257633.30000007153,257632.39999997616,256864.093,256878.5,256880.439,257646.765,,14,bonds.
screen,html.Screen,2_1_1_1_15,2022-02-03T13:07:19.649Z,,,,,,,,,,,,,,,,,54,,,,,,,,,,,,,,427.1349999761442,,response,,,,100,,,,,,,Space,keypress(Space),,,,,,,,-- --- ---- --- ------ ----- ------- ---- -- --- ------- --<br>------- ---------- ------ In ----- -- ----- -- ---- ------<br>--- ----- --- --- ------ -------- ----- --- ------ ----- --<br>----- ----- ---------- --- --- ------ ------ ---- -- ------<br>------- --- ------ ----- --- ---- ------- -- ---- --- --<br>------- ------,258074.80000007153,258073.89999997616,257629.724,257633.5,257646.765,258079.395,,15,In
screen,html.Screen,2_1_1_1_16,2022-02-03T13:07:20.170Z,,,,,,,,,,,,,,,,,54,,,,,,,,,,,,,,515.0049999761686,,response,,,,100,,,,,,,Space,keypress(Space),,,,,,,,"-- --- ---- --- ------ ----- ------- ---- -- --- ------- --<br>------- ---------- ------ -- 1727, -- ----- -- ---- ------<br>--- ----- --- --- ------ -------- ----- --- ------ ----- --<br>----- ----- ---------- --- --- ------ ------ ---- -- ------<br>------- --- ------ ----- --- ---- ------- -- ---- --- --<br>------- ------",258595.20000004768,258594.39999997616,258063.031,258075,258079.395,258612.497,,16,"1727,"
screen,html.Screen,2_1_1_1_17,2022-02-03T13:07:20.729Z,,,,,,,,,,,,,,,,,54,,,,,,,,,,,,,,541.4029999761551,,response,,,,100,,,,,,,Space,keypress(Space),,,,,,,,-- --- ---- --- ------ ----- ------- ---- -- --- ------- --<br>------- ---------- ------ -- ----- in ----- -- ---- ------<br>--- ----- --- --- ------ -------- ----- --- ------ ----- --<br>----- ----- ---------- --- --- ------ ------ ---- -- ------<br>------- --- ------ ----- --- ---- ------- -- ---- --- --<br>------- ------,259154.70000004768,259153.89999997616,258595.565,258595.39999997616,258612.497,259161.75,,17,in
screen,html.Screen,2_1_1_1_18,2022-02-03T13:07:21.190Z,,,,,,,,,,,,,,,,,54,,,,,,,,,,,,,,452.64999997615814,,response,,,,100,,,,,,,Space,keypress(Space),,,,,,,,-- --- ---- --- ------ ----- ------- ---- -- --- ------- --<br>------- ---------- ------ -- ----- -- order -- ---- ------<br>--- ----- --- --- ------ -------- ----- --- ------ ----- --<br>----- ----- ---------- --- --- ------ ------ ---- -- ------<br>------- --- ------ ----- --- ---- ------- -- ---- --- --<br>------- ------,259615.30000007153,259614.39999997616,259145.437,259155,259161.75,259628.358,,18,order
screen,html.Screen,2_1_1_1_19,2022-02-03T13:07:21.578Z,,,,,,,,,,,,,,,,,54,,,,,,,,,,,,,,374.84200004767627,,response,,,,100,,,,,,,Space,keypress(Space),,,,,,,,-- --- ---- --- ------ ----- ------- ---- -- --- ------- --<br>------- ---------- ------ -- ----- -- ----- to ---- ------<br>--- ----- --- --- ------ -------- ----- --- ------ ----- --<br>----- ----- ---------- --- --- ------ ------ ---- -- ------<br>------- --- ------ ----- --- ---- ------- -- ---- --- --<br>------- ------,260004.10000002384,260003.20000004768,259611.655,259615.5,259628.358,260011.04,,19,to
screen,html.Screen,2_1_1_1_20,2022-02-03T13:07:21.942Z,,,,,,,,,,,,,,,,,54,,,,,,,,,,,,,,355.66000004767557,,response,,,,100,,,,,,,Space,keypress(Space),,,,,,,,-- --- ---- --- ------ ----- ------- ---- -- --- ------- --<br>------- ---------- ------ -- ----- -- ----- -- save ------<br>--- ----- --- --- ------ -------- ----- --- ------ ----- --<br>----- ----- ---------- --- --- ------ ------ ---- -- ------<br>------- --- ------ ----- --- ---- ------- -- ---- --- --<br>------- ------,260367.60000002384,260366.70000004768,259994.614,260004.39999997616,260011.04,260377.697,,20,save
screen,html.Screen,2_1_1_1_21,2022-02-03T13:07:22.332Z,,,,,,,,,,,,,,,,,54,,,,,,,,,,,,,,378.7029999761726,,response,,,,100,,,,,,,Space,keypress(Space),,,,,,,,"-- --- ---- --- ------ ----- ------- ---- -- --- ------- --<br>------- ---------- ------ -- ----- -- ----- -- ---- money,<br>--- ----- --- --- ------ -------- ----- --- ------ ----- --<br>----- ----- ---------- --- --- ------ ------ ---- -- ------<br>------- --- ------ ----- --- ---- ------- -- ---- --- --<br>------- ------",260757.20000004768,260756.39999997616,260360.772,260367.80000007153,260377.697,260760.426,,21,"money,"
screen,html.Screen,2_1_1_1_22,2022-02-03T13:07:22.711Z,,,,,,,,,,,,,,,,,54,,,,,,,,,,,,,,374.8740000715188,,response,,,,100,,,,,,,Space,keypress(Space),,,,,,,,-- --- ---- --- ------ ----- ------- ---- -- --- ------- --<br>------- ---------- ------ -- ----- -- ----- -- ---- ------<br>the ----- --- --- ------ -------- ----- --- ------ ----- --<br>----- ----- ---------- --- --- ------ ------ ---- -- ------<br>------- --- ------ ----- --- ---- ------- -- ---- --- --<br>------- ------,261136.20000004768,261135.30000007153,260743.696,260757.39999997616,260760.426,261143.356,,22,the
screen,html.Screen,2_1_1_1_23,2022-02-03T13:07:23.139Z,,,,,,,,,,,,,,,,,54,,,,,,,,,,,,,,420.5439999761584,,response,,,,100,,,,,,,Space,keypress(Space),,,,,,,,-- --- ---- --- ------ ----- ------- ---- -- --- ------- --<br>------- ---------- ------ -- ----- -- ----- -- ---- ------<br>--- state --- --- ------ -------- ----- --- ------ ----- --<br>----- ----- ---------- --- --- ------ ------ ---- -- ------<br>------- --- ------ ----- --- ---- ------- -- ---- --- --<br>------- ------,261564.89999997616,261563.89999997616,261126.726,261136.5,261143.356,261576.594,,23,state
screen,html.Screen,2_1_1_1_24,2022-02-03T13:07:23.583Z,,,,,,,,,,,,,,,,,54,,,,,,,,,,,,,,431.2060000715137,,response,,,,100,,,,,,,Space,keypress(Space),,,,,,,,-- --- ---- --- ------ ----- ------- ---- -- --- ------- --<br>------- ---------- ------ -- ----- -- ----- -- ---- ------<br>--- ----- cut --- ------ -------- ----- --- ------ ----- --<br>----- ----- ---------- --- --- ------ ------ ---- -- ------<br>------- --- ------ ----- --- ---- ------- -- ---- --- --<br>------- ------,262008.60000002384,262007.80000007153,261559.943,261565.10000002384,261576.594,262025.882,,24,cut
screen,html.Screen,2_1_1_1_25,2022-02-03T13:07:24.013Z,,,,,,,,,,,,,,,,,54,,,,,,,,,,,,,,412.11799999998766,,response,,,,100,,,,,,,Space,keypress(Space),,,,,,,,-- --- ---- --- ------ ----- ------- ---- -- --- ------- --<br>------- ---------- ------ -- ----- -- ----- -- ---- ------<br>--- ----- --- the ------ -------- ----- --- ------ ----- --<br>----- ----- ---------- --- --- ------ ------ ---- -- ------<br>------- --- ------ ----- --- ---- ------- -- ---- --- --<br>------- ------,262438.8000000715,262438,262009.222,262008.89999997616,262025.882,262442.194,,25,the
screen,html.Screen,2_1_1_1_26,2022-02-03T13:07:24.443Z,,,,,,,,,,,,,,,,,54,,,,,,,,,,,,,,423.90600002382416,,response,,,,100,,,,,,,Space,keypress(Space),,,,,,,,-- --- ---- --- ------ ----- ------- ---- -- --- ------- --<br>------- ---------- ------ -- ----- -- ----- -- ---- ------<br>--- ----- --- --- bonds' -------- ----- --- ------ ----- --<br>----- ----- ---------- --- --- ------ ------ ---- -- ------<br>------- --- ------ ----- --- ---- ------- -- ---- --- --<br>------- ------,262868.8000000715,262866.10000002384,262425.56,262439,262442.194,262875.243,,26,bonds'
screen,html.Screen,2_1_1_1_27,2022-02-03T13:07:24.827Z,,,,,,,,,,,,,,,,,54,,,,,,,,,,,,,,376.25699999998324,,response,,,,100,,,,,,,Space,keypress(Space),,,,,,,,-- --- ---- --- ------ ----- ------- ---- -- --- ------- --<br>------- ---------- ------ -- ----- -- ----- -- ---- ------<br>--- ----- --- --- ------ interest ----- --- ------ ----- --<br>----- ----- ---------- --- --- ------ ------ ---- -- ------<br>------- --- ------ ----- --- ---- ------- -- ---- --- --<br>------- ------,263252.7000000477,263251.5,262858.871,262869.10000002384,262875.243,263258.16,,27,interest
screen,html.Screen,2_1_1_1_28,2022-02-03T13:07:25.213Z,,,,,,,,,,,,,,,,,54,,,,,,,,,,,,,,379.94000002386747,,response,,,,100,,,,,,,Space,keypress(Space),,,,,,,,-- --- ---- --- ------ ----- ------- ---- -- --- ------- --<br>------- ---------- ------ -- ----- -- ----- -- ---- ------<br>--- ----- --- --- ------ -------- rate. --- ------ ----- --<br>----- ----- ---------- --- --- ------ ------ ---- -- ------<br>------- --- ------ ----- --- ---- ------- -- ---- --- --<br>------- ------,263639.10000002384,263638.10000002384,263241.884,263252.89999997616,263258.16,263641.166,,28,rate.
screen,html.Screen,2_1_1_1_29,2022-02-03T13:07:25.728Z,,,,,,,,,,,,,,,,,54,,,,,,,,,,,,,,511.4340000238153,,response,,,,100,,,,,,,Space,keypress(Space),,,,,,,,-- --- ---- --- ------ ----- ------- ---- -- --- ------- --<br>------- ---------- ------ -- ----- -- ----- -- ---- ------<br>--- ----- --- --- ------ -------- ----- The ------ ----- --<br>----- ----- ---------- --- --- ------ ------ ---- -- ------<br>------- --- ------ ----- --- ---- ------- -- ---- --- --<br>------- ------,264153.5,264152.60000002384,263624.828,263639.39999997616,263641.166,264157.384,,29,The
screen,html.Screen,2_1_1_1_30,2022-02-03T13:07:26.314Z,,,,,,,,,,,,,,,,,54,,,,,,,,,,,,,,581.8160000476637,,response,,,,100,,,,,,,Space,keypress(Space),,,,,,,,-- --- ---- --- ------ ----- ------- ---- -- --- ------- --<br>------- ---------- ------ -- ----- -- ----- -- ---- ------<br>--- ----- --- --- ------ -------- ----- --- market ----- --<br>----- ----- ---------- --- --- ------ ------ ---- -- ------<br>------- --- ------ ----- --- ---- ------- -- ---- --- --<br>------- ------,264740.10000002384,264739.2000000477,264141.104,264153.7000000477,264157.384,264756.944,,30,market
screen,html.Screen,2_1_1_1_31,2022-02-03T13:07:26.751Z,,,,,,,,,,,,,,,,,54,,,,,,,,,,,,,,418.8560000715079,,response,,,,100,,,,,,,Space,keypress(Space),,,,,,,,-- --- ---- --- ------ ----- ------- ---- -- --- ------- --<br>------- ---------- ------ -- ----- -- ----- -- ---- ------<br>--- ----- --- --- ------ -------- ----- --- ------ value --<br>----- ----- ---------- --- --- ------ ------ ---- -- ------<br>------- --- ------ ----- --- ---- ------- -- ---- --- --<br>------- ------,265177,265175.8000000715,264740.176,264740.39999997616,264756.944,265190.119,,31,value
screen,html.Screen,2_1_1_1_32,2022-02-03T13:07:27.148Z,,,,,,,,,,,,,,,,,54,,,,,,,,,,,,,,382.4810000238358,,response,,,,100,,,,,,,Space,keypress(Space),,,,,,,,-- --- ---- --- ------ ----- ------- ---- -- --- ------- --<br>------- ---------- ------ -- ----- -- ----- -- ---- ------<br>--- ----- --- --- ------ -------- ----- --- ------ ----- of<br>----- ----- ---------- --- --- ------ ------ ---- -- ------<br>------- --- ------ ----- --- ---- ------- -- ---- --- --<br>------- ------,265573.60000002384,265572.60000002384,265173.138,265177.2000000477,265190.119,265589.68,,32,of
screen,html.Screen,2_1_1_1_33,2022-02-03T13:07:27.525Z,,,,,,,,,,,,,,,,,54,,,,,,,,,,,,,,359.7199999761651,,response,,,,100,,,,,,,Space,keypress(Space),,,,,,,,-- --- ---- --- ------ ----- ------- ---- -- --- ------- --<br>------- ---------- ------ -- ----- -- ----- -- ---- ------<br>--- ----- --- --- ------ -------- ----- --- ------ ----- --<br>these ----- ---------- --- --- ------ ------ ---- -- ------<br>------- --- ------ ----- --- ---- ------- -- ---- --- --<br>------- ------,265950.3000000715,265949.39999997616,265572.839,265573.8000000715,265589.68,265955.855,,33,these
screen,html.Screen,2_1_1_1_34,2022-02-03T13:07:27.910Z,,,,,,,,,,,,,,,,,54,,,,,,,,,,,,,,378.54499997617677,,response,,,,100,,,,,,,Space,keypress(Space),,,,,,,,-- --- ---- --- ------ ----- ------- ---- -- --- ------- --<br>------- ---------- ------ -- ----- -- ----- -- ---- ------<br>--- ----- --- --- ------ -------- ----- --- ------ ----- --<br>----- bonds ---------- --- --- ------ ------ ---- -- ------<br>------- --- ------ ----- --- ---- ------- -- ---- --- --<br>------- ------,266335.5,266334.39999997616,265939.157,265950.5,265955.855,266338.844,,34,bonds
screen,html.Screen,2_1_1_1_35,2022-02-03T13:07:28.287Z,,,,,,,,,,,,,,,,,54,,,,,,,,,,,,,,372.65600000001723,,response,,,,100,,,,,,,Space,keypress(Space),,,,,,,,"-- --- ---- --- ------ ----- ------- ---- -- --- ------- --<br>------- ---------- ------ -- ----- -- ----- -- ---- ------<br>--- ----- --- --- ------ -------- ----- --- ------ ----- --<br>----- ----- plummeted, --- --- ------ ------ ---- -- ------<br>------- --- ------ ----- --- ---- ------- -- ---- --- --<br>------- ------",266712.39999997616,266711.5,266322.521,266335.8000000715,266338.844,266722.128,,35,"plummeted,"
screen,html.Screen,2_1_1_1_36,2022-02-03T13:07:28.660Z,,,,,,,,,,,,,,,,,54,,,,,,,,,,,,,,362.4720000238158,,response,,,,100,,,,,,,Space,keypress(Space),,,,,,,,-- --- ---- --- ------ ----- ------- ---- -- --- ------- --<br>------- ---------- ------ -- ----- -- ----- -- ---- ------<br>--- ----- --- --- ------ -------- ----- --- ------ ----- --<br>----- ----- ---------- and --- ------ ------ ---- -- ------<br>------- --- ------ ----- --- ---- ------- -- ---- --- --<br>------- ------,267085.5,267084.60000002384,266705.454,266712.60000002384,266722.128,267088.224,,36,and
screen,html.Screen,2_1_1_1_37,2022-02-03T13:07:29.006Z,,,,,,,,,,,,,,,,,54,,,,,,,,,,,,,,342.07600007153815,,response,,,,100,,,,,,,Space,keypress(Space),,,,,,,,-- --- ---- --- ------ ----- ------- ---- -- --- ------- --<br>------- ---------- ------ -- ----- -- ----- -- ---- ------<br>--- ----- --- --- ------ -------- ----- --- ------ ----- --<br>----- ----- ---------- --- the ------ ------ ---- -- ------<br>------- --- ------ ----- --- ---- ------- -- ---- --- --<br>------- ------,267431.3000000715,267430.3000000715,267071.868,267085.8000000715,267088.224,267437.911,,37,the
screen,html.Screen,2_1_1_1_38,2022-02-03T13:07:29.392Z,,,,,,,,,,,,,,,,,54,,,,,,,,,,,,,,379.18900002382,,response,,,,100,,,,,,,Space,keypress(Space),,,,,,,,-- --- ---- --- ------ ----- ------- ---- -- --- ------- --<br>------- ---------- ------ -- ----- -- ----- -- ---- ------<br>--- ----- --- --- ------ -------- ----- --- ------ ----- --<br>----- ----- ---------- --- --- market ------ ---- -- ------<br>------- --- ------ ----- --- ---- ------- -- ---- --- --<br>------- ------,267818,267817.10000002384,267421.569,267431.39999997616,267437.911,267820.913,,38,market
screen,html.Screen,2_1_1_1_39,2022-02-03T13:07:29.755Z,,,,,,,,,,,,,,,,,54,,,,,,,,,,,,,,359.1870000238414,,response,,,,100,,,,,,,Space,keypress(Space),,,,,,,,-- --- ---- --- ------ ----- ------- ---- -- --- ------- --<br>------- ---------- ------ -- ----- -- ----- -- ---- ------<br>--- ----- --- --- ------ -------- ----- --- ------ ----- --<br>----- ----- ---------- --- --- ------ became ---- -- ------<br>------- --- ------ ----- --- ---- ------- -- ---- --- --<br>------- ------,268180.89999997616,268180.10000002384,267804.515,267818.10000002384,267820.913,268187.193,,39,became
screen,html.Screen,2_1_1_1_40,2022-02-03T13:07:30.106Z,,,,,,,,,,,,,,,,,54,,,,,,,,,,,,,,343.70699997612974,,response,,,,100,,,,,,,Space,keypress(Space),,,,,,,,-- --- ---- --- ------ ----- ------- ---- -- --- ------- --<br>------- ---------- ------ -- ----- -- ----- -- ---- ------<br>--- ----- --- --- ------ -------- ----- --- ------ ----- --<br>----- ----- ---------- --- --- ------ ------ wary -- ------<br>------- --- ------ ----- --- ---- ------- -- ---- --- --<br>------- ------,268531.8000000715,268530.89999997616,268170.797,268181.10000002384,268187.193,268536.885,,40,wary
screen,html.Screen,2_1_1_1_41,2022-02-03T13:07:30.536Z,,,,,,,,,,,,,,,,,54,,,,,,,,,,,,,,423.8150000476744,,response,,,,100,,,,,,,Space,keypress(Space),,,,,,,,-- --- ---- --- ------ ----- ------- ---- -- --- ------- --<br>------- ---------- ------ -- ----- -- ----- -- ---- ------<br>--- ----- --- --- ------ -------- ----- --- ------ ----- --<br>----- ----- ---------- --- --- ------ ------ ---- of ------<br>------- --- ------ ----- --- ---- ------- -- ---- --- --<br>------- ------,268961.60000002384,268960.7000000477,268520.298,268532,268536.885,268969.816,,41,of
screen,html.Screen,2_1_1_1_42,2022-02-03T13:07:30.967Z,,,,,,,,,,,,,,,,,54,,,,,,,,,,,,,,421.8840000476921,,response,,,,100,,,,,,,Space,keypress(Space),,,,,,,,-- --- ---- --- ------ ----- ------- ---- -- --- ------- --<br>------- ---------- ------ -- ----- -- ----- -- ---- ------<br>--- ----- --- --- ------ -------- ----- --- ------ ----- --<br>----- ----- ---------- --- --- ------ ------ ---- -- French<br>------- --- ------ ----- --- ---- ------- -- ---- --- --<br>------- ------,269392.7000000477,269391.7000000477,268953.203,268961.8000000715,268969.816,269403.07,,42,French
screen,html.Screen,2_1_1_1_43,2022-02-03T13:07:31.339Z,,,,,,,,,,,,,,,,,54,,,,,,,,,,,,,,360.63000004767673,,response,,,,100,,,,,,,Space,keypress(Space),,,,,,,,-- --- ---- --- ------ ----- ------- ---- -- --- ------- --<br>------- ---------- ------ -- ----- -- ----- -- ---- ------<br>--- ----- --- --- ------ -------- ----- --- ------ ----- --<br>----- ----- ---------- --- --- ------ ------ ---- -- ------<br>credit. --- ------ ----- --- ---- ------- -- ---- --- --<br>------- ------,269764.60000002384,269763.7000000477,269386.437,269392.89999997616,269403.07,269769.168,,43,credit.
screen,html.Screen,2_1_1_1_44,2022-02-03T13:07:31.711Z,,,,,,,,,,,,,,,,,54,,,,,,,,,,,,,,366.93200002383674,,response,,,,100,,,,,,,Space,keypress(Space),,,,,,,,-- --- ---- --- ------ ----- ------- ---- -- --- ------- --<br>------- ---------- ------ -- ----- -- ----- -- ---- ------<br>--- ----- --- --- ------ -------- ----- --- ------ ----- --<br>----- ----- ---------- --- --- ------ ------ ---- -- ------<br>------- The ------ ----- --- ---- ------- -- ---- --- --<br>------- ------,270137.10000002384,270136.10000002384,269752.716,269764.8000000715,269769.168,270152.476,,44,The
screen,html.Screen,2_1_1_1_45,2022-02-03T13:07:32.081Z,,,,,,,,,,,,,,,,,54,,,,,,,,,,,,,,353.62400002381764,,response,,,,100,,,,,,,Space,keypress(Space),,,,,,,,-- --- ---- --- ------ ----- ------- ---- -- --- ------- --<br>------- ---------- ------ -- ----- -- ----- -- ---- ------<br>--- ----- --- --- ------ -------- ----- --- ------ ----- --<br>----- ----- ---------- --- --- ------ ------ ---- -- ------<br>------- --- French ----- --- ---- ------- -- ---- --- --<br>------- ------,270507,270506.10000002384,270135.511,270137.2000000477,270152.476,270518.488,,45,French
screen,html.Screen,2_1_1_1_46,2022-02-03T13:07:32.478Z,,,,,,,,,,,,,,,,,54,,,,,,,,,,,,,,384.2120000476716,,response,,,,100,,,,,,,Space,keypress(Space),,,,,,,,-- --- ---- --- ------ ----- ------- ---- -- --- ------- --<br>------- ---------- ------ -- ----- -- ----- -- ---- ------<br>--- ----- --- --- ------ -------- ----- --- ------ ----- --<br>----- ----- ---------- --- --- ------ ------ ---- -- ------<br>------- --- ------ state --- ---- ------- -- ---- --- --<br>------- ------,270904,270902.7000000477,270501.825,270507.2000000477,270518.488,270918.53,,46,state
screen,html.Screen,2_1_1_1_47,2022-02-03T13:07:32.872Z,,,,,,,,,,,,,,,,,54,,,,,,,,,,,,,,377.77000007149763,,response,,,,100,,,,,,,Space,keypress(Space),,,,,,,,-- --- ---- --- ------ ----- ------- ---- -- --- ------- --<br>------- ---------- ------ -- ----- -- ----- -- ---- ------<br>--- ----- --- --- ------ -------- ----- --- ------ ----- --<br>----- ----- ---------- --- --- ------ ------ ---- -- ------<br>------- --- ------ ----- was ---- ------- -- ---- --- --<br>------- ------,271297.3000000715,271296.3000000715,270901.91,270904.3000000715,270918.53,271301.153,,47,was
screen,html.Screen,2_1_1_1_48,2022-02-03T13:07:33.209Z,,,,,,,,,,,,,,,,,54,,,,,,,,,,,,,,332.246999976167,,response,,,,100,,,,,,,Space,keypress(Space),,,,,,,,-- --- ---- --- ------ ----- ------- ---- -- --- ------- --<br>------- ---------- ------ -- ----- -- ----- -- ---- ------<br>--- ----- --- --- ------ -------- ----- --- ------ ----- --<br>----- ----- ---------- --- --- ------ ------ ---- -- ------<br>------- --- ------ ----- --- left ------- -- ---- --- --<br>------- ------,271634.39999997616,271633.39999997616,271284.557,271297.5,271301.153,271650.822,,48,left
screen,html.Screen,2_1_1_1_49,2022-02-03T13:07:33.599Z,,,,,,,,,,,,,,,,,54,,,,,,,,,,,,,,373.17800000001444,,response,,,,100,,,,,,,Space,keypress(Space),,,,,,,,-- --- ---- --- ------ ----- ------- ---- -- --- ------- --<br>------- ---------- ------ -- ----- -- ----- -- ---- ------<br>--- ----- --- --- ------ -------- ----- --- ------ ----- --<br>----- ----- ---------- --- --- ------ ------ ---- -- ------<br>------- --- ------ ----- --- ---- without -- ---- --- --<br>------- ------,272024.8000000715,272024,271634.162,271634.60000002384,271650.822,272034.178,,49,without
screen,html.Screen,2_1_1_1_50,2022-02-03T13:07:33.920Z,,,,,,,,,,,,,,,,,54,,,,,,,,,,,,,,310.4220000238274,,response,,,,100,,,,,,,Space,keypress(Space),,,,,,,,-- --- ---- --- ------ ----- ------- ---- -- --- ------- --<br>------- ---------- ------ -- ----- -- ----- -- ---- ------<br>--- ----- --- --- ------ -------- ----- --- ------ ----- --<br>----- ----- ---------- --- --- ------ ------ ---- -- ------<br>------- --- ------ ----- --- ---- ------- an ---- --- --<br>------- ------,272345.5,272344.60000002384,272017.489,272025.10000002384,272034.178,272350.229,,50,an
screen,html.Screen,2_1_1_1_51,2022-02-03T13:07:34.291Z,,,,,,,,,,,,,,,,,54,,,,,,,,,,,,,,365.2710000000079,,response,,,,100,,,,,,,Space,keypress(Space),,,,,,,,-- --- ---- --- ------ ----- ------- ---- -- --- ------- --<br>------- ---------- ------ -- ----- -- ----- -- ---- ------<br>--- ----- --- --- ------ -------- ----- --- ------ ----- --<br>----- ----- ---------- --- --- ------ ------ ---- -- ------<br>------- --- ------ ----- --- ---- ------- -- easy --- --<br>------- ------,272716.39999997616,272715.5,272333.865,272345.8000000715,272350.229,272733.475,,51,easy
screen,html.Screen,2_1_1_1_52,2022-02-03T13:07:34.625Z,,,,,,,,,,,,,,,,,54,,,,,,,,,,,,,,316.0250000000233,,response,,,,100,,,,,,,Space,keypress(Space),,,,,,,,-- --- ---- --- ------ ----- ------- ---- -- --- ------- --<br>------- ---------- ------ -- ----- -- ----- -- ---- ------<br>--- ----- --- --- ------ -------- ----- --- ------ ----- --<br>----- ----- ---------- --- --- ------ ------ ---- -- ------<br>------- --- ------ ----- --- ---- ------- -- ---- way --<br>------- ------,273050.7000000477,273049.5,272716.589,272716.7000000477,272733.475,273066.53,,52,way
screen,html.Screen,2_1_1_1_53,2022-02-03T13:07:35.005Z,,,,,,,,,,,,,,,,,54,,,,,,,,,,,,,,363.1700000476558,,response,,,,100,,,,,,,Space,keypress(Space),,,,,,,,-- --- ---- --- ------ ----- ------- ---- -- --- ------- --<br>------- ---------- ------ -- ----- -- ----- -- ---- ------<br>--- ----- --- --- ------ -------- ----- --- ------ ----- --<br>----- ----- ---------- --- --- ------ ------ ---- -- ------<br>------- --- ------ ----- --- ---- ------- -- ---- --- of<br>------- ------,273430.7000000477,273429.7000000477,273049.658,273050.89999997616,273066.53,273432.616,,53,of
screen,html.Screen,2_1_1_1_54,2022-02-03T13:07:35.465Z,,,,,,,,,,,,,,,,,54,,,,,,,,,,,,,,457.28399997617817,,response,,,,100,,,,,,,Space,keypress(Space),,,,,,,,-- --- ---- --- ------ ----- ------- ---- -- --- ------- --<br>------- ---------- ------ -- ----- -- ----- -- ---- ------<br>--- ----- --- --- ------ -------- ----- --- ------ ----- --<br>----- ----- ---------- --- --- ------ ------ ---- -- ------<br>------- --- ------ ----- --- ---- ------- -- ---- --- --<br>raising ------,273890.8000000715,273889.89999997616,273416.016,273430.89999997616,273432.616,273898.947,,54,raising
screen,html.Screen,2_1_1_1_55,2022-02-03T13:07:36.383Z,,,,,,,,,,,,,,,,,54,,,,,,,,,,,,,,908.7530000476982,,response,,,,100,,,,,,,Space,keypress(Space),,,,,,,,-- --- ---- --- ------ ----- ------- ---- -- --- ------- --<br>------- ---------- ------ -- ----- -- ----- -- ---- ------<br>--- ----- --- --- ------ -------- ----- --- ------ ----- --<br>----- ----- ---------- --- --- ------ ------ ---- -- ------<br>------- --- ------ ----- --- ---- ------- -- ---- --- --<br>------- money.,274808.60000002384,274807.7000000477,273882.608,273891.10000002384,273898.947,274814.798,,55,money.
Item 100,flow.Loop,2_1_1_1,2022-02-03T13:07:36.383Z,,,,,,,,,,,,,,,,,,,,,,,,,,,,,,,25104.093000047695,,completion,,,,,F,,,,,,,,,,,silence,,,,,274809,274807.7000000477,249687.019,249688.20000004768,249703.607,274814.798,,,
Question 1,html.Screen,2_1_1_2,2022-02-03T13:07:39.453Z,,,,,,,,,,,,,,,,,,,,,,,,,,,,true,TRUE,,3062.002000071516,,response,,,,100,F,,,,,,TRUE,click #choice-1,,,,silence,,,,,277878.39999997616,277876.8000000715,274798.392,274809.2000000477,274814.798,277878.731,,,
Question 2,html.Screen,2_1_1_3,2022-02-03T13:07:41.784Z,,,,,,,,,,,,,,,,,,,,,,,,,,,,true,FALSE,,2329.369000023813,,response,,,,100,F,,,,,,FALSE,click #choice-2,,,,silence,,,,,280209.3000000715,280208.10000002384,277862.408,277878.7000000477,277878.731,280210.102,,,
Item 100,flow.Sequence,2_1_1,2022-02-03T13:07:41.784Z,,,,,,,,,,,,,,,,,,,,,,,,,,,,,,,40495.971000023856,,completion,,,,,,,,,,,,,,,,,,,,,280209.7000000477,280208.10000002384,239695.384,239697.70000004768,239712.129,280210.102,,,
End of Practice,html.Page,2_1_2,2022-02-03T13:07:59.920Z,,,,,,,,,,,,,,,,,,,,,,,,,,,,,,,18135.49800002383,,form submission,,,,,,,,,,,,,,,,,,,,,298346,298345.60000002384,280193.755,280209.89999997616,280210.102,298361.143,,,
Practice,flow.Sequence,2_1,2022-02-03T13:07:59.921Z,,,,,,,,,,,,,,,,,,,,,,,,,,,,,,,105392.72000002384,,completion,,,,,,,,,,,,,,,,,,,,,298346.39999997616,298345.60000002384,192936.551,192954.30000007153,192952.88,298361.143,,,
Trap_instruction,html.Page,2_2_0,2022-02-03T13:08:04.295Z,,,,,,,,,,,,,,,,,,,,,,,,,,,,,,,4359.256999976176,,form submission,,,,,,,,,,,,,,,,,,,,,302720.8000000715,302720.39999997616,298344.243,298346.7000000477,298361.143,302740.316,,,
trap_trial,html.Screen,2_2_1,2022-02-03T13:08:08.585Z,,,,,,,,,,,,,,,,,,,,,,,,,,,,true,1,,4268.984000071534,,response,,,,,,,,,,,1,click #choice-1,,,,,,,,,307010.89999997616,307009.3000000715,302707.4,302721,302740.316,307020.004,,,
end of trap trial,html.Page,2_2_2,2022-02-03T13:08:10.826Z,,,,,,,,,,,,,,,,,,,,,,,,,,,,,,,2231.29600007151,,form submission,,,,,,,,,,,,,,,,,,,,,309251.89999997616,309251.3000000715,307003.621,307011.2000000477,307020.004,309251.378,,,
Trap 1,flow.Sequence,2_2,2022-02-03T13:08:10.827Z,,,,,,,,,,,,,,,,,,,,,,,,,,,,,,,10890.157000071544,,completion,,,,,,,,,,,,,,,,,,,,,309252.39999997616,309251.3000000715,298344.243,298346.5,298361.143,309251.378,,,
Standby,html.Page,2_3_0,2022-02-03T13:08:18.803Z,,,,,,,,,,,,,,,,,,,,,,,,,,,,,,,7992.983999999997,,timeout,,,,,,,,,,,,,,,,,,,,,317229.3000000715,317228.029,309235.001,309252.7000000477,309251.378,317244.362,,,
Holding screen,html.Screen,2_3_1_0_0,2022-02-03T13:08:25.796Z,,,,,,,,,,,,,,,,,,,,,,,,,,,,,,,6993.989000000001,,timeout,,,,,,,,,,,,,,,,,,,,,324222.89999997616,324221.722,317228.029,317229.7000000477,317244.362,324238.351,,,
screen,html.Screen,2_3_1_0_1_0,2022-02-03T13:08:27.135Z,,,,,,,,,,,,,,,,,2,,,,,,,,,,,,,,1322.048999976134,,response,,,,1,F,,,,,,Space,keypress(Space),,,,instrumental,,,,Two ---- ------ --- ------- ---------- ------- ----------<br>--- --------- --- ----------- ------- ----- ------- ---<br>--------- ---- -- --- ---- -- --------- -- ---- -------<br>-- --------- ------ --- ----- ------ ---- --- --------- --<br>------ - ---- -- --- ----------- ------- ---- ----- -----<br>--- -------- - ------ ---- -- ----- ---- --- --- -----------<br>-- -------,325561.60000002384,325560.39999997616,324221.722,324223.3000000715,324238.351,325570.461,,0,Two
screen,html.Screen,2_3_1_0_1_1,2022-02-03T13:08:27.640Z,,,,,,,,,,,,,,,,,2,,,,,,,,,,,,,,494.73900004767347,,response,,,,1,F,,,,,,Space,keypress(Space),,,,instrumental,,,,--- days ------ --- ------- ---------- ------- ----------<br>--- --------- --- ----------- ------- ----- ------- ---<br>--------- ---- -- --- ---- -- --------- -- ---- -------<br>-- --------- ------ --- ----- ------ ---- --- --------- --<br>------ - ---- -- --- ----------- ------- ---- ----- -----<br>--- -------- - ------ ---- -- ----- ---- --- --- -----------<br>-- -------,326066.3000000715,326065.2000000477,325554.114,325561.8000000715,325570.461,326069.992,,1,days
screen,html.Screen,2_3_1_0_1_2,2022-02-03T13:08:28.186Z,,,,,,,,,,,,,,,,,2,,,,,,,,,,,,,,541.5079999999725,,response,,,,1,F,,,,,,Space,keypress(Space),,,,instrumental,,,,"--- ---- later, --- ------- ---------- ------- ----------<br>--- --------- --- ----------- ------- ----- ------- ---<br>--------- ---- -- --- ---- -- --------- -- ---- -------<br>-- --------- ------ --- ----- ------ ---- --- --------- --<br>------ - ---- -- --- ----------- ------- ---- ----- -----<br>--- -------- - ------ ---- -- ----- ---- --- --- -----------<br>-- -------",326612.39999997616,326611.5,326053.716,326066.5,326069.992,326619.483,,2,"later,"
screen,html.Screen,2_3_1_0_1_3,2022-02-03T13:08:28.719Z,,,,,,,,,,,,,,,,,2,,,,,,,,,,,,,,525.4169999761507,,response,,,,1,F,,,,,,Space,keypress(Space),,,,instrumental,,,,--- ---- ------ the ------- ---------- ------- ----------<br>--- --------- --- ----------- ------- ----- ------- ---<br>--------- ---- -- --- ---- -- --------- -- ---- -------<br>-- --------- ------ --- ----- ------ ---- --- --------- --<br>------ - ---- -- --- ----------- ------- ---- ----- -----<br>--- -------- - ------ ---- -- ----- ---- --- --- -----------<br>-- -------,327146,327144.89999997616,326603.16,326612.7000000477,326619.483,327152.414,,3,the
screen,html.Screen,2_3_1_0_1_4,2022-02-03T13:08:29.273Z,,,,,,,,,,,,,,,,,2,,,,,,,,,,,,,,545.786000047694,,response,,,,1,F,,,,,,Space,keypress(Space),,,,instrumental,,,,--- ---- ------ --- British ---------- ------- ----------<br>--- --------- --- ----------- ------- ----- ------- ---<br>--------- ---- -- --- ---- -- --------- -- ---- -------<br>-- --------- ------ --- ----- ------ ---- --- --------- --<br>------ - ---- -- --- ----------- ------- ---- ----- -----<br>--- -------- - ------ ---- -- ----- ---- --- --- -----------<br>-- -------,327699.2000000477,327698.2000000477,327135.813,327146.2000000477,327152.414,327701.948,,4,British
screen,html.Screen,2_3_1_0_1_5,2022-02-03T13:08:29.889Z,,,,,,,,,,,,,,,,,2,,,,,,,,,,,,,,612.2520000477089,,response,,,,1,F,,,,,,Space,keypress(Space),,,,instrumental,,,,--- ---- ------ --- ------- astronomer ------- ----------<br>--- --------- --- ----------- ------- ----- ------- ---<br>--------- ---- -- --- ---- -- --------- -- ---- -------<br>-- --------- ------ --- ----- ------ ---- --- --------- --<br>------ - ---- -- --- ----------- ------- ---- ----- -----<br>--- -------- - ------ ---- -- ----- ---- --- --- -----------<br>-- -------,328315.3000000715,328314.2000000477,327685.625,327699.39999997616,327701.948,328318.048,,5,astronomer
screen,html.Screen,2_3_1_0_1_6,2022-02-03T13:08:30.356Z,,,,,,,,,,,,,,,,,2,,,,,,,,,,,,,,463.0520000238321,,response,,,,1,F,,,,,,Space,keypress(Space),,,,instrumental,,,,--- ---- ------ --- ------- ---------- Richard ----------<br>--- --------- --- ----------- ------- ----- ------- ---<br>--------- ---- -- --- ---- -- --------- -- ---- -------<br>-- --------- ------ --- ----- ------ ---- --- --------- --<br>------ - ---- -- --- ----------- ------- ---- ----- -----<br>--- -------- - ------ ---- -- ----- ---- --- --- -----------<br>-- -------,328782.10000002384,328781.10000002384,328301.661,328315.5,328318.048,328784.31,,6,Richard
screen,html.Screen,2_3_1_0_1_7,2022-02-03T13:08:30.835Z,,,,,,,,,,,,,,,,,2,,,,,,,,,,,,,,476.58999997616047,,response,,,,1,F,,,,,,Space,keypress(Space),,,,instrumental,,,,--- ---- ------ --- ------- ---------- ------- Carrington<br>--- --------- --- ----------- ------- ----- ------- ---<br>--------- ---- -- --- ---- -- --------- -- ---- -------<br>-- --------- ------ --- ----- ------ ---- --- --------- --<br>------ - ---- -- --- ----------- ------- ---- ----- -----<br>--- -------- - ------ ---- -- ----- ---- --- --- -----------<br>-- -------,329261.7000000477,329260.89999997616,328768.026,328782.3000000715,328784.31,329267.176,,7,Carrington
screen,html.Screen,2_3_1_0_1_8,2022-02-03T13:08:31.338Z,,,,,,,,,,,,,,,,,2,,,,,,,,,,,,,,496.6240000715479,,response,,,,1,F,,,,,,Space,keypress(Space),,,,instrumental,,,,--- ---- ------ --- ------- ---------- ------- ----------<br>was --------- --- ----------- ------- ----- ------- ---<br>--------- ---- -- --- ---- -- --------- -- ---- -------<br>-- --------- ------ --- ----- ------ ---- --- --------- --<br>------ - ---- -- --- ----------- ------- ---- ----- -----<br>--- -------- - ------ ---- -- ----- ---- --- --- -----------<br>-- -------,329764.7000000477,329763.8000000715,329250.523,329261.89999997616,329267.176,329766.777,,8,was
screen,html.Screen,2_3_1_0_1_9,2022-02-03T13:08:31.767Z,,,,,,,,,,,,,,,,,2,,,,,,,,,,,,,,426.1229999761563,,response,,,,1,F,,,,,,Space,keypress(Space),,,,instrumental,,,,--- ---- ------ --- ------- ---------- ------- ----------<br>--- observing --- ----------- ------- ----- ------- ---<br>--------- ---- -- --- ---- -- --------- -- ---- -------<br>-- --------- ------ --- ----- ------ ---- --- --------- --<br>------ - ---- -- --- ----------- ------- ---- ----- -----<br>--- -------- - ------ ---- -- ----- ---- --- --- -----------<br>-- -------,330193.89999997616,330192.89999997616,329750.105,329765,329766.777,330199.687,,9,observing
screen,html.Screen,2_3_1_0_1_10,2022-02-03T13:08:32.207Z,,,,,,,,,,,,,,,,,2,,,,,,,,,,,,,,432.6130000715493,,response,,,,1,F,,,,,,Space,keypress(Space),,,,instrumental,,,,--- ---- ------ --- ------- ---------- ------- ----------<br>--- --------- the ----------- ------- ----- ------- ---<br>--------- ---- -- --- ---- -- --------- -- ---- -------<br>-- --------- ------ --- ----- ------ ---- --- --------- --<br>------ - ---- -- --- ----------- ------- ---- ----- -----<br>--- -------- - ------ ---- -- ----- ---- --- --- -----------<br>-- -------,330633.5,330632.3000000715,330183.392,330194.2000000477,330199.687,330649.435,,10,the
screen,html.Screen,2_3_1_0_1_11,2022-02-03T13:08:32.701Z,,,,,,,,,,,,,,,,,2,,,,,,,,,,,,,,477.0650000000023,,response,,,,1,F,,,,,,Space,keypress(Space),,,,instrumental,,,,--- ---- ------ --- ------- ---------- ------- ----------<br>--- --------- --- interesting ------- ----- ------- ---<br>--------- ---- -- --- ---- -- --------- -- ---- -------<br>-- --------- ------ --- ----- ------ ---- --- --------- --<br>------ - ---- -- --- ----------- ------- ---- ----- -----<br>--- -------- - ------ ---- -- ----- ---- --- --- -----------<br>-- -------,331127.5,331126.5,330632.701,330633.7000000477,330649.435,331132.269,,11,interesting
screen,html.Screen,2_3_1_0_1_12,2022-02-03T13:08:33.186Z,,,,,,,,,,,,,,,,,2,,,,,,,,,,,,,,479.630999976187,,response,,,,1,F,,,,,,Space,keypress(Space),,,,instrumental,,,,--- ---- ------ --- ------- ---------- ------- ----------<br>--- --------- --- ----------- sunspot ----- ------- ---<br>--------- ---- -- --- ---- -- --------- -- ---- -------<br>-- --------- ------ --- ----- ------ ---- --- --------- --<br>------ - ---- -- --- ----------- ------- ---- ----- -----<br>--- -------- - ------ ---- -- ----- ---- --- --- -----------<br>-- -------,331613.10000002384,331611.89999997616,331115.982,331127.8000000715,331132.269,331615.149,,12,sunspot
screen,html.Screen,2_3_1_0_1_13,2022-02-03T13:08:33.614Z,,,,,,,,,,,,,,,,,2,,,,,,,,,,,,,,423.9510000238661,,response,,,,1,F,,,,,,Space,keypress(Space),,,,instrumental,,,,--- ---- ------ --- ------- ---------- ------- ----------<br>--- --------- --- ----------- ------- group ------- ---<br>--------- ---- -- --- ---- -- --------- -- ---- -------<br>-- --------- ------ --- ----- ------ ---- --- --------- --<br>------ - ---- -- --- ----------- ------- ---- ----- -----<br>--- -------- - ------ ---- -- ----- ---- --- --- -----------<br>-- -------,332040.10000002384,332039.10000002384,331598.823,331613.2000000477,331615.149,332048.138,,13,group
screen,html.Screen,2_3_1_0_1_14,2022-02-03T13:08:34.045Z,,,,,,,,,,,,,,,,,2,,,,,,,,,,,,,,422.9620000238647,,response,,,,1,F,,,,,,Space,keypress(Space),,,,instrumental,,,,--- ---- ------ --- ------- ---------- ------- ----------<br>--- --------- --- ----------- ------- ----- through ---<br>--------- ---- -- --- ---- -- --------- -- ---- -------<br>-- --------- ------ --- ----- ------ ---- --- --------- --<br>------ - ---- -- --- ----------- ------- ---- ----- -----<br>--- -------- - ------ ---- -- ----- ---- --- --- -----------<br>-- -------,332472,332471.10000002384,332031.563,332040.39999997616,332048.138,332481.147,,14,through
screen,html.Screen,2_3_1_0_1_15,2022-02-03T13:08:34.576Z,,,,,,,,,,,,,,,,,2,,,,,,,,,,,,,,520.6530000715284,,response,,,,1,F,,,,,,Space,keypress(Space),,,,instrumental,,,,--- ---- ------ --- ------- ---------- ------- ----------<br>--- --------- --- ----------- ------- ----- ------- his<br>--------- ---- -- --- ---- -- --------- -- ---- -------<br>-- --------- ------ --- ----- ------ ---- --- --------- --<br>------ - ---- -- --- ----------- ------- ---- ----- -----<br>--- -------- - ------ ---- -- ----- ---- --- --- -----------<br>-- -------,333002.7000000477,333001.8000000715,332464.442,332472.2000000477,332481.147,333014.282,,15,his
screen,html.Screen,2_3_1_0_1_16,2022-02-03T13:08:35.076Z,,,,,,,,,,,,,,,,,2,,,,,,,,,,,,,,486.9180000476772,,response,,,,1,F,,,,,,Space,keypress(Space),,,,instrumental,,,,--- ---- ------ --- ------- ---------- ------- ----------<br>--- --------- --- ----------- ------- ----- ------- ---<br>telescope ---- -- --- ---- -- --------- -- ---- -------<br>-- --------- ------ --- ----- ------ ---- --- --------- --<br>------ - ---- -- --- ----------- ------- ---- ----- -----<br>--- -------- - ------ ---- -- ----- ---- --- --- -----------<br>-- -------,333502.3000000715,333501.2000000477,332997.611,333002.89999997616,333014.282,333513.705,,16,telescope
screen,html.Screen,2_3_1_0_1_17,2022-02-03T13:08:35.498Z,,,,,,,,,,,,,,,,,2,,,,,,,,,,,,,,409.69499997614184,,response,,,,1,F,,,,,,Space,keypress(Space),,,,instrumental,,,,--- ---- ------ --- ------- ---------- ------- ----------<br>--- --------- --- ----------- ------- ----- ------- ---<br>--------- when -- --- ---- -- --------- -- ---- -------<br>-- --------- ------ --- ----- ------ ---- --- --------- --<br>------ - ---- -- --- ----------- ------- ---- ----- -----<br>--- -------- - ------ ---- -- ----- ---- --- --- -----------<br>-- -------,333924.3000000715,333923.39999997616,333496.928,333502.60000002384,333513.705,333929.793,,17,when
screen,html.Screen,2_3_1_0_1_18,2022-02-03T13:08:35.844Z,,,,,,,,,,,,,,,,,2,,,,,,,,,,,,,,340.2069999999949,,response,,,,1,F,,,,,,Space,keypress(Space),,,,instrumental,,,,--- ---- ------ --- ------- ---------- ------- ----------<br>--- --------- --- ----------- ------- ----- ------- ---<br>--------- ---- he --- ---- -- --------- -- ---- -------<br>-- --------- ------ --- ----- ------ ---- --- --------- --<br>------ - ---- -- --- ----------- ------- ---- ----- -----<br>--- -------- - ------ ---- -- ----- ---- --- --- -----------<br>-- -------,334271,334270,333913.451,333924.5,333929.793,334279.529,,18,he
screen,html.Screen,2_3_1_0_1_19,2022-02-03T13:08:36.227Z,,,,,,,,,,,,,,,,,2,,,,,,,,,,,,,,373.47100000001956,,response,,,,1,F,,,,,,Space,keypress(Space),,,,instrumental,,,,--- ---- ------ --- ------- ---------- ------- ----------<br>--- --------- --- ----------- ------- ----- ------- ---<br>--------- ---- -- saw ---- -- --------- -- ---- -------<br>-- --------- ------ --- ----- ------ ---- --- --------- --<br>------ - ---- -- --- ----------- ------- ---- ----- -----<br>--- -------- - ------ ---- -- ----- ---- --- --- -----------<br>-- -------,334654,334653,334263.17,334271.3000000715,334279.529,334662.749,,19,saw
screen,html.Screen,2_3_1_0_1_20,2022-02-03T13:08:36.695Z,,,,,,,,,,,,,,,,,2,,,,,,,,,,,,,,457.85100002383115,,response,,,,1,F,,,,,,Space,keypress(Space),,,,instrumental,,,,--- ---- ------ --- ------- ---------- ------- ----------<br>--- --------- --- ----------- ------- ----- ------- ---<br>--------- ---- -- --- what -- --------- -- ---- -------<br>-- --------- ------ --- ----- ------ ---- --- --------- --<br>------ - ---- -- --- ----------- ------- ---- ----- -----<br>--- -------- - ------ ---- -- ----- ---- --- --- -----------<br>-- -------,335121.60000002384,335120.60000002384,334646.177,334654.3000000715,334662.749,335128.752,,20,what
screen,html.Screen,2_3_1_0_1_21,2022-02-03T13:08:37.160Z,,,,,,,,,,,,,,,,,2,,,,,,,,,,,,,,456.7480000000214,,response,,,,1,F,,,,,,Space,keypress(Space),,,,instrumental,,,,--- ---- ------ --- ------- ---------- ------- ----------<br>--- --------- --- ----------- ------- ----- ------- ---<br>--------- ---- -- --- ---- he --------- -- ---- -------<br>-- --------- ------ --- ----- ------ ---- --- --------- --<br>------ - ---- -- --- ----------- ------- ---- ----- -----<br>--- -------- - ------ ---- -- ----- ---- --- --- -----------<br>-- -------,335586.5,335585.5,335112.385,335121.89999997616,335128.752,335595.048,,21,he
screen,html.Screen,2_3_1_0_1_22,2022-02-03T13:08:37.635Z,,,,,,,,,,,,,,,,,2,,,,,,,,,,,,,,465.4519999999902,,response,,,,1,F,,,,,,Space,keypress(Space),,,,instrumental,,,,--- ---- ------ --- ------- ---------- ------- ----------<br>--- --------- --- ----------- ------- ----- ------- ---<br>--------- ---- -- --- ---- -- described -- ---- -------<br>-- --------- ------ --- ----- ------ ---- --- --------- --<br>------ - ---- -- --- ----------- ------- ---- ----- -----<br>--- -------- - ------ ---- -- ----- ---- --- --- -----------<br>-- -------,336061.5,336060.5,335578.737,335586.8000000715,335595.048,336078.264,,22,described
screen,html.Screen,2_3_1_0_1_23,2022-02-03T13:08:38.073Z,,,,,,,,,,,,,,,,,2,,,,,,,,,,,,,,420.0360000715009,,response,,,,1,F,,,,,,Space,keypress(Space),,,,instrumental,,,,--- ---- ------ --- ------- ---------- ------- ----------<br>--- --------- --- ----------- ------- ----- ------- ---<br>--------- ---- -- --- ---- -- --------- as ---- -------<br>-- --------- ------ --- ----- ------ ---- --- --------- --<br>------ - ---- -- --- ----------- ------- ---- ----- -----<br>--- -------- - ------ ---- -- ----- ---- --- --- -----------<br>-- -------,336499.2000000477,336498.3000000715,336061.248,336061.60000002384,336078.264,336511.105,,23,as
screen,html.Screen,2_3_1_0_1_24,2022-02-03T13:08:38.470Z,,,,,,,,,,,,,,,,,2,,,,,,,,,,,,,,384.29499997617677,,response,,,,1,F,,,,,,Space,keypress(Space),,,,instrumental,,,,"--- ---- ------ --- ------- ---------- ------- ----------<br>--- --------- --- ----------- ------- ----- ------- ---<br>--------- ---- -- --- ---- -- --------- -- ""two -------<br>-- --------- ------ --- ----- ------ ---- --- --------- --<br>------ - ---- -- --- ----------- ------- ---- ----- -----<br>--- -------- - ------ ---- -- ----- ---- --- --- -----------<br>-- -------",336896.3000000715,336895.39999997616,336494.237,336499.39999997616,336511.105,336910.595,,24,"""two"
screen,html.Screen,2_3_1_0_1_25,2022-02-03T13:08:38.899Z,,,,,,,,,,,,,,,,,2,,,,,,,,,,,,,,413.7050000715535,,response,,,,1,F,,,,,,Space,keypress(Space),,,,instrumental,,,,--- ---- ------ --- ------- ---------- ------- ----------<br>--- --------- --- ----------- ------- ----- ------- ---<br>--------- ---- -- --- ---- -- --------- -- ---- patches<br>-- --------- ------ --- ----- ------ ---- --- --------- --<br>------ - ---- -- --- ----------- ------- ---- ----- -----<br>--- -------- - ------ ---- -- ----- ---- --- --- -----------<br>-- -------,337325.2000000477,337324.3000000715,336894.281,336896.5,336910.595,337326.868,,25,patches
screen,html.Screen,2_3_1_0_1_26,2022-02-03T13:08:39.315Z,,,,,,,,,,,,,,,,,2,,,,,,,,,,,,,,413.4320000715088,,response,,,,1,F,,,,,,Space,keypress(Space),,,,instrumental,,,,--- ---- ------ --- ------- ---------- ------- ----------<br>--- --------- --- ----------- ------- ----- ------- ---<br>--------- ---- -- --- ---- -- --------- -- ---- -------<br>of --------- ------ --- ----- ------ ---- --- --------- --<br>------ - ---- -- --- ----------- ------- ---- ----- -----<br>--- -------- - ------ ---- -- ----- ---- --- --- -----------<br>-- -------,337741.7000000477,337740.3000000715,337310.199,337325.39999997616,337326.868,337743.199,,26,of
screen,html.Screen,2_3_1_0_1_27,2022-02-03T13:08:39.759Z,,,,,,,,,,,,,,,,,2,,,,,,,,,,,,,,440.6010000715032,,response,,,,1,F,,,,,,Space,keypress(Space),,,,instrumental,,,,--- ---- ------ --- ------- ---------- ------- ----------<br>--- --------- --- ----------- ------- ----- ------- ---<br>--------- ---- -- --- ---- -- --------- -- ---- -------<br>-- intensely ------ --- ----- ------ ---- --- --------- --<br>------ - ---- -- --- ----------- ------- ---- ----- -----<br>--- -------- - ------ ---- -- ----- ---- --- --- -----------<br>-- -------,338185.10000002384,338183.8000000715,337726.868,337741.89999997616,337743.199,338192.822,,27,intensely
screen,html.Screen,2_3_1_0_1_28,2022-02-03T13:08:40.228Z,,,,,,,,,,,,,,,,,2,,,,,,,,,,,,,,460.2780000238563,,response,,,,1,F,,,,,,Space,keypress(Space),,,,instrumental,,,,--- ---- ------ --- ------- ---------- ------- ----------<br>--- --------- --- ----------- ------- ----- ------- ---<br>--------- ---- -- --- ---- -- --------- -- ---- -------<br>-- --------- bright --- ----- ------ ---- --- --------- --<br>------ - ---- -- --- ----------- ------- ---- ----- -----<br>--- -------- - ------ ---- -- ----- ---- --- --- -----------<br>-- -------,338654.10000002384,338653.10000002384,338176.478,338185.39999997616,338192.822,338659.023,,28,bright
screen,html.Screen,2_3_1_0_1_29,2022-02-03T13:08:40.598Z,,,,,,,,,,,,,,,,,2,,,,,,,,,,,,,,364.87699997617165,,response,,,,1,F,,,,,,Space,keypress(Space),,,,instrumental,,,,--- ---- ------ --- ------- ---------- ------- ----------<br>--- --------- --- ----------- ------- ----- ------- ---<br>--------- ---- -- --- ---- -- --------- -- ---- -------<br>-- --------- ------ and ----- ------ ---- --- --------- --<br>------ - ---- -- --- ----------- ------- ---- ----- -----<br>--- -------- - ------ ---- -- ----- ---- --- --- -----------<br>-- -------,339025,339023.89999997616,338642.727,338654.5,338659.023,339042.343,,29,and
screen,html.Screen,2_3_1_0_1_30,2022-02-03T13:08:41.052Z,,,,,,,,,,,,,,,,,2,,,,,,,,,,,,,,435.35700004769024,,response,,,,1,F,,,,,,Space,keypress(Space),,,,instrumental,,,,--- ---- ------ --- ------- ---------- ------- ----------<br>--- --------- --- ----------- ------- ----- ------- ---<br>--------- ---- -- --- ---- -- --------- -- ---- -------<br>-- --------- ------ --- white ------ ---- --- --------- --<br>------ - ---- -- --- ----------- ------- ---- ----- -----<br>--- -------- - ------ ---- -- ----- ---- --- --- -----------<br>-- -------,339478.60000002384,339477.7000000477,339025.366,339025.2000000477,339042.343,339491.949,,30,white
screen,html.Screen,2_3_1_0_1_31,2022-02-03T13:08:41.405Z,,,,,,,,,,,,,,,,,2,,,,,,,,,,,,,,339.1510000238195,,response,,,,1,F,,,,,,Space,keypress(Space),,,,instrumental,,,,"--- ---- ------ --- ------- ---------- ------- ----------<br>--- --------- --- ----------- ------- ----- ------- ---<br>--------- ---- -- --- ---- -- --------- -- ---- -------<br>-- --------- ------ --- ----- light"" ---- --- --------- --<br>------ - ---- -- --- ----------- ------- ---- ----- -----<br>--- -------- - ------ ---- -- ----- ---- --- --- -----------<br>-- -------",339832,339831.10000002384,339475.014,339478.89999997616,339491.949,339841.655,,31,"light"""
screen,html.Screen,2_3_1_0_1_32,2022-02-03T13:08:41.839Z,,,,,,,,,,,,,,,,,2,,,,,,,,,,,,,,422.34499999997206,,response,,,,1,F,,,,,,Space,keypress(Space),,,,instrumental,,,,--- ---- ------ --- ------- ---------- ------- ----------<br>--- --------- --- ----------- ------- ----- ------- ---<br>--------- ---- -- --- ---- -- --------- -- ---- -------<br>-- --------- ------ --- ----- ------ over --- --------- --<br>------ - ---- -- --- ----------- ------- ---- ----- -----<br>--- -------- - ------ ---- -- ----- ---- --- --- -----------<br>-- -------,340265.2000000477,340264,339824.724,339832.2000000477,339841.655,340274.585,,32,over
screen,html.Screen,2_3_1_0_1_33,2022-02-03T13:08:42.228Z,,,,,,,,,,,,,,,,,2,,,,,,,,,,,,,,378.61500004766276,,response,,,,1,F,,,,,,Space,keypress(Space),,,,instrumental,,,,--- ---- ------ --- ------- ---------- ------- ----------<br>--- --------- --- ----------- ------- ----- ------- ---<br>--------- ---- -- --- ---- -- --------- -- ---- -------<br>-- --------- ------ --- ----- ------ ---- the --------- --<br>------ - ---- -- --- ----------- ------- ---- ----- -----<br>--- -------- - ------ ---- -- ----- ---- --- --- -----------<br>-- -------,340654.2000000477,340653.2000000477,340258.008,340265.60000002384,340274.585,340657.336,,33,the
screen,html.Screen,2_3_1_0_1_34,2022-02-03T13:08:42.625Z,,,,,,,,,,,,,,,,,2,,,,,,,,,,,,,,393.66399999998976,,response,,,,1,F,,,,,,Space,keypress(Space),,,,instrumental,,,,--- ---- ------ --- ------- ---------- ------- ----------<br>--- --------- --- ----------- ------- ----- ------- ---<br>--------- ---- -- --- ---- -- --------- -- ---- -------<br>-- --------- ------ --- ----- ------ ---- --- sunspots. --<br>------ - ---- -- --- ----------- ------- ---- ----- -----<br>--- -------- - ------ ---- -- ----- ---- --- --- -----------<br>-- -------,341051.89999997616,341051,340640.672,340654.5,340657.336,341056.868,,34,sunspots.
screen,html.Screen,2_3_1_0_1_35,2022-02-03T13:08:43.106Z,,,,,,,,,,,,,,,,,2,,,,,,,,,,,,,,474.9320000715088,,response,,,,1,F,,,,,,Space,keypress(Space),,,,instrumental,,,,--- ---- ------ --- ------- ---------- ------- ----------<br>--- --------- --- ----------- ------- ----- ------- ---<br>--------- ---- -- --- ---- -- --------- -- ---- -------<br>-- --------- ------ --- ----- ------ ---- --- --------- He<br>------ - ---- -- --- ----------- ------- ---- ----- -----<br>--- -------- - ------ ---- -- ----- ---- --- --- -----------<br>-- -------,341532.7000000477,341531.8000000715,341040.261,341052,341056.868,341539.792,,35,He
screen,html.Screen,2_3_1_0_1_36,2022-02-03T13:08:43.550Z,,,,,,,,,,,,,,,,,2,,,,,,,,,,,,,,436.6079999761423,,response,,,,1,F,,,,,,Space,keypress(Space),,,,instrumental,,,,--- ---- ------ --- ------- ---------- ------- ----------<br>--- --------- --- ----------- ------- ----- ------- ---<br>--------- ---- -- --- ---- -- --------- -- ---- -------<br>-- --------- ------ --- ----- ------ ---- --- --------- --<br>jotted - ---- -- --- ----------- ------- ---- ----- -----<br>--- -------- - ------ ---- -- ----- ---- --- --- -----------<br>-- -------,341976.89999997616,341976.39999997616,341523.175,341533,341539.792,341989.341,,36,jotted
screen,html.Screen,2_3_1_0_1_37,2022-02-03T13:08:43.950Z,,,,,,,,,,,,,,,,,2,,,,,,,,,,,,,,386.55899997614324,,response,,,,1,F,,,,,,Space,keypress(Space),,,,instrumental,,,,--- ---- ------ --- ------- ---------- ------- ----------<br>--- --------- --- ----------- ------- ----- ------- ---<br>--------- ---- -- --- ---- -- --------- -- ---- -------<br>-- --------- ------ --- ----- ------ ---- --- --------- --<br>------ a ---- -- --- ----------- ------- ---- ----- -----<br>--- -------- - ------ ---- -- ----- ---- --- --- -----------<br>-- -------,342376.7000000477,342375.89999997616,341972.72,341976.89999997616,341989.341,342389.054,,37,a
