sender,sender_type,sender_id,timestamp,meta,,Blues,Classical,Country,Dance,Electronic,Folk,Gospel,Hip-Hop,Jazz,Latin,Musical/Film,New-age,Pop,Prolific_id,Provo_ID,R&B,Rap,Reggae,Religious,Rock,Soul,Swing,Traditional,age,artist_name,correct,correctResponse,distraction,duration,education,ended_on,familiarity,gender,headphone_check_performance,item,list,music_frequency,offensiveness,pleasantness,position_correct,preference,response,response_action,snippet_file,song_name,song_rating,sound,stimulus_1,stimulus_2,stimulus_3,text,time_commit,time_end,time_render,time_run,time_show,time_switch,url,word,word_ID
Prolific ID,html.Form,0,2022-02-02T17:54:06.391Z,"{""labjs_version"":""20.2.2"",""labjs_build"":{""flavor"":""production"",""commit"":""a25486e0c714a0ae2ce03ff94b7bb6896854dcfa""},""location"":""https://run.pavlovia.org/mvasilev/prolific2_music_e/"",""userAgent"":""Mozilla/5.0 (Macintosh; Intel Mac OS X 10_15_7) AppleWebKit/537.36 (KHTML, like Gecko) Chrome/96.0.4664.110 Safari/537.36"",""platform"":""MacIntel"",""language"":""en-GB"",""locale"":""en-GB"",""timeZone"":""Europe/London"",""timezoneOffset"":0,""screen_width"":1440,""screen_height"":900,""scroll_width"":1440,""scroll_height"":741,""window_innerWidth"":1440,""window_innerHeight"":789,""devicePixelRatio"":1}",,,,,,,,,,,,,,,5f6f753fb20ea14ee4072f30,,,,,,,,,,,,,,,2924.098,,form submission,,,,,,,,,,,,,,,,,,,,,16125.800000011921,16125,13167.48,13182.90000000596,13200.902,16125.544,{},,
Introduction,html.Screen,1_0,2022-02-02T17:54:13.857Z,,,,,,,,,,,,,,,,,,,,,,,,,,,,,,,7460.056000008941,,response,,,,,,,,,,,continue,click button,,,,,,,,,23591.80000001192,23585.60000000894,16108.833,16126.300000011921,16125.544,23595.361,,,
Volume calibration,html.Screen,1_1,2022-02-02T17:54:29.956Z,,,,,,,,,,,,,,,,,,,,,,,,,,,,,,,16086.73900000894,,response,,,,,,,,,,,continue,click button,,,,,,,,,39690.90000000596,39682.10000000894,23578.65,23591.90000000596,23595.361,39688.456,,,
Task instructions,html.Screen,1_2,2022-02-02T17:54:36.886Z,,,,,,,,,,,,,,,,,,,,,,,,,,,,,,,6929.644000008942,,response,,,,,,,,,,,continue,click button,,,,,,,,,46621.20000000298,46618.10000000894,39671.745,39691.5,39688.456,46623.521,,,
Sounds,html.Screen,1_3_0_0,2022-02-02T17:54:41.120Z,,,,,,,,,,,,,,,,,,,,,,,,,,,,,,,4244.889000000003,,timeout,,,,,,,,,2,,,,,,,,I,S,O,,50855.5,50851.699,46606.81,46621.5,46623.521,50868.41,,,
Judgement,html.Screen,1_3_0_1,2022-02-02T17:54:41.880Z,,,,,,,,,,,,,,,,,,,,,,,,,,,,true,2,,742.990000005957,,response,,,,,,,,,2,,2,click #choice-2,,,,,I,S,O,,51615.70000000298,51611.40000000596,50851.699,50855.80000001192,50868.41,51620.405,,,
Trial,flow.Sequence,1_3_0,2022-02-02T17:54:41.881Z,,,,,,,,,,,,,,,,,,,,,,,,,,,,,,,4987.87900000596,,completion,,,,,,,,,2,,,,,,,,I,S,O,,51616.10000000894,51611.40000000596,46606.81,46621.5,46623.521,51620.405,,,
Sounds,html.Screen,1_3_1_0,2022-02-02T17:54:46.115Z,,,,,,,,,,,,,,,,,,,,,,,,,,,,,,,4244.594000000005,,timeout,,,,,,,,,1,,,,,,,,S,I,O,,55850.20000000298,55848.288,51603.694,51616.30000001192,51620.405,55864.999,,,
Judgement,html.Screen,1_3_1_1,2022-02-02T17:54:46.552Z,,,,,,,,,,,,,,,,,,,,,,,,,,,,true,1,,418.60100000893726,,response,,,,,,,,,1,,1,click #choice-1,,,,,S,I,O,,56287.40000000596,56283.60000000894,55848.288,55850.60000000894,55864.999,56299.485,,,
Trial,flow.Sequence,1_3_1,2022-02-02T17:54:46.553Z,,,,,,,,,,,,,,,,,,,,,,,,,,,,,,,4663.195000008942,,completion,,,,,,,,,1,,,,,,,,S,I,O,,56288.20000000298,56283.60000000894,51603.694,51616.30000001192,51620.405,56299.485,,,
Sounds,html.Screen,1_3_2_0,2022-02-02T17:54:50.794Z,,,,,,,,,,,,,,,,,,,,,,,,,,,,,,,4244.593999999997,,timeout,,,,,,,,,3,,,,,,,,O,I,S,,60530,60527.368,56282.774,56288.40000000596,56299.485,60544.079,,,
Judgement,html.Screen,1_3_2_1,2022-02-02T17:54:51.400Z,,,,,,,,,,,,,,,,,,,,,,,,,,,,true,3,,587.8210000059626,,response,,,,,,,,,3,,3,click #choice-3,,,,,O,I,S,,61135.90000000596,61131.90000000596,60527.368,60530.20000000298,60544.079,61145.911,,,
Trial,flow.Sequence,1_3_2,2022-02-02T17:54:51.401Z,,,,,,,,,,,,,,,,,,,,,,,,,,,,,,,4832.41500000596,,completion,,,,,,,,,3,,,,,,,,O,I,S,,61136.40000000596,61131.90000000596,56282.774,56288.30000001192,56299.485,61145.911,,,
Sounds,html.Screen,1_3_3_0,2022-02-02T17:54:55.640Z,,,,,,,,,,,,,,,,,,,,,,,,,,,,,,,4244.593999999997,,timeout,,,,,,,,,1,,,,,,,,S,O,I,,65375.60000000894,65373.794,61129.2,61136.60000000894,61145.911,65390.505,,,
Judgement,html.Screen,1_3_3_1,2022-02-02T17:54:56.086Z,,,,,,,,,,,,,,,,,,,,,,,,,,,,true,1,,428.0950000089433,,response,,,,,,,,,1,,1,click #choice-1,,,,,S,O,I,,65821.80000001192,65818.60000000894,65373.794,65376,65390.505,65824.991,,,
Trial,flow.Sequence,1_3_3,2022-02-02T17:54:56.086Z,,,,,,,,,,,,,,,,,,,,,,,,,,,,,,,4672.689000008941,,completion,,,,,,,,,1,,,,,,,,S,O,I,,65822.10000000894,65818.60000000894,61129.2,61136.5,61145.911,65824.991,,,
Sounds,html.Screen,1_3_4_0,2022-02-02T17:55:00.319Z,,,,,,,,,,,,,,,,,,,,,,,,,,,,,,,4244.594000000012,,timeout,,,,,,,,,2,,,,,,,,O,S,I,,70055,70052.874,65808.28,65822.30000001192,65824.991,70069.585,,,
Judgement,html.Screen,1_3_4_1,2022-02-02T17:55:01.886Z,,,,,,,,,,,,,,,,,,,,,,,,,,,,false,2,,1548.7150000119145,,response,,,,,,,,,2,,3,click #choice-3,,,,,O,S,I,,71622.30000001192,71618.30000001192,70052.874,70055.20000000298,70069.585,71623.921,,,
Trial,flow.Sequence,1_3_4,2022-02-02T17:55:01.887Z,,,,,,,,,,,,,,,,,,,,,,,,,,,,,,,5793.309000011926,,completion,,,,,,,,,2,,,,,,,,O,S,I,,71622.5,71618.30000001192,65808.28,65822.20000000298,65824.991,71623.921,,,
Sounds,html.Screen,1_3_5_0,2022-02-02T17:55:06.119Z,,,,,,,,,,,,,,,,,,,,,,,,,,,,,,,4244.593999999997,,timeout,,,,,,,,,3,,,,,,,,I,O,S,,75854.70000000298,75851.804,71607.21,71622.70000000298,71623.921,75868.515,,,
Judgement,html.Screen,1_3_5_1,2022-02-02T17:55:07.979Z,,,,,,,,,,,,,,,,,,,,,,,,,,,,true,3,,1842.9850000000006,,response,,,,,,,,,3,,3,click #choice-3,,,,,I,O,S,,77714.60000000894,77711.5,75851.804,75854.90000000596,75868.515,77723.436,,,
Trial,flow.Sequence,1_3_5,2022-02-02T17:55:07.979Z,,,,,,,,,,,,,,,,,,,,,,,,,,,,,,,6087.578999999998,,completion,,,,,,,,,3,,,,,,,,I,O,S,,77714.80000001192,77711.5,71607.21,71622.70000000298,71623.921,77723.436,,,
Task,flow.Loop,1_3,2022-02-02T17:55:07.986Z,,,,,,,,,,,,,,,,,,,,,,,,,,,,,,,31087.979,,completion,,,0.8333333333333334,,,,,,,,,,,,,,,,,,77722.20000000298,77711.5,46606.81,46621.5,46623.521,77723.436,,,
Trap,html.Screen,1_4,2022-02-02T17:55:07.988Z,,,,,,,,,,,,,,,,,,,,,,,,,,,,,,,NaN,,skipped,,,,,,,,,,,,,,,,,,,,,77723.70000000298,77711.5,,77723.5,,77723.436,,,
Thanks,html.Screen,1_5,2022-02-02T17:55:22.436Z,,,,,,,,,,,,,,,,,,,,,,,,,,,,,,,14444.563999999998,,response,,,,,,,,,,,continue,click button,,,,,,,,,92171.90000000596,92168,77706.725,77723.90000000596,77723.436,94685.384,,,
Headphone screening,flow.Sequence,1,2022-02-02T17:55:22.436Z,,,,,,,,,,,,,,,,,,,,,,,,,,,,,,,76042.456,,completion,,,,,,,,,,,,,,,,,,,,,92172.20000000298,92168,16108.833,16126.20000000298,16125.544,94685.384,,,
Instructions,html.Page,2_0,2022-02-02T17:55:36.697Z,,,,,,,,,,,,,,,,,,,,,,,,,,,,,,,11747.615999999995,,form submission,,,,,,,,,,,,,,,,,,,,,106433.40000000596,106433,94668.673,94677.40000000596,94685.384,106433.217,,,
Holding screen,html.Screen,2_1_0_0,2022-02-02T17:55:46.675Z,,,,,,,,,,,,,,,,,,,,,,,,,,,,,,,10010.190000000002,,timeout,,,,,,,,,,,,,,,,,,,,,116411.10000000894,116409.985,106416.506,106433.70000000298,106433.217,116443.407,,,
screen,html.Screen,2_1_0_1_0,2022-02-02T17:55:47.680Z,,,,,,,,,,,,,,,,,53,,,,,,,,,,,,,,962.7930000029737,,response,,,,99,,,,,,,Space,keypress(Space),,,,,,,,When -- ----- -- ------ - ------- --- ----------<br>------------- ------ ------ ---- ---- ------- ----- -- ----<br>-------- ------- -- ---------- --- - --- ----- ----- ----<br>---- --- --- ----- --- ---- ---- ------- ----- ---- -------<br>--- --- -- ----- -- --- ---- -- --- ---- -- ------ ------<br>--- ----- -- ----,117416.70000000298,117406.20000000298,116409.985,116411.40000000596,116443.407,117429.356,,0,When
screen,html.Screen,2_1_0_1_1,2022-02-02T17:55:48.016Z,,,,,,,,,,,,,,,,,53,,,,,,,,,,,,,,317.44400001192116,,response,,,,99,,,,,,,Space,keypress(Space),,,,,,,,---- it ----- -- ------ - ------- --- ----------<br>------------- ------ ------ ---- ---- ------- ----- -- ----<br>-------- ------- -- ---------- --- - --- ----- ----- ----<br>---- --- --- ----- --- ---- ---- ------- ----- ---- -------<br>--- --- -- ----- -- --- ---- -- --- ---- -- ------ ------<br>--- ----- -- ----,117752.80000001192,117746.80000001192,117412.645,117416.90000000596,117429.356,117763.785,,1,it
screen,html.Screen,2_1_0_1_2,2022-02-02T17:55:48.344Z,,,,,,,,,,,,,,,,,53,,,,,,,,,,,,,,310.91500000297674,,response,,,,99,,,,,,,Space,keypress(Space),,,,,,,,---- -- comes -- ------ - ------- --- ----------<br>------------- ------ ------ ---- ---- ------- ----- -- ----<br>-------- ------- -- ---------- --- - --- ----- ----- ----<br>---- --- --- ----- --- ---- ---- ------- ----- ---- -------<br>--- --- -- ----- -- --- ---- -- --- ---- -- ------ ------<br>--- ----- -- ----,118080.5,118074.70000000298,117747.074,117752.90000000596,117763.785,118098.005,,2,comes
screen,html.Screen,2_1_0_1_3,2022-02-02T17:55:48.673Z,,,,,,,,,,,,,,,,,53,,,,,,,,,,,,,,305.7950000119163,,response,,,,99,,,,,,,Space,keypress(Space),,,,,,,,---- -- ----- to ------ - ------- --- ----------<br>------------- ------ ------ ---- ---- ------- ----- -- ----<br>-------- ------- -- ---------- --- - --- ----- ----- ----<br>---- --- --- ----- --- ---- ---- ------- ----- ---- -------<br>--- --- -- ----- -- --- ---- -- --- ---- -- ------ ------<br>--- ----- -- ----,118409.5,118403.80000001192,118081.294,118080.80000001192,118098.005,118415.514,,3,to
screen,html.Screen,2_1_0_1_4,2022-02-02T17:55:48.994Z,,,,,,,,,,,,,,,,,53,,,,,,,,,,,,,,309.28600001192535,,response,,,,99,,,,,,,Space,keypress(Space),,,,,,,,---- -- ----- -- having - ------- --- ----------<br>------------- ------ ------ ---- ---- ------- ----- -- ----<br>-------- ------- -- ---------- --- - --- ----- ----- ----<br>---- --- --- ----- --- ---- ---- ------- ----- ---- -------<br>--- --- -- ----- -- --- ---- -- --- ---- -- ------ ------<br>--- ----- -- ----,118730.60000000894,118724.80000001192,118398.803,118409.80000001192,118415.514,118733.023,,4,having
screen,html.Screen,2_1_0_1_5,2022-02-02T17:55:49.316Z,,,,,,,,,,,,,,,,,53,,,,,,,,,,,,,,313.6770000029792,,response,,,,99,,,,,,,Space,keypress(Space),,,,,,,,---- -- ----- -- ------ a ------- --- ----------<br>------------- ------ ------ ---- ---- ------- ----- -- ----<br>-------- ------- -- ---------- --- - --- ----- ----- ----<br>---- --- --- ----- --- ---- ---- ------- ----- ---- -------<br>--- --- -- ----- -- --- ---- -- --- ---- -- ------ ------<br>--- ----- -- ----,119052.70000000298,119046.70000000298,118716.312,118730.70000000298,118733.023,119067.243,,5,a
screen,html.Screen,2_1_0_1_6,2022-02-02T17:55:49.623Z,,,,,,,,,,,,,,,,,53,,,,,,,,,,,,,,286.5570000119187,,response,,,,99,,,,,,,Space,keypress(Space),,,,,,,,---- -- ----- -- ------ - lasting --- ----------<br>------------- ------ ------ ---- ---- ------- ----- -- ----<br>-------- ------- -- ---------- --- - --- ----- ----- ----<br>---- --- --- ----- --- ---- ---- ------- ----- ---- -------<br>--- --- -- ----- -- --- ---- -- --- ---- -- ------ ------<br>--- ----- -- ----,119359.60000000894,119353.80000001192,119050.532,119052.90000000596,119067.243,119368.041,,6,lasting
screen,html.Screen,2_1_0_1_7,2022-02-02T17:55:49.945Z,,,,,,,,,,,,,,,,,53,,,,,,,,,,,,,,307.7590000119235,,response,,,,99,,,,,,,Space,keypress(Space),,,,,,,,---- -- ----- -- ------ - ------- and ----------<br>------------- ------ ------ ---- ---- ------- ----- -- ----<br>-------- ------- -- ---------- --- - --- ----- ----- ----<br>---- --- --- ----- --- ---- ---- ------- ----- ---- -------<br>--- --- -- ----- -- --- ---- -- --- ---- -- ------ ------<br>--- ----- -- ----,119682.20000000298,119675.80000001192,119351.33,119359.80000001192,119368.041,119685.55,,7,and
screen,html.Screen,2_1_0_1_8,2022-02-02T17:55:50.449Z,,,,,,,,,,,,,,,,,53,,,,,,,,,,,,,,494.250000011918,,response,,,,99,,,,,,,Space,keypress(Space),,,,,,,,---- -- ----- -- ------ - ------- --- fulfilling<br>------------- ------ ------ ---- ---- ------- ----- -- ----<br>-------- ------- -- ---------- --- - --- ----- ----- ----<br>---- --- --- ----- --- ---- ---- ------- ----- ---- -------<br>--- --- -- ----- -- --- ---- -- --- ---- -- ------ ------<br>--- ----- -- ----,120185.5,120179.80000001192,119668.839,119682.40000000596,119685.55,120203.591,,8,fulfilling
screen,html.Screen,2_1_0_1_9,2022-02-02T17:55:50.767Z,,,,,,,,,,,,,,,,,53,,,,,,,,,,,,,,294.1090000029799,,response,,,,99,,,,,,,Space,keypress(Space),,,,,,,,"---- -- ----- -- ------ - ------- --- ----------<br>relationship, ------ ------ ---- ---- ------- ----- -- ----<br>-------- ------- -- ---------- --- - --- ----- ----- ----<br>---- --- --- ----- --- ---- ---- ------- ----- ---- -------<br>--- --- -- ----- -- --- ---- -- --- ---- -- ------ ------<br>--- ----- -- ----",120503.60000000894,120497.70000000298,120186.88,120185.5,120203.591,120521.1,,9,"relationship,"
screen,html.Screen,2_1_0_1_10,2022-02-02T17:55:51.137Z,,,,,,,,,,,,,,,,,53,,,,,,,,,,,,,,346.6000000029744,,response,,,,99,,,,,,,Space,keypress(Space),,,,,,,,---- -- ----- -- ------ - ------- --- ----------<br>------------- common ------ ---- ---- ------- ----- -- ----<br>-------- ------- -- ---------- --- - --- ----- ----- ----<br>---- --- --- ----- --- ---- ---- ------- ----- ---- -------<br>--- --- -- ----- -- --- ---- -- --- ---- -- ------ ------<br>--- ----- -- ----,120873.80000001192,120867.70000000298,120504.389,120503.70000000298,120521.1,120888.742,,10,common
screen,html.Screen,2_1_0_1_11,2022-02-02T17:55:51.420Z,,,,,,,,,,,,,,,,,53,,,,,,,,,,,,,,261.95800000298186,,response,,,,99,,,,,,,Space,keypress(Space),,,,,,,,---- -- ----- -- ------ - ------- --- ----------<br>------------- ------ wisdom ---- ---- ------- ----- -- ----<br>-------- ------- -- ---------- --- - --- ----- ----- ----<br>---- --- --- ----- --- ---- ---- ------- ----- ---- -------<br>--- --- -- ----- -- --- ---- -- --- ---- -- ------ ------<br>--- ----- -- ----,121156.5,121150.70000000298,120872.031,120874,120888.742,121172.829,,11,wisdom
screen,html.Screen,2_1_0_1_12,2022-02-02T17:55:51.692Z,,,,,,,,,,,,,,,,,53,,,,,,,,,,,,,,249.7710000089428,,response,,,,99,,,,,,,Space,keypress(Space),,,,,,,,---- -- ----- -- ------ - ------- --- ----------<br>------------- ------ ------ says ---- ------- ----- -- ----<br>-------- ------- -- ---------- --- - --- ----- ----- ----<br>---- --- --- ----- --- ---- ---- ------- ----- ---- -------<br>--- --- -- ----- -- --- ---- -- --- ---- -- ------ ------<br>--- ----- -- ----,121428.5,121422.60000000894,121156.118,121156.70000000298,121172.829,121440.205,,12,says
screen,html.Screen,2_1_0_1_13,2022-02-02T17:55:51.936Z,,,,,,,,,,,,,,,,,53,,,,,,,,,,,,,,227.29499999999825,,response,,,,99,,,,,,,Space,keypress(Space),,,,,,,,---- -- ----- -- ------ - ------- --- ----------<br>------------- ------ ------ ---- that ------- ----- -- ----<br>-------- ------- -- ---------- --- - --- ----- ----- ----<br>---- --- --- ----- --- ---- ---- ------- ----- ---- -------<br>--- --- -- ----- -- --- ---- -- --- ---- -- ------ ------<br>--- ----- -- ----,121673.30000001192,121667.5,121423.494,121428.70000000298,121440.205,121690.87,,13,that
screen,html.Screen,2_1_0_1_14,2022-02-02T17:55:52.174Z,,,,,,,,,,,,,,,,,53,,,,,,,,,,,,,,213.73000000894535,,response,,,,99,,,,,,,Space,keypress(Space),,,,,,,,---- -- ----- -- ------ - ------- --- ----------<br>------------- ------ ------ ---- ---- feeling ----- -- ----<br>-------- ------- -- ---------- --- - --- ----- ----- ----<br>---- --- --- ----- --- ---- ---- ------- ----- ---- -------<br>--- --- -- ----- -- --- ---- -- --- ---- -- ------ ------<br>--- ----- -- ----,121910.40000000596,121904.60000000894,121674.159,121673.40000000596,121690.87,121924.824,,14,feeling
screen,html.Screen,2_1_0_1_15,2022-02-02T17:55:52.387Z,,,,,,,,,,,,,,,,,53,,,,,,,,,,,,,,192.67600000000675,,response,,,,99,,,,,,,Space,keypress(Space),,,,,,,,---- -- ----- -- ------ - ------- --- ----------<br>------------- ------ ------ ---- ---- ------- close -- ----<br>-------- ------- -- ---------- --- - --- ----- ----- ----<br>---- --- --- ----- --- ---- ---- ------- ----- ---- -------<br>--- --- -- ----- -- --- ---- -- --- ---- -- ------ ------<br>--- ----- -- ----,122123.40000000596,122117.5,121908.113,121910.5,121924.824,122125.356,,15,close
screen,html.Screen,2_1_0_1_16,2022-02-02T17:55:52.724Z,,,,,,,,,,,,,,,,,53,,,,,,,,,,,,,,329.24400000894093,,response,,,,99,,,,,,,Space,keypress(Space),,,,,,,,---- -- ----- -- ------ - ------- --- ----------<br>------------- ------ ------ ---- ---- ------- ----- to ----<br>-------- ------- -- ---------- --- - --- ----- ----- ----<br>---- --- --- ----- --- ---- ---- ------- ----- ---- -------<br>--- --- -- ----- -- --- ---- -- --- ---- -- ------ ------<br>--- ----- -- ----,122460.5,122454.60000000894,122108.645,122123.60000000894,122125.356,122476.287,,16,to
screen,html.Screen,2_1_0_1_17,2022-02-02T17:55:53.009Z,,,,,,,,,,,,,,,,,53,,,,,,,,,,,,,,263.3130000089441,,response,,,,99,,,,,,,Space,keypress(Space),,,,,,,,---- -- ----- -- ------ - ------- --- ----------<br>------------- ------ ------ ---- ---- ------- ----- -- your<br>-------- ------- -- ---------- --- - --- ----- ----- ----<br>---- --- --- ----- --- ---- ---- ------- ----- ---- -------<br>--- --- -- ----- -- --- ---- -- --- ---- -- ------ ------<br>--- ----- -- ----,122745.40000000596,122739.60000000894,122459.576,122460.70000000298,122476.287,122760.374,,17,your
screen,html.Screen,2_1_0_1_18,2022-02-02T17:55:53.343Z,,,,,,,,,,,,,,,,,53,,,,,,,,,,,,,,313.22600000894454,,response,,,,99,,,,,,,Space,keypress(Space),,,,,,,,---- -- ----- -- ------ - ------- --- ----------<br>------------- ------ ------ ---- ---- ------- ----- -- ----<br>romantic ------- -- ---------- --- - --- ----- ----- ----<br>---- --- --- ----- --- ---- ---- ------- ----- ---- -------<br>--- --- -- ----- -- --- ---- -- --- ---- -- ------ ------<br>--- ----- -- ----,123079.30000001192,123073.60000000894,122743.663,122745.60000000894,122760.374,123094.594,,18,romantic
screen,html.Screen,2_1_0_1_19,2022-02-02T17:55:53.696Z,,,,,,,,,,,,,,,,,53,,,,,,,,,,,,,,332.0060000089434,,response,,,,99,,,,,,,Space,keypress(Space),,,,,,,,---- -- ----- -- ------ - ------- --- ----------<br>------------- ------ ------ ---- ---- ------- ----- -- ----<br>-------- partner -- ---------- --- - --- ----- ----- ----<br>---- --- --- ----- --- ---- ---- ------- ----- ---- -------<br>--- --- -- ----- -- --- ---- -- --- ---- -- ------ ------<br>--- ----- -- ----,123432.40000000596,123426.60000000894,123077.883,123079.5,123094.594,123445.525,,19,partner
screen,html.Screen,2_1_0_1_20,2022-02-02T17:55:53.956Z,,,,,,,,,,,,,,,,,53,,,,,,,,,,,,,,242.07500000894652,,response,,,,99,,,,,,,Space,keypress(Space),,,,,,,,---- -- ----- -- ------ - ------- --- ----------<br>------------- ------ ------ ---- ---- ------- ----- -- ----<br>-------- ------- is ---------- --- - --- ----- ----- ----<br>---- --- --- ----- --- ---- ---- ------- ----- ---- -------<br>--- --- -- ----- -- --- ---- -- --- ---- -- ------ ------<br>--- ----- -- ----,123693.20000000298,123687.60000000894,123428.814,123432.5,123445.525,123696.19,,20,is
screen,html.Screen,2_1_0_1_21,2022-02-02T17:55:54.186Z,,,,,,,,,,,,,,,,,53,,,,,,,,,,,,,,220.30999999999767,,response,,,,99,,,,,,,Space,keypress(Space),,,,,,,,---- -- ----- -- ------ - ------- --- ----------<br>------------- ------ ------ ---- ---- ------- ----- -- ----<br>-------- ------- -- paramount. --- - --- ----- ----- ----<br>---- --- --- ----- --- ---- ---- ------- ----- ---- -------<br>--- --- -- ----- -- --- ---- -- --- ---- -- ------ ------<br>--- ----- -- ----,123922.40000000596,123916.5,123679.479,123693.40000000596,123696.19,123930.144,,21,paramount.
screen,html.Screen,2_1_0_1_22,2022-02-02T17:55:54.740Z,,,,,,,,,,,,,,,,,53,,,,,,,,,,,,,,540.3559999999998,,response,,,,99,,,,,,,Space,keypress(Space),,,,,,,,---- -- ----- -- ------ - ------- --- ----------<br>------------- ------ ------ ---- ---- ------- ----- -- ----<br>-------- ------- -- ---------- But - --- ----- ----- ----<br>---- --- --- ----- --- ---- ---- ------- ----- ---- -------<br>--- --- -- ----- -- --- ---- -- --- ---- -- ------ ------<br>--- ----- -- ----,124476.30000001192,124470.5,123913.433,123922.60000000894,123930.144,124481.607,,22,But
screen,html.Screen,2_1_0_1_23,2022-02-02T17:55:54.952Z,,,,,,,,,,,,,,,,,53,,,,,,,,,,,,,,200.8929999999964,,response,,,,99,,,,,,,Space,keypress(Space),,,,,,,,---- -- ----- -- ------ - ------- --- ----------<br>------------- ------ ------ ---- ---- ------- ----- -- ----<br>-------- ------- -- ---------- --- a --- ----- ----- ----<br>---- --- --- ----- --- ---- ---- ------- ----- ---- -------<br>--- --- -- ----- -- --- ---- -- --- ---- -- ------ ------<br>--- ----- -- ----,124688.40000000596,124682.5,124464.896,124476.5,124481.607,124698.85,,23,a
screen,html.Screen,2_1_0_1_24,2022-02-02T17:55:55.165Z,,,,,,,,,,,,,,,,,53,,,,,,,,,,,,,,196.64999999999418,,response,,,,99,,,,,,,Space,keypress(Space),,,,,,,,---- -- ----- -- ------ - ------- --- ----------<br>------------- ------ ------ ---- ---- ------- ----- -- ----<br>-------- ------- -- ---------- --- - new ----- ----- ----<br>---- --- --- ----- --- ---- ---- ------- ----- ---- -------<br>--- --- -- ----- -- --- ---- -- --- ---- -- ------ ------<br>--- ----- -- ----,124901.30000001192,124895.5,124682.139,124688.5,124698.85,124916.093,,24,new
screen,html.Screen,2_1_0_1_25,2022-02-02T17:55:55.393Z,,,,,,,,,,,,,,,,,53,,,,,,,,,,,,,,207.40700000000652,,response,,,,99,,,,,,,Space,keypress(Space),,,,,,,,---- -- ----- -- ------ - ------- --- ----------<br>------------- ------ ------ ---- ---- ------- ----- -- ----<br>-------- ------- -- ---------- --- - --- study ----- ----<br>---- --- --- ----- --- ---- ---- ------- ----- ---- -------<br>--- --- -- ----- -- --- ---- -- --- ---- -- ------ ------<br>--- ----- -- ----,125129.40000000596,125123.5,124899.382,124901.5,124916.093,125133.336,,25,study
screen,html.Screen,2_1_0_1_26,2022-02-02T17:55:55.571Z,,,,,,,,,,,,,,,,,53,,,,,,,,,,,,,,168.1640000000043,,response,,,,99,,,,,,,Space,keypress(Space),,,,,,,,---- -- ----- -- ------ - ------- --- ----------<br>------------- ------ ------ ---- ---- ------- ----- -- ----<br>-------- ------- -- ---------- --- - --- ----- finds ----<br>---- --- --- ----- --- ---- ---- ------- ----- ---- -------<br>--- --- -- ----- -- --- ---- -- --- ---- -- ------ ------<br>--- ----- -- ----,125307.40000000596,125301.5,125116.625,125129.5,125133.336,125317.157,,26,finds
screen,html.Screen,2_1_0_1_27,2022-02-02T17:55:55.971Z,,,,,,,,,,,,,,,,,53,,,,,,,,,,,,,,383.3429999999935,,response,,,,99,,,,,,,Space,keypress(Space),,,,,,,,---- -- ----- -- ------ - ------- --- ----------<br>------------- ------ ------ ---- ---- ------- ----- -- ----<br>-------- ------- -- ---------- --- - --- ----- ----- that<br>---- --- --- ----- --- ---- ---- ------- ----- ---- -------<br>--- --- -- ----- -- --- ---- -- --- ---- -- ------ ------<br>--- ----- -- ----,125707.80000001192,125700.5,125300.446,125307.5,125317.157,125718.221,,27,that
screen,html.Screen,2_1_0_1_28,2022-02-02T17:55:56.338Z,,,,,,,,,,,,,,,,,53,,,,,,,,,,,,,,350.17900000595546,,response,,,,99,,,,,,,Space,keypress(Space),,,,,,,,---- -- ----- -- ------ - ------- --- ----------<br>------------- ------ ------ ---- ---- ------- ----- -- ----<br>-------- ------- -- ---------- --- - --- ----- ----- ----<br>it's --- --- ----- --- ---- ---- ------- ----- ---- -------<br>--- --- -- ----- -- --- ---- -- --- ---- -- ------ ------<br>--- ----- -- ----,126074.40000000596,126068.40000000596,125701.51,125707.90000000596,125718.221,126085.863,,28,it's
screen,html.Screen,2_1_0_1_29,2022-02-02T17:55:56.580Z,,,,,,,,,,,,,,,,,53,,,,,,,,,,,,,,225.5370000059629,,response,,,,99,,,,,,,Space,keypress(Space),,,,,,,,---- -- ----- -- ------ - ------- --- ----------<br>------------- ------ ------ ---- ---- ------- ----- -- ----<br>-------- ------- -- ---------- --- - --- ----- ----- ----<br>---- not --- ----- --- ---- ---- ------- ----- ---- -------<br>--- --- -- ----- -- --- ---- -- --- ---- -- ------ ------<br>--- ----- -- ----,126317.20000000298,126311.40000000596,126069.152,126074.60000000894,126085.863,126319.817,,29,not
screen,html.Screen,2_1_0_1_30,2022-02-02T17:55:56.843Z,,,,,,,,,,,,,,,,,53,,,,,,,,,,,,,,254.68300000000454,,response,,,,99,,,,,,,Space,keypress(Space),,,,,,,,---- -- ----- -- ------ - ------- --- ----------<br>------------- ------ ------ ---- ---- ------- ----- -- ----<br>-------- ------- -- ---------- --- - --- ----- ----- ----<br>---- --- how ----- --- ---- ---- ------- ----- ---- -------<br>--- --- -- ----- -- --- ---- -- --- ---- -- ------ ------<br>--- ----- -- ----,126580.20000000298,126574.5,126303.106,126317.40000000596,126319.817,126587.193,,30,how
screen,html.Screen,2_1_0_1_31,2022-02-02T17:55:57.095Z,,,,,,,,,,,,,,,,,53,,,,,,,,,,,,,,236.20700000596116,,response,,,,99,,,,,,,Space,keypress(Space),,,,,,,,---- -- ----- -- ------ - ------- --- ----------<br>------------- ------ ------ ---- ---- ------- ----- -- ----<br>-------- ------- -- ---------- --- - --- ----- ----- ----<br>---- --- --- close --- ---- ---- ------- ----- ---- -------<br>--- --- -- ----- -- --- ---- -- --- ---- -- ------ ------<br>--- ----- -- ----,126831.5,126823.40000000596,126570.482,126580.40000000596,126587.193,126837.858,,31,close
screen,html.Screen,2_1_0_1_32,2022-02-02T17:55:57.314Z,,,,,,,,,,,,,,,,,53,,,,,,,,,,,,,,207.54200000596757,,response,,,,99,,,,,,,Space,keypress(Space),,,,,,,,---- -- ----- -- ------ - ------- --- ----------<br>------------- ------ ------ ---- ---- ------- ----- -- ----<br>-------- ------- -- ---------- --- - --- ----- ----- ----<br>---- --- --- ----- you ---- ---- ------- ----- ---- -------<br>--- --- -- ----- -- --- ---- -- --- ---- -- ------ ------<br>--- ----- -- ----,127051.20000000298,127045.40000000596,126821.147,126831.60000000894,126837.858,127055.282,,32,you
screen,html.Screen,2_1_0_1_33,2022-02-02T17:55:57.538Z,,,,,,,,,,,,,,,,,53,,,,,,,,,,,,,,213.11800000595395,,response,,,,99,,,,,,,Space,keypress(Space),,,,,,,,---- -- ----- -- ------ - ------- --- ----------<br>------------- ------ ------ ---- ---- ------- ----- -- ----<br>-------- ------- -- ---------- --- - --- ----- ----- ----<br>---- --- --- ----- --- feel ---- ------- ----- ---- -------<br>--- --- -- ----- -- --- ---- -- --- ---- -- ------ ------<br>--- ----- -- ----,127274.5,127268.40000000596,127038.571,127051.30000001192,127055.282,127289.236,,33,feel
screen,html.Screen,2_1_0_1_34,2022-02-02T17:55:57.761Z,,,,,,,,,,,,,,,,,53,,,,,,,,,,,,,,202.16400000595604,,response,,,,99,,,,,,,Space,keypress(Space),,,,,,,,---- -- ----- -- ------ - ------- --- ----------<br>------------- ------ ------ ---- ---- ------- ----- -- ----<br>-------- ------- -- ---------- --- - --- ----- ----- ----<br>---- --- --- ----- --- ---- that ------- ----- ---- -------<br>--- --- -- ----- -- --- ---- -- --- ---- -- ------ ------<br>--- ----- -- ----,127497.60000000894,127491.40000000596,127272.525,127274.70000000298,127289.236,127506.479,,34,that
screen,html.Screen,2_1_0_1_35,2022-02-02T17:55:57.999Z,,,,,,,,,,,,,,,,,53,,,,,,,,,,,,,,222.8210000119143,,response,,,,99,,,,,,,Space,keypress(Space),,,,,,,,---- -- ----- -- ------ - ------- --- ----------<br>------------- ------ ------ ---- ---- ------- ----- -- ----<br>-------- ------- -- ---------- --- - --- ----- ----- ----<br>---- --- --- ----- --- ---- ---- matters ----- ---- -------<br>--- --- -- ----- -- --- ---- -- --- ---- -- ------ ------<br>--- ----- -- ----,127735.30000001192,127729.30000001192,127489.768,127497.70000000298,127506.479,127740.433,,35,matters
screen,html.Screen,2_1_0_1_36,2022-02-02T17:55:58.228Z,,,,,,,,,,,,,,,,,53,,,,,,,,,,,,,,217.8670000119164,,response,,,,99,,,,,,,Space,keypress(Space),,,,,,,,"---- -- ----- -- ------ - ------- --- ----------<br>------------- ------ ------ ---- ---- ------- ----- -- ----<br>-------- ------- -- ---------- --- - --- ----- ----- ----<br>---- --- --- ----- --- ---- ---- ------- most, ---- -------<br>--- --- -- ----- -- --- ---- -- --- ---- -- ------ ------<br>--- ----- -- ----",127964.40000000596,127958.30000001192,127723.722,127735.90000000596,127740.433,127974.387,,36,"most,"
screen,html.Screen,2_1_0_1_37,2022-02-02T17:55:58.447Z,,,,,,,,,,,,,,,,,53,,,,,,,,,,,,,,204.01300000595802,,response,,,,99,,,,,,,Space,keypress(Space),,,,,,,,---- -- ----- -- ------ - ------- --- ----------<br>------------- ------ ------ ---- ---- ------- ----- -- ----<br>-------- ------- -- ---------- --- - --- ----- ----- ----<br>---- --- --- ----- --- ---- ---- ------- ----- it's -------<br>--- --- -- ----- -- --- ---- -- --- ---- -- ------ ------<br>--- ----- -- ----,128184.10000000894,128178.40000000596,127957.676,127964.5,127974.387,128191.63,,37,it's
screen,html.Screen,2_1_0_1_38,2022-02-02T17:55:58.772Z,,,,,,,,,,,,,,,,,53,,,,,,,,,,,,,,311.6700000119163,,response,,,,99,,,,,,,Space,keypress(Space),,,,,,,,---- -- ----- -- ------ - ------- --- ----------<br>------------- ------ ------ ---- ---- ------- ----- -- ----<br>-------- ------- -- ---------- --- - --- ----- ----- ----<br>---- --- --- ----- --- ---- ---- ------- ----- ---- whether<br>--- --- -- ----- -- --- ---- -- --- ---- -- ------ ------<br>--- ----- -- ----,128508.90000000596,128503.30000001192,128174.919,128184.30000001192,128191.63,128525.85,,38,whether
screen,html.Screen,2_1_0_1_39,2022-02-02T17:55:59.049Z,,,,,,,,,,,,,,,,,53,,,,,,,,,,,,,,254.4500000119151,,response,,,,99,,,,,,,Space,keypress(Space),,,,,,,,---- -- ----- -- ------ - ------- --- ----------<br>------------- ------ ------ ---- ---- ------- ----- -- ----<br>-------- ------- -- ---------- --- - --- ----- ----- ----<br>---- --- --- ----- --- ---- ---- ------- ----- ---- -------<br>you --- -- ----- -- --- ---- -- --- ---- -- ------ ------<br>--- ----- -- ----,128786,128780.30000001192,128509.139,128509.10000000894,128525.85,128793.226,,39,you
screen,html.Screen,2_1_0_1_40,2022-02-02T17:55:59.265Z,,,,,,,,,,,,,,,,,53,,,,,,,,,,,,,,203.07400001192582,,response,,,,99,,,,,,,Space,keypress(Space),,,,,,,,---- -- ----- -- ------ - ------- --- ----------<br>------------- ------ ------ ---- ---- ------- ----- -- ----<br>-------- ------- -- ---------- --- - --- ----- ----- ----<br>---- --- --- ----- --- ---- ---- ------- ----- ---- -------<br>--- are -- ----- -- --- ---- -- --- ---- -- ------ ------<br>--- ----- -- ----,129002.10000000894,128996.30000001192,128776.515,128786.20000000298,128793.226,129010.469,,40,are
screen,html.Screen,2_1_0_1_41,2022-02-02T17:55:59.543Z,,,,,,,,,,,,,,,,,53,,,,,,,,,,,,,,263.8310000119236,,response,,,,99,,,,,,,Space,keypress(Space),,,,,,,,---- -- ----- -- ------ - ------- --- ----------<br>------------- ------ ------ ---- ---- ------- ----- -- ----<br>-------- ------- -- ---------- --- - --- ----- ----- ----<br>---- --- --- ----- --- ---- ---- ------- ----- ---- -------<br>--- --- as ----- -- --- ---- -- --- ---- -- ------ ------<br>--- ----- -- ----,129280,129274.30000001192,128993.758,129002.30000001192,129010.469,129294.556,,41,as
screen,html.Screen,2_1_0_1_42,2022-02-02T17:55:59.856Z,,,,,,,,,,,,,,,,,53,,,,,,,,,,,,,,292.7440000119241,,response,,,,99,,,,,,,Space,keypress(Space),,,,,,,,---- -- ----- -- ------ - ------- --- ----------<br>------------- ------ ------ ---- ---- ------- ----- -- ----<br>-------- ------- -- ---------- --- - --- ----- ----- ----<br>---- --- --- ----- --- ---- ---- ------- ----- ---- -------<br>--- --- -- close -- --- ---- -- --- ---- -- ------ ------<br>--- ----- -- ----,129593.10000000894,129587.30000001192,129277.845,129280.20000000298,129294.556,129595.354,,42,close
screen,html.Screen,2_1_0_1_43,2022-02-02T17:56:00.132Z,,,,,,,,,,,,,,,,,53,,,,,,,,,,,,,,267.8460000029736,,response,,,,99,,,,,,,Space,keypress(Space),,,,,,,,---- -- ----- -- ------ - ------- --- ----------<br>------------- ------ ------ ---- ---- ------- ----- -- ----<br>-------- ------- -- ---------- --- - --- ----- ----- ----<br>---- --- --- ----- --- ---- ---- ------- ----- ---- -------<br>--- --- -- ----- as --- ---- -- --- ---- -- ------ ------<br>--- ----- -- ----,129869.10000000894,129863.20000000298,129578.643,129593.20000000298,129595.354,129879.441,,43,as
screen,html.Screen,2_1_0_1_44,2022-02-02T17:56:00.391Z,,,,,,,,,,,,,,,,,53,,,,,,,,,,,,,,242.75900000297406,,response,,,,99,,,,,,,Space,keypress(Space),,,,,,,,---- -- ----- -- ------ - ------- --- ----------<br>------------- ------ ------ ---- ---- ------- ----- -- ----<br>-------- ------- -- ---------- --- - --- ----- ----- ----<br>---- --- --- ----- --- ---- ---- ------- ----- ---- -------<br>--- --- -- ----- -- you ---- -- --- ---- -- ------ ------<br>--- ----- -- ----,130128,130122.20000000298,129862.73,129869.30000001192,129879.441,130146.817,,44,you
screen,html.Screen,2_1_0_1_45,2022-02-02T17:56:00.680Z,,,,,,,,,,,,,,,,,53,,,,,,,,,,,,,,264.28300000894524,,response,,,,99,,,,,,,Space,keypress(Space),,,,,,,,---- -- ----- -- ------ - ------- --- ----------<br>------------- ------ ------ ---- ---- ------- ----- -- ----<br>-------- ------- -- ---------- --- - --- ----- ----- ----<br>---- --- --- ----- --- ---- ---- ------- ----- ---- -------<br>--- --- -- ----- -- --- want -- --- ---- -- ------ ------<br>--- ----- -- ----,130416.90000000596,130411.10000000894,130130.106,130128.20000000298,130146.817,130430.904,,45,want
screen,html.Screen,2_1_0_1_46,2022-02-02T17:56:00.950Z,,,,,,,,,,,,,,,,,53,,,,,,,,,,,,,,250.29600000298524,,response,,,,99,,,,,,,Space,keypress(Space),,,,,,,,---- -- ----- -- ------ - ------- --- ----------<br>------------- ------ ------ ---- ---- ------- ----- -- ----<br>-------- ------- -- ---------- --- - --- ----- ----- ----<br>---- --- --- ----- --- ---- ---- ------- ----- ---- -------<br>--- --- -- ----- -- --- ---- to --- ---- -- ------ ------<br>--- ----- -- ----,130687.10000000894,130681.20000000298,130414.193,130417,130430.904,130698.28,,46,to
screen,html.Screen,2_1_0_1_47,2022-02-02T17:56:01.221Z,,,,,,,,,,,,,,,,,53,,,,,,,,,,,,,,252.9200000029814,,response,,,,99,,,,,,,Space,keypress(Space),,,,,,,,"---- -- ----- -- ------ - ------- --- ----------<br>------------- ------ ------ ---- ---- ------- ----- -- ----<br>-------- ------- -- ---------- --- - --- ----- ----- ----<br>---- --- --- ----- --- ---- ---- ------- ----- ---- -------<br>--- --- -- ----- -- --- ---- -- be, ---- -- ------ ------<br>--- ----- -- ----",130957.70000000298,130951.20000000298,130681.569,130687.30000001192,130698.28,130965.656,,47,"be,"
screen,html.Screen,2_1_0_1_48,2022-02-02T17:56:01.483Z,,,,,,,,,,,,,,,,,53,,,,,,,,,,,,,,248.54400000297755,,response,,,,99,,,,,,,Space,keypress(Space),,,,,,,,---- -- ----- -- ------ - ------- --- ----------<br>------------- ------ ------ ---- ---- ------- ----- -- ----<br>-------- ------- -- ---------- --- - --- ----- ----- ----<br>---- --- --- ----- --- ---- ---- ------- ----- ---- -------<br>--- --- -- ----- -- --- ---- -- --- even -- ------ ------<br>--- ----- -- ----,131220,131214.20000000298,130948.945,130958.10000000894,130965.656,131233.032,,48,even
screen,html.Screen,2_1_0_1_49,2022-02-02T17:56:01.711Z,,,,,,,,,,,,,,,,,53,,,,,,,,,,,,,,209.1680000029737,,response,,,,99,,,,,,,Space,keypress(Space),,,,,,,,---- -- ----- -- ------ - ------- --- ----------<br>------------- ------ ------ ---- ---- ------- ----- -- ----<br>-------- ------- -- ---------- --- - --- ----- ----- ----<br>---- --- --- ----- --- ---- ---- ------- ----- ---- -------<br>--- --- -- ----- -- --- ---- -- --- ---- if ------ ------<br>--- ----- -- ----,131448,131442.20000000298,131216.321,131220.20000000298,131233.032,131450.275,,49,if
screen,html.Screen,2_1_0_1_50,2022-02-02T17:56:01.938Z,,,,,,,,,,,,,,,,,53,,,,,,,,,,,,,,218.82500000894652,,response,,,,99,,,,,,,Space,keypress(Space),,,,,,,,---- -- ----- -- ------ - ------- --- ----------<br>------------- ------ ------ ---- ---- ------- ----- -- ----<br>-------- ------- -- ---------- --- - --- ----- ----- ----<br>---- --- --- ----- --- ---- ---- ------- ----- ---- -------<br>--- --- -- ----- -- --- ---- -- --- ---- -- that's ------<br>--- ----- -- ----,131675,131669.10000000894,131433.564,131448.10000000894,131450.275,131684.229,,50,that's
screen,html.Screen,2_1_0_1_51,2022-02-02T17:56:02.178Z,,,,,,,,,,,,,,,,,53,,,,,,,,,,,,,,224.97100000298815,,response,,,,99,,,,,,,Space,keypress(Space),,,,,,,,---- -- ----- -- ------ - ------- --- ----------<br>------------- ------ ------ ---- ---- ------- ----- -- ----<br>-------- ------- -- ---------- --- - --- ----- ----- ----<br>---- --- --- ----- --- ---- ---- ------- ----- ---- -------<br>--- --- -- ----- -- --- ---- -- --- ---- -- ------ really<br>--- ----- -- ----,131915.10000000894,131909.20000000298,131667.518,131675.20000000298,131684.229,131918.183,,51,really
screen,html.Screen,2_1_0_1_52,2022-02-02T17:56:02.635Z,,,,,,,,,,,,,,,,,53,,,,,,,,,,,,,,447.9170000089507,,response,,,,99,,,,,,,Space,keypress(Space),,,,,,,,---- -- ----- -- ------ - ------- --- ----------<br>------------- ------ ------ ---- ---- ------- ----- -- ----<br>-------- ------- -- ---------- --- - --- ----- ----- ----<br>---- --- --- ----- --- ---- ---- ------- ----- ---- -------<br>--- --- -- ----- -- --- ---- -- --- ---- -- ------ ------<br>not ----- -- ----,132372,132366.10000000894,131901.472,131915.20000000298,131918.183,132386.091,,52,not
screen,html.Screen,2_1_0_1_53,2022-02-02T17:56:02.841Z,,,,,,,,,,,,,,,,,53,,,,,,,,,,,,,,186.0090000089549,,response,,,,99,,,,,,,Space,keypress(Space),,,,,,,,---- -- ----- -- ------ - ------- --- ----------<br>------------- ------ ------ ---- ---- ------- ----- -- ----<br>-------- ------- -- ---------- --- - --- ----- ----- ----<br>---- --- --- ----- --- ---- ---- ------- ----- ---- -------<br>--- --- -- ----- -- --- ---- -- --- ---- -- ------ ------<br>--- close -- ----,132577.90000000596,132572.10000000894,132369.38,132372.10000000894,132386.091,132586.623,,53,close
screen,html.Screen,2_1_0_1_54,2022-02-02T17:56:03.091Z,,,,,,,,,,,,,,,,,53,,,,,,,,,,,,,,235.37700000000768,,response,,,,99,,,,,,,Space,keypress(Space),,,,,,,,---- -- ----- -- ------ - ------- --- ----------<br>------------- ------ ------ ---- ---- ------- ----- -- ----<br>-------- ------- -- ---------- --- - --- ----- ----- ----<br>---- --- --- ----- --- ---- ---- ------- ----- ---- -------<br>--- --- -- ----- -- --- ---- -- --- ---- -- ------ ------<br>--- ----- at ----,132827.70000000298,132822,132569.912,132578.10000000894,132586.623,132837.288,,54,at
screen,html.Screen,2_1_0_1_55,2022-02-02T17:56:03.535Z,,,,,,,,,,,,,,,,,53,,,,,,,,,,,,,,428.71199999999953,,response,,,,99,,,,,,,Space,keypress(Space),,,,,,,,---- -- ----- -- ------ - ------- --- ----------<br>------------- ------ ------ ---- ---- ------- ----- -- ----<br>-------- ------- -- ---------- --- - --- ----- ----- ----<br>---- --- --- ----- --- ---- ---- ------- ----- ---- -------<br>--- --- -- ----- -- --- ---- -- --- ---- -- ------ ------<br>--- ----- -- all.,133272,133266,132820.577,132827.90000000596,132837.288,133288.485,,55,all.
Item 99,flow.Loop,2_1_0_1,2022-02-02T17:56:03.536Z,,,,,,,,,,,,,,,,,,,,,,,,,,,,,,,16822.592999999993,,completion,,,,,E,,,,,,,,,,,silence,,,,,133272.5,133266,116409.985,116411.40000000596,116443.407,133288.485,,,
Question 1,html.Screen,2_1_0_2,2022-02-02T17:56:08.121Z,,,,,,,,,,,,,,,,,,,,,,,,,,,,true,FALSE,,4565.915000005974,,response,,,,99,E,,,,,,FALSE,click #choice-2,,,,silence,,,,,137858.10000000894,137854.40000000596,133271.774,133272.70000000298,133288.485,137867.48,,,
Question 2,html.Screen,2_1_0_3,2022-02-02T17:56:11.987Z,,,,,,,,,,,,,,,,,,,,,,,,,,,,true,TRUE,,3854.2200000029698,,response,,,,99,E,,,,,,TRUE,click #choice-1,,,,silence,,,,,141724.30000001192,141721.70000000298,137850.769,137858.30000001192,137867.48,141744.432,,,
Item 99,flow.Sequence,2_1_0,2022-02-02T17:56:11.987Z,,,,,,,,,,,,,,,,,,,,,,,,,,,,,,,35288.483000002976,,completion,,,,,,,,,,,,,,,,,,,,,141724.40000000596,141721.70000000298,106416.506,106433.70000000298,106433.217,141744.432,,,
Holding screen,html.Screen,2_1_1_0,2022-02-02T17:56:21.986Z,,,,,,,,,,,,,,,,,,,,,,,,,,,,,,,9993.378999999986,,timeout,,,,,,,,,,,,,,,,,,,,,151723.10000000894,151721.1,141727.721,141724.60000000894,141744.432,151737.811,,,
screen,html.Screen,2_1_1_1_0,2022-02-02T17:56:22.804Z,,,,,,,,,,,,,,,,,54,,,,,,,,,,,,,,795.0890000059735,,response,,,,100,,,,,,,Space,keypress(Space),,,,,,,,At --- ---- --- ------ ----- ------- ---- -- --- ------- --<br>------- ---------- ------ -- ----- -- ----- -- ---- ------<br>--- ----- --- --- ------ -------- ----- --- ------ ----- --<br>----- ----- ---------- --- --- ------ ------ ---- -- ------<br>------- --- ------ ----- --- ---- ------- -- ---- --- --<br>------- ------,152541.30000001192,152532.90000000596,151721.1,151723.30000001192,151737.811,152556.65,,0,At
screen,html.Screen,2_1_1_1_1,2022-02-02T17:56:23.152Z,,,,,,,,,,,,,,,,,54,,,,,,,,,,,,,,326.05000000298605,,response,,,,100,,,,,,,Space,keypress(Space),,,,,,,,-- the ---- --- ------ ----- ------- ---- -- --- ------- --<br>------- ---------- ------ -- ----- -- ----- -- ---- ------<br>--- ----- --- --- ------ -------- ----- --- ------ ----- --<br>----- ----- ---------- --- --- ------ ------ ---- -- ------<br>------- --- ------ ----- --- ---- ------- -- ---- --- --<br>------- ------,152888.80000001192,152882.70000000298,152539.939,152541.60000000894,152556.65,152890.87,,1,the
screen,html.Screen,2_1_1_1_2,2022-02-02T17:56:23.483Z,,,,,,,,,,,,,,,,,54,,,,,,,,,,,,,,322.8300000029849,,response,,,,100,,,,,,,Space,keypress(Space),,,,,,,,-- --- time --- ------ ----- ------- ---- -- --- ------- --<br>------- ---------- ------ -- ----- -- ----- -- ---- ------<br>--- ----- --- --- ------ -------- ----- --- ------ ----- --<br>----- ----- ---------- --- --- ------ ------ ---- -- ------<br>------- --- ------ ----- --- ---- ------- -- ---- --- --<br>------- ------,153219.80000001192,153213.70000000298,152874.159,152889,152890.87,153225.09,,2,time
screen,html.Screen,2_1_1_1_3,2022-02-02T17:56:23.802Z,,,,,,,,,,,,,,,,,54,,,,,,,,,,,,,,308.6100000029837,,response,,,,100,,,,,,,Space,keypress(Space),,,,,,,,-- --- ---- the ------ ----- ------- ---- -- --- ------- --<br>------- ---------- ------ -- ----- -- ----- -- ---- ------<br>--- ----- --- --- ------ -------- ----- --- ------ ----- --<br>----- ----- ---------- --- --- ------ ------ ---- -- ------<br>------- --- ------ ----- --- ---- ------- -- ---- --- --<br>------- ------,153539.40000000596,153533.70000000298,153208.379,153219.90000000596,153225.09,153542.599,,3,the
screen,html.Screen,2_1_1_1_4,2022-02-02T17:56:24.112Z,,,,,,,,,,,,,,,,,54,,,,,,,,,,,,,,301.1010000029928,,response,,,,100,,,,,,,Space,keypress(Space),,,,,,,,-- --- ---- --- French ----- ------- ---- -- --- ------- --<br>------- ---------- ------ -- ----- -- ----- -- ---- ------<br>--- ----- --- --- ------ -------- ----- --- ------ ----- --<br>----- ----- ---------- --- --- ------ ------ ---- -- ------<br>------- --- ------ ----- --- ---- ------- -- ---- --- --<br>------- ------,153849.5,153843.70000000298,153525.888,153539.60000000894,153542.599,153860.108,,4,French
screen,html.Screen,2_1_1_1_5,2022-02-02T17:56:24.421Z,,,,,,,,,,,,,,,,,54,,,,,,,,,,,,,,292.5920000029728,,response,,,,100,,,,,,,Space,keypress(Space),,,,,,,,-- --- ---- --- ------ crown ------- ---- -- --- ------- --<br>------- ---------- ------ -- ----- -- ----- -- ---- ------<br>--- ----- --- --- ------ -------- ----- --- ------ ----- --<br>----- ----- ---------- --- --- ------ ------ ---- -- ------<br>------- --- ------ ----- --- ---- ------- -- ---- --- --<br>------- ------,154158.60000000894,154152.70000000298,153843.397,153849.60000000894,153860.108,154160.906,,5,crown
screen,html.Screen,2_1_1_1_6,2022-02-02T17:56:24.682Z,,,,,,,,,,,,,,,,,54,,,,,,,,,,,,,,252.69400000895257,,response,,,,100,,,,,,,Space,keypress(Space),,,,,,,,-- --- ---- --- ------ ----- secured ---- -- --- ------- --<br>------- ---------- ------ -- ----- -- ----- -- ---- ------<br>--- ----- --- --- ------ -------- ----- --- ------ ----- --<br>----- ----- ---------- --- --- ------ ------ ---- -- ------<br>------- --- ------ ----- --- ---- ------- -- ---- --- --<br>------- ------,154419.40000000596,154413.60000000894,154144.195,154158.80000001192,154160.906,154428.282,,6,secured
screen,html.Screen,2_1_1_1_7,2022-02-02T17:56:24.924Z,,,,,,,,,,,,,,,,,54,,,,,,,,,,,,,,227.31800000893418,,response,,,,100,,,,,,,Space,keypress(Space),,,,,,,,-- --- ---- --- ------ ----- ------- much -- --- ------- --<br>------- ---------- ------ -- ----- -- ----- -- ---- ------<br>--- ----- --- --- ------ -------- ----- --- ------ ----- --<br>----- ----- ---------- --- --- ------ ------ ---- -- ------<br>------- --- ------ ----- --- ---- ------- -- ---- --- --<br>------- ------,154661.30000001192,154655.60000000894,154411.571,154419.60000000894,154428.282,154678.947,,7,much
screen,html.Screen,2_1_1_1_8,2022-02-02T17:56:25.116Z,,,,,,,,,,,,,,,,,54,,,,,,,,,,,,,,168.65300000895513,,response,,,,100,,,,,,,Space,keypress(Space),,,,,,,,-- --- ---- --- ------ ----- ------- ---- of --- ------- --<br>------- ---------- ------ -- ----- -- ----- -- ---- ------<br>--- ----- --- --- ------ -------- ----- --- ------ ----- --<br>----- ----- ---------- --- --- ------ ------ ---- -- ------<br>------- --- ------ ----- --- ---- ------- -- ---- --- --<br>------- ------,154853.40000000596,154847.60000000894,154662.236,154661.5,154678.947,154862.768,,8,of
screen,html.Screen,2_1_1_1_9,2022-02-02T17:56:25.436Z,,,,,,,,,,,,,,,,,54,,,,,,,,,,,,,,304.73199999998906,,response,,,,100,,,,,,,Space,keypress(Space),,,,,,,,-- --- ---- --- ------ ----- ------- ---- -- its ------- --<br>------- ---------- ------ -- ----- -- ----- -- ---- ------<br>--- ----- --- --- ------ -------- ----- --- ------ ----- --<br>----- ----- ---------- --- --- ------ ------ ---- -- ------<br>------- --- ------ ----- --- ---- ------- -- ---- --- --<br>------- ------,155173.20000000298,155167.5,154846.057,154853.60000000894,154862.768,155180.277,,9,its
screen,html.Screen,2_1_1_1_10,2022-02-02T17:56:25.663Z,,,,,,,,,,,,,,,,,54,,,,,,,,,,,,,,214.32300000893883,,response,,,,100,,,,,,,Space,keypress(Space),,,,,,,,-- --- ---- --- ------ ----- ------- ---- -- --- revenue --<br>------- ---------- ------ -- ----- -- ----- -- ---- ------<br>--- ----- --- --- ------ -------- ----- --- ------ ----- --<br>----- ----- ---------- --- --- ------ ------ ---- -- ------<br>------- --- ------ ----- --- ---- ------- -- ---- --- --<br>------- ------,155400.70000000298,155394.60000000894,155163.566,155173.30000001192,155180.277,155414.231,,10,revenue
screen,html.Screen,2_1_1_1_11,2022-02-02T17:56:26.060Z,,,,,,,,,,,,,,,,,54,,,,,,,,,,,,,,377.1690000059607,,response,,,,100,,,,,,,Space,keypress(Space),,,,,,,,-- --- ---- --- ------ ----- ------- ---- -- --- ------- by<br>------- ---------- ------ -- ----- -- ----- -- ---- ------<br>--- ----- --- --- ------ -------- ----- --- ------ ----- --<br>----- ----- ---------- --- --- ------ ------ ---- -- ------<br>------- --- ------ ----- --- ---- ------- -- ---- --- --<br>------- ------,155797.10000000894,155791.40000000596,155397.52,155400.80000001192,155414.231,155815.295,,11,by
screen,html.Screen,2_1_1_1_12,2022-02-02T17:56:26.466Z,,,,,,,,,,,,,,,,,54,,,,,,,,,,,,,,382.10500000594766,,response,,,,100,,,,,,,Space,keypress(Space),,,,,,,,-- --- ---- --- ------ ----- ------- ---- -- --- ------- --<br>issuing ---------- ------ -- ----- -- ----- -- ---- ------<br>--- ----- --- --- ------ -------- ----- --- ------ ----- --<br>----- ----- ---------- --- --- ------ ------ ---- -- ------<br>------- --- ------ ----- --- ---- ------- -- ---- --- --<br>------- ------,156203.10000000894,156197.40000000596,155798.584,155797.30000001192,155815.295,156216.359,,12,issuing
screen,html.Screen,2_1_1_1_13,2022-02-02T17:56:26.714Z,,,,,,,,,,,,,,,,,54,,,,,,,,,,,,,,229.24100000894396,,response,,,,100,,,,,,,Space,keypress(Space),,,,,,,,-- --- ---- --- ------ ----- ------- ---- -- --- ------- --<br>------- government ------ -- ----- -- ----- -- ---- ------<br>--- ----- --- --- ------ -------- ----- --- ------ ----- --<br>----- ----- ---------- --- --- ------ ------ ---- -- ------<br>------- --- ------ ----- --- ---- ------- -- ---- --- --<br>------- ------,156451.60000000894,156445.60000000894,156199.648,156203.30000001192,156216.359,156467.024,,13,government
screen,html.Screen,2_1_1_1_14,2022-02-02T17:56:26.978Z,,,,,,,,,,,,,,,,,54,,,,,,,,,,,,,,242.37600000595558,,response,,,,100,,,,,,,Space,keypress(Space),,,,,,,,-- --- ---- --- ------ ----- ------- ---- -- --- ------- --<br>------- ---------- bonds. -- ----- -- ----- -- ---- ------<br>--- ----- --- --- ------ -------- ----- --- ------ ----- --<br>----- ----- ---------- --- --- ------ ------ ---- -- ------<br>------- --- ------ ----- --- ---- ------- -- ---- --- --<br>------- ------,156715.5,156709.40000000596,156450.313,156451.70000000298,156467.024,156717.689,,14,bonds.
screen,html.Screen,2_1_1_1_15,2022-02-02T17:56:27.632Z,,,,,,,,,,,,,,,,,54,,,,,,,,,,,,,,645.810999999987,,response,,,,100,,,,,,,Space,keypress(Space),,,,,,,,-- --- ---- --- ------ ----- ------- ---- -- --- ------- --<br>------- ---------- ------ In ----- -- ----- -- ---- ------<br>--- ----- --- --- ------ -------- ----- --- ------ ----- --<br>----- ----- ---------- --- --- ------ ------ ---- -- ------<br>------- --- ------ ----- --- ---- ------- -- ---- --- --<br>------- ------,157369.10000000894,157363.5,156700.978,156715.70000000298,156717.689,157386.129,,15,In
screen,html.Screen,2_1_1_1_16,2022-02-02T17:56:27.898Z,,,,,,,,,,,,,,,,,54,,,,,,,,,,,,,,243.37100000001374,,response,,,,100,,,,,,,Space,keypress(Space),,,,,,,,"-- --- ---- --- ------ ----- ------- ---- -- --- ------- --<br>------- ---------- ------ -- 1727, -- ----- -- ---- ------<br>--- ----- --- --- ------ -------- ----- --- ------ ----- --<br>----- ----- ---------- --- --- ------ ------ ---- -- ------<br>------- --- ------ ----- --- ---- ------- -- ---- --- --<br>------- ------",157635.60000000894,157629.5,157369.418,157370.70000000298,157386.129,157653.505,,16,"1727,"
screen,html.Screen,2_1_1_1_17,2022-02-02T17:56:28.414Z,,,,,,,,,,,,,,,,,54,,,,,,,,,,,,,,492.1950000029756,,response,,,,100,,,,,,,Space,keypress(Space),,,,,,,,-- --- ---- --- ------ ----- ------- ---- -- --- ------- --<br>------- ---------- ------ -- ----- in ----- -- ---- ------<br>--- ----- --- --- ------ -------- ----- --- ------ ----- --<br>----- ----- ---------- --- --- ------ ------ ---- -- ------<br>------- --- ------ ----- --- ---- ------- -- ---- --- --<br>------- ------,158151.5,158145.70000000298,157636.794,157635.70000000298,157653.505,158154.835,,17,in
screen,html.Screen,2_1_1_1_18,2022-02-02T17:56:28.816Z,,,,,,,,,,,,,,,,,54,,,,,,,,,,,,,,392.5650000059686,,response,,,,100,,,,,,,Space,keypress(Space),,,,,,,,-- --- ---- --- ------ ----- ------- ---- -- --- ------- --<br>------- ---------- ------ -- ----- -- order -- ---- ------<br>--- ----- --- --- ------ -------- ----- --- ------ ----- --<br>----- ----- ---------- --- --- ------ ------ ---- -- ------<br>------- --- ------ ----- --- ---- ------- -- ---- --- --<br>------- ------,158553.30000001192,158547.40000000596,158138.124,158151.70000000298,158154.835,158555.899,,18,order
screen,html.Screen,2_1_1_1_19,2022-02-02T17:56:29.178Z,,,,,,,,,,,,,,,,,54,,,,,,,,,,,,,,352.6009999999951,,response,,,,100,,,,,,,Space,keypress(Space),,,,,,,,-- --- ---- --- ------ ----- ------- ---- -- --- ------- --<br>------- ---------- ------ -- ----- -- ----- to ---- ------<br>--- ----- --- --- ------ -------- ----- --- ------ ----- --<br>----- ----- ---------- --- --- ------ ------ ---- -- ------<br>------- --- ------ ----- --- ---- ------- -- ---- --- --<br>------- ------,158914.90000000596,158908.5,158539.188,158553.30000001192,158555.899,158923.715,,19,to
screen,html.Screen,2_1_1_1_20,2022-02-02T17:56:29.416Z,,,,,,,,,,,,,,,,,54,,,,,,,,,,,,,,223.68500000596396,,response,,,,100,,,,,,,Space,keypress(Space),,,,,,,,-- --- ---- --- ------ ----- ------- ---- -- --- ------- --<br>------- ---------- ------ -- ----- -- ----- -- save ------<br>--- ----- --- --- ------ -------- ----- --- ------ ----- --<br>----- ----- ---------- --- --- ------ ------ ---- -- ------<br>------- --- ------ ----- --- ---- ------- -- ---- --- --<br>------- ------,159153.20000000298,159147.40000000596,158907.004,158915.10000000894,158923.715,159157.669,,20,save
screen,html.Screen,2_1_1_1_21,2022-02-02T17:56:29.634Z,,,,,,,,,,,,,,,,,54,,,,,,,,,,,,,,207.73100000596605,,response,,,,100,,,,,,,Space,keypress(Space),,,,,,,,"-- --- ---- --- ------ ----- ------- ---- -- --- ------- --<br>------- ---------- ------ -- ----- -- ----- -- ---- money,<br>--- ----- --- --- ------ -------- ----- --- ------ ----- --<br>----- ----- ---------- --- --- ------ ------ ---- -- ------<br>------- --- ------ ----- --- ---- ------- -- ---- --- --<br>------- ------",159371.10000000894,159365.40000000596,159140.958,159153.30000001192,159157.669,159374.912,,21,"money,"
screen,html.Screen,2_1_1_1_22,2022-02-02T17:56:30.576Z,,,,,,,,,,,,,,,,,54,,,,,,,,,,,,,,932.3880000119098,,response,,,,100,,,,,,,Space,keypress(Space),,,,,,,,-- --- ---- --- ------ ----- ------- ---- -- --- ------- --<br>------- ---------- ------ -- ----- -- ----- -- ---- ------<br>the ----- --- --- ------ -------- ----- --- ------ ----- --<br>----- ----- ---------- --- --- ------ ------ ---- -- ------<br>------- --- ------ ----- --- ---- ------- -- ---- --- --<br>------- ------,160313.60000000894,160307.30000001192,159358.201,159371.30000001192,159374.912,160327.439,,22,the
screen,html.Screen,2_1_1_1_23,2022-02-02T17:56:30.958Z,,,,,,,,,,,,,,,,,54,,,,,,,,,,,,,,361.8610000119079,,response,,,,100,,,,,,,Space,keypress(Space),,,,,,,,-- --- ---- --- ------ ----- ------- ---- -- --- ------- --<br>------- ---------- ------ -- ----- -- ----- -- ---- ------<br>--- state --- --- ------ -------- ----- --- ------ ----- --<br>----- ----- ---------- --- --- ------ ------ ---- -- ------<br>------- --- ------ ----- --- ---- ------- -- ---- --- --<br>------- ------,160695,160689.30000001192,160310.728,160313.80000001192,160327.439,160711.792,,23,state
screen,html.Screen,2_1_1_1_24,2022-02-02T17:56:31.298Z,,,,,,,,,,,,,,,,,54,,,,,,,,,,,,,,317.5080000119342,,response,,,,100,,,,,,,Space,keypress(Space),,,,,,,,-- --- ---- --- ------ ----- ------- ---- -- --- ------- --<br>------- ---------- ------ -- ----- -- ----- -- ---- ------<br>--- ----- cut --- ------ -------- ----- --- ------ ----- --<br>----- ----- ---------- --- --- ------ ------ ---- -- ------<br>------- --- ------ ----- --- ---- ------- -- ---- --- --<br>------- ------,161035.60000000894,161029.30000001192,160695.081,160695.20000000298,160711.792,161046.012,,24,cut
screen,html.Screen,2_1_1_1_25,2022-02-02T17:56:31.630Z,,,,,,,,,,,,,,,,,54,,,,,,,,,,,,,,315.3880000059726,,response,,,,100,,,,,,,Space,keypress(Space),,,,,,,,-- --- ---- --- ------ ----- ------- ---- -- --- ------- --<br>------- ---------- ------ -- ----- -- ----- -- ---- ------<br>--- ----- --- the ------ -------- ----- --- ------ ----- --<br>----- ----- ---------- --- --- ------ ------ ---- -- ------<br>------- --- ------ ----- --- ---- ------- -- ---- --- --<br>------- ------,161367.60000000894,161361.40000000596,161029.301,161035.70000000298,161046.012,161380.232,,25,the
screen,html.Screen,2_1_1_1_26,2022-02-02T17:56:32.011Z,,,,,,,,,,,,,,,,,54,,,,,,,,,,,,,,361.9680000029912,,response,,,,100,,,,,,,Space,keypress(Space),,,,,,,,-- --- ---- --- ------ ----- ------- ---- -- --- ------- --<br>------- ---------- ------ -- ----- -- ----- -- ---- ------<br>--- ----- --- --- bonds' -------- ----- --- ------ ----- --<br>----- ----- ---------- --- --- ------ ------ ---- -- ------<br>------- --- ------ ----- --- ---- ------- -- ---- --- --<br>------- ------,161747.90000000596,161742.20000000298,161363.521,161367.80000001192,161380.232,161764.585,,26,bonds'
screen,html.Screen,2_1_1_1_27,2022-02-02T17:56:32.389Z,,,,,,,,,,,,,,,,,54,,,,,,,,,,,,,,355.7150000119291,,response,,,,100,,,,,,,Space,keypress(Space),,,,,,,,-- --- ---- --- ------ ----- ------- ---- -- --- ------- --<br>------- ---------- ------ -- ----- -- ----- -- ---- ------<br>--- ----- --- --- ------ interest ----- --- ------ ----- --<br>----- ----- ---------- --- --- ------ ------ ---- -- ------<br>------- --- ------ ----- --- ---- ------- -- ---- --- --<br>------- ------,162126.20000000298,162120.30000001192,161747.874,161748.20000000298,161764.585,162132.227,,27,interest
screen,html.Screen,2_1_1_1_28,2022-02-02T17:56:32.719Z,,,,,,,,,,,,,,,,,54,,,,,,,,,,,,,,318.0730000119074,,response,,,,100,,,,,,,Space,keypress(Space),,,,,,,,-- --- ---- --- ------ ----- ------- ---- -- --- ------- --<br>------- ---------- ------ -- ----- -- ----- -- ---- ------<br>--- ----- --- --- ------ -------- rate. --- ------ ----- --<br>----- ----- ---------- --- --- ------ ------ ---- -- ------<br>------- --- ------ ----- --- ---- ------- -- ---- --- --<br>------- ------,162456.10000000894,162450.30000001192,162115.516,162126.40000000596,162132.227,162466.447,,28,rate.
screen,html.Screen,2_1_1_1_29,2022-02-02T17:56:33.109Z,,,,,,,,,,,,,,,,,54,,,,,,,,,,,,,,375.55300000001444,,response,,,,100,,,,,,,Space,keypress(Space),,,,,,,,-- --- ---- --- ------ ----- ------- ---- -- --- ------- --<br>------- ---------- ------ -- ----- -- ----- -- ---- ------<br>--- ----- --- --- ------ -------- ----- The ------ ----- --<br>----- ----- ---------- --- --- ------ ------ ---- -- ------<br>------- --- ------ ----- --- ---- ------- -- ---- --- --<br>------- ------,162846,162842,162449.736,162456.20000000298,162466.447,162850.8,,29,The
screen,html.Screen,2_1_1_1_30,2022-02-02T17:56:33.356Z,,,,,,,,,,,,,,,,,54,,,,,,,,,,,,,,236.40000000299187,,response,,,,100,,,,,,,Space,keypress(Space),,,,,,,,-- --- ---- --- ------ ----- ------- ---- -- --- ------- --<br>------- ---------- ------ -- ----- -- ----- -- ---- ------<br>--- ----- --- --- ------ -------- ----- --- market ----- --<br>----- ----- ---------- --- --- ------ ------ ---- -- ------<br>------- --- ------ ----- --- ---- ------- -- ---- --- --<br>------- ------,163093,163087.20000000298,162834.089,162846,162850.8,163101.465,,30,market
screen,html.Screen,2_1_1_1_31,2022-02-02T17:56:33.653Z,,,,,,,,,,,,,,,,,54,,,,,,,,,,,,,,282.6350000089442,,response,,,,100,,,,,,,Space,keypress(Space),,,,,,,,-- --- ---- --- ------ ----- ------- ---- -- --- ------- --<br>------- ---------- ------ -- ----- -- ----- -- ---- ------<br>--- ----- --- --- ------ -------- ----- --- ------ value --<br>----- ----- ---------- --- --- ------ ------ ---- -- ------<br>------- --- ------ ----- --- ---- ------- -- ---- --- --<br>------- ------,163390,163384.10000000894,163084.754,163093.10000000894,163101.465,163402.263,,31,value
screen,html.Screen,2_1_1_1_32,2022-02-02T17:56:34.277Z,,,,,,,,,,,,,,,,,54,,,,,,,,,,,,,,605.937000002974,,response,,,,100,,,,,,,Space,keypress(Space),,,,,,,,-- --- ---- --- ------ ----- ------- ---- -- --- ------- --<br>------- ---------- ------ -- ----- -- ----- -- ---- ------<br>--- ----- --- --- ------ -------- ----- --- ------ ----- of<br>----- ----- ---------- --- --- ------ ------ ---- -- ------<br>------- --- ------ ----- --- ---- ------- -- ---- --- --<br>------- ------,164014.80000001192,164008.20000000298,163385.552,163390.20000000298,163402.263,164020.57,,32,of
screen,html.Screen,2_1_1_1_33,2022-02-02T17:56:34.647Z,,,,,,,,,,,,,,,,,54,,,,,,,,,,,,,,357.63000000297325,,response,,,,100,,,,,,,Space,keypress(Space),,,,,,,,-- --- ---- --- ------ ----- ------- ---- -- --- ------- --<br>------- ---------- ------ -- ----- -- ----- -- ---- ------<br>--- ----- --- --- ------ -------- ----- --- ------ ----- --<br>these ----- ---------- --- --- ------ ------ ---- -- ------<br>------- --- ------ ----- --- ---- ------- -- ---- --- --<br>------- ------,164384,164378.20000000298,164003.859,164014.90000000596,164020.57,164388.212,,33,these
screen,html.Screen,2_1_1_1_34,2022-02-02T17:56:34.934Z,,,,,,,,,,,,,,,,,54,,,,,,,,,,,,,,277.88800000894116,,response,,,,100,,,,,,,Space,keypress(Space),,,,,,,,-- --- ---- --- ------ ----- ------- ---- -- --- ------- --<br>------- ---------- ------ -- ----- -- ----- -- ---- ------<br>--- ----- --- --- ------ -------- ----- --- ------ ----- --<br>----- bonds ---------- --- --- ------ ------ ---- -- ------<br>------- --- ------ ----- --- ---- ------- -- ---- --- --<br>------- ------,164671.80000001192,164666.10000000894,164371.501,164384.10000000894,164388.212,164689.01,,34,bonds
screen,html.Screen,2_1_1_1_35,2022-02-02T17:56:35.246Z,,,,,,,,,,,,,,,,,54,,,,,,,,,,,,,,288.0900000089314,,response,,,,100,,,,,,,Space,keypress(Space),,,,,,,,"-- --- ---- --- ------ ----- ------- ---- -- --- ------- --<br>------- ---------- ------ -- ----- -- ----- -- ---- ------<br>--- ----- --- --- ------ -------- ----- --- ------ ----- --<br>----- ----- plummeted, --- --- ------ ------ ---- -- ------<br>------- --- ------ ----- --- ---- ------- -- ---- --- --<br>------- ------",164983,164977.10000000894,164672.299,164671.90000000596,164689.01,164989.808,,35,"plummeted,"
screen,html.Screen,2_1_1_1_36,2022-02-02T17:56:35.698Z,,,,,,,,,,,,,,,,,54,,,,,,,,,,,,,,439.39200000299024,,response,,,,100,,,,,,,Space,keypress(Space),,,,,,,,-- --- ---- --- ------ ----- ------- ---- -- --- ------- --<br>------- ---------- ------ -- ----- -- ----- -- ---- ------<br>--- ----- --- --- ------ -------- ----- --- ------ ----- --<br>----- ----- ---------- and --- ------ ------ ---- -- ------<br>------- --- ------ ----- --- ---- ------- -- ---- --- --<br>------- ------,165435.10000000894,165429.20000000298,164973.097,164983.20000000298,164989.808,165441.005,,36,and
screen,html.Screen,2_1_1_1_37,2022-02-02T17:56:36.013Z,,,,,,,,,,,,,,,,,54,,,,,,,,,,,,,,304.09500000893604,,response,,,,100,,,,,,,Space,keypress(Space),,,,,,,,-- --- ---- --- ------ ----- ------- ---- -- --- ------- --<br>------- ---------- ------ -- ----- -- ----- -- ---- ------<br>--- ----- --- --- ------ -------- ----- --- ------ ----- --<br>----- ----- ---------- --- the ------ ------ ---- -- ------<br>------- --- ------ ----- --- ---- ------- -- ---- --- --<br>------- ------,165750.80000001192,165745.10000000894,165424.294,165435.30000001192,165441.005,165758.514,,37,the
screen,html.Screen,2_1_1_1_38,2022-02-02T17:56:36.269Z,,,,,,,,,,,,,,,,,54,,,,,,,,,,,,,,242.58600000894512,,response,,,,100,,,,,,,Space,keypress(Space),,,,,,,,-- --- ---- --- ------ ----- ------- ---- -- --- ------- --<br>------- ---------- ------ -- ----- -- ----- -- ---- ------<br>--- ----- --- --- ------ -------- ----- --- ------ ----- --<br>----- ----- ---------- --- --- market ------ ---- -- ------<br>------- --- ------ ----- --- ---- ------- -- ---- --- --<br>------- ------,166006.70000000298,166001.10000000894,165741.803,165750.90000000596,165758.514,166009.179,,38,market
screen,html.Screen,2_1_1_1_39,2022-02-02T17:56:36.628Z,,,,,,,,,,,,,,,,,54,,,,,,,,,,,,,,350.92100000893697,,response,,,,100,,,,,,,Space,keypress(Space),,,,,,,,-- --- ---- --- ------ ----- ------- ---- -- --- ------- --<br>------- ---------- ------ -- ----- -- ----- -- ---- ------<br>--- ----- --- --- ------ -------- ----- --- ------ ----- --<br>----- ----- ---------- --- --- ------ became ---- -- ------<br>------- --- ------ ----- --- ---- ------- -- ---- --- --<br>------- ------,166365.90000000596,166360.10000000894,165992.468,166006.90000000596,166009.179,166376.821,,39,became
screen,html.Screen,2_1_1_1_40,2022-02-02T17:56:36.970Z,,,,,,,,,,,,,,,,,54,,,,,,,,,,,,,,324.2790000089444,,response,,,,100,,,,,,,Space,keypress(Space),,,,,,,,-- --- ---- --- ------ ----- ------- ---- -- --- ------- --<br>------- ---------- ------ -- ----- -- ----- -- ---- ------<br>--- ----- --- --- ------ -------- ----- --- ------ ----- --<br>----- ----- ---------- --- --- ------ ------ wary -- ------<br>------- --- ------ ----- --- ---- ------- -- ---- --- --<br>------- ------,166707.70000000298,166701.10000000894,166360.11,166366.10000000894,166376.821,166711.041,,40,wary
screen,html.Screen,2_1_1_1_41,2022-02-02T17:56:37.309Z,,,,,,,,,,,,,,,,,54,,,,,,,,,,,,,,328.95900000000256,,response,,,,100,,,,,,,Space,keypress(Space),,,,,,,,-- --- ---- --- ------ ----- ------- ---- -- --- ------- --<br>------- ---------- ------ -- ----- -- ----- -- ---- ------<br>--- ----- --- --- ------ -------- ----- --- ------ ----- --<br>----- ----- ---------- --- --- ------ ------ ---- of ------<br>------- --- ------ ----- --- ---- ------- -- ---- --- --<br>------- ------,167046.20000000298,167040,166694.33,166707.90000000596,166711.041,167061.972,,41,of
screen,html.Screen,2_1_1_1_42,2022-02-02T17:56:37.670Z,,,,,,,,,,,,,,,,,54,,,,,,,,,,,,,,340.12800000893185,,response,,,,100,,,,,,,Space,keypress(Space),,,,,,,,-- --- ---- --- ------ ----- ------- ---- -- --- ------- --<br>------- ---------- ------ -- ----- -- ----- -- ---- ------<br>--- ----- --- --- ------ -------- ----- --- ------ ----- --<br>----- ----- ---------- --- --- ------ ------ ---- -- French<br>------- --- ------ ----- --- ---- ------- -- ---- --- --<br>------- ------,167407.70000000298,167402.10000000894,167045.261,167046.30000001192,167061.972,167412.903,,42,French
screen,html.Screen,2_1_1_1_43,2022-02-02T17:56:38.703Z,,,,,,,,,,,,,,,,,54,,,,,,,,,,,,,,1021.9970000059693,,response,,,,100,,,,,,,Space,keypress(Space),,,,,,,,-- --- ---- --- ------ ----- ------- ---- -- --- ------- --<br>------- ---------- ------ -- ----- -- ----- -- ---- ------<br>--- ----- --- --- ------ -------- ----- --- ------ ----- --<br>----- ----- ---------- --- --- ------ ------ ---- -- ------<br>credit. --- ------ ----- --- ---- ------- -- ---- --- --<br>------- ------,168440.80000001192,168434.90000000596,167396.192,167408,167412.903,168448.985,,43,credit.
screen,html.Screen,2_1_1_1_44,2022-02-02T17:56:39.045Z,,,,,,,,,,,,,,,,,54,,,,,,,,,,,,,,327.8150000119349,,response,,,,100,,,,,,,Space,keypress(Space),,,,,,,,-- --- ---- --- ------ ----- ------- ---- -- --- ------- --<br>------- ---------- ------ -- ----- -- ----- -- ---- ------<br>--- ----- --- --- ------ -------- ----- --- ------ ----- --<br>----- ----- ---------- --- --- ------ ------ ---- -- ------<br>------- The ------ ----- --- ---- ------- -- ---- --- --<br>------- ------,168782.60000000894,168776.80000001192,168432.274,168441,168448.985,168799.916,,44,The
screen,html.Screen,2_1_1_1_45,2022-02-02T17:56:39.388Z,,,,,,,,,,,,,,,,,54,,,,,,,,,,,,,,320.08400000000256,,response,,,,100,,,,,,,Space,keypress(Space),,,,,,,,-- --- ---- --- ------ ----- ------- ---- -- --- ------- --<br>------- ---------- ------ -- ----- -- ----- -- ---- ------<br>--- ----- --- --- ------ -------- ----- --- ------ ----- --<br>----- ----- ---------- --- --- ------ ------ ---- -- ------<br>------- --- French ----- --- ---- ------- -- ---- --- --<br>------- ------,169125.70000000298,169120,168783.205,168782.80000001192,168799.916,169134.327,,45,French
screen,html.Screen,2_1_1_1_46,2022-02-02T17:56:39.734Z,,,,,,,,,,,,,,,,,54,,,,,,,,,,,,,,331.37300000299,,response,,,,100,,,,,,,Space,keypress(Space),,,,,,,,-- --- ---- --- ------ ----- ------- ---- -- --- ------- --<br>------- ---------- ------ -- ----- -- ----- -- ---- ------<br>--- ----- --- --- ------ -------- ----- --- ------ ----- --<br>----- ----- ---------- --- --- ------ ------ ---- -- ------<br>------- --- ------ state --- ---- ------- -- ---- --- --<br>------- ------,169471.60000000894,169465.70000000298,169117.616,169125.90000000596,169134.327,169485.258,,46,state
screen,html.Screen,2_1_1_1_47,2022-02-02T17:56:40.085Z,,,,,,,,,,,,,,,,,54,,,,,,,,,,,,,,331.64200000595883,,response,,,,100,,,,,,,Space,keypress(Space),,,,,,,,-- --- ---- --- ------ ----- ------- ---- -- --- ------- --<br>------- ---------- ------ -- ----- -- ----- -- ---- ------<br>--- ----- --- --- ------ -------- ----- --- ------ ----- --<br>----- ----- ---------- --- --- ------ ------ ---- -- ------<br>------- --- ------ ----- was ---- ------- -- ---- --- --<br>------- ------,169822.80000001192,169816.90000000596,169468.547,169471.80000001192,169485.258,169836.189,,47,was
screen,html.Screen,2_1_1_1_48,2022-02-02T17:56:40.436Z,,,,,,,,,,,,,,,,,54,,,,,,,,,,,,,,331.7110000059474,,response,,,,100,,,,,,,Space,keypress(Space),,,,,,,,-- --- ---- --- ------ ----- ------- ---- -- --- ------- --<br>------- ---------- ------ -- ----- -- ----- -- ---- ------<br>--- ----- --- --- ------ -------- ----- --- ------ ----- --<br>----- ----- ---------- --- --- ------ ------ ---- -- ------<br>------- --- ------ ----- --- left ------- -- ---- --- --<br>------- ------,170173.80000001192,170167.90000000596,169819.478,169823,169836.189,170187.12,,48,left
screen,html.Screen,2_1_1_1_49,2022-02-02T17:56:40.755Z,,,,,,,,,,,,,,,,,54,,,,,,,,,,,,,,300.5800000029849,,response,,,,100,,,,,,,Space,keypress(Space),,,,,,,,-- --- ---- --- ------ ----- ------- ---- -- --- ------- --<br>------- ---------- ------ -- ----- -- ----- -- ---- ------<br>--- ----- --- --- ------ -------- ----- --- ------ ----- --<br>----- ----- ---------- --- --- ------ ------ ---- -- ------<br>------- --- ------ ----- --- ---- without -- ---- --- --<br>------- ------,170492.40000000596,170487.70000000298,170170.409,170174,170187.12,170504.629,,49,without
screen,html.Screen,2_1_1_1_50,2022-02-02T17:56:41.373Z,,,,,,,,,,,,,,,,,54,,,,,,,,,,,,,,599.2710000059742,,response,,,,100,,,,,,,Space,keypress(Space),,,,,,,,-- --- ---- --- ------ ----- ------- ---- -- --- ------- --<br>------- ---------- ------ -- ----- -- ----- -- ---- ------<br>--- ----- --- --- ------ -------- ----- --- ------ ----- --<br>----- ----- ---------- --- --- ------ ------ ---- -- ------<br>------- --- ------ ----- --- ---- ------- an ---- --- --<br>------- ------,171111,171103.90000000596,170487.918,170492.40000000596,170504.629,171122.936,,50,an
screen,html.Screen,2_1_1_1_51,2022-02-02T17:56:41.924Z,,,,,,,,,,,,,,,,,54,,,,,,,,,,,,,,532.864000011934,,response,,,,100,,,,,,,Space,keypress(Space),,,,,,,,-- --- ---- --- ------ ----- ------- ---- -- --- ------- --<br>------- ---------- ------ -- ----- -- ----- -- ---- ------<br>--- ----- --- --- ------ -------- ----- --- ------ ----- --<br>----- ----- ---------- --- --- ------ ------ ---- -- ------<br>------- --- ------ ----- --- ---- ------- -- easy --- --<br>------- ------,171661.80000001192,171655.80000001192,171106.225,171111.10000000894,171122.936,171674.399,,51,easy
screen,html.Screen,2_1_1_1_52,2022-02-02T17:56:42.244Z,,,,,,,,,,,,,,,,,54,,,,,,,,,,,,,,301.40100001191604,,response,,,,100,,,,,,,Space,keypress(Space),,,,,,,,-- --- ---- --- ------ ----- ------- ---- -- --- ------- --<br>------- ---------- ------ -- ----- -- ----- -- ---- ------<br>--- ----- --- --- ------ -------- ----- --- ------ ----- --<br>----- ----- ---------- --- --- ------ ------ ---- -- ------<br>------- --- ------ ----- --- ---- ------- -- ---- way --<br>------- ------,171981.90000000596,171975.80000001192,171657.688,171662,171674.399,171991.908,,52,way
screen,html.Screen,2_1_1_1_53,2022-02-02T17:56:42.587Z,,,,,,,,,,,,,,,,,54,,,,,,,,,,,,,,326.8920000119251,,response,,,,100,,,,,,,Space,keypress(Space),,,,,,,,-- --- ---- --- ------ ----- ------- ---- -- --- ------- --<br>------- ---------- ------ -- ----- -- ----- -- ---- ------<br>--- ----- --- --- ------ -------- ----- --- ------ ----- --<br>----- ----- ---------- --- --- ------ ------ ---- -- ------<br>------- --- ------ ----- --- ---- ------- -- ---- --- of<br>------- ------,172324.70000000298,172318.80000001192,171975.197,171982.10000000894,171991.908,172342.839,,53,of
screen,html.Screen,2_1_1_1_54,2022-02-02T17:56:42.938Z,,,,,,,,,,,,,,,,,54,,,,,,,,,,,,,,326.861000002973,,response,,,,100,,,,,,,Space,keypress(Space),,,,,,,,-- --- ---- --- ------ ----- ------- ---- -- --- ------- --<br>------- ---------- ------ -- ----- -- ----- -- ---- ------<br>--- ----- --- --- ------ -------- ----- --- ------ ----- --<br>----- ----- ---------- --- --- ------ ------ ---- -- ------<br>------- --- ------ ----- --- ---- ------- -- ---- --- --<br>raising ------,172675.40000000596,172669.70000000298,172326.128,172324.90000000596,172342.839,172693.77,,54,raising
screen,html.Screen,2_1_1_1_55,2022-02-02T17:56:43.265Z,,,,,,,,,,,,,,,,,54,,,,,,,,,,,,,,302.9300000029907,,response,,,,100,,,,,,,Space,keypress(Space),,,,,,,,-- --- ---- --- ------ ----- ------- ---- -- --- ------- --<br>------- ---------- ------ -- ----- -- ----- -- ---- ------<br>--- ----- --- --- ------ -------- ----- --- ------ ----- --<br>----- ----- ---------- --- --- ------ ------ ---- -- ------<br>------- --- ------ ----- --- ---- ------- -- ---- --- --<br>------- money.,173003,172996.70000000298,172677.059,172675.5,172693.77,173011.279,,55,money.
Item 100,flow.Loop,2_1_1_1,2022-02-02T17:56:43.266Z,,,,,,,,,,,,,,,,,,,,,,,,,,,,,,,21258.889000002993,,completion,,,,,E,,,,,,,,,,,silence,,,,,173003.30000001192,172996.70000000298,151721.1,151723.30000001192,151737.811,173011.279,,,
Question 1,html.Screen,2_1_1_2,2022-02-02T17:56:45.284Z,,,,,,,,,,,,,,,,,,,,,,,,,,,,true,TRUE,,2006.3210000089312,,response,,,,100,E,,,,,,TRUE,click #choice-1,,,,silence,,,,,175021.20000000298,175017.60000000894,172994.568,173003.40000000596,173011.279,175033.31,,,
Question 2,html.Screen,2_1_1_3,2022-02-02T17:56:50.017Z,,,,,,,,,,,,,,,,,,,,,,,,,,,,true,FALSE,,4717.590000005963,,response,,,,100,E,,,,,,FALSE,click #choice-2,,,,silence,,,,,179754.40000000596,179750.90000000596,175016.599,175021.30000001192,175033.31,179762.707,,,
Item 100,flow.Sequence,2_1_1,2022-02-02T17:56:50.017Z,,,,,,,,,,,,,,,,,,,,,,,,,,,,,,,38006.46800000596,,completion,,,,,,,,,,,,,,,,,,,,,179754.80000001192,179750.90000000596,141727.721,141724.5,141744.432,179762.707,,,
End of Practice,html.Page,2_1_2,2022-02-02T17:56:53.882Z,,,,,,,,,,,,,,,,,,,,,,,,,,,,,,,3856.1930000059656,,form submission,,,,,,,,,,,,,,,,,,,,,183619.40000000596,183618.90000000596,179745.996,179754.90000000596,179762.707,183622.948,,,
Practice,flow.Sequence,2_1,2022-02-02T17:56:53.882Z,,,,,,,,,,,,,,,,,,,,,,,,,,,,,,,77185.68300000596,,completion,,,,,,,,,,,,,,,,,,,,,183619.60000000894,183618.90000000596,106416.506,106433.60000000894,106433.217,183622.948,,,
Trap_instruction,html.Page,2_2_0,2022-02-02T17:56:57.694Z,,,,,,,,,,,,,,,,,,,,,,,,,,,,,,,3808.6520000089367,,form submission,,,,,,,,,,,,,,,,,,,,,187431.90000000596,187431.60000000894,183606.237,183619.80000001192,183622.948,187433.056,,,
trap_trial,html.Screen,2_2_1,2022-02-02T17:57:00.226Z,,,,,,,,,,,,,,,,,,,,,,,,,,,,true,1,,2527.9439999999886,,response,,,,,,,,,,,1,click #choice-1,,,,,,,,,189964.10000000894,189961,187416.345,187432.20000000298,187433.056,189973.128,,,
end of trap trial,html.Page,2_2_2,2022-02-02T17:57:01.908Z,,,,,,,,,,,,,,,,,,,,,,,,,,,,,,,1672.2720000059635,,form submission,,,,,,,,,,,,,,,,,,,,,191645.60000000894,191645.40000000596,189956.417,189964.30000001192,189973.128,191661.043,,,
Trap 1,flow.Sequence,2_2,2022-02-02T17:57:01.908Z,,,,,,,,,,,,,,,,,,,,,,,,,,,,,,,8022.4520000059565,,completion,,,,,,,,,,,,,,,,,,,,,191645.90000000596,191645.40000000596,183606.237,183619.70000000298,183622.948,191661.043,,,
Standby,html.Page,2_3_0,2022-02-02T17:57:09.913Z,,,,,,,,,,,,,,,,,,,,,,,,,,,,,,,8004.568999999989,,timeout,,,,,,,,,,,,,,,,,,,,,199651.10000000894,199648.901,191644.332,191646.10000000894,191661.043,199665.612,,,
Holding screen,html.Screen,2_3_1_0_0,2022-02-02T17:57:16.915Z,,,,,,,,,,,,,,,,,,,,,,,,,,,,,,,7002.127000000008,,timeout,,,,,,,,,,,,,,,,,,,,,206653.10000000894,206651.028,199648.901,199651.40000000596,199665.612,206667.739,,,
screen,html.Screen,2_3_1_0_1_0,2022-02-02T17:57:17.887Z,,,,,,,,,,,,,,,,,15,,,,,,,,,,,,,,949.3610000089393,,response,,,,7,E,,,,,,Space,keypress(Space),,,,lyrical,,,,Greg --------- ---------- - --- ------- -- --- ------------<br>----- -- -------- ------- ---- ------ - -------- ---- -----<br>--- ------- ---- -- --- -------- --- - ----- ------ ---- --<br>-------- --- -------- -------- --- -------- ---- -- ----- -<br>-------- ---- --- ---------- --------- -- ------- ------ -<br>--------- ----- -----,207625.40000000596,207617.10000000894,206651.028,206653.30000001192,206667.739,207636.977,,0,Greg
screen,html.Screen,2_3_1_0_1_1,2022-02-02T17:57:18.354Z,,,,,,,,,,,,,,,,,15,,,,,,,,,,,,,,449.0229999999865,,response,,,,7,E,,,,,,Space,keypress(Space),,,,lyrical,,,,"---- Anderson, ---------- - --- ------- -- --- ------------<br>----- -- -------- ------- ---- ------ - -------- ---- -----<br>--- ------- ---- -- --- -------- --- - ----- ------ ---- --<br>-------- --- -------- -------- --- -------- ---- -- ----- -<br>-------- ---- --- ---------- --------- -- ------- ------ -<br>--------- ----- -----",208092.20000000298,208086,207620.266,207625.5,207636.977,208104.885,,1,"Anderson,"
screen,html.Screen,2_3_1_0_1_2,2022-02-02T17:57:18.745Z,,,,,,,,,,,,,,,,,15,,,,,,,,,,,,,,372.1149999999907,,response,,,,7,E,,,,,,Space,keypress(Space),,,,lyrical,,,,---- --------- considered - --- ------- -- --- ------------<br>----- -- -------- ------- ---- ------ - -------- ---- -----<br>--- ------- ---- -- --- -------- --- - ----- ------ ---- --<br>-------- --- -------- -------- --- -------- ---- -- ----- -<br>-------- ---- --- ---------- --------- -- ------- ------ -<br>--------- ----- -----,208483.10000000894,208477,208088.174,208092.30000001192,208104.885,208489.238,,2,considered
screen,html.Screen,2_3_1_0_1_3,2022-02-02T17:57:19.105Z,,,,,,,,,,,,,,,,,15,,,,,,,,,,,,,,346.8620000089286,,response,,,,7,E,,,,,,Space,keypress(Space),,,,lyrical,,,,---- --------- ---------- a --- ------- -- --- ------------<br>----- -- -------- ------- ---- ------ - -------- ---- -----<br>--- ------- ---- -- --- -------- --- - ----- ------ ---- --<br>-------- --- -------- -------- --- -------- ---- -- ----- -<br>-------- ---- --- ---------- --------- -- ------- ------ -<br>--------- ----- -----,208843,208836.10000000894,208472.527,208483.20000000298,208489.238,208856.88,,3,a
screen,html.Screen,2_3_1_0_1_4,2022-02-02T17:57:19.402Z,,,,,,,,,,,,,,,,,15,,,,,,,,,,,,,,277.0200000059558,,response,,,,7,E,,,,,,Space,keypress(Space),,,,lyrical,,,,---- --------- ---------- - key ------- -- --- ------------<br>----- -- -------- ------- ---- ------ - -------- ---- -----<br>--- ------- ---- -- --- -------- --- - ----- ------ ---- --<br>-------- --- -------- -------- --- -------- ---- -- ----- -<br>-------- ---- --- ---------- --------- -- ------- ------ -<br>--------- ----- -----,209140.10000000894,209133.90000000596,208840.169,208843.10000000894,208856.88,209157.678,,4,key
screen,html.Screen,2_3_1_0_1_5,2022-02-02T17:57:19.715Z,,,,,,,,,,,,,,,,,15,,,,,,,,,,,,,,289.32199999998556,,response,,,,7,E,,,,,,Space,keypress(Space),,,,lyrical,,,,---- --------- ---------- - --- witness -- --- ------------<br>----- -- -------- ------- ---- ------ - -------- ---- -----<br>--- ------- ---- -- --- -------- --- - ----- ------ ---- --<br>-------- --- -------- -------- --- -------- ---- -- ----- -<br>-------- ---- --- ---------- --------- -- ------- ------ -<br>--------- ----- -----,209453,209447,209140.967,209140.20000000298,209157.678,209458.476,,5,witness
screen,html.Screen,2_3_1_0_1_6,2022-02-02T17:57:20.044Z,,,,,,,,,,,,,,,,,15,,,,,,,,,,,,,,317.42400000596535,,response,,,,7,E,,,,,,Space,keypress(Space),,,,lyrical,,,,---- --------- ---------- - --- ------- by --- ------------<br>----- -- -------- ------- ---- ------ - -------- ---- -----<br>--- ------- ---- -- --- -------- --- - ----- ------ ---- --<br>-------- --- -------- -------- --- -------- ---- -- ----- -<br>-------- ---- --- ---------- --------- -- ------- ------ -<br>--------- ----- -----,209781.90000000596,209775.90000000596,209441.765,209453.20000000298,209458.476,209792.696,,6,by
screen,html.Screen,2_3_1_0_1_7,2022-02-02T17:57:20.408Z,,,,,,,,,,,,,,,,,15,,,,,,,,,,,,,,347.3040000000037,,response,,,,7,E,,,,,,Space,keypress(Space),,,,lyrical,,,,---- --------- ---------- - --- ------- -- the ------------<br>----- -- -------- ------- ---- ------ - -------- ---- -----<br>--- ------- ---- -- --- -------- --- - ----- ------ ---- --<br>-------- --- -------- -------- --- -------- ---- -- ----- -<br>-------- ---- --- ---------- --------- -- ------- ------ -<br>--------- ----- -----,210146,210140,209775.985,209782.10000000894,209792.696,210160.338,,7,the
screen,html.Screen,2_3_1_0_1_8,2022-02-02T17:57:20.855Z,,,,,,,,,,,,,,,,,15,,,,,,,,,,,,,,427.56200000597164,,response,,,,7,E,,,,,,Space,keypress(Space),,,,lyrical,,,,"---- --------- ---------- - --- ------- -- --- prosecution,<br>----- -- -------- ------- ---- ------ - -------- ---- -----<br>--- ------- ---- -- --- -------- --- - ----- ------ ---- --<br>-------- --- -------- -------- --- -------- ---- -- ----- -<br>-------- ---- --- ---------- --------- -- ------- ------ -<br>--------- ----- -----",210593.60000000894,210587.90000000596,210143.627,210146.10000000894,210160.338,210611.535,,8,"prosecution,"
screen,html.Screen,2_3_1_0_1_9,2022-02-02T17:57:21.435Z,,,,,,,,,,,,,,,,,15,,,,,,,,,,,,,,555.4649999999965,,response,,,,7,E,,,,,,Space,keypress(Space),,,,lyrical,,,,---- --------- ---------- - --- ------- -- --- ------------<br>vowed -- -------- ------- ---- ------ - -------- ---- -----<br>--- ------- ---- -- --- -------- --- - ----- ------ ---- --<br>-------- --- -------- -------- --- -------- ---- -- ----- -<br>-------- ---- --- ---------- --------- -- ------- ------ -<br>--------- ----- -----,211173,211167,210594.824,210593.80000001192,210611.535,211179.709,,9,vowed
screen,html.Screen,2_3_1_0_1_10,2022-02-02T17:57:21.749Z,,,,,,,,,,,,,,,,,15,,,,,,,,,,,,,,301.1910000059579,,response,,,,7,E,,,,,,Space,keypress(Space),,,,lyrical,,,,---- --------- ---------- - --- ------- -- --- ------------<br>----- he -------- ------- ---- ------ - -------- ---- -----<br>--- ------- ---- -- --- -------- --- - ----- ------ ---- --<br>-------- --- -------- -------- --- -------- ---- -- ----- -<br>-------- ---- --- ---------- --------- -- ------- ------ -<br>--------- ----- -----,211487.20000000298,211480.90000000596,211162.998,211173.20000000298,211179.709,211497.218,,10,he
screen,html.Screen,2_3_1_0_1_11,2022-02-02T17:57:22.048Z,,,,,,,,,,,,,,,,,15,,,,,,,,,,,,,,282.58200001192745,,response,,,,7,E,,,,,,Space,keypress(Space),,,,lyrical,,,,---- --------- ---------- - --- ------- -- --- ------------<br>----- -- wouldn't ------- ---- ------ - -------- ---- -----<br>--- ------- ---- -- --- -------- --- - ----- ------ ---- --<br>-------- --- -------- -------- --- -------- ---- -- ----- -<br>-------- ---- --- ---------- --------- -- ------- ------ -<br>--------- ----- -----,211786.10000000894,211779.80000001192,211480.507,211487.40000000596,211497.218,211798.205,,11,wouldn't
screen,html.Screen,2_3_1_0_1_12,2022-02-02T17:57:22.397Z,,,,,,,,,,,,,,,,,15,,,,,,,,,,,,,,330.59500001193373,,response,,,,7,E,,,,,,Space,keypress(Space),,,,lyrical,,,,---- --------- ---------- - --- ------- -- --- ------------<br>----- -- -------- testify ---- ------ - -------- ---- -----<br>--- ------- ---- -- --- -------- --- - ----- ------ ---- --<br>-------- --- -------- -------- --- -------- ---- -- ----- -<br>-------- ---- --- ---------- --------- -- ------- ------ -<br>--------- ----- -----,212134.80000001192,212128.80000001192,211781.494,211786.20000000298,211798.205,212149.136,,12,testify
screen,html.Screen,2_3_1_0_1_13,2022-02-02T17:57:22.748Z,,,,,,,,,,,,,,,,,15,,,,,,,,,,,,,,330.76400000596186,,response,,,,7,E,,,,,,Space,keypress(Space),,,,lyrical,,,,---- --------- ---------- - --- ------- -- --- ------------<br>----- -- -------- ------- when ------ - -------- ---- -----<br>--- ------- ---- -- --- -------- --- - ----- ------ ---- --<br>-------- --- -------- -------- --- -------- ---- -- ----- -<br>-------- ---- --- ---------- --------- -- ------- ------ -<br>--------- ----- -----,212486.10000000894,212479.90000000596,212132.425,212135,212149.136,212500.067,,13,when
screen,html.Screen,2_3_1_0_1_14,2022-02-02T17:57:23.052Z,,,,,,,,,,,,,,,,,15,,,,,,,,,,,,,,284.83300000595045,,response,,,,7,E,,,,,,Space,keypress(Space),,,,lyrical,,,,---- --------- ---------- - --- ------- -- --- ------------<br>----- -- -------- ------- ---- served - -------- ---- -----<br>--- ------- ---- -- --- -------- --- - ----- ------ ---- --<br>-------- --- -------- -------- --- -------- ---- -- ----- -<br>-------- ---- --- ---------- --------- -- ------- ------ -<br>--------- ----- -----,212790.70000000298,212784.90000000596,212483.356,212486.20000000298,212500.067,212800.865,,14,served
screen,html.Screen,2_3_1_0_1_15,2022-02-02T17:57:23.409Z,,,,,,,,,,,,,,,,,15,,,,,,,,,,,,,,339.83500000298955,,response,,,,7,E,,,,,,Space,keypress(Space),,,,lyrical,,,,---- --------- ---------- - --- ------- -- --- ------------<br>----- -- -------- ------- ---- ------ a -------- ---- -----<br>--- ------- ---- -- --- -------- --- - ----- ------ ---- --<br>-------- --- -------- -------- --- -------- ---- -- ----- -<br>-------- ---- --- ---------- --------- -- ------- ------ -<br>--------- ----- -----,213146.90000000596,213140.70000000298,212784.154,212791,212800.865,213151.796,,15,a
screen,html.Screen,2_3_1_0_1_16,2022-02-02T17:57:23.741Z,,,,,,,,,,,,,,,,,15,,,,,,,,,,,,,,321.00400001191883,,response,,,,7,E,,,,,,Space,keypress(Space),,,,lyrical,,,,---- --------- ---------- - --- ------- -- --- ------------<br>----- -- -------- ------- ---- ------ - subpoena ---- -----<br>--- ------- ---- -- --- -------- --- - ----- ------ ---- --<br>-------- --- -------- -------- --- -------- ---- -- ----- -<br>-------- ---- --- ---------- --------- -- ------- ------ -<br>--------- ----- -----,213479.10000000894,213472.80000001192,213135.085,213147,213151.796,213486.016,,16,subpoena
screen,html.Screen,2_3_1_0_1_17,2022-02-02T17:57:24.987Z,,,,,,,,,,,,,,,,,15,,,,,,,,,,,,,,1232.5840000089374,,response,,,,7,E,,,,,,Space,keypress(Space),,,,lyrical,,,,---- --------- ---------- - --- ------- -- --- ------------<br>----- -- -------- ------- ---- ------ - -------- last -----<br>--- ------- ---- -- --- -------- --- - ----- ------ ---- --<br>-------- --- -------- -------- --- -------- ---- -- ----- -<br>-------- ---- --- ---------- --------- -- ------- ------ -<br>--------- ----- -----,214725.10000000894,214718.60000000894,213469.305,213479.20000000298,213486.016,214739.341,,17,last
screen,html.Screen,2_3_1_0_1_18,2022-02-02T17:57:25.671Z,,,,,,,,,,,,,,,,,15,,,,,,,,,,,,,,664.3590000029944,,response,,,,7,E,,,,,,Space,keypress(Space),,,,lyrical,,,,---- --------- ---------- - --- ------- -- --- ------------<br>----- -- -------- ------- ---- ------ - -------- ---- week.<br>--- ------- ---- -- --- -------- --- - ----- ------ ---- --<br>-------- --- -------- -------- --- -------- ---- -- ----- -<br>-------- ---- --- ---------- --------- -- ------- ------ -<br>--------- ----- -----,215409.70000000298,215403.70000000298,214722.63,214725.30000001192,214739.341,215424.492,,18,week.
screen,html.Screen,2_3_1_0_1_19,2022-02-02T17:57:26.198Z,,,,,,,,,,,,,,,,,15,,,,,,,,,,,,,,506.20800000298186,,response,,,,7,E,,,,,,Space,keypress(Space),,,,lyrical,,,,---- --------- ---------- - --- ------- -- --- ------------<br>----- -- -------- ------- ---- ------ - -------- ---- -----<br>His ------- ---- -- --- -------- --- - ----- ------ ---- --<br>-------- --- -------- -------- --- -------- ---- -- ----- -<br>-------- ---- --- ---------- --------- -- ------- ------ -<br>--------- ----- -----,215936.80000001192,215930.70000000298,215407.781,215409.80000001192,215424.492,215942.533,,19,His
screen,html.Screen,2_3_1_0_1_20,2022-02-02T17:57:26.553Z,,,,,,,,,,,,,,,,,15,,,,,,,,,,,,,,343.1670000029844,,response,,,,7,E,,,,,,Space,keypress(Space),,,,lyrical,,,,---- --------- ---------- - --- ------- -- --- ------------<br>----- -- -------- ------- ---- ------ - -------- ---- -----<br>--- lawyers ---- -- --- -------- --- - ----- ------ ---- --<br>-------- --- -------- -------- --- -------- ---- -- ----- -<br>-------- ---- --- ---------- --------- -- ------- ------ -<br>--------- ----- -----,216291.5,216285.70000000298,215925.822,215936.90000000596,215942.533,216293.464,,20,lawyers
screen,html.Screen,2_3_1_0_1_21,2022-02-02T17:57:26.901Z,,,,,,,,,,,,,,,,,15,,,,,,,,,,,,,,339.1360000089335,,response,,,,7,E,,,,,,Space,keypress(Space),,,,lyrical,,,,---- --------- ---------- - --- ------- -- --- ------------<br>----- -- -------- ------- ---- ------ - -------- ---- -----<br>--- ------- said -- --- -------- --- - ----- ------ ---- --<br>-------- --- -------- -------- --- -------- ---- -- ----- -<br>-------- ---- --- ---------- --------- -- ------- ------ -<br>--------- ----- -----,216639.10000000894,216632.60000000894,216276.753,216291.60000000894,216293.464,216644.395,,21,said
screen,html.Screen,2_3_1_0_1_22,2022-02-02T17:57:27.254Z,,,,,,,,,,,,,,,,,15,,,,,,,,,,,,,,342.2050000089512,,response,,,,7,E,,,,,,Space,keypress(Space),,,,lyrical,,,,---- --------- ---------- - --- ------- -- --- ------------<br>----- -- -------- ------- ---- ------ - -------- ---- -----<br>--- ------- ---- he --- -------- --- - ----- ------ ---- --<br>-------- --- -------- -------- --- -------- ---- -- ----- -<br>-------- ---- --- ---------- --------- -- ------- ------ -<br>--------- ----- -----,216992.30000001192,216986.60000000894,216627.684,216639.20000000298,216644.395,216995.326,,22,he
screen,html.Screen,2_3_1_0_1_23,2022-02-02T17:57:27.559Z,,,,,,,,,,,,,,,,,15,,,,,,,,,,,,,,296.27400000893977,,response,,,,7,E,,,,,,Space,keypress(Space),,,,lyrical,,,,---- --------- ---------- - --- ------- -- --- ------------<br>----- -- -------- ------- ---- ------ - -------- ---- -----<br>--- ------- ---- -- was -------- --- - ----- ------ ---- --<br>-------- --- -------- -------- --- -------- ---- -- ----- -<br>-------- ---- --- ---------- --------- -- ------- ------ -<br>--------- ----- -----,217297.90000000596,217291.60000000894,216978.615,216992.5,216995.326,217312.835,,23,was
screen,html.Screen,2_3_1_0_1_24,2022-02-02T17:57:27.894Z,,,,,,,,,,,,,,,,,15,,,,,,,,,,,,,,312.8650000029884,,response,,,,7,E,,,,,,Space,keypress(Space),,,,lyrical,,,,---- --------- ---------- - --- ------- -- --- ------------<br>----- -- -------- ------- ---- ------ - -------- ---- -----<br>--- ------- ---- -- --- prepared --- - ----- ------ ---- --<br>-------- --- -------- -------- --- -------- ---- -- ----- -<br>-------- ---- --- ---------- --------- -- ------- ------ -<br>--------- ----- -----,217632.20000000298,217625.70000000298,217296.124,217298,217312.835,217647.055,,24,prepared
screen,html.Screen,2_3_1_0_1_25,2022-02-02T17:57:28.203Z,,,,,,,,,,,,,,,,,15,,,,,,,,,,,,,,288.445000000007,,response,,,,7,E,,,,,,Space,keypress(Space),,,,lyrical,,,,---- --------- ---------- - --- ------- -- --- ------------<br>----- -- -------- ------- ---- ------ - -------- ---- -----<br>--- ------- ---- -- --- -------- for - ----- ------ ---- --<br>-------- --- -------- -------- --- -------- ---- -- ----- -<br>-------- ---- --- ---------- --------- -- ------- ------ -<br>--------- ----- -----,217941.5,217935.5,217630.344,217632.30000001192,217647.055,217947.853,,25,for
screen,html.Screen,2_3_1_0_1_26,2022-02-02T17:57:28.539Z,,,,,,,,,,,,,,,,,15,,,,,,,,,,,,,,323.54700000595767,,response,,,,7,E,,,,,,Space,keypress(Space),,,,lyrical,,,,---- --------- ---------- - --- ------- -- --- ------------<br>----- -- -------- ------- ---- ------ - -------- ---- -----<br>--- ------- ---- -- --- -------- --- a ----- ------ ---- --<br>-------- --- -------- -------- --- -------- ---- -- ----- -<br>-------- ---- --- ---------- --------- -- ------- ------ -<br>--------- ----- -----,218277.5,218271.40000000596,217931.142,217941.70000000298,217947.853,218282.073,,26,a
screen,html.Screen,2_3_1_0_1_27,2022-02-02T17:57:28.903Z,,,,,,,,,,,,,,,,,15,,,,,,,,,,,,,,353.42699999999604,,response,,,,7,E,,,,,,Space,keypress(Space),,,,lyrical,,,,---- --------- ---------- - --- ------- -- --- ------------<br>----- -- -------- ------- ---- ------ - -------- ---- -----<br>--- ------- ---- -- --- -------- --- - third ------ ---- --<br>-------- --- -------- -------- --- -------- ---- -- ----- -<br>-------- ---- --- ---------- --------- -- ------- ------ -<br>--------- ----- -----,218641.60000000894,218635.5,218265.362,218277.60000000894,218282.073,218649.715,,27,third
screen,html.Screen,2_3_1_0_1_28,2022-02-02T17:57:29.280Z,,,,,,,,,,,,,,,,,15,,,,,,,,,,,,,,362.7850000000035,,response,,,,7,E,,,,,,Space,keypress(Space),,,,lyrical,,,,---- --------- ---------- - --- ------- -- --- ------------<br>----- -- -------- ------- ---- ------ - -------- ---- -----<br>--- ------- ---- -- --- -------- --- - ----- prison ---- --<br>-------- --- -------- -------- --- -------- ---- -- ----- -<br>-------- ---- --- ---------- --------- -- ------- ------ -<br>--------- ----- -----,219018.60000000894,219012.5,218633.004,218641.70000000298,218649.715,219034.068,,28,prison
screen,html.Screen,2_3_1_0_1_29,2022-02-02T17:57:29.605Z,,,,,,,,,,,,,,,,,15,,,,,,,,,,,,,,303.4320000000007,,response,,,,7,E,,,,,,Space,keypress(Space),,,,lyrical,,,,---- --------- ---------- - --- ------- -- --- ------------<br>----- -- -------- ------- ---- ------ - -------- ---- -----<br>--- ------- ---- -- --- -------- --- - ----- ------ stay --<br>-------- --- -------- -------- --- -------- ---- -- ----- -<br>-------- ---- --- ---------- --------- -- ------- ------ -<br>--------- ----- -----,219343.30000001192,219337.5,219017.357,219018.70000000298,219034.068,219351.577,,29,stay
screen,html.Screen,2_3_1_0_1_30,2022-02-02T17:57:29.983Z,,,,,,,,,,,,,,,,,15,,,,,,,,,,,,,,363.9230000000098,,response,,,,7,E,,,,,,Space,keypress(Space),,,,lyrical,,,,---- --------- ---------- - --- ------- -- --- ------------<br>----- -- -------- ------- ---- ------ - -------- ---- -----<br>--- ------- ---- -- --- -------- --- - ----- ------ ---- to<br>-------- --- -------- -------- --- -------- ---- -- ----- -<br>-------- ---- --- ---------- --------- -- ------- ------ -<br>--------- ----- -----,219721.80000001192,219715.5,219334.866,219343.40000000596,219351.577,219735.93,,30,to
screen,html.Screen,2_3_1_0_1_31,2022-02-02T17:57:30.483Z,,,,,,,,,,,,,,,,,15,,,,,,,,,,,,,,479.47000000596745,,response,,,,7,E,,,,,,Space,keypress(Space),,,,lyrical,,,,---- --------- ---------- - --- ------- -- --- ------------<br>----- -- -------- ------- ---- ------ - -------- ---- -----<br>--- ------- ---- -- --- -------- --- - ----- ------ ---- --<br>maintain --- -------- -------- --- -------- ---- -- ----- -<br>-------- ---- --- ---------- --------- -- ------- ------ -<br>--------- ----- -----,220221.70000000298,220215.40000000596,219719.219,219721.90000000596,219735.93,220237.26,,31,maintain
screen,html.Screen,2_3_1_0_1_32,2022-02-02T17:57:30.777Z,,,,,,,,,,,,,,,,,15,,,,,,,,,,,,,,272.2399999999907,,response,,,,7,E,,,,,,Space,keypress(Space),,,,lyrical,,,,---- --------- ---------- - --- ------- -- --- ------------<br>----- -- -------- ------- ---- ------ - -------- ---- -----<br>--- ------- ---- -- --- -------- --- - ----- ------ ---- --<br>-------- his -------- -------- --- -------- ---- -- ----- -<br>-------- ---- --- ---------- --------- -- ------- ------ -<br>--------- ----- -----,220515.40000000596,220509.5,220220.549,220221.90000000596,220237.26,220521.347,,32,his
screen,html.Screen,2_3_1_0_1_33,2022-02-02T17:57:31.097Z,,,,,,,,,,,,,,,,,15,,,,,,,,,,,,,,308.0530000059516,,response,,,,7,E,,,,,,Space,keypress(Space),,,,lyrical,,,,---- --------- ---------- - --- ------- -- --- ------------<br>----- -- -------- ------- ---- ------ - -------- ---- -----<br>--- ------- ---- -- --- -------- --- - ----- ------ ---- --<br>-------- --- silence. -------- --- -------- ---- -- ----- -<br>-------- ---- --- ---------- --------- -- ------- ------ -<br>--------- ----- -----,220835.30000001192,220829.40000000596,220504.636,220515.60000000894,220521.347,220838.856,,33,silence.
screen,html.Screen,2_3_1_0_1_34,2022-02-02T17:57:31.785Z,,,,,,,,,,,,,,,,,15,,,,,,,,,,,,,,678.5440000059607,,response,,,,7,E,,,,,,Space,keypress(Space),,,,lyrical,,,,---- --------- ---------- - --- ------- -- --- ------------<br>----- -- -------- ------- ---- ------ - -------- ---- -----<br>--- ------- ---- -- --- -------- --- - ----- ------ ---- --<br>-------- --- -------- Anderson --- -------- ---- -- ----- -<br>-------- ---- --- ---------- --------- -- ------- ------ -<br>--------- ----- -----,221523.60000000894,221517.40000000596,220822.145,220835.5,220838.856,221540.718,,34,Anderson
screen,html.Screen,2_3_1_0_1_35,2022-02-02T17:57:32.131Z,,,,,,,,,,,,,,,,,15,,,,,,,,,,,,,,321.682000005967,,response,,,,7,E,,,,,,Space,keypress(Space),,,,lyrical,,,,---- --------- ---------- - --- ------- -- --- ------------<br>----- -- -------- ------- ---- ------ - -------- ---- -----<br>--- ------- ---- -- --- -------- --- - ----- ------ ---- --<br>-------- --- -------- -------- was -------- ---- -- ----- -<br>-------- ---- --- ---------- --------- -- ------- ------ -<br>--------- ----- -----,221869.40000000596,221862.40000000596,221524.007,221523.70000000298,221540.718,221874.938,,35,was
screen,html.Screen,2_3_1_0_1_36,2022-02-02T17:57:32.447Z,,,,,,,,,,,,,,,,,15,,,,,,,,,,,,,,304.3620000119263,,response,,,,7,E,,,,,,Space,keypress(Space),,,,lyrical,,,,---- --------- ---------- - --- ------- -- --- ------------<br>----- -- -------- ------- ---- ------ - -------- ---- -----<br>--- ------- ---- -- --- -------- --- - ----- ------ ---- --<br>-------- --- -------- -------- --- released ---- -- ----- -<br>-------- ---- --- ---------- --------- -- ------- ------ -<br>--------- ----- -----,222185.80000001192,222179.30000001192,221858.227,221869.5,221874.938,222192.674,,36,released
screen,html.Screen,2_3_1_0_1_37,2022-02-02T17:57:32.812Z,,,,,,,,,,,,,,,,,15,,,,,,,,,,,,,,351.7260000059614,,response,,,,7,E,,,,,,Space,keypress(Space),,,,lyrical,,,,---- --------- ---------- - --- ------- -- --- ------------<br>----- -- -------- ------- ---- ------ - -------- ---- -----<br>--- ------- ---- -- --- -------- --- - ----- ------ ---- --<br>-------- --- -------- -------- --- -------- July -- ----- -<br>-------- ---- --- ---------- --------- -- ------- ------ -<br>--------- ----- -----,222550.70000000298,222544.40000000596,222175.963,222185.90000000596,222192.674,222560.316,,37,July
screen,html.Screen,2_3_1_0_1_38,2022-02-02T17:57:33.117Z,,,,,,,,,,,,,,,,,15,,,,,,,,,,,,,,289.08400000596885,,response,,,,7,E,,,,,,Space,keypress(Space),,,,lyrical,,,,---- --------- ---------- - --- ------- -- --- ------------<br>----- -- -------- ------- ---- ------ - -------- ---- -----<br>--- ------- ---- -- --- -------- --- - ----- ------ ---- --<br>-------- --- -------- -------- --- -------- ---- 20 ----- -<br>-------- ---- --- ---------- --------- -- ------- ------ -<br>--------- ----- -----,222855.60000000894,222849.40000000596,222543.605,222550.90000000596,222560.316,222861.114,,38,20
screen,html.Screen,2_3_1_0_1_39,2022-02-02T17:57:33.427Z,,,,,,,,,,,,,,,,,15,,,,,,,,,,,,,,298.28600000595907,,response,,,,7,E,,,,,,Space,keypress(Space),,,,lyrical,,,,---- --------- ---------- - --- ------- -- --- ------------<br>----- -- -------- ------- ---- ------ - -------- ---- -----<br>--- ------- ---- -- --- -------- --- - ----- ------ ---- --<br>-------- --- -------- -------- --- -------- ---- -- after -<br>-------- ---- --- ---------- --------- -- ------- ------ -<br>--------- ----- -----,223165.90000000596,223159.40000000596,222844.403,222855.70000000298,222861.114,223178.623,,39,after
screen,html.Screen,2_3_1_0_1_40,2022-02-02T17:57:34.878Z,,,,,,,,,,,,,,,,,15,,,,,,,,,,,,,,1431.577000002988,,response,,,,7,E,,,,,,Space,keypress(Space),,,,lyrical,,,,---- --------- ---------- - --- ------- -- --- ------------<br>----- -- -------- ------- ---- ------ - -------- ---- -----<br>--- ------- ---- -- --- -------- --- - ----- ------ ---- --<br>-------- --- -------- -------- --- -------- ---- -- ----- a<br>-------- ---- --- ---------- --------- -- ------- ------ -<br>--------- ----- -----,224616.90000000596,224610.20000000298,223161.912,223166,223178.623,224632.48,,40,a
