sender,sender_type,sender_id,timestamp,meta,,Blues,Classical,Country,Dance,Electronic,Folk,Gospel,Hip-Hop,Jazz,Latin,Musical/Film,New-age,Pop,Prolific_id,Provo_ID,R&B,Rap,Reggae,Religious,Rock,Soul,Swing,Traditional,age,artist_name,correct,correctResponse,distraction,duration,education,ended_on,familiarity,gender,headphone_check_performance,item,list,music_frequency,offensiveness,pleasantness,position_correct,preference,response,response_action,snippet_file,song_name,song_rating,sound,stimulus_1,stimulus_2,stimulus_3,text,time_commit,time_end,time_render,time_run,time_show,time_switch,url,word,word_ID
Prolific ID,html.Form,0,2022-02-02T16:06:35.594Z,"{""labjs_version"":""20.2.2"",""labjs_build"":{""flavor"":""production"",""commit"":""a25486e0c714a0ae2ce03ff94b7bb6896854dcfa""},""location"":""https://run.pavlovia.org/mvasilev/prolific2_music_d/"",""userAgent"":""Mozilla/5.0 (Windows NT 10.0; Win64; x64) AppleWebKit/537.36 (KHTML, like Gecko) Chrome/97.0.4692.99 Safari/537.36"",""platform"":""Win32"",""language"":""en-GB"",""locale"":""en-GB"",""timeZone"":""Europe/London"",""timezoneOffset"":0,""screen_width"":2560,""screen_height"":1440,""scroll_width"":2560,""scroll_height"":1249,""window_innerWidth"":2560,""window_innerHeight"":1297,""devicePixelRatio"":1}",,,,,,,,,,,,,,,60d105bdbc81d3ea13337765,,,,,,,,,,,,,,,15973.259999976159,,form submission,,,,,,,,,,,,,,,,,,,,,23716.599999964237,23716.399999976158,7729.239,7729.699999988079,7743.14,23729.16,{},,
Introduction,html.Screen,1_0,2022-02-02T16:06:43.555Z,,,,,,,,,,,,,,,,,,,,,,,,,,,,,,,7947.439999964237,,response,,,,,,,,,,,continue,click button,,,,,,,,,31677.80000001192,31676.599999964237,23715.27,23716.899999976158,23729.16,31680.493,,,
Volume calibration,html.Screen,1_1,2022-02-02T16:07:12.096Z,,,,,,,,,,,,,,,,,,,,,,,,,,,,,,,28535.90699997616,,response,,,,,,,,,,,continue,click button,,,,,,,,,60218,60216.39999997616,31673.567,31677.899999976158,31680.493,60222.003,,,
Task instructions,html.Screen,1_2,2022-02-02T16:07:26.840Z,,,,,,,,,,,,,,,,,,,,,,,,,,,,,,,14740.396999976161,,response,,,,,,,,,,,continue,click button,,,,,,,,,74962.89999997616,74962.39999997616,60215.077,60218.09999996424,60222.003,74964.995,,,
Sounds,html.Screen,1_3_0_0,2022-02-02T16:07:31.087Z,,,,,,,,,,,,,,,,,,,,,,,,,,,,,,,4249.972999999998,,timeout,,,,,,,,,2,,,,,,,,I,S,O,,79209.19999998808,79208.023,74958.06,74963,74964.995,79214.968,,,
Judgement,html.Screen,1_3_0_1,2022-02-02T16:07:33.457Z,,,,,,,,,,,,,,,,,,,,,,,,,,,,true,2,,2364.3320000119274,,response,,,,,,,,,2,,2,click #choice-2,,,,,I,S,O,,81579.89999997616,81579.30000001192,79208.023,79209.39999997616,79214.968,81582.998,,,
Trial,flow.Sequence,1_3_0,2022-02-02T16:07:33.458Z,,,,,,,,,,,,,,,,,,,,,,,,,,,,,,,6614.305000011926,,completion,,,,,,,,,2,,,,,,,,I,S,O,,81580,81579.30000001192,74958.06,74963,74964.995,81582.998,,,
Sounds,html.Screen,1_3_1_0,2022-02-02T16:07:37.704Z,,,,,,,,,,,,,,,,,,,,,,,,,,,,,,,4249.995999999999,,timeout,,,,,,,,,3,,,,,,,,I,O,S,,85826.39999997616,85826.038,81576.064,81580.19999998808,81582.998,85832.994,,,
Judgement,html.Screen,1_3_1_1,2022-02-02T16:07:38.474Z,,,,,,,,,,,,,,,,,,,,,,,,,,,,true,3,,762.9059999761521,,response,,,,,,,,,3,,3,click #choice-3,,,,,I,O,S,,86596.59999996424,86595.89999997616,85826.038,85826.5,85832.994,86596.863,,,
Trial,flow.Sequence,1_3_1,2022-02-02T16:07:38.474Z,,,,,,,,,,,,,,,,,,,,,,,,,,,,,,,5012.901999976151,,completion,,,,,,,,,3,,,,,,,,I,O,S,,86596.69999998808,86595.89999997616,81576.064,81580,81582.998,86596.863,,,
Sounds,html.Screen,1_3_2_0,2022-02-02T16:07:42.718Z,,,,,,,,,,,,,,,,,,,,,,,,,,,,,,,4249.987000000008,,timeout,,,,,,,,,2,,,,,,,,O,S,I,,90840.19999998808,90839.905,86589.924,86596.80000001192,86596.863,90846.85,,,
Judgement,html.Screen,1_3_2_1,2022-02-02T16:07:43.363Z,,,,,,,,,,,,,,,,,,,,,,,,,,,,true,2,,637.8499999880733,,response,,,,,,,,,2,,2,click #choice-2,,,,,O,S,I,,91485,91484.69999998808,90839.905,90840.39999997616,90846.85,91485.72,,,
Trial,flow.Sequence,1_3_2,2022-02-02T16:07:43.363Z,,,,,,,,,,,,,,,,,,,,,,,,,,,,,,,4887.8369999880815,,completion,,,,,,,,,2,,,,,,,,O,S,I,,91485.09999996424,91484.69999998808,86589.924,86596.80000001192,86596.863,91485.72,,,
Sounds,html.Screen,1_3_3_0,2022-02-02T16:07:47.607Z,,,,,,,,,,,,,,,,,,,,,,,,,,,,,,,4249.9909999999945,,timeout,,,,,,,,,3,,,,,,,,O,I,S,,95729.19999998808,95728.748,91478.774,91485.19999998808,91485.72,95735.711,,,
Judgement,html.Screen,1_3_3_1,2022-02-02T16:07:48.147Z,,,,,,,,,,,,,,,,,,,,,,,,,,,,true,3,,533.5890000119252,,response,,,,,,,,,3,,3,click #choice-3,,,,,O,I,S,,96269.59999996424,96269.30000001192,95728.748,95729.30000001192,95735.711,96270.432,,,
Trial,flow.Sequence,1_3_3,2022-02-02T16:07:48.147Z,,,,,,,,,,,,,,,,,,,,,,,,,,,,,,,4783.58000001192,,completion,,,,,,,,,3,,,,,,,,O,I,S,,96269.80000001192,96269.30000001192,91478.774,91485.19999998808,91485.72,96270.432,,,
Sounds,html.Screen,1_3_4_0,2022-02-02T16:07:52.391Z,,,,,,,,,,,,,,,,,,,,,,,,,,,,,,,4249.989000000001,,timeout,,,,,,,,,1,,,,,,,,S,I,O,,100513.80000001192,100513.476,96263.501,96269.80000001192,96270.432,100520.421,,,
Judgement,html.Screen,1_3_4_1,2022-02-02T16:07:53.556Z,,,,,,,,,,,,,,,,,,,,,,,,,,,,true,1,,1157.578999999998,,response,,,,,,,,,1,,1,click #choice-1,,,,,S,I,O,,101678.39999997616,101678,100513.476,100513.89999997616,100520.421,101680.107,,,
Trial,flow.Sequence,1_3_4,2022-02-02T16:07:53.556Z,,,,,,,,,,,,,,,,,,,,,,,,,,,,,,,5407.567999999999,,completion,,,,,,,,,1,,,,,,,,S,I,O,,101678.5,101678,96263.501,96269.80000001192,96270.432,101680.107,,,
Sounds,html.Screen,1_3_5_0,2022-02-02T16:07:57.801Z,,,,,,,,,,,,,,,,,,,,,,,,,,,,,,,4249.982000000004,,timeout,,,,,,,,,1,,,,,,,,S,O,I,,105923.5,105923.154,101673.173,101678.59999996424,101680.107,105930.089,,,
Judgement,html.Screen,1_3_5_1,2022-02-02T16:07:58.261Z,,,,,,,,,,,,,,,,,,,,,,,,,,,,true,1,,452.51099996423,,response,,,,,,,,,1,,1,click #choice-1,,,,,S,O,I,,106383.09999996424,106382.59999996424,105923.154,105923.59999996424,105930.089,106388.473,,,
Trial,flow.Sequence,1_3_5,2022-02-02T16:07:58.261Z,,,,,,,,,,,,,,,,,,,,,,,,,,,,,,,4702.492999964234,,completion,,,,,,,,,1,,,,,,,,S,O,I,,106383.19999998808,106382.59999996424,101673.173,101678.59999996424,101680.107,106388.473,,,
Task,flow.Loop,1_3,2022-02-02T16:07:58.263Z,,,,,,,,,,,,,,,,,,,,,,,,,,,,,,,31417.604999964242,,completion,,,1,,,,,,,,,,,,,,,,,,106385.5,106382.59999996424,74958.06,74963,74964.995,106388.473,,,
Trap,html.Screen,1_4,2022-02-02T16:07:58.264Z,,,,,,,,,,,,,,,,,,,,,,,,,,,,,,,NaN,,skipped,,,,,,,,,,,,,,,,,,,,,106386.09999996424,106382.59999996424,,106386,,106388.473,,,
Thanks,html.Screen,1_5,2022-02-02T16:08:05.246Z,,,,,,,,,,,,,,,,,,,,,,,,,,,,,,,6979.126999964239,,response,,,,,,,,,,,continue,click button,,,,,,,,,113368,113367.59999996424,106381.488,106386.09999996424,106388.473,124409.171,,,
Headphone screening,flow.Sequence,1,2022-02-02T16:08:05.246Z,,,,,,,,,,,,,,,,,,,,,,,,,,,,,,,89638.43999996423,,completion,,,,,,,,,,,,,,,,,,,,,113368.09999996424,113367.59999996424,23715.27,23716.80000001192,23729.16,124409.171,,,
Instructions,html.Page,2_0,2022-02-02T16:08:48.668Z,,,,,,,,,,,,,,,,,,,,,,,,,,,,,,,32380.828999999998,,form submission,,,,,,,,,,,,,,,,,,,,,156790.09999996424,156790,124402.197,124406.30000001192,124409.171,156790.923,,,
Holding screen,html.Screen,2_1_0_0,2022-02-02T16:08:58.663Z,,,,,,,,,,,,,,,,,,,,,,,,,,,,,,,10006.888999999996,,timeout,,,,,,,,,,,,,,,,,,,,,166784.80000001192,166784.403,156783.954,156790.30000001192,156790.923,166797.812,,,
screen,html.Screen,2_1_0_1_0,2022-02-02T16:09:00.080Z,,,,,,,,,,,,,,,,,53,,,,,,,,,,,,,,1402.4880000119156,,response,,,,99,,,,,,,Space,keypress(Space),,,,,,,,When -- ----- -- ------ - ------- --- ----------<br>------------- ------ ------ ---- ---- ------- ----- -- ----<br>-------- ------- -- ---------- --- - --- ----- ----- ----<br>---- --- --- ----- --- ---- ---- ------- ----- ---- -------<br>--- --- -- ----- -- --- ---- -- --- ---- -- ------ ------<br>--- ----- -- ----,168201.69999998808,168200.30000001192,166784.403,166784.89999997616,166797.812,168207.525,,0,When
screen,html.Screen,2_1_0_1_1,2022-02-02T16:09:00.787Z,,,,,,,,,,,,,,,,,53,,,,,,,,,,,,,,701.7750000119267,,response,,,,99,,,,,,,Space,keypress(Space),,,,,,,,---- it ----- -- ------ - ------- --- ----------<br>------------- ------ ------ ---- ---- ------- ----- -- ----<br>-------- ------- -- ---------- --- - --- ----- ----- ----<br>---- --- --- ----- --- ---- ---- ------- ----- ---- -------<br>--- --- -- ----- -- --- ---- -- --- ---- -- ------ ------<br>--- ----- -- ----,168909.69999998808,168909.30000001192,168200.566,168201.80000001192,168207.525,168915.852,,1,it
screen,html.Screen,2_1_0_1_2,2022-02-02T16:09:01.593Z,,,,,,,,,,,,,,,,,53,,,,,,,,,,,,,,798.5479999761446,,response,,,,99,,,,,,,Space,keypress(Space),,,,,,,,---- -- comes -- ------ - ------- --- ----------<br>------------- ------ ------ ---- ---- ------- ----- -- ----<br>-------- ------- -- ---------- --- - --- ----- ----- ----<br>---- --- --- ----- --- ---- ---- ------- ----- ---- -------<br>--- --- -- ----- -- --- ---- -- --- ---- -- ------ ------<br>--- ----- -- ----,169714.69999998808,169714.39999997616,168908.908,168909.80000001192,168915.852,169721.401,,2,comes
screen,html.Screen,2_1_0_1_3,2022-02-02T16:09:02.522Z,,,,,,,,,,,,,,,,,53,,,,,,,,,,,,,,922.0989999999874,,response,,,,99,,,,,,,Space,keypress(Space),,,,,,,,---- -- ----- to ------ - ------- --- ----------<br>------------- ------ ------ ---- ---- ------- ----- -- ----<br>-------- ------- -- ---------- --- - --- ----- ----- ----<br>---- --- --- ----- --- ---- ---- ------- ----- ---- -------<br>--- --- -- ----- -- --- ---- -- --- ---- -- ------ ------<br>--- ----- -- ----,170643.89999997616,170643.5,169714.459,169714.80000001192,169721.401,170645.01,,3,to
screen,html.Screen,2_1_0_1_4,2022-02-02T16:09:03.868Z,,,,,,,,,,,,,,,,,53,,,,,,,,,,,,,,1344.589999964228,,response,,,,99,,,,,,,Space,keypress(Space),,,,,,,,---- -- ----- -- having - ------- --- ----------<br>------------- ------ ------ ---- ---- ------- ----- -- ----<br>-------- ------- -- ---------- --- - --- ----- ----- ----<br>---- --- --- ----- --- ---- ---- ------- ----- ---- -------<br>--- --- -- ----- -- --- ---- -- --- ---- -- ------ ------<br>--- ----- -- ----,171989.89999997616,171989.59999996424,170638.04,170643.89999997616,170645.01,171992.211,,4,having
screen,html.Screen,2_1_0_1_5,2022-02-02T16:09:04.606Z,,,,,,,,,,,,,,,,,53,,,,,,,,,,,,,,735.1889999761479,,response,,,,99,,,,,,,Space,keypress(Space),,,,,,,,---- -- ----- -- ------ a ------- --- ----------<br>------------- ------ ------ ---- ---- ------- ----- -- ----<br>-------- ------- -- ---------- --- - --- ----- ----- ----<br>---- --- --- ----- --- ---- ---- ------- ----- ---- -------<br>--- --- -- ----- -- --- ---- -- --- ---- -- ------ ------<br>--- ----- -- ----,172727.69999998808,172727.39999997616,171985.281,171990,171992.211,172728.325,,5,a
screen,html.Screen,2_1_0_1_6,2022-02-02T16:09:05.374Z,,,,,,,,,,,,,,,,,53,,,,,,,,,,,,,,767.5749999761465,,response,,,,99,,,,,,,Space,keypress(Space),,,,,,,,---- -- ----- -- ------ - lasting --- ----------<br>------------- ------ ------ ---- ---- ------- ----- -- ----<br>-------- ------- -- ---------- --- - --- ----- ----- ----<br>---- --- --- ----- --- ---- ---- ------- ----- ---- -------<br>--- --- -- ----- -- --- ---- -- --- ---- -- ------ ------<br>--- ----- -- ----,173496.09999996424,173495.89999997616,172722.023,172727.80000001192,172728.325,173499.14,,6,lasting
screen,html.Screen,2_1_0_1_7,2022-02-02T16:09:06.143Z,,,,,,,,,,,,,,,,,53,,,,,,,,,,,,,,765.859999999986,,response,,,,99,,,,,,,Space,keypress(Space),,,,,,,,---- -- ----- -- ------ - ------- and ----------<br>------------- ------ ------ ---- ---- ------- ----- -- ----<br>-------- ------- -- ---------- --- - --- ----- ----- ----<br>---- --- --- ----- --- ---- ---- ------- ----- ---- -------<br>--- --- -- ----- -- --- ---- -- --- ---- -- ------ ------<br>--- ----- -- ----,174265.19999998808,174265,173492.219,173496.19999998808,173499.14,174269.982,,7,and
screen,html.Screen,2_1_0_1_8,2022-02-02T16:09:06.900Z,,,,,,,,,,,,,,,,,53,,,,,,,,,,,,,,752.0180000000109,,response,,,,99,,,,,,,Space,keypress(Space),,,,,,,,---- -- ----- -- ------ - ------- --- fulfilling<br>------------- ------ ------ ---- ---- ------- ----- -- ----<br>-------- ------- -- ---------- --- - --- ----- ----- ----<br>---- --- --- ----- --- ---- ---- ------- ----- ---- -------<br>--- --- -- ----- -- --- ---- -- --- ---- -- ------ ------<br>--- ----- -- ----,175022.39999997616,175022,174263.468,174265.39999997616,174269.982,175026.94,,8,fulfilling
screen,html.Screen,2_1_0_1_9,2022-02-02T16:09:08.370Z,,,,,,,,,,,,,,,,,53,,,,,,,,,,,,,,1465.3600000119186,,response,,,,99,,,,,,,Space,keypress(Space),,,,,,,,"---- -- ----- -- ------ - ------- --- ----------<br>relationship, ------ ------ ---- ---- ------- ----- -- ----<br>-------- ------- -- ---------- --- - --- ----- ----- ----<br>---- --- --- ----- --- ---- ---- ------- ----- ---- -------<br>--- --- -- ----- -- --- ---- -- --- ---- -- ------ ------<br>--- ----- -- ----",176492.59999996424,176492.30000001192,175019.976,175022.39999997616,175026.94,176499.366,,9,"relationship,"
screen,html.Screen,2_1_0_1_10,2022-02-02T16:09:09.184Z,,,,,,,,,,,,,,,,,53,,,,,,,,,,,,,,806.0339999761491,,response,,,,99,,,,,,,Space,keypress(Space),,,,,,,,---- -- ----- -- ------ - ------- --- ----------<br>------------- common ------ ---- ---- ------- ----- -- ----<br>-------- ------- -- ---------- --- - --- ----- ----- ----<br>---- --- --- ----- --- ---- ---- ------- ----- ---- -------<br>--- --- -- ----- -- --- ---- -- --- ---- -- ------ ------<br>--- ----- -- ----,177305.69999998808,177305.39999997616,176492.199,176492.69999998808,176499.366,177311.622,,10,common
screen,html.Screen,2_1_0_1_11,2022-02-02T16:09:10.226Z,,,,,,,,,,,,,,,,,53,,,,,,,,,,,,,,1035.9779999642342,,response,,,,99,,,,,,,Space,keypress(Space),,,,,,,,---- -- ----- -- ------ - ------- --- ----------<br>------------- ------ wisdom ---- ---- ------- ----- -- ----<br>-------- ------- -- ---------- --- - --- ----- ----- ----<br>---- --- --- ----- --- ---- ---- ------- ----- ---- -------<br>--- --- -- ----- -- --- ---- -- --- ---- -- ------ ------<br>--- ----- -- ----,178347.89999997616,178347.59999996424,177304.694,177305.80000001192,177311.622,178353.282,,11,wisdom
screen,html.Screen,2_1_0_1_12,2022-02-02T16:09:10.942Z,,,,,,,,,,,,,,,,,53,,,,,,,,,,,,,,710.3179999642307,,response,,,,99,,,,,,,Space,keypress(Space),,,,,,,,---- -- ----- -- ------ - ------- --- ----------<br>------------- ------ ------ says ---- ------- ----- -- ----<br>-------- ------- -- ---------- --- - --- ----- ----- ----<br>---- --- --- ----- --- ---- ---- ------- ----- ---- -------<br>--- --- -- ----- -- --- ---- -- --- ---- -- ------ ------<br>--- ----- -- ----,179063.89999997616,179063.59999996424,178346.329,178348,178353.282,179068.556,,12,says
screen,html.Screen,2_1_0_1_13,2022-02-02T16:09:11.687Z,,,,,,,,,,,,,,,,,53,,,,,,,,,,,,,,740.2440000119095,,response,,,,99,,,,,,,Space,keypress(Space),,,,,,,,---- -- ----- -- ------ - ------- --- ----------<br>------------- ------ ------ ---- that ------- ----- -- ----<br>-------- ------- -- ---------- --- - --- ----- ----- ----<br>---- --- --- ----- --- ---- ---- ------- ----- ---- -------<br>--- --- -- ----- -- --- ---- -- --- ---- -- ------ ------<br>--- ----- -- ----,179809.09999996424,179808.80000001192,179062.108,179063.89999997616,179068.556,179811.607,,13,that
screen,html.Screen,2_1_0_1_14,2022-02-02T16:09:12.664Z,,,,,,,,,,,,,,,,,53,,,,,,,,,,,,,,975.1930000119319,,response,,,,99,,,,,,,Space,keypress(Space),,,,,,,,---- -- ----- -- ------ - ------- --- ----------<br>------------- ------ ------ ---- ---- feeling ----- -- ----<br>-------- ------- -- ---------- --- - --- ----- ----- ----<br>---- --- --- ----- --- ---- ---- ------- ----- ---- -------<br>--- --- -- ----- -- --- ---- -- --- ---- -- ------ ------<br>--- ----- -- ----,180787.30000001192,180786.80000001192,179804.674,179809.09999996424,179811.607,180790.778,,14,feeling
screen,html.Screen,2_1_0_1_15,2022-02-02T16:09:13.614Z,,,,,,,,,,,,,,,,,53,,,,,,,,,,,,,,945.2220000000088,,response,,,,99,,,,,,,Space,keypress(Space),,,,,,,,---- -- ----- -- ------ - ------- --- ----------<br>------------- ------ ------ ---- ---- ------- close -- ----<br>-------- ------- -- ---------- --- - --- ----- ----- ----<br>---- --- --- ----- --- ---- ---- ------- ----- ---- -------<br>--- --- -- ----- -- --- ---- -- --- ---- -- ------ ------<br>--- ----- -- ----,181736.39999997616,181736,180783.952,180787.39999997616,180790.778,181742.162,,15,close
screen,html.Screen,2_1_0_1_16,2022-02-02T16:09:14.207Z,,,,,,,,,,,,,,,,,53,,,,,,,,,,,,,,586.937999964226,,response,,,,99,,,,,,,Space,keypress(Space),,,,,,,,---- -- ----- -- ------ - ------- --- ----------<br>------------- ------ ------ ---- ---- ------- ----- to ----<br>-------- ------- -- ---------- --- - --- ----- ----- ----<br>---- --- --- ----- --- ---- ---- ------- ----- ---- -------<br>--- --- -- ----- -- --- ---- -- --- ---- -- ------ ------<br>--- ----- -- ----,182329.39999997616,182329.09999996424,181735.445,181736.5,181742.162,182332.437,,16,to
screen,html.Screen,2_1_0_1_17,2022-02-02T16:09:14.899Z,,,,,,,,,,,,,,,,,53,,,,,,,,,,,,,,688.6629999642319,,response,,,,99,,,,,,,Space,keypress(Space),,,,,,,,---- -- ----- -- ------ - ------- --- ----------<br>------------- ------ ------ ---- ---- ------- ----- -- your<br>-------- ------- -- ---------- --- - --- ----- ----- ----<br>---- --- --- ----- --- ---- ---- ------- ----- ---- -------<br>--- --- -- ----- -- --- ---- -- --- ---- -- ------ ------<br>--- ----- -- ----,183021.39999997616,183021.09999996424,182325.664,182329.39999997616,182332.437,183027.735,,17,your
screen,html.Screen,2_1_0_1_18,2022-02-02T16:09:15.757Z,,,,,,,,,,,,,,,,,53,,,,,,,,,,,,,,851.464999988093,,response,,,,99,,,,,,,Space,keypress(Space),,,,,,,,---- -- ----- -- ------ - ------- --- ----------<br>------------- ------ ------ ---- ---- ------- ----- -- ----<br>romantic ------- -- ---------- --- - --- ----- ----- ----<br>---- --- --- ----- --- ---- ---- ------- ----- ---- -------<br>--- --- -- ----- -- --- ---- -- --- ---- -- ------ ------<br>--- ----- -- ----,183879.59999996424,183879.19999998808,183019.92,183021.5,183027.735,183881.046,,18,romantic
screen,html.Screen,2_1_0_1_19,2022-02-02T16:09:16.582Z,,,,,,,,,,,,,,,,,53,,,,,,,,,,,,,,823.9539999999979,,response,,,,99,,,,,,,Space,keypress(Space),,,,,,,,---- -- ----- -- ------ - ------- --- ----------<br>------------- ------ ------ ---- ---- ------- ----- -- ----<br>-------- partner -- ---------- --- - --- ----- ----- ----<br>---- --- --- ----- --- ---- ---- ------- ----- ---- -------<br>--- --- -- ----- -- --- ---- -- --- ---- -- ------ ------<br>--- ----- -- ----,184705.19999998808,184705,183874.109,183879.59999996424,183881.046,184707.438,,19,partner
screen,html.Screen,2_1_0_1_20,2022-02-02T16:09:17.271Z,,,,,,,,,,,,,,,,,53,,,,,,,,,,,,,,686.4619999761635,,response,,,,99,,,,,,,Space,keypress(Space),,,,,,,,---- -- ----- -- ------ - ------- --- ----------<br>------------- ------ ------ ---- ---- ------- ----- -- ----<br>-------- ------- is ---------- --- - --- ----- ----- ----<br>---- --- --- ----- --- ---- ---- ------- ----- ---- -------<br>--- --- -- ----- -- --- ---- -- --- ---- -- ------ ------<br>--- ----- -- ----,185394.30000001192,185393.89999997616,184700.486,184705.39999997616,184707.438,185394.925,,20,is
screen,html.Screen,2_1_0_1_21,2022-02-02T16:09:21.638Z,,,,,,,,,,,,,,,,,53,,,,,,,,,,,,,,4365.174999964249,,response,,,,99,,,,,,,Space,keypress(Space),,,,,,,,---- -- ----- -- ------ - ------- --- ----------<br>------------- ------ ------ ---- ---- ------- ----- -- ----<br>-------- ------- -- paramount. --- - --- ----- ----- ----<br>---- --- --- ----- --- ---- ---- ------- ----- ---- -------<br>--- --- -- ----- -- --- ---- -- --- ---- -- ------ ------<br>--- ----- -- ----,189760.5,189760.09999996424,185387.983,185394.39999997616,185394.925,189762.956,,21,paramount.
screen,html.Screen,2_1_0_1_22,2022-02-02T16:09:22.247Z,,,,,,,,,,,,,,,,,53,,,,,,,,,,,,,,606.1439999642316,,response,,,,99,,,,,,,Space,keypress(Space),,,,,,,,---- -- ----- -- ------ - ------- --- ----------<br>------------- ------ ------ ---- ---- ------- ----- -- ----<br>-------- ------- -- ---------- But - --- ----- ----- ----<br>---- --- --- ----- --- ---- ---- ------- ----- ---- -------<br>--- --- -- ----- -- --- ---- -- --- ---- -- ------ ------<br>--- ----- -- ----,190369.39999997616,190369.09999996424,189756.03,189760.5,189762.956,190374.068,,22,But
screen,html.Screen,2_1_0_1_23,2022-02-02T16:09:22.827Z,,,,,,,,,,,,,,,,,53,,,,,,,,,,,,,,575.3319999761588,,response,,,,99,,,,,,,Space,keypress(Space),,,,,,,,---- -- ----- -- ------ - ------- --- ----------<br>------------- ------ ------ ---- ---- ------- ----- -- ----<br>-------- ------- -- ---------- --- a --- ----- ----- ----<br>---- --- --- ----- --- ---- ---- ------- ----- ---- -------<br>--- --- -- ----- -- --- ---- -- --- ---- -- ------ ------<br>--- ----- -- ----,190949.69999998808,190949.39999997616,190367.278,190369.39999997616,190374.068,190950.43,,23,a
screen,html.Screen,2_1_0_1_24,2022-02-02T16:09:23.292Z,,,,,,,,,,,,,,,,,53,,,,,,,,,,,,,,463.8700000119279,,response,,,,99,,,,,,,Space,keypress(Space),,,,,,,,---- -- ----- -- ------ - ------- --- ----------<br>------------- ------ ------ ---- ---- ------- ----- -- ----<br>-------- ------- -- ---------- --- - new ----- ----- ----<br>---- --- --- ----- --- ---- ---- ------- ----- ---- -------<br>--- --- -- ----- -- --- ---- -- --- ---- -- ------ ------<br>--- ----- -- ----,191414.59999996424,191414.30000001192,190943.519,190949.89999997616,190950.43,191415.755,,24,new
screen,html.Screen,2_1_0_1_25,2022-02-02T16:09:23.881Z,,,,,,,,,,,,,,,,,53,,,,,,,,,,,,,,588.1449999761535,,response,,,,99,,,,,,,Space,keypress(Space),,,,,,,,---- -- ----- -- ------ - ------- --- ----------<br>------------- ------ ------ ---- ---- ------- ----- -- ----<br>-------- ------- -- ---------- --- - --- study ----- ----<br>---- --- --- ----- --- ---- ---- ------- ----- ---- -------<br>--- --- -- ----- -- --- ---- -- --- ---- -- ------ ------<br>--- ----- -- ----,192004.19999998808,192003.89999997616,191408.77,191414.59999996424,191415.755,192005.984,,25,study
screen,html.Screen,2_1_0_1_26,2022-02-02T16:09:24.750Z,,,,,,,,,,,,,,,,,53,,,,,,,,,,,,,,866.8160000119242,,response,,,,99,,,,,,,Space,keypress(Space),,,,,,,,---- -- ----- -- ------ - ------- --- ----------<br>------------- ------ ------ ---- ---- ------- ----- -- ----<br>-------- ------- -- ---------- --- - --- ----- finds ----<br>---- --- --- ----- --- ---- ---- ------- ----- ---- -------<br>--- --- -- ----- -- --- ---- -- --- ---- -- ------ ------<br>--- ----- -- ----,192873,192872.80000001192,191999.553,192004.19999998808,192005.984,192874.043,,26,finds
screen,html.Screen,2_1_0_1_27,2022-02-02T16:09:25.416Z,,,,,,,,,,,,,,,,,53,,,,,,,,,,,,,,664.0569999642321,,response,,,,99,,,,,,,Space,keypress(Space),,,,,,,,---- -- ----- -- ------ - ------- --- ----------<br>------------- ------ ------ ---- ---- ------- ----- -- ----<br>-------- ------- -- ---------- --- - --- ----- ----- that<br>---- --- --- ----- --- ---- ---- ------- ----- ---- -------<br>--- --- -- ----- -- --- ---- -- --- ---- -- ------ ------<br>--- ----- -- ----,193538.5,193538.09999996424,192867.129,192873.19999998808,192874.043,193540.721,,27,that
screen,html.Screen,2_1_0_1_28,2022-02-02T16:09:26.276Z,,,,,,,,,,,,,,,,,53,,,,,,,,,,,,,,857.9789999880886,,response,,,,99,,,,,,,Space,keypress(Space),,,,,,,,---- -- ----- -- ------ - ------- --- ----------<br>------------- ------ ------ ---- ---- ------- ----- -- ----<br>-------- ------- -- ---------- --- - --- ----- ----- ----<br>it's --- --- ----- --- ---- ---- ------- ----- ---- -------<br>--- --- -- ----- -- --- ---- -- --- ---- -- ------ ------<br>--- ----- -- ----,194398.89999997616,194398.69999998808,193534.349,193538.59999996424,193540.721,194401.801,,28,it's
screen,html.Screen,2_1_0_1_29,2022-02-02T16:09:27.106Z,,,,,,,,,,,,,,,,,53,,,,,,,,,,,,,,826.3989999880723,,response,,,,99,,,,,,,Space,keypress(Space),,,,,,,,---- -- ----- -- ------ - ------- --- ----------<br>------------- ------ ------ ---- ---- ------- ----- -- ----<br>-------- ------- -- ---------- --- - --- ----- ----- ----<br>---- not --- ----- --- ---- ---- ------- ----- ---- -------<br>--- --- -- ----- -- --- ---- -- --- ---- -- ------ ------<br>--- ----- -- ----,195228.5,195228.19999998808,194395.099,194399.09999996424,194401.801,195235.144,,29,not
screen,html.Screen,2_1_0_1_30,2022-02-02T16:09:27.829Z,,,,,,,,,,,,,,,,,53,,,,,,,,,,,,,,716.7559999761579,,response,,,,99,,,,,,,Space,keypress(Space),,,,,,,,---- -- ----- -- ------ - ------- --- ----------<br>------------- ------ ------ ---- ---- ------- ----- -- ----<br>-------- ------- -- ---------- --- - --- ----- ----- ----<br>---- --- how ----- --- ---- ---- ------- ----- ---- -------<br>--- --- -- ----- -- --- ---- -- --- ---- -- ------ ------<br>--- ----- -- ----,195952.19999998808,195951.89999997616,195228.2,195228.59999996424,195235.144,195957.365,,30,how
screen,html.Screen,2_1_0_1_31,2022-02-02T16:09:28.462Z,,,,,,,,,,,,,,,,,53,,,,,,,,,,,,,,627.6350000000093,,response,,,,99,,,,,,,Space,keypress(Space),,,,,,,,---- -- ----- -- ------ - ------- --- ----------<br>------------- ------ ------ ---- ---- ------- ----- -- ----<br>-------- ------- -- ---------- --- - --- ----- ----- ----<br>---- --- --- close --- ---- ---- ------- ----- ---- -------<br>--- --- -- ----- -- --- ---- -- --- ---- -- ------ ------<br>--- ----- -- ----,196585.19999998808,196585,195950.441,195952.30000001192,195957.365,196589.335,,31,close
screen,html.Screen,2_1_0_1_32,2022-02-02T16:09:29.104Z,,,,,,,,,,,,,,,,,53,,,,,,,,,,,,,,636.7649999642454,,response,,,,99,,,,,,,Space,keypress(Space),,,,,,,,---- -- ----- -- ------ - ------- --- ----------<br>------------- ------ ------ ---- ---- ------- ----- -- ----<br>-------- ------- -- ---------- --- - --- ----- ----- ----<br>---- --- --- ----- you ---- ---- ------- ----- ---- -------<br>--- --- -- ----- -- --- ---- -- --- ---- -- ------ ------<br>--- ----- -- ----,197226.5,197226.09999996424,196582.4,196585.30000001192,196589.335,197228.179,,32,you
screen,html.Screen,2_1_0_1_33,2022-02-02T16:09:29.825Z,,,,,,,,,,,,,,,,,53,,,,,,,,,,,,,,719.0209999880753,,response,,,,99,,,,,,,Space,keypress(Space),,,,,,,,---- -- ----- -- ------ - ------- --- ----------<br>------------- ------ ------ ---- ---- ------- ----- -- ----<br>-------- ------- -- ---------- --- - --- ----- ----- ----<br>---- --- --- ----- --- feel ---- ------- ----- ---- -------<br>--- --- -- ----- -- --- ---- -- --- ---- -- ------ ------<br>--- ----- -- ----,197947.5,197947.19999998808,197221.263,197226.5,197228.179,197950.404,,33,feel
screen,html.Screen,2_1_0_1_34,2022-02-02T16:09:30.478Z,,,,,,,,,,,,,,,,,53,,,,,,,,,,,,,,649.8960000119114,,response,,,,99,,,,,,,Space,keypress(Space),,,,,,,,---- -- ----- -- ------ - ------- --- ----------<br>------------- ------ ------ ---- ---- ------- ----- -- ----<br>-------- ------- -- ---------- --- - --- ----- ----- ----<br>---- --- --- ----- --- ---- that ------- ----- ---- -------<br>--- --- -- ----- -- --- ---- -- --- ---- -- ------ ------<br>--- ----- -- ----,198600.59999996424,198600.30000001192,197943.827,197947.5,197950.404,198603.172,,34,that
screen,html.Screen,2_1_0_1_35,2022-02-02T16:09:31.291Z,,,,,,,,,,,,,,,,,53,,,,,,,,,,,,,,810.2279999761668,,response,,,,99,,,,,,,Space,keypress(Space),,,,,,,,---- -- ----- -- ------ - ------- --- ----------<br>------------- ------ ------ ---- ---- ------- ----- -- ----<br>-------- ------- -- ---------- --- - --- ----- ----- ----<br>---- --- --- ----- --- ---- ---- matters ----- ---- -------<br>--- --- -- ----- -- --- ---- -- --- ---- -- ------ ------<br>--- ----- -- ----,199413.69999998808,199413.39999997616,198596.616,198600.69999998808,198603.172,199415.683,,35,matters
screen,html.Screen,2_1_0_1_36,2022-02-02T16:09:31.993Z,,,,,,,,,,,,,,,,,53,,,,,,,,,,,,,,699.81700000001,,response,,,,99,,,,,,,Space,keypress(Space),,,,,,,,"---- -- ----- -- ------ - ------- --- ----------<br>------------- ------ ------ ---- ---- ------- ----- -- ----<br>-------- ------- -- ---------- --- - --- ----- ----- ----<br>---- --- --- ----- --- ---- ---- ------- most, ---- -------<br>--- --- -- ----- -- --- ---- -- --- ---- -- ------ ------<br>--- ----- -- ----",200115.80000001192,200115.5,199409.384,199413.89999997616,199415.683,200117.098,,36,"most,"
screen,html.Screen,2_1_0_1_37,2022-02-02T16:09:32.689Z,,,,,,,,,,,,,,,,,53,,,,,,,,,,,,,,694.5019999642391,,response,,,,99,,,,,,,Space,keypress(Space),,,,,,,,---- -- ----- -- ------ - ------- --- ----------<br>------------- ------ ------ ---- ---- ------- ----- -- ----<br>-------- ------- -- ---------- --- - --- ----- ----- ----<br>---- --- --- ----- --- ---- ---- ------- ----- it's -------<br>--- --- -- ----- -- --- ---- -- --- ---- -- ------ ------<br>--- ----- -- ----,200811.89999997616,200811.59999996424,200110.128,200115.89999997616,200117.098,200818.44,,37,it's
screen,html.Screen,2_1_0_1_38,2022-02-02T16:09:33.374Z,,,,,,,,,,,,,,,,,53,,,,,,,,,,,,,,678.1599999642349,,response,,,,99,,,,,,,Space,keypress(Space),,,,,,,,---- -- ----- -- ------ - ------- --- ----------<br>------------- ------ ------ ---- ---- ------- ----- -- ----<br>-------- ------- -- ---------- --- - --- ----- ----- ----<br>---- --- --- ----- --- ---- ---- ------- ----- ---- whether<br>--- --- -- ----- -- --- ---- -- --- ---- -- ------ ------<br>--- ----- -- ----,201497,201496.59999996424,200811.504,200811.89999997616,200818.44,201498.987,,38,whether
screen,html.Screen,2_1_0_1_39,2022-02-02T16:09:34.018Z,,,,,,,,,,,,,,,,,53,,,,,,,,,,,,,,641.8130000119272,,response,,,,99,,,,,,,Space,keypress(Space),,,,,,,,---- -- ----- -- ------ - ------- --- ----------<br>------------- ------ ------ ---- ---- ------- ----- -- ----<br>-------- ------- -- ---------- --- - --- ----- ----- ----<br>---- --- --- ----- --- ---- ---- ------- ----- ---- -------<br>you --- -- ----- -- --- ---- -- --- ---- -- ------ ------<br>--- ----- -- ----,202141,202140.80000001192,201492.073,201497.09999996424,201498.987,202144.846,,39,you
screen,html.Screen,2_1_0_1_40,2022-02-02T16:09:34.987Z,,,,,,,,,,,,,,,,,53,,,,,,,,,,,,,,965.0539999761677,,response,,,,99,,,,,,,Space,keypress(Space),,,,,,,,---- -- ----- -- ------ - ------- --- ----------<br>------------- ------ ------ ---- ---- ------- ----- -- ----<br>-------- ------- -- ---------- --- - --- ----- ----- ----<br>---- --- --- ----- --- ---- ---- ------- ----- ---- -------<br>--- are -- ----- -- --- ---- -- --- ---- -- ------ ------<br>--- ----- -- ----,203110.30000001192,203109.89999997616,202138.466,202141,202144.846,203117.057,,40,are
screen,html.Screen,2_1_0_1_41,2022-02-02T16:09:35.725Z,,,,,,,,,,,,,,,,,53,,,,,,,,,,,,,,730.2430000119202,,response,,,,99,,,,,,,Space,keypress(Space),,,,,,,,---- -- ----- -- ------ - ------- --- ----------<br>------------- ------ ------ ---- ---- ------- ----- -- ----<br>-------- ------- -- ---------- --- - --- ----- ----- ----<br>---- --- --- ----- --- ---- ---- ------- ----- ---- -------<br>--- --- as ----- -- --- ---- -- --- ---- -- ------ ------<br>--- ----- -- ----,203847.59999996424,203847.30000001192,203110.093,203110.39999997616,203117.057,203853.178,,41,as
screen,html.Screen,2_1_0_1_42,2022-02-02T16:09:36.394Z,,,,,,,,,,,,,,,,,53,,,,,,,,,,,,,,663.3219999999856,,response,,,,99,,,,,,,Space,keypress(Space),,,,,,,,---- -- ----- -- ------ - ------- --- ----------<br>------------- ------ ------ ---- ---- ------- ----- -- ----<br>-------- ------- -- ---------- --- - --- ----- ----- ----<br>---- --- --- ----- --- ---- ---- ------- ----- ---- -------<br>--- --- -- close -- --- ---- -- --- ---- -- ------ ------<br>--- ----- -- ----,204516.80000001192,204516.5,203846.818,203847.59999996424,203853.178,204519.812,,42,close
screen,html.Screen,2_1_0_1_43,2022-02-02T16:09:37.143Z,,,,,,,,,,,,,,,,,53,,,,,,,,,,,,,,745.2879999642319,,response,,,,99,,,,,,,Space,keypress(Space),,,,,,,,---- -- ----- -- ------ - ------- --- ----------<br>------------- ------ ------ ---- ---- ------- ----- -- ----<br>-------- ------- -- ---------- --- - --- ----- ----- ----<br>---- --- --- ----- --- ---- ---- ------- ----- ---- -------<br>--- --- -- ----- as --- ---- -- --- ---- -- ------ ------<br>--- ----- -- ----,205265.39999997616,205265.09999996424,204512.889,204516.89999997616,204519.812,205269.798,,43,as
screen,html.Screen,2_1_0_1_44,2022-02-02T16:09:38.056Z,,,,,,,,,,,,,,,,,53,,,,,,,,,,,,,,909.0020000119112,,response,,,,99,,,,,,,Space,keypress(Space),,,,,,,,---- -- ----- -- ------ - ------- --- ----------<br>------------- ------ ------ ---- ---- ------- ----- -- ----<br>-------- ------- -- ---------- --- - --- ----- ----- ----<br>---- --- --- ----- --- ---- ---- ------- ----- ---- -------<br>--- --- -- ----- -- you ---- -- --- ---- -- ------ ------<br>--- ----- -- ----,206179.09999996424,206178.80000001192,205262.874,205265.5,205269.798,206179.514,,44,you
screen,html.Screen,2_1_0_1_45,2022-02-02T16:09:38.894Z,,,,,,,,,,,,,,,,,53,,,,,,,,,,,,,,836.7860000119254,,response,,,,99,,,,,,,Space,keypress(Space),,,,,,,,---- -- ----- -- ------ - ------- --- ----------<br>------------- ------ ------ ---- ---- ------- ----- -- ----<br>-------- ------- -- ---------- --- - --- ----- ----- ----<br>---- --- --- ----- --- ---- ---- ------- ----- ---- -------<br>--- --- -- ----- -- --- want -- --- ---- -- ------ ------<br>--- ----- -- ----,207016.59999996424,207016.30000001192,206172.604,206179.09999996424,206179.514,207019.797,,45,want
screen,html.Screen,2_1_0_1_46,2022-02-02T16:09:39.463Z,,,,,,,,,,,,,,,,,53,,,,,,,,,,,,,,565.7030000000086,,response,,,,99,,,,,,,Space,keypress(Space),,,,,,,,---- -- ----- -- ------ - ------- --- ----------<br>------------- ------ ------ ---- ---- ------- ----- -- ----<br>-------- ------- -- ---------- --- - --- ----- ----- ----<br>---- --- --- ----- --- ---- ---- ------- ----- ---- -------<br>--- --- -- ----- -- --- ---- to --- ---- -- ------ ------<br>--- ----- -- ----,207585.80000001192,207585.5,207012.869,207016.59999996424,207019.797,207589.227,,46,to
screen,html.Screen,2_1_0_1_47,2022-02-02T16:09:40.552Z,,,,,,,,,,,,,,,,,53,,,,,,,,,,,,,,1085.2729999999865,,response,,,,99,,,,,,,Space,keypress(Space),,,,,,,,"---- -- ----- -- ------ - ------- --- ----------<br>------------- ------ ------ ---- ---- ------- ----- -- ----<br>-------- ------- -- ---------- --- - --- ----- ----- ----<br>---- --- --- ----- --- ---- ---- ------- ----- ---- -------<br>--- --- -- ----- -- --- ---- -- be, ---- -- ------ ------<br>--- ----- -- ----",208674.89999997616,208674.5,207582.279,207585.89999997616,207589.227,208679.498,,47,"be,"
screen,html.Screen,2_1_0_1_48,2022-02-02T16:09:41.225Z,,,,,,,,,,,,,,,,,53,,,,,,,,,,,,,,668.2019999880868,,response,,,,99,,,,,,,Space,keypress(Space),,,,,,,,---- -- ----- -- ------ - ------- --- ----------<br>------------- ------ ------ ---- ---- ------- ----- -- ----<br>-------- ------- -- ---------- --- - --- ----- ----- ----<br>---- --- --- ----- --- ---- ---- ------- ----- ---- -------<br>--- --- -- ----- -- --- ---- -- --- even -- ------ ------<br>--- ----- -- ----,209348.09999996424,209347.69999998808,208672.592,208674.89999997616,208679.498,209353.116,,48,even
screen,html.Screen,2_1_0_1_49,2022-02-02T16:09:41.778Z,,,,,,,,,,,,,,,,,53,,,,,,,,,,,,,,547.58399998807,,response,,,,99,,,,,,,Space,keypress(Space),,,,,,,,---- -- ----- -- ------ - ------- --- ----------<br>------------- ------ ------ ---- ---- ------- ----- -- ----<br>-------- ------- -- ---------- --- - --- ----- ----- ----<br>---- --- --- ----- --- ---- ---- ------- ----- ---- -------<br>--- --- -- ----- -- --- ---- -- --- ---- if ------ ------<br>--- ----- -- ----,209901,209900.69999998808,209346.399,209348.09999996424,209353.116,209901.741,,49,if
screen,html.Screen,2_1_0_1_50,2022-02-02T16:09:42.256Z,,,,,,,,,,,,,,,,,53,,,,,,,,,,,,,,476.65899997614906,,response,,,,99,,,,,,,Space,keypress(Space),,,,,,,,---- -- ----- -- ------ - ------- --- ----------<br>------------- ------ ------ ---- ---- ------- ----- -- ----<br>-------- ------- -- ---------- --- - --- ----- ----- ----<br>---- --- --- ----- --- ---- ---- ------- ----- ---- -------<br>--- --- -- ----- -- --- ---- -- --- ---- -- that's ------<br>--- ----- -- ----,210378.69999998808,210378.39999997616,209894.916,209901.09999996424,209901.741,210380.893,,50,that's
screen,html.Screen,2_1_0_1_51,2022-02-02T16:09:42.795Z,,,,,,,,,,,,,,,,,53,,,,,,,,,,,,,,537.0069999761472,,response,,,,99,,,,,,,Space,keypress(Space),,,,,,,,---- -- ----- -- ------ - ------- --- ----------<br>------------- ------ ------ ---- ---- ------- ----- -- ----<br>-------- ------- -- ---------- --- - --- ----- ----- ----<br>---- --- --- ----- --- ---- ---- ------- ----- ---- -------<br>--- --- -- ----- -- --- ---- -- --- ---- -- ------ really<br>--- ----- -- ----,210918.19999998808,210917.89999997616,210373.931,210378.69999998808,210380.893,210922.541,,51,really
screen,html.Screen,2_1_0_1_52,2022-02-02T16:09:43.437Z,,,,,,,,,,,,,,,,,53,,,,,,,,,,,,,,637.0589999642398,,response,,,,99,,,,,,,Space,keypress(Space),,,,,,,,---- -- ----- -- ------ - ------- --- ----------<br>------------- ------ ------ ---- ---- ------- ----- -- ----<br>-------- ------- -- ---------- --- - --- ----- ----- ----<br>---- --- --- ----- --- ---- ---- ------- ----- ---- -------<br>--- --- -- ----- -- --- ---- -- --- ---- -- ------ ------<br>not ----- -- ----,211560,211559.59999996424,210915.626,210918.30000001192,210922.541,211561.446,,52,not
screen,html.Screen,2_1_0_1_53,2022-02-02T16:09:43.942Z,,,,,,,,,,,,,,,,,53,,,,,,,,,,,,,,502.5540000000037,,response,,,,99,,,,,,,Space,keypress(Space),,,,,,,,---- -- ----- -- ------ - ------- --- ----------<br>------------- ------ ------ ---- ---- ------- ----- -- ----<br>-------- ------- -- ---------- --- - --- ----- ----- ----<br>---- --- --- ----- --- ---- ---- ------- ----- ---- -------<br>--- --- -- ----- -- --- ---- -- --- ---- -- ------ ------<br>--- close -- ----,212064.30000001192,212064,211554.652,211560.09999996424,211561.446,212068.368,,53,close
screen,html.Screen,2_1_0_1_54,2022-02-02T16:09:44.455Z,,,,,,,,,,,,,,,,,53,,,,,,,,,,,,,,508.73199996424955,,response,,,,99,,,,,,,Space,keypress(Space),,,,,,,,---- -- ----- -- ------ - ------- --- ----------<br>------------- ------ ------ ---- ---- ------- ----- -- ----<br>-------- ------- -- ---------- --- - --- ----- ----- ----<br>---- --- --- ----- --- ---- ---- ------- ----- ---- -------<br>--- --- -- ----- -- --- ---- -- --- ---- -- ------ ------<br>--- ----- at ----,212577.39999997616,212577.09999996424,212061.435,212064.39999997616,212068.368,212582.258,,54,at
screen,html.Screen,2_1_0_1_55,2022-02-02T16:09:45.044Z,,,,,,,,,,,,,,,,,53,,,,,,,,,,,,,,584.4419999880774,,response,,,,99,,,,,,,Space,keypress(Space),,,,,,,,---- -- ----- -- ------ - ------- --- ----------<br>------------- ------ ------ ---- ---- ------- ----- -- ----<br>-------- ------- -- ---------- --- - --- ----- ----- ----<br>---- --- --- ----- --- ---- ---- ------- ----- ---- -------<br>--- --- -- ----- -- --- ---- -- --- ---- -- ------ ------<br>--- ----- -- all.,213167,213166.69999998808,212575.329,212577.39999997616,212582.258,213172.551,,55,all.
Item 99,flow.Loop,2_1_0_1,2022-02-02T16:09:45.044Z,,,,,,,,,,,,,,,,,,,,,,,,,,,,,,,46368.887999988074,,completion,,,,,D,,,,,,,,,,,silence,,,,,213167.09999996424,213166.69999998808,166784.403,166784.89999997616,166797.812,213172.551,,,
Question 1,html.Screen,2_1_0_2,2022-02-02T16:09:52.124Z,,,,,,,,,,,,,,,,,,,,,,,,,,,,true,FALSE,,7073.648999988072,,response,,,,99,D,,,,,,FALSE,click #choice-2,,,,silence,,,,,220246.69999998808,220246.19999998808,213166.187,213167.19999998808,213172.551,220248.876,,,
Question 2,html.Screen,2_1_0_3,2022-02-02T16:09:58.316Z,,,,,,,,,,,,,,,,,,,,,,,,,,,,true,TRUE,,6189.924000011932,,response,,,,99,D,,,,,,TRUE,click #choice-1,,,,silence,,,,,226439.19999998808,226438.80000001192,220242.218,220246.80000001192,220248.876,226443.295,,,
Item 99,flow.Sequence,2_1_0,2022-02-02T16:09:58.317Z,,,,,,,,,,,,,,,,,,,,,,,,,,,,,,,69647.87700001191,,completion,,,,,,,,,,,,,,,,,,,,,226439.30000001192,226438.80000001192,156783.954,156790.19999998808,156790.923,226443.295,,,
Holding screen,html.Screen,2_1_1_0,2022-02-02T16:10:08.315Z,,,,,,,,,,,,,,,,,,,,,,,,,,,,,,,9999.937999999995,,timeout,,,,,,,,,,,,,,,,,,,,,236437.39999997616,236436.289,226436.354,226439.39999997616,226443.295,236443.233,,,
screen,html.Screen,2_1_1_1_0,2022-02-02T16:10:09.305Z,,,,,,,,,,,,,,,,,54,,,,,,,,,,,,,,983.8669999642298,,response,,,,100,,,,,,,Space,keypress(Space),,,,,,,,At --- ---- --- ------ ----- ------- ---- -- --- ------- --<br>------- ---------- ------ -- ----- -- ----- -- ---- ------<br>--- ----- --- --- ------ -------- ----- --- ------ ----- --<br>----- ----- ---------- --- --- ------ ------ ---- -- ------<br>------- --- ------ ----- --- ---- ------- -- ---- --- --<br>------- ------,237427.39999997616,237427.09999996424,236436.289,236437.39999997616,236443.233,237429.341,,0,At
screen,html.Screen,2_1_1_1_1,2022-02-02T16:10:09.865Z,,,,,,,,,,,,,,,,,54,,,,,,,,,,,,,,558.1590000000142,,response,,,,100,,,,,,,Space,keypress(Space),,,,,,,,-- the ---- --- ------ ----- ------- ---- -- --- ------- --<br>------- ---------- ------ -- ----- -- ----- -- ---- ------<br>--- ----- --- --- ------ -------- ----- --- ------ ----- --<br>----- ----- ---------- --- --- ------ ------ ---- -- ------<br>------- --- ------ ----- --- ---- ------- -- ---- --- --<br>------- ------,237987.80000001192,237987.5,237422.415,237427.5,237429.341,237991.841,,1,the
screen,html.Screen,2_1_1_1_2,2022-02-02T16:10:10.358Z,,,,,,,,,,,,,,,,,54,,,,,,,,,,,,,,488.6590000000142,,response,,,,100,,,,,,,Space,keypress(Space),,,,,,,,-- --- time --- ------ ----- ------- ---- -- --- ------- --<br>------- ---------- ------ -- ----- -- ----- -- ---- ------<br>--- ----- --- --- ------ -------- ----- --- ------ ----- --<br>----- ----- ---------- --- --- ------ ------ ---- -- ------<br>------- --- ------ ----- --- ---- ------- -- ---- --- --<br>------- ------,238481,238480.5,237984.903,237987.89999997616,237991.841,238484.909,,2,time
screen,html.Screen,2_1_1_1_3,2022-02-02T16:10:10.820Z,,,,,,,,,,,,,,,,,54,,,,,,,,,,,,,,457.49099997614394,,response,,,,100,,,,,,,Space,keypress(Space),,,,,,,,-- --- ---- the ------ ----- ------- ---- -- --- ------- --<br>------- ---------- ------ -- ----- -- ----- -- ---- ------<br>--- ----- --- --- ------ -------- ----- --- ------ ----- --<br>----- ----- ---------- --- --- ------ ------ ---- -- ------<br>------- --- ------ ----- --- ---- ------- -- ---- --- --<br>------- ------,238942.69999998808,238942.39999997616,238477.965,238481,238484.909,238943.22,,3,the
screen,html.Screen,2_1_1_1_4,2022-02-02T16:10:11.416Z,,,,,,,,,,,,,,,,,54,,,,,,,,,,,,,,595.4799999880779,,response,,,,100,,,,,,,Space,keypress(Space),,,,,,,,-- --- ---- --- French ----- ------- ---- -- --- ------- --<br>------- ---------- ------ -- ----- -- ----- -- ---- ------<br>--- ----- --- --- ------ -------- ----- --- ------ ----- --<br>----- ----- ---------- --- --- ------ ------ ---- -- ------<br>------- --- ------ ----- --- ---- ------- -- ---- --- --<br>------- ------,239539,239538.69999998808,238936.292,238942.80000001192,238943.22,239540.451,,4,French
screen,html.Screen,2_1_1_1_5,2022-02-02T16:10:11.900Z,,,,,,,,,,,,,,,,,54,,,,,,,,,,,,,,482.34900001192,,response,,,,100,,,,,,,Space,keypress(Space),,,,,,,,-- --- ---- --- ------ crown ------- ---- -- --- ------- --<br>------- ---------- ------ -- ----- -- ----- -- ---- ------<br>--- ----- --- --- ------ -------- ----- --- ------ ----- --<br>----- ----- ---------- --- --- ------ ------ ---- -- ------<br>------- --- ------ ----- --- ---- ------- -- ---- --- --<br>------- ------,240023.09999996424,240022.80000001192,239533.486,239539,239540.451,240026.544,,5,crown
screen,html.Screen,2_1_1_1_6,2022-02-02T16:10:12.578Z,,,,,,,,,,,,,,,,,54,,,,,,,,,,,,,,674.3559999761637,,response,,,,100,,,,,,,Space,keypress(Space),,,,,,,,-- --- ---- --- ------ ----- secured ---- -- --- ------- --<br>------- ---------- ------ -- ----- -- ----- -- ---- ------<br>--- ----- --- --- ------ -------- ----- --- ------ ----- --<br>----- ----- ---------- --- --- ------ ------ ---- -- ------<br>------- --- ------ ----- --- ---- ------- -- ---- --- --<br>------- ------,240701.09999996424,240700.89999997616,240019.622,240023.19999998808,240026.544,240707.12,,6,secured
screen,html.Screen,2_1_1_1_7,2022-02-02T16:10:13.244Z,,,,,,,,,,,,,,,,,54,,,,,,,,,,,,,,658.8800000000047,,response,,,,100,,,,,,,Space,keypress(Space),,,,,,,,-- --- ---- --- ------ ----- ------- much -- --- ------- --<br>------- ---------- ------ -- ----- -- ----- -- ---- ------<br>--- ----- --- --- ------ -------- ----- --- ------ ----- --<br>----- ----- ---------- --- --- ------ ------ ---- -- ------<br>------- --- ------ ----- --- ---- ------- -- ---- --- --<br>------- ------,241366.30000001192,241366,240700.164,240701.19999998808,240707.12,241366.828,,7,much
screen,html.Screen,2_1_1_1_8,2022-02-02T16:10:13.689Z,,,,,,,,,,,,,,,,,54,,,,,,,,,,,,,,444.1719999999914,,response,,,,100,,,,,,,Space,keypress(Space),,,,,,,,-- --- ---- --- ------ ----- ------- ---- of --- ------- --<br>------- ---------- ------ -- ----- -- ----- -- ---- ------<br>--- ----- --- --- ------ -------- ----- --- ------ ----- --<br>----- ----- ---------- --- --- ------ ------ ---- -- ------<br>------- --- ------ ----- --- ---- ------- -- ---- --- --<br>------- ------,241811.30000001192,241811,241359.887,241366.30000001192,241366.828,241818.242,,8,of
screen,html.Screen,2_1_1_1_9,2022-02-02T16:10:14.093Z,,,,,,,,,,,,,,,,,54,,,,,,,,,,,,,,396.85799996423884,,response,,,,100,,,,,,,Space,keypress(Space),,,,,,,,-- --- ---- --- ------ ----- ------- ---- -- its ------- --<br>------- ---------- ------ -- ----- -- ----- -- ---- ------<br>--- ----- --- --- ------ -------- ----- --- ------ ----- --<br>----- ----- ---------- --- --- ------ ------ ---- -- ------<br>------- --- ------ ----- --- ---- ------- -- ---- --- --<br>------- ------,242215.5,242215.09999996424,241811.26,241811.39999997616,241818.242,242221.005,,9,its
screen,html.Screen,2_1_1_1_10,2022-02-02T16:10:14.518Z,,,,,,,,,,,,,,,,,54,,,,,,,,,,,,,,419.09499996423256,,response,,,,100,,,,,,,Space,keypress(Space),,,,,,,,-- --- ---- --- ------ ----- ------- ---- -- --- revenue --<br>------- ---------- ------ -- ----- -- ----- -- ---- ------<br>--- ----- --- --- ------ -------- ----- --- ------ ----- --<br>----- ----- ---------- --- --- ------ ------ ---- -- ------<br>------- --- ------ ----- --- ---- ------- -- ---- --- --<br>------- ------,242640.39999997616,242640.09999996424,242214.211,242215.5,242221.005,242644.621,,10,revenue
screen,html.Screen,2_1_1_1_11,2022-02-02T16:10:15.263Z,,,,,,,,,,,,,,,,,54,,,,,,,,,,,,,,740.7789999761444,,response,,,,100,,,,,,,Space,keypress(Space),,,,,,,,-- --- ---- --- ------ ----- ------- ---- -- --- ------- by<br>------- ---------- ------ -- ----- -- ----- -- ---- ------<br>--- ----- --- --- ------ -------- ----- --- ------ ----- --<br>----- ----- ---------- --- --- ------ ------ ---- -- ------<br>------- --- ------ ----- --- ---- ------- -- ---- --- --<br>------- ------,243385.69999998808,243385.39999997616,242638.215,242640.5,242644.621,243387.651,,11,by
screen,html.Screen,2_1_1_1_12,2022-02-02T16:10:16.028Z,,,,,,,,,,,,,,,,,54,,,,,,,,,,,,,,762.7489999761456,,response,,,,100,,,,,,,Space,keypress(Space),,,,,,,,-- --- ---- --- ------ ----- ------- ---- -- --- ------- --<br>issuing ---------- ------ -- ----- -- ----- -- ---- ------<br>--- ----- --- --- ------ -------- ----- --- ------ ----- --<br>----- ----- ---------- --- --- ------ ------ ---- -- ------<br>------- --- ------ ----- --- ---- ------- -- ---- --- --<br>------- ------,244150.69999998808,244150.39999997616,243380.696,243385.80000001192,243387.651,244151.52,,12,issuing
screen,html.Screen,2_1_1_1_13,2022-02-02T16:10:16.565Z,,,,,,,,,,,,,,,,,54,,,,,,,,,,,,,,535.9800000000105,,response,,,,100,,,,,,,Space,keypress(Space),,,,,,,,-- --- ---- --- ------ ----- ------- ---- -- --- ------- --<br>------- government ------ -- ----- -- ----- -- ---- ------<br>--- ----- --- --- ------ -------- ----- --- ------ ----- --<br>----- ----- ---------- --- --- ------ ------ ---- -- ------<br>------- --- ------ ----- --- ---- ------- -- ---- --- --<br>------- ------,244687.80000001192,244687.5,244144.83,244150.80000001192,244151.52,244693.209,,13,government
screen,html.Screen,2_1_1_1_14,2022-02-02T16:10:17.002Z,,,,,,,,,,,,,,,,,54,,,,,,,,,,,,,,431.29099999999744,,response,,,,100,,,,,,,Space,keypress(Space),,,,,,,,-- --- ---- --- ------ ----- ------- ---- -- --- ------- --<br>------- ---------- bonds. -- ----- -- ----- -- ---- ------<br>--- ----- --- --- ------ -------- ----- --- ------ ----- --<br>----- ----- ---------- --- --- ------ ------ ---- -- ------<br>------- --- ------ ----- --- ---- ------- -- ---- --- --<br>------- ------,245124.80000001192,245124.5,244686.246,244687.89999997616,244693.209,245130.695,,14,bonds.
screen,html.Screen,2_1_1_1_15,2022-02-02T16:10:17.603Z,,,,,,,,,,,,,,,,,54,,,,,,,,,,,,,,594.9049999642302,,response,,,,100,,,,,,,Space,keypress(Space),,,,,,,,-- --- ---- --- ------ ----- ------- ---- -- --- ------- --<br>------- ---------- ------ In ----- -- ----- -- ---- ------<br>--- ----- --- --- ------ -------- ----- --- ------ ----- --<br>----- ----- ---------- --- --- ------ ------ ---- -- ------<br>------- --- ------ ----- --- ---- ------- -- ---- --- --<br>------- ------,245725.89999997616,245725.59999996424,245123.743,245124.89999997616,245130.695,245727.919,,15,In
screen,html.Screen,2_1_1_1_16,2022-02-02T16:10:18.781Z,,,,,,,,,,,,,,,,,54,,,,,,,,,,,,,,1175.8810000119265,,response,,,,100,,,,,,,Space,keypress(Space),,,,,,,,"-- --- ---- --- ------ ----- ------- ---- -- --- ------- --<br>------- ---------- ------ -- 1727, -- ----- -- ---- ------<br>--- ----- --- --- ------ -------- ----- --- ------ ----- --<br>----- ----- ---------- --- --- ------ ------ ---- -- ------<br>------- --- ------ ----- --- ---- ------- -- ---- --- --<br>------- ------",246904,246903.80000001192,245721.626,245726,245727.919,246908.452,,16,"1727,"
screen,html.Screen,2_1_1_1_17,2022-02-02T16:10:19.306Z,,,,,,,,,,,,,,,,,54,,,,,,,,,,,,,,519.8480000119307,,response,,,,100,,,,,,,Space,keypress(Space),,,,,,,,-- --- ---- --- ------ ----- ------- ---- -- --- ------- --<br>------- ---------- ------ -- ----- in ----- -- ---- ------<br>--- ----- --- --- ------ -------- ----- --- ------ ----- --<br>----- ----- ---------- --- --- ------ ------ ---- -- ------<br>------- --- ------ ----- --- ---- ------- -- ---- --- --<br>------- ------,247428.69999998808,247428.30000001192,246901.502,246904.09999996424,246908.452,247429.283,,17,in
screen,html.Screen,2_1_1_1_18,2022-02-02T16:10:19.948Z,,,,,,,,,,,,,,,,,54,,,,,,,,,,,,,,640.8169999642414,,response,,,,100,,,,,,,Space,keypress(Space),,,,,,,,-- --- ---- --- ------ ----- ------- ---- -- --- ------- --<br>------- ---------- ------ -- ----- -- order -- ---- ------<br>--- ----- --- --- ------ -------- ----- --- ------ ----- --<br>----- ----- ---------- --- --- ------ ------ ---- -- ------<br>------- --- ------ ----- --- ---- ------- -- ---- --- --<br>------- ------,248070.39999997616,248070.09999996424,247422.341,247428.80000001192,247429.283,248075.156,,18,order
screen,html.Screen,2_1_1_1_19,2022-02-02T16:10:20.352Z,,,,,,,,,,,,,,,,,54,,,,,,,,,,,,,,398.8440000000119,,response,,,,100,,,,,,,Space,keypress(Space),,,,,,,,-- --- ---- --- ------ ----- ------- ---- -- --- ------- --<br>------- ---------- ------ -- ----- -- ----- to ---- ------<br>--- ----- --- --- ------ -------- ----- --- ------ ----- --<br>----- ----- ---------- --- --- ------ ------ ---- -- ------<br>------- --- ------ ----- --- ---- ------- -- ---- --- --<br>------- ------,248474.30000001192,248474,248068.469,248070.39999997616,248075.156,248477.918,,19,to
screen,html.Screen,2_1_1_1_20,2022-02-02T16:10:20.753Z,,,,,,,,,,,,,,,,,54,,,,,,,,,,,,,,397.0819999999949,,response,,,,100,,,,,,,Space,keypress(Space),,,,,,,,-- --- ---- --- ------ ----- ------- ---- -- --- ------- --<br>------- ---------- ------ -- ----- -- ----- -- save ------<br>--- ----- --- --- ------ -------- ----- --- ------ ----- --<br>----- ----- ---------- --- --- ------ ------ ---- -- ------<br>------- --- ------ ----- --- ---- ------- -- ---- --- --<br>------- ------,248875.30000001192,248875,248470.991,248474.30000001192,248477.918,248880.663,,20,save
screen,html.Screen,2_1_1_1_21,2022-02-02T16:10:21.169Z,,,,,,,,,,,,,,,,,54,,,,,,,,,,,,,,410.43699996423675,,response,,,,100,,,,,,,Space,keypress(Space),,,,,,,,"-- --- ---- --- ------ ----- ------- ---- -- --- ------- --<br>------- ---------- ------ -- ----- -- ----- -- ---- money,<br>--- ----- --- --- ------ -------- ----- --- ------ ----- --<br>----- ----- ---------- --- --- ------ ------ ---- -- ------<br>------- --- ------ ----- --- ---- ------- -- ---- --- --<br>------- ------",249291.39999997616,249291.09999996424,248874.273,248875.39999997616,248880.663,249297.534,,21,"money,"
screen,html.Screen,2_1_1_1_22,2022-02-02T16:10:21.694Z,,,,,,,,,,,,,,,,,54,,,,,,,,,,,,,,519.2660000119067,,response,,,,100,,,,,,,Space,keypress(Space),,,,,,,,-- --- ---- --- ------ ----- ------- ---- -- --- ------- --<br>------- ---------- ------ -- ----- -- ----- -- ---- ------<br>the ----- --- --- ------ -------- ----- --- ------ ----- --<br>----- ----- ---------- --- --- ------ ------ ---- -- ------<br>------- --- ------ ----- --- ---- ------- -- ---- --- --<br>------- ------,249817.09999996424,249816.80000001192,249290.434,249291.39999997616,249297.534,249818.183,,22,the
screen,html.Screen,2_1_1_1_23,2022-02-02T16:10:22.055Z,,,,,,,,,,,,,,,,,54,,,,,,,,,,,,,,359.5169999880891,,response,,,,100,,,,,,,Space,keypress(Space),,,,,,,,-- --- ---- --- ------ ----- ------- ---- -- --- ------- --<br>------- ---------- ------ -- ----- -- ----- -- ---- ------<br>--- state --- --- ------ -------- ----- --- ------ ----- --<br>----- ----- ---------- --- --- ------ ------ ---- -- ------<br>------- --- ------ ----- --- ---- ------- -- ---- --- --<br>------- ------,250177.89999997616,250177.69999998808,249811.249,249817.19999998808,249818.183,250179.268,,23,state
screen,html.Screen,2_1_1_1_24,2022-02-02T16:10:22.508Z,,,,,,,,,,,,,,,,,54,,,,,,,,,,,,,,451.4319999880681,,response,,,,100,,,,,,,Space,keypress(Space),,,,,,,,-- --- ---- --- ------ ----- ------- ---- -- --- ------- --<br>------- ---------- ------ -- ----- -- ----- -- ---- ------<br>--- ----- cut --- ------ -------- ----- --- ------ ----- --<br>----- ----- ---------- --- --- ------ ------ ---- -- ------<br>------- --- ------ ----- --- ---- ------- -- ---- --- --<br>------- ------,250631,250630.69999998808,250172.355,250178.09999996424,250179.268,250637.61,,24,cut
screen,html.Screen,2_1_1_1_25,2022-02-02T16:10:22.876Z,,,,,,,,,,,,,,,,,54,,,,,,,,,,,,,,360.6900000119349,,response,,,,100,,,,,,,Space,keypress(Space),,,,,,,,-- --- ---- --- ------ ----- ------- ---- -- --- ------- --<br>------- ---------- ------ -- ----- -- ----- -- ---- ------<br>--- ----- --- the ------ -------- ----- --- ------ ----- --<br>----- ----- ---------- --- --- ------ ------ ---- -- ------<br>------- --- ------ ----- --- ---- ------- -- ---- --- --<br>------- ------,250998.59999996424,250998.30000001192,250630.687,250631,250637.61,251005.687,,25,the
screen,html.Screen,2_1_1_1_26,2022-02-02T16:10:23.325Z,,,,,,,,,,,,,,,,,54,,,,,,,,,,,,,,441.7129999761528,,response,,,,100,,,,,,,Space,keypress(Space),,,,,,,,-- --- ---- --- ------ ----- ------- ---- -- --- ------- --<br>------- ---------- ------ -- ----- -- ----- -- ---- ------<br>--- ----- --- --- bonds' -------- ----- --- ------ ----- --<br>----- ----- ---------- --- --- ------ ------ ---- -- ------<br>------- --- ------ ----- --- ---- ------- -- ---- --- --<br>------- ------,251447.59999996424,251447.39999997616,250998.708,250998.59999996424,251005.687,251450.105,,26,bonds'
screen,html.Screen,2_1_1_1_27,2022-02-02T16:10:24.094Z,,,,,,,,,,,,,,,,,54,,,,,,,,,,,,,,766.3949999999895,,response,,,,100,,,,,,,Space,keypress(Space),,,,,,,,-- --- ---- --- ------ ----- ------- ---- -- --- ------- --<br>------- ---------- ------ -- ----- -- ----- -- ---- ------<br>--- ----- --- --- ------ interest ----- --- ------ ----- --<br>----- ----- ---------- --- --- ------ ------ ---- -- ------<br>------- --- ------ ----- --- ---- ------- -- ---- --- --<br>------- ------,252216.80000001192,252216.5,251443.157,251447.69999998808,251450.105,252220.956,,27,interest
screen,html.Screen,2_1_1_1_28,2022-02-02T16:10:25.849Z,,,,,,,,,,,,,,,,,54,,,,,,,,,,,,,,1750.7439999880735,,response,,,,100,,,,,,,Space,keypress(Space),,,,,,,,-- --- ---- --- ------ ----- ------- ---- -- --- ------- --<br>------- ---------- ------ -- ----- -- ----- -- ---- ------<br>--- ----- --- --- ------ -------- rate. --- ------ ----- --<br>----- ----- ---------- --- --- ------ ------ ---- -- ------<br>------- --- ------ ----- --- ---- ------- -- ---- --- --<br>------- ------,253972,253971.69999998808,252213.991,252216.80000001192,252220.956,253977.889,,28,rate.
screen,html.Screen,2_1_1_1_29,2022-02-02T16:10:26.431Z,,,,,,,,,,,,,,,,,54,,,,,,,,,,,,,,575.1110000000044,,response,,,,100,,,,,,,Space,keypress(Space),,,,,,,,-- --- ---- --- ------ ----- ------- ---- -- --- ------- --<br>------- ---------- ------ -- ----- -- ----- -- ---- ------<br>--- ----- --- --- ------ -------- ----- The ------ ----- --<br>----- ----- ---------- --- --- ------ ------ ---- -- ------<br>------- --- ------ ----- --- ---- ------- -- ---- --- --<br>------- ------,254553.30000001192,254553,253970.934,253972.09999996424,253977.889,254554.284,,29,The
screen,html.Screen,2_1_1_1_30,2022-02-02T16:10:27.120Z,,,,,,,,,,,,,,,,,54,,,,,,,,,,,,,,687.6159999761439,,response,,,,100,,,,,,,Space,keypress(Space),,,,,,,,-- --- ---- --- ------ ----- ------- ---- -- --- ------- --<br>------- ---------- ------ -- ----- -- ----- -- ---- ------<br>--- ----- --- --- ------ -------- ----- --- market ----- --<br>----- ----- ---------- --- --- ------ ------ ---- -- ------<br>------- --- ------ ----- --- ---- ------- -- ---- --- --<br>------- ------,255242.19999998808,255241.89999997616,254547.329,254553.30000001192,254554.284,255248.687,,30,market
screen,html.Screen,2_1_1_1_31,2022-02-02T16:10:27.609Z,,,,,,,,,,,,,,,,,54,,,,,,,,,,,,,,482.2129999761528,,response,,,,100,,,,,,,Space,keypress(Space),,,,,,,,-- --- ---- --- ------ ----- ------- ---- -- --- ------- --<br>------- ---------- ------ -- ----- -- ----- -- ---- ------<br>--- ----- --- --- ------ -------- ----- --- ------ value --<br>----- ----- ---------- --- --- ------ ------ ---- -- ------<br>------- --- ------ ----- --- ---- ------- -- ---- --- --<br>------- ------,255731.19999998808,255730.89999997616,255241.742,255242.19999998808,255248.687,255734.807,,31,value
screen,html.Screen,2_1_1_1_32,2022-02-02T16:10:28.054Z,,,,,,,,,,,,,,,,,54,,,,,,,,,,,,,,441.1929999999993,,response,,,,100,,,,,,,Space,keypress(Space),,,,,,,,-- --- ---- --- ------ ----- ------- ---- -- --- ------- --<br>------- ---------- ------ -- ----- -- ----- -- ---- ------<br>--- ----- --- --- ------ -------- ----- --- ------ ----- of<br>----- ----- ---------- --- --- ------ ------ ---- -- ------<br>------- --- ------ ----- --- ---- ------- -- ---- --- --<br>------- ------,256176.39999997616,256176,255727.865,255731.19999998808,255734.807,256179.236,,32,of
screen,html.Screen,2_1_1_1_33,2022-02-02T16:10:28.550Z,,,,,,,,,,,,,,,,,54,,,,,,,,,,,,,,492.7639999999956,,response,,,,100,,,,,,,Space,keypress(Space),,,,,,,,-- --- ---- --- ------ ----- ------- ---- -- --- ------- --<br>------- ---------- ------ -- ----- -- ----- -- ---- ------<br>--- ----- --- --- ------ -------- ----- --- ------ ----- --<br>these ----- ---------- --- --- ------ ------ ---- -- ------<br>------- --- ------ ----- --- ---- ------- -- ---- --- --<br>------- ------,256672.39999997616,256672,256172.447,256176.39999997616,256179.236,256679.256,,33,these
screen,html.Screen,2_1_1_1_34,2022-02-02T16:10:29.003Z,,,,,,,,,,,,,,,,,54,,,,,,,,,,,,,,445.84399996424327,,response,,,,100,,,,,,,Space,keypress(Space),,,,,,,,-- --- ---- --- ------ ----- ------- ---- -- --- ------- --<br>------- ---------- ------ -- ----- -- ----- -- ---- ------<br>--- ----- --- --- ------ -------- ----- --- ------ ----- --<br>----- bonds ---------- --- --- ------ ------ ---- -- ------<br>------- --- ------ ----- --- ---- ------- -- ---- --- --<br>------- ------,257125.39999997616,257125.09999996424,256672.292,256672.39999997616,256679.256,257130.618,,34,bonds
screen,html.Screen,2_1_1_1_35,2022-02-02T16:10:30.457Z,,,,,,,,,,,,,,,,,54,,,,,,,,,,,,,,1449.1820000119333,,response,,,,100,,,,,,,Space,keypress(Space),,,,,,,,"-- --- ---- --- ------ ----- ------- ---- -- --- ------- --<br>------- ---------- ------ -- ----- -- ----- -- ---- ------<br>--- ----- --- --- ------ -------- ----- --- ------ ----- --<br>----- ----- plummeted, --- --- ------ ------ ---- -- ------<br>------- --- ------ ----- --- ---- ------- -- ---- --- --<br>------- ------",258580.09999996424,258579.80000001192,257123.675,257125.39999997616,257130.618,258582.003,,35,"plummeted,"
screen,html.Screen,2_1_1_1_36,2022-02-02T16:10:30.946Z,,,,,,,,,,,,,,,,,54,,,,,,,,,,,,,,486.6969999880821,,response,,,,100,,,,,,,Space,keypress(Space),,,,,,,,-- --- ---- --- ------ ----- ------- ---- -- --- ------- --<br>------- ---------- ------ -- ----- -- ----- -- ---- ------<br>--- ----- --- --- ------ -------- ----- --- ------ ----- --<br>----- ----- ---------- and --- ------ ------ ---- -- ------<br>------- --- ------ ----- --- ---- ------- -- ---- --- --<br>------- ------,259068.89999997616,259068.69999998808,258575.057,258580.09999996424,258582.003,259075.057,,36,and
screen,html.Screen,2_1_1_1_37,2022-02-02T16:10:31.367Z,,,,,,,,,,,,,,,,,54,,,,,,,,,,,,,,414.34299997615744,,response,,,,100,,,,,,,Space,keypress(Space),,,,,,,,-- --- ---- --- ------ ----- ------- ---- -- --- ------- --<br>------- ---------- ------ -- ----- -- ----- -- ---- ------<br>--- ----- --- --- ------ -------- ----- --- ------ ----- --<br>----- ----- ---------- --- the ------ ------ ---- -- ------<br>------- --- ------ ----- --- ---- ------- -- ---- --- --<br>------- ------,259489.69999998808,259489.39999997616,259068.11,259069.09999996424,259075.057,259491.736,,37,the
screen,html.Screen,2_1_1_1_38,2022-02-02T16:10:31.807Z,,,,,,,,,,,,,,,,,54,,,,,,,,,,,,,,437.7639999999956,,response,,,,100,,,,,,,Space,keypress(Space),,,,,,,,-- --- ---- --- ------ ----- ------- ---- -- --- ------- --<br>------- ---------- ------ -- ----- -- ----- -- ---- ------<br>--- ----- --- --- ------ -------- ----- --- ------ ----- --<br>----- ----- ---------- --- --- market ------ ---- -- ------<br>------- --- ------ ----- --- ---- ------- -- ---- --- --<br>------- ------,259929.80000001192,259929.5,259484.8,259489.80000001192,259491.736,259936.158,,38,market
screen,html.Screen,2_1_1_1_39,2022-02-02T16:10:32.168Z,,,,,,,,,,,,,,,,,54,,,,,,,,,,,,,,354.3420000000042,,response,,,,100,,,,,,,Space,keypress(Space),,,,,,,,-- --- ---- --- ------ ----- ------- ---- -- --- ------- --<br>------- ---------- ------ -- ----- -- ----- -- ---- ------<br>--- ----- --- --- ------ -------- ----- --- ------ ----- --<br>----- ----- ---------- --- --- ------ became ---- -- ------<br>------- --- ------ ----- --- ---- ------- -- ---- --- --<br>------- ------,260290.80000001192,260290.5,259929.208,259929.80000001192,259936.158,260297.267,,39,became
screen,html.Screen,2_1_1_1_40,2022-02-02T16:10:32.572Z,,,,,,,,,,,,,,,,,54,,,,,,,,,,,,,,397.33299996424466,,response,,,,100,,,,,,,Space,keypress(Space),,,,,,,,-- --- ---- --- ------ ----- ------- ---- -- --- ------- --<br>------- ---------- ------ -- ----- -- ----- -- ---- ------<br>--- ----- --- --- ------ -------- ----- --- ------ ----- --<br>----- ----- ---------- --- --- ------ ------ wary -- ------<br>------- --- ------ ----- --- ---- ------- -- ---- --- --<br>------- ------,260694.89999997616,260694.59999996424,260290.341,260290.80000001192,260297.267,260700.064,,40,wary
screen,html.Screen,2_1_1_1_41,2022-02-02T16:10:33.021Z,,,,,,,,,,,,,,,,,54,,,,,,,,,,,,,,443.5359999642242,,response,,,,100,,,,,,,Space,keypress(Space),,,,,,,,-- --- ---- --- ------ ----- ------- ---- -- --- ------- --<br>------- ---------- ------ -- ----- -- ----- -- ---- ------<br>--- ----- --- --- ------ -------- ----- --- ------ ----- --<br>----- ----- ---------- --- --- ------ ------ ---- of ------<br>------- --- ------ ----- --- ---- ------- -- ---- --- --<br>------- ------,261144,261143.59999996424,260693.102,260694.89999997616,260700.064,261144.487,,41,of
screen,html.Screen,2_1_1_1_42,2022-02-02T16:10:33.458Z,,,,,,,,,,,,,,,,,54,,,,,,,,,,,,,,435.8130000119272,,response,,,,100,,,,,,,Space,keypress(Space),,,,,,,,-- --- ---- --- ------ ----- ------- ---- -- --- ------- --<br>------- ---------- ------ -- ----- -- ----- -- ---- ------<br>--- ----- --- --- ------ -------- ----- --- ------ ----- --<br>----- ----- ---------- --- --- ------ ------ ---- -- French<br>------- --- ------ ----- --- ---- ------- -- ---- --- --<br>------- ------,261580.59999996424,261580.30000001192,261138.052,261144.09999996424,261144.487,261581.995,,42,French
screen,html.Screen,2_1_1_1_43,2022-02-02T16:10:34.492Z,,,,,,,,,,,,,,,,,54,,,,,,,,,,,,,,1031.9049999761628,,response,,,,100,,,,,,,Space,keypress(Space),,,,,,,,-- --- ---- --- ------ ----- ------- ---- -- --- ------- --<br>------- ---------- ------ -- ----- -- ----- -- ---- ------<br>--- ----- --- --- ------ -------- ----- --- ------ ----- --<br>----- ----- ---------- --- --- ------ ------ ---- -- ------<br>credit. --- ------ ----- --- ---- ------- -- ---- --- --<br>------- ------,262614.1999999881,262613.89999997616,261575.567,261580.69999998808,261581.995,262616.717,,43,credit.
screen,html.Screen,2_1_1_1_44,2022-02-02T16:10:34.912Z,,,,,,,,,,,,,,,,,54,,,,,,,,,,,,,,417.18299997615395,,response,,,,100,,,,,,,Space,keypress(Space),,,,,,,,-- --- ---- --- ------ ----- ------- ---- -- --- ------- --<br>------- ---------- ------ -- ----- -- ----- -- ---- ------<br>--- ----- --- --- ------ -------- ----- --- ------ ----- --<br>----- ----- ---------- --- --- ------ ------ ---- -- ------<br>------- The ------ ----- --- ---- ------- -- ---- --- --<br>------- ------,263034.3000000119,263033.89999997616,262609.749,262614.3000000119,262616.717,263040.319,,44,The
screen,html.Screen,2_1_1_1_45,2022-02-02T16:10:35.321Z,,,,,,,,,,,,,,,,,54,,,,,,,,,,,,,,403.3809999880614,,response,,,,100,,,,,,,Space,keypress(Space),,,,,,,,-- --- ---- --- ------ ----- ------- ---- -- --- ------- --<br>------- ---------- ------ -- ----- -- ----- -- ---- ------<br>--- ----- --- --- ------ -------- ----- --- ------ ----- --<br>----- ----- ---------- --- --- ------ ------ ---- -- ------<br>------- --- French ----- --- ---- ------- -- ---- --- --<br>------- ------,263443.89999997616,263443.6999999881,263033.372,263034.3000000119,263040.319,263450.05,,45,French
screen,html.Screen,2_1_1_1_46,2022-02-02T16:10:35.709Z,,,,,,,,,,,,,,,,,54,,,,,,,,,,,,,,380.95000000001164,,response,,,,100,,,,,,,Space,keypress(Space),,,,,,,,-- --- ---- --- ------ ----- ------- ---- -- --- ------- --<br>------- ---------- ------ -- ----- -- ----- -- ---- ------<br>--- ----- --- --- ------ -------- ----- --- ------ ----- --<br>----- ----- ---------- --- --- ------ ------ ---- -- ------<br>------- --- ------ state --- ---- ------- -- ---- --- --<br>------- ------,263831.39999997616,263831,263443.1,263444,263450.05,263831.99,,46,state
screen,html.Screen,2_1_1_1_47,2022-02-02T16:10:36.114Z,,,,,,,,,,,,,,,,,54,,,,,,,,,,,,,,404.1099999642465,,response,,,,100,,,,,,,Space,keypress(Space),,,,,,,,-- --- ---- --- ------ ----- ------- ---- -- --- ------- --<br>------- ---------- ------ -- ----- -- ----- -- ---- ------<br>--- ----- --- --- ------ -------- ----- --- ------ ----- --<br>----- ----- ---------- --- --- ------ ------ ---- -- ------<br>------- --- ------ ----- was ---- ------- -- ---- --- --<br>------- ------,264236.39999997616,264236.09999996424,263825.038,263831.39999997616,263831.99,264241.717,,47,was
screen,html.Screen,2_1_1_1_48,2022-02-02T16:10:36.498Z,,,,,,,,,,,,,,,,,54,,,,,,,,,,,,,,378.382999964233,,response,,,,100,,,,,,,Space,keypress(Space),,,,,,,,-- --- ---- --- ------ ----- ------- ---- -- --- ------- --<br>------- ---------- ------ -- ----- -- ----- -- ---- ------<br>--- ----- --- --- ------ -------- ----- --- ------ ----- --<br>----- ----- ---------- --- --- ------ ------ ---- -- ------<br>------- --- ------ ----- --- left ------- -- ---- --- --<br>------- ------,264620.39999997616,264620.09999996424,264234.768,264236.5,264241.717,264623.636,,48,left
screen,html.Screen,2_1_1_1_49,2022-02-02T16:10:36.883Z,,,,,,,,,,,,,,,,,54,,,,,,,,,,,,,,381.6640000119223,,response,,,,100,,,,,,,Space,keypress(Space),,,,,,,,-- --- ---- --- ------ ----- ------- ---- -- --- ------- --<br>------- ---------- ------ -- ----- -- ----- -- ---- ------<br>--- ----- --- --- ------ -------- ----- --- ------ ----- --<br>----- ----- ---------- --- --- ------ ------ ---- -- ------<br>------- --- ------ ----- --- ---- without -- ---- --- --<br>------- ------,265005.39999997616,265005.3000000119,264616.709,264620.5,264623.636,265013.019,,49,without
screen,html.Screen,2_1_1_1_50,2022-02-02T16:10:37.247Z,,,,,,,,,,,,,,,,,54,,,,,,,,,,,,,,356.18099998810794,,response,,,,100,,,,,,,Space,keypress(Space),,,,,,,,-- --- ---- --- ------ ----- ------- ---- -- --- ------- --<br>------- ---------- ------ -- ----- -- ----- -- ---- ------<br>--- ----- --- --- ------ -------- ----- --- ------ ----- --<br>----- ----- ---------- --- --- ------ ------ ---- -- ------<br>------- --- ------ ----- --- ---- ------- an ---- --- --<br>------- ------,265369.5,265369.1999999881,265005.588,265005.5,265013.019,265373.662,,50,an
screen,html.Screen,2_1_1_1_51,2022-02-02T16:10:37.856Z,,,,,,,,,,,,,,,,,54,,,,,,,,,,,,,,604.6380000119098,,response,,,,100,,,,,,,Space,keypress(Space),,,,,,,,-- --- ---- --- ------ ----- ------- ---- -- --- ------- --<br>------- ---------- ------ -- ----- -- ----- -- ---- ------<br>--- ----- --- --- ------ -------- ----- --- ------ ----- --<br>----- ----- ---------- --- --- ------ ------ ---- -- ------<br>------- --- ------ ----- --- ---- ------- -- easy --- --<br>------- ------,265978.6999999881,265978.3000000119,265366.714,265369.59999996424,265373.662,265984.747,,51,easy
screen,html.Screen,2_1_1_1_52,2022-02-02T16:10:38.240Z,,,,,,,,,,,,,,,,,54,,,,,,,,,,,,,,377.553000011947,,response,,,,100,,,,,,,Space,keypress(Space),,,,,,,,-- --- ---- --- ------ ----- ------- ---- -- --- ------- --<br>------- ---------- ------ -- ----- -- ----- -- ---- ------<br>--- ----- --- --- ------ -------- ----- --- ------ ----- --<br>----- ----- ---------- --- --- ------ ------ ---- -- ------<br>------- --- ------ ----- --- ---- ------- -- ---- way --<br>------- ------,266362.59999996424,266362.3000000119,265977.86,265978.6999999881,265984.747,266366.713,,52,way
screen,html.Screen,2_1_1_1_53,2022-02-02T16:10:38.729Z,,,,,,,,,,,,,,,,,54,,,,,,,,,,,,,,484.6869999761693,,response,,,,100,,,,,,,Space,keypress(Space),,,,,,,,-- --- ---- --- ------ ----- ------- ---- -- --- ------- --<br>------- ---------- ------ -- ----- -- ----- -- ---- ------<br>--- ----- --- --- ------ -------- ----- --- ------ ----- --<br>----- ----- ---------- --- --- ------ ------ ---- -- ------<br>------- --- ------ ----- --- ---- ------- -- ---- --- of<br>------- ------,266851.8000000119,266851.39999997616,266359.741,266362.6999999881,266366.713,266852.789,,53,of
screen,html.Screen,2_1_1_1_54,2022-02-02T16:10:39.406Z,,,,,,,,,,,,,,,,,54,,,,,,,,,,,,,,675.7110000000102,,response,,,,100,,,,,,,Space,keypress(Space),,,,,,,,-- --- ---- --- ------ ----- ------- ---- -- --- ------- --<br>------- ---------- ------ -- ----- -- ----- -- ---- ------<br>--- ----- --- --- ------ -------- ----- --- ------ ----- --<br>----- ----- ---------- --- --- ------ ------ ---- -- ------<br>------- --- ------ ----- --- ---- ------- -- ---- --- --<br>raising ------,267528.8000000119,267528.5,266845.842,266851.89999997616,266852.789,267533.34,,54,raising
screen,html.Screen,2_1_1_1_55,2022-02-02T16:10:39.967Z,,,,,,,,,,,,,,,,,54,,,,,,,,,,,,,,556.3599999880535,,response,,,,100,,,,,,,Space,keypress(Space),,,,,,,,-- --- ---- --- ------ ----- ------- ---- -- --- ------- --<br>------- ---------- ------ -- ----- -- ----- -- ---- ------<br>--- ----- --- --- ------ -------- ----- --- ------ ----- --<br>----- ----- ---------- --- --- ------ ------ ---- -- ------<br>------- --- ------ ----- --- ---- ------- -- ---- --- --<br>------- money.,268090,268089.6999999881,267526.388,267528.89999997616,267533.34,268095.867,,55,money.
Item 100,flow.Loop,2_1_1_1,2022-02-02T16:10:39.967Z,,,,,,,,,,,,,,,,,,,,,,,,,,,,,,,31646.46699998807,,completion,,,,,D,,,,,,,,,,,silence,,,,,268090.09999996424,268089.6999999881,236436.289,236437.39999997616,236443.233,268095.867,,,
Question 1,html.Screen,2_1_1_2,2022-02-02T16:10:44.611Z,,,,,,,,,,,,,,,,,,,,,,,,,,,,true,TRUE,,4637.1329999999725,,response,,,,100,D,,,,,,TRUE,click #choice-1,,,,silence,,,,,272733.5,272733,268088.892,268090.09999996424,268095.867,272734.693,,,
Question 2,html.Screen,2_1_1_3,2022-02-02T16:10:51.556Z,,,,,,,,,,,,,,,,,,,,,,,,,,,,true,FALSE,,6943.306999999972,,response,,,,100,D,,,,,,FALSE,click #choice-2,,,,silence,,,,,279678.39999997616,279678,272727.748,272733.59999996424,272734.693,279679.102,,,
Item 100,flow.Sequence,2_1_1,2022-02-02T16:10:51.556Z,,,,,,,,,,,,,,,,,,,,,,,,,,,,,,,53234.70499999999,,completion,,,,,,,,,,,,,,,,,,,,,279678.39999997616,279678,226436.354,226439.30000001192,226443.295,279679.102,,,
End of Practice,html.Page,2_1_2,2022-02-02T16:11:01.901Z,,,,,,,,,,,,,,,,,,,,,,,,,,,,,,,10344.797999976145,,form submission,,,,,,,,,,,,,,,,,,,,,290024,290023.89999997616,279672.161,279678.5,279679.102,290026.288,,,
Practice,flow.Sequence,2_1,2022-02-02T16:11:01.901Z,,,,,,,,,,,,,,,,,,,,,,,,,,,,,,,133232.97699997615,,completion,,,,,,,,,,,,,,,,,,,,,290024.1999999881,290023.89999997616,156783.954,156790.19999998808,156790.923,290026.288,,,
Trap_instruction,html.Page,2_2_0,2022-02-02T16:11:08.502Z,,,,,,,,,,,,,,,,,,,,,,,,,,,,,,,6598.311999964237,,form submission,,,,,,,,,,,,,,,,,,,,,296624.6999999881,296624.59999996424,290019.334,290024.1999999881,290026.288,296630.393,,,
trap_trial,html.Screen,2_2_1,2022-02-02T16:11:11.526Z,,,,,,,,,,,,,,,,,,,,,,,,,,,,true,1,,3018.3069999880972,,response,,,,,,,,,,,1,click #choice-1,,,,,,,,,299649.1999999881,299648.6999999881,296623.471,296624.8000000119,296630.393,299651.218,,,
end of trap trial,html.Page,2_2_2,2022-02-02T16:11:13.695Z,,,,,,,,,,,,,,,,,,,,,,,,,,,,,,,2166.2820000000065,,form submission,,,,,,,,,,,,,,,,,,,,,301817.59999996424,301817.5,299644.28,299649.1999999881,299651.218,301817.876,,,
Trap 1,flow.Sequence,2_2,2022-02-02T16:11:13.695Z,,,,,,,,,,,,,,,,,,,,,,,,,,,,,,,11791.212,,completion,,,,,,,,,,,,,,,,,,,,,301817.59999996424,301817.5,290019.334,290024.1999999881,290026.288,301817.876,,,
Standby,html.Page,2_3_0,2022-02-02T16:11:21.689Z,,,,,,,,,,,,,,,,,,,,,,,,,,,,,,,7999.959000000032,,timeout,,,,,,,,,,,,,,,,,,,,,309811.1999999881,309810.888,301810.94,301817.6999999881,301817.876,309817.835,,,
Holding screen,html.Screen,2_3_1_0_0,2022-02-02T16:11:28.688Z,,,,,,,,,,,,,,,,,,,,,,,,,,,,,,,6999.949999999953,,timeout,,,,,,,,,,,,,,,,,,,,,316811.1999999881,316810.869,309810.888,309811.39999997616,309817.835,316817.785,,,
screen,html.Screen,2_3_1_0_1_0,2022-02-02T16:11:30.451Z,,,,,,,,,,,,,,,,,11,,,,,,,,,,,,,,1755.3149999642628,,response,,,,4,D,,,,,,Space,keypress(Space),,,,silence,,,,Known -- ---- --- -- --- -------- ------------ ---------- --<br>- ------- ------ --------- -- ------------ -- --- ---- -----<br>------ ---- ---- ------ ------ ------- --- ----- ---------<br>---- --- -------- -------- --- --- -- ------- --- --- -----<br>-- --- ------ ------- --- --- -------- ---- --------- --<br>---------- -- -------- ----------------,318573.59999996424,318573.09999996424,316810.869,316811.3000000119,316817.785,318574.719,,0,Known
screen,html.Screen,2_3_1_0_1_1,2022-02-02T16:11:30.898Z,,,,,,,,,,,,,,,,,11,,,,,,,,,,,,,,445.68099997617537,,response,,,,4,D,,,,,,Space,keypress(Space),,,,silence,,,,----- as ---- --- -- --- -------- ------------ ---------- --<br>- ------- ------ --------- -- ------------ -- --- ---- -----<br>------ ---- ---- ------ ------ ------- --- ----- ---------<br>---- --- -------- -------- --- --- -- ------- --- --- -----<br>-- --- ------ ------- --- --- -------- ---- --------- --<br>---------- -- -------- ----------------,319020.6999999881,319020.39999997616,318567.779,318573.6999999881,318574.719,319026.127,,1,as
screen,html.Screen,2_3_1_0_1_2,2022-02-02T16:11:31.559Z,,,,,,,,,,,,,,,,,11,,,,,,,,,,,,,,655.4729999642586,,response,,,,4,D,,,,,,Space,keypress(Space),,,,silence,,,,----- -- Rapa --- -- --- -------- ------------ ---------- --<br>- ------- ------ --------- -- ------------ -- --- ---- -----<br>------ ---- ---- ------ ------ ------- --- ----- ---------<br>---- --- -------- -------- --- --- -- ------- --- --- -----<br>-- --- ------ ------- --- --- -------- ---- --------- --<br>---------- -- -------- ----------------,319681.8000000119,319681.59999996424,319019.182,319020.8000000119,319026.127,319685.829,,2,Rapa
screen,html.Screen,2_3_1_0_1_3,2022-02-02T16:11:32.173Z,,,,,,,,,,,,,,,,,11,,,,,,,,,,,,,,609.170999999973,,response,,,,4,D,,,,,,Space,keypress(Space),,,,silence,,,,----- -- ---- Nui -- --- -------- ------------ ---------- --<br>- ------- ------ --------- -- ------------ -- --- ---- -----<br>------ ---- ---- ------ ------ ------- --- ----- ---------<br>---- --- -------- -------- --- --- -- ------- --- --- -----<br>-- --- ------ ------- --- --- -------- ---- --------- --<br>---------- -- -------- ----------------,320295.3000000119,320295,319679.041,319681.89999997616,319685.829,320296.937,,3,Nui
screen,html.Screen,2_3_1_0_1_4,2022-02-02T16:11:32.812Z,,,,,,,,,,,,,,,,,11,,,,,,,,,,,,,,637.7629999881028,,response,,,,4,D,,,,,,Space,keypress(Space),,,,silence,,,,----- -- ---- --- to --- -------- ------------ ---------- --<br>- ------- ------ --------- -- ------------ -- --- ---- -----<br>------ ---- ---- ------ ------ ------- --- ----- ---------<br>---- --- -------- -------- --- --- -- ------- --- --- -----<br>-- --- ------ ------- --- --- -------- ---- --------- --<br>---------- -- -------- ----------------,320935,320934.6999999881,320290.018,320295.39999997616,320296.937,320935.825,,4,to
screen,html.Screen,2_3_1_0_1_5,2022-02-02T16:11:33.377Z,,,,,,,,,,,,,,,,,11,,,,,,,,,,,,,,563.9750000119093,,response,,,,4,D,,,,,,Space,keypress(Space),,,,silence,,,,----- -- ---- --- -- the -------- ------------ ---------- --<br>- ------- ------ --------- -- ------------ -- --- ---- -----<br>------ ---- ---- ------ ------ ------- --- ----- ---------<br>---- --- -------- -------- --- --- -- ------- --- --- -----<br>-- --- ------ ------- --- --- -------- ---- --------- --<br>---------- -- -------- ----------------,321500.09999996424,321499.8000000119,320928.918,320935.09999996424,320935.825,321505.449,,5,the
screen,html.Screen,2_3_1_0_1_6,2022-02-02T16:11:34.118Z,,,,,,,,,,,,,,,,,11,,,,,,,,,,,,,,735.4509999761358,,response,,,,4,D,,,,,,Space,keypress(Space),,,,silence,,,,----- -- ---- --- -- --- island's ------------ ---------- --<br>- ------- ------ --------- -- ------------ -- --- ---- -----<br>------ ---- ---- ------ ------ ------- --- ----- ---------<br>---- --- -------- -------- --- --- -- ------- --- --- -----<br>-- --- ------ ------- --- --- -------- ---- --------- --<br>---------- -- -------- ----------------,322241.1999999881,322240.89999997616,321498.491,321500.1999999881,321505.449,322241.374,,6,island's
screen,html.Screen,2_3_1_0_1_7,2022-02-02T16:11:35.208Z,,,,,,,,,,,,,,,,,11,,,,,,,,,,,,,,1088.8259999880684,,response,,,,4,D,,,,,,Space,keypress(Space),,,,silence,,,,"----- -- ---- --- -- --- -------- inhabitants, ---------- --<br>- ------- ------ --------- -- ------------ -- --- ---- -----<br>------ ---- ---- ------ ------ ------- --- ----- ---------<br>---- --- -------- -------- --- --- -- ------- --- --- -----<br>-- --- ------ ------- --- --- -------- ---- --------- --<br>---------- -- -------- ----------------",323330.39999997616,323330.1999999881,322234.437,322241.1999999881,322241.374,323331.648,,7,"inhabitants,"
screen,html.Screen,2_3_1_0_1_8,2022-02-02T16:11:37.844Z,,,,,,,,,,,,,,,,,11,,,,,,,,,,,,,,2634.7519999761716,,response,,,,4,D,,,,,,Space,keypress(Space),,,,silence,,,,----- -- ---- --- -- --- -------- ------------ Rongorongo --<br>- ------- ------ --------- -- ------------ -- --- ---- -----<br>------ ---- ---- ------ ------ ------- --- ----- ---------<br>---- --- -------- -------- --- --- -- ------- --- --- -----<br>-- --- ------ ------- --- --- -------- ---- --------- --<br>---------- -- -------- ----------------,325966.8000000119,325966.39999997616,323325.291,323330.5,323331.648,325970.509,,8,Rongorongo
screen,html.Screen,2_3_1_0_1_9,2022-02-02T16:11:38.308Z,,,,,,,,,,,,,,,,,11,,,,,,,,,,,,,,459.7910000119009,,response,,,,4,D,,,,,,Space,keypress(Space),,,,silence,,,,----- -- ---- --- -- --- -------- ------------ ---------- is<br>- ------- ------ --------- -- ------------ -- --- ---- -----<br>------ ---- ---- ------ ------ ------- --- ----- ---------<br>---- --- -------- -------- --- --- -- ------- --- --- -----<br>-- --- ------ ------- --- --- -------- ---- --------- --<br>---------- -- -------- ----------------,326430.6999999881,326430.3000000119,325963.603,325966.8000000119,325970.509,326435.829,,9,is
screen,html.Screen,2_3_1_0_1_10,2022-02-02T16:11:38.705Z,,,,,,,,,,,,,,,,,11,,,,,,,,,,,,,,391.670999999973,,response,,,,4,D,,,,,,Space,keypress(Space),,,,silence,,,,----- -- ---- --- -- --- -------- ------------ ---------- --<br>a ------- ------ --------- -- ------------ -- --- ---- -----<br>------ ---- ---- ------ ------ ------- --- ----- ---------<br>---- --- -------- -------- --- --- -- ------- --- --- -----<br>-- --- ------ ------- --- --- -------- ---- --------- --<br>---------- -- -------- ----------------,326827.8000000119,326827.5,326428.892,326430.6999999881,326435.829,326831.621,,10,a
screen,html.Screen,2_3_1_0_1_11,2022-02-02T16:11:39.190Z,,,,,,,,,,,,,,,,,11,,,,,,,,,,,,,,480.9789999642526,,response,,,,4,D,,,,,,Space,keypress(Space),,,,silence,,,,----- -- ---- --- -- --- -------- ------------ ---------- --<br>- writing ------ --------- -- ------------ -- --- ---- -----<br>------ ---- ---- ------ ------ ------- --- ----- ---------<br>---- --- -------- -------- --- --- -- ------- --- --- -----<br>-- --- ------ ------- --- --- -------- ---- --------- --<br>---------- -- -------- ----------------,327312.89999997616,327312.59999996424,326824.722,326827.89999997616,326831.621,327317.758,,11,writing
screen,html.Screen,2_3_1_0_1_12,2022-02-02T16:11:39.698Z,,,,,,,,,,,,,,,,,11,,,,,,,,,,,,,,502.94199998810655,,response,,,,4,D,,,,,,Space,keypress(Space),,,,silence,,,,----- -- ---- --- -- --- -------- ------------ ---------- --<br>- ------- system --------- -- ------------ -- --- ---- -----<br>------ ---- ---- ------ ------ ------- --- ----- ---------<br>---- --- -------- -------- --- --- -- ------- --- --- -----<br>-- --- ------ ------- --- --- -------- ---- --------- --<br>---------- -- -------- ----------------,327821,327820.6999999881,327310.816,327312.89999997616,327317.758,327824.675,,12,system
screen,html.Screen,2_3_1_0_1_13,2022-02-02T16:11:40.573Z,,,,,,,,,,,,,,,,,11,,,,,,,,,,,,,,870.2249999761698,,response,,,,4,D,,,,,,Space,keypress(Space),,,,silence,,,,----- -- ---- --- -- --- -------- ------------ ---------- --<br>- ------- ------ comprised -- ------------ -- --- ---- -----<br>------ ---- ---- ------ ------ ------- --- ----- ---------<br>---- --- -------- -------- --- --- -- ------- --- --- -----<br>-- --- ------ ------- --- --- -------- ---- --------- --<br>---------- -- -------- ----------------,328695.1999999881,328694.89999997616,327817.872,327821,327824.675,328699.666,,13,comprised
screen,html.Screen,2_3_1_0_1_14,2022-02-02T16:11:41.044Z,,,,,,,,,,,,,,,,,11,,,,,,,,,,,,,,467.1340000118944,,response,,,,4,D,,,,,,Space,keypress(Space),,,,silence,,,,----- -- ---- --- -- --- -------- ------------ ---------- --<br>- ------- ------ --------- of ------------ -- --- ---- -----<br>------ ---- ---- ------ ------ ------- --- ----- ---------<br>---- --- -------- -------- --- --- -- ------- --- --- -----<br>-- --- ------ ------- --- --- -------- ---- --------- --<br>---------- -- -------- ----------------,329167.09999996424,329166.8000000119,328692.713,328695.3000000119,328699.666,329171.882,,14,of
screen,html.Screen,2_3_1_0_1_15,2022-02-02T16:11:43.120Z,,,,,,,,,,,,,,,,,11,,,,,,,,,,,,,,2070.217999964254,,response,,,,4,D,,,,,,Space,keypress(Space),,,,silence,,,,----- -- ---- --- -- --- -------- ------------ ---------- --<br>- ------- ------ --------- -- pictographs. -- --- ---- -----<br>------ ---- ---- ------ ------ ------- --- ----- ---------<br>---- --- -------- -------- --- --- -- ------- --- --- -----<br>-- --- ------ ------- --- --- -------- ---- --------- --<br>---------- -- -------- ----------------,331242.5,331242.09999996424,329164.945,329167.09999996424,329171.882,331248.291,,15,pictographs.
screen,html.Screen,2_3_1_0_1_16,2022-02-02T16:11:43.605Z,,,,,,,,,,,,,,,,,11,,,,,,,,,,,,,,478.9089999880525,,response,,,,4,D,,,,,,Space,keypress(Space),,,,silence,,,,----- -- ---- --- -- --- -------- ------------ ---------- --<br>- ------- ------ --------- -- ------------ It --- ---- -----<br>------ ---- ---- ------ ------ ------- --- ----- ---------<br>---- --- -------- -------- --- --- -- ------- --- --- -----<br>-- --- ------ ------- --- --- -------- ---- --------- --<br>---------- -- -------- ----------------,331727.39999997616,331727.1999999881,331241.349,331242.5,331248.291,331734.393,,16,It
screen,html.Screen,2_3_1_0_1_17,2022-02-02T16:11:44.030Z,,,,,,,,,,,,,,,,,11,,,,,,,,,,,,,,417.80699998809723,,response,,,,4,D,,,,,,Space,keypress(Space),,,,silence,,,,----- -- ---- --- -- --- -------- ------------ ---------- --<br>- ------- ------ --------- -- ------------ -- has ---- -----<br>------ ---- ---- ------ ------ ------- --- ----- ---------<br>---- --- -------- -------- --- --- -- ------- --- --- -----<br>-- --- ------ ------- --- --- -------- ---- --------- --<br>---------- -- -------- ----------------,332152.5,332152.1999999881,331727.447,331727.5,331734.393,332157.983,,17,has
screen,html.Screen,2_3_1_0_1_18,2022-02-02T16:11:44.363Z,,,,,,,,,,,,,,,,,11,,,,,,,,,,,,,,326.9169999761507,,response,,,,4,D,,,,,,Space,keypress(Space),,,,silence,,,,----- -- ---- --- -- --- -------- ------------ ---------- --<br>- ------- ------ --------- -- ------------ -- --- been -----<br>------ ---- ---- ------ ------ ------- --- ----- ---------<br>---- --- -------- -------- --- --- -- ------- --- --- -----<br>-- --- ------ ------- --- --- -------- ---- --------- --<br>---------- -- -------- ----------------,332485.1999999881,332484.89999997616,332151.038,332152.59999996424,332157.983,332491.357,,18,been
screen,html.Screen,2_3_1_0_1_19,2022-02-02T16:11:44.823Z,,,,,,,,,,,,,,,,,11,,,,,,,,,,,,,,453.8429999880609,,response,,,,4,D,,,,,,Space,keypress(Space),,,,silence,,,,----- -- ---- --- -- --- -------- ------------ ---------- --<br>- ------- ------ --------- -- ------------ -- --- ---- found<br>------ ---- ---- ------ ------ ------- --- ----- ---------<br>---- --- -------- -------- --- --- -- ------- --- --- -----<br>-- --- ------ ------- --- --- -------- ---- --------- --<br>---------- -- -------- ----------------,332945.59999996424,332945.1999999881,332484.383,332485.3000000119,332491.357,332949.682,,19,found
screen,html.Screen,2_3_1_0_1_20,2022-02-02T16:11:45.448Z,,,,,,,,,,,,,,,,,11,,,,,,,,,,,,,,620.7179999761865,,response,,,,4,D,,,,,,Space,keypress(Space),,,,silence,,,,----- -- ---- --- -- --- -------- ------------ ---------- --<br>- ------- ------ --------- -- ------------ -- --- ---- -----<br>carved ---- ---- ------ ------ ------- --- ----- ---------<br>---- --- -------- -------- --- --- -- ------- --- --- -----<br>-- --- ------ ------- --- --- -------- ---- --------- --<br>---------- -- -------- ----------------,333570.6999999881,333570.39999997616,332943.098,332945.59999996424,332949.682,333574.682,,20,carved
screen,html.Screen,2_3_1_0_1_21,2022-02-02T16:11:45.916Z,,,,,,,,,,,,,,,,,11,,,,,,,,,,,,,,463.71799997618655,,response,,,,4,D,,,,,,Space,keypress(Space),,,,silence,,,,----- -- ---- --- -- --- -------- ------------ ---------- --<br>- ------- ------ --------- -- ------------ -- --- ---- -----<br>------ into ---- ------ ------ ------- --- ----- ---------<br>---- --- -------- -------- --- --- -- ------- --- --- -----<br>-- --- ------ ------- --- --- -------- ---- --------- --<br>---------- -- -------- ----------------,334038.6999999881,334038.39999997616,333567.73,333570.8000000119,333574.682,334039.951,,21,into
screen,html.Screen,2_3_1_0_1_22,2022-02-02T16:11:46.377Z,,,,,,,,,,,,,,,,,11,,,,,,,,,,,,,,459.6489999642363,,response,,,,4,D,,,,,,Space,keypress(Space),,,,silence,,,,----- -- ---- --- -- --- -------- ------------ ---------- --<br>- ------- ------ --------- -- ------------ -- --- ---- -----<br>------ ---- many ------ ------ ------- --- ----- ---------<br>---- --- -------- -------- --- --- -- ------- --- --- -----<br>-- --- ------ ------- --- --- -------- ---- --------- --<br>---------- -- -------- ----------------,334499.8000000119,334499.59999996424,334032.97,334038.8000000119,334039.951,334505.246,,22,many
screen,html.Screen,2_3_1_0_1_23,2022-02-02T16:11:47.278Z,,,,,,,,,,,,,,,,,11,,,,,,,,,,,,,,895.4539999880944,,response,,,,4,D,,,,,,Space,keypress(Space),,,,silence,,,,----- -- ---- --- -- --- -------- ------------ ---------- --<br>- ------- ------ --------- -- ------------ -- --- ---- -----<br>------ ---- ---- oblong ------ ------- --- ----- ---------<br>---- --- -------- -------- --- --- -- ------- --- --- -----<br>-- --- ------ ------- --- --- -------- ---- --------- --<br>---------- -- -------- ----------------,335401,335400.6999999881,334498.238,334499.89999997616,334505.246,335407.993,,23,oblong
screen,html.Screen,2_3_1_0_1_24,2022-02-02T16:11:48.047Z,,,,,,,,,,,,,,,,,11,,,,,,,,,,,,,,761.9069999761414,,response,,,,4,D,,,,,,Space,keypress(Space),,,,silence,,,,----- -- ---- --- -- --- -------- ------------ ---------- --<br>- ------- ------ --------- -- ------------ -- --- ---- -----<br>------ ---- ---- ------ wooden ------- --- ----- ---------<br>---- --- -------- -------- --- --- -- ------- --- --- -----<br>-- --- ------ ------- --- --- -------- ---- --------- --<br>---------- -- -------- ----------------,336170.09999996424,336169.89999997616,335401.037,335401.09999996424,335407.993,336171.862,,24,wooden
screen,html.Screen,2_3_1_0_1_25,2022-02-02T16:11:50.673Z,,,,,,,,,,,,,,,,,11,,,,,,,,,,,,,,2623.0379999761353,,response,,,,4,D,,,,,,Space,keypress(Space),,,,silence,,,,----- -- ---- --- -- --- -------- ------------ ---------- --<br>- ------- ------ --------- -- ------------ -- --- ---- -----<br>------ ---- ---- ------ ------ tablets --- ----- ---------<br>---- --- -------- -------- --- --- -- ------- --- --- -----<br>-- --- ------ ------- --- --- -------- ---- --------- --<br>---------- -- -------- ----------------,338795.3000000119,338794.89999997616,336164.923,336170.1999999881,336171.862,338796.831,,25,tablets
screen,html.Screen,2_3_1_0_1_26,2022-02-02T16:11:51.193Z,,,,,,,,,,,,,,,,,11,,,,,,,,,,,,,,518.3689999880735,,response,,,,4,D,,,,,,Space,keypress(Space),,,,silence,,,,----- -- ---- --- -- --- -------- ------------ ---------- --<br>- ------- ------ --------- -- ------------ -- --- ---- -----<br>------ ---- ---- ------ ------ ------- and ----- ---------<br>---- --- -------- -------- --- --- -- ------- --- --- -----<br>-- --- ------ ------- --- --- -------- ---- --------- --<br>---------- -- -------- ----------------,339315.39999997616,339315.1999999881,338789.908,338795.3000000119,338796.831,339317.666,,26,and
screen,html.Screen,2_3_1_0_1_27,2022-02-02T16:11:51.814Z,,,,,,,,,,,,,,,,,11,,,,,,,,,,,,,,618.8339999999735,,response,,,,4,D,,,,,,Space,keypress(Space),,,,silence,,,,----- -- ---- --- -- --- -------- ------------ ---------- --<br>- ------- ------ --------- -- ------------ -- --- ---- -----<br>------ ---- ---- ------ ------ ------- --- other ---------<br>---- --- -------- -------- --- --- -- ------- --- --- -----<br>-- --- ------ ------- --- --- -------- ---- --------- --<br>---------- -- -------- ----------------,339936.89999997616,339936.5,339310.71,339315.59999996424,339317.666,339942.667,,27,other
screen,html.Screen,2_3_1_0_1_28,2022-02-02T16:11:53.080Z,,,,,,,,,,,,,,,,,11,,,,,,,,,,,,,,1259.7329999761423,,response,,,,4,D,,,,,,Space,keypress(Space),,,,silence,,,,----- -- ---- --- -- --- -------- ------------ ---------- --<br>- ------- ------ --------- -- ------------ -- --- ---- -----<br>------ ---- ---- ------ ------ ------- --- ----- artifacts<br>---- --- -------- -------- --- --- -- ------- --- --- -----<br>-- --- ------ ------- --- --- -------- ---- --------- --<br>---------- -- -------- ----------------,341202.8000000119,341202.39999997616,339936.022,339936.89999997616,339942.667,341206.55,,28,artifacts
screen,html.Screen,2_3_1_0_1_29,2022-02-02T16:11:53.672Z,,,,,,,,,,,,,,,,,11,,,,,,,,,,,,,,587.9500000000116,,response,,,,4,D,,,,,,Space,keypress(Space),,,,silence,,,,----- -- ---- --- -- --- -------- ------------ ---------- --<br>- ------- ------ --------- -- ------------ -- --- ---- -----<br>------ ---- ---- ------ ------ ------- --- ----- ---------<br>from --- -------- -------- --- --- -- ------- --- --- -----<br>-- --- ------ ------- --- --- -------- ---- --------- --<br>---------- -- -------- ----------------,341794.8000000119,341794.5,341199.634,341202.89999997616,341206.55,341796.846,,29,from
screen,html.Screen,2_3_1_0_1_30,2022-02-02T16:11:54.217Z,,,,,,,,,,,,,,,,,11,,,,,,,,,,,,,,542.7539999642177,,response,,,,4,D,,,,,,Space,keypress(Space),,,,silence,,,,----- -- ---- --- -- --- -------- ------------ ---------- --<br>- ------- ------ --------- -- ------------ -- --- ---- -----<br>------ ---- ---- ------ ------ ------- --- ----- ---------<br>---- the -------- -------- --- --- -- ------- --- --- -----<br>-- --- ------ ------- --- --- -------- ---- --------- --<br>---------- -- -------- ----------------,342339.89999997616,342339.59999996424,341789.882,341794.89999997616,341796.846,342345.947,,30,the
screen,html.Screen,2_3_1_0_1_31,2022-02-02T16:11:54.918Z,,,,,,,,,,,,,,,,,11,,,,,,,,,,,,,,694.7529999880935,,response,,,,4,D,,,,,,Space,keypress(Space),,,,silence,,,,----- -- ---- --- -- --- -------- ------------ ---------- --<br>- ------- ------ --------- -- ------------ -- --- ---- -----<br>------ ---- ---- ------ ------ ------- --- ----- ---------<br>---- --- island's -------- --- --- -- ------- --- --- -----<br>-- --- ------ ------- --- --- -------- ---- --------- --<br>---------- -- -------- ----------------,343041,343040.6999999881,342338.491,342340,342345.947,343046.82,,31,island's
screen,html.Screen,2_3_1_0_1_32,2022-02-02T16:11:56.373Z,,,,,,,,,,,,,,,,,11,,,,,,,,,,,,,,1448.0799999761512,,response,,,,4,D,,,,,,Space,keypress(Space),,,,silence,,,,----- -- ---- --- -- --- -------- ------------ ---------- --<br>- ------- ------ --------- -- ------------ -- --- ---- -----<br>------ ---- ---- ------ ------ ------- --- ----- ---------<br>---- --- -------- history. --- --- -- ------- --- --- -----<br>-- --- ------ ------- --- --- -------- ---- --------- --<br>---------- -- -------- ----------------,344495.1999999881,344494.89999997616,343039.875,343041.09999996424,343046.82,344498.198,,32,history.
screen,html.Screen,2_3_1_0_1_33,2022-02-02T16:11:57.114Z,,,,,,,,,,,,,,,,,11,,,,,,,,,,,,,,737.7019999761833,,response,,,,4,D,,,,,,Space,keypress(Space),,,,silence,,,,----- -- ---- --- -- --- -------- ------------ ---------- --<br>- ------- ------ --------- -- ------------ -- --- ---- -----<br>------ ---- ---- ------ ------ ------- --- ----- ---------<br>---- --- -------- -------- The --- -- ------- --- --- -----<br>-- --- ------ ------- --- --- -------- ---- --------- --<br>---------- -- -------- ----------------,345236.3000000119,345235.89999997616,344491.238,344495.1999999881,344498.198,345241.252,,33,The
screen,html.Screen,2_3_1_0_1_34,2022-02-02T16:11:57.719Z,,,,,,,,,,,,,,,,,11,,,,,,,,,,,,,,599.8479999642586,,response,,,,4,D,,,,,,Space,keypress(Space),,,,silence,,,,----- -- ---- --- -- --- -------- ------------ ---------- --<br>- ------- ------ --------- -- ------------ -- --- ---- -----<br>------ ---- ---- ------ ------ ------- --- ----- ---------<br>---- --- -------- -------- --- art -- ------- --- --- -----<br>-- --- ------ ------- --- --- -------- ---- --------- --<br>---------- -- -------- ----------------,345841.3000000119,345841.09999996424,345234.332,345236.39999997616,345241.252,345845.441,,34,art
screen,html.Screen,2_3_1_0_1_35,2022-02-02T16:11:58.268Z,,,,,,,,,,,,,,,,,11,,,,,,,,,,,,,,544.7589999880875,,response,,,,4,D,,,,,,Space,keypress(Space),,,,silence,,,,----- -- ---- --- -- --- -------- ------------ ---------- --<br>- ------- ------ --------- -- ------------ -- --- ---- -----<br>------ ---- ---- ------ ------ ------- --- ----- ---------<br>---- --- -------- -------- --- --- of ------- --- --- -----<br>-- --- ------ ------- --- --- -------- ---- --------- --<br>---------- -- -------- ----------------,346390.39999997616,346390.1999999881,345838.988,345841.39999997616,345845.441,346394.023,,35,of
screen,html.Screen,2_3_1_0_1_36,2022-02-02T16:11:59.069Z,,,,,,,,,,,,,,,,,11,,,,,,,,,,,,,,797.2770000119344,,response,,,,4,D,,,,,,Space,keypress(Space),,,,silence,,,,----- -- ---- --- -- --- -------- ------------ ---------- --<br>- ------- ------ --------- -- ------------ -- --- ---- -----<br>------ ---- ---- ------ ------ ------- --- ----- ---------<br>---- --- -------- -------- --- --- -- writing --- --- -----<br>-- --- ------ ------- --- --- -------- ---- --------- --<br>---------- -- -------- ----------------,347191.59999996424,347191.3000000119,346387.624,346390.5,346394.023,347192.624,,36,writing
screen,html.Screen,2_3_1_0_1_37,2022-02-02T16:11:59.547Z,,,,,,,,,,,,,,,,,11,,,,,,,,,,,,,,476.3759999999893,,response,,,,4,D,,,,,,Space,keypress(Space),,,,silence,,,,----- -- ---- --- -- --- -------- ------------ ---------- --<br>- ------- ------ --------- -- ------------ -- --- ---- -----<br>------ ---- ---- ------ ------ ------- --- ----- ---------<br>---- --- -------- -------- --- --- -- ------- was --- -----<br>-- --- ------ ------- --- --- -------- ---- --------- --<br>---------- -- -------- ----------------,347669.3000000119,347669,347185.67,347191.6999999881,347192.624,347671.787,,37,was
screen,html.Screen,2_3_1_0_1_38,2022-02-02T16:11:59.995Z,,,,,,,,,,,,,,,,,11,,,,,,,,,,,,,,445.61299997614697,,response,,,,4,D,,,,,,Space,keypress(Space),,,,silence,,,,----- -- ---- --- -- --- -------- ------------ ---------- --<br>- ------- ------ --------- -- ------------ -- --- ---- -----<br>------ ---- ---- ------ ------ ------- --- ----- ---------<br>---- --- -------- -------- --- --- -- ------- --- not -----<br>-- --- ------ ------- --- --- -------- ---- --------- --<br>---------- -- -------- ----------------,348117.59999996424,348117.39999997616,347664.844,347669.3000000119,347671.787,348123.172,,38,not
screen,html.Screen,2_3_1_0_1_39,2022-02-02T16:12:00.431Z,,,,,,,,,,,,,,,,,11,,,,,,,,,,,,,,430.22799997613765,,response,,,,4,D,,,,,,Space,keypress(Space),,,,silence,,,,----- -- ---- --- -- --- -------- ------------ ---------- --<br>- ------- ------ --------- -- ------------ -- --- ---- -----<br>------ ---- ---- ------ ------ ------- --- ----- ---------<br>---- --- -------- -------- --- --- -- ------- --- --- known<br>-- --- ------ ------- --- --- -------- ---- --------- --<br>---------- -- -------- ----------------,348553.6999999881,348553.39999997616,348116.227,348117.6999999881,348123.172,348560.694,,39,known
