sender,sender_type,sender_id,timestamp,meta,,Blues,Classical,Country,Dance,Electronic,Folk,Gospel,Hip-Hop,Jazz,Latin,Musical/Film,New-age,Pop,Prolific_id,Provo_ID,R&B,Rap,Reggae,Religious,Rock,Soul,Swing,Traditional,age,artist_name,correct,correctResponse,distraction,duration,education,ended_on,familiarity,gender,headphone_check_performance,item,list,music_frequency,offensiveness,pleasantness,position_correct,preference,response,response_action,snippet_file,song_name,song_rating,sound,stimulus_1,stimulus_2,stimulus_3,text,time_commit,time_end,time_render,time_run,time_show,time_switch,url,word,word_ID
Prolific ID,html.Form,0,2022-02-02T17:57:30.346Z,"{""labjs_version"":""20.2.2"",""labjs_build"":{""flavor"":""production"",""commit"":""a25486e0c714a0ae2ce03ff94b7bb6896854dcfa""},""location"":""https://run.pavlovia.org/mvasilev/prolific2_music_e/"",""userAgent"":""Mozilla/5.0 (Macintosh; Intel Mac OS X 10_15_7) AppleWebKit/537.36 (KHTML, like Gecko) Chrome/97.0.4692.99 Safari/537.36"",""platform"":""MacIntel"",""language"":""en-GB"",""locale"":""en-GB"",""timeZone"":""Europe/London"",""timezoneOffset"":0,""screen_width"":1440,""screen_height"":900,""scroll_width"":1305,""scroll_height"":667,""window_innerWidth"":1305,""window_innerHeight"":715,""devicePixelRatio"":2}",,,,,,,,,,,,,,,60b8f2c365ec36a3395896b6,,,,,,,,,,,,,,,11698.617999976159,,form submission,,,,,,,,,,,,,,,,,,,,,18640.100000023842,18639.899999976158,6924.615,6935.5,6941.282,18641.787,{},,
Introduction,html.Screen,1_0,2022-02-02T17:57:48.243Z,,,,,,,,,,,,,,,,,,,,,,,,,,,,,,,17890.31300002384,,response,,,,,,,,,,,continue,click button,,,,,,,,,36538.10000002384,36532.10000002384,18625.12,18640.200000047684,18641.787,36542.429,,,
Volume calibration,html.Screen,1_1,2022-02-02T17:58:36.340Z,,,,,,,,,,,,,,,,,,,,,,,,,,,,,,,48086.87100007153,,response,,,,,,,,,,,continue,click button,,,,,,,,,84636,84629.30000007153,36525.762,36538.39999997616,36542.429,84644.017,,,
Task instructions,html.Screen,1_2,2022-02-02T17:58:50.902Z,,,,,,,,,,,,,,,,,,,,,,,,,,,,,,,14551.183000047677,,response,,,,,,,,,,,continue,click button,,,,,,,,,99198.10000002384,99195.20000004768,84627.35,84636.20000004768,84644.017,99211.055,,,
Sounds,html.Screen,1_3_0_0,2022-02-02T17:58:55.155Z,,,,,,,,,,,,,,,,,,,,,,,,,,,,,,,4250.085000000006,,timeout,,,,,,,,,2,,,,,,,,I,S,O,,103451.60000002384,103444.473,99194.388,99198.5,99211.055,103461.14,,,
Judgement,html.Screen,1_3_0_1,2022-02-02T17:58:59.006Z,,,,,,,,,,,,,,,,,,,,,,,,,,,,true,2,,3829.2599999761587,,response,,,,,,,,,2,,2,click #choice-2,,,,,I,S,O,,107302.89999997616,107290.39999997616,103444.473,103451.89999997616,103461.14,107294.701,,,
Trial,flow.Sequence,1_3_0,2022-02-02T17:58:59.009Z,,,,,,,,,,,,,,,,,,,,,,,,,,,,,,,8079.344999976165,,completion,,,,,,,,,2,,,,,,,,I,S,O,,107305.60000002384,107290.39999997616,99194.388,99198.30000007153,99211.055,107294.701,,,
Sounds,html.Screen,1_3_1_0,2022-02-02T17:59:03.234Z,,,,,,,,,,,,,,,,,,,,,,,,,,,,,,,4250.084999999992,,timeout,,,,,,,,,1,,,,,,,,S,O,I,,111531,111528.119,107278.034,107305.89999997616,107294.701,111544.786,,,
Judgement,html.Screen,1_3_1_1,2022-02-02T17:59:04.073Z,,,,,,,,,,,,,,,,,,,,,,,,,,,,true,1,,821.3140000238491,,response,,,,,,,,,1,,1,click #choice-1,,,,,S,O,I,,112369.39999997616,112366.10000002384,111528.119,111531.39999997616,111544.786,112378.136,,,
Trial,flow.Sequence,1_3_1,2022-02-02T17:59:04.073Z,,,,,,,,,,,,,,,,,,,,,,,,,,,,,,,5071.399000023841,,completion,,,,,,,,,1,,,,,,,,S,O,I,,112369.80000007153,112366.10000002384,107278.034,107305.60000002384,107294.701,112378.136,,,
Sounds,html.Screen,1_3_2_0,2022-02-02T17:59:08.317Z,,,,,,,,,,,,,,,,,,,,,,,,,,,,,,,4250.085000000006,,timeout,,,,,,,,,1,,,,,,,,S,I,O,,116613.80000007153,116611.554,112361.469,112370.10000002384,112378.136,116628.221,,,
Judgement,html.Screen,1_3_2_1,2022-02-02T17:59:08.772Z,,,,,,,,,,,,,,,,,,,,,,,,,,,,true,1,,438.07900007152057,,response,,,,,,,,,1,,1,click #choice-1,,,,,S,I,O,,117068.80000007153,117066.30000007153,116611.554,116614.10000002384,116628.221,117078.23,,,
Trial,flow.Sequence,1_3_2,2022-02-02T17:59:08.772Z,,,,,,,,,,,,,,,,,,,,,,,,,,,,,,,4688.164000071527,,completion,,,,,,,,,1,,,,,,,,S,I,O,,117068.89999997616,117066.30000007153,112361.469,112369.89999997616,112378.136,117078.23,,,
Sounds,html.Screen,1_3_3_0,2022-02-02T17:59:13.017Z,,,,,,,,,,,,,,,,,,,,,,,,,,,,,,,4250.279999999999,,timeout,,,,,,,,,3,,,,,,,,I,O,S,,121314.39999997616,121311.843,117061.563,117069.10000002384,117078.23,121328.51,,,
Judgement,html.Screen,1_3_3_1,2022-02-02T17:59:13.721Z,,,,,,,,,,,,,,,,,,,,,,,,,,,,true,3,,687.5900000238471,,response,,,,,,,,,3,,3,click #choice-3,,,,,I,O,S,,122018,122016.10000002384,121311.843,121314.70000004768,121328.51,122028.524,,,
Trial,flow.Sequence,1_3_3,2022-02-02T17:59:13.721Z,,,,,,,,,,,,,,,,,,,,,,,,,,,,,,,4937.870000023846,,completion,,,,,,,,,3,,,,,,,,I,O,S,,122018.30000007153,122016.10000002384,117061.563,117068.89999997616,117078.23,122028.524,,,
Sounds,html.Screen,1_3_4_0,2022-02-02T17:59:17.967Z,,,,,,,,,,,,,,,,,,,,,,,,,,,,,,,4250.084999999992,,timeout,,,,,,,,,2,,,,,,,,O,S,I,,126263.89999997616,126261.942,122011.857,122018.5,122028.524,126278.609,,,
Judgement,html.Screen,1_3_4_1,2022-02-02T17:59:18.695Z,,,,,,,,,,,,,,,,,,,,,,,,,,,,true,2,,711.1910000715288,,response,,,,,,,,,2,,2,click #choice-2,,,,,O,S,I,,126992.39999997616,126989.80000007153,126261.942,126264.10000002384,126278.609,126995.29,,,
Trial,flow.Sequence,1_3_4,2022-02-02T17:59:18.696Z,,,,,,,,,,,,,,,,,,,,,,,,,,,,,,,4961.276000071521,,completion,,,,,,,,,2,,,,,,,,O,S,I,,126992.80000007153,126989.80000007153,122011.857,122018.39999997616,122028.524,126995.29,,,
Sounds,html.Screen,1_3_5_0,2022-02-02T17:59:22.934Z,,,,,,,,,,,,,,,,,,,,,,,,,,,,,,,4250.085000000006,,timeout,,,,,,,,,3,,,,,,,,O,I,S,,131231.70000004768,131228.708,126978.623,126993,126995.29,131245.375,,,
Judgement,html.Screen,1_3_5_1,2022-02-02T17:59:23.351Z,,,,,,,,,,,,,,,,,,,,,,,,,,,,true,3,,399.4250000715256,,response,,,,,,,,,3,,3,click #choice-3,,,,,O,I,S,,131648.30000007153,131644.80000007153,131228.708,131232.20000004768,131245.375,131662.134,,,
Trial,flow.Sequence,1_3_5,2022-02-02T17:59:23.351Z,,,,,,,,,,,,,,,,,,,,,,,,,,,,,,,4649.510000071532,,completion,,,,,,,,,3,,,,,,,,O,I,S,,131648.60000002384,131644.80000007153,126978.623,126992.80000007153,126995.29,131662.134,,,
Task,flow.Loop,1_3,2022-02-02T17:59:23.359Z,,,,,,,,,,,,,,,,,,,,,,,,,,,,,,,32433.745000071533,,completion,,,1,,,,,,,,,,,,,,,,,,131656,131644.80000007153,99194.388,99198.30000007153,99211.055,131662.134,,,
Trap,html.Screen,1_4,2022-02-02T17:59:23.361Z,,,,,,,,,,,,,,,,,,,,,,,,,,,,,,,NaN,,skipped,,,,,,,,,,,,,,,,,,,,,131658.5,131644.80000007153,,131658.30000007153,,131662.134,,,
Thanks,html.Screen,1_5,2022-02-02T17:59:26.328Z,,,,,,,,,,,,,,,,,,,,,,,,,,,,,,,2960.866000000009,,response,,,,,,,,,,,continue,click button,,,,,,,,,134625.30000007153,134623,131645.467,131658.5,131662.134,138212.265,,,
Headphone screening,flow.Sequence,1,2022-02-02T17:59:26.328Z,,,,,,,,,,,,,,,,,,,,,,,,,,,,,,,115981.213,,completion,,,,,,,,,,,,,,,,,,,,,134625.80000007153,134623,18625.12,18640.200000047684,18641.787,138212.265,,,
Instructions,html.Page,2_0,2022-02-02T17:59:46.367Z,,,,,,,,,,,,,,,,,,,,,,,,,,,,,,,16452.03500007151,,form submission,,,,,,,,,,,,,,,,,,,,,154665.10000002384,154664.30000007153,138195.598,138198,138212.265,154662.786,,,
Holding screen,html.Screen,2_1_0_0,2022-02-02T17:59:56.351Z,,,,,,,,,,,,,,,,,,,,,,,,,,,,,,,10017.092000000004,,timeout,,,,,,,,,,,,,,,,,,,,,164649.10000002384,164646.544,154646.119,154665.30000007153,154662.786,164679.878,,,
screen,html.Screen,2_1_0_1_0,2022-02-02T17:59:57.557Z,,,,,,,,,,,,,,,,,53,,,,,,,,,,,,,,1165.622000000003,,response,,,,99,,,,,,,Space,keypress(Space),,,,,,,,When -- ----- -- ------ - ------- --- ----------<br>------------- ------ ------ ---- ---- ------- ----- -- ----<br>-------- ------- -- ---------- --- - --- ----- ----- ----<br>---- --- --- ----- --- ---- ---- ------- ----- ---- -------<br>--- --- -- ----- -- --- ---- -- --- ---- -- ------ ------<br>--- ----- -- ----,165855.80000007153,165845.5,164646.544,164649.60000002384,164679.878,165863.235,,0,When
screen,html.Screen,2_1_0_1_1,2022-02-02T17:59:58.065Z,,,,,,,,,,,,,,,,,53,,,,,,,,,,,,,,495.26500000001397,,response,,,,99,,,,,,,Space,keypress(Space),,,,,,,,---- it ----- -- ------ - ------- --- ----------<br>------------- ------ ------ ---- ---- ------- ----- -- ----<br>-------- ------- -- ---------- --- - --- ----- ----- ----<br>---- --- --- ----- --- ---- ---- ------- ----- ---- -------<br>--- --- -- ----- -- --- ---- -- --- ---- -- ------ ------<br>--- ----- -- ----,166363.20000004768,166358.5,165846.568,165855.89999997616,165863.235,166380.116,,1,it
screen,html.Screen,2_1_0_1_2,2022-02-02T17:59:58.593Z,,,,,,,,,,,,,,,,,53,,,,,,,,,,,,,,505.6840000715165,,response,,,,99,,,,,,,Space,keypress(Space),,,,,,,,---- -- comes -- ------ - ------- --- ----------<br>------------- ------ ------ ---- ---- ------- ----- -- ----<br>-------- ------- -- ---------- --- - --- ----- ----- ----<br>---- --- --- ----- --- ---- ---- ------- ----- ---- -------<br>--- --- -- ----- -- --- ---- -- --- ---- -- ------ ------<br>--- ----- -- ----,166891.39999997616,166885.80000007153,166363.449,166363.5,166380.116,166896.793,,2,comes
screen,html.Screen,2_1_0_1_3,2022-02-02T17:59:59.064Z,,,,,,,,,,,,,,,,,53,,,,,,,,,,,,,,460.106999976153,,response,,,,99,,,,,,,Space,keypress(Space),,,,,,,,---- -- ----- to ------ - ------- --- ----------<br>------------- ------ ------ ---- ---- ------- ----- -- ----<br>-------- ------- -- ---------- --- - --- ----- ----- ----<br>---- --- --- ----- --- ---- ---- ------- ----- ---- -------<br>--- --- -- ----- -- --- ---- -- --- ---- -- ------ ------<br>--- ----- -- ----,167362.39999997616,167356.89999997616,166880.126,166891.80000007153,166896.793,167380.136,,3,to
screen,html.Screen,2_1_0_1_4,2022-02-02T17:59:59.491Z,,,,,,,,,,,,,,,,,53,,,,,,,,,,,,,,403.46400002384325,,response,,,,99,,,,,,,Space,keypress(Space),,,,,,,,---- -- ----- -- having - ------- --- ----------<br>------------- ------ ------ ---- ---- ------- ----- -- ----<br>-------- ------- -- ---------- --- - --- ----- ----- ----<br>---- --- --- ----- --- ---- ---- ------- ----- ---- -------<br>--- --- -- ----- -- --- ---- -- --- ---- -- ------ ------<br>--- ----- -- ----,167789,167783.60000002384,167363.469,167362.80000007153,167380.136,167796.811,,4,having
screen,html.Screen,2_1_0_1_5,2022-02-02T17:59:59.866Z,,,,,,,,,,,,,,,,,53,,,,,,,,,,,,,,361.88900004769675,,response,,,,99,,,,,,,Space,keypress(Space),,,,,,,,---- -- ----- -- ------ a ------- --- ----------<br>------------- ------ ------ ---- ---- ------- ----- -- ----<br>-------- ------- -- ---------- --- - --- ----- ----- ----<br>---- --- --- ----- --- ---- ---- ------- ----- ---- -------<br>--- --- -- ----- -- --- ---- -- --- ---- -- ------ ------<br>--- ----- -- ----,168164,168158.70000004768,167780.144,167789.20000004768,167796.811,168180.152,,5,a
screen,html.Screen,2_1_0_1_6,2022-02-02T18:00:00.233Z,,,,,,,,,,,,,,,,,53,,,,,,,,,,,,,,345.94800002384,,response,,,,99,,,,,,,Space,keypress(Space),,,,,,,,---- -- ----- -- ------ - lasting --- ----------<br>------------- ------ ------ ---- ---- ------- ----- -- ----<br>-------- ------- -- ---------- --- - --- ----- ----- ----<br>---- --- --- ----- --- ---- ---- ------- ----- ---- -------<br>--- --- -- ----- -- --- ---- -- --- ---- -- ------ ------<br>--- ----- -- ----,168531,168526.10000002384,168163.485,168164.20000004768,168180.152,168546.826,,6,lasting
screen,html.Screen,2_1_0_1_7,2022-02-02T18:00:00.606Z,,,,,,,,,,,,,,,,,53,,,,,,,,,,,,,,352.7740000238409,,response,,,,99,,,,,,,Space,keypress(Space),,,,,,,,---- -- ----- -- ------ - ------- and ----------<br>------------- ------ ------ ---- ---- ------- ----- -- ----<br>-------- ------- -- ---------- --- - --- ----- ----- ----<br>---- --- --- ----- --- ---- ---- ------- ----- ---- -------<br>--- --- -- ----- -- --- ---- -- --- ---- -- ------ ------<br>--- ----- -- ----,168904.10000002384,168899.60000002384,168530.159,168531.10000002384,168546.826,168913.5,,7,and
screen,html.Screen,2_1_0_1_8,2022-02-02T18:00:00.952Z,,,,,,,,,,,,,,,,,53,,,,,,,,,,,,,,331.3000000715256,,response,,,,99,,,,,,,Space,keypress(Space),,,,,,,,---- -- ----- -- ------ - ------- --- fulfilling<br>------------- ------ ------ ---- ---- ------- ----- -- ----<br>-------- ------- -- ---------- --- - --- ----- ----- ----<br>---- --- --- ----- --- ---- ---- ------- ----- ---- -------<br>--- --- -- ----- -- --- ---- -- --- ---- -- ------ ------<br>--- ----- -- ----,169250.39999997616,169244.80000007153,168896.833,168904.30000007153,168913.5,169263.507,,8,fulfilling
screen,html.Screen,2_1_0_1_9,2022-02-02T18:00:01.436Z,,,,,,,,,,,,,,,,,53,,,,,,,,,,,,,,465.29300007151323,,response,,,,99,,,,,,,Space,keypress(Space),,,,,,,,"---- -- ----- -- ------ - ------- --- ----------<br>relationship, ------ ------ ---- ---- ------- ----- -- ----<br>-------- ------- -- ---------- --- - --- ----- ----- ----<br>---- --- --- ----- --- ---- ---- ------- ----- ---- -------<br>--- --- -- ----- -- --- ---- -- --- ---- -- ------ ------<br>--- ----- -- ----",169734.10000002384,169728.80000007153,169246.84,169250.70000004768,169263.507,169746.85,,9,"relationship,"
screen,html.Screen,2_1_0_1_10,2022-02-02T18:00:01.872Z,,,,,,,,,,,,,,,,,53,,,,,,,,,,,,,,417.95000007151975,,response,,,,99,,,,,,,Space,keypress(Space),,,,,,,,---- -- ----- -- ------ - ------- --- ----------<br>------------- common ------ ---- ---- ------- ----- -- ----<br>-------- ------- -- ---------- --- - --- ----- ----- ----<br>---- --- --- ----- --- ---- ---- ------- ----- ---- -------<br>--- --- -- ----- -- --- ---- -- --- ---- -- ------ ------<br>--- ----- -- ----,170170.10000002384,170164.80000007153,169730.183,169734.39999997616,169746.85,170180.192,,10,common
screen,html.Screen,2_1_0_1_11,2022-02-02T18:00:02.220Z,,,,,,,,,,,,,,,,,53,,,,,,,,,,,,,,332.40800002383185,,response,,,,99,,,,,,,Space,keypress(Space),,,,,,,,---- -- ----- -- ------ - ------- --- ----------<br>------------- ------ wisdom ---- ---- ------- ----- -- ----<br>-------- ------- -- ---------- --- - --- ----- ----- ----<br>---- --- --- ----- --- ---- ---- ------- ----- ---- -------<br>--- --- -- ----- -- --- ---- -- --- ---- -- ------ ------<br>--- ----- -- ----,170518.30000007153,170512.60000002384,170163.525,170170.30000007153,170180.192,170530.199,,11,wisdom
screen,html.Screen,2_1_0_1_12,2022-02-02T18:00:02.621Z,,,,,,,,,,,,,,,,,53,,,,,,,,,,,,,,383.6010000715323,,response,,,,99,,,,,,,Space,keypress(Space),,,,,,,,---- -- ----- -- ------ - ------- --- ----------<br>------------- ------ ------ says ---- ------- ----- -- ----<br>-------- ------- -- ---------- --- - --- ----- ----- ----<br>---- --- --- ----- --- ---- ---- ------- ----- ---- -------<br>--- --- -- ----- -- --- ---- -- --- ---- -- ------ ------<br>--- ----- -- ----,170919.39999997616,170913.80000007153,170513.532,170518.60000002384,170530.199,170930.207,,12,says
screen,html.Screen,2_1_0_1_13,2022-02-02T18:00:02.944Z,,,,,,,,,,,,,,,,,53,,,,,,,,,,,,,,306.69299997616326,,response,,,,99,,,,,,,Space,keypress(Space),,,,,,,,---- -- ----- -- ------ - ------- --- ----------<br>------------- ------ ------ ---- that ------- ----- -- ----<br>-------- ------- -- ---------- --- - --- ----- ----- ----<br>---- --- --- ----- --- ---- ---- ------- ----- ---- -------<br>--- --- -- ----- -- --- ---- -- --- ---- -- ------ ------<br>--- ----- -- ----,171242,171236.89999997616,170913.54,170919.89999997616,170930.207,171246.88,,13,that
screen,html.Screen,2_1_0_1_14,2022-02-02T18:00:03.257Z,,,,,,,,,,,,,,,,,53,,,,,,,,,,,,,,302.82000004767906,,response,,,,99,,,,,,,Space,keypress(Space),,,,,,,,---- -- ----- -- ------ - ------- --- ----------<br>------------- ------ ------ ---- ---- feeling ----- -- ----<br>-------- ------- -- ---------- --- - --- ----- ----- ----<br>---- --- --- ----- --- ---- ---- ------- ----- ---- -------<br>--- --- -- ----- -- --- ---- -- --- ---- -- ------ ------<br>--- ----- -- ----,171555.39999997616,171549.70000004768,171230.213,171242.39999997616,171246.88,171563.553,,14,feeling
screen,html.Screen,2_1_0_1_15,2022-02-02T18:00:03.632Z,,,,,,,,,,,,,,,,,53,,,,,,,,,,,,,,361.24700007151114,,response,,,,99,,,,,,,Space,keypress(Space),,,,,,,,---- -- ----- -- ------ - ------- --- ----------<br>------------- ------ ------ ---- ---- ------- close -- ----<br>-------- ------- -- ---------- --- - --- ----- ----- ----<br>---- --- --- ----- --- ---- ---- ------- ----- ---- -------<br>--- --- -- ----- -- --- ---- -- --- ---- -- ------ ------<br>--- ----- -- ----,171930.10000002384,171924.80000007153,171546.886,171555.5,171563.553,171946.894,,15,close
screen,html.Screen,2_1_0_1_16,2022-02-02T18:00:03.942Z,,,,,,,,,,,,,,,,,53,,,,,,,,,,,,,,287.90600007152534,,response,,,,99,,,,,,,Space,keypress(Space),,,,,,,,---- -- ----- -- ------ - ------- --- ----------<br>------------- ------ ------ ---- ---- ------- ----- to ----<br>-------- ------- -- ---------- --- - --- ----- ----- ----<br>---- --- --- ----- --- ---- ---- ------- ----- ---- -------<br>--- --- -- ----- -- --- ---- -- --- ---- -- ------ ------<br>--- ----- -- ----,172240.5,172234.80000007153,171930.227,171930.39999997616,171946.894,172246.9,,16,to
screen,html.Screen,2_1_0_1_17,2022-02-02T18:00:04.274Z,,,,,,,,,,,,,,,,,53,,,,,,,,,,,,,,319.99999997616396,,response,,,,99,,,,,,,Space,keypress(Space),,,,,,,,---- -- ----- -- ------ - ------- --- ----------<br>------------- ------ ------ ---- ---- ------- ----- -- your<br>-------- ------- -- ---------- --- - --- ----- ----- ----<br>---- --- --- ----- --- ---- ---- ------- ----- ---- -------<br>--- --- -- ----- -- --- ---- -- --- ---- -- ------ ------<br>--- ----- -- ----,172572.30000007153,172566.89999997616,172230.233,172240.80000007153,172246.9,172580.24,,17,your
screen,html.Screen,2_1_0_1_18,2022-02-02T18:00:04.611Z,,,,,,,,,,,,,,,,,53,,,,,,,,,,,,,,325.2600000000093,,response,,,,99,,,,,,,Space,keypress(Space),,,,,,,,---- -- ----- -- ------ - ------- --- ----------<br>------------- ------ ------ ---- ---- ------- ----- -- ----<br>romantic ------- -- ---------- --- - --- ----- ----- ----<br>---- --- --- ----- --- ---- ---- ------- ----- ---- -------<br>--- --- -- ----- -- --- ---- -- --- ---- -- ------ ------<br>--- ----- -- ----,172910,172905.5,172563.573,172572.5,172580.24,172913.58,,18,romantic
screen,html.Screen,2_1_0_1_19,2022-02-02T18:00:04.917Z,,,,,,,,,,,,,,,,,53,,,,,,,,,,,,,,297.02000002385466,,response,,,,99,,,,,,,Space,keypress(Space),,,,,,,,---- -- ----- -- ------ - ------- --- ----------<br>------------- ------ ------ ---- ---- ------- ----- -- ----<br>-------- partner -- ---------- --- - --- ----- ----- ----<br>---- --- --- ----- --- ---- ---- ------- ----- ---- -------<br>--- --- -- ----- -- --- ---- -- --- ---- -- ------ ------<br>--- ----- -- ----,173215.89999997616,173210.60000002384,172896.913,172910.30000007153,172913.58,173230.253,,19,partner
screen,html.Screen,2_1_0_1_20,2022-02-02T18:00:05.243Z,,,,,,,,,,,,,,,,,53,,,,,,,,,,,,,,305.5470000715286,,response,,,,99,,,,,,,Space,keypress(Space),,,,,,,,---- -- ----- -- ------ - ------- --- ----------<br>------------- ------ ------ ---- ---- ------- ----- -- ----<br>-------- ------- is ---------- --- - --- ----- ----- ----<br>---- --- --- ----- --- ---- ---- ------- ----- ---- -------<br>--- --- -- ----- -- --- ---- -- --- ---- -- ------ ------<br>--- ----- -- ----,173541.30000007153,173535.80000007153,173213.586,173216.10000002384,173230.253,173546.926,,20,is
screen,html.Screen,2_1_0_1_21,2022-02-02T18:00:05.579Z,,,,,,,,,,,,,,,,,53,,,,,,,,,,,,,,324.9739999761514,,response,,,,99,,,,,,,Space,keypress(Space),,,,,,,,---- -- ----- -- ------ - ------- --- ----------<br>------------- ------ ------ ---- ---- ------- ----- -- ----<br>-------- ------- -- paramount. --- - --- ----- ----- ----<br>---- --- --- ----- --- ---- ---- ------- ----- ---- -------<br>--- --- -- ----- -- --- ---- -- --- ---- -- ------ ------<br>--- ----- -- ----,173877.30000007153,173871.89999997616,173530.259,173541.70000004768,173546.926,173880.266,,21,paramount.
screen,html.Screen,2_1_0_1_22,2022-02-02T18:00:06.145Z,,,,,,,,,,,,,,,,,53,,,,,,,,,,,,,,557.3340000238386,,response,,,,99,,,,,,,Space,keypress(Space),,,,,,,,---- -- ----- -- ------ - ------- --- ----------<br>------------- ------ ------ ---- ---- ------- ----- -- ----<br>-------- ------- -- ---------- But - --- ----- ----- ----<br>---- --- --- ----- --- ---- ---- ------- ----- ---- -------<br>--- --- -- ----- -- --- ---- -- --- ---- -- ------ ------<br>--- ----- -- ----,174443.10000002384,174437.60000002384,173863.599,173877.39999997616,173880.266,174446.944,,22,But
screen,html.Screen,2_1_0_1_23,2022-02-02T18:00:06.590Z,,,,,,,,,,,,,,,,,53,,,,,,,,,,,,,,435.95599997616955,,response,,,,99,,,,,,,Space,keypress(Space),,,,,,,,---- -- ----- -- ------ - ------- --- ----------<br>------------- ------ ------ ---- ---- ------- ----- -- ----<br>-------- ------- -- ---------- --- a --- ----- ----- ----<br>---- --- --- ----- --- ---- ---- ------- ----- ---- -------<br>--- --- -- ----- -- --- ---- -- --- ---- -- ------ ------<br>--- ----- -- ----,174888.39999997616,174882.89999997616,174430.277,174443.39999997616,174446.944,174896.953,,23,a
screen,html.Screen,2_1_0_1_24,2022-02-02T18:00:06.871Z,,,,,,,,,,,,,,,,,53,,,,,,,,,,,,,,266.84700007151696,,response,,,,99,,,,,,,Space,keypress(Space),,,,,,,,---- -- ----- -- ------ - ------- --- ----------<br>------------- ------ ------ ---- ---- ------- ----- -- ----<br>-------- ------- -- ---------- --- - new ----- ----- ----<br>---- --- --- ----- --- ---- ---- ------- ----- ---- -------<br>--- --- -- ----- -- --- ---- -- --- ---- -- ------ ------<br>--- ----- -- ----,175169.10000002384,175163.80000007153,174880.286,174888.60000002384,174896.953,175180.292,,24,new
screen,html.Screen,2_1_0_1_25,2022-02-02T18:00:07.193Z,,,,,,,,,,,,,,,,,53,,,,,,,,,,,,,,305.50800007153885,,response,,,,99,,,,,,,Space,keypress(Space),,,,,,,,---- -- ----- -- ------ - ------- --- ----------<br>------------- ------ ------ ---- ---- ------- ----- -- ----<br>-------- ------- -- ---------- --- - --- study ----- ----<br>---- --- --- ----- --- ---- ---- ------- ----- ---- -------<br>--- --- -- ----- -- --- ---- -- --- ---- -- ------ ------<br>--- ----- -- ----,175491.10000002384,175485.80000007153,175163.625,175169.5,175180.292,175497.053,,25,study
screen,html.Screen,2_1_0_1_26,2022-02-02T18:00:07.478Z,,,,,,,,,,,,,,,,,53,,,,,,,,,,,,,,273.74700007151114,,response,,,,99,,,,,,,Space,keypress(Space),,,,,,,,---- -- ----- -- ------ - ------- --- ----------<br>------------- ------ ------ ---- ---- ------- ----- -- ----<br>-------- ------- -- ---------- --- - --- ----- finds ----<br>---- --- --- ----- --- ---- ---- ------- ----- ---- -------<br>--- --- -- ----- -- --- ---- -- --- ---- -- ------ ------<br>--- ----- -- ----,175776.10000002384,175770.80000007153,175480.386,175491.30000007153,175497.053,175780.392,,26,finds
screen,html.Screen,2_1_0_1_27,2022-02-02T18:00:07.814Z,,,,,,,,,,,,,,,,,53,,,,,,,,,,,,,,326.2080000238493,,response,,,,99,,,,,,,Space,keypress(Space),,,,,,,,---- -- ----- -- ------ - ------- --- ----------<br>------------- ------ ------ ---- ---- ------- ----- -- ----<br>-------- ------- -- ---------- --- - --- ----- ----- that<br>---- --- --- ----- --- ---- ---- ------- ----- ---- -------<br>--- --- -- ----- -- --- ---- -- --- ---- -- ------ ------<br>--- ----- -- ----,176112.60000002384,176106.60000002384,175763.725,175776.5,175780.392,176130.399,,27,that
screen,html.Screen,2_1_0_1_28,2022-02-02T18:00:08.212Z,,,,,,,,,,,,,,,,,53,,,,,,,,,,,,,,374.50099997615325,,response,,,,99,,,,,,,Space,keypress(Space),,,,,,,,---- -- ----- -- ------ - ------- --- ----------<br>------------- ------ ------ ---- ---- ------- ----- -- ----<br>-------- ------- -- ---------- --- - --- ----- ----- ----<br>it's --- --- ----- --- ---- ---- ------- ----- ---- -------<br>--- --- -- ----- -- --- ---- -- --- ---- -- ------ ------<br>--- ----- -- ----,176510.5,176504.89999997616,176113.732,176112.80000007153,176130.399,176513.74,,28,it's
screen,html.Screen,2_1_0_1_29,2022-02-02T18:00:08.525Z,,,,,,,,,,,,,,,,,53,,,,,,,,,,,,,,304.0600000715349,,response,,,,99,,,,,,,Space,keypress(Space),,,,,,,,---- -- ----- -- ------ - ------- --- ----------<br>------------- ------ ------ ---- ---- ------- ----- -- ----<br>-------- ------- -- ---------- --- - --- ----- ----- ----<br>---- not --- ----- --- ---- ---- ------- ----- ---- -------<br>--- --- -- ----- -- --- ---- -- --- ---- -- ------ ------<br>--- ----- -- ----,176823.10000002384,176817.80000007153,176497.073,176510.70000004768,176513.74,176830.413,,29,not
screen,html.Screen,2_1_0_1_30,2022-02-02T18:00:08.828Z,,,,,,,,,,,,,,,,,53,,,,,,,,,,,,,,290.3870000715251,,response,,,,99,,,,,,,Space,keypress(Space),,,,,,,,---- -- ----- -- ------ - ------- --- ----------<br>------------- ------ ------ ---- ---- ------- ----- -- ----<br>-------- ------- -- ---------- --- - --- ----- ----- ----<br>---- --- how ----- --- ---- ---- ------- ----- ---- -------<br>--- --- -- ----- -- --- ---- -- --- ---- -- ------ ------<br>--- ----- -- ----,177126.30000007153,177120.80000007153,176813.746,176823.5,176830.413,177130.419,,30,how
screen,html.Screen,2_1_0_1_31,2022-02-02T18:00:09.158Z,,,,,,,,,,,,,,,,,53,,,,,,,,,,,,,,320.5810000000056,,response,,,,99,,,,,,,Space,keypress(Space),,,,,,,,---- -- ----- -- ------ - ------- --- ----------<br>------------- ------ ------ ---- ---- ------- ----- -- ----<br>-------- ------- -- ---------- --- - --- ----- ----- ----<br>---- --- --- close --- ---- ---- ------- ----- ---- -------<br>--- --- -- ----- -- --- ---- -- --- ---- -- ------ ------<br>--- ----- -- ----,177456.39999997616,177451,177113.752,177126.60000002384,177130.419,177463.759,,31,close
screen,html.Screen,2_1_0_1_32,2022-02-02T18:00:09.549Z,,,,,,,,,,,,,,,,,53,,,,,,,,,,,,,,378.1409999761672,,response,,,,99,,,,,,,Space,keypress(Space),,,,,,,,---- -- ----- -- ------ - ------- --- ----------<br>------------- ------ ------ ---- ---- ------- ----- -- ----<br>-------- ------- -- ---------- --- - --- ----- ----- ----<br>---- --- --- ----- you ---- ---- ------- ----- ---- -------<br>--- --- -- ----- -- --- ---- -- --- ---- -- ------ ------<br>--- ----- -- ----,177847.5,177841.89999997616,177447.092,177456.70000004768,177463.759,177863.767,,32,you
screen,html.Screen,2_1_0_1_33,2022-02-02T18:00:09.818Z,,,,,,,,,,,,,,,,,53,,,,,,,,,,,,,,247.93300004769117,,response,,,,99,,,,,,,Space,keypress(Space),,,,,,,,---- -- ----- -- ------ - ------- --- ----------<br>------------- ------ ------ ---- ---- ------- ----- -- ----<br>-------- ------- -- ---------- --- - --- ----- ----- ----<br>---- --- --- ----- --- feel ---- ------- ----- ---- -------<br>--- --- -- ----- -- --- ---- -- --- ---- -- ------ ------<br>--- ----- -- ----,178117.10000002384,178111.70000004768,177847.1,177847.80000007153,177863.767,178130.439,,33,feel
screen,html.Screen,2_1_0_1_34,2022-02-02T18:00:10.195Z,,,,,,,,,,,,,,,,,53,,,,,,,,,,,,,,357.4609999761451,,response,,,,99,,,,,,,Space,keypress(Space),,,,,,,,---- -- ----- -- ------ - ------- --- ----------<br>------------- ------ ------ ---- ---- ------- ----- -- ----<br>-------- ------- -- ---------- --- - --- ----- ----- ----<br>---- --- --- ----- --- ---- that ------- ----- ---- -------<br>--- --- -- ----- -- --- ---- -- --- ---- -- ------ ------<br>--- ----- -- ----,178493.30000007153,178487.89999997616,178113.772,178117.39999997616,178130.439,178497.113,,34,that
screen,html.Screen,2_1_0_1_35,2022-02-02T18:00:10.503Z,,,,,,,,,,,,,,,,,53,,,,,,,,,,,,,,298.78699997614603,,response,,,,99,,,,,,,Space,keypress(Space),,,,,,,,---- -- ----- -- ------ - ------- --- ----------<br>------------- ------ ------ ---- ---- ------- ----- -- ----<br>-------- ------- -- ---------- --- - --- ----- ----- ----<br>---- --- --- ----- --- ---- ---- matters ----- ---- -------<br>--- --- -- ----- -- --- ---- -- --- ---- -- ------ ------<br>--- ----- -- ----,178801.10000002384,178795.89999997616,178480.446,178493.5,178497.113,178813.786,,35,matters
screen,html.Screen,2_1_0_1_36,2022-02-02T18:00:10.835Z,,,,,,,,,,,,,,,,,53,,,,,,,,,,,,,,314.2140000000072,,response,,,,99,,,,,,,Space,keypress(Space),,,,,,,,"---- -- ----- -- ------ - ------- --- ----------<br>------------- ------ ------ ---- ---- ------- ----- -- ----<br>-------- ------- -- ---------- --- - --- ----- ----- ----<br>---- --- --- ----- --- ---- ---- ------- most, ---- -------<br>--- --- -- ----- -- --- ---- -- --- ---- -- ------ ------<br>--- ----- -- ----",179133.20000004768,179128,178797.119,178801.5,178813.786,179147.126,,36,"most,"
screen,html.Screen,2_1_0_1_37,2022-02-02T18:00:11.202Z,,,,,,,,,,,,,,,,,53,,,,,,,,,,,,,,347.8740000000107,,response,,,,99,,,,,,,Space,keypress(Space),,,,,,,,---- -- ----- -- ------ - ------- --- ----------<br>------------- ------ ------ ---- ---- ------- ----- -- ----<br>-------- ------- -- ---------- --- - --- ----- ----- ----<br>---- --- --- ----- --- ---- ---- ------- ----- it's -------<br>--- --- -- ----- -- --- ---- -- --- ---- -- ------ ------<br>--- ----- -- ----,179500.39999997616,179495,179130.459,179133.5,179147.126,179513.8,,37,it's
screen,html.Screen,2_1_0_1_38,2022-02-02T18:00:11.571Z,,,,,,,,,,,,,,,,,53,,,,,,,,,,,,,,349.90000004769536,,response,,,,99,,,,,,,Space,keypress(Space),,,,,,,,---- -- ----- -- ------ - ------- --- ----------<br>------------- ------ ------ ---- ---- ------- ----- -- ----<br>-------- ------- -- ---------- --- - --- ----- ----- ----<br>---- --- --- ----- --- ---- ---- ------- ----- ---- whether<br>--- --- -- ----- -- --- ---- -- --- ---- -- ------ ------<br>--- ----- -- ----,179869.89999997616,179863.70000004768,179497.133,179500.60000002384,179513.8,179880.474,,38,whether
screen,html.Screen,2_1_0_1_39,2022-02-02T18:00:11.886Z,,,,,,,,,,,,,,,,,53,,,,,,,,,,,,,,299.4259999761707,,response,,,,99,,,,,,,Space,keypress(Space),,,,,,,,---- -- ----- -- ------ - ------- --- ----------<br>------------- ------ ------ ---- ---- ------- ----- -- ----<br>-------- ------- -- ---------- --- - --- ----- ----- ----<br>---- --- --- ----- --- ---- ---- ------- ----- ---- -------<br>you --- -- ----- -- --- ---- -- --- ---- -- ------ ------<br>--- ----- -- ----,180185,180179.89999997616,179863.807,179870.10000002384,179880.474,180197.147,,39,you
screen,html.Screen,2_1_0_1_40,2022-02-02T18:00:12.162Z,,,,,,,,,,,,,,,,,53,,,,,,,,,,,,,,258.5530000476865,,response,,,,99,,,,,,,Space,keypress(Space),,,,,,,,---- -- ----- -- ------ - ------- --- ----------<br>------------- ------ ------ ---- ---- ------- ----- -- ----<br>-------- ------- -- ---------- --- - --- ----- ----- ----<br>---- --- --- ----- --- ---- ---- ------- ----- ---- -------<br>--- are -- ----- -- --- ---- -- --- ---- -- ------ ------<br>--- ----- -- ----,180461,180455.70000004768,180180.48,180185.30000007153,180197.147,180463.819,,40,are
screen,html.Screen,2_1_0_1_41,2022-02-02T18:00:12.378Z,,,,,,,,,,,,,,,,,53,,,,,,,,,,,,,,207.78100002385327,,response,,,,99,,,,,,,Space,keypress(Space),,,,,,,,---- -- ----- -- ------ - ------- --- ----------<br>------------- ------ ------ ---- ---- ------- ----- -- ----<br>-------- ------- -- ---------- --- - --- ----- ----- ----<br>---- --- --- ----- --- ---- ---- ------- ----- ---- -------<br>--- --- as ----- -- --- ---- -- --- ---- -- ------ ------<br>--- ----- -- ----,180676.89999997616,180671.60000002384,180447.152,180461.20000004768,180463.819,180680.49,,41,as
screen,html.Screen,2_1_0_1_42,2022-02-02T18:00:12.796Z,,,,,,,,,,,,,,,,,53,,,,,,,,,,,,,,409.5100000000093,,response,,,,99,,,,,,,Space,keypress(Space),,,,,,,,---- -- ----- -- ------ - ------- --- ----------<br>------------- ------ ------ ---- ---- ------- ----- -- ----<br>-------- ------- -- ---------- --- - --- ----- ----- ----<br>---- --- --- ----- --- ---- ---- ------- ----- ---- -------<br>--- --- -- close -- --- ---- -- --- ---- -- ------ ------<br>--- ----- -- ----,181094.70000004768,181090,180663.823,180677.10000002384,180680.49,181097.165,,42,close
screen,html.Screen,2_1_0_1_43,2022-02-02T18:00:13.062Z,,,,,,,,,,,,,,,,,53,,,,,,,,,,,,,,257.6350000715174,,response,,,,99,,,,,,,Space,keypress(Space),,,,,,,,---- -- ----- -- ------ - ------- --- ----------<br>------------- ------ ------ ---- ---- ------- ----- -- ----<br>-------- ------- -- ---------- --- - --- ----- ----- ----<br>---- --- --- ----- --- ---- ---- ------- ----- ---- -------<br>--- --- -- ----- as --- ---- -- --- ---- -- ------ ------<br>--- ----- -- ----,181360.20000004768,181354.80000007153,181080.498,181094.80000007153,181097.165,181363.837,,43,as
screen,html.Screen,2_1_0_1_44,2022-02-02T18:00:13.413Z,,,,,,,,,,,,,,,,,53,,,,,,,,,,,,,,341.96300007152604,,response,,,,99,,,,,,,Space,keypress(Space),,,,,,,,---- -- ----- -- ------ - ------- --- ----------<br>------------- ------ ------ ---- ---- ------- ----- -- ----<br>-------- ------- -- ---------- --- - --- ----- ----- ----<br>---- --- --- ----- --- ---- ---- ------- ----- ---- -------<br>--- --- -- ----- -- you ---- -- --- ---- -- ------ ------<br>--- ----- -- ----,181711.39999997616,181705.80000007153,181347.17,181360.5,181363.837,181713.844,,44,you
screen,html.Screen,2_1_0_1_45,2022-02-02T18:00:14.181Z,,,,,,,,,,,,,,,,,53,,,,,,,,,,,,,,761.0559999761463,,response,,,,99,,,,,,,Space,keypress(Space),,,,,,,,---- -- ----- -- ------ - ------- --- ----------<br>------------- ------ ------ ---- ---- ------- ----- -- ----<br>-------- ------- -- ---------- --- - --- ----- ----- ----<br>---- --- --- ----- --- ---- ---- ------- ----- ---- -------<br>--- --- -- ----- -- --- want -- --- ---- -- ------ ------<br>--- ----- -- ----,182480.10000002384,182474.89999997616,181697.177,181711.60000002384,181713.844,182497.193,,45,want
screen,html.Screen,2_1_0_1_46,2022-02-02T18:00:15.290Z,,,,,,,,,,,,,,,,,53,,,,,,,,,,,,,,1086.7069999761588,,response,,,,99,,,,,,,Space,keypress(Space),,,,,,,,---- -- ----- -- ------ - ------- --- ----------<br>------------- ------ ------ ---- ---- ------- ----- -- ----<br>-------- ------- -- ---------- --- - --- ----- ----- ----<br>---- --- --- ----- --- ---- ---- ------- ----- ---- -------<br>--- --- -- ----- -- --- ---- to --- ---- -- ------ ------<br>--- ----- -- ----,183589.10000002384,183583.89999997616,182480.526,182480.30000007153,182497.193,183597.215,,46,to
screen,html.Screen,2_1_0_1_47,2022-02-02T18:00:15.778Z,,,,,,,,,,,,,,,,,53,,,,,,,,,,,,,,473.68499997616163,,response,,,,99,,,,,,,Space,keypress(Space),,,,,,,,"---- -- ----- -- ------ - ------- --- ----------<br>------------- ------ ------ ---- ---- ------- ----- -- ----<br>-------- ------- -- ---------- --- - --- ----- ----- ----<br>---- --- --- ----- --- ---- ---- ------- ----- ---- -------<br>--- --- -- ----- -- --- ---- -- be, ---- -- ------ ------<br>--- ----- -- ----",184076.39999997616,184070.89999997616,183580.548,183589.30000007153,183597.215,184080.558,,47,"be,"
screen,html.Screen,2_1_0_1_48,2022-02-02T18:00:16.137Z,,,,,,,,,,,,,,,,,53,,,,,,,,,,,,,,349.34199997616815,,response,,,,99,,,,,,,Space,keypress(Space),,,,,,,,---- -- ----- -- ------ - ------- --- ----------<br>------------- ------ ------ ---- ---- ------- ----- -- ----<br>-------- ------- -- ---------- --- - --- ----- ----- ----<br>---- --- --- ----- --- ---- ---- ------- ----- ---- -------<br>--- --- -- ----- -- --- ---- -- --- even -- ------ ------<br>--- ----- -- ----,184435.20000004768,184429.89999997616,184063.891,184076.5,184080.558,184447.232,,48,even
screen,html.Screen,2_1_0_1_49,2022-02-02T18:00:16.479Z,,,,,,,,,,,,,,,,,53,,,,,,,,,,,,,,325.5680000715365,,response,,,,99,,,,,,,Space,keypress(Space),,,,,,,,---- -- ----- -- ------ - ------- --- ----------<br>------------- ------ ------ ---- ---- ------- ----- -- ----<br>-------- ------- -- ---------- --- - --- ----- ----- ----<br>---- --- --- ----- --- ---- ---- ------- ----- ---- -------<br>--- --- -- ----- -- --- ---- -- --- ---- if ------ ------<br>--- ----- -- ----,184778.10000002384,184772.80000007153,184430.565,184435.5,184447.232,184780.572,,49,if
screen,html.Screen,2_1_0_1_50,2022-02-02T18:00:16.826Z,,,,,,,,,,,,,,,,,53,,,,,,,,,,,,,,338.42800000001444,,response,,,,99,,,,,,,Space,keypress(Space),,,,,,,,---- -- ----- -- ------ - ------- --- ----------<br>------------- ------ ------ ---- ---- ------- ----- -- ----<br>-------- ------- -- ---------- --- - --- ----- ----- ----<br>---- --- --- ----- --- ---- ---- ------- ----- ---- -------<br>--- --- -- ----- -- --- ---- -- --- ---- -- that's ------<br>--- ----- -- ----,185124.39999997616,185119,184763.905,184778.39999997616,184780.572,185130.579,,50,that's
screen,html.Screen,2_1_0_1_51,2022-02-02T18:00:17.224Z,,,,,,,,,,,,,,,,,53,,,,,,,,,,,,,,387.32099997616024,,response,,,,99,,,,,,,Space,keypress(Space),,,,,,,,---- -- ----- -- ------ - ------- --- ----------<br>------------- ------ ------ ---- ---- ------- ----- -- ----<br>-------- ------- -- ---------- --- - --- ----- ----- ----<br>---- --- --- ----- --- ---- ---- ------- ----- ---- -------<br>--- --- -- ----- -- --- ---- -- --- ---- -- ------ really<br>--- ----- -- ----,185523.20000004768,185517.89999997616,185113.912,185124.70000004768,185130.579,185530.587,,51,really
screen,html.Screen,2_1_0_1_52,2022-02-02T18:00:17.598Z,,,,,,,,,,,,,,,,,53,,,,,,,,,,,,,,360.5130000238423,,response,,,,99,,,,,,,Space,keypress(Space),,,,,,,,---- -- ----- -- ------ - ------- --- ----------<br>------------- ------ ------ ---- ---- ------- ----- -- ----<br>-------- ------- -- ---------- --- - --- ----- ----- ----<br>---- --- --- ----- --- ---- ---- ------- ----- ---- -------<br>--- --- -- ----- -- --- ---- -- --- ---- -- ------ ------<br>not ----- -- ----,185896.60000002384,185891.10000002384,185513.92,185523.39999997616,185530.587,185914.098,,52,not
screen,html.Screen,2_1_0_1_53,2022-02-02T18:00:17.945Z,,,,,,,,,,,,,,,,,53,,,,,,,,,,,,,,322.80199997616,,response,,,,99,,,,,,,Space,keypress(Space),,,,,,,,---- -- ----- -- ------ - ------- --- ----------<br>------------- ------ ------ ---- ---- ------- ----- -- ----<br>-------- ------- -- ---------- --- - --- ----- ----- ----<br>---- --- --- ----- --- ---- ---- ------- ----- ---- -------<br>--- --- -- ----- -- --- ---- -- --- ---- -- ------ ------<br>--- close -- ----,186243.39999997616,186236.89999997616,185897.431,185897,185914.098,186247.438,,53,close
screen,html.Screen,2_1_0_1_54,2022-02-02T18:00:18.326Z,,,,,,,,,,,,,,,,,53,,,,,,,,,,,,,,371.4619999761635,,response,,,,99,,,,,,,Space,keypress(Space),,,,,,,,---- -- ----- -- ------ - ------- --- ----------<br>------------- ------ ------ ---- ---- ------- ----- -- ----<br>-------- ------- -- ---------- --- - --- ----- ----- ----<br>---- --- --- ----- --- ---- ---- ------- ----- ---- -------<br>--- --- -- ----- -- --- ---- -- --- ---- -- ------ ------<br>--- ----- at ----,186624.39999997616,186618.89999997616,186230.771,186243.60000002384,186247.438,186630.779,,54,at
screen,html.Screen,2_1_0_1_55,2022-02-02T18:00:20.438Z,,,,,,,,,,,,,,,,,53,,,,,,,,,,,,,,2100.2209999999905,,response,,,,99,,,,,,,Space,keypress(Space),,,,,,,,---- -- ----- -- ------ - ------- --- ----------<br>------------- ------ ------ ---- ---- ------- ----- -- ----<br>-------- ------- -- ---------- --- - --- ----- ----- ----<br>---- --- --- ----- --- ---- ---- ------- ----- ---- -------<br>--- --- -- ----- -- --- ---- -- --- ---- -- ------ ------<br>--- ----- -- all.,188736.60000002384,188731,186614.112,186624.70000004768,186630.779,188747.488,,55,all.
Item 99,flow.Loop,2_1_0_1,2022-02-02T18:00:20.438Z,,,,,,,,,,,,,,,,,,,,,,,,,,,,,,,24051.122000000003,,completion,,,,,E,,,,,,,,,,,silence,,,,,188737.20000004768,188731,164646.544,164649.5,164679.878,188747.488,,,
Question 1,html.Screen,2_1_0_2,2022-02-02T18:00:29.026Z,,,,,,,,,,,,,,,,,,,,,,,,,,,,false,FALSE,,8575.411999976146,,response,,,,99,E,,,,,,TRUE,click #choice-1,,,,silence,,,,,197325.60000002384,197322.89999997616,188730.821,188737.39999997616,188747.488,197331.114,,,
Question 2,html.Screen,2_1_0_3,2022-02-02T18:00:33.055Z,,,,,,,,,,,,,,,,,,,,,,,,,,,,true,TRUE,,4021.3859999999986,,response,,,,99,E,,,,,,TRUE,click #choice-1,,,,silence,,,,,201354.39999997616,201352.5,197314.447,197325.80000007153,197331.114,201364.528,,,
Item 99,flow.Sequence,2_1_0,2022-02-02T18:00:33.055Z,,,,,,,,,,,,,,,,,,,,,,,,,,,,,,,46689.71400000001,,completion,,,,,,,,,,,,,,,,,,,,,201354.60000002384,201352.5,154646.119,154665.30000007153,154662.786,201364.528,,,
Holding screen,html.Screen,2_1_1_0,2022-02-02T18:00:43.051Z,,,,,,,,,,,,,,,,,,,,,,,,,,,,,,,10000.445999999996,,timeout,,,,,,,,,,,,,,,,,,,,,211350.20000004768,211348.307,201347.861,201354.80000007153,201364.528,211364.974,,,
screen,html.Screen,2_1_1_1_0,2022-02-02T18:00:48.849Z,,,,,,,,,,,,,,,,,54,,,,,,,,,,,,,,5777.626000023854,,response,,,,100,,,,,,,Space,keypress(Space),,,,,,,,At --- ---- --- ------ ----- ------- ---- -- --- ------- --<br>------- ---------- ------ -- ----- -- ----- -- ---- ------<br>--- ----- --- --- ------ -------- ----- --- ------ ----- --<br>----- ----- ---------- --- --- ------ ------ ---- -- ------<br>------- --- ------ ----- --- ---- ------- -- ---- --- --<br>------- ------,217148.70000004768,217142.60000002384,211348.307,211350.60000002384,211364.974,217165.09,,0,At
screen,html.Screen,2_1_1_1_1,2022-02-02T18:00:49.309Z,,,,,,,,,,,,,,,,,54,,,,,,,,,,,,,,438.51000002384535,,response,,,,100,,,,,,,Space,keypress(Space),,,,,,,,-- the ---- --- ------ ----- ------- ---- -- --- ------- --<br>------- ---------- ------ -- ----- -- ----- -- ---- ------<br>--- ----- --- --- ------ -------- ----- --- ------ ----- --<br>----- ----- ---------- --- --- ------ ------ ---- -- ------<br>------- --- ------ ----- --- ---- ------- -- ---- --- --<br>------- ------,217609.10000002384,217603.60000002384,217148.423,217148.89999997616,217165.09,217615.099,,1,the
screen,html.Screen,2_1_1_1_2,2022-02-02T18:00:49.612Z,,,,,,,,,,,,,,,,,54,,,,,,,,,,,,,,291.4010000000126,,response,,,,100,,,,,,,Space,keypress(Space),,,,,,,,-- --- time --- ------ ----- ------- ---- -- --- ------- --<br>------- ---------- ------ -- ----- -- ----- -- ---- ------<br>--- ----- --- --- ------ -------- ----- --- ------ ----- --<br>----- ----- ---------- --- --- ------ ------ ---- -- ------<br>------- --- ------ ----- --- ---- ------- -- ---- --- --<br>------- ------,217911.39999997616,217906.5,217598.432,217609.30000007153,217615.099,217915.056,,2,time
screen,html.Screen,2_1_1_1_3,2022-02-02T18:00:49.815Z,,,,,,,,,,,,,,,,,54,,,,,,,,,,,,,,194.4439999999886,,response,,,,100,,,,,,,Space,keypress(Space),,,,,,,,-- --- ---- the ------ ----- ------- ---- -- --- ------- --<br>------- ---------- ------ -- ----- -- ----- -- ---- ------<br>--- ----- --- --- ------ -------- ----- --- ------ ----- --<br>----- ----- ---------- --- --- ------ ------ ---- -- ------<br>------- --- ------ ----- --- ---- ------- -- ---- --- --<br>------- ------,218114.39999997616,218109.5,217898.389,217911.5,217915.056,218131.727,,3,the
screen,html.Screen,2_1_1_1_4,2022-02-02T18:00:50.117Z,,,,,,,,,,,,,,,,,54,,,,,,,,,,,,,,278.87300002382835,,response,,,,100,,,,,,,Space,keypress(Space),,,,,,,,-- --- ---- --- French ----- ------- ---- -- --- ------- --<br>------- ---------- ------ -- ----- -- ----- -- ---- ------<br>--- ----- --- --- ------ -------- ----- --- ------ ----- --<br>----- ----- ---------- --- --- ------ ------ ---- -- ------<br>------- --- ------ ----- --- ---- ------- -- ---- --- --<br>------- ------,218416.20000004768,218410.60000002384,218115.06,218114.70000004768,218131.727,218431.733,,4,French
screen,html.Screen,2_1_1_1_5,2022-02-02T18:00:50.478Z,,,,,,,,,,,,,,,,,54,,,,,,,,,,,,,,340.76699999999255,,response,,,,100,,,,,,,Space,keypress(Space),,,,,,,,-- --- ---- --- ------ crown ------- ---- -- --- ------- --<br>------- ---------- ------ -- ----- -- ----- -- ---- ------<br>--- ----- --- --- ------ -------- ----- --- ------ ----- --<br>----- ----- ---------- --- --- ------ ------ ---- -- ------<br>------- --- ------ ----- --- ---- ------- -- ---- --- --<br>------- ------,218778,218772.5,218415.066,218416.30000007153,218431.733,218781.74,,5,crown
screen,html.Screen,2_1_1_1_6,2022-02-02T18:00:50.800Z,,,,,,,,,,,,,,,,,54,,,,,,,,,,,,,,312.65999997616746,,response,,,,100,,,,,,,Space,keypress(Space),,,,,,,,-- --- ---- --- ------ ----- secured ---- -- --- ------- --<br>------- ---------- ------ -- ----- -- ----- -- ---- ------<br>--- ----- --- --- ------ -------- ----- --- ------ ----- --<br>----- ----- ---------- --- --- ------ ------ ---- -- ------<br>------- --- ------ ----- --- ---- ------- -- ---- --- --<br>------- ------,219099.70000004768,219094.39999997616,218765.073,218778.30000007153,218781.74,219115.08,,6,secured
screen,html.Screen,2_1_1_1_7,2022-02-02T18:00:51.115Z,,,,,,,,,,,,,,,,,54,,,,,,,,,,,,,,294.6200000476965,,response,,,,100,,,,,,,Space,keypress(Space),,,,,,,,-- --- ---- --- ------ ----- ------- much -- --- ------- --<br>------- ---------- ------ -- ----- -- ----- -- ---- ------<br>--- ----- --- --- ------ -------- ----- --- ------ ----- --<br>----- ----- ---------- --- --- ------ ------ ---- -- ------<br>------- --- ------ ----- --- ---- ------- -- ---- --- --<br>------- ------,219414.89999997616,219409.70000004768,219098.413,219100,219115.08,219431.753,,7,much
screen,html.Screen,2_1_1_1_8,2022-02-02T18:00:51.510Z,,,,,,,,,,,,,,,,,54,,,,,,,,,,,,,,372.8470000238449,,response,,,,100,,,,,,,Space,keypress(Space),,,,,,,,-- --- ---- --- ------ ----- ------- ---- of --- ------- --<br>------- ---------- ------ -- ----- -- ----- -- ---- ------<br>--- ----- --- --- ------ -------- ----- --- ------ ----- --<br>----- ----- ---------- --- --- ------ ------ ---- -- ------<br>------- --- ------ ----- --- ---- ------- -- ---- --- --<br>------- ------,219810.10000002384,219804.60000002384,219415.086,219415.30000007153,219431.753,219815.094,,8,of
screen,html.Screen,2_1_1_1_9,2022-02-02T18:00:51.925Z,,,,,,,,,,,,,,,,,54,,,,,,,,,,,,,,404.4059999999881,,response,,,,100,,,,,,,Space,keypress(Space),,,,,,,,-- --- ---- --- ------ ----- ------- ---- -- its ------- --<br>------- ---------- ------ -- ----- -- ----- -- ---- ------<br>--- ----- --- --- ------ -------- ----- --- ------ ----- --<br>----- ----- ---------- --- --- ------ ------ ---- -- ------<br>------- --- ------ ----- --- ---- ------- -- ---- --- --<br>------- ------,220224.80000007153,220219.5,219798.427,219810.39999997616,219815.094,220231.769,,9,its
screen,html.Screen,2_1_1_1_10,2022-02-02T18:00:52.233Z,,,,,,,,,,,,,,,,,54,,,,,,,,,,,,,,295.73099999999977,,response,,,,100,,,,,,,Space,keypress(Space),,,,,,,,-- --- ---- --- ------ ----- ------- ---- -- --- revenue --<br>------- ---------- ------ -- ----- -- ----- -- ---- ------<br>--- ----- --- --- ------ -------- ----- --- ------ ----- --<br>----- ----- ---------- --- --- ------ ------ ---- -- ------<br>------- --- ------ ----- --- ---- ------- -- ---- --- --<br>------- ------,220532.80000007153,220527.5,220215.102,220225.10000002384,220231.769,220548.442,,10,revenue
screen,html.Screen,2_1_1_1_11,2022-02-02T18:00:52.655Z,,,,,,,,,,,,,,,,,54,,,,,,,,,,,,,,401.15800002383185,,response,,,,100,,,,,,,Space,keypress(Space),,,,,,,,-- --- ---- --- ------ ----- ------- ---- -- --- ------- by<br>------- ---------- ------ -- ----- -- ----- -- ---- ------<br>--- ----- --- --- ------ -------- ----- --- ------ ----- --<br>----- ----- ---------- --- --- ------ ------ ---- -- ------<br>------- --- ------ ----- --- ---- ------- -- ---- --- --<br>------- ------,220954.89999997616,220949.60000002384,220531.775,220533.10000002384,220548.442,220965.117,,11,by
screen,html.Screen,2_1_1_1_12,2022-02-02T18:00:53.017Z,,,,,,,,,,,,,,,,,54,,,,,,,,,,,,,,346.38300000000163,,response,,,,100,,,,,,,Space,keypress(Space),,,,,,,,-- --- ---- --- ------ ----- ------- ---- -- --- ------- --<br>issuing ---------- ------ -- ----- -- ----- -- ---- ------<br>--- ----- --- --- ------ -------- ----- --- ------ ----- --<br>----- ----- ---------- --- --- ------ ------ ---- -- ------<br>------- --- ------ ----- --- ---- ------- -- ---- --- --<br>------- ------,221316.89999997616,221311.5,220948.45,220955.20000004768,220965.117,221331.791,,12,issuing
screen,html.Screen,2_1_1_1_13,2022-02-02T18:00:53.319Z,,,,,,,,,,,,,,,,,54,,,,,,,,,,,,,,280.6089999761607,,response,,,,100,,,,,,,Space,keypress(Space),,,,,,,,-- --- ---- --- ------ ----- ------- ---- -- --- ------- --<br>------- government ------ -- ----- -- ----- -- ---- ------<br>--- ----- --- --- ------ -------- ----- --- ------ ----- --<br>----- ----- ---------- --- --- ------ ------ ---- -- ------<br>------- --- ------ ----- --- ---- ------- -- ---- --- --<br>------- ------,221618.70000004768,221612.39999997616,221315.124,221317.10000002384,221331.791,221631.797,,13,government
screen,html.Screen,2_1_1_1_14,2022-02-02T18:00:53.686Z,,,,,,,,,,,,,,,,,54,,,,,,,,,,,,,,347.90300004769233,,response,,,,100,,,,,,,Space,keypress(Space),,,,,,,,-- --- ---- --- ------ ----- ------- ---- -- --- ------- --<br>------- ---------- bonds. -- ----- -- ----- -- ---- ------<br>--- ----- --- --- ------ -------- ----- --- ------ ----- --<br>----- ----- ---------- --- --- ------ ------ ---- -- ------<br>------- --- ------ ----- --- ---- ------- -- ---- --- --<br>------- ------,221985.60000002384,221979.70000004768,221615.13,221619,221631.797,221998.471,,14,bonds.
screen,html.Screen,2_1_1_1_15,2022-02-02T18:00:54.187Z,,,,,,,,,,,,,,,,,54,,,,,,,,,,,,,,484.4289999761677,,response,,,,100,,,,,,,Space,keypress(Space),,,,,,,,-- --- ---- --- ------ ----- ------- ---- -- --- ------- --<br>------- ---------- ------ In ----- -- ----- -- ---- ------<br>--- ----- --- --- ------ -------- ----- --- ------ ----- --<br>----- ----- ---------- --- --- ------ ------ ---- -- ------<br>------- --- ------ ----- --- ---- ------- -- ---- --- --<br>------- ------,222486.60000002384,222482.89999997616,221981.804,221986,221998.471,222498.481,,15,In
screen,html.Screen,2_1_1_1_16,2022-02-02T18:00:54.647Z,,,,,,,,,,,,,,,,,54,,,,,,,,,,,,,,443.01900000000023,,response,,,,100,,,,,,,Space,keypress(Space),,,,,,,,"-- --- ---- --- ------ ----- ------- ---- -- --- ------- --<br>------- ---------- ------ -- 1727, -- ----- -- ---- ------<br>--- ----- --- --- ------ -------- ----- --- ------ ----- --<br>----- ----- ---------- --- --- ------ ------ ---- -- ------<br>------- --- ------ ----- --- ---- ------- -- ---- --- --<br>------- ------",222946.89999997616,222941.5,222481.814,222486.70000004768,222498.481,222948.49,,16,"1727,"
screen,html.Screen,2_1_1_1_17,2022-02-02T18:00:55.077Z,,,,,,,,,,,,,,,,,54,,,,,,,,,,,,,,423.11000002385117,,response,,,,100,,,,,,,Space,keypress(Space),,,,,,,,-- --- ---- --- ------ ----- ------- ---- -- --- ------- --<br>------- ---------- ------ -- ----- in ----- -- ---- ------<br>--- ----- --- --- ------ -------- ----- --- ------ ----- --<br>----- ----- ---------- --- --- ------ ------ ---- -- ------<br>------- --- ------ ----- --- ---- ------- -- ---- --- --<br>------- ------,223377,223371.60000002384,222931.823,222947.10000002384,222948.49,223381.832,,17,in
screen,html.Screen,2_1_1_1_18,2022-02-02T18:00:55.403Z,,,,,,,,,,,,,,,,,54,,,,,,,,,,,,,,315.768000023847,,response,,,,100,,,,,,,Space,keypress(Space),,,,,,,,-- --- ---- --- ------ ----- ------- ---- -- --- ------- --<br>------- ---------- ------ -- ----- -- order -- ---- ------<br>--- ----- --- --- ------ -------- ----- --- ------ ----- --<br>----- ----- ---------- --- --- ------ ------ ---- -- ------<br>------- --- ------ ----- --- ---- ------- -- ---- --- --<br>------- ------,223703.10000002384,223697.60000002384,223365.165,223377.10000002384,223381.832,223715.172,,18,order
screen,html.Screen,2_1_1_1_19,2022-02-02T18:00:55.724Z,,,,,,,,,,,,,,,,,54,,,,,,,,,,,,,,303.4280000238505,,response,,,,100,,,,,,,Space,keypress(Space),,,,,,,,-- --- ---- --- ------ ----- ------- ---- -- --- ------- --<br>------- ---------- ------ -- ----- -- ----- to ---- ------<br>--- ----- --- --- ------ -------- ----- --- ------ ----- --<br>----- ----- ---------- --- --- ------ ------ ---- -- ------<br>------- --- ------ ----- --- ---- ------- -- ---- --- --<br>------- ------,224024,224018.60000002384,223698.505,223703.30000007153,223715.172,224031.845,,19,to
screen,html.Screen,2_1_1_1_20,2022-02-02T18:00:56.021Z,,,,,,,,,,,,,,,,,54,,,,,,,,,,,,,,283.7550000238407,,response,,,,100,,,,,,,Space,keypress(Space),,,,,,,,-- --- ---- --- ------ ----- ------- ---- -- --- ------- --<br>------- ---------- ------ -- ----- -- ----- -- save ------<br>--- ----- --- --- ------ -------- ----- --- ------ ----- --<br>----- ----- ---------- --- --- ------ ------ ---- -- ------<br>------- --- ------ ----- --- ---- ------- -- ---- --- --<br>------- ------,224321.10000002384,224315.60000002384,224015.178,224024.30000007153,224031.845,224331.851,,20,save
screen,html.Screen,2_1_1_1_21,2022-02-02T18:00:56.360Z,,,,,,,,,,,,,,,,,54,,,,,,,,,,,,,,322.8490000476886,,response,,,,100,,,,,,,Space,keypress(Space),,,,,,,,"-- --- ---- --- ------ ----- ------- ---- -- --- ------- --<br>------- ---------- ------ -- ----- -- ----- -- ---- money,<br>--- ----- --- --- ------ -------- ----- --- ------ ----- --<br>----- ----- ---------- --- --- ------ ------ ---- -- ------<br>------- --- ------ ----- --- ---- ------- -- ---- --- --<br>------- ------",224659.80000007153,224654.70000004768,224315.184,224321.39999997616,224331.851,224665.191,,21,"money,"
screen,html.Screen,2_1_1_1_22,2022-02-02T18:00:56.797Z,,,,,,,,,,,,,,,,,54,,,,,,,,,,,,,,426.40900002385024,,response,,,,100,,,,,,,Space,keypress(Space),,,,,,,,-- --- ---- --- ------ ----- ------- ---- -- --- ------- --<br>------- ---------- ------ -- ----- -- ----- -- ---- ------<br>the ----- --- --- ------ -------- ----- --- ------ ----- --<br>----- ----- ---------- --- --- ------ ------ ---- -- ------<br>------- --- ------ ----- --- ---- ------- -- ---- --- --<br>------- ------,225097.10000002384,225091.60000002384,224648.524,224660.10000002384,224665.191,225098.533,,22,the
screen,html.Screen,2_1_1_1_23,2022-02-02T18:00:57.058Z,,,,,,,,,,,,,,,,,54,,,,,,,,,,,,,,254.06700002384605,,response,,,,100,,,,,,,Space,keypress(Space),,,,,,,,-- --- ---- --- ------ ----- ------- ---- -- --- ------- --<br>------- ---------- ------ -- ----- -- ----- -- ---- ------<br>--- state --- --- ------ -------- ----- --- ------ ----- --<br>----- ----- ---------- --- --- ------ ------ ---- -- ------<br>------- --- ------ ----- --- ---- ------- -- ---- --- --<br>------- ------,225357.70000004768,225352.60000002384,225081.866,225097.30000007153,225098.533,225365.205,,23,state
screen,html.Screen,2_1_1_1_24,2022-02-02T18:00:57.475Z,,,,,,,,,,,,,,,,,54,,,,,,,,,,,,,,404.4950000476965,,response,,,,100,,,,,,,Space,keypress(Space),,,,,,,,-- --- ---- --- ------ ----- ------- ---- -- --- ------- --<br>------- ---------- ------ -- ----- -- ----- -- ---- ------<br>--- ----- cut --- ------ -------- ----- --- ------ ----- --<br>----- ----- ---------- --- --- ------ ------ ---- -- ------<br>------- --- ------ ----- --- ---- ------- -- ---- --- --<br>------- ------,225775.10000002384,225769.70000004768,225348.538,225358,225365.205,225781.88,,24,cut
screen,html.Screen,2_1_1_1_25,2022-02-02T18:00:57.890Z,,,,,,,,,,,,,,,,,54,,,,,,,,,,,,,,402.5199999761535,,response,,,,100,,,,,,,Space,keypress(Space),,,,,,,,-- --- ---- --- ------ ----- ------- ---- -- --- ------- --<br>------- ---------- ------ -- ----- -- ----- -- ---- ------<br>--- ----- --- the ------ -------- ----- --- ------ ----- --<br>----- ----- ---------- --- --- ------ ------ ---- -- ------<br>------- --- ------ ----- --- ---- ------- -- ---- --- --<br>------- ------,226189.80000007153,226184.39999997616,225765.213,225775.39999997616,225781.88,226198.555,,25,the
screen,html.Screen,2_1_1_1_26,2022-02-02T18:00:58.160Z,,,,,,,,,,,,,,,,,54,,,,,,,,,,,,,,256.1450000476907,,response,,,,100,,,,,,,Space,keypress(Space),,,,,,,,-- --- ---- --- ------ ----- ------- ---- -- --- ------- --<br>------- ---------- ------ -- ----- -- ----- -- ---- ------<br>--- ----- --- --- bonds' -------- ----- --- ------ ----- --<br>----- ----- ---------- --- --- ------ ------ ---- -- ------<br>------- --- ------ ----- --- ---- ------- -- ---- --- --<br>------- ------,226460.10000002384,226454.70000004768,226181.888,226190,226198.555,226465.227,,26,bonds'
screen,html.Screen,2_1_1_1_27,2022-02-02T18:00:58.576Z,,,,,,,,,,,,,,,,,54,,,,,,,,,,,,,,405.4730000476702,,response,,,,100,,,,,,,Space,keypress(Space),,,,,,,,-- --- ---- --- ------ ----- ------- ---- -- --- ------- --<br>------- ---------- ------ -- ----- -- ----- -- ---- ------<br>--- ----- --- --- ------ interest ----- --- ------ ----- --<br>----- ----- ---------- --- --- ------ ------ ---- -- ------<br>------- --- ------ ----- --- ---- ------- -- ---- --- --<br>------- ------,226876,226870.70000004768,226448.56,226460.30000007153,226465.227,226881.902,,27,interest
screen,html.Screen,2_1_1_1_28,2022-02-02T18:00:58.925Z,,,,,,,,,,,,,,,,,54,,,,,,,,,,,,,,335.9979999761563,,response,,,,100,,,,,,,Space,keypress(Space),,,,,,,,-- --- ---- --- ------ ----- ------- ---- -- --- ------- --<br>------- ---------- ------ -- ----- -- ----- -- ---- ------<br>--- ----- --- --- ------ -------- rate. --- ------ ----- --<br>----- ----- ---------- --- --- ------ ------ ---- -- ------<br>------- --- ------ ----- --- ---- ------- -- ---- --- --<br>------- ------,227224.60000002384,227217.89999997616,226865.235,226876.20000004768,226881.902,227231.909,,28,rate.
screen,html.Screen,2_1_1_1_29,2022-02-02T18:00:59.311Z,,,,,,,,,,,,,,,,,54,,,,,,,,,,,,,,374.5909999999858,,response,,,,100,,,,,,,Space,keypress(Space),,,,,,,,-- --- ---- --- ------ ----- ------- ---- -- --- ------- --<br>------- ---------- ------ -- ----- -- ----- -- ---- ------<br>--- ----- --- --- ------ -------- ----- The ------ ----- --<br>----- ----- ---------- --- --- ------ ------ ---- -- ------<br>------- --- ------ ----- --- ---- ------- -- ---- --- --<br>------- ------,227610.5,227606.5,227215.242,227224.80000007153,227231.909,227615.25,,29,The
screen,html.Screen,2_1_1_1_30,2022-02-02T18:00:59.743Z,,,,,,,,,,,,,,,,,54,,,,,,,,,,,,,,422.35000002384186,,response,,,,100,,,,,,,Space,keypress(Space),,,,,,,,-- --- ---- --- ------ ----- ------- ---- -- --- ------- --<br>------- ---------- ------ -- ----- -- ----- -- ---- ------<br>--- ----- --- --- ------ -------- ----- --- market ----- --<br>----- ----- ---------- --- --- ------ ------ ---- -- ------<br>------- --- ------ ----- --- ---- ------- -- ---- --- --<br>------- ------,228043.10000002384,228037.60000002384,227598.583,227610.70000004768,227615.25,228048.724,,30,market
screen,html.Screen,2_1_1_1_31,2022-02-02T18:01:00.356Z,,,,,,,,,,,,,,,,,54,,,,,,,,,,,,,,601.8760000238544,,response,,,,100,,,,,,,Space,keypress(Space),,,,,,,,-- --- ---- --- ------ ----- ------- ---- -- --- ------- --<br>------- ---------- ------ -- ----- -- ----- -- ---- ------<br>--- ----- --- --- ------ -------- ----- --- ------ value --<br>----- ----- ---------- --- --- ------ ------ ---- -- ------<br>------- --- ------ ----- --- ---- ------- -- ---- --- --<br>------- ------,228655.70000004768,228650.60000002384,228032.057,228043.30000007153,228048.724,228665.403,,31,value
screen,html.Screen,2_1_1_1_32,2022-02-02T18:01:00.770Z,,,,,,,,,,,,,,,,,54,,,,,,,,,,,,,,399.3970000715344,,response,,,,100,,,,,,,Space,keypress(Space),,,,,,,,-- --- ---- --- ------ ----- ------- ---- -- --- ------- --<br>------- ---------- ------ -- ----- -- ----- -- ---- ------<br>--- ----- --- --- ------ -------- ----- --- ------ ----- of<br>----- ----- ---------- --- --- ------ ------ ---- -- ------<br>------- --- ------ ----- --- ---- ------- -- ---- --- --<br>------- ------,229070.20000004768,229064.80000007153,228648.736,228656,228665.403,229082.078,,32,of
screen,html.Screen,2_1_1_1_33,2022-02-02T18:01:01.203Z,,,,,,,,,,,,,,,,,54,,,,,,,,,,,,,,415.52200002383324,,response,,,,100,,,,,,,Space,keypress(Space),,,,,,,,-- --- ---- --- ------ ----- ------- ---- -- --- ------- --<br>------- ---------- ------ -- ----- -- ----- -- ---- ------<br>--- ----- --- --- ------ -------- ----- --- ------ ----- --<br>these ----- ---------- --- --- ------ ------ ---- -- ------<br>------- --- ------ ----- --- ---- ------- -- ---- --- --<br>------- ------,229502.89999997616,229497.60000002384,229065.411,229070.39999997616,229082.078,229515.42,,33,these
screen,html.Screen,2_1_1_1_34,2022-02-02T18:01:01.577Z,,,,,,,,,,,,,,,,,54,,,,,,,,,,,,,,355.38000007151277,,response,,,,100,,,,,,,Space,keypress(Space),,,,,,,,-- --- ---- --- ------ ----- ------- ---- -- --- ------- --<br>------- ---------- ------ -- ----- -- ----- -- ---- ------<br>--- ----- --- --- ------ -------- ----- --- ------ ----- --<br>----- bonds ---------- --- --- ------ ------ ---- -- ------<br>------- --- ------ ----- --- ---- ------- -- ---- --- --<br>------- ------,229877,229870.80000007153,229498.753,229503.20000004768,229515.42,229882.094,,34,bonds
screen,html.Screen,2_1_1_1_35,2022-02-02T18:01:01.844Z,,,,,,,,,,,,,,,,,54,,,,,,,,,,,,,,256.30599997614627,,response,,,,100,,,,,,,Space,keypress(Space),,,,,,,,"-- --- ---- --- ------ ----- ------- ---- -- --- ------- --<br>------- ---------- ------ -- ----- -- ----- -- ---- ------<br>--- ----- --- --- ------ -------- ----- --- ------ ----- --<br>----- ----- plummeted, --- --- ------ ------ ---- -- ------<br>------- --- ------ ----- --- ---- ------- -- ---- --- --<br>------- ------",230143.60000002384,230138.39999997616,229865.427,229877.10000002384,229882.094,230148.766,,35,"plummeted,"
screen,html.Screen,2_1_1_1_36,2022-02-02T18:01:02.313Z,,,,,,,,,,,,,,,,,54,,,,,,,,,,,,,,458.93400004768046,,response,,,,100,,,,,,,Space,keypress(Space),,,,,,,,-- --- ---- --- ------ ----- ------- ---- -- --- ------- --<br>------- ---------- ------ -- ----- -- ----- -- ---- ------<br>--- ----- --- --- ------ -------- ----- --- ------ ----- --<br>----- ----- ---------- and --- ------ ------ ---- -- ------<br>------- --- ------ ----- --- ---- ------- -- ---- --- --<br>------- ------,230613.10000002384,230607.70000004768,230132.099,230143.80000007153,230148.766,230615.442,,36,and
screen,html.Screen,2_1_1_1_37,2022-02-02T18:01:02.645Z,,,,,,,,,,,,,,,,,54,,,,,,,,,,,,,,324.2580000476737,,response,,,,100,,,,,,,Space,keypress(Space),,,,,,,,-- --- ---- --- ------ ----- ------- ---- -- --- ------- --<br>------- ---------- ------ -- ----- -- ----- -- ---- ------<br>--- ----- --- --- ------ -------- ----- --- ------ ----- --<br>----- ----- ---------- --- the ------ ------ ---- -- ------<br>------- --- ------ ----- --- ---- ------- -- ---- --- --<br>------- ------,230945,230939.70000004768,230598.775,230613.39999997616,230615.442,230948.782,,37,the
screen,html.Screen,2_1_1_1_38,2022-02-02T18:01:02.954Z,,,,,,,,,,,,,,,,,54,,,,,,,,,,,,,,300.01800007151905,,response,,,,100,,,,,,,Space,keypress(Space),,,,,,,,-- --- ---- --- ------ ----- ------- ---- -- --- ------- --<br>------- ---------- ------ -- ----- -- ----- -- ---- ------<br>--- ----- --- --- ------ -------- ----- --- ------ ----- --<br>----- ----- ---------- --- --- market ------ ---- -- ------<br>------- --- ------ ----- --- ---- ------- -- ---- --- --<br>------- ------,231253.80000007153,231248.80000007153,230932.115,230945.30000007153,230948.782,231265.455,,38,market
screen,html.Screen,2_1_1_1_39,2022-02-02T18:01:03.414Z,,,,,,,,,,,,,,,,,54,,,,,,,,,,,,,,443.14500002385466,,response,,,,100,,,,,,,Space,keypress(Space),,,,,,,,-- --- ---- --- ------ ----- ------- ---- -- --- ------- --<br>------- ---------- ------ -- ----- -- ----- -- ---- ------<br>--- ----- --- --- ------ -------- ----- --- ------ ----- --<br>----- ----- ---------- --- --- ------ became ---- -- ------<br>------- --- ------ ----- --- ---- ------- -- ---- --- --<br>------- ------,231713.60000002384,231708.60000002384,231248.788,231254.10000002384,231265.455,231715.464,,39,became
screen,html.Screen,2_1_1_1_40,2022-02-02T18:01:03.743Z,,,,,,,,,,,,,,,,,54,,,,,,,,,,,,,,322.2360000476765,,response,,,,100,,,,,,,Space,keypress(Space),,,,,,,,-- --- ---- --- ------ ----- ------- ---- -- --- ------- --<br>------- ---------- ------ -- ----- -- ----- -- ---- ------<br>--- ----- --- --- ------ -------- ----- --- ------ ----- --<br>----- ----- ---------- --- --- ------ ------ wary -- ------<br>------- --- ------ ----- --- ---- ------- -- ---- --- --<br>------- ------,232043,232037.70000004768,231698.797,231713.80000007153,231715.464,232048.804,,40,wary
screen,html.Screen,2_1_1_1_41,2022-02-02T18:01:04.129Z,,,,,,,,,,,,,,,,,54,,,,,,,,,,,,,,374.89600004768,,response,,,,100,,,,,,,Space,keypress(Space),,,,,,,,-- --- ---- --- ------ ----- ------- ---- -- --- ------- --<br>------- ---------- ------ -- ----- -- ----- -- ---- ------<br>--- ----- --- --- ------ -------- ----- --- ------ ----- --<br>----- ----- ---------- --- --- ------ ------ ---- of ------<br>------- --- ------ ----- --- ---- ------- -- ---- --- --<br>------- ------,232429.10000002384,232423.70000004768,232032.137,232043.20000004768,232048.804,232432.145,,41,of
screen,html.Screen,2_1_1_1_42,2022-02-02T18:01:04.552Z,,,,,,,,,,,,,,,,,54,,,,,,,,,,,,,,414.5550000476942,,response,,,,100,,,,,,,Space,keypress(Space),,,,,,,,-- --- ---- --- ------ ----- ------- ---- -- --- ------- --<br>------- ---------- ------ -- ----- -- ----- -- ---- ------<br>--- ----- --- --- ------ -------- ----- --- ------ ----- --<br>----- ----- ---------- --- --- ------ ------ ---- -- French<br>------- --- ------ ----- --- ---- ------- -- ---- --- --<br>------- ------,232852,232846.70000004768,232415.478,232429.30000007153,232432.145,232865.487,,42,French
screen,html.Screen,2_1_1_1_43,2022-02-02T18:01:05.699Z,,,,,,,,,,,,,,,,,54,,,,,,,,,,,,,,1128.3130000715319,,response,,,,100,,,,,,,Space,keypress(Space),,,,,,,,-- --- ---- --- ------ ----- ------- ---- -- --- ------- --<br>------- ---------- ------ -- ----- -- ----- -- ---- ------<br>--- ----- --- --- ------ -------- ----- --- ------ ----- --<br>----- ----- ---------- --- --- ------ ------ ---- -- ------<br>credit. --- ------ ----- --- ---- ------- -- ---- --- --<br>------- ------,233999,233993.80000007153,232848.82,232852.20000004768,232865.487,234015.51,,43,credit.
screen,html.Screen,2_1_1_1_44,2022-02-02T18:01:06.148Z,,,,,,,,,,,,,,,,,54,,,,,,,,,,,,,,427.29000007151626,,response,,,,100,,,,,,,Space,keypress(Space),,,,,,,,-- --- ---- --- ------ ----- ------- ---- -- --- ------- --<br>------- ---------- ------ -- ----- -- ----- -- ---- ------<br>--- ----- --- --- ------ -------- ----- --- ------ ----- --<br>----- ----- ---------- --- --- ------ ------ ---- -- ------<br>------- The ------ ----- --- ---- ------- -- ---- --- --<br>------- ------,234448.10000002384,234442.80000007153,233998.843,233999.20000004768,234015.51,234465.519,,44,The
screen,html.Screen,2_1_1_1_45,2022-02-02T18:01:06.525Z,,,,,,,,,,,,,,,,,54,,,,,,,,,,,,,,355.3809999761579,,response,,,,100,,,,,,,Space,keypress(Space),,,,,,,,-- --- ---- --- ------ ----- ------- ---- -- --- ------- --<br>------- ---------- ------ -- ----- -- ----- -- ---- ------<br>--- ----- --- --- ------ -------- ----- --- ------ ----- --<br>----- ----- ---------- --- --- ------ ------ ---- -- ------<br>------- --- French ----- --- ---- ------- -- ---- --- --<br>------- ------,234825.60000002384,234820.89999997616,234448.852,234448.30000007153,234465.519,234832.193,,45,French
screen,html.Screen,2_1_1_1_46,2022-02-02T18:01:06.864Z,,,,,,,,,,,,,,,,,54,,,,,,,,,,,,,,326.40700002384256,,response,,,,100,,,,,,,Space,keypress(Space),,,,,,,,-- --- ---- --- ------ ----- ------- ---- -- --- ------- --<br>------- ---------- ------ -- ----- -- ----- -- ---- ------<br>--- ----- --- --- ------ -------- ----- --- ------ ----- --<br>----- ----- ---------- --- --- ------ ------ ---- -- ------<br>------- --- ------ state --- ---- ------- -- ---- --- --<br>------- ------,235163.89999997616,235158.60000002384,234815.526,234825.70000004768,234832.193,235165.533,,46,state
screen,html.Screen,2_1_1_1_47,2022-02-02T18:01:07.208Z,,,,,,,,,,,,,,,,,54,,,,,,,,,,,,,,337.1670000476879,,response,,,,100,,,,,,,Space,keypress(Space),,,,,,,,-- --- ---- --- ------ ----- ------- ---- -- --- ------- --<br>------- ---------- ------ -- ----- -- ----- -- ---- ------<br>--- ----- --- --- ------ -------- ----- --- ------ ----- --<br>----- ----- ---------- --- --- ------ ------ ---- -- ------<br>------- --- ------ ----- was ---- ------- -- ---- --- --<br>------- ------,235507.89999997616,235502.70000004768,235148.866,235164.10000002384,235165.533,235515.54,,47,was
screen,html.Screen,2_1_1_1_48,2022-02-02T18:01:07.598Z,,,,,,,,,,,,,,,,,54,,,,,,,,,,,,,,377.16000004767557,,response,,,,100,,,,,,,Space,keypress(Space),,,,,,,,-- --- ---- --- ------ ----- ------- ---- -- --- ------- --<br>------- ---------- ------ -- ----- -- ----- -- ---- ------<br>--- ----- --- --- ------ -------- ----- --- ------ ----- --<br>----- ----- ---------- --- --- ------ ------ ---- -- ------<br>------- --- ------ ----- --- left ------- -- ---- --- --<br>------- ------,235897.80000007153,235892.70000004768,235498.873,235508.10000002384,235515.54,235898.881,,48,left
screen,html.Screen,2_1_1_1_49,2022-02-02T18:01:07.976Z,,,,,,,,,,,,,,,,,54,,,,,,,,,,,,,,371.81900004768977,,response,,,,100,,,,,,,Space,keypress(Space),,,,,,,,-- --- ---- --- ------ ----- ------- ---- -- --- ------- --<br>------- ---------- ------ -- ----- -- ----- -- ---- ------<br>--- ----- --- --- ------ -------- ----- --- ------ ----- --<br>----- ----- ---------- --- --- ------ ------ ---- -- ------<br>------- --- ------ ----- --- ---- without -- ---- --- --<br>------- ------,236276.10000002384,236270.70000004768,235882.214,235898.10000002384,235898.881,236282.222,,49,without
screen,html.Screen,2_1_1_1_50,2022-02-02T18:01:08.344Z,,,,,,,,,,,,,,,,,54,,,,,,,,,,,,,,357.47800004767487,,response,,,,100,,,,,,,Space,keypress(Space),,,,,,,,-- --- ---- --- ------ ----- ------- ---- -- --- ------- --<br>------- ---------- ------ -- ----- -- ----- -- ---- ------<br>--- ----- --- --- ------ -------- ----- --- ------ ----- --<br>----- ----- ---------- --- --- ------ ------ ---- -- ------<br>------- --- ------ ----- --- ---- ------- an ---- --- --<br>------- ------,236644.60000002384,236639.70000004768,236265.555,236276.39999997616,236282.222,236648.896,,50,an
screen,html.Screen,2_1_1_1_51,2022-02-02T18:01:08.711Z,,,,,,,,,,,,,,,,,54,,,,,,,,,,,,,,356.90400007151766,,response,,,,100,,,,,,,Space,keypress(Space),,,,,,,,-- --- ---- --- ------ ----- ------- ---- -- --- ------- --<br>------- ---------- ------ -- ----- -- ----- -- ---- ------<br>--- ----- --- --- ------ -------- ----- --- ------ ----- --<br>----- ----- ---------- --- --- ------ ------ ---- -- ------<br>------- --- ------ ----- --- ---- ------- -- easy --- --<br>------- ------,237011,237005.80000007153,236632.229,236644.80000007153,236648.896,237015.57,,51,easy
screen,html.Screen,2_1_1_1_52,2022-02-02T18:01:09.076Z,,,,,,,,,,,,,,,,,54,,,,,,,,,,,,,,353.13000004767673,,response,,,,100,,,,,,,Space,keypress(Space),,,,,,,,-- --- ---- --- ------ ----- ------- ---- -- --- ------- --<br>------- ---------- ------ -- ----- -- ----- -- ---- ------<br>--- ----- --- --- ------ -------- ----- --- ------ ----- --<br>----- ----- ---------- --- --- ------ ------ ---- -- ------<br>------- --- ------ ----- --- ---- ------- -- ---- way --<br>------- ------,237376.20000004768,237368.70000004768,236998.903,237011.20000004768,237015.57,237382.244,,52,way
screen,html.Screen,2_1_1_1_53,2022-02-02T18:01:09.513Z,,,,,,,,,,,,,,,,,54,,,,,,,,,,,,,,425.45600004767766,,response,,,,100,,,,,,,Space,keypress(Space),,,,,,,,-- --- ---- --- ------ ----- ------- ---- -- --- ------- --<br>------- ---------- ------ -- ----- -- ----- -- ---- ------<br>--- ----- --- --- ------ -------- ----- --- ------ ----- --<br>----- ----- ---------- --- --- ------ ------ ---- -- ------<br>------- --- ------ ----- --- ---- ------- -- ---- --- of<br>------- ------,237813,237807.70000004768,237365.577,237376.39999997616,237382.244,237815.586,,53,of
screen,html.Screen,2_1_1_1_54,2022-02-02T18:01:09.909Z,,,,,,,,,,,,,,,,,54,,,,,,,,,,,,,,388.3139999761479,,response,,,,100,,,,,,,Space,keypress(Space),,,,,,,,-- --- ---- --- ------ ----- ------- ---- -- --- ------- --<br>------- ---------- ------ -- ----- -- ----- -- ---- ------<br>--- ----- --- --- ------ -------- ----- --- ------ ----- --<br>----- ----- ---------- --- --- ------ ------ ---- -- ------<br>------- --- ------ ----- --- ---- ------- -- ---- --- --<br>raising ------,238209.39999997616,238203.89999997616,237798.919,237813.10000002384,237815.586,238215.724,,54,raising
screen,html.Screen,2_1_1_1_55,2022-02-02T18:01:11.505Z,,,,,,,,,,,,,,,,,54,,,,,,,,,,,,,,1584.0760000715381,,response,,,,100,,,,,,,Space,keypress(Space),,,,,,,,-- --- ---- --- ------ ----- ------- ---- -- --- ------- --<br>------- ---------- ------ -- ----- -- ----- -- ---- ------<br>--- ----- --- --- ------ -------- ----- --- ------ ----- --<br>----- ----- ---------- --- --- ------ ------ ---- -- ------<br>------- --- ------ ----- --- ---- ------- -- ---- --- --<br>------- money.,239805.60000002384,239799.80000007153,238199.057,238209.60000002384,238215.724,239815.756,,55,money.
Item 100,flow.Loop,2_1_1_1,2022-02-02T18:01:11.506Z,,,,,,,,,,,,,,,,,,,,,,,,,,,,,,,28434.826000071538,,completion,,,,,E,,,,,,,,,,,silence,,,,,239806,239799.80000007153,211348.307,211350.39999997616,211364.974,239815.756,,,
Question 1,html.Screen,2_1_1_2,2022-02-02T18:01:14.121Z,,,,,,,,,,,,,,,,,,,,,,,,,,,,true,TRUE,,2603.0440000715316,,response,,,,100,E,,,,,,TRUE,click #choice-1,,,,silence,,,,,242421.30000007153,242418.80000007153,239799.089,239806.20000004768,239815.756,242432.475,,,
Question 2,html.Screen,2_1_1_3,2022-02-02T18:01:17.107Z,,,,,,,,,,,,,,,,,,,,,,,,,,,,true,FALSE,,2972.8250000715198,,response,,,,100,E,,,,,,FALSE,click #choice-2,,,,silence,,,,,245407.30000007153,245405.30000007153,242415.808,242421.60000002384,242432.475,245415.868,,,
Item 100,flow.Sequence,2_1_1,2022-02-02T18:01:17.107Z,,,,,,,,,,,,,,,,,,,,,,,,,,,,,,,44040.772000071534,,completion,,,,,,,,,,,,,,,,,,,,,245407.60000002384,245405.30000007153,201347.861,201354.80000007153,201364.528,245415.868,,,
End of Practice,html.Page,2_1_2,2022-02-02T18:01:20.840Z,,,,,,,,,,,,,,,,,,,,,,,,,,,,,,,3723.6320000000123,,form submission,,,,,,,,,,,,,,,,,,,,,249140,249139.5,245399.201,245407.70000004768,245415.868,249149.635,,,
Practice,flow.Sequence,2_1,2022-02-02T18:01:20.840Z,,,,,,,,,,,,,,,,,,,,,,,,,,,,,,,94476.714,,completion,,,,,,,,,,,,,,,,,,,,,249140.20000004768,249139.5,154646.119,154665.20000004768,154662.786,249149.635,,,
Trap_instruction,html.Page,2_2_0,2022-02-02T18:01:25.374Z,,,,,,,,,,,,,,,,,,,,,,,,,,,,,,,4524.665000071516,,form submission,,,,,,,,,,,,,,,,,,,,,253674.70000004768,253674.30000007153,249132.968,249140.39999997616,249149.635,253683.059,,,
trap_trial,html.Screen,2_2_1,2022-02-02T18:01:28.919Z,,,,,,,,,,,,,,,,,,,,,,,,,,,,true,1,,3534.1410000476753,,response,,,,,,,,,,,1,click #choice-1,,,,,,,,,257219.70000004768,257217.20000004768,253666.392,253674.89999997616,253683.059,257233.13,,,
end of trap trial,html.Page,2_2_2,2022-02-02T18:01:30.721Z,,,,,,,,,,,,,,,,,,,,,,,,,,,,,,,1788.3699999999953,,form submission,,,,,,,,,,,,,,,,,,,,,259021.89999997616,259021.5,257216.463,257220,257233.13,259033.166,,,
Trap 1,flow.Sequence,2_2,2022-02-02T18:01:30.721Z,,,,,,,,,,,,,,,,,,,,,,,,,,,,,,,9871.86499999999,,completion,,,,,,,,,,,,,,,,,,,,,259022.20000004768,259021.5,249132.968,249140.30000007153,249149.635,259033.166,,,
Standby,html.Page,2_3_0,2022-02-02T18:01:38.718Z,,,,,,,,,,,,,,,,,,,,,,,,,,,,,,,8000.1600000000035,,timeout,,,,,,,,,,,,,,,,,,,,,267018.89999997616,267016.659,259016.499,259022.5,259033.166,267033.326,,,
Holding screen,html.Screen,2_3_1_0_0,2022-02-02T18:01:45.718Z,,,,,,,,,,,,,,,,,,,,,,,,,,,,,,,7000.253000000026,,timeout,,,,,,,,,,,,,,,,,,,,,274019.10000002384,274016.912,267016.659,267019.3000000715,267033.326,274033.579,,,
screen,html.Screen,2_3_1_0_1_0,2022-02-02T18:01:46.495Z,,,,,,,,,,,,,,,,,15,,,,,,,,,,,,,,755.8209999761311,,response,,,,7,E,,,,,,Space,keypress(Space),,,,lyrical,,,,Greg --------- ---------- - --- ------- -- --- ------------<br>----- -- -------- ------- ---- ------ - -------- ---- -----<br>--- ------- ---- -- --- -------- --- - ----- ------ ---- --<br>-------- --- -------- -------- --- -------- ---- -- ----- -<br>-------- ---- --- ---------- --------- -- ------- ------ -<br>--------- ----- -----,274796.10000002384,274789.39999997616,274016.912,274019.60000002384,274033.579,274800.261,,0,Greg
screen,html.Screen,2_3_1_0_1_1,2022-02-02T18:01:46.874Z,,,,,,,,,,,,,,,,,15,,,,,,,,,,,,,,369.13899997615954,,response,,,,7,E,,,,,,Space,keypress(Space),,,,lyrical,,,,"---- Anderson, ---------- - --- ------- -- --- ------------<br>----- -- -------- ------- ---- ------ - -------- ---- -----<br>--- ------- ---- -- --- -------- --- - ----- ------ ---- --<br>-------- --- -------- -------- --- -------- ---- -- ----- -<br>-------- ---- --- ---------- --------- -- ------- ------ -<br>--------- ----- -----",275175,275169.39999997616,274783.594,274796.39999997616,274800.261,275183.602,,1,"Anderson,"
screen,html.Screen,2_3_1_0_1_2,2022-02-02T18:01:47.265Z,,,,,,,,,,,,,,,,,15,,,,,,,,,,,,,,377.69800007151207,,response,,,,7,E,,,,,,Space,keypress(Space),,,,lyrical,,,,---- --------- considered - --- ------- -- --- ------------<br>----- -- -------- ------- ---- ------ - -------- ---- -----<br>--- ------- ---- -- --- -------- --- - ----- ------ ---- --<br>-------- --- -------- -------- --- -------- ---- -- ----- -<br>-------- ---- --- ---------- --------- -- ------- ------ -<br>--------- ----- -----,275566.5,275561.3000000715,275166.935,275175.3000000715,275183.602,275583.61,,2,considered
screen,html.Screen,2_3_1_0_1_3,2022-02-02T18:01:47.625Z,,,,,,,,,,,,,,,,,15,,,,,,,,,,,,,,336.5900000476977,,response,,,,7,E,,,,,,Space,keypress(Space),,,,lyrical,,,,---- --------- ---------- a --- ------- -- --- ------------<br>----- -- -------- ------- ---- ------ - -------- ---- -----<br>--- ------- ---- -- --- -------- --- - ----- ------ ---- --<br>-------- --- -------- -------- --- -------- ---- -- ----- -<br>-------- ---- --- ---------- --------- -- ------- ------ -<br>--------- ----- -----,275925.8000000715,275920.2000000477,275566.943,275566.7000000477,275583.61,275933.617,,3,a
screen,html.Screen,2_3_1_0_1_4,2022-02-02T18:01:47.963Z,,,,,,,,,,,,,,,,,15,,,,,,,,,,,,,,324.58300004765624,,response,,,,7,E,,,,,,Space,keypress(Space),,,,lyrical,,,,---- --------- ---------- - key ------- -- --- ------------<br>----- -- -------- ------- ---- ------ - -------- ---- -----<br>--- ------- ---- -- --- -------- --- - ----- ------ ---- --<br>-------- --- -------- -------- --- -------- ---- -- ----- -<br>-------- ---- --- ---------- --------- -- ------- ------ -<br>--------- ----- -----,276263.89999997616,276258.2000000477,275916.95,275926.10000002384,275933.617,276266.957,,4,key
screen,html.Screen,2_3_1_0_1_5,2022-02-02T18:01:48.306Z,,,,,,,,,,,,,,,,,15,,,,,,,,,,,,,,334.3430000715307,,response,,,,7,E,,,,,,Space,keypress(Space),,,,lyrical,,,,---- --------- ---------- - --- witness -- --- ------------<br>----- -- -------- ------- ---- ------ - -------- ---- -----<br>--- ------- ---- -- --- -------- --- - ----- ------ ---- --<br>-------- --- -------- -------- --- -------- ---- -- ----- -<br>-------- ---- --- ---------- --------- -- ------- ------ -<br>--------- ----- -----,276607,276601.3000000715,276250.29,276264.10000002384,276266.957,276616.964,,5,witness
screen,html.Screen,2_3_1_0_1_6,2022-02-02T18:01:48.809Z,,,,,,,,,,,,,,,,,15,,,,,,,,,,,,,,487.63600002386374,,response,,,,7,E,,,,,,Space,keypress(Space),,,,lyrical,,,,---- --------- ---------- - --- ------- by --- ------------<br>----- -- -------- ------- ---- ------ - -------- ---- -----<br>--- ------- ---- -- --- -------- --- - ----- ------ ---- --<br>-------- --- -------- -------- --- -------- ---- -- ----- -<br>-------- ---- --- ---------- --------- -- ------- ------ -<br>--------- ----- -----,277110,277104.60000002384,276600.297,276607.10000002384,276616.964,277116.974,,6,by
screen,html.Screen,2_3_1_0_1_7,2022-02-02T18:01:49.147Z,,,,,,,,,,,,,,,,,15,,,,,,,,,,,,,,326.32600007153815,,response,,,,7,E,,,,,,Space,keypress(Space),,,,lyrical,,,,---- --------- ---------- - --- ------- -- the ------------<br>----- -- -------- ------- ---- ------ - -------- ---- -----<br>--- ------- ---- -- --- -------- --- - ----- ------ ---- --<br>-------- --- -------- -------- --- -------- ---- -- ----- -<br>-------- ---- --- ---------- --------- -- ------- ------ -<br>--------- ----- -----,277448.60000002384,277443.3000000715,277100.307,277110.39999997616,277116.974,277450.314,,7,the
screen,html.Screen,2_3_1_0_1_8,2022-02-02T18:01:49.509Z,,,,,,,,,,,,,,,,,15,,,,,,,,,,,,,,354.8860000476707,,response,,,,7,E,,,,,,Space,keypress(Space),,,,lyrical,,,,"---- --------- ---------- - --- ------- -- --- prosecution,<br>----- -- -------- ------- ---- ------ - -------- ---- -----<br>--- ------- ---- -- --- -------- --- - ----- ------ ---- --<br>-------- --- -------- -------- --- -------- ---- -- ----- -<br>-------- ---- --- ---------- --------- -- ------- ------ -<br>--------- ----- -----",277810.60000002384,277805.2000000477,277433.647,277448.8000000715,277450.314,277816.988,,8,"prosecution,"
screen,html.Screen,2_3_1_0_1_9,2022-02-02T18:01:50.063Z,,,,,,,,,,,,,,,,,15,,,,,,,,,,,,,,541.3120000715135,,response,,,,7,E,,,,,,Space,keypress(Space),,,,lyrical,,,,---- --------- ---------- - --- ------- -- --- ------------<br>vowed -- -------- ------- ---- ------ - -------- ---- -----<br>--- ------- ---- -- --- -------- --- - ----- ------ ---- --<br>-------- --- -------- -------- --- -------- ---- -- ----- -<br>-------- ---- --- ---------- --------- -- ------- ------ -<br>--------- ----- -----,278363.8000000715,278358.3000000715,277800.321,277810.7000000477,277816.988,278366.999,,9,vowed
screen,html.Screen,2_3_1_0_1_10,2022-02-02T18:01:50.429Z,,,,,,,,,,,,,,,,,15,,,,,,,,,,,,,,358.40099997614743,,response,,,,7,E,,,,,,Space,keypress(Space),,,,lyrical,,,,---- --------- ---------- - --- ------- -- --- ------------<br>----- he -------- ------- ---- ------ - -------- ---- -----<br>--- ------- ---- -- --- -------- --- - ----- ------ ---- --<br>-------- --- -------- -------- --- -------- ---- -- ----- -<br>-------- ---- --- ---------- --------- -- ------- ------ -<br>--------- ----- -----,278730.7000000477,278725.39999997616,278350.332,278364.10000002384,278366.999,278733.673,,10,he
screen,html.Screen,2_3_1_0_1_11,2022-02-02T18:01:50.785Z,,,,,,,,,,,,,,,,,15,,,,,,,,,,,,,,346.72699997614836,,response,,,,7,E,,,,,,Space,keypress(Space),,,,lyrical,,,,---- --------- ---------- - --- ------- -- --- ------------<br>----- -- wouldn't ------- ---- ------ - -------- ---- -----<br>--- ------- ---- -- --- -------- --- - ----- ------ ---- --<br>-------- --- -------- -------- --- -------- ---- -- ----- -<br>-------- ---- --- ---------- --------- -- ------- ------ -<br>--------- ----- -----,279085.7000000477,279080.39999997616,278717.006,278730.8000000715,278733.673,279100.347,,11,wouldn't
screen,html.Screen,2_3_1_0_1_12,2022-02-02T18:01:51.053Z,,,,,,,,,,,,,,,,,15,,,,,,,,,,,,,,247.753000023833,,response,,,,7,E,,,,,,Space,keypress(Space),,,,lyrical,,,,---- --------- ---------- - --- ------- -- --- ------------<br>----- -- -------- testify ---- ------ - -------- ---- -----<br>--- ------- ---- -- --- -------- --- - ----- ------ ---- --<br>-------- --- -------- -------- --- -------- ---- -- ----- -<br>-------- ---- --- ---------- --------- -- ------- ------ -<br>--------- ----- -----,279353.8000000715,279348.10000002384,279083.68,279086.10000002384,279100.347,279367.019,,12,testify
screen,html.Screen,2_3_1_0_1_13,2022-02-02T18:01:51.464Z,,,,,,,,,,,,,,,,,15,,,,,,,,,,,,,,393.28100007155444,,response,,,,7,E,,,,,,Space,keypress(Space),,,,lyrical,,,,---- --------- ---------- - --- ------- -- --- ------------<br>----- -- -------- ------- when ------ - -------- ---- -----<br>--- ------- ---- -- --- -------- --- - ----- ------ ---- --<br>-------- --- -------- -------- --- -------- ---- -- ----- -<br>-------- ---- --- ---------- --------- -- ------- ------ -<br>--------- ----- -----,279765.7000000477,279760.3000000715,279350.352,279354.10000002384,279367.019,279767.027,,13,when
screen,html.Screen,2_3_1_0_1_14,2022-02-02T18:01:51.828Z,,,,,,,,,,,,,,,,,15,,,,,,,,,,,,,,357.07300002384,,response,,,,7,E,,,,,,Space,keypress(Space),,,,lyrical,,,,---- --------- ---------- - --- ------- -- --- ------------<br>----- -- -------- ------- ---- served - -------- ---- -----<br>--- ------- ---- -- --- -------- --- - ----- ------ ---- --<br>-------- --- -------- -------- --- -------- ---- -- ----- -<br>-------- ---- --- ---------- --------- -- ------- ------ -<br>--------- ----- -----,280129.3000000715,280124.10000002384,279750.36,279766,279767.027,280133.701,,14,served
screen,html.Screen,2_3_1_0_1_15,2022-02-02T18:01:52.226Z,,,,,,,,,,,,,,,,,15,,,,,,,,,,,,,,388.4990000476828,,response,,,,7,E,,,,,,Space,keypress(Space),,,,lyrical,,,,---- --------- ---------- - --- ------- -- --- ------------<br>----- -- -------- ------- ---- ------ a -------- ---- -----<br>--- ------- ---- -- --- -------- --- - ----- ------ ---- --<br>-------- --- -------- -------- --- -------- ---- -- ----- -<br>-------- ---- --- ---------- --------- -- ------- ------ -<br>--------- ----- -----,280527.8000000715,280522.2000000477,280117.034,280129.7000000477,280133.701,280533.709,,15,a
screen,html.Screen,2_3_1_0_1_16,2022-02-02T18:01:53.063Z,,,,,,,,,,,,,,,,,15,,,,,,,,,,,,,,825.4910000477103,,response,,,,7,E,,,,,,Space,keypress(Space),,,,lyrical,,,,---- --------- ---------- - --- ------- -- --- ------------<br>----- -- -------- ------- ---- ------ - subpoena ---- -----<br>--- ------- ---- -- --- -------- --- - ----- ------ ---- --<br>-------- --- -------- -------- --- -------- ---- -- ----- -<br>-------- ---- --- ---------- --------- -- ------- ------ -<br>--------- ----- -----,281364.8000000715,281359.2000000477,280517.042,280528.10000002384,280533.709,281367.357,,16,subpoena
screen,html.Screen,2_3_1_0_1_17,2022-02-02T18:01:53.538Z,,,,,,,,,,,,,,,,,15,,,,,,,,,,,,,,466.14299999998184,,response,,,,7,E,,,,,,Space,keypress(Space),,,,lyrical,,,,---- --------- ---------- - --- ------- -- --- ------------<br>----- -- -------- ------- ---- ------ - -------- last -----<br>--- ------- ---- -- --- -------- --- - ----- ------ ---- --<br>-------- --- -------- -------- --- -------- ---- -- ----- -<br>-------- ---- --- ---------- --------- -- ------- ------ -<br>--------- ----- -----,281839.10000002384,281833.5,281350.69,281365.10000002384,281367.357,281850.7,,17,last
screen,html.Screen,2_3_1_0_1_18,2022-02-02T18:01:54.257Z,,,,,,,,,,,,,,,,,15,,,,,,,,,,,,,,701.6000000715139,,response,,,,7,E,,,,,,Space,keypress(Space),,,,lyrical,,,,---- --------- ---------- - --- ------- -- --- ------------<br>----- -- -------- ------- ---- ------ - -------- ---- week.<br>--- ------- ---- -- --- -------- --- - ----- ------ ---- --<br>-------- --- -------- -------- --- -------- ---- -- ----- -<br>-------- ---- --- ---------- --------- -- ------- ------ -<br>--------- ----- -----,282557.8000000715,282552.3000000715,281834.033,281839.3000000715,281850.7,282567.381,,18,week.
screen,html.Screen,2_3_1_0_1_19,2022-02-02T18:01:54.647Z,,,,,,,,,,,,,,,,,15,,,,,,,,,,,,,,375.11900000000605,,response,,,,7,E,,,,,,Space,keypress(Space),,,,lyrical,,,,---- --------- ---------- - --- ------- -- --- ------------<br>----- -- -------- ------- ---- ------ - -------- ---- -----<br>His ------- ---- -- --- -------- --- - ----- ------ ---- --<br>-------- --- -------- -------- --- -------- ---- -- ----- -<br>-------- ---- --- ---------- --------- -- ------- ------ -<br>--------- ----- -----,282948.10000002384,282942.5,282550.714,282558.10000002384,282567.381,282950.722,,19,His
screen,html.Screen,2_3_1_0_1_20,2022-02-02T18:01:55.002Z,,,,,,,,,,,,,,,,,15,,,,,,,,,,,,,,345.5780000715167,,response,,,,7,E,,,,,,Space,keypress(Space),,,,lyrical,,,,---- --------- ---------- - --- ------- -- --- ------------<br>----- -- -------- ------- ---- ------ - -------- ---- -----<br>--- lawyers ---- -- --- -------- --- - ----- ------ ---- --<br>-------- --- -------- -------- --- -------- ---- -- ----- -<br>-------- ---- --- ---------- --------- -- ------- ------ -<br>--------- ----- -----,283303.3000000715,283296.3000000715,282934.055,282948.39999997616,282950.722,283317.396,,20,lawyers
screen,html.Screen,2_3_1_0_1_21,2022-02-02T18:01:55.308Z,,,,,,,,,,,,,,,,,15,,,,,,,,,,,,,,287.0039999761502,,response,,,,7,E,,,,,,Space,keypress(Space),,,,lyrical,,,,---- --------- ---------- - --- ------- -- --- ------------<br>----- -- -------- ------- ---- ------ - -------- ---- -----<br>--- ------- said -- --- -------- --- - ----- ------ ---- --<br>-------- --- -------- -------- --- -------- ---- -- ----- -<br>-------- ---- --- ---------- --------- -- ------- ------ -<br>--------- ----- -----,283609.89999997616,283604.39999997616,283300.729,283303.3000000715,283317.396,283617.402,,21,said
screen,html.Screen,2_3_1_0_1_22,2022-02-02T18:01:55.716Z,,,,,,,,,,,,,,,,,15,,,,,,,,,,,,,,394.79800004768185,,response,,,,7,E,,,,,,Space,keypress(Space),,,,lyrical,,,,---- --------- ---------- - --- ------- -- --- ------------<br>----- -- -------- ------- ---- ------ - -------- ---- -----<br>--- ------- ---- he --- -------- --- - ----- ------ ---- --<br>-------- --- -------- -------- --- -------- ---- -- ----- -<br>-------- ---- --- ---------- --------- -- ------- ------ -<br>--------- ----- -----,284017.60000002384,284012.2000000477,283600.735,283610,283617.402,284034.077,,22,he
screen,html.Screen,2_3_1_0_1_23,2022-02-02T18:01:56.069Z,,,,,,,,,,,,,,,,,15,,,,,,,,,,,,,,330.3229999761679,,response,,,,7,E,,,,,,Space,keypress(Space),,,,lyrical,,,,---- --------- ---------- - --- ------- -- --- ------------<br>----- -- -------- ------- ---- ------ - -------- ---- -----<br>--- ------- ---- -- was -------- --- - ----- ------ ---- --<br>-------- --- -------- -------- --- -------- ---- -- ----- -<br>-------- ---- --- ---------- --------- -- ------- ------ -<br>--------- ----- -----,284370,284364.39999997616,284017.41,284017.8000000715,284034.077,284384.084,,23,was
screen,html.Screen,2_3_1_0_1_24,2022-02-02T18:01:56.757Z,,,,,,,,,,,,,,,,,15,,,,,,,,,,,,,,667.3159999761847,,response,,,,7,E,,,,,,Space,keypress(Space),,,,lyrical,,,,---- --------- ---------- - --- ------- -- --- ------------<br>----- -- -------- ------- ---- ------ - -------- ---- -----<br>--- ------- ---- -- --- prepared --- - ----- ------ ---- --<br>-------- --- -------- -------- --- -------- ---- -- ----- -<br>-------- ---- --- ---------- --------- -- ------- ------ -<br>--------- ----- -----,285058.10000002384,285051.39999997616,284367.417,284370.2000000477,284384.084,285067.431,,24,prepared
screen,html.Screen,2_3_1_0_1_25,2022-02-02T18:01:57.573Z,,,,,,,,,,,,,,,,,15,,,,,,,,,,,,,,801.0690000000177,,response,,,,7,E,,,,,,Space,keypress(Space),,,,lyrical,,,,---- --------- ---------- - --- ------- -- --- ------------<br>----- -- -------- ------- ---- ------ - -------- ---- -----<br>--- ------- ---- -- --- -------- for - ----- ------ ---- --<br>-------- --- -------- -------- --- -------- ---- -- ----- -<br>-------- ---- --- ---------- --------- -- ------- ------ -<br>--------- ----- -----,285874,285868.5,285050.764,285058.2000000477,285067.431,285884.114,,25,for
screen,html.Screen,2_3_1_0_1_26,2022-02-02T18:01:58.080Z,,,,,,,,,,,,,,,,,15,,,,,,,,,,,,,,494.48600002384046,,response,,,,7,E,,,,,,Space,keypress(Space),,,,lyrical,,,,---- --------- ---------- - --- ------- -- --- ------------<br>----- -- -------- ------- ---- ------ - -------- ---- -----<br>--- ------- ---- -- --- -------- --- a ----- ------ ---- --<br>-------- --- -------- -------- --- -------- ---- -- ----- -<br>-------- ---- --- ---------- --------- -- ------- ------ -<br>--------- ----- -----,286381,286378.60000002384,285867.447,285874.2000000477,285884.114,286384.124,,26,a
screen,html.Screen,2_3_1_0_1_27,2022-02-02T18:01:58.551Z,,,,,,,,,,,,,,,,,15,,,,,,,,,,,,,,463.27599997614743,,response,,,,7,E,,,,,,Space,keypress(Space),,,,lyrical,,,,---- --------- ---------- - --- ------- -- --- ------------<br>----- -- -------- ------- ---- ------ - -------- ---- -----<br>--- ------- ---- -- --- -------- --- - third ------ ---- --<br>-------- --- -------- -------- --- -------- ---- -- ----- -<br>-------- ---- --- ---------- --------- -- ------- ------ -<br>--------- ----- -----,286852.7000000477,286847.39999997616,286367.457,286381.10000002384,286384.124,286867.467,,27,third
screen,html.Screen,2_3_1_0_1_28,2022-02-02T18:01:58.940Z,,,,,,,,,,,,,,,,,15,,,,,,,,,,,,,,368.8330000715214,,response,,,,7,E,,,,,,Space,keypress(Space),,,,lyrical,,,,---- --------- ---------- - --- ------- -- --- ------------<br>----- -- -------- ------- ---- ------ - -------- ---- -----<br>--- ------- ---- -- --- -------- --- - ----- prison ---- --<br>-------- --- -------- -------- --- -------- ---- -- ----- -<br>-------- ---- --- ---------- --------- -- ------- ------ -<br>--------- ----- -----,287241.8000000715,287236.3000000715,286850.8,286852.8000000715,286867.467,287250.808,,28,prison
screen,html.Screen,2_3_1_0_1_29,2022-02-02T18:01:59.346Z,,,,,,,,,,,,,,,,,15,,,,,,,,,,,,,,391.3920000476646,,response,,,,7,E,,,,,,Space,keypress(Space),,,,lyrical,,,,---- --------- ---------- - --- ------- -- --- ------------<br>----- -- -------- ------- ---- ------ - -------- ---- -----<br>--- ------- ---- -- --- -------- --- - ----- ------ stay --<br>-------- --- -------- -------- --- -------- ---- -- ----- -<br>-------- ---- --- ---------- --------- -- ------- ------ -<br>--------- ----- -----,287647.2000000477,287642.2000000477,287234.141,287242.10000002384,287250.808,287650.816,,29,stay
screen,html.Screen,2_3_1_0_1_30,2022-02-02T18:01:59.762Z,,,,,,,,,,,,,,,,,15,,,,,,,,,,,,,,407.6840000000084,,response,,,,7,E,,,,,,Space,keypress(Space),,,,lyrical,,,,---- --------- ---------- - --- ------- -- --- ------------<br>----- -- -------- ------- ---- ------ - -------- ---- -----<br>--- ------- ---- -- --- -------- --- - ----- ------ ---- to<br>-------- --- -------- -------- --- -------- ---- -- ----- -<br>-------- ---- --- ---------- --------- -- ------- ------ -<br>--------- ----- -----,288063.7000000477,288058.5,287634.149,287647.5,287650.816,288067.491,,30,to
screen,html.Screen,2_3_1_0_1_31,2022-02-02T18:02:00.222Z,,,,,,,,,,,,,,,,,15,,,,,,,,,,,,,,450.90899997617817,,response,,,,7,E,,,,,,Space,keypress(Space),,,,lyrical,,,,---- --------- ---------- - --- ------- -- --- ------------<br>----- -- -------- ------- ---- ------ - -------- ---- -----<br>--- ------- ---- -- --- -------- --- - ----- ------ ---- --<br>maintain --- -------- -------- --- -------- ---- -- ----- -<br>-------- ---- --- ---------- --------- -- ------- ------ -<br>--------- ----- -----,288523.89999997616,288518.39999997616,288050.824,288064,288067.491,288534.167,,31,maintain
screen,html.Screen,2_3_1_0_1_32,2022-02-02T18:02:00.773Z,,,,,,,,,,,,,,,,,15,,,,,,,,,,,,,,535.0330000476679,,response,,,,7,E,,,,,,Space,keypress(Space),,,,lyrical,,,,---- --------- ---------- - --- ------- -- --- ------------<br>----- -- -------- ------- ---- ------ - -------- ---- -----<br>--- ------- ---- -- --- -------- --- - ----- ------ ---- --<br>-------- his -------- -------- --- -------- ---- -- ----- -<br>-------- ---- --- ---------- --------- -- ------- ------ -<br>--------- ----- -----,289075,289069.2000000477,288517.5,288524,288534.167,289084.178,,32,his
screen,html.Screen,2_3_1_0_1_33,2022-02-02T18:02:02.355Z,,,,,,,,,,,,,,,,,15,,,,,,,,,,,,,,1567.3219999999856,,response,,,,7,E,,,,,,Space,keypress(Space),,,,lyrical,,,,---- --------- ---------- - --- ------- -- --- ------------<br>----- -- -------- ------- ---- ------ - -------- ---- -----<br>--- ------- ---- -- --- -------- --- - ----- ------ ---- --<br>-------- --- silence. -------- --- -------- ---- -- ----- -<br>-------- ---- --- ---------- --------- -- ------- ------ -<br>--------- ----- -----,290656.89999997616,290651.5,289067.511,289075.3000000715,289084.178,290667.543,,33,silence.
screen,html.Screen,2_3_1_0_1_34,2022-02-02T18:02:03.410Z,,,,,,,,,,,,,,,,,15,,,,,,,,,,,,,,1038.856999976153,,response,,,,7,E,,,,,,Space,keypress(Space),,,,lyrical,,,,---- --------- ---------- - --- ------- -- --- ------------<br>----- -- -------- ------- ---- ------ - -------- ---- -----<br>--- ------- ---- -- --- -------- --- - ----- ------ ---- --<br>-------- --- -------- Anderson --- -------- ---- -- ----- -<br>-------- ---- --- ---------- --------- -- ------- ------ -<br>--------- ----- -----,291711.60000002384,291706.39999997616,290650.876,290657.2000000477,290667.543,291717.564,,34,Anderson
screen,html.Screen,2_3_1_0_1_35,2022-02-02T18:02:03.838Z,,,,,,,,,,,,,,,,,15,,,,,,,,,,,,,,417.0360000238288,,response,,,,7,E,,,,,,Space,keypress(Space),,,,lyrical,,,,---- --------- ---------- - --- ------- -- --- ------------<br>----- -- -------- ------- ---- ------ - -------- ---- -----<br>--- ------- ---- -- --- -------- --- - ----- ------ ---- --<br>-------- --- -------- -------- was -------- ---- -- ----- -<br>-------- ---- --- ---------- --------- -- ------- ------ -<br>--------- ----- -----,292140,292134.60000002384,291700.897,291711.89999997616,291717.564,292151.154,,35,was
screen,html.Screen,2_3_1_0_1_36,2022-02-02T18:02:04.234Z,,,,,,,,,,,,,,,,,15,,,,,,,,,,,,,,379.34600000001956,,response,,,,7,E,,,,,,Space,keypress(Space),,,,lyrical,,,,---- --------- ---------- - --- ------- -- --- ------------<br>----- -- -------- ------- ---- ------ - -------- ---- -----<br>--- ------- ---- -- --- -------- --- - ----- ------ ---- --<br>-------- --- -------- -------- --- released ---- -- ----- -<br>-------- ---- --- ---------- --------- -- ------- ------ -<br>--------- ----- -----,292535.7000000477,292530.5,292134.487,292140.2000000477,292151.154,292551.162,,36,released
screen,html.Screen,2_3_1_0_1_37,2022-02-02T18:02:04.586Z,,,,,,,,,,,,,,,,,15,,,,,,,,,,,,,,331.3379999999888,,response,,,,7,E,,,,,,Space,keypress(Space),,,,lyrical,,,,---- --------- ---------- - --- ------- -- --- ------------<br>----- -- -------- ------- ---- ------ - -------- ---- -----<br>--- ------- ---- -- --- -------- --- - ----- ------ ---- --<br>-------- --- -------- -------- --- -------- July -- ----- -<br>-------- ---- --- ---------- --------- -- ------- ------ -<br>--------- ----- -----,292887.8000000715,292882.5,292534.495,292536,292551.162,292901.169,,37,July
screen,html.Screen,2_3_1_0_1_38,2022-02-02T18:02:05.004Z,,,,,,,,,,,,,,,,,15,,,,,,,,,,,,,,398.5310000476893,,response,,,,7,E,,,,,,Space,keypress(Space),,,,lyrical,,,,---- --------- ---------- - --- ------- -- --- ------------<br>----- -- -------- ------- ---- ------ - -------- ---- -----<br>--- ------- ---- -- --- -------- --- - ----- ------ ---- --<br>-------- --- -------- -------- --- -------- ---- 20 ----- -<br>-------- ---- --- ---------- --------- -- ------- ------ -<br>--------- ----- -----,293305.3000000715,293299.7000000477,292884.502,292888.10000002384,292901.169,293317.844,,38,20
screen,html.Screen,2_3_1_0_1_39,2022-02-02T18:02:05.352Z,,,,,,,,,,,,,,,,,15,,,,,,,,,,,,,,330.85600004770095,,response,,,,7,E,,,,,,Space,keypress(Space),,,,lyrical,,,,---- --------- ---------- - --- ------- -- --- ------------<br>----- -- -------- ------- ---- ------ - -------- ---- -----<br>--- ------- ---- -- --- -------- --- - ----- ------ ---- --<br>-------- --- -------- -------- --- -------- ---- -- after -<br>-------- ---- --- ---------- --------- -- ------- ------ -<br>--------- ----- -----,293653.89999997616,293648.7000000477,293301.177,293305.60000002384,293317.844,293667.851,,39,after
screen,html.Screen,2_3_1_0_1_40,2022-02-02T18:02:05.792Z,,,,,,,,,,,,,,,,,15,,,,,,,,,,,,,,420.6489999999758,,response,,,,7,E,,,,,,Space,keypress(Space),,,,lyrical,,,,---- --------- ---------- - --- ------- -- --- ------------<br>----- -- -------- ------- ---- ------ - -------- ---- -----<br>--- ------- ---- -- --- -------- --- - ----- ------ ---- --<br>-------- --- -------- -------- --- -------- ---- -- ----- a<br>-------- ---- --- ---------- --------- -- ------- ------ -<br>--------- ----- -----,294093.8000000715,294088.5,293651.184,293654.3000000715,293667.851,294101.193,,40,a
