sender,sender_type,sender_id,timestamp,meta,,Blues,Classical,Country,Dance,Electronic,Folk,Gospel,Hip-Hop,Jazz,Latin,Musical/Film,New-age,Pop,Prolific_id,Provo_ID,R&B,Rap,Reggae,Religious,Rock,Soul,Swing,Traditional,age,artist_name,correct,correctResponse,distraction,duration,education,ended_on,familiarity,gender,headphone_check_performance,item,list,music_frequency,offensiveness,pleasantness,position_correct,preference,response,response_action,snippet_file,song_name,song_rating,sound,stimulus_1,stimulus_2,stimulus_3,text,time_commit,time_end,time_render,time_run,time_show,time_switch,url,word,word_ID
Prolific ID,html.Form,0,2022-02-01T12:29:55.773Z,"{""labjs_version"":""20.2.2"",""labjs_build"":{""flavor"":""production"",""commit"":""a25486e0c714a0ae2ce03ff94b7bb6896854dcfa""},""location"":""https://run.pavlovia.org/mvasilev/prolific2_music_b/"",""userAgent"":""Mozilla/5.0 (Macintosh; Intel Mac OS X 10_15_7) AppleWebKit/537.36 (KHTML, like Gecko) Chrome/97.0.4692.99 Safari/537.36"",""platform"":""MacIntel"",""language"":""en-US"",""locale"":""en-GB"",""timeZone"":""Europe/London"",""timezoneOffset"":0,""screen_width"":1440,""screen_height"":900,""scroll_width"":1426,""scroll_height"":613,""window_innerWidth"":1426,""window_innerHeight"":661,""devicePixelRatio"":2}",,,,,,,,,,,,,,,5f8f436e4676a71879786b95,,,,,,,,,,,,,,,14081.670999999254,,form submission,,,,,,,,,,,,,,,,,,,,,28725.099999999627,28724.199999999255,14625.862,14631.5,14642.529,28726.542,{},,
Introduction,html.Screen,1_0,2022-02-01T12:30:14.072Z,,,,,,,,,,,,,,,,,,,,,,,,,,,,,,,18293.35799999944,,response,,,,,,,,,,,continue,click button,,,,,,,,,47025.09999999963,47019.89999999944,28709.875,28725.599999999627,28726.542,47026.981,,,
Volume calibration,html.Screen,1_1,2022-02-01T12:30:38.941Z,,,,,,,,,,,,,,,,,,,,,,,,,,,,,,,24861.91899999944,,response,,,,,,,,,,,continue,click button,,,,,,,,,71894.79999999981,71888.89999999944,47010.314,47025.39999999944,47026.981,71894.611,,,
Task instructions,html.Screen,1_2,2022-02-01T12:30:46.343Z,,,,,,,,,,,,,,,,,,,,,,,,,,,,,,,7399.188999999809,,response,,,,,,,,,,,continue,click button,,,,,,,,,79297.09999999963,79293.79999999981,71877.944,71894.89999999944,71894.611,79311.474,,,
Sounds,html.Screen,1_3_0_0,2022-02-01T12:30:50.596Z,,,,,,,,,,,,,,,,,,,,,,,,,,,,,,,4250.084999999992,,timeout,,,,,,,,,1,,,,,,,,S,O,I,,83549.79999999981,83544.892,79294.807,79297.29999999981,79311.474,83561.559,,,
Judgement,html.Screen,1_3_0_1,2022-02-01T12:30:51.531Z,,,,,,,,,,,,,,,,,,,,,,,,,,,,true,1,,921.6409999992611,,response,,,,,,,,,1,,1,click #choice-1,,,,,S,O,I,,84484.69999999925,84483.19999999925,83544.892,83550.09999999963,83561.559,84495.143,,,
Trial,flow.Sequence,1_3_0,2022-02-01T12:30:51.531Z,,,,,,,,,,,,,,,,,,,,,,,,,,,,,,,5171.725999999253,,completion,,,,,,,,,1,,,,,,,,S,O,I,,84485,84483.19999999925,79294.807,79297.29999999981,79311.474,84495.143,,,
Sounds,html.Screen,1_3_1_0,2022-02-01T12:30:55.777Z,,,,,,,,,,,,,,,,,,,,,,,,,,,,,,,4250.085000000006,,timeout,,,,,,,,,1,,,,,,,,S,I,O,,88730.89999999944,88728.561,84478.476,84485.39999999944,84495.143,88745.228,,,
Judgement,html.Screen,1_3_1_1,2022-02-01T12:30:56.338Z,,,,,,,,,,,,,,,,,,,,,,,,,,,,true,1,,543.4719999992521,,response,,,,,,,,,1,,1,click #choice-1,,,,,S,I,O,,89292.29999999981,89288.69999999925,88728.561,88731,88745.228,89295.239,,,
Trial,flow.Sequence,1_3_1,2022-02-01T12:30:56.339Z,,,,,,,,,,,,,,,,,,,,,,,,,,,,,,,4793.556999999259,,completion,,,,,,,,,1,,,,,,,,S,I,O,,89293,89288.69999999925,84478.476,84485.09999999963,84495.143,89295.239,,,
Sounds,html.Screen,1_3_2_0,2022-02-01T12:31:00.576Z,,,,,,,,,,,,,,,,,,,,,,,,,,,,,,,4250.084999999992,,timeout,,,,,,,,,3,,,,,,,,I,O,S,,93530.29999999981,93528.657,89278.572,89293.19999999925,89295.239,93545.324,,,
Judgement,html.Screen,1_3_2_1,2022-02-01T12:31:01.199Z,,,,,,,,,,,,,,,,,,,,,,,,,,,,true,3,,606.575999999448,,response,,,,,,,,,3,,3,click #choice-3,,,,,I,O,S,,94153.5,94151.89999999944,93528.657,93530.89999999944,93545.324,94162.133,,,
Trial,flow.Sequence,1_3_2,2022-02-01T12:31:01.199Z,,,,,,,,,,,,,,,,,,,,,,,,,,,,,,,4856.66099999944,,completion,,,,,,,,,3,,,,,,,,I,O,S,,94153.59999999963,94151.89999999944,89278.572,89293.09999999963,89295.239,94162.133,,,
Sounds,html.Screen,1_3_3_0,2022-02-01T12:31:05.445Z,,,,,,,,,,,,,,,,,,,,,,,,,,,,,,,4250.084999999992,,timeout,,,,,,,,,2,,,,,,,,O,S,I,,98399,98395.551,94145.466,94153.69999999925,94162.133,98412.218,,,
Judgement,html.Screen,1_3_3_1,2022-02-01T12:31:05.902Z,,,,,,,,,,,,,,,,,,,,,,,,,,,,true,2,,441.48199999926146,,response,,,,,,,,,2,,2,click #choice-2,,,,,O,S,I,,98856.59999999963,98853.69999999925,98395.551,98399.39999999944,98412.218,98862.227,,,
Trial,flow.Sequence,1_3_3,2022-02-01T12:31:05.902Z,,,,,,,,,,,,,,,,,,,,,,,,,,,,,,,4691.566999999253,,completion,,,,,,,,,2,,,,,,,,O,S,I,,98856.79999999981,98853.69999999925,94145.466,94153.69999999925,94162.133,98862.227,,,
Sounds,html.Screen,1_3_4_0,2022-02-01T12:31:10.144Z,,,,,,,,,,,,,,,,,,,,,,,,,,,,,,,4250.085000000006,,timeout,,,,,,,,,3,,,,,,,,O,I,S,,103098.79999999981,103095.645,98845.56,98857,98862.227,103112.312,,,
Judgement,html.Screen,1_3_4_1,2022-02-01T12:31:10.620Z,,,,,,,,,,,,,,,,,,,,,,,,,,,,true,3,,459.2879999996221,,response,,,,,,,,,3,,3,click #choice-3,,,,,O,I,S,,103574.89999999944,103571.59999999963,103095.645,103099.09999999963,103112.312,103578.988,,,
Trial,flow.Sequence,1_3_4,2022-02-01T12:31:10.620Z,,,,,,,,,,,,,,,,,,,,,,,,,,,,,,,4709.3729999996285,,completion,,,,,,,,,3,,,,,,,,O,I,S,,103575.09999999963,103571.59999999963,98845.56,98857,98862.227,103578.988,,,
Sounds,html.Screen,1_3_5_0,2022-02-01T12:31:14.860Z,,,,,,,,,,,,,,,,,,,,,,,,,,,,,,,4250.085000000006,,timeout,,,,,,,,,2,,,,,,,,I,S,O,,107814.59999999963,107812.406,103562.321,103575.19999999925,103578.988,107829.073,,,
Judgement,html.Screen,1_3_5_1,2022-02-01T12:31:15.348Z,,,,,,,,,,,,,,,,,,,,,,,,,,,,true,2,,467.42699999999604,,response,,,,,,,,,2,,2,click #choice-2,,,,,I,S,O,,108303.29999999981,108296.5,107812.406,107814.89999999944,107829.073,108312.629,,,
Trial,flow.Sequence,1_3_5,2022-02-01T12:31:15.350Z,,,,,,,,,,,,,,,,,,,,,,,,,,,,,,,4717.512000000002,,completion,,,,,,,,,2,,,,,,,,I,S,O,,108305.29999999981,108296.5,103562.321,103575.19999999925,103578.988,108312.629,,,
Task,flow.Loop,1_3,2022-02-01T12:31:15.355Z,,,,,,,,,,,,,,,,,,,,,,,,,,,,,,,28985.025999999998,,completion,,,1,,,,,,,,,,,,,,,,,,108310.09999999963,108296.5,79294.807,79297.29999999981,79311.474,108312.629,,,
Trap,html.Screen,1_4,2022-02-01T12:31:15.356Z,,,,,,,,,,,,,,,,,,,,,,,,,,,,,,,NaN,,skipped,,,,,,,,,,,,,,,,,,,,,108311.19999999925,108296.5,,108311.19999999925,,108312.629,,,
Thanks,html.Screen,1_5,2022-02-01T12:31:19.296Z,,,,,,,,,,,,,,,,,,,,,,,,,,,,,,,3935.070999999254,,response,,,,,,,,,,,continue,click button,,,,,,,,,112251,112247.69999999925,108295.962,108311.19999999925,108312.629,117012.803,,,
Headphone screening,flow.Sequence,1,2022-02-01T12:31:19.296Z,,,,,,,,,,,,,,,,,,,,,,,,,,,,,,,83521.15799999925,,completion,,,,,,,,,,,,,,,,,,,,,112251.19999999925,112247.69999999925,28709.875,28725.599999999627,28726.542,117012.803,,,
Instructions,html.Page,2_0,2022-02-01T12:32:00.354Z,,,,,,,,,,,,,,,,,,,,,,,,,,,,,,,36297.09699999944,,form submission,,,,,,,,,,,,,,,,,,,,,153310.39999999944,153309.89999999944,116996.136,117001.79999999981,117012.803,153313.683,,,
Holding screen,html.Screen,2_1_0_0,2022-02-01T12:32:10.343Z,,,,,,,,,,,,,,,,,,,,,,,,,,,,,,,10000.77800000002,,timeout,,,,,,,,,,,,,,,,,,,,,163300.19999999925,163297.794,153297.016,153310.89999999944,153313.683,163314.461,,,
screen,html.Screen,2_1_0_1_0,2022-02-01T12:32:11.138Z,,,,,,,,,,,,,,,,,53,,,,,,,,,,,,,,769.938999999431,,response,,,,99,,,,,,,Space,keypress(Space),,,,,,,,When -- ----- -- ------ - ------- --- ----------<br>------------- ------ ------ ---- ---- ------- ----- -- ----<br>-------- ------- -- ---------- --- - --- ----- ----- ----<br>---- --- --- ----- --- ---- ---- ------- ----- ---- -------<br>--- --- -- ----- -- --- ---- -- --- ---- -- ------ ------<br>--- ----- -- ----,164094.59999999963,164084.39999999944,163297.794,163300.59999999963,163314.461,164097.81,,0,When
screen,html.Screen,2_1_0_1_1,2022-02-01T12:32:11.646Z,,,,,,,,,,,,,,,,,53,,,,,,,,,,,,,,499.38999999925727,,response,,,,99,,,,,,,Space,keypress(Space),,,,,,,,---- it ----- -- ------ - ------- --- ----------<br>------------- ------ ------ ---- ---- ------- ----- -- ----<br>-------- ------- -- ---------- --- - --- ----- ----- ----<br>---- --- --- ----- --- ---- ---- ------- ----- ---- -------<br>--- --- -- ----- -- --- ---- -- --- ---- -- ------ ------<br>--- ----- -- ----,164602.59999999963,164597.19999999925,164081.143,164094.89999999944,164097.81,164614.608,,1,it
screen,html.Screen,2_1_0_1_2,2022-02-01T12:32:12.282Z,,,,,,,,,,,,,,,,,53,,,,,,,,,,,,,,618.8919999999925,,response,,,,99,,,,,,,Space,keypress(Space),,,,,,,,---- -- comes -- ------ - ------- --- ----------<br>------------- ------ ------ ---- ---- ------- ----- -- ----<br>-------- ------- -- ---------- --- - --- ----- ----- ----<br>---- --- --- ----- --- ---- ---- ------- ----- ---- -------<br>--- --- -- ----- -- --- ---- -- --- ---- -- ------ ------<br>--- ----- -- ----,165239.19999999925,165233.5,164597.941,164603,164614.608,165247.954,,2,comes
screen,html.Screen,2_1_0_1_3,2022-02-01T12:32:12.720Z,,,,,,,,,,,,,,,,,53,,,,,,,,,,,,,,424.4459999994433,,response,,,,99,,,,,,,Space,keypress(Space),,,,,,,,---- -- ----- to ------ - ------- --- ----------<br>------------- ------ ------ ---- ---- ------- ----- -- ----<br>-------- ------- -- ---------- --- - --- ----- ----- ----<br>---- --- --- ----- --- ---- ---- ------- ----- ---- -------<br>--- --- -- ----- -- --- ---- -- --- ---- -- ------ ------<br>--- ----- -- ----,165677.39999999944,165672.39999999944,165231.287,165239.59999999963,165247.954,165681.296,,3,to
screen,html.Screen,2_1_0_1_4,2022-02-01T12:32:13.088Z,,,,,,,,,,,,,,,,,53,,,,,,,,,,,,,,359.00399999981164,,response,,,,99,,,,,,,Space,keypress(Space),,,,,,,,---- -- ----- -- having - ------- --- ----------<br>------------- ------ ------ ---- ---- ------- ----- -- ----<br>-------- ------- -- ---------- --- - --- ----- ----- ----<br>---- --- --- ----- --- ---- ---- ------- ----- ---- -------<br>--- --- -- ----- -- --- ---- -- --- ---- -- ------ ------<br>--- ----- -- ----,166045.39999999944,166040.2999999998,165664.629,165677.59999999963,165681.296,166047.97,,4,having
screen,html.Screen,2_1_0_1_5,2022-02-01T12:32:13.492Z,,,,,,,,,,,,,,,,,53,,,,,,,,,,,,,,395.52999999999884,,response,,,,99,,,,,,,Space,keypress(Space),,,,,,,,---- -- ----- -- ------ a ------- --- ----------<br>------------- ------ ------ ---- ---- ------- ----- -- ----<br>-------- ------- -- ---------- --- - --- ----- ----- ----<br>---- --- --- ----- --- ---- ---- ------- ----- ---- -------<br>--- --- -- ----- -- --- ---- -- --- ---- -- ------ ------<br>--- ----- -- ----,166449.09999999963,166443.5,166031.303,166045.59999999963,166047.97,166464.645,,5,a
screen,html.Screen,2_1_0_1_6,2022-02-01T12:32:13.871Z,,,,,,,,,,,,,,,,,53,,,,,,,,,,,,,,357.6549999998242,,response,,,,99,,,,,,,Space,keypress(Space),,,,,,,,---- -- ----- -- ------ - lasting --- ----------<br>------------- ------ ------ ---- ---- ------- ----- -- ----<br>-------- ------- -- ---------- --- - --- ----- ----- ----<br>---- --- --- ----- --- ---- ---- ------- ----- ---- -------<br>--- --- -- ----- -- --- ---- -- --- ---- -- ------ ------<br>--- ----- -- ----,166828.09999999963,166822.2999999998,166447.978,166449.39999999944,166464.645,166831.319,,6,lasting
screen,html.Screen,2_1_0_1_7,2022-02-01T12:32:14.241Z,,,,,,,,,,,,,,,,,53,,,,,,,,,,,,,,361.0809999994526,,response,,,,99,,,,,,,Space,keypress(Space),,,,,,,,---- -- ----- -- ------ - ------- and ----------<br>------------- ------ ------ ---- ---- ------- ----- -- ----<br>-------- ------- -- ---------- --- - --- ----- ----- ----<br>---- --- --- ----- --- ---- ---- ------- ----- ---- -------<br>--- --- -- ----- -- --- ---- -- --- ---- -- ------ ------<br>--- ----- -- ----,167197.89999999944,167192.39999999944,166814.652,166828.19999999925,166831.319,167214.66,,7,and
screen,html.Screen,2_1_0_1_8,2022-02-01T12:32:14.604Z,,,,,,,,,,,,,,,,,53,,,,,,,,,,,,,,340.7399999994377,,response,,,,99,,,,,,,Space,keypress(Space),,,,,,,,---- -- ----- -- ------ - ------- --- fulfilling<br>------------- ------ ------ ---- ---- ------- ----- -- ----<br>-------- ------- -- ---------- --- - --- ----- ----- ----<br>---- --- --- ----- --- ---- ---- ------- ----- ---- -------<br>--- --- -- ----- -- --- ---- -- --- ---- -- ------ ------<br>--- ----- -- ----,167560.69999999925,167555.39999999944,167197.993,167198.19999999925,167214.66,167564.667,,8,fulfilling
screen,html.Screen,2_1_0_1_9,2022-02-01T12:32:15.031Z,,,,,,,,,,,,,,,,,53,,,,,,,,,,,,,,416.7329999994545,,response,,,,99,,,,,,,Space,keypress(Space),,,,,,,,"---- -- ----- -- ------ - ------- --- ----------<br>relationship, ------ ------ ---- ---- ------- ----- -- ----<br>-------- ------- -- ---------- --- - --- ----- ----- ----<br>---- --- --- ----- --- ---- ---- ------- ----- ---- -------<br>--- --- -- ----- -- --- ---- -- --- ---- -- ------ ------<br>--- ----- -- ----",167988.19999999925,167981.39999999944,167548,167561.09999999963,167564.667,167998.009,,9,"relationship,"
screen,html.Screen,2_1_0_1_10,2022-02-01T12:32:15.437Z,,,,,,,,,,,,,,,,,53,,,,,,,,,,,,,,390.190999999264,,response,,,,99,,,,,,,Space,keypress(Space),,,,,,,,---- -- ----- -- ------ - ------- --- ----------<br>------------- common ------ ---- ---- ------- ----- -- ----<br>-------- ------- -- ---------- --- - --- ----- ----- ----<br>---- --- --- ----- --- ---- ---- ------- ----- ---- -------<br>--- --- -- ----- -- --- ---- -- --- ---- -- ------ ------<br>--- ----- -- ----,168394,168388.19999999925,167981.342,167988.5,167998.009,168398.017,,10,common
screen,html.Screen,2_1_0_1_11,2022-02-01T12:32:15.782Z,,,,,,,,,,,,,,,,,53,,,,,,,,,,,,,,335.6829999992624,,response,,,,99,,,,,,,Space,keypress(Space),,,,,,,,---- -- ----- -- ------ - ------- --- ----------<br>------------- ------ wisdom ---- ---- ------- ----- -- ----<br>-------- ------- -- ---------- --- - --- ----- ----- ----<br>---- --- --- ----- --- ---- ---- ------- ----- ---- -------<br>--- --- -- ----- -- --- ---- -- --- ---- -- ------ ------<br>--- ----- -- ----,168739.2999999998,168733.69999999925,168381.35,168394.19999999925,168398.017,168748.024,,11,wisdom
screen,html.Screen,2_1_0_1_12,2022-02-01T12:32:16.139Z,,,,,,,,,,,,,,,,,53,,,,,,,,,,,,,,343.5759999996226,,response,,,,99,,,,,,,Space,keypress(Space),,,,,,,,---- -- ----- -- ------ - ------- --- ----------<br>------------- ------ ------ says ---- ------- ----- -- ----<br>-------- ------- -- ---------- --- - --- ----- ----- ----<br>---- --- --- ----- --- ---- ---- ------- ----- ---- -------<br>--- --- -- ----- -- --- ---- -- --- ---- -- ------ ------<br>--- ----- -- ----,169096.19999999925,169091.59999999963,168731.357,168739.59999999963,168748.024,169098.031,,12,says
screen,html.Screen,2_1_0_1_13,2022-02-01T12:32:16.511Z,,,,,,,,,,,,,,,,,53,,,,,,,,,,,,,,364.3689999994531,,response,,,,99,,,,,,,Space,keypress(Space),,,,,,,,---- -- ----- -- ------ - ------- --- ----------<br>------------- ------ ------ ---- that ------- ----- -- ----<br>-------- ------- -- ---------- --- - --- ----- ----- ----<br>---- --- --- ----- --- ---- ---- ------- ----- ---- -------<br>--- --- -- ----- -- --- ---- -- --- ---- -- ------ ------<br>--- ----- -- ----,169467.69999999925,169462.39999999944,169081.364,169096.5,169098.031,169481.372,,13,that
screen,html.Screen,2_1_0_1_14,2022-02-01T12:32:16.821Z,,,,,,,,,,,,,,,,,53,,,,,,,,,,,,,,291.22799999962444,,response,,,,99,,,,,,,Space,keypress(Space),,,,,,,,---- -- ----- -- ------ - ------- --- ----------<br>------------- ------ ------ ---- ---- feeling ----- -- ----<br>-------- ------- -- ---------- --- - --- ----- ----- ----<br>---- --- --- ----- --- ---- ---- ------- ----- ---- -------<br>--- --- -- ----- -- --- ---- -- --- ---- -- ------ ------<br>--- ----- -- ----,169778.09999999963,169772.59999999963,169464.705,169468.09999999963,169481.372,169781.378,,14,feeling
screen,html.Screen,2_1_0_1_15,2022-02-01T12:32:17.163Z,,,,,,,,,,,,,,,,,53,,,,,,,,,,,,,,333.92199999981676,,response,,,,99,,,,,,,Space,keypress(Space),,,,,,,,---- -- ----- -- ------ - ------- --- ----------<br>------------- ------ ------ ---- ---- ------- close -- ----<br>-------- ------- -- ---------- --- - --- ----- ----- ----<br>---- --- --- ----- --- ---- ---- ------- ----- ---- -------<br>--- --- -- ----- -- --- ---- -- --- ---- -- ------ ------<br>--- ----- -- ----,170120.19999999925,170115.2999999998,169764.711,169778.5,169781.378,170131.385,,15,close
screen,html.Screen,2_1_0_1_16,2022-02-01T12:32:17.563Z,,,,,,,,,,,,,,,,,53,,,,,,,,,,,,,,383.21499999961816,,response,,,,99,,,,,,,Space,keypress(Space),,,,,,,,---- -- ----- -- ------ - ------- --- ----------<br>------------- ------ ------ ---- ---- ------- ----- to ----<br>-------- ------- -- ---------- --- - --- ----- ----- ----<br>---- --- --- ----- --- ---- ---- ------- ----- ---- -------<br>--- --- -- ----- -- --- ---- -- --- ---- -- ------ ------<br>--- ----- -- ----,170520.09999999963,170514.59999999963,170114.718,170120.59999999963,170131.385,170531.393,,16,to
screen,html.Screen,2_1_0_1_17,2022-02-01T12:32:18.063Z,,,,,,,,,,,,,,,,,53,,,,,,,,,,,,,,483.306999999244,,response,,,,99,,,,,,,Space,keypress(Space),,,,,,,,---- -- ----- -- ------ - ------- --- ----------<br>------------- ------ ------ ---- ---- ------- ----- -- your<br>-------- ------- -- ---------- --- - --- ----- ----- ----<br>---- --- --- ----- --- ---- ---- ------- ----- ---- -------<br>--- --- -- ----- -- --- ---- -- --- ---- -- ------ ------<br>--- ----- -- ----,171020.09999999963,171014.69999999925,170514.726,170520.39999999944,170531.393,171031.403,,17,your
screen,html.Screen,2_1_0_1_18,2022-02-01T12:32:18.461Z,,,,,,,,,,,,,,,,,53,,,,,,,,,,,,,,381.09700000000885,,response,,,,99,,,,,,,Space,keypress(Space),,,,,,,,---- -- ----- -- ------ - ------- --- ----------<br>------------- ------ ------ ---- ---- ------- ----- -- ----<br>romantic ------- -- ---------- --- - --- ----- ----- ----<br>---- --- --- ----- --- ---- ---- ------- ----- ---- -------<br>--- --- -- ----- -- --- ---- -- --- ---- -- ------ ------<br>--- ----- -- ----,171417.69999999925,171412.5,171014.736,171020.5,171031.403,171431.411,,18,romantic
screen,html.Screen,2_1_0_1_19,2022-02-01T12:32:18.830Z,,,,,,,,,,,,,,,,,53,,,,,,,,,,,,,,350.28899999926216,,response,,,,99,,,,,,,Space,keypress(Space),,,,,,,,---- -- ----- -- ------ - ------- --- ----------<br>------------- ------ ------ ---- ---- ------- ----- -- ----<br>-------- partner -- ---------- --- - --- ----- ----- ----<br>---- --- --- ----- --- ---- ---- ------- ----- ---- -------<br>--- --- -- ----- -- --- ---- -- --- ---- -- ------ ------<br>--- ----- -- ----,171787.09999999963,171781.69999999925,171414.744,171417.89999999944,171431.411,171798.085,,19,partner
screen,html.Screen,2_1_0_1_20,2022-02-01T12:32:19.195Z,,,,,,,,,,,,,,,,,53,,,,,,,,,,,,,,348.6149999992631,,response,,,,99,,,,,,,Space,keypress(Space),,,,,,,,---- -- ----- -- ------ - ------- --- ----------<br>------------- ------ ------ ---- ---- ------- ----- -- ----<br>-------- ------- is ---------- --- - --- ----- ----- ----<br>---- --- --- ----- --- ---- ---- ------- ----- ---- -------<br>--- --- -- ----- -- --- ---- -- --- ---- -- ------ ------<br>--- ----- -- ----,172152.09999999963,172146.69999999925,171781.418,171787.5,171798.085,172164.759,,20,is
screen,html.Screen,2_1_0_1_21,2022-02-01T12:32:19.569Z,,,,,,,,,,,,,,,,,53,,,,,,,,,,,,,,356.6409999994503,,response,,,,99,,,,,,,Space,keypress(Space),,,,,,,,---- -- ----- -- ------ - ------- --- ----------<br>------------- ------ ------ ---- ---- ------- ----- -- ----<br>-------- ------- -- paramount. --- - --- ----- ----- ----<br>---- --- --- ----- --- ---- ---- ------- ----- ---- -------<br>--- --- -- ----- -- --- ---- -- --- ---- -- ------ ------<br>--- ----- -- ----,172525.89999999944,172521.39999999944,172148.092,172152.5,172164.759,172531.433,,21,paramount.
screen,html.Screen,2_1_0_1_22,2022-02-01T12:32:20.042Z,,,,,,,,,,,,,,,,,53,,,,,,,,,,,,,,462.36699999982375,,response,,,,99,,,,,,,Space,keypress(Space),,,,,,,,---- -- ----- -- ------ - ------- --- ----------<br>------------- ------ ------ ---- ---- ------- ----- -- ----<br>-------- ------- -- ---------- But - --- ----- ----- ----<br>---- --- --- ----- --- ---- ---- ------- ----- ---- -------<br>--- --- -- ----- -- --- ---- -- --- ---- -- ------ ------<br>--- ----- -- ----,172999.39999999944,172993.7999999998,172514.766,172526.19999999925,172531.433,173014.776,,22,But
screen,html.Screen,2_1_0_1_23,2022-02-01T12:32:20.544Z,,,,,,,,,,,,,,,,,53,,,,,,,,,,,,,,480.62399999942863,,response,,,,99,,,,,,,Space,keypress(Space),,,,,,,,---- -- ----- -- ------ - ------- --- ----------<br>------------- ------ ------ ---- ---- ------- ----- -- ----<br>-------- ------- -- ---------- --- a --- ----- ----- ----<br>---- --- --- ----- --- ---- ---- ------- ----- ---- -------<br>--- --- -- ----- -- --- ---- -- --- ---- -- ------ ------<br>--- ----- -- ----,173501.09999999963,173495.39999999944,172998.109,172999.59999999963,173014.776,173514.786,,23,a
screen,html.Screen,2_1_0_1_24,2022-02-01T12:32:21.013Z,,,,,,,,,,,,,,,,,53,,,,,,,,,,,,,,449.8139999996347,,response,,,,99,,,,,,,Space,keypress(Space),,,,,,,,---- -- ----- -- ------ - ------- --- ----------<br>------------- ------ ------ ---- ---- ------- ----- -- ----<br>-------- ------- -- ---------- --- - new ----- ----- ----<br>---- --- --- ----- --- ---- ---- ------- ----- ---- -------<br>--- --- -- ----- -- --- ---- -- --- ---- -- ------ ------<br>--- ----- -- ----,173970.09999999963,173964.59999999963,173498.119,173501.39999999944,173514.786,173981.462,,24,new
screen,html.Screen,2_1_0_1_25,2022-02-01T12:32:21.432Z,,,,,,,,,,,,,,,,,53,,,,,,,,,,,,,,401.13799999962794,,response,,,,99,,,,,,,Space,keypress(Space),,,,,,,,---- -- ----- -- ------ - ------- --- ----------<br>------------- ------ ------ ---- ---- ------- ----- -- ----<br>-------- ------- -- ---------- --- - --- study ----- ----<br>---- --- --- ----- --- ---- ---- ------- ----- ---- -------<br>--- --- -- ----- -- --- ---- -- --- ---- -- ------ ------<br>--- ----- -- ----,174389.59999999963,174382.59999999963,173964.795,173970.2999999998,173981.462,174398.392,,25,study
screen,html.Screen,2_1_0_1_26,2022-02-01T12:32:21.815Z,,,,,,,,,,,,,,,,,53,,,,,,,,,,,,,,368.2079999996349,,response,,,,99,,,,,,,Space,keypress(Space),,,,,,,,---- -- ----- -- ------ - ------- --- ----------<br>------------- ------ ------ ---- ---- ------- ----- -- ----<br>-------- ------- -- ---------- --- - --- ----- finds ----<br>---- --- --- ----- --- ---- ---- ------- ----- ---- -------<br>--- --- -- ----- -- --- ---- -- --- ---- -- ------ ------<br>--- ----- -- ----,174772.19999999925,174766.59999999963,174381.725,174389.89999999944,174398.392,174781.733,,26,finds
screen,html.Screen,2_1_0_1_27,2022-02-01T12:32:22.224Z,,,,,,,,,,,,,,,,,53,,,,,,,,,,,,,,394.0669999998063,,response,,,,99,,,,,,,Space,keypress(Space),,,,,,,,---- -- ----- -- ------ - ------- --- ----------<br>------------- ------ ------ ---- ---- ------- ----- -- ----<br>-------- ------- -- ---------- --- - --- ----- ----- that<br>---- --- --- ----- --- ---- ---- ------- ----- ---- -------<br>--- --- -- ----- -- --- ---- -- --- ---- -- ------ ------<br>--- ----- -- ----,175181.5,175175.7999999998,174765.066,174772.69999999925,174781.733,175198.408,,27,that
screen,html.Screen,2_1_0_1_28,2022-02-01T12:32:22.620Z,,,,,,,,,,,,,,,,,53,,,,,,,,,,,,,,373.0920000000042,,response,,,,99,,,,,,,Space,keypress(Space),,,,,,,,---- -- ----- -- ------ - ------- --- ----------<br>------------- ------ ------ ---- ---- ------- ----- -- ----<br>-------- ------- -- ---------- --- - --- ----- ----- ----<br>it's --- --- ----- --- ---- ---- ------- ----- ---- -------<br>--- --- -- ----- -- --- ---- -- --- ---- -- ------ ------<br>--- ----- -- ----,175577,175571.5,175181.741,175181.7999999998,175198.408,175581.749,,28,it's
screen,html.Screen,2_1_0_1_29,2022-02-01T12:32:22.936Z,,,,,,,,,,,,,,,,,53,,,,,,,,,,,,,,306.550999999803,,response,,,,99,,,,,,,Space,keypress(Space),,,,,,,,---- -- ----- -- ------ - ------- --- ----------<br>------------- ------ ------ ---- ---- ------- ----- -- ----<br>-------- ------- -- ---------- --- - --- ----- ----- ----<br>---- not --- ----- --- ---- ---- ------- ----- ---- -------<br>--- --- -- ----- -- --- ---- -- --- ---- -- ------ ------<br>--- ----- -- ----,175893.69999999925,175888.2999999998,175565.082,175577.2999999998,175581.749,175898.422,,29,not
screen,html.Screen,2_1_0_1_30,2022-02-01T12:32:23.278Z,,,,,,,,,,,,,,,,,53,,,,,,,,,,,,,,330.9779999994498,,response,,,,99,,,,,,,Space,keypress(Space),,,,,,,,---- -- ----- -- ------ - ------- --- ----------<br>------------- ------ ------ ---- ---- ------- ----- -- ----<br>-------- ------- -- ---------- --- - --- ----- ----- ----<br>---- --- how ----- --- ---- ---- ------- ----- ---- -------<br>--- --- -- ----- -- --- ---- -- --- ---- -- ------ ------<br>--- ----- -- ----,176234.89999999944,176229.39999999944,175881.755,175894.09999999963,175898.422,176248.429,,30,how
screen,html.Screen,2_1_0_1_31,2022-02-01T12:32:23.617Z,,,,,,,,,,,,,,,,,53,,,,,,,,,,,,,,320.87099999981,,response,,,,99,,,,,,,Space,keypress(Space),,,,,,,,---- -- ----- -- ------ - ------- --- ----------<br>------------- ------ ------ ---- ---- ------- ----- -- ----<br>-------- ------- -- ---------- --- - --- ----- ----- ----<br>---- --- --- close --- ---- ---- ------- ----- ---- -------<br>--- --- -- ----- -- --- ---- -- --- ---- -- ------ ------<br>--- ----- -- ----,176574.39999999944,176569.2999999998,176231.762,176235.09999999963,176248.429,176581.769,,31,close
screen,html.Screen,2_1_0_1_32,2022-02-01T12:32:23.947Z,,,,,,,,,,,,,,,,,53,,,,,,,,,,,,,,317.5309999998135,,response,,,,99,,,,,,,Space,keypress(Space),,,,,,,,---- -- ----- -- ------ - ------- --- ----------<br>------------- ------ ------ ---- ---- ------- ----- -- ----<br>-------- ------- -- ---------- --- - --- ----- ----- ----<br>---- --- --- ----- you ---- ---- ------- ----- ---- -------<br>--- --- -- ----- -- --- ---- -- --- ---- -- ------ ------<br>--- ----- -- ----,176904.09999999963,176899.2999999998,176565.102,176574.59999999963,176581.769,176915.109,,32,you
screen,html.Screen,2_1_0_1_33,2022-02-01T12:32:24.262Z,,,,,,,,,,,,,,,,,53,,,,,,,,,,,,,,298.690999999817,,response,,,,99,,,,,,,Space,keypress(Space),,,,,,,,---- -- ----- -- ------ - ------- --- ----------<br>------------- ------ ------ ---- ---- ------- ----- -- ----<br>-------- ------- -- ---------- --- - --- ----- ----- ----<br>---- --- --- ----- --- feel ---- ------- ----- ---- -------<br>--- --- -- ----- -- --- ---- -- --- ---- -- ------ ------<br>--- ----- -- ----,177219.19999999925,177213.7999999998,176898.442,176904.39999999944,176915.109,177231.782,,33,feel
screen,html.Screen,2_1_0_1_34,2022-02-01T12:32:24.866Z,,,,,,,,,,,,,,,,,53,,,,,,,,,,,,,,585.7179999999935,,response,,,,99,,,,,,,Space,keypress(Space),,,,,,,,---- -- ----- -- ------ - ------- --- ----------<br>------------- ------ ------ ---- ---- ------- ----- -- ----<br>-------- ------- -- ---------- --- - --- ----- ----- ----<br>---- --- --- ----- --- ---- that ------- ----- ---- -------<br>--- --- -- ----- -- --- ---- -- --- ---- -- ------ ------<br>--- ----- -- ----,177822.89999999944,177817.5,177215.115,177219.5,177231.782,177831.794,,34,that
screen,html.Screen,2_1_0_1_35,2022-02-01T12:32:25.208Z,,,,,,,,,,,,,,,,,53,,,,,,,,,,,,,,328.7060000000056,,response,,,,99,,,,,,,Space,keypress(Space),,,,,,,,---- -- ----- -- ------ - ------- --- ----------<br>------------- ------ ------ ---- ---- ------- ----- -- ----<br>-------- ------- -- ---------- --- - --- ----- ----- ----<br>---- --- --- ----- --- ---- ---- matters ----- ---- -------<br>--- --- -- ----- -- --- ---- -- --- ---- -- ------ ------<br>--- ----- -- ----,178165.59999999963,178160.5,177815.127,177823.2999999998,177831.794,178181.801,,35,matters
screen,html.Screen,2_1_0_1_36,2022-02-01T12:32:25.573Z,,,,,,,,,,,,,,,,,53,,,,,,,,,,,,,,343.69899999999325,,response,,,,99,,,,,,,Space,keypress(Space),,,,,,,,"---- -- ----- -- ------ - ------- --- ----------<br>------------- ------ ------ ---- ---- ------- ----- -- ----<br>-------- ------- -- ---------- --- - --- ----- ----- ----<br>---- --- --- ----- --- ---- ---- ------- most, ---- -------<br>--- --- -- ----- -- --- ---- -- --- ---- -- ------ ------<br>--- ----- -- ----",178530.7999999998,178525.5,178165.134,178166.09999999963,178181.801,178548.475,,36,"most,"
screen,html.Screen,2_1_0_1_37,2022-02-01T12:32:25.984Z,,,,,,,,,,,,,,,,,53,,,,,,,,,,,,,,387.0249999999942,,response,,,,99,,,,,,,Space,keypress(Space),,,,,,,,---- -- ----- -- ------ - ------- --- ----------<br>------------- ------ ------ ---- ---- ------- ----- -- ----<br>-------- ------- -- ---------- --- - --- ----- ----- ----<br>---- --- --- ----- --- ---- ---- ------- ----- it's -------<br>--- --- -- ----- -- --- ---- -- --- ---- -- ------ ------<br>--- ----- -- ----,178941.09999999963,178935.5,178531.808,178531.19999999925,178548.475,178948.483,,37,it's
screen,html.Screen,2_1_0_1_38,2022-02-01T12:32:26.369Z,,,,,,,,,,,,,,,,,53,,,,,,,,,,,,,,373.01699999999255,,response,,,,99,,,,,,,Space,keypress(Space),,,,,,,,---- -- ----- -- ------ - ------- --- ----------<br>------------- ------ ------ ---- ---- ------- ----- -- ----<br>-------- ------- -- ---------- --- - --- ----- ----- ----<br>---- --- --- ----- --- ---- ---- ------- ----- ---- whether<br>--- --- -- ----- -- --- ---- -- --- ---- -- ------ ------<br>--- ----- -- ----,179326.2999999998,179321.5,178931.816,178941.39999999944,178948.483,179331.824,,38,whether
screen,html.Screen,2_1_0_1_39,2022-02-01T12:32:26.754Z,,,,,,,,,,,,,,,,,53,,,,,,,,,,,,,,373.7759999996342,,response,,,,99,,,,,,,Space,keypress(Space),,,,,,,,---- -- ----- -- ------ - ------- --- ----------<br>------------- ------ ------ ---- ---- ------- ----- -- ----<br>-------- ------- -- ---------- --- - --- ----- ----- ----<br>---- --- --- ----- --- ---- ---- ------- ----- ---- -------<br>you --- -- ----- -- --- ---- -- --- ---- -- ------ ------<br>--- ----- -- ----,179711.69999999925,179705.59999999963,179315.157,179326.59999999963,179331.824,179715.165,,39,you
screen,html.Screen,2_1_0_1_40,2022-02-01T12:32:27.113Z,,,,,,,,,,,,,,,,,53,,,,,,,,,,,,,,350.33499999999185,,response,,,,99,,,,,,,Space,keypress(Space),,,,,,,,---- -- ----- -- ------ - ------- --- ----------<br>------------- ------ ------ ---- ---- ------- ----- -- ----<br>-------- ------- -- ---------- --- - --- ----- ----- ----<br>---- --- --- ----- --- ---- ---- ------- ----- ---- -------<br>--- are -- ----- -- --- ---- -- --- ---- -- ------ ------<br>--- ----- -- ----,180070.5,180065.5,179698.498,179712.09999999963,179715.165,180081.839,,40,are
screen,html.Screen,2_1_0_1_41,2022-02-01T12:32:27.505Z,,,,,,,,,,,,,,,,,53,,,,,,,,,,,,,,375.560999999434,,response,,,,99,,,,,,,Space,keypress(Space),,,,,,,,---- -- ----- -- ------ - ------- --- ----------<br>------------- ------ ------ ---- ---- ------- ----- -- ----<br>-------- ------- -- ---------- --- - --- ----- ----- ----<br>---- --- --- ----- --- ---- ---- ------- ----- ---- -------<br>--- --- as ----- -- --- ---- -- --- ---- -- ------ ------<br>--- ----- -- ----,180462.69999999925,180457.39999999944,180065.172,180070.69999999925,180081.839,180465.18,,41,as
screen,html.Screen,2_1_0_1_42,2022-02-01T12:32:27.872Z,,,,,,,,,,,,,,,,,53,,,,,,,,,,,,,,358.6199999998207,,response,,,,99,,,,,,,Space,keypress(Space),,,,,,,,---- -- ----- -- ------ - ------- --- ----------<br>------------- ------ ------ ---- ---- ------- ----- -- ----<br>-------- ------- -- ---------- --- - --- ----- ----- ----<br>---- --- --- ----- --- ---- ---- ------- ----- ---- -------<br>--- --- -- close -- --- ---- -- --- ---- -- ------ ------<br>--- ----- -- ----,180829.19999999925,180823.7999999998,180448.513,180463,180465.18,180831.854,,42,close
screen,html.Screen,2_1_0_1_43,2022-02-01T12:32:28.234Z,,,,,,,,,,,,,,,,,53,,,,,,,,,,,,,,353.6460000000079,,response,,,,99,,,,,,,Space,keypress(Space),,,,,,,,---- -- ----- -- ------ - ------- --- ----------<br>------------- ------ ------ ---- ---- ------- ----- -- ----<br>-------- ------- -- ---------- --- - --- ----- ----- ----<br>---- --- --- ----- --- ---- ---- ------- ----- ---- -------<br>--- --- -- ----- as --- ---- -- --- ---- -- ------ ------<br>--- ----- -- ----,181190.89999999944,181185.5,180815.187,180829.59999999963,180831.854,181198.528,,43,as
screen,html.Screen,2_1_0_1_44,2022-02-01T12:32:28.582Z,,,,,,,,,,,,,,,,,53,,,,,,,,,,,,,,335.0719999996363,,response,,,,99,,,,,,,Space,keypress(Space),,,,,,,,---- -- ----- -- ------ - ------- --- ----------<br>------------- ------ ------ ---- ---- ------- ----- -- ----<br>-------- ------- -- ---------- --- - --- ----- ----- ----<br>---- --- --- ----- --- ---- ---- ------- ----- ---- -------<br>--- --- -- ----- -- you ---- -- --- ---- -- ------ ------<br>--- ----- -- ----,181539,181533.59999999963,181181.861,181191.39999999944,181198.528,181548.535,,44,you
screen,html.Screen,2_1_0_1_45,2022-02-01T12:32:28.948Z,,,,,,,,,,,,,,,,,53,,,,,,,,,,,,,,351.16499999925145,,response,,,,99,,,,,,,Space,keypress(Space),,,,,,,,---- -- ----- -- ------ - ------- --- ----------<br>------------- ------ ------ ---- ---- ------- ----- -- ----<br>-------- ------- -- ---------- --- - --- ----- ----- ----<br>---- --- --- ----- --- ---- ---- ------- ----- ---- -------<br>--- --- -- ----- -- --- want -- --- ---- -- ------ ------<br>--- ----- -- ----,181905.09999999963,181899.69999999925,181531.868,181540.7999999998,181548.535,181915.209,,45,want
screen,html.Screen,2_1_0_1_46,2022-02-01T12:32:29.277Z,,,,,,,,,,,,,,,,,53,,,,,,,,,,,,,,314.29099999999744,,response,,,,99,,,,,,,Space,keypress(Space),,,,,,,,---- -- ----- -- ------ - ------- --- ----------<br>------------- ------ ------ ---- ---- ------- ----- -- ----<br>-------- ------- -- ---------- --- - --- ----- ----- ----<br>---- --- --- ----- --- ---- ---- ------- ----- ---- -------<br>--- --- -- ----- -- --- ---- to --- ---- -- ------ ------<br>--- ----- -- ----,182234.69999999925,182229.5,181898.542,181905.19999999925,181915.209,182248.549,,46,to
screen,html.Screen,2_1_0_1_47,2022-02-01T12:32:29.592Z,,,,,,,,,,,,,,,,,53,,,,,,,,,,,,,,295.85099999944214,,response,,,,99,,,,,,,Space,keypress(Space),,,,,,,,"---- -- ----- -- ------ - ------- --- ----------<br>------------- ------ ------ ---- ---- ------- ----- -- ----<br>-------- ------- -- ---------- --- - --- ----- ----- ----<br>---- --- --- ----- --- ---- ---- ------- ----- ---- -------<br>--- --- -- ----- -- --- ---- -- be, ---- -- ------ ------<br>--- ----- -- ----",182549.89999999944,182544.39999999944,182231.882,182235.09999999963,182248.549,182565.222,,47,"be,"
screen,html.Screen,2_1_0_1_48,2022-02-01T12:32:29.968Z,,,,,,,,,,,,,,,,,53,,,,,,,,,,,,,,354.3779999996186,,response,,,,99,,,,,,,Space,keypress(Space),,,,,,,,---- -- ----- -- ------ - ------- --- ----------<br>------------- ------ ------ ---- ---- ------- ----- -- ----<br>-------- ------- -- ---------- --- - --- ----- ----- ----<br>---- --- --- ----- --- ---- ---- ------- ----- ---- -------<br>--- --- -- ----- -- --- ---- -- --- even -- ------ ------<br>--- ----- -- ----,182925.09999999963,182919.59999999963,182548.555,182550,182565.222,182931.896,,48,even
screen,html.Screen,2_1_0_1_49,2022-02-01T12:32:30.326Z,,,,,,,,,,,,,,,,,53,,,,,,,,,,,,,,345.9039999998058,,response,,,,99,,,,,,,Space,keypress(Space),,,,,,,,---- -- ----- -- ------ - ------- --- ----------<br>------------- ------ ------ ---- ---- ------- ----- -- ----<br>-------- ------- -- ---------- --- - --- ----- ----- ----<br>---- --- --- ----- --- ---- ---- ------- ----- ---- -------<br>--- --- -- ----- -- --- ---- -- --- ---- if ------ ------<br>--- ----- -- ----,183283.09999999963,183277.7999999998,182915.229,182925.5,182931.896,183298.57,,49,if
screen,html.Screen,2_1_0_1_50,2022-02-01T12:32:30.668Z,,,,,,,,,,,,,,,,,53,,,,,,,,,,,,,,321.0299999996205,,response,,,,99,,,,,,,Space,keypress(Space),,,,,,,,---- -- ----- -- ------ - ------- --- ----------<br>------------- ------ ------ ---- ---- ------- ----- -- ----<br>-------- ------- -- ---------- --- - --- ----- ----- ----<br>---- --- --- ----- --- ---- ---- ------- ----- ---- -------<br>--- --- -- ----- -- --- ---- -- --- ---- -- that's ------<br>--- ----- -- ----,183625.09999999963,183619.59999999963,183281.903,183283.5,183298.57,183631.91,,50,that's
screen,html.Screen,2_1_0_1_51,2022-02-01T12:32:31.092Z,,,,,,,,,,,,,,,,,53,,,,,,,,,,,,,,412.689999999624,,response,,,,99,,,,,,,Space,keypress(Space),,,,,,,,---- -- ----- -- ------ - ------- --- ----------<br>------------- ------ ------ ---- ---- ------- ----- -- ----<br>-------- ------- -- ---------- --- - --- ----- ----- ----<br>---- --- --- ----- --- ---- ---- ------- ----- ---- -------<br>--- --- -- ----- -- --- ---- -- --- ---- -- ------ really<br>--- ----- -- ----,184049.89999999944,184044.59999999963,183615.243,183625.2999999998,183631.91,184065.252,,51,really
screen,html.Screen,2_1_0_1_52,2022-02-01T12:32:31.534Z,,,,,,,,,,,,,,,,,53,,,,,,,,,,,,,,419.3479999996198,,response,,,,99,,,,,,,Space,keypress(Space),,,,,,,,---- -- ----- -- ------ - ------- --- ----------<br>------------- ------ ------ ---- ---- ------- ----- -- ----<br>-------- ------- -- ---------- --- - --- ----- ----- ----<br>---- --- --- ----- --- ---- ---- ------- ----- ---- -------<br>--- --- -- ----- -- --- ---- -- --- ---- -- ------ ------<br>not ----- -- ----,184491.7999999998,184484.59999999963,184048.585,184050.09999999963,184065.252,184498.725,,52,not
screen,html.Screen,2_1_0_1_53,2022-02-01T12:32:31.913Z,,,,,,,,,,,,,,,,,53,,,,,,,,,,,,,,365.87499999962165,,response,,,,99,,,,,,,Space,keypress(Space),,,,,,,,---- -- ----- -- ------ - ------- --- ----------<br>------------- ------ ------ ---- ---- ------- ----- -- ----<br>-------- ------- -- ---------- --- - --- ----- ----- ----<br>---- --- --- ----- --- ---- ---- ------- ----- ---- -------<br>--- --- -- ----- -- --- ---- -- --- ---- -- ------ ------<br>--- close -- ----,184870.09999999963,184864.59999999963,184482.058,184492.2999999998,184498.725,184882.066,,53,close
screen,html.Screen,2_1_0_1_54,2022-02-01T12:32:32.389Z,,,,,,,,,,,,,,,,,53,,,,,,,,,,,,,,458.7339999998221,,response,,,,99,,,,,,,Space,keypress(Space),,,,,,,,---- -- ----- -- ------ - ------- --- ----------<br>------------- ------ ------ ---- ---- ------- ----- -- ----<br>-------- ------- -- ---------- --- - --- ----- ----- ----<br>---- --- --- ----- --- ---- ---- ------- ----- ---- -------<br>--- --- -- ----- -- --- ---- -- --- ---- -- ------ ------<br>--- ----- at ----,185346.09999999963,185340.7999999998,184865.399,184870.39999999944,184882.066,185348.742,,54,at
screen,html.Screen,2_1_0_1_55,2022-02-01T12:32:34.264Z,,,,,,,,,,,,,,,,,53,,,,,,,,,,,,,,1867.1579999994428,,response,,,,99,,,,,,,Space,keypress(Space),,,,,,,,---- -- ----- -- ------ - ------- --- ----------<br>------------- ------ ------ ---- ---- ------- ----- -- ----<br>-------- ------- -- ---------- --- - --- ----- ----- ----<br>---- --- --- ----- --- ---- ---- ------- ----- ---- -------<br>--- --- -- ----- -- --- ---- -- --- ---- -- ------ ------<br>--- ----- -- all.,187221.5,187215.89999999944,185332.075,185346.39999999944,185348.742,187232.113,,55,all.
Item 99,flow.Loop,2_1_0_1,2022-02-01T12:32:34.264Z,,,,,,,,,,,,,,,,,,,,,,,,,,,,,,,23901.43899999943,,completion,,,,,B,,,,,,,,,,,silence,,,,,187221.89999999944,187215.89999999944,163297.794,163300.39999999944,163314.461,187232.113,,,
Question 1,html.Screen,2_1_0_2,2022-02-01T12:32:37.371Z,,,,,,,,,,,,,,,,,,,,,,,,,,,,true,FALSE,,3093.386999999988,,response,,,,99,B,,,,,,FALSE,click #choice-2,,,,silence,,,,,190328.39999999944,190325.5,187215.446,187222.19999999925,187232.113,190332.175,,,
Question 2,html.Screen,2_1_0_3,2022-02-01T12:32:41.265Z,,,,,,,,,,,,,,,,,,,,,,,,,,,,true,TRUE,,3887.424999999639,,response,,,,99,B,,,,,,TRUE,click #choice-1,,,,silence,,,,,194222.59999999963,194219.59999999963,190315.508,190328.59999999963,190332.175,194232.253,,,
Item 99,flow.Sequence,2_1_0,2022-02-01T12:32:41.265Z,,,,,,,,,,,,,,,,,,,,,,,,,,,,,,,40905.91699999964,,completion,,,,,,,,,,,,,,,,,,,,,194222.89999999944,194219.59999999963,153297.016,153310.89999999944,153313.683,194232.253,,,
Holding screen,html.Screen,2_1_1_0,2022-02-01T12:32:51.259Z,,,,,,,,,,,,,,,,,,,,,,,,,,,,,,,10000.290000000008,,timeout,,,,,,,,,,,,,,,,,,,,,204217.59999999963,204215.876,194215.586,194223.09999999963,194232.253,204232.543,,,
screen,html.Screen,2_1_1_1_0,2022-02-01T12:32:52.241Z,,,,,,,,,,,,,,,,,54,,,,,,,,,,,,,,960.0569999996223,,response,,,,100,,,,,,,Space,keypress(Space),,,,,,,,At --- ---- --- ------ ----- ------- ---- -- --- ------- --<br>------- ---------- ------ -- ----- -- ----- -- ---- ------<br>--- ----- --- --- ------ -------- ----- --- ------ ----- --<br>----- ----- ---------- --- --- ------ ------ ---- -- ------<br>------- --- ------ ----- --- ---- ------- -- ---- --- --<br>------- ------,205199.2999999998,205192.59999999963,204215.876,204218.09999999963,204232.543,205199.229,,0,At
screen,html.Screen,2_1_1_1_1,2022-02-01T12:32:52.616Z,,,,,,,,,,,,,,,,,54,,,,,,,,,,,,,,370.07099999982165,,response,,,,100,,,,,,,Space,keypress(Space),,,,,,,,-- the ---- --- ------ ----- ------- ---- -- --- ------- --<br>------- ---------- ------ -- ----- -- ----- -- ---- ------<br>--- ----- --- --- ------ -------- ----- --- ------ ----- --<br>----- ----- ---------- --- --- ------ ------ ---- -- ------<br>------- --- ------ ----- --- ---- ------- -- ---- --- --<br>------- ------,205574.59999999963,205569.2999999998,205182.562,205199.59999999963,205199.229,205582.693,,1,the
screen,html.Screen,2_1_1_1_2,2022-02-01T12:32:52.983Z,,,,,,,,,,,,,,,,,54,,,,,,,,,,,,,,353.60699999981443,,response,,,,100,,,,,,,Space,keypress(Space),,,,,,,,-- --- time --- ------ ----- ------- ---- -- --- ------- --<br>------- ---------- ------ -- ----- -- ----- -- ---- ------<br>--- ----- --- --- ------ -------- ----- --- ------ ----- --<br>----- ----- ---------- --- --- ------ ------ ---- -- ------<br>------- --- ------ ----- --- ---- ------- -- ---- --- --<br>------- ------,205941.59999999963,205936.2999999998,205566.026,205574.7999999998,205582.693,205949.367,,2,time
screen,html.Screen,2_1_1_1_3,2022-02-01T12:32:53.402Z,,,,,,,,,,,,,,,,,54,,,,,,,,,,,,,,406.13300000000163,,response,,,,100,,,,,,,Space,keypress(Space),,,,,,,,-- --- ---- the ------ ----- ------- ---- -- --- ------- --<br>------- ---------- ------ -- ----- -- ----- -- ---- ------<br>--- ----- --- --- ------ -------- ----- --- ------ ----- --<br>----- ----- ---------- --- --- ------ ------ ---- -- ------<br>------- --- ------ ----- --- ---- ------- -- ---- --- --<br>------- ------,206360.39999999944,206355.5,205932.7,205941.7999999998,205949.367,206366.042,,3,the
screen,html.Screen,2_1_1_1_4,2022-02-01T12:32:53.773Z,,,,,,,,,,,,,,,,,54,,,,,,,,,,,,,,359.6579999992682,,response,,,,100,,,,,,,Space,keypress(Space),,,,,,,,-- --- ---- --- French ----- ------- ---- -- --- ------- --<br>------- ---------- ------ -- ----- -- ----- -- ---- ------<br>--- ----- --- --- ------ -------- ----- --- ------ ----- --<br>----- ----- ---------- --- --- ------ ------ ---- -- ------<br>------- --- ------ ----- --- ---- ------- -- ---- --- --<br>------- ------,206731.19999999925,206725.69999999925,206349.375,206360.59999999963,206366.042,206749.383,,4,French
screen,html.Screen,2_1_1_1_5,2022-02-01T12:32:54.180Z,,,,,,,,,,,,,,,,,54,,,,,,,,,,,,,,383.9169999998121,,response,,,,100,,,,,,,Space,keypress(Space),,,,,,,,-- --- ---- --- ------ crown ------- ---- -- --- ------- --<br>------- ---------- ------ -- ----- -- ----- -- ---- ------<br>--- ----- --- --- ------ -------- ----- --- ------ ----- --<br>----- ----- ---------- --- --- ------ ------ ---- -- ------<br>------- --- ------ ----- --- ---- ------- -- ---- --- --<br>------- ------,207138.59999999963,207133.2999999998,206732.716,206731.59999999963,206749.383,207149.391,,5,crown
screen,html.Screen,2_1_1_1_6,2022-02-01T12:32:54.524Z,,,,,,,,,,,,,,,,,54,,,,,,,,,,,,,,328.00899999943795,,response,,,,100,,,,,,,Space,keypress(Space),,,,,,,,-- --- ---- --- ------ ----- secured ---- -- --- ------- --<br>------- ---------- ------ -- ----- -- ----- -- ---- ------<br>--- ----- --- --- ------ -------- ----- --- ------ ----- --<br>----- ----- ---------- --- --- ------ ------ ---- -- ------<br>------- --- ------ ----- --- ---- ------- -- ---- --- --<br>------- ------,207482.59999999963,207477.39999999944,207132.724,207138.89999999944,207149.391,207499.398,,6,secured
screen,html.Screen,2_1_1_1_7,2022-02-01T12:32:54.929Z,,,,,,,,,,,,,,,,,54,,,,,,,,,,,,,,382.90199999982724,,response,,,,100,,,,,,,Space,keypress(Space),,,,,,,,-- --- ---- --- ------ ----- ------- much -- --- ------- --<br>------- ---------- ------ -- ----- -- ----- -- ---- ------<br>--- ----- --- --- ------ -------- ----- --- ------ ----- --<br>----- ----- ---------- --- --- ------ ------ ---- -- ------<br>------- --- ------ ----- --- ---- ------- -- ---- --- --<br>------- ------,207887.7999999998,207882.2999999998,207482.731,207483,207499.398,207899.406,,7,much
screen,html.Screen,2_1_1_1_8,2022-02-01T12:32:55.376Z,,,,,,,,,,,,,,,,,54,,,,,,,,,,,,,,429.19399999963935,,response,,,,100,,,,,,,Space,keypress(Space),,,,,,,,-- --- ---- --- ------ ----- ------- ---- of --- ------- --<br>------- ---------- ------ -- ----- -- ----- -- ---- ------<br>--- ----- --- --- ------ -------- ----- --- ------ ----- --<br>----- ----- ---------- --- --- ------ ------ ---- -- ------<br>------- --- ------ ----- --- ---- ------- -- ---- --- --<br>------- ------,208333.89999999944,208328.59999999963,207882.739,207888.09999999963,207899.406,208349.415,,8,of
screen,html.Screen,2_1_1_1_9,2022-02-01T12:32:55.732Z,,,,,,,,,,,,,,,,,54,,,,,,,,,,,,,,336.08499999999185,,response,,,,100,,,,,,,Space,keypress(Space),,,,,,,,-- --- ---- --- ------ ----- ------- ---- -- its ------- --<br>------- ---------- ------ -- ----- -- ----- -- ---- ------<br>--- ----- --- --- ------ -------- ----- --- ------ ----- --<br>----- ----- ---------- --- --- ------ ------ ---- -- ------<br>------- --- ------ ----- --- ---- ------- -- ---- --- --<br>------- ------,208690.89999999944,208685.5,208332.748,208334.2999999998,208349.415,208699.422,,9,its
screen,html.Screen,2_1_1_1_10,2022-02-01T12:32:56.161Z,,,,,,,,,,,,,,,,,54,,,,,,,,,,,,,,415.1779999996361,,response,,,,100,,,,,,,Space,keypress(Space),,,,,,,,-- --- ---- --- ------ ----- ------- ---- -- --- revenue --<br>------- ---------- ------ -- ----- -- ----- -- ---- ------<br>--- ----- --- --- ------ -------- ----- --- ------ ----- --<br>----- ----- ---------- --- --- ------ ------ ---- -- ------<br>------- --- ------ ----- --- ---- ------- -- ---- --- --<br>------- ------,209119.7999999998,209114.59999999963,208682.755,208691.09999999963,208699.422,209132.764,,10,revenue
screen,html.Screen,2_1_1_1_11,2022-02-01T12:32:56.608Z,,,,,,,,,,,,,,,,,54,,,,,,,,,,,,,,428.63599999944563,,response,,,,100,,,,,,,Space,keypress(Space),,,,,,,,-- --- ---- --- ------ ----- ------- ---- -- --- ------- by<br>------- ---------- ------ -- ----- -- ----- -- ---- ------<br>--- ----- --- --- ------ -------- ----- --- ------ ----- --<br>----- ----- ---------- --- --- ------ ------ ---- -- ------<br>------- --- ------ ----- --- ---- ------- -- ---- --- --<br>------- ------,209566.7999999998,209561.39999999944,209116.097,209120.19999999925,209132.764,209582.773,,11,by
screen,html.Screen,2_1_1_1_12,2022-02-01T12:32:56.995Z,,,,,,,,,,,,,,,,,54,,,,,,,,,,,,,,364.52699999982724,,response,,,,100,,,,,,,Space,keypress(Space),,,,,,,,-- --- ---- --- ------ ----- ------- ---- -- --- ------- --<br>issuing ---------- ------ -- ----- -- ----- -- ---- ------<br>--- ----- --- --- ------ -------- ----- --- ------ ----- --<br>----- ----- ---------- --- --- ------ ------ ---- -- ------<br>------- --- ------ ----- --- ---- ------- -- ---- --- --<br>------- ------,209953.19999999925,209947.2999999998,209566.106,209568.59999999963,209582.773,209966.114,,12,issuing
screen,html.Screen,2_1_1_1_13,2022-02-01T12:32:57.411Z,,,,,,,,,,,,,,,,,54,,,,,,,,,,,,,,398.58599999925354,,response,,,,100,,,,,,,Space,keypress(Space),,,,,,,,-- --- ---- --- ------ ----- ------- ---- -- --- ------- --<br>------- government ------ -- ----- -- ----- -- ---- ------<br>--- ----- --- --- ------ -------- ----- --- ------ ----- --<br>----- ----- ---------- --- --- ------ ------ ---- -- ------<br>------- --- ------ ----- --- ---- ------- -- ---- --- --<br>------- ------,210369.89999999944,210364.69999999925,209949.447,209953.59999999963,209966.114,210382.789,,13,government
screen,html.Screen,2_1_1_1_14,2022-02-01T12:32:57.807Z,,,,,,,,,,,,,,,,,54,,,,,,,,,,,,,,377.010999999824,,response,,,,100,,,,,,,Space,keypress(Space),,,,,,,,-- --- ---- --- ------ ----- ------- ---- -- --- ------- --<br>------- ---------- bonds. -- ----- -- ----- -- ---- ------<br>--- ----- --- --- ------ -------- ----- --- ------ ----- --<br>----- ----- ---------- --- --- ------ ------ ---- -- ------<br>------- --- ------ ----- --- ---- ------- -- ---- --- --<br>------- ------,210765.19999999925,210759.7999999998,210366.122,210370.09999999963,210382.789,210782.797,,14,bonds.
screen,html.Screen,2_1_1_1_15,2022-02-01T12:32:58.286Z,,,,,,,,,,,,,,,,,54,,,,,,,,,,,,,,456.8029999996361,,response,,,,100,,,,,,,Space,keypress(Space),,,,,,,,-- --- ---- --- ------ ----- ------- ---- -- --- ------- --<br>------- ---------- ------ In ----- -- ----- -- ---- ------<br>--- ----- --- --- ------ -------- ----- --- ------ ----- --<br>----- ----- ---------- --- --- ------ ------ ---- -- ------<br>------- --- ------ ----- --- ---- ------- -- ---- --- --<br>------- ------,211244.89999999944,211239.59999999963,210766.13,210765.59999999963,210782.797,211249.473,,15,In
screen,html.Screen,2_1_1_1_16,2022-02-01T12:32:58.703Z,,,,,,,,,,,,,,,,,54,,,,,,,,,,,,,,407.92699999944307,,response,,,,100,,,,,,,Space,keypress(Space),,,,,,,,"-- --- ---- --- ------ ----- ------- ---- -- --- ------- --<br>------- ---------- ------ -- 1727, -- ----- -- ---- ------<br>--- ----- --- --- ------ -------- ----- --- ------ ----- --<br>----- ----- ---------- --- --- ------ ------ ---- -- ------<br>------- --- ------ ----- --- ---- ------- -- ---- --- --<br>------- ------",211661.89999999944,211657.39999999944,211232.806,211245.19999999925,211249.473,211666.148,,16,"1727,"
screen,html.Screen,2_1_1_1_17,2022-02-01T12:33:00.272Z,,,,,,,,,,,,,,,,,54,,,,,,,,,,,,,,1560.1519999998272,,response,,,,100,,,,,,,Space,keypress(Space),,,,,,,,-- --- ---- --- ------ ----- ------- ---- -- --- ------- --<br>------- ---------- ------ -- ----- in ----- -- ---- ------<br>--- ----- --- --- ------ -------- ----- --- ------ ----- --<br>----- ----- ---------- --- --- ------ ------ ---- -- ------<br>------- --- ------ ----- --- ---- ------- -- ---- --- --<br>------- ------,213230.59999999963,213226.2999999998,211649.481,211662.09999999963,211666.148,213232.846,,17,in
screen,html.Screen,2_1_1_1_18,2022-02-01T12:33:00.680Z,,,,,,,,,,,,,,,,,54,,,,,,,,,,,,,,399.55399999945075,,response,,,,100,,,,,,,Space,keypress(Space),,,,,,,,-- --- ---- --- ------ ----- ------- ---- -- --- ------- --<br>------- ---------- ------ -- ----- -- order -- ---- ------<br>--- ----- --- --- ------ -------- ----- --- ------ ----- --<br>----- ----- ---------- --- --- ------ ------ ---- -- ------<br>------- --- ------ ----- --- ---- ------- -- ---- --- --<br>------- ------,213638.39999999944,213632.39999999944,213216.179,213230.7999999998,213232.846,213649.521,,18,order
screen,html.Screen,2_1_1_1_19,2022-02-01T12:33:01.112Z,,,,,,,,,,,,,,,,,54,,,,,,,,,,,,,,414.9789999999921,,response,,,,100,,,,,,,Space,keypress(Space),,,,,,,,-- --- ---- --- ------ ----- ------- ---- -- --- ------- --<br>------- ---------- ------ -- ----- -- ----- to ---- ------<br>--- ----- --- --- ------ -------- ----- --- ------ ----- --<br>----- ----- ---------- --- --- ------ ------ ---- -- ------<br>------- --- ------ ----- --- ---- ------- -- ---- --- --<br>------- ------,214070.2999999998,214064.5,213632.854,213638.59999999963,213649.521,214082.863,,19,to
screen,html.Screen,2_1_1_1_20,2022-02-01T12:33:01.619Z,,,,,,,,,,,,,,,,,54,,,,,,,,,,,,,,489.6369999999879,,response,,,,100,,,,,,,Space,keypress(Space),,,,,,,,-- --- ---- --- ------ ----- ------- ---- -- --- ------- --<br>------- ---------- ------ -- ----- -- ----- -- save ------<br>--- ----- --- --- ------ -------- ----- --- ------ ----- --<br>----- ----- ---------- --- --- ------ ------ ---- -- ------<br>------- --- ------ ----- --- ---- ------- -- ---- --- --<br>------- ------,214577.7999999998,214572.5,214066.196,214070.59999999963,214082.863,214582.873,,20,save
screen,html.Screen,2_1_1_1_21,2022-02-01T12:33:02.358Z,,,,,,,,,,,,,,,,,54,,,,,,,,,,,,,,725.9269999998214,,response,,,,100,,,,,,,Space,keypress(Space),,,,,,,,"-- --- ---- --- ------ ----- ------- ---- -- --- ------- --<br>------- ---------- ------ -- ----- -- ----- -- ---- money,<br>--- ----- --- --- ------ -------- ----- --- ------ ----- --<br>----- ----- ---------- --- --- ------ ------ ---- -- ------<br>------- --- ------ ----- --- ---- ------- -- ---- --- --<br>------- ------",215316.19999999925,215308.7999999998,214566.206,214578.09999999963,214582.873,215332.888,,21,"money,"
screen,html.Screen,2_1_1_1_22,2022-02-01T12:33:02.790Z,,,,,,,,,,,,,,,,,54,,,,,,,,,,,,,,409.81199999924866,,response,,,,100,,,,,,,Space,keypress(Space),,,,,,,,-- --- ---- --- ------ ----- ------- ---- -- --- ------- --<br>------- ---------- ------ -- ----- -- ----- -- ---- ------<br>the ----- --- --- ------ -------- ----- --- ------ ----- --<br>----- ----- ---------- --- --- ------ ------ ---- -- ------<br>------- --- ------ ----- --- ---- ------- -- ---- --- --<br>------- ------,215748.19999999925,215742.69999999925,215316.221,215316.39999999944,215332.888,215749.814,,22,the
screen,html.Screen,2_1_1_1_23,2022-02-01T12:33:03.204Z,,,,,,,,,,,,,,,,,54,,,,,,,,,,,,,,407.8859999992419,,response,,,,100,,,,,,,Space,keypress(Space),,,,,,,,-- --- ---- --- ------ ----- ------- ---- -- --- ------- --<br>------- ---------- ------ -- ----- -- ----- -- ---- ------<br>--- state --- --- ------ -------- ----- --- ------ ----- --<br>----- ----- ---------- --- --- ------ ------ ---- -- ------<br>------- --- ------ ----- --- ---- ------- -- ---- --- --<br>------- ------,216163.09999999963,216157.69999999925,215733.147,215748.59999999963,215749.814,216166.489,,23,state
screen,html.Screen,2_1_1_1_24,2022-02-01T12:33:03.590Z,,,,,,,,,,,,,,,,,54,,,,,,,,,,,,,,376.1109999996261,,response,,,,100,,,,,,,Space,keypress(Space),,,,,,,,-- --- ---- --- ------ ----- ------- ---- -- --- ------- --<br>------- ---------- ------ -- ----- -- ----- -- ---- ------<br>--- ----- cut --- ------ -------- ----- --- ------ ----- --<br>----- ----- ---------- --- --- ------ ------ ---- -- ------<br>------- --- ------ ----- --- ---- ------- -- ---- --- --<br>------- ------,216548.19999999925,216542.59999999963,216149.822,216163.2999999998,216166.489,216549.83,,24,cut
screen,html.Screen,2_1_1_1_25,2022-02-01T12:33:03.974Z,,,,,,,,,,,,,,,,,54,,,,,,,,,,,,,,377.069999999454,,response,,,,100,,,,,,,Space,keypress(Space),,,,,,,,-- --- ---- --- ------ ----- ------- ---- -- --- ------- --<br>------- ---------- ------ -- ----- -- ----- -- ---- ------<br>--- ----- --- the ------ -------- ----- --- ------ ----- --<br>----- ----- ---------- --- --- ------ ------ ---- -- ------<br>------- --- ------ ----- --- ---- ------- -- ---- --- --<br>------- ------,216932.5,216926.89999999944,216533.163,216548.5,216549.83,216949.838,,25,the
screen,html.Screen,2_1_1_1_26,2022-02-01T12:33:04.362Z,,,,,,,,,,,,,,,,,54,,,,,,,,,,,,,,365.8619999992661,,response,,,,100,,,,,,,Space,keypress(Space),,,,,,,,-- --- ---- --- ------ ----- ------- ---- -- --- ------- --<br>------- ---------- ------ -- ----- -- ----- -- ---- ------<br>--- ----- --- --- bonds' -------- ----- --- ------ ----- --<br>----- ----- ---------- --- --- ------ ------ ---- -- ------<br>------- --- ------ ----- --- ---- ------- -- ---- --- --<br>------- ------,217321.09999999963,217315.69999999925,216933.171,216932.69999999925,216949.838,217333.179,,26,bonds'
screen,html.Screen,2_1_1_1_27,2022-02-01T12:33:04.775Z,,,,,,,,,,,,,,,,,54,,,,,,,,,,,,,,395.2209999994375,,response,,,,100,,,,,,,Space,keypress(Space),,,,,,,,-- --- ---- --- ------ ----- ------- ---- -- --- ------- --<br>------- ---------- ------ -- ----- -- ----- -- ---- ------<br>--- ----- --- --- ------ interest ----- --- ------ ----- --<br>----- ----- ---------- --- --- ------ ------ ---- -- ------<br>------- --- ------ ----- --- ---- ------- -- ---- --- --<br>------- ------,217733.39999999944,217728.39999999944,217316.512,217321.5,217333.179,217749.854,,27,interest
screen,html.Screen,2_1_1_1_28,2022-02-01T12:33:05.179Z,,,,,,,,,,,,,,,,,54,,,,,,,,,,,,,,382.94599999982165,,response,,,,100,,,,,,,Space,keypress(Space),,,,,,,,-- --- ---- --- ------ ----- ------- ---- -- --- ------- --<br>------- ---------- ------ -- ----- -- ----- -- ---- ------<br>--- ----- --- --- ------ -------- rate. --- ------ ----- --<br>----- ----- ---------- --- --- ------ ------ ---- -- ------<br>------- --- ------ ----- --- ---- ------- -- ---- --- --<br>------- ------,218138.19999999925,218132.7999999998,217733.187,217733.59999999963,217749.854,218149.862,,28,rate.
screen,html.Screen,2_1_1_1_29,2022-02-01T12:33:05.819Z,,,,,,,,,,,,,,,,,54,,,,,,,,,,,,,,622.0379999994475,,response,,,,100,,,,,,,Space,keypress(Space),,,,,,,,-- --- ---- --- ------ ----- ------- ---- -- --- ------- --<br>------- ---------- ------ -- ----- -- ----- -- ---- ------<br>--- ----- --- --- ------ -------- ----- The ------ ----- --<br>----- ----- ---------- --- --- ------ ------ ---- -- ------<br>------- --- ------ ----- --- ---- ------- -- ---- --- --<br>------- ------,218777.39999999944,218771.89999999944,218133.195,218138.5,218149.862,218783.208,,29,The
screen,html.Screen,2_1_1_1_30,2022-02-01T12:33:06.200Z,,,,,,,,,,,,,,,,,54,,,,,,,,,,,,,,369.69199999942794,,response,,,,100,,,,,,,Space,keypress(Space),,,,,,,,-- --- ---- --- ------ ----- ------- ---- -- --- ------- --<br>------- ---------- ------ -- ----- -- ----- -- ---- ------<br>--- ----- --- --- ------ -------- ----- --- market ----- --<br>----- ----- ---------- --- --- ------ ------ ---- -- ------<br>------- --- ------ ----- --- ---- ------- -- ---- --- --<br>------- ------,219158.5,219152.89999999944,218766.541,218777.7999999998,218783.208,219166.549,,30,market
screen,html.Screen,2_1_1_1_31,2022-02-01T12:33:06.618Z,,,,,,,,,,,,,,,,,54,,,,,,,,,,,,,,404.35099999944214,,response,,,,100,,,,,,,Space,keypress(Space),,,,,,,,-- --- ---- --- ------ ----- ------- ---- -- --- ------- --<br>------- ---------- ------ -- ----- -- ----- -- ---- ------<br>--- ----- --- --- ------ -------- ----- --- ------ value --<br>----- ----- ---------- --- --- ------ ------ ---- -- ------<br>------- --- ------ ----- --- ---- ------- -- ---- --- --<br>------- ------,219576.2999999998,219570.89999999944,219149.882,219158.89999999944,219166.549,219583.224,,31,value
screen,html.Screen,2_1_1_1_32,2022-02-01T12:33:07.017Z,,,,,,,,,,,,,,,,,54,,,,,,,,,,,,,,387.37599999964004,,response,,,,100,,,,,,,Space,keypress(Space),,,,,,,,-- --- ---- --- ------ ----- ------- ---- -- --- ------- --<br>------- ---------- ------ -- ----- -- ----- -- ---- ------<br>--- ----- --- --- ------ -------- ----- --- ------ ----- of<br>----- ----- ---------- --- --- ------ ------ ---- -- ------<br>------- --- ------ ----- --- ---- ------- -- ---- --- --<br>------- ------,219976.09999999963,219970.59999999963,219566.557,219576.59999999963,219583.224,219983.232,,32,of
screen,html.Screen,2_1_1_1_33,2022-02-01T12:33:07.618Z,,,,,,,,,,,,,,,,,54,,,,,,,,,,,,,,588.1679999994521,,response,,,,100,,,,,,,Space,keypress(Space),,,,,,,,-- --- ---- --- ------ ----- ------- ---- -- --- ------- --<br>------- ---------- ------ -- ----- -- ----- -- ---- ------<br>--- ----- --- --- ------ -------- ----- --- ------ ----- --<br>these ----- ---------- --- --- ------ ------ ---- -- ------<br>------- --- ------ ----- --- ---- ------- -- ---- --- --<br>------- ------,220576.5,220571.39999999944,219966.565,219976.39999999944,219983.232,220583.244,,33,these
screen,html.Screen,2_1_1_1_34,2022-02-01T12:33:07.983Z,,,,,,,,,,,,,,,,,54,,,,,,,,,,,,,,353.3559999996214,,response,,,,100,,,,,,,Space,keypress(Space),,,,,,,,-- --- ---- --- ------ ----- ------- ---- -- --- ------- --<br>------- ---------- ------ -- ----- -- ----- -- ---- ------<br>--- ----- --- --- ------ -------- ----- --- ------ ----- --<br>----- bonds ---------- --- --- ------ ------ ---- -- ------<br>------- --- ------ ----- --- ---- ------- -- ---- --- --<br>------- ------,220942.09999999963,220936.59999999963,220566.577,220576.69999999925,220583.244,220949.918,,34,bonds
screen,html.Screen,2_1_1_1_35,2022-02-01T12:33:08.370Z,,,,,,,,,,,,,,,,,54,,,,,,,,,,,,,,373.5819999999949,,response,,,,100,,,,,,,Space,keypress(Space),,,,,,,,"-- --- ---- --- ------ ----- ------- ---- -- --- ------- --<br>------- ---------- ------ -- ----- -- ----- -- ---- ------<br>--- ----- --- --- ------ -------- ----- --- ------ ----- --<br>----- ----- plummeted, --- --- ------ ------ ---- -- ------<br>------- --- ------ ----- --- ---- ------- -- ---- --- --<br>------- ------",221328.7999999998,221323.5,220933.251,220942.5,220949.918,221333.259,,35,"plummeted,"
screen,html.Screen,2_1_1_1_36,2022-02-01T12:33:08.738Z,,,,,,,,,,,,,,,,,54,,,,,,,,,,,,,,358.440999999264,,response,,,,100,,,,,,,Space,keypress(Space),,,,,,,,-- --- ---- --- ------ ----- ------- ---- -- --- ------- --<br>------- ---------- ------ -- ----- -- ----- -- ---- ------<br>--- ----- --- --- ------ -------- ----- --- ------ ----- --<br>----- ----- ---------- and --- ------ ------ ---- -- ------<br>------- --- ------ ----- --- ---- ------- -- ---- --- --<br>------- ------,221697.19999999925,221691.69999999925,221316.592,221329.09999999963,221333.259,221699.933,,36,and
screen,html.Screen,2_1_1_1_37,2022-02-01T12:33:09.074Z,,,,,,,,,,,,,,,,,54,,,,,,,,,,,,,,327.76699999926495,,response,,,,100,,,,,,,Space,keypress(Space),,,,,,,,-- --- ---- --- ------ ----- ------- ---- -- --- ------- --<br>------- ---------- ------ -- ----- -- ----- -- ---- ------<br>--- ----- --- --- ------ -------- ----- --- ------ ----- --<br>----- ----- ---------- --- the ------ ------ ---- -- ------<br>------- --- ------ ----- --- ---- ------- -- ---- --- --<br>------- ------,222033.39999999944,222027.69999999925,221683.266,221697.39999999944,221699.933,222049.94,,37,the
screen,html.Screen,2_1_1_1_38,2022-02-01T12:33:09.415Z,,,,,,,,,,,,,,,,,54,,,,,,,,,,,,,,318.8599999998114,,response,,,,100,,,,,,,Space,keypress(Space),,,,,,,,-- --- ---- --- ------ ----- ------- ---- -- --- ------- --<br>------- ---------- ------ -- ----- -- ----- -- ---- ------<br>--- ----- --- --- ------ -------- ----- --- ------ ----- --<br>----- ----- ---------- --- --- market ------ ---- -- ------<br>------- --- ------ ----- --- ---- ------- -- ---- --- --<br>------- ------,222374.19999999925,222368.7999999998,222033.273,222033.59999999963,222049.94,222383.28,,38,market
screen,html.Screen,2_1_1_1_39,2022-02-01T12:33:09.780Z,,,,,,,,,,,,,,,,,54,,,,,,,,,,,,,,350.5199999998149,,response,,,,100,,,,,,,Space,keypress(Space),,,,,,,,-- --- ---- --- ------ ----- ------- ---- -- --- ------- --<br>------- ---------- ------ -- ----- -- ----- -- ---- ------<br>--- ----- --- --- ------ -------- ----- --- ------ ----- --<br>----- ----- ---------- --- --- ------ became ---- -- ------<br>------- --- ------ ----- --- ---- ------- -- ---- --- --<br>------- ------,222739.2999999998,222733.7999999998,222366.613,222374.39999999944,222383.28,222749.954,,39,became
screen,html.Screen,2_1_1_1_40,2022-02-01T12:33:10.130Z,,,,,,,,,,,,,,,,,54,,,,,,,,,,,,,,333.64599999962957,,response,,,,100,,,,,,,Space,keypress(Space),,,,,,,,-- --- ---- --- ------ ----- ------- ---- -- --- ------- --<br>------- ---------- ------ -- ----- -- ----- -- ---- ------<br>--- ----- --- --- ------ -------- ----- --- ------ ----- --<br>----- ----- ---------- --- --- ------ ------ wary -- ------<br>------- --- ------ ----- --- ---- ------- -- ---- --- --<br>------- ------,223089.19999999925,223083.59999999963,222733.287,222739.59999999963,222749.954,223099.961,,40,wary
screen,html.Screen,2_1_1_1_41,2022-02-01T12:33:10.494Z,,,,,,,,,,,,,,,,,54,,,,,,,,,,,,,,347.93899999943096,,response,,,,100,,,,,,,Space,keypress(Space),,,,,,,,-- --- ---- --- ------ ----- ------- ---- -- --- ------- --<br>------- ---------- ------ -- ----- -- ----- -- ---- ------<br>--- ----- --- --- ------ -------- ----- --- ------ ----- --<br>----- ----- ---------- --- --- ------ ------ ---- of ------<br>------- --- ------ ----- --- ---- ------- -- ---- --- --<br>------- ------,223453.19999999925,223447.89999999944,223083.294,223089.39999999944,223099.961,223466.635,,41,of
screen,html.Screen,2_1_1_1_42,2022-02-01T12:33:10.899Z,,,,,,,,,,,,,,,,,54,,,,,,,,,,,,,,386.06499999924563,,response,,,,100,,,,,,,Space,keypress(Space),,,,,,,,-- --- ---- --- ------ ----- ------- ---- -- --- ------- --<br>------- ---------- ------ -- ----- -- ----- -- ---- ------<br>--- ----- --- --- ------ -------- ----- --- ------ ----- --<br>----- ----- ---------- --- --- ------ ------ ---- -- French<br>------- --- ------ ----- --- ---- ------- -- ---- --- --<br>------- ------,223858.09999999963,223852.69999999925,223449.968,223453.59999999963,223466.635,223866.643,,42,French
screen,html.Screen,2_1_1_1_43,2022-02-01T12:33:11.274Z,,,,,,,,,,,,,,,,,54,,,,,,,,,,,,,,361.25699999943026,,response,,,,100,,,,,,,Space,keypress(Space),,,,,,,,-- --- ---- --- ------ ----- ------- ---- -- --- ------- --<br>------- ---------- ------ -- ----- -- ----- -- ---- ------<br>--- ----- --- --- ------ -------- ----- --- ------ ----- --<br>----- ----- ---------- --- --- ------ ------ ---- -- ------<br>credit. --- ------ ----- --- ---- ------- -- ---- --- --<br>------- ------,224232.69999999925,224227.89999999944,223849.976,223858.2999999998,223866.643,224249.984,,43,credit.
screen,html.Screen,2_1_1_1_44,2022-02-01T12:33:11.810Z,,,,,,,,,,,,,,,,,54,,,,,,,,,,,,,,513.0160000000033,,response,,,,100,,,,,,,Space,keypress(Space),,,,,,,,-- --- ---- --- ------ ----- ------- ---- -- --- ------- --<br>------- ---------- ------ -- ----- -- ----- -- ---- ------<br>--- ----- --- --- ------ -------- ----- --- ------ ----- --<br>----- ----- ---------- --- --- ------ ------ ---- -- ------<br>------- The ------ ----- --- ---- ------- -- ---- --- --<br>------- ------,224768.59999999963,224763,224233.317,224233.09999999963,224249.984,224783.328,,44,The
screen,html.Screen,2_1_1_1_45,2022-02-01T12:33:12.126Z,,,,,,,,,,,,,,,,,54,,,,,,,,,,,,,,296.4719999998051,,response,,,,100,,,,,,,Space,keypress(Space),,,,,,,,-- --- ---- --- ------ ----- ------- ---- -- --- ------- --<br>------- ---------- ------ -- ----- -- ----- -- ---- ------<br>--- ----- --- --- ------ -------- ----- --- ------ ----- --<br>----- ----- ---------- --- --- ------ ------ ---- -- ------<br>------- --- French ----- --- ---- ------- -- ---- --- --<br>------- ------,225085.09999999963,225079.7999999998,224766.661,224768.7999999998,224783.328,225100.001,,45,French
screen,html.Screen,2_1_1_1_46,2022-02-01T12:33:12.490Z,,,,,,,,,,,,,,,,,54,,,,,,,,,,,,,,341.9990000000107,,response,,,,100,,,,,,,Space,keypress(Space),,,,,,,,-- --- ---- --- ------ ----- ------- ---- -- --- ------- --<br>------- ---------- ------ -- ----- -- ----- -- ---- ------<br>--- ----- --- --- ------ -------- ----- --- ------ ----- --<br>----- ----- ---------- --- --- ------ ------ ---- -- ------<br>------- --- ------ state --- ---- ------- -- ---- --- --<br>------- ------,225449.19999999925,225442,225083.334,225085.39999999944,225100.001,225450.221,,46,state
screen,html.Screen,2_1_1_1_47,2022-02-01T12:33:12.878Z,,,,,,,,,,,,,,,,,54,,,,,,,,,,,,,,381.67899999945075,,response,,,,100,,,,,,,Space,keypress(Space),,,,,,,,-- --- ---- --- ------ ----- ------- ---- -- --- ------- --<br>------- ---------- ------ -- ----- -- ----- -- ---- ------<br>--- ----- --- --- ------ -------- ----- --- ------ ----- --<br>----- ----- ---------- --- --- ------ ------ ---- -- ------<br>------- --- ------ ----- was ---- ------- -- ---- --- --<br>------- ------,225837,225831.89999999944,225433.554,225449.5,225450.221,225850.229,,47,was
screen,html.Screen,2_1_1_1_48,2022-02-01T12:33:13.252Z,,,,,,,,,,,,,,,,,54,,,,,,,,,,,,,,355.57099999982165,,response,,,,100,,,,,,,Space,keypress(Space),,,,,,,,-- --- ---- --- ------ ----- ------- ---- -- --- ------- --<br>------- ---------- ------ -- ----- -- ----- -- ---- ------<br>--- ----- --- --- ------ -------- ----- --- ------ ----- --<br>----- ----- ---------- --- --- ------ ------ ---- -- ------<br>------- --- ------ ----- --- left ------- -- ---- --- --<br>------- ------,226211.09999999963,226205.7999999998,225833.562,225837.39999999944,225850.229,226216.903,,48,left
screen,html.Screen,2_1_1_1_49,2022-02-01T12:33:13.608Z,,,,,,,,,,,,,,,,,54,,,,,,,,,,,,,,344.8969999998226,,response,,,,100,,,,,,,Space,keypress(Space),,,,,,,,-- --- ---- --- ------ ----- ------- ---- -- --- ------- --<br>------- ---------- ------ -- ----- -- ----- -- ---- ------<br>--- ----- --- --- ------ -------- ----- --- ------ ----- --<br>----- ----- ---------- --- --- ------ ------ ---- -- ------<br>------- --- ------ ----- --- ---- without -- ---- --- --<br>------- ------,226567,226561.7999999998,226200.236,226211.2999999998,226216.903,226583.577,,49,without
screen,html.Screen,2_1_1_1_50,2022-02-01T12:33:13.998Z,,,,,,,,,,,,,,,,,54,,,,,,,,,,,,,,367.9230000000098,,response,,,,100,,,,,,,Space,keypress(Space),,,,,,,,-- --- ---- --- ------ ----- ------- ---- -- --- ------- --<br>------- ---------- ------ -- ----- -- ----- -- ---- ------<br>--- ----- --- --- ------ -------- ----- --- ------ ----- --<br>----- ----- ---------- --- --- ------ ------ ---- -- ------<br>------- --- ------ ----- --- ---- ------- an ---- --- --<br>------- ------,226957.09999999963,226951.5,226566.91,226567.2999999998,226583.577,226966.918,,50,an
screen,html.Screen,2_1_1_1_51,2022-02-01T12:33:14.388Z,,,,,,,,,,,,,,,,,54,,,,,,,,,,,,,,375.0819999999949,,response,,,,100,,,,,,,Space,keypress(Space),,,,,,,,-- --- ---- --- ------ ----- ------- ---- -- --- ------- --<br>------- ---------- ------ -- ----- -- ----- -- ---- ------<br>--- ----- --- --- ------ -------- ----- --- ------ ----- --<br>----- ----- ---------- --- --- ------ ------ ---- -- ------<br>------- --- ------ ----- --- ---- ------- -- easy --- --<br>------- ------,227347.09999999963,227342,226950.251,226957.39999999944,226966.918,227350.259,,51,easy
screen,html.Screen,2_1_1_1_52,2022-02-01T12:33:14.811Z,,,,,,,,,,,,,,,,,54,,,,,,,,,,,,,,414.5409999998228,,response,,,,100,,,,,,,Space,keypress(Space),,,,,,,,-- --- ---- --- ------ ----- ------- ---- -- --- ------- --<br>------- ---------- ------ -- ----- -- ----- -- ---- ------<br>--- ----- --- --- ------ -------- ----- --- ------ ----- --<br>----- ----- ---------- --- --- ------ ------ ---- -- ------<br>------- --- ------ ----- --- ---- ------- -- ---- way --<br>------- ------,227770.09999999963,227764.7999999998,227333.592,227347.39999999944,227350.259,227783.601,,52,way
screen,html.Screen,2_1_1_1_53,2022-02-01T12:33:15.244Z,,,,,,,,,,,,,,,,,54,,,,,,,,,,,,,,413.99899999963236,,response,,,,100,,,,,,,Space,keypress(Space),,,,,,,,-- --- ---- --- ------ ----- ------- ---- -- --- ------- --<br>------- ---------- ------ -- ----- -- ----- -- ---- ------<br>--- ----- --- --- ------ -------- ----- --- ------ ----- --<br>----- ----- ---------- --- --- ------ ------ ---- -- ------<br>------- --- ------ ----- --- ---- ------- -- ---- --- of<br>------- ------,228202.69999999925,228197.59999999963,227766.934,227770.5,227783.601,228216.943,,53,of
screen,html.Screen,2_1_1_1_54,2022-02-01T12:33:15.689Z,,,,,,,,,,,,,,,,,54,,,,,,,,,,,,,,425.0570000000007,,response,,,,100,,,,,,,Space,keypress(Space),,,,,,,,-- --- ---- --- ------ ----- ------- ---- -- --- ------- --<br>------- ---------- ------ -- ----- -- ----- -- ---- ------<br>--- ----- --- --- ------ -------- ----- --- ------ ----- --<br>----- ----- ---------- --- --- ------ ------ ---- -- ------<br>------- --- ------ ----- --- ---- ------- -- ---- --- --<br>raising ------,228647.59999999963,228642,228200.276,228203,228216.943,228650.285,,54,raising
screen,html.Screen,2_1_1_1_55,2022-02-01T12:33:17.560Z,,,,,,,,,,,,,,,,,54,,,,,,,,,,,,,,1863.4149999992514,,response,,,,100,,,,,,,Space,keypress(Space),,,,,,,,-- --- ---- --- ------ ----- ------- ---- -- --- ------- --<br>------- ---------- ------ -- ----- -- ----- -- ---- ------<br>--- ----- --- --- ------ -------- ----- --- ------ ----- --<br>----- ----- ---------- --- --- ------ ------ ---- -- ------<br>------- --- ------ ----- --- ---- ------- -- ---- --- --<br>------- money.,230519.39999999944,230513.69999999925,228633.618,228648,228650.285,230533.656,,55,money.
Item 100,flow.Loop,2_1_1_1,2022-02-01T12:33:17.561Z,,,,,,,,,,,,,,,,,,,,,,,,,,,,,,,26281.15699999925,,completion,,,,,B,,,,,,,,,,,silence,,,,,230519.89999999944,230513.69999999925,204215.876,204217.89999999944,204232.543,230533.656,,,
Question 1,html.Screen,2_1_1_2,2022-02-01T12:33:21.310Z,,,,,,,,,,,,,,,,,,,,,,,,,,,,true,TRUE,,3732.344000000012,,response,,,,100,B,,,,,,TRUE,click #choice-1,,,,silence,,,,,234268.89999999944,234266,230516.989,230520.09999999963,230533.656,234283.731,,,
Question 2,html.Screen,2_1_1_3,2022-02-01T12:33:23.810Z,,,,,,,,,,,,,,,,,,,,,,,,,,,,true,FALSE,,2483.068999999814,,response,,,,100,B,,,,,,FALSE,click #choice-2,,,,silence,,,,,236769.39999999944,236766.7999999998,234267.064,234269.19999999925,234283.731,236783.946,,,
Item 100,flow.Sequence,2_1_1,2022-02-01T12:33:23.810Z,,,,,,,,,,,,,,,,,,,,,,,,,,,,,,,42534.54699999982,,completion,,,,,,,,,,,,,,,,,,,,,236769.69999999925,236766.7999999998,194215.586,194223,194232.253,236783.946,,,
End of Practice,html.Page,2_1_2,2022-02-01T12:33:28.283Z,,,,,,,,,,,,,,,,,,,,,,,,,,,,,,,4458.253999999259,,form submission,,,,,,,,,,,,,,,,,,,,,241242.59999999963,241242.19999999925,236767.279,236769.7999999998,236783.946,241250.702,,,
Practice,flow.Sequence,2_1,2022-02-01T12:33:28.283Z,,,,,,,,,,,,,,,,,,,,,,,,,,,,,,,87928.51699999926,,completion,,,,,,,,,,,,,,,,,,,,,241243,241242.19999999925,153297.016,153310.39999999944,153313.683,241250.702,,,
Trap_instruction,html.Page,2_2_0,2022-02-01T12:33:33.090Z,,,,,,,,,,,,,,,,,,,,,,,,,,,,,,,4798.29800000001,,form submission,,,,,,,,,,,,,,,,,,,,,246049.29999999888,246049,241234.035,241243.29999999888,241250.702,246067.465,,,
trap_trial,html.Screen,2_2_1,2022-02-01T12:33:37.196Z,,,,,,,,,,,,,,,,,,,,,,,,,,,,true,1,,4084.134999999631,,response,,,,,,,,,,,1,click #choice-1,,,,,,,,,250155.5,250151.59999999963,246034.131,246049.5,246067.465,250167.634,,,
end of trap trial,html.Page,2_2_2,2022-02-01T12:33:39.306Z,,,,,,,,,,,,,,,,,,,,,,,,,,,,,,,2097.565999999264,,form submission,,,,,,,,,,,,,,,,,,,,,252265.59999999963,252265.19999999925,250150.967,250155.59999999963,250167.634,252267.676,,,
Trap 1,flow.Sequence,2_2,2022-02-01T12:33:39.306Z,,,,,,,,,,,,,,,,,,,,,,,,,,,,,,,11014.497999999265,,completion,,,,,,,,,,,,,,,,,,,,,252265.79999999888,252265.19999999925,241234.035,241243.09999999963,241250.702,252267.676,,,
Standby,html.Page,2_3_0,2022-02-01T12:33:47.293Z,,,,,,,,,,,,,,,,,,,,,,,,,,,,,,,8000.1600000000035,,timeout,,,,,,,,,,,,,,,,,,,,,260253.59999999963,260251.169,252251.009,252266,252267.676,260267.836,,,
Holding screen,html.Screen,2_3_1_0_0,2022-02-01T12:33:54.293Z,,,,,,,,,,,,,,,,,,,,,,,,,,,,,,,7000.344999999972,,timeout,,,,,,,,,,,,,,,,,,,,,267253.7999999989,267251.514,260251.169,260254,260267.836,267268.181,,,
screen,html.Screen,2_3_1_0_1_0,2022-02-01T12:33:55.097Z,,,,,,,,,,,,,,,,,51,,,,,,,,,,,,,,781.9189999996452,,response,,,,13,B,,,,,,Space,keypress(Space),,,,lyrical,,,,American -------- --- --- ---- --- --- ------ -- --------<br>---- --------- --- ------- ------------ ---------- ---------<br>--- ---------- ------- ---------- ------- -- -------- ----<br>---- --- ------ ----- ------ -- ---- --- ----- -- - -------<br>-------- -- --- --- -- ----- ----------- ----- -----------<br>---- --- ---------- --- ---- --- -- ----------,268057.7999999989,268050.0999999996,267251.514,267254.19999999925,267268.181,268068.197,,0,American
screen,html.Screen,2_3_1_0_1_1,2022-02-01T12:33:55.461Z,,,,,,,,,,,,,,,,,51,,,,,,,,,,,,,,347.80300000001444,,response,,,,13,B,,,,,,Space,keypress(Space),,,,lyrical,,,,-------- industry --- --- ---- --- --- ------ -- --------<br>---- --------- --- ------- ------------ ---------- ---------<br>--- ---------- ------- ---------- ------- -- -------- ----<br>---- --- ------ ----- ------ -- ---- --- ----- -- - -------<br>-------- -- --- --- -- ----- ----------- ----- -----------<br>---- --- ---------- --- ---- --- -- ----------,268421.69999999925,268416,268051.53,268058.0999999996,268068.197,268434.871,,1,industry
screen,html.Screen,2_3_1_0_1_2,2022-02-01T12:33:55.872Z,,,,,,,,,,,,,,,,,51,,,,,,,,,,,,,,392.4289999988978,,response,,,,13,B,,,,,,Space,keypress(Space),,,,lyrical,,,,-------- -------- may --- ---- --- --- ------ -- --------<br>---- --------- --- ------- ------------ ---------- ---------<br>--- ---------- ------- ---------- ------- -- -------- ----<br>---- --- ------ ----- ------ -- ---- --- ----- -- - -------<br>-------- -- --- --- -- ----- ----------- ----- -----------<br>---- --- ---------- --- ---- --- -- ----------,268833,268827.2999999989,268418.204,268422.0999999996,268434.871,268834.879,,2,may
screen,html.Screen,2_3_1_0_1_3,2022-02-01T12:33:56.244Z,,,,,,,,,,,,,,,,,51,,,,,,,,,,,,,,364.42099999886705,,response,,,,13,B,,,,,,Space,keypress(Space),,,,lyrical,,,,-------- -------- --- not ---- --- --- ------ -- --------<br>---- --------- --- ------- ------------ ---------- ---------<br>--- ---------- ------- ---------- ------- -- -------- ----<br>---- --- ------ ----- ------ -- ---- --- ----- -- - -------<br>-------- -- --- --- -- ----- ----------- ----- -----------<br>---- --- ---------- --- ---- --- -- ----------,269204.7999999989,269199.2999999989,268818.212,268833.19999999925,268834.879,269218.22,,3,not
screen,html.Screen,2_3_1_0_1_4,2022-02-01T12:33:56.583Z,,,,,,,,,,,,,,,,,51,,,,,,,,,,,,,,319.8799999996554,,response,,,,13,B,,,,,,Space,keypress(Space),,,,lyrical,,,,-------- -------- --- --- know --- --- ------ -- --------<br>---- --------- --- ------- ------------ ---------- ---------<br>--- ---------- ------- ---------- ------- -- -------- ----<br>---- --- ------ ----- ------ -- ---- --- ----- -- - -------<br>-------- -- --- --- -- ----- ----------- ----- -----------<br>---- --- ---------- --- ---- --- -- ----------,269543.9000000004,269538.0999999996,269201.553,269205.0999999996,269218.22,269551.56,,4,know
screen,html.Screen,2_3_1_0_1_5,2022-02-01T12:33:56.935Z,,,,,,,,,,,,,,,,,51,,,,,,,,,,,,,,338.5399999996298,,response,,,,13,B,,,,,,Space,keypress(Space),,,,lyrical,,,,"-------- -------- --- --- ---- it, --- ------ -- --------<br>---- --------- --- ------- ------------ ---------- ---------<br>--- ---------- ------- ---------- ------- -- -------- ----<br>---- --- ------ ----- ------ -- ---- --- ----- -- - -------<br>-------- -- --- --- -- ----- ----------- ----- -----------<br>---- --- ---------- --- ---- --- -- ----------",269895.5999999996,269890.0999999996,269534.893,269544.0999999996,269551.56,269901.567,,5,"it,"
screen,html.Screen,2_3_1_0_1_6,2022-02-01T12:33:57.334Z,,,,,,,,,,,,,,,,,51,,,,,,,,,,,,,,387.63299999927403,,response,,,,13,B,,,,,,Space,keypress(Space),,,,lyrical,,,,-------- -------- --- --- ---- --- but ------ -- --------<br>---- --------- --- ------- ------------ ---------- ---------<br>--- ---------- ------- ---------- ------- -- -------- ----<br>---- --- ------ ----- ------ -- ---- --- ----- -- - -------<br>-------- -- --- --- -- ----- ----------- ----- -----------<br>---- --- ---------- --- ---- --- -- ----------,270294.69999999925,270289.19999999925,269884.9,269895.9000000004,269901.567,270301.575,,6,but
screen,html.Screen,2_3_1_0_1_7,2022-02-01T12:33:57.677Z,,,,,,,,,,,,,,,,,51,,,,,,,,,,,,,,330.6249999992433,,response,,,,13,B,,,,,,Space,keypress(Space),,,,lyrical,,,,-------- -------- --- --- ---- --- --- debate -- --------<br>---- --------- --- ------- ------------ ---------- ---------<br>--- ---------- ------- ---------- ------- -- -------- ----<br>---- --- ------ ----- ------ -- ---- --- ----- -- - -------<br>-------- -- --- --- -- ----- ----------- ----- -----------<br>---- --- ---------- --- ---- --- -- ----------,270637.4000000004,270632.19999999925,270284.908,270295,270301.575,270651.582,,7,debate
screen,html.Screen,2_3_1_0_1_8,2022-02-01T12:33:58.001Z,,,,,,,,,,,,,,,,,51,,,,,,,,,,,,,,304.61799999926006,,response,,,,13,B,,,,,,Space,keypress(Space),,,,lyrical,,,,-------- -------- --- --- ---- --- --- ------ in --------<br>---- --------- --- ------- ------------ ---------- ---------<br>--- ---------- ------- ---------- ------- -- -------- ----<br>---- --- ------ ----- ------ -- ---- --- ----- -- - -------<br>-------- -- --- --- -- ----- ----------- ----- -----------<br>---- --- ---------- --- ---- --- -- ----------,270961.0999999996,270956.19999999925,270634.915,270637.69999999925,270651.582,270968.471,,8,in
screen,html.Screen,2_3_1_0_1_9,2022-02-01T12:33:58.368Z,,,,,,,,,,,,,,,,,51,,,,,,,,,,,,,,353.82899999886286,,response,,,,13,B,,,,,,Space,keypress(Space),,,,lyrical,,,,-------- -------- --- --- ---- --- --- ------ -- Congress<br>---- --------- --- ------- ------------ ---------- ---------<br>--- ---------- ------- ---------- ------- -- -------- ----<br>---- --- ------ ----- ------ -- ---- --- ----- -- - -------<br>-------- -- --- --- -- ----- ----------- ----- -----------<br>---- --- ---------- --- ---- --- -- ----------,271328.19999999925,271322.2999999989,270951.804,270961.2999999989,270968.471,271335.145,,9,Congress
screen,html.Screen,2_3_1_0_1_10,2022-02-01T12:33:58.764Z,,,,,,,,,,,,,,,,,51,,,,,,,,,,,,,,384.2550000003539,,response,,,,13,B,,,,,,Space,keypress(Space),,,,lyrical,,,,-------- -------- --- --- ---- --- --- ------ -- --------<br>over --------- --- ------- ------------ ---------- ---------<br>--- ---------- ------- ---------- ------- -- -------- ----<br>---- --- ------ ----- ------ -- ---- --- ----- -- - -------<br>-------- -- --- --- -- ----- ----------- ----- -----------<br>---- --- ---------- --- ---- --- -- ----------,271725,271719.4000000004,271318.478,271328.5999999996,271335.145,271735.153,,10,over
screen,html.Screen,2_3_1_0_1_11,2022-02-01T12:33:59.113Z,,,,,,,,,,,,,,,,,51,,,,,,,,,,,,,,332.9469999996363,,response,,,,13,B,,,,,,Space,keypress(Space),,,,lyrical,,,,-------- -------- --- --- ---- --- --- ------ -- --------<br>---- reforming --- ------- ------------ ---------- ---------<br>--- ---------- ------- ---------- ------- -- -------- ----<br>---- --- ------ ----- ------ -- ---- --- ----- -- - -------<br>-------- -- --- --- -- ----- ----------- ----- -----------<br>---- --- ---------- --- ---- --- -- ----------,272073.5,272068.0999999996,271718.486,271725.19999999925,271735.153,272085.16,,11,reforming
screen,html.Screen,2_3_1_0_1_12,2022-02-01T12:33:59.509Z,,,,,,,,,,,,,,,,,51,,,,,,,,,,,,,,378.9399999996531,,response,,,,13,B,,,,,,Space,keypress(Space),,,,lyrical,,,,-------- -------- --- --- ---- --- --- ------ -- --------<br>---- --------- the ------- ------------ ---------- ---------<br>--- ---------- ------- ---------- ------- -- -------- ----<br>---- --- ------ ----- ------ -- ---- --- ----- -- - -------<br>-------- -- --- --- -- ----- ----------- ----- -----------<br>---- --- ---------- --- ---- --- -- ----------,272469.9000000004,272464.0999999996,272068.493,272073.5999999996,272085.16,272485.168,,12,the
screen,html.Screen,2_3_1_0_1_13,2022-02-01T12:33:59.917Z,,,,,,,,,,,,,,,,,51,,,,,,,,,,,,,,387.0319999992498,,response,,,,13,B,,,,,,Space,keypress(Space),,,,lyrical,,,,-------- -------- --- --- ---- --- --- ------ -- --------<br>---- --------- --- federal ------------ ---------- ---------<br>--- ---------- ------- ---------- ------- -- -------- ----<br>---- --- ------ ----- ------ -- ---- --- ----- -- - -------<br>-------- -- --- --- -- ----- ----------- ----- -----------<br>---- --- ---------- --- ---- --- -- ----------,272877.7999999989,272872.19999999925,272468.501,272470.2999999989,272485.168,272885.176,,13,federal
screen,html.Screen,2_3_1_0_1_14,2022-02-01T12:34:00.303Z,,,,,,,,,,,,,,,,,51,,,,,,,,,,,,,,373.12399999890476,,response,,,,13,B,,,,,,Space,keypress(Space),,,,lyrical,,,,-------- -------- --- --- ---- --- --- ------ -- --------<br>---- --------- --- ------- government's ---------- ---------<br>--- ---------- ------- ---------- ------- -- -------- ----<br>---- --- ------ ----- ------ -- ---- --- ----- -- - -------<br>-------- -- --- --- -- ----- ----------- ----- -----------<br>---- --- ---------- --- ---- --- -- ----------,273264,273258.2999999989,272868.509,272878.0999999996,272885.176,273268.517,,14,government's
screen,html.Screen,2_3_1_0_1_15,2022-02-01T12:34:00.741Z,,,,,,,,,,,,,,,,,51,,,,,,,,,,,,,,427.88300000038,,response,,,,13,B,,,,,,Space,keypress(Space),,,,lyrical,,,,-------- -------- --- --- ---- --- --- ------ -- --------<br>---- --------- --- ------- ------------ regulatory ---------<br>--- ---------- ------- ---------- ------- -- -------- ----<br>---- --- ------ ----- ------ -- ---- --- ----- -- - -------<br>-------- -- --- --- -- ----- ----------- ----- -----------<br>---- --- ---------- --- ---- --- -- ----------,273702,273696.4000000004,273251.85,273264.19999999925,273268.517,273718.526,,15,regulatory
screen,html.Screen,2_3_1_0_1_16,2022-02-01T12:34:01.308Z,,,,,,,,,,,,,,,,,51,,,,,,,,,,,,,,544.87400000036,,response,,,,13,B,,,,,,Space,keypress(Space),,,,lyrical,,,,-------- -------- --- --- ---- --- --- ------ -- --------<br>---- --------- --- ------- ------------ ---------- apparatus<br>--- ---------- ------- ---------- ------- -- -------- ----<br>---- --- ------ ----- ------ -- ---- --- ----- -- - -------<br>-------- -- --- --- -- ----- ----------- ----- -----------<br>---- --- ---------- --- ---- --- -- ----------,274269,274263.4000000004,273701.859,273702.2999999989,273718.526,274285.204,,16,apparatus
screen,html.Screen,2_3_1_0_1_17,2022-02-01T12:34:01.813Z,,,,,,,,,,,,,,,,,51,,,,,,,,,,,,,,483.1960000003455,,response,,,,13,B,,,,,,Space,keypress(Space),,,,lyrical,,,,-------- -------- --- --- ---- --- --- ------ -- --------<br>---- --------- --- ------- ------------ ---------- ---------<br>may ---------- ------- ---------- ------- -- -------- ----<br>---- --- ------ ----- ------ -- ---- --- ----- -- - -------<br>-------- -- --- --- -- ----- ----------- ----- -----------<br>---- --- ---------- --- ---- --- -- ----------,274774.19999999925,274768.4000000004,274268.537,274269.19999999925,274285.204,274785.214,,17,may
screen,html.Screen,2_3_1_0_1_18,2022-02-01T12:34:02.165Z,,,,,,,,,,,,,,,,,51,,,,,,,,,,,,,,335.9859999992768,,response,,,,13,B,,,,,,Space,keypress(Space),,,,lyrical,,,,-------- -------- --- --- ---- --- --- ------ -- --------<br>---- --------- --- ------- ------------ ---------- ---------<br>--- profoundly ------- ---------- ------- -- -------- ----<br>---- --- ------ ----- ------ -- ---- --- ----- -- - -------<br>-------- -- --- --- -- ----- ----------- ----- -----------<br>---- --- ---------- --- ---- --- -- ----------,275125.7999999989,275121.19999999925,274768.547,274774.4000000004,274785.214,275135.221,,18,profoundly
screen,html.Screen,2_3_1_0_1_19,2022-02-01T12:34:02.576Z,,,,,,,,,,,,,,,,,51,,,,,,,,,,,,,,395.8789999996079,,response,,,,13,B,,,,,,Space,keypress(Space),,,,lyrical,,,,-------- -------- --- --- ---- --- --- ------ -- --------<br>---- --------- --- ------- ------------ ---------- ---------<br>--- ---------- improve ---------- ------- -- -------- ----<br>---- --- ------ ----- ------ -- ---- --- ----- -- - -------<br>-------- -- --- --- -- ----- ----------- ----- -----------<br>---- --- ---------- --- ---- --- -- ----------,275536.69999999925,275531.0999999996,275118.554,275126.0999999996,275135.221,275551.896,,19,improve
screen,html.Screen,2_3_1_0_1_20,2022-02-01T12:34:02.980Z,,,,,,,,,,,,,,,,,51,,,,,,,,,,,,,,383.4039999988745,,response,,,,13,B,,,,,,Space,keypress(Space),,,,lyrical,,,,-------- -------- --- --- ---- --- --- ------ -- --------<br>---- --------- --- ------- ------------ ---------- ---------<br>--- ---------- ------- companies' ------- -- -------- ----<br>---- --- ------ ----- ------ -- ---- --- ----- -- - -------<br>-------- -- --- --- -- ----- ----------- ----- -----------<br>---- --- ---------- --- ---- --- -- ----------,275940.5999999996,275935.2999999989,275535.229,275537,275551.896,275951.904,,20,companies'
screen,html.Screen,2_3_1_0_1_21,2022-02-01T12:34:03.375Z,,,,,,,,,,,,,,,,,51,,,,,,,,,,,,,,378.39599999890197,,response,,,,13,B,,,,,,Space,keypress(Space),,,,lyrical,,,,-------- -------- --- --- ---- --- --- ------ -- --------<br>---- --------- --- ------- ------------ ---------- ---------<br>--- ---------- ------- ---------- ability -- -------- ----<br>---- --- ------ ----- ------ -- ---- --- ----- -- - -------<br>-------- -- --- --- -- ----- ----------- ----- -----------<br>---- --- ---------- --- ---- --- -- ----------,276335.4000000004,276330.2999999989,275935.237,275940.9000000004,275951.904,276351.912,,21,ability
screen,html.Screen,2_3_1_0_1_22,2022-02-01T12:34:03.741Z,,,,,,,,,,,,,,,,,51,,,,,,,,,,,,,,344.5879999999888,,response,,,,13,B,,,,,,Space,keypress(Space),,,,lyrical,,,,-------- -------- --- --- ---- --- --- ------ -- --------<br>---- --------- --- ------- ------------ ---------- ---------<br>--- ---------- ------- ---------- ------- to -------- ----<br>---- --- ------ ----- ------ -- ---- --- ----- -- - -------<br>-------- -- --- --- -- ----- ----------- ----- -----------<br>---- --- ---------- --- ---- --- -- ----------,276702,276696.5,276335.245,276335.5999999996,276351.912,276718.586,,22,to
screen,html.Screen,2_3_1_0_1_23,2022-02-01T12:34:04.111Z,,,,,,,,,,,,,,,,,51,,,,,,,,,,,,,,347.6139999992447,,response,,,,13,B,,,,,,Space,keypress(Space),,,,lyrical,,,,-------- -------- --- --- ---- --- --- ------ -- --------<br>---- --------- --- ------- ------------ ---------- ---------<br>--- ---------- ------- ---------- ------- -- survive. ----<br>---- --- ------ ----- ------ -- ---- --- ----- -- - -------<br>-------- -- --- --- -- ----- ----------- ----- -----------<br>---- --- ---------- --- ---- --- -- ----------,277071.5999999996,277066.19999999925,276701.919,276702.2999999989,276718.586,277085.26,,23,survive.
screen,html.Screen,2_3_1_0_1_24,2022-02-01T12:34:04.505Z,,,,,,,,,,,,,,,,,51,,,,,,,,,,,,,,375.0399999988731,,response,,,,13,B,,,,,,Space,keypress(Space),,,,lyrical,,,,-------- -------- --- --- ---- --- --- ------ -- --------<br>---- --------- --- ------- ------------ ---------- ---------<br>--- ---------- ------- ---------- ------- -- -------- This<br>---- --- ------ ----- ------ -- ---- --- ----- -- - -------<br>-------- -- --- --- -- ----- ----------- ----- -----------<br>---- --- ---------- --- ---- --- -- ----------,277465.69999999925,277460.2999999989,277068.593,277072,277085.26,277468.601,,24,This
screen,html.Screen,2_3_1_0_1_25,2022-02-01T12:34:04.935Z,,,,,,,,,,,,,,,,,51,,,,,,,,,,,,,,421.5989999992307,,response,,,,13,B,,,,,,Space,keypress(Space),,,,lyrical,,,,-------- -------- --- --- ---- --- --- ------ -- --------<br>---- --------- --- ------- ------------ ---------- ---------<br>--- ---------- ------- ---------- ------- -- -------- ----<br>week --- ------ ----- ------ -- ---- --- ----- -- - -------<br>-------- -- --- --- -- ----- ----------- ----- -----------<br>---- --- ---------- --- ---- --- -- ----------,277895.5999999996,277890.19999999925,277451.934,277465.9000000004,277468.601,277901.943,,25,week
screen,html.Screen,2_3_1_0_1_26,2022-02-01T12:34:05.325Z,,,,,,,,,,,,,,,,,51,,,,,,,,,,,,,,377.356999998854,,response,,,,13,B,,,,,,Space,keypress(Space),,,,lyrical,,,,-------- -------- --- --- ---- --- --- ------ -- --------<br>---- --------- --- ------- ------------ ---------- ---------<br>--- ---------- ------- ---------- ------- -- -------- ----<br>---- the ------ ----- ------ -- ---- --- ----- -- - -------<br>-------- -- --- --- -- ----- ----------- ----- -----------<br>---- --- ---------- --- ---- --- -- ----------,278286.0999999996,278279.2999999989,277885.276,277896,277901.943,278301.951,,26,the
screen,html.Screen,2_3_1_0_1_27,2022-02-01T12:34:05.726Z,,,,,,,,,,,,,,,,,51,,,,,,,,,,,,,,379.4490000003716,,response,,,,13,B,,,,,,Space,keypress(Space),,,,lyrical,,,,-------- -------- --- --- ---- --- --- ------ -- --------<br>---- --------- --- ------- ------------ ---------- ---------<br>--- ---------- ------- ---------- ------- -- -------- ----<br>---- --- Senate ----- ------ -- ---- --- ----- -- - -------<br>-------- -- --- --- -- ----- ----------- ----- -----------<br>---- --- ---------- --- ---- --- -- ----------,278686.5999999996,278681.4000000004,278285.284,278286.19999999925,278301.951,278701.959,,27,Senate
screen,html.Screen,2_3_1_0_1_28,2022-02-01T12:34:06.133Z,,,,,,,,,,,,,,,,,51,,,,,,,,,,,,,,386.4410000003991,,response,,,,13,B,,,,,,Space,keypress(Space),,,,lyrical,,,,-------- -------- --- --- ---- --- --- ------ -- --------<br>---- --------- --- ------- ------------ ---------- ---------<br>--- ---------- ------- ---------- ------- -- -------- ----<br>---- --- ------ seems ------ -- ---- --- ----- -- - -------<br>-------- -- --- --- -- ----- ----------- ----- -----------<br>---- --- ---------- --- ---- --- -- ----------,279094.0999999996,279088.4000000004,278685.292,278686.9000000004,278701.959,279101.967,,28,seems
screen,html.Screen,2_3_1_0_1_29,2022-02-01T12:34:06.503Z,,,,,,,,,,,,,,,,,51,,,,,,,,,,,,,,356.73299999925075,,response,,,,13,B,,,,,,Space,keypress(Space),,,,lyrical,,,,-------- -------- --- --- ---- --- --- ------ -- --------<br>---- --------- --- ------- ------------ ---------- ---------<br>--- ---------- ------- ---------- ------- -- -------- ----<br>---- --- ------ ----- poised -- ---- --- ----- -- - -------<br>-------- -- --- --- -- ----- ----------- ----- -----------<br>---- --- ---------- --- ---- --- -- ----------,279464.0999999996,279458.69999999925,279085.3,279094.5,279101.967,279468.641,,29,poised
screen,html.Screen,2_3_1_0_1_30,2022-02-01T12:34:06.856Z,,,,,,,,,,,,,,,,,51,,,,,,,,,,,,,,342.5589999992517,,response,,,,13,B,,,,,,Space,keypress(Space),,,,lyrical,,,,-------- -------- --- --- ---- --- --- ------ -- --------<br>---- --------- --- ------- ------------ ---------- ---------<br>--- ---------- ------- ---------- ------- -- -------- ----<br>---- --- ------ ----- ------ to ---- --- ----- -- - -------<br>-------- -- --- --- -- ----- ----------- ----- -----------<br>---- --- ---------- --- ---- --- -- ----------,279816.5,279811.19999999925,279451.974,279464.4000000004,279468.641,279818.648,,30,to
screen,html.Screen,2_3_1_0_1_31,2022-02-01T12:34:07.214Z,,,,,,,,,,,,,,,,,51,,,,,,,,,,,,,,350.55199999926845,,response,,,,13,B,,,,,,Space,keypress(Space),,,,lyrical,,,,-------- -------- --- --- ---- --- --- ------ -- --------<br>---- --------- --- ------- ------------ ---------- ---------<br>--- ---------- ------- ---------- ------- -- -------- ----<br>---- --- ------ ----- ------ -- join --- ----- -- - -------<br>-------- -- --- --- -- ----- ----------- ----- -----------<br>---- --- ---------- --- ---- --- -- ----------,280174.69999999925,280169.19999999925,279801.981,279816.69999999925,279818.648,280185.322,,31,join
screen,html.Screen,2_3_1_0_1_32,2022-02-01T12:34:07.563Z,,,,,,,,,,,,,,,,,51,,,,,,,,,,,,,,333.2779999996419,,response,,,,13,B,,,,,,Space,keypress(Space),,,,lyrical,,,,-------- -------- --- --- ---- --- --- ------ -- --------<br>---- --------- --- ------- ------------ ---------- ---------<br>--- ---------- ------- ---------- ------- -- -------- ----<br>---- --- ------ ----- ------ -- ---- the ----- -- - -------<br>-------- -- --- --- -- ----- ----------- ----- -----------<br>---- --- ---------- --- ---- --- -- ----------,280524.4000000004,280518.5999999996,280168.655,280175,280185.322,280535.329,,32,the
screen,html.Screen,2_3_1_0_1_33,2022-02-01T12:34:07.920Z,,,,,,,,,,,,,,,,,51,,,,,,,,,,,,,,340.0710000003455,,response,,,,13,B,,,,,,Space,keypress(Space),,,,lyrical,,,,-------- -------- --- --- ---- --- --- ------ -- --------<br>---- --------- --- ------- ------------ ---------- ---------<br>--- ---------- ------- ---------- ------- -- -------- ----<br>---- --- ------ ----- ------ -- ---- --- House -- - -------<br>-------- -- --- --- -- ----- ----------- ----- -----------<br>---- --- ---------- --- ---- --- -- ----------,280881.0999999996,280875.4000000004,280518.662,280524.5999999996,280535.329,280885.336,,33,House
screen,html.Screen,2_3_1_0_1_34,2022-02-01T12:34:08.230Z,,,,,,,,,,,,,,,,,51,,,,,,,,,,,,,,300.0640000003623,,response,,,,13,B,,,,,,Space,keypress(Space),,,,lyrical,,,,-------- -------- --- --- ---- --- --- ------ -- --------<br>---- --------- --- ------- ------------ ---------- ---------<br>--- ---------- ------- ---------- ------- -- -------- ----<br>---- --- ------ ----- ------ -- ---- --- ----- in - -------<br>-------- -- --- --- -- ----- ----------- ----- -----------<br>---- --- ---------- --- ---- --- -- ----------,281191.0999999996,281185.4000000004,280868.669,280881.4000000004,280885.336,281202.096,,34,in
screen,html.Screen,2_3_1_0_1_35,2022-02-01T12:34:08.621Z,,,,,,,,,,,,,,,,,51,,,,,,,,,,,,,,374.30400000035297,,response,,,,13,B,,,,,,Space,keypress(Space),,,,lyrical,,,,-------- -------- --- --- ---- --- --- ------ -- --------<br>---- --------- --- ------- ------------ ---------- ---------<br>--- ---------- ------- ---------- ------- -- -------- ----<br>---- --- ------ ----- ------ -- ---- --- ----- -- a -------<br>-------- -- --- --- -- ----- ----------- ----- -----------<br>---- --- ---------- --- ---- --- -- ----------,281581.9000000004,281576.4000000004,281185.429,281191.2999999989,281202.096,281585.437,,35,a
screen,html.Screen,2_3_1_0_1_36,2022-02-01T12:34:08.948Z,,,,,,,,,,,,,,,,,51,,,,,,,,,,,,,,317.7629999992787,,response,,,,13,B,,,,,,Space,keypress(Space),,,,lyrical,,,,-------- -------- --- --- ---- --- --- ------ -- --------<br>---- --------- --- ------- ------------ ---------- ---------<br>--- ---------- ------- ---------- ------- -- -------- ----<br>---- --- ------ ----- ------ -- ---- --- ----- -- - massive<br>-------- -- --- --- -- ----- ----------- ----- -----------<br>---- --- ---------- --- ---- --- -- ----------,281908.9000000004,281903.19999999925,281568.77,281582.0999999996,281585.437,281918.777,,36,massive
screen,html.Screen,2_3_1_0_1_37,2022-02-01T12:34:09.356Z,,,,,,,,,,,,,,,,,51,,,,,,,,,,,,,,392.72299999999814,,response,,,,13,B,,,,,,Space,keypress(Space),,,,lyrical,,,,-------- -------- --- --- ---- --- --- ------ -- --------<br>---- --------- --- ------- ------------ ---------- ---------<br>--- ---------- ------- ---------- ------- -- -------- ----<br>---- --- ------ ----- ------ -- ---- --- ----- -- - -------<br>overhaul -- --- --- -- ----- ----------- ----- -----------<br>---- --- ---------- --- ---- --- -- ----------,282316.69999999925,282311.5,281902.11,281909.0999999996,281918.777,282318.785,,37,overhaul
screen,html.Screen,2_3_1_0_1_38,2022-02-01T12:34:09.734Z,,,,,,,,,,,,,,,,,51,,,,,,,,,,,,,,370.61500000039814,,response,,,,13,B,,,,,,Space,keypress(Space),,,,lyrical,,,,-------- -------- --- --- ---- --- --- ------ -- --------<br>---- --------- --- ------- ------------ ---------- ---------<br>--- ---------- ------- ---------- ------- -- -------- ----<br>---- --- ------ ----- ------ -- ---- --- ----- -- - -------<br>-------- of --- --- -- ----- ----------- ----- -----------<br>---- --- ---------- --- ---- --- -- ----------,282694.5999999996,282689.4000000004,282302.118,282317,282318.785,282702.126,,38,of
