sender,sender_type,sender_id,timestamp,meta,,Blues,Classical,Country,Dance,Electronic,Folk,Gospel,Hip-Hop,Jazz,Latin,Musical/Film,New-age,Pop,Prolific_id,Provo_ID,R&B,Rap,Reggae,Religious,Rock,Soul,Swing,Traditional,age,artist_name,correct,correctResponse,distraction,duration,education,ended_on,familiarity,gender,headphone_check_performance,item,list,music_frequency,offensiveness,pleasantness,position_correct,preference,response,response_action,snippet_file,song_name,song_rating,sound,stimulus_1,stimulus_2,stimulus_3,text,time_commit,time_end,time_render,time_run,time_show,time_switch,url,word,word_ID
Prolific ID,html.Form,0,2022-02-21T16:50:06.432Z,"{""labjs_version"":""20.2.2"",""labjs_build"":{""flavor"":""production"",""commit"":""a25486e0c714a0ae2ce03ff94b7bb6896854dcfa""},""location"":""https://run.pavlovia.org/mvasilev/prolific2_music_e/"",""userAgent"":""Mozilla/5.0 (Windows NT 10.0; Win64; x64) AppleWebKit/537.36 (KHTML, like Gecko) Chrome/98.0.4758.102 Safari/537.36"",""platform"":""Win32"",""language"":""en-GB"",""locale"":""en-US"",""timeZone"":""Europe/London"",""timezoneOffset"":0,""screen_width"":1280,""screen_height"":720,""scroll_width"":1600,""scroll_height"":673,""window_innerWidth"":1600,""window_innerHeight"":722,""devicePixelRatio"":1.2000000476837158}",,,,,,,,,,,,,,,61449269c23dcad4e01c9f94,,,,,,,,,,,,,,,4202.952,,form submission,,,,,,,,,,,,,,,,,,,,,9887.800000000745,9887.5,5667.896,5670.699999999255,5684.548,9897.94,{},,
Introduction,html.Screen,1_0,2022-02-21T16:50:12.340Z,,,,,,,,,,,,,,,,,,,,,,,,,,,,,,,5896.5599999999995,,response,,,,,,,,,,,continue,click button,,,,,,,,,15796.199999999255,15794.5,9881.288,9888,9897.94,15809.609,,,
Volume calibration,html.Screen,1_1,2022-02-21T16:50:35.230Z,,,,,,,,,,,,,,,,,,,,,,,,,,,,,,,22874.891,,response,,,,,,,,,,,continue,click button,,,,,,,,,38686,38684.5,15792.957,15796.300000000745,15809.609,38690.949,,,
Task instructions,html.Screen,1_2,2022-02-21T16:50:45.069Z,,,,,,,,,,,,,,,,,,,,,,,,,,,,,,,9832.551,,response,,,,,,,,,,,continue,click button,,,,,,,,,48525.099999997765,48523.5,38674.297,38686.199999999255,38690.949,48532.647,,,
Sounds,html.Screen,1_3_0_0,2022-02-21T16:50:49.317Z,,,,,,,,,,,,,,,,,,,,,,,,,,,,,,,4246.514000000003,,timeout,,,,,,,,,2,,,,,,,,I,S,O,,52773.300000000745,52762.509,48515.995,48525.39999999851,48532.647,52779.161,,,
Judgement,html.Screen,1_3_0_1,2022-02-21T16:50:50.810Z,,,,,,,,,,,,,,,,,,,,,,,,,,,,true,2,,1484.5389999992549,,response,,,,,,,,,2,,2,click #choice-2,,,,,I,S,O,,54265.699999999255,54263.699999999255,52762.509,52773.5,52779.161,54278.079,,,
Trial,flow.Sequence,1_3_0,2022-02-21T16:50:50.810Z,,,,,,,,,,,,,,,,,,,,,,,,,,,,,,,5731.052999999258,,completion,,,,,,,,,2,,,,,,,,I,S,O,,54265.800000000745,54263.699999999255,48515.995,48525.199999999255,48532.647,54278.079,,,
Sounds,html.Screen,1_3_1_0,2022-02-21T16:50:55.055Z,,,,,,,,,,,,,,,,,,,,,,,,,,,,,,,4246.359000000004,,timeout,,,,,,,,,3,,,,,,,,O,I,S,,58510.89999999851,58507.786,54261.427,54265.89999999851,54278.079,58524.438,,,
Judgement,html.Screen,1_3_1_1,2022-02-21T16:50:56.089Z,,,,,,,,,,,,,,,,,,,,,,,,,,,,true,3,,1019.0619999999981,,response,,,,,,,,,3,,3,click #choice-3,,,,,O,I,S,,59545.39999999851,59543.5,58507.786,58511.099999997765,58524.438,59557.152,,,
Trial,flow.Sequence,1_3_1,2022-02-21T16:50:56.090Z,,,,,,,,,,,,,,,,,,,,,,,,,,,,,,,5265.421000000002,,completion,,,,,,,,,3,,,,,,,,O,I,S,,59545.699999999255,59543.5,54261.427,54265.800000000745,54278.079,59557.152,,,
Sounds,html.Screen,1_3_2_0,2022-02-21T16:51:00.341Z,,,,,,,,,,,,,,,,,,,,,,,,,,,,,,,4246.201000000001,,timeout,,,,,,,,,1,,,,,,,,S,O,I,,63790.89999999851,63786.701,59540.5,59545.699999999255,59557.152,63803.353,,,
Judgement,html.Screen,1_3_2_1,2022-02-21T16:51:01.015Z,,,,,,,,,,,,,,,,,,,,,,,,,,,,true,1,,660.1469999999972,,response,,,,,,,,,1,,1,click #choice-1,,,,,S,O,I,,64465.39999999851,64463.5,63786.701,63791,63803.353,64469.558,,,
Trial,flow.Sequence,1_3_2,2022-02-21T16:51:01.015Z,,,,,,,,,,,,,,,,,,,,,,,,,,,,,,,4906.347999999998,,completion,,,,,,,,,1,,,,,,,,S,O,I,,64465.5,64463.5,59540.5,59545.699999999255,59557.152,64469.558,,,
Sounds,html.Screen,1_3_3_0,2022-02-21T16:51:05.253Z,,,,,,,,,,,,,,,,,,,,,,,,,,,,,,,4246.461000000003,,timeout,,,,,,,,,1,,,,,,,,S,I,O,,68703.09999999776,68699.367,64452.906,64465.599999997765,64469.558,68716.019,,,
Judgement,html.Screen,1_3_3_1,2022-02-21T16:51:06.116Z,,,,,,,,,,,,,,,,,,,,,,,,,,,,true,1,,847.8809999985097,,response,,,,,,,,,1,,1,click #choice-1,,,,,S,I,O,,69566.30000000075,69563.89999999851,68699.367,68703.19999999925,68716.019,69565.391,,,
Trial,flow.Sequence,1_3_3,2022-02-21T16:51:06.116Z,,,,,,,,,,,,,,,,,,,,,,,,,,,,,,,5094.341999998513,,completion,,,,,,,,,1,,,,,,,,S,I,O,,69566.5,69563.89999999851,64452.906,64465.599999997765,64469.558,69565.391,,,
Sounds,html.Screen,1_3_4_0,2022-02-21T16:51:10.353Z,,,,,,,,,,,,,,,,,,,,,,,,,,,,,,,4246.798999999999,,timeout,,,,,,,,,2,,,,,,,,O,S,I,,73803.19999999925,73795.538,69548.739,69566.69999999925,69565.391,73812.19,,,
Judgement,html.Screen,1_3_4_1,2022-02-21T16:51:10.995Z,,,,,,,,,,,,,,,,,,,,,,,,,,,,true,2,,631.7099999985076,,response,,,,,,,,,2,,2,click #choice-2,,,,,O,S,I,,74445.69999999925,74443.89999999851,73795.538,73803.30000000075,73812.19,74444.798,,,
Trial,flow.Sequence,1_3_4,2022-02-21T16:51:10.996Z,,,,,,,,,,,,,,,,,,,,,,,,,,,,,,,4878.508999998507,,completion,,,,,,,,,2,,,,,,,,O,S,I,,74445.80000000075,74443.89999999851,69548.739,69566.69999999925,69565.391,74444.798,,,
Sounds,html.Screen,1_3_5_0,2022-02-21T16:51:15.233Z,,,,,,,,,,,,,,,,,,,,,,,,,,,,,,,4246.226999999999,,timeout,,,,,,,,,3,,,,,,,,I,O,S,,78683.09999999776,78674.373,74428.146,74445.89999999851,74444.798,78691.025,,,
Judgement,html.Screen,1_3_5_1,2022-02-21T16:51:15.855Z,,,,,,,,,,,,,,,,,,,,,,,,,,,,true,3,,612.3749999985157,,response,,,,,,,,,3,,3,click #choice-3,,,,,I,O,S,,79305.30000000075,79303.39999999851,78674.373,78683.19999999925,78691.025,79307.666,,,
Trial,flow.Sequence,1_3_5,2022-02-21T16:51:15.855Z,,,,,,,,,,,,,,,,,,,,,,,,,,,,,,,4858.601999998515,,completion,,,,,,,,,3,,,,,,,,I,O,S,,79305.5,79303.39999999851,74428.146,74445.89999999851,74444.798,79307.666,,,
Task,flow.Loop,1_3,2022-02-21T16:51:15.858Z,,,,,,,,,,,,,,,,,,,,,,,,,,,,,,,30770.752999998513,,completion,,,1,,,,,,,,,,,,,,,,,,79307.80000000075,79303.39999999851,48515.995,48525.199999999255,48532.647,79307.666,,,
Trap,html.Screen,1_4,2022-02-21T16:51:15.858Z,,,,,,,,,,,,,,,,,,,,,,,,,,,,,,,NaN,,skipped,,,,,,,,,,,,,,,,,,,,,79308.5,79303.39999999851,,79308.39999999851,,79307.666,,,
Thanks,html.Screen,1_5,2022-02-21T16:51:18.465Z,,,,,,,,,,,,,,,,,,,,,,,,,,,,,,,2605.7339999985124,,response,,,,,,,,,,,continue,click button,,,,,,,,,81915.39999999851,81913.39999999851,79291.014,79308.5,79307.666,85702.102,,,
Headphone screening,flow.Sequence,1,2022-02-21T16:51:18.465Z,,,,,,,,,,,,,,,,,,,,,,,,,,,,,,,72015.45999999851,,completion,,,,,,,,,,,,,,,,,,,,,81915.5,81913.39999999851,9881.288,9887.89999999851,9897.94,85702.102,,,
Instructions,html.Page,2_0,2022-02-21T16:51:35.976Z,,,,,,,,,,,,,,,,,,,,,,,,,,,,,,,13723.797999998511,,form submission,,,,,,,,,,,,,,,,,,,,,99426.59999999776,99425.89999999851,85685.45,85700.89999999851,85702.102,99424.275,,,
Holding screen,html.Screen,2_1_0_0,2022-02-21T16:51:45.973Z,,,,,,,,,,,,,,,,,,,,,,,,,,,,,,,10008.252000000008,,timeout,,,,,,,,,,,,,,,,,,,,,109423,109415.875,99407.623,99426.80000000075,99424.275,109432.527,,,
screen,html.Screen,2_1_0_1_0,2022-02-21T16:51:47.040Z,,,,,,,,,,,,,,,,,53,,,,,,,,,,,,,,1056.072999997763,,response,,,,99,,,,,,,Space,keypress(Space),,,,,,,,When -- ----- -- ------ - ------- --- ----------<br>------------- ------ ------ ---- ---- ------- ----- -- ----<br>-------- ------- -- ---------- --- - --- ----- ----- ----<br>---- --- --- ----- --- ---- ---- ------- ----- ---- -------<br>--- --- -- ----- -- --- ---- -- --- ---- -- ------ ------<br>--- ----- -- ----,110490,110488.59999999776,109415.875,109423.09999999776,109432.527,110498.622,,0,When
screen,html.Screen,2_1_0_1_1,2022-02-21T16:51:47.755Z,,,,,,,,,,,,,,,,,53,,,,,,,,,,,,,,705.7779999985069,,response,,,,99,,,,,,,Space,keypress(Space),,,,,,,,---- it ----- -- ------ - ------- --- ----------<br>------------- ------ ------ ---- ---- ------- ----- -- ----<br>-------- ------- -- ---------- --- - --- ----- ----- ----<br>---- --- --- ----- --- ---- ---- ------- ----- ---- -------<br>--- --- -- ----- -- --- ---- -- --- ---- -- ------ ------<br>--- ----- -- ----,111204.89999999851,111204.39999999851,110481.97,110490.19999999925,110498.622,111214.554,,1,it
screen,html.Screen,2_1_0_1_2,2022-02-21T16:51:48.169Z,,,,,,,,,,,,,,,,,53,,,,,,,,,,,,,,404.4459999999963,,response,,,,99,,,,,,,Space,keypress(Space),,,,,,,,---- -- comes -- ------ - ------- --- ----------<br>------------- ------ ------ ---- ---- ------- ----- -- ----<br>-------- ------- -- ---------- --- - --- ----- ----- ----<br>---- --- --- ----- --- ---- ---- ------- ----- ---- -------<br>--- --- -- ----- -- --- ---- -- --- ---- -- ------ ------<br>--- ----- -- ----,111619.69999999925,111619,111197.902,111204.89999999851,111214.554,111630.914,,2,comes
screen,html.Screen,2_1_0_1_3,2022-02-21T16:51:48.580Z,,,,,,,,,,,,,,,,,53,,,,,,,,,,,,,,398.88600000074075,,response,,,,99,,,,,,,Space,keypress(Space),,,,,,,,---- -- ----- to ------ - ------- --- ----------<br>------------- ------ ------ ---- ---- ------- ----- -- ----<br>-------- ------- -- ---------- --- - --- ----- ----- ----<br>---- --- --- ----- --- ---- ---- ------- ----- ---- -------<br>--- --- -- ----- -- --- ---- -- --- ---- -- ------ ------<br>--- ----- -- ----,112030.39999999851,112029.80000000075,111614.262,111619.80000000075,111630.914,112047.239,,3,to
screen,html.Screen,2_1_0_1_4,2022-02-21T16:51:49.005Z,,,,,,,,,,,,,,,,,53,,,,,,,,,,,,,,407.06100000074366,,response,,,,99,,,,,,,Space,keypress(Space),,,,,,,,---- -- ----- -- having - ------- --- ----------<br>------------- ------ ------ ---- ---- ------- ----- -- ----<br>-------- ------- -- ---------- --- - --- ----- ----- ----<br>---- --- --- ----- --- ---- ---- ------- ----- ---- -------<br>--- --- -- ----- -- --- ---- -- --- ---- -- ------ ------<br>--- ----- -- ----,112454.80000000075,112454.30000000075,112030.587,112030.5,112047.239,112463.573,,4,having
screen,html.Screen,2_1_0_1_5,2022-02-21T16:51:49.322Z,,,,,,,,,,,,,,,,,53,,,,,,,,,,,,,,307.626999999251,,response,,,,99,,,,,,,Space,keypress(Space),,,,,,,,---- -- ----- -- ------ a ------- --- ----------<br>------------- ------ ------ ---- ---- ------- ----- -- ----<br>-------- ------- -- ---------- --- - --- ----- ----- ----<br>---- --- --- ----- --- ---- ---- ------- ----- ---- -------<br>--- --- -- ----- -- --- ---- -- --- ---- -- ------ ------<br>--- ----- -- ----,112772,112771.19999999925,112446.921,112454.80000000075,112463.573,112779.961,,5,a
screen,html.Screen,2_1_0_1_6,2022-02-21T16:51:49.756Z,,,,,,,,,,,,,,,,,53,,,,,,,,,,,,,,425.73899999925925,,response,,,,99,,,,,,,Space,keypress(Space),,,,,,,,---- -- ----- -- ------ - lasting --- ----------<br>------------- ------ ------ ---- ---- ------- ----- -- ----<br>-------- ------- -- ---------- --- - --- ----- ----- ----<br>---- --- --- ----- --- ---- ---- ------- ----- ---- -------<br>--- --- -- ----- -- --- ---- -- --- ---- -- ------ ------<br>--- ----- -- ----,113206.09999999776,113205.69999999925,112763.309,112772.09999999776,112779.961,113212.961,,6,lasting
screen,html.Screen,2_1_0_1_7,2022-02-21T16:51:50.084Z,,,,,,,,,,,,,,,,,53,,,,,,,,,,,,,,320.73899999925925,,response,,,,99,,,,,,,Space,keypress(Space),,,,,,,,---- -- ----- -- ------ - ------- and ----------<br>------------- ------ ------ ---- ---- ------- ----- -- ----<br>-------- ------- -- ---------- --- - --- ----- ----- ----<br>---- --- --- ----- --- ---- ---- ------- ----- ---- -------<br>--- --- -- ----- -- --- ---- -- --- ---- -- ------ ------<br>--- ----- -- ----,113534.30000000075,113533.69999999925,113196.309,113206.09999999776,113212.961,113546.09,,7,and
screen,html.Screen,2_1_0_1_8,2022-02-21T16:51:50.505Z,,,,,,,,,,,,,,,,,53,,,,,,,,,,,,,,408.71000000074855,,response,,,,99,,,,,,,Space,keypress(Space),,,,,,,,---- -- ----- -- ------ - ------- --- fulfilling<br>------------- ------ ------ ---- ---- ------- ----- -- ----<br>-------- ------- -- ---------- --- - --- ----- ----- ----<br>---- --- --- ----- --- ---- ---- ------- ----- ---- -------<br>--- --- -- ----- -- --- ---- -- --- ---- -- ------ ------<br>--- ----- -- ----,113955.39999999851,113954.80000000075,113529.438,113534.30000000075,113546.09,113962.359,,8,fulfilling
screen,html.Screen,2_1_0_1_9,2022-02-21T16:51:50.929Z,,,,,,,,,,,,,,,,,53,,,,,,,,,,,,,,415.7409999977681,,response,,,,99,,,,,,,Space,keypress(Space),,,,,,,,"---- -- ----- -- ------ - ------- --- ----------<br>relationship, ------ ------ ---- ---- ------- ----- -- ----<br>-------- ------- -- ---------- --- - --- ----- ----- ----<br>---- --- --- ----- --- ---- ---- ------- ----- ---- -------<br>--- --- -- ----- -- --- ---- -- --- ---- -- ------ ------<br>--- ----- -- ----",114378.80000000075,114378.09999999776,113945.707,113955.39999999851,113962.359,114395.322,,9,"relationship,"
screen,html.Screen,2_1_0_1_10,2022-02-21T16:51:51.360Z,,,,,,,,,,,,,,,,,53,,,,,,,,,,,,,,413.8779999992548,,response,,,,99,,,,,,,Space,keypress(Space),,,,,,,,---- -- ----- -- ------ - ------- --- ----------<br>------------- common ------ ---- ---- ------- ----- -- ----<br>-------- ------- -- ---------- --- - --- ----- ----- ----<br>---- --- --- ----- --- ---- ---- ------- ----- ---- -------<br>--- --- -- ----- -- --- ---- -- --- ---- -- ------ ------<br>--- ----- -- ----,114809.89999999851,114809.19999999925,114378.67,114378.89999999851,114395.322,114811.662,,10,common
screen,html.Screen,2_1_0_1_11,2022-02-21T16:51:51.884Z,,,,,,,,,,,,,,,,,53,,,,,,,,,,,,,,522.1380000007484,,response,,,,99,,,,,,,Space,keypress(Space),,,,,,,,---- -- ----- -- ------ - ------- --- ----------<br>------------- ------ wisdom ---- ---- ------- ----- -- ----<br>-------- ------- -- ---------- --- - --- ----- ----- ----<br>---- --- --- ----- --- ---- ---- ------- ----- ---- -------<br>--- --- -- ----- -- --- ---- -- --- ---- -- ------ ------<br>--- ----- -- ----,115334.19999999925,115333.80000000075,114795.01,114809.89999999851,114811.662,115344.61,,11,wisdom
screen,html.Screen,2_1_0_1_12,2022-02-21T16:51:52.400Z,,,,,,,,,,,,,,,,,53,,,,,,,,,,,,,,505.48999999776424,,response,,,,99,,,,,,,Space,keypress(Space),,,,,,,,---- -- ----- -- ------ - ------- --- ----------<br>------------- ------ ------ says ---- ------- ----- -- ----<br>-------- ------- -- ---------- --- - --- ----- ----- ----<br>---- --- --- ----- --- ---- ---- ------- ----- ---- -------<br>--- --- -- ----- -- --- ---- -- --- ---- -- ------ ------<br>--- ----- -- ----,115850.59999999776,115850.09999999776,115327.958,115334.30000000075,115344.61,115860.925,,12,says
screen,html.Screen,2_1_0_1_13,2022-02-21T16:51:52.759Z,,,,,,,,,,,,,,,,,53,,,,,,,,,,,,,,348.1749999977619,,response,,,,99,,,,,,,Space,keypress(Space),,,,,,,,---- -- ----- -- ------ - ------- --- ----------<br>------------- ------ ------ ---- that ------- ----- -- ----<br>-------- ------- -- ---------- --- - --- ----- ----- ----<br>---- --- --- ----- --- ---- ---- ------- ----- ---- -------<br>--- --- -- ----- -- --- ---- -- --- ---- -- ------ ------<br>--- ----- -- ----,116209.69999999925,116209.09999999776,115844.273,115850.69999999925,115860.925,116210.497,,13,that
screen,html.Screen,2_1_0_1_14,2022-02-21T16:51:53.122Z,,,,,,,,,,,,,,,,,53,,,,,,,,,,,,,,361.7029999992519,,response,,,,99,,,,,,,Space,keypress(Space),,,,,,,,---- -- ----- -- ------ - ------- --- ----------<br>------------- ------ ------ ---- ---- feeling ----- -- ----<br>-------- ------- -- ---------- --- - --- ----- ----- ----<br>---- --- --- ----- --- ---- ---- ------- ----- ---- -------<br>--- --- -- ----- -- --- ---- -- --- ---- -- ------ ------<br>--- ----- -- ----,116572.80000000075,116572.19999999925,116193.845,116209.80000000075,116210.497,116576.868,,14,feeling
screen,html.Screen,2_1_0_1_15,2022-02-21T16:51:53.533Z,,,,,,,,,,,,,,,,,53,,,,,,,,,,,,,,405.83199999925273,,response,,,,99,,,,,,,Space,keypress(Space),,,,,,,,---- -- ----- -- ------ - ------- --- ----------<br>------------- ------ ------ ---- ---- ------- close -- ----<br>-------- ------- -- ---------- --- - --- ----- ----- ----<br>---- --- --- ----- --- ---- ---- ------- ----- ---- -------<br>--- --- -- ----- -- --- ---- -- --- ---- -- ------ ------<br>--- ----- -- ----,116983.09999999776,116982.69999999925,116560.216,116572.80000000075,116576.868,116993.164,,15,close
screen,html.Screen,2_1_0_1_16,2022-02-21T16:51:53.832Z,,,,,,,,,,,,,,,,,53,,,,,,,,,,,,,,288.4359999977605,,response,,,,99,,,,,,,Space,keypress(Space),,,,,,,,---- -- ----- -- ------ - ------- --- ----------<br>------------- ------ ------ ---- ---- ------- ----- to ----<br>-------- ------- -- ---------- --- - --- ----- ----- ----<br>---- --- --- ----- --- ---- ---- ------- ----- ---- -------<br>--- --- -- ----- -- --- ---- -- --- ---- -- ------ ------<br>--- ----- -- ----,117282.09999999776,117281.59999999776,116976.512,116983.19999999925,116993.164,117293.057,,16,to
screen,html.Screen,2_1_0_1_17,2022-02-21T16:51:54.155Z,,,,,,,,,,,,,,,,,53,,,,,,,,,,,,,,311.8429999985092,,response,,,,99,,,,,,,Space,keypress(Space),,,,,,,,---- -- ----- -- ------ - ------- --- ----------<br>------------- ------ ------ ---- ---- ------- ----- -- your<br>-------- ------- -- ---------- --- - --- ----- ----- ----<br>---- --- --- ----- --- ---- ---- ------- ----- ---- -------<br>--- --- -- ----- -- --- ---- -- --- ---- -- ------ ------<br>--- ----- -- ----,117605.69999999925,117604.89999999851,117276.405,117282.19999999925,117293.057,117609.243,,17,your
screen,html.Screen,2_1_0_1_18,2022-02-21T16:51:54.616Z,,,,,,,,,,,,,,,,,53,,,,,,,,,,,,,,456.8569999977626,,response,,,,99,,,,,,,Space,keypress(Space),,,,,,,,---- -- ----- -- ------ - ------- --- ----------<br>------------- ------ ------ ---- ---- ------- ----- -- ----<br>romantic ------- -- ---------- --- - --- ----- ----- ----<br>---- --- --- ----- --- ---- ---- ------- ----- ---- -------<br>--- --- -- ----- -- --- ---- -- --- ---- -- ------ ------<br>--- ----- -- ----,118066.69999999925,118066.09999999776,117592.591,117605.80000000075,117609.243,118075.534,,18,romantic
screen,html.Screen,2_1_0_1_19,2022-02-21T16:51:54.929Z,,,,,,,,,,,,,,,,,53,,,,,,,,,,,,,,303.46600000000035,,response,,,,99,,,,,,,Space,keypress(Space),,,,,,,,---- -- ----- -- ------ - ------- --- ----------<br>------------- ------ ------ ---- ---- ------- ----- -- ----<br>-------- partner -- ---------- --- - --- ----- ----- ----<br>---- --- --- ----- --- ---- ---- ------- ----- ---- -------<br>--- --- -- ----- -- --- ---- -- --- ---- -- ------ ------<br>--- ----- -- ----,118379.69999999925,118379,118058.882,118066.80000000075,118075.534,118392.025,,19,partner
screen,html.Screen,2_1_0_1_20,2022-02-21T16:51:55.265Z,,,,,,,,,,,,,,,,,53,,,,,,,,,,,,,,322.17499999926076,,response,,,,99,,,,,,,Space,keypress(Space),,,,,,,,---- -- ----- -- ------ - ------- --- ----------<br>------------- ------ ------ ---- ---- ------- ----- -- ----<br>-------- ------- is ---------- --- - --- ----- ----- ----<br>---- --- --- ----- --- ---- ---- ------- ----- ---- -------<br>--- --- -- ----- -- --- ---- -- --- ---- -- ------ ------<br>--- ----- -- ----,118714.89999999851,118714.19999999925,118375.373,118379.69999999925,118392.025,118725.111,,20,is
screen,html.Screen,2_1_0_1_21,2022-02-21T16:51:55.594Z,,,,,,,,,,,,,,,,,53,,,,,,,,,,,,,,318.18900000074063,,response,,,,99,,,,,,,Space,keypress(Space),,,,,,,,---- -- ----- -- ------ - ------- --- ----------<br>------------- ------ ------ ---- ---- ------- ----- -- ----<br>-------- ------- -- paramount. --- - --- ----- ----- ----<br>---- --- --- ----- --- ---- ---- ------- ----- ---- -------<br>--- --- -- ----- -- --- ---- -- --- ---- -- ------ ------<br>--- ----- -- ----,119043.80000000075,119043.30000000075,118708.459,118714.89999999851,118725.111,119058.13,,21,paramount.
screen,html.Screen,2_1_0_1_22,2022-02-21T16:51:56.255Z,,,,,,,,,,,,,,,,,53,,,,,,,,,,,,,,647.0699999992503,,response,,,,99,,,,,,,Space,keypress(Space),,,,,,,,---- -- ----- -- ------ - ------- --- ----------<br>------------- ------ ------ ---- ---- ------- ----- -- ----<br>-------- ------- -- ---------- But - --- ----- ----- ----<br>---- --- --- ----- --- ---- ---- ------- ----- ---- -------<br>--- --- -- ----- -- --- ---- -- --- ---- -- ------ ------<br>--- ----- -- ----,119705.69999999925,119705.19999999925,119041.478,119043.89999999851,119058.13,119707.434,,22,But
screen,html.Screen,2_1_0_1_23,2022-02-21T16:51:56.727Z,,,,,,,,,,,,,,,,,53,,,,,,,,,,,,,,472.96599999851605,,response,,,,99,,,,,,,Space,keypress(Space),,,,,,,,---- -- ----- -- ------ - ------- --- ----------<br>------------- ------ ------ ---- ---- ------- ----- -- ----<br>-------- ------- -- ---------- --- a --- ----- ----- ----<br>---- --- --- ----- --- ---- ---- ------- ----- ---- -------<br>--- --- -- ----- -- --- ---- -- --- ---- -- ------ ------<br>--- ----- -- ----,120181.19999999925,120180.39999999851,119690.782,119705.69999999925,119707.434,120190.527,,23,a
screen,html.Screen,2_1_0_1_24,2022-02-21T16:51:57.076Z,,,,,,,,,,,,,,,,,53,,,,,,,,,,,,,,338.97299999999814,,response,,,,99,,,,,,,Space,keypress(Space),,,,,,,,---- -- ----- -- ------ - ------- --- ----------<br>------------- ------ ------ ---- ---- ------- ----- -- ----<br>-------- ------- -- ---------- --- - new ----- ----- ----<br>---- --- --- ----- --- ---- ---- ------- ----- ---- -------<br>--- --- -- ----- -- --- ---- -- --- ---- -- ------ ------<br>--- ----- -- ----,120530.09999999776,120529.5,120173.875,120181.30000000075,120190.527,120540.274,,24,new
screen,html.Screen,2_1_0_1_25,2022-02-21T16:51:57.496Z,,,,,,,,,,,,,,,,,53,,,,,,,,,,,,,,408.32599999775994,,response,,,,99,,,,,,,Space,keypress(Space),,,,,,,,---- -- ----- -- ------ - ------- --- ----------<br>------------- ------ ------ ---- ---- ------- ----- -- ----<br>-------- ------- -- ---------- --- - --- study ----- ----<br>---- --- --- ----- --- ---- ---- ------- ----- ---- -------<br>--- --- -- ----- -- --- ---- -- --- ---- -- ------ ------<br>--- ----- -- ----,120949.19999999925,120948.59999999776,120523.622,120530.19999999925,120540.274,120956.599,,25,study
screen,html.Screen,2_1_0_1_26,2022-02-21T16:51:57.723Z,,,,,,,,,,,,,,,,,53,,,,,,,,,,,,,,219.8009999985079,,response,,,,99,,,,,,,Space,keypress(Space),,,,,,,,---- -- ----- -- ------ - ------- --- ----------<br>------------- ------ ------ ---- ---- ------- ----- -- ----<br>-------- ------- -- ---------- --- - --- ----- finds ----<br>---- --- --- ----- --- ---- ---- ------- ----- ---- -------<br>--- --- -- ----- -- --- ---- -- --- ---- -- ------ ------<br>--- ----- -- ----,121177.19999999925,121176.39999999851,120939.947,120949.30000000075,120956.599,121189.761,,26,finds
screen,html.Screen,2_1_0_1_27,2022-02-21T16:51:58.138Z,,,,,,,,,,,,,,,,,53,,,,,,,,,,,,,,401.53900000074646,,response,,,,99,,,,,,,Space,keypress(Space),,,,,,,,---- -- ----- -- ------ - ------- --- ----------<br>------------- ------ ------ ---- ---- ------- ----- -- ----<br>-------- ------- -- ---------- --- - --- ----- ----- that<br>---- --- --- ----- --- ---- ---- ------- ----- ---- -------<br>--- --- -- ----- -- --- ---- -- --- ---- -- ------ ------<br>--- ----- -- ----,121591.80000000075,121591.30000000075,121173.109,121177.39999999851,121189.761,121606.143,,27,that
screen,html.Screen,2_1_0_1_28,2022-02-21T16:51:58.586Z,,,,,,,,,,,,,,,,,53,,,,,,,,,,,,,,432.95699999776843,,response,,,,99,,,,,,,Space,keypress(Space),,,,,,,,---- -- ----- -- ------ - ------- --- ----------<br>------------- ------ ------ ---- ---- ------- ----- -- ----<br>-------- ------- -- ---------- --- - --- ----- ----- ----<br>it's --- --- ----- --- ---- ---- ------- ----- ---- -------<br>--- --- -- ----- -- --- ---- -- --- ---- -- ------ ------<br>--- ----- -- ----,122039.89999999851,122039.09999999776,121589.491,121591.89999999851,121606.143,122055.827,,28,it's
screen,html.Screen,2_1_0_1_29,2022-02-21T16:51:58.876Z,,,,,,,,,,,,,,,,,53,,,,,,,,,,,,,,273.1729999999952,,response,,,,99,,,,,,,Space,keypress(Space),,,,,,,,---- -- ----- -- ------ - ------- --- ----------<br>------------- ------ ------ ---- ---- ------- ----- -- ----<br>-------- ------- -- ---------- --- - --- ----- ----- ----<br>---- not --- ----- --- ---- ---- ------- ----- ---- -------<br>--- --- -- ----- -- --- ---- -- --- ---- -- ------ ------<br>--- ----- -- ----,122329.69999999925,122329,122039.175,122040,122055.827,122338.798,,29,not
screen,html.Screen,2_1_0_1_30,2022-02-21T16:51:59.242Z,,,,,,,,,,,,,,,,,53,,,,,,,,,,,,,,356.00200000074983,,response,,,,99,,,,,,,Space,keypress(Space),,,,,,,,---- -- ----- -- ------ - ------- --- ----------<br>------------- ------ ------ ---- ---- ------- ----- -- ----<br>-------- ------- -- ---------- --- - --- ----- ----- ----<br>---- --- how ----- --- ---- ---- ------- ----- ---- -------<br>--- --- -- ----- -- --- ---- -- --- ---- -- ------ ------<br>--- ----- -- ----,122695.39999999851,122694.80000000075,122322.146,122329.69999999925,122338.798,122705.163,,30,how
screen,html.Screen,2_1_0_1_31,2022-02-21T16:51:59.583Z,,,,,,,,,,,,,,,,,53,,,,,,,,,,,,,,330.43699999776436,,response,,,,99,,,,,,,Space,keypress(Space),,,,,,,,---- -- ----- -- ------ - ------- --- ----------<br>------------- ------ ------ ---- ---- ------- ----- -- ----<br>-------- ------- -- ---------- --- - --- ----- ----- ----<br>---- --- --- close --- ---- ---- ------- ----- ---- -------<br>--- --- -- ----- -- --- ---- -- --- ---- -- ------ ------<br>--- ----- -- ----,123036.19999999925,123035.59999999776,122688.511,122695.39999999851,122705.163,123038.205,,31,close
screen,html.Screen,2_1_0_1_32,2022-02-21T16:51:59.888Z,,,,,,,,,,,,,,,,,53,,,,,,,,,,,,,,302.5950000007433,,response,,,,99,,,,,,,Space,keypress(Space),,,,,,,,---- -- ----- -- ------ - ------- --- ----------<br>------------- ------ ------ ---- ---- ------- ----- -- ----<br>-------- ------- -- ---------- --- - --- ----- ----- ----<br>---- --- --- ----- you ---- ---- ------- ----- ---- -------<br>--- --- -- ----- -- --- ---- -- --- ---- -- ------ ------<br>--- ----- -- ----,123341.39999999851,123340.80000000075,123021.553,123036.30000000075,123038.205,123354.738,,32,you
screen,html.Screen,2_1_0_1_33,2022-02-21T16:52:00.490Z,,,,,,,,,,,,,,,,,53,,,,,,,,,,,,,,588.5620000007475,,response,,,,99,,,,,,,Space,keypress(Space),,,,,,,,---- -- ----- -- ------ - ------- --- ----------<br>------------- ------ ------ ---- ---- ------- ----- -- ----<br>-------- ------- -- ---------- --- - --- ----- ----- ----<br>---- --- --- ----- --- feel ---- ------- ----- ---- -------<br>--- --- -- ----- -- --- ---- -- --- ---- -- ------ ------<br>--- ----- -- ----,123943.80000000075,123943.30000000075,123338.086,123341.5,123354.738,123954.129,,33,feel
screen,html.Screen,2_1_0_1_34,2022-02-21T16:52:00.836Z,,,,,,,,,,,,,,,,,53,,,,,,,,,,,,,,334.970999997764,,response,,,,99,,,,,,,Space,keypress(Space),,,,,,,,---- -- ----- -- ------ - ------- --- ----------<br>------------- ------ ------ ---- ---- ------- ----- -- ----<br>-------- ------- -- ---------- --- - --- ----- ----- ----<br>---- --- --- ----- --- ---- that ------- ----- ---- -------<br>--- --- -- ----- -- --- ---- -- --- ---- -- ------ ------<br>--- ----- -- ----,124289.5,124289.09999999776,123937.477,123943.80000000075,123954.129,124303.847,,34,that
screen,html.Screen,2_1_0_1_35,2022-02-21T16:52:01.138Z,,,,,,,,,,,,,,,,,53,,,,,,,,,,,,,,287.35299999926065,,response,,,,99,,,,,,,Space,keypress(Space),,,,,,,,---- -- ----- -- ------ - ------- --- ----------<br>------------- ------ ------ ---- ---- ------- ----- -- ----<br>-------- ------- -- ---------- --- - --- ----- ----- ----<br>---- --- --- ----- --- ---- ---- matters ----- ---- -------<br>--- --- -- ----- -- --- ---- -- --- ---- -- ------ ------<br>--- ----- -- ----,124591.69999999925,124591.19999999925,124287.195,124289.59999999776,124303.847,124603.605,,35,matters
screen,html.Screen,2_1_0_1_36,2022-02-21T16:52:01.427Z,,,,,,,,,,,,,,,,,53,,,,,,,,,,,,,,276.8950000000041,,response,,,,99,,,,,,,Space,keypress(Space),,,,,,,,"---- -- ----- -- ------ - ------- --- ----------<br>------------- ------ ------ ---- ---- ------- ----- -- ----<br>-------- ------- -- ---------- --- - --- ----- ----- ----<br>---- --- --- ----- --- ---- ---- ------- most, ---- -------<br>--- --- -- ----- -- --- ---- -- --- ---- -- ------ ------<br>--- ----- -- ----",124881.09999999776,124880.5,124586.953,124591.80000000075,124603.605,124886.686,,36,"most,"
screen,html.Screen,2_1_0_1_37,2022-02-21T16:52:01.863Z,,,,,,,,,,,,,,,,,53,,,,,,,,,,,,,,429.01399999925343,,response,,,,99,,,,,,,Space,keypress(Space),,,,,,,,---- -- ----- -- ------ - ------- --- ----------<br>------------- ------ ------ ---- ---- ------- ----- -- ----<br>-------- ------- -- ---------- --- - --- ----- ----- ----<br>---- --- --- ----- --- ---- ---- ------- ----- it's -------<br>--- --- -- ----- -- --- ---- -- --- ---- -- ------ ------<br>--- ----- -- ----,125316.39999999851,125315.69999999925,124870.034,124881.30000000075,124886.686,125319.654,,37,it's
screen,html.Screen,2_1_0_1_38,2022-02-21T16:52:02.153Z,,,,,,,,,,,,,,,,,53,,,,,,,,,,,,,,287.04599999925995,,response,,,,99,,,,,,,Space,keypress(Space),,,,,,,,---- -- ----- -- ------ - ------- --- ----------<br>------------- ------ ------ ---- ---- ------- ----- -- ----<br>-------- ------- -- ---------- --- - --- ----- ----- ----<br>---- --- --- ----- --- ---- ---- ------- ----- ---- whether<br>--- --- -- ----- -- --- ---- -- --- ---- -- ------ ------<br>--- ----- -- ----,125607.19999999925,125606.69999999925,125303.002,125316.39999999851,125319.654,125619.421,,38,whether
screen,html.Screen,2_1_0_1_39,2022-02-21T16:52:02.575Z,,,,,,,,,,,,,,,,,53,,,,,,,,,,,,,,409.0789999999979,,response,,,,99,,,,,,,Space,keypress(Space),,,,,,,,---- -- ----- -- ------ - ------- --- ----------<br>------------- ------ ------ ---- ---- ------- ----- -- ----<br>-------- ------- -- ---------- --- - --- ----- ----- ----<br>---- --- --- ----- --- ---- ---- ------- ----- ---- -------<br>you --- -- ----- -- --- ---- -- --- ---- -- ------ ------<br>--- ----- -- ----,126029.09999999776,126028.5,125602.769,125607.19999999925,125619.421,126035.757,,39,you
screen,html.Screen,2_1_0_1_40,2022-02-21T16:52:02.797Z,,,,,,,,,,,,,,,,,53,,,,,,,,,,,,,,214.44299999925715,,response,,,,99,,,,,,,Space,keypress(Space),,,,,,,,---- -- ----- -- ------ - ------- --- ----------<br>------------- ------ ------ ---- ---- ------- ----- -- ----<br>-------- ------- -- ---------- --- - --- ----- ----- ----<br>---- --- --- ----- --- ---- ---- ------- ----- ---- -------<br>--- are -- ----- -- --- ---- -- --- ---- -- ------ ------<br>--- ----- -- ----,126250.80000000075,126250.19999999925,126019.105,126029.30000000075,126035.757,126252.243,,40,are
screen,html.Screen,2_1_0_1_41,2022-02-21T16:52:03.045Z,,,,,,,,,,,,,,,,,53,,,,,,,,,,,,,,246.2569999999978,,response,,,,99,,,,,,,Space,keypress(Space),,,,,,,,---- -- ----- -- ------ - ------- --- ----------<br>------------- ------ ------ ---- ---- ------- ----- -- ----<br>-------- ------- -- ---------- --- - --- ----- ----- ----<br>---- --- --- ----- --- ---- ---- ------- ----- ---- -------<br>--- --- as ----- -- --- ---- -- --- ---- -- ------ ------<br>--- ----- -- ----,126499.19999999925,126498.5,126235.591,126250.80000000075,126252.243,126502.071,,41,as
screen,html.Screen,2_1_0_1_42,2022-02-21T16:52:03.447Z,,,,,,,,,,,,,,,,,53,,,,,,,,,,,,,,398.02899999776855,,response,,,,99,,,,,,,Space,keypress(Space),,,,,,,,---- -- ----- -- ------ - ------- --- ----------<br>------------- ------ ------ ---- ---- ------- ----- -- ----<br>-------- ------- -- ---------- --- - --- ----- ----- ----<br>---- --- --- ----- --- ---- ---- ------- ----- ---- -------<br>--- --- -- close -- --- ---- -- --- ---- -- ------ ------<br>--- ----- -- ----,126900.59999999776,126900.09999999776,126485.419,126499.19999999925,126502.071,126901.775,,42,close
screen,html.Screen,2_1_0_1_43,2022-02-21T16:52:03.761Z,,,,,,,,,,,,,,,,,53,,,,,,,,,,,,,,312.32499999777065,,response,,,,99,,,,,,,Space,keypress(Space),,,,,,,,---- -- ----- -- ------ - ------- --- ----------<br>------------- ------ ------ ---- ---- ------- ----- -- ----<br>-------- ------- -- ---------- --- - --- ----- ----- ----<br>---- --- --- ----- --- ---- ---- ------- ----- ---- -------<br>--- --- -- ----- as --- ---- -- --- ---- -- ------ ------<br>--- ----- -- ----,127214.80000000075,127214.09999999776,126885.123,126900.69999999925,126901.775,127218.258,,43,as
screen,html.Screen,2_1_0_1_44,2022-02-21T16:52:04.149Z,,,,,,,,,,,,,,,,,53,,,,,,,,,,,,,,384.24199999999837,,response,,,,99,,,,,,,Space,keypress(Space),,,,,,,,---- -- ----- -- ------ - ------- --- ----------<br>------------- ------ ------ ---- ---- ------- ----- -- ----<br>-------- ------- -- ---------- --- - --- ----- ----- ----<br>---- --- --- ----- --- ---- ---- ------- ----- ---- -------<br>--- --- -- ----- -- you ---- -- --- ---- -- ------ ------<br>--- ----- -- ----,127603,127602.5,127201.606,127214.89999999851,127218.258,127617.792,,44,you
screen,html.Screen,2_1_0_1_45,2022-02-21T16:52:04.450Z,,,,,,,,,,,,,,,,,53,,,,,,,,,,,,,,285.6079999985086,,response,,,,99,,,,,,,Space,keypress(Space),,,,,,,,---- -- ----- -- ------ - ------- --- ----------<br>------------- ------ ------ ---- ---- ------- ----- -- ----<br>-------- ------- -- ---------- --- - --- ----- ----- ----<br>---- --- --- ----- --- ---- ---- ------- ----- ---- -------<br>--- --- -- ----- -- --- want -- --- ---- -- ------ ------<br>--- ----- -- ----,127904,127903.39999999851,127601.14,127603.09999999776,127617.792,127917.541,,45,want
screen,html.Screen,2_1_0_1_46,2022-02-21T16:52:04.768Z,,,,,,,,,,,,,,,,,53,,,,,,,,,,,,,,304.0589999977674,,response,,,,99,,,,,,,Space,keypress(Space),,,,,,,,---- -- ----- -- ------ - ------- --- ----------<br>------------- ------ ------ ---- ---- ------- ----- -- ----<br>-------- ------- -- ---------- --- - --- ----- ----- ----<br>---- --- --- ----- --- ---- ---- ------- ----- ---- -------<br>--- --- -- ----- -- --- ---- to --- ---- -- ------ ------<br>--- ----- -- ----,128222.19999999925,128221.59999999776,127900.889,127904,127917.541,128233.934,,46,to
screen,html.Screen,2_1_0_1_47,2022-02-21T16:52:05.135Z,,,,,,,,,,,,,,,,,53,,,,,,,,,,,,,,354.665999997771,,response,,,,99,,,,,,,Space,keypress(Space),,,,,,,,"---- -- ----- -- ------ - ------- --- ----------<br>------------- ------ ------ ---- ---- ------- ----- -- ----<br>-------- ------- -- ---------- --- - --- ----- ----- ----<br>---- --- --- ----- --- ---- ---- ------- ----- ---- -------<br>--- --- -- ----- -- --- ---- -- be, ---- -- ------ ------<br>--- ----- -- ----",128589,128588.59999999776,128217.282,128222.19999999925,128233.934,128600.409,,47,"be,"
screen,html.Screen,2_1_0_1_48,2022-02-21T16:52:05.485Z,,,,,,,,,,,,,,,,,53,,,,,,,,,,,,,,337.7909999992553,,response,,,,99,,,,,,,Space,keypress(Space),,,,,,,,---- -- ----- -- ------ - ------- --- ----------<br>------------- ------ ------ ---- ---- ------- ----- -- ----<br>-------- ------- -- ---------- --- - --- ----- ----- ----<br>---- --- --- ----- --- ---- ---- ------- ----- ---- -------<br>--- --- -- ----- -- --- ---- -- --- even -- ------ ------<br>--- ----- -- ----,128938.69999999925,128938.19999999925,128583.757,128589,128600.409,128950.033,,48,even
screen,html.Screen,2_1_0_1_49,2022-02-21T16:52:05.830Z,,,,,,,,,,,,,,,,,53,,,,,,,,,,,,,,332.66699999925913,,response,,,,99,,,,,,,Space,keypress(Space),,,,,,,,---- -- ----- -- ------ - ------- --- ----------<br>------------- ------ ------ ---- ---- ------- ----- -- ----<br>-------- ------- -- ---------- --- - --- ----- ----- ----<br>---- --- --- ----- --- ---- ---- ------- ----- ---- -------<br>--- --- -- ----- -- --- ---- -- --- ---- if ------ ------<br>--- ----- -- ----,129283.30000000075,129282.69999999925,128933.381,128938.80000000075,128950.033,129299.752,,49,if
screen,html.Screen,2_1_0_1_50,2022-02-21T16:52:06.132Z,,,,,,,,,,,,,,,,,53,,,,,,,,,,,,,,285.64799999851675,,response,,,,99,,,,,,,Space,keypress(Space),,,,,,,,---- -- ----- -- ------ - ------- --- ----------<br>------------- ------ ------ ---- ---- ------- ----- -- ----<br>-------- ------- -- ---------- --- - --- ----- ----- ----<br>---- --- --- ----- --- ---- ---- ------- ----- ---- -------<br>--- --- -- ----- -- --- ---- -- --- ---- -- that's ------<br>--- ----- -- ----,129585.80000000075,129585.39999999851,129283.1,129283.39999999851,129299.752,129599.482,,50,that's
screen,html.Screen,2_1_0_1_51,2022-02-21T16:52:06.559Z,,,,,,,,,,,,,,,,,53,,,,,,,,,,,,,,412.1179999977612,,response,,,,99,,,,,,,Space,keypress(Space),,,,,,,,---- -- ----- -- ------ - ------- --- ----------<br>------------- ------ ------ ---- ---- ------- ----- -- ----<br>-------- ------- -- ---------- --- - --- ----- ----- ----<br>---- --- --- ----- --- ---- ---- ------- ----- ---- -------<br>--- --- -- ----- -- --- ---- -- --- ---- -- ------ really<br>--- ----- -- ----,130012.19999999925,130011.59999999776,129582.83,129585.89999999851,129599.482,130015.817,,51,really
screen,html.Screen,2_1_0_1_52,2022-02-21T16:52:06.962Z,,,,,,,,,,,,,,,,,53,,,,,,,,,,,,,,399.3829999992595,,response,,,,99,,,,,,,Space,keypress(Space),,,,,,,,---- -- ----- -- ------ - ------- --- ----------<br>------------- ------ ------ ---- ---- ------- ----- -- ----<br>-------- ------- -- ---------- --- - --- ----- ----- ----<br>---- --- --- ----- --- ---- ---- ------- ----- ---- -------<br>--- --- -- ----- -- --- ---- -- --- ---- -- ------ ------<br>not ----- -- ----,130415.80000000075,130415.19999999925,129999.165,130012.30000000075,130015.817,130432.106,,52,not
screen,html.Screen,2_1_0_1_53,2022-02-21T16:52:07.262Z,,,,,,,,,,,,,,,,,53,,,,,,,,,,,,,,282.5939999992552,,response,,,,99,,,,,,,Space,keypress(Space),,,,,,,,---- -- ----- -- ------ - ------- --- ----------<br>------------- ------ ------ ---- ---- ------- ----- -- ----<br>-------- ------- -- ---------- --- - --- ----- ----- ----<br>---- --- --- ----- --- ---- ---- ------- ----- ---- -------<br>--- --- -- ----- -- --- ---- -- --- ---- -- ------ ------<br>--- close -- ----,130715.30000000075,130714.69999999925,130415.454,130415.89999999851,130432.106,130731.873,,53,close
screen,html.Screen,2_1_0_1_54,2022-02-21T16:52:07.636Z,,,,,,,,,,,,,,,,,53,,,,,,,,,,,,,,357.22699999775796,,response,,,,99,,,,,,,Space,keypress(Space),,,,,,,,---- -- ----- -- ------ - ------- --- ----------<br>------------- ------ ------ ---- ---- ------- ----- -- ----<br>-------- ------- -- ---------- --- - --- ----- ----- ----<br>---- --- --- ----- --- ---- ---- ------- ----- ---- -------<br>--- --- -- ----- -- --- ---- -- --- ---- -- ------ ------<br>--- ----- at ----,131089.8999999985,131089.09999999776,130715.221,130715.39999999851,130731.873,131098.253,,54,at
screen,html.Screen,2_1_0_1_55,2022-02-21T16:52:08.212Z,,,,,,,,,,,,,,,,,53,,,,,,,,,,,,,,567.3469999977679,,response,,,,99,,,,,,,Space,keypress(Space),,,,,,,,---- -- ----- -- ------ - ------- --- ----------<br>------------- ------ ------ ---- ---- ------- ----- -- ----<br>-------- ------- -- ---------- --- - --- ----- ----- ----<br>---- --- --- ----- --- ---- ---- ------- ----- ---- -------<br>--- --- -- ----- -- --- ---- -- --- ---- -- ------ ------<br>--- ----- -- all.,131666,131665.59999999776,131081.601,131089.8999999985,131098.253,131681.098,,55,all.
Item 99,flow.Loop,2_1_0_1,2022-02-21T16:52:08.213Z,,,,,,,,,,,,,,,,,,,,,,,,,,,,,,,22233.072999997763,,completion,,,,,E,,,,,,,,,,,silence,,,,,131666.19999999925,131665.59999999776,109415.875,109423,109432.527,131681.098,,,
Question 1,html.Screen,2_1_0_2,2022-02-21T16:52:15.155Z,,,,,,,,,,,,,,,,,,,,,,,,,,,,true,FALSE,,6926.101999999257,,response,,,,99,E,,,,,,FALSE,click #choice-2,,,,silence,,,,,138608.59999999776,138607.19999999925,131664.446,131666.19999999925,131681.098,138608.825,,,
Question 2,html.Screen,2_1_0_3,2022-02-21T16:52:18.638Z,,,,,,,,,,,,,,,,,,,,,,,,,,,,true,TRUE,,3481.3749999992433,,response,,,,99,E,,,,,,TRUE,click #choice-1,,,,silence,,,,,142091.80000000075,142090.19999999925,138592.173,138608.69999999925,138608.825,142105.779,,,
Item 99,flow.Sequence,2_1_0,2022-02-21T16:52:18.638Z,,,,,,,,,,,,,,,,,,,,,,,,,,,,,,,42665.92499999926,,completion,,,,,,,,,,,,,,,,,,,,,142092,142090.19999999925,99407.623,99426.80000000075,99424.275,142105.779,,,
Holding screen,html.Screen,2_1_1_0,2022-02-21T16:52:28.631Z,,,,,,,,,,,,,,,,,,,,,,,,,,,,,,,9991.799999999988,,timeout,,,,,,,,,,,,,,,,,,,,,152084.19999999925,152080.927,142089.127,142092.09999999776,142105.779,152097.579,,,
screen,html.Screen,2_1_1_1_0,2022-02-21T16:52:29.740Z,,,,,,,,,,,,,,,,,54,,,,,,,,,,,,,,1095.921000000002,,response,,,,100,,,,,,,Space,keypress(Space),,,,,,,,At --- ---- --- ------ ----- ------- ---- -- --- ------- --<br>------- ---------- ------ -- ----- -- ----- -- ---- ------<br>--- ----- --- --- ------ -------- ----- --- ------ ----- --<br>----- ----- ---------- --- --- ------ ------ ---- -- ------<br>------- --- ------ ----- --- ---- ------- -- ---- --- --<br>------- ------,153194.19999999925,153193.5,152080.927,152084.30000000075,152097.579,153196.67,,0,At
screen,html.Screen,2_1_1_1_1,2022-02-21T16:52:30.119Z,,,,,,,,,,,,,,,,,54,,,,,,,,,,,,,,375.63000000073225,,response,,,,100,,,,,,,Space,keypress(Space),,,,,,,,-- the ---- --- ------ ----- ------- ---- -- --- ------- --<br>------- ---------- ------ -- ----- -- ----- -- ---- ------<br>--- ----- --- --- ------ -------- ----- --- ------ ----- --<br>----- ----- ---------- --- --- ------ ------ ---- -- ------<br>------- --- ------ ----- --- ---- ------- -- ---- --- --<br>------- ------,153572.8999999985,153572.30000000075,153180.018,153194.19999999925,153196.67,153579.705,,1,the
screen,html.Screen,2_1_1_1_2,2022-02-21T16:52:30.438Z,,,,,,,,,,,,,,,,,54,,,,,,,,,,,,,,311.49499999926775,,response,,,,100,,,,,,,Space,keypress(Space),,,,,,,,-- --- time --- ------ ----- ------- ---- -- --- ------- --<br>------- ---------- ------ -- ----- -- ----- -- ---- ------<br>--- ----- --- --- ------ -------- ----- --- ------ ----- --<br>----- ----- ---------- --- --- ------ ------ ---- -- ------<br>------- --- ------ ----- --- ---- ------- -- ---- --- --<br>------- ------,153891.69999999925,153891.19999999925,153563.053,153573,153579.705,153896.04,,2,time
screen,html.Screen,2_1_1_1_3,2022-02-21T16:52:30.706Z,,,,,,,,,,,,,,,,,54,,,,,,,,,,,,,,262.85999999850173,,response,,,,100,,,,,,,Space,keypress(Space),,,,,,,,-- --- ---- the ------ ----- ------- ---- -- --- ------- --<br>------- ---------- ------ -- ----- -- ----- -- ---- ------<br>--- ----- --- --- ------ -------- ----- --- ------ ----- --<br>----- ----- ---------- --- --- ------ ------ ---- -- ------<br>------- --- ------ ----- --- ---- ------- -- ---- --- --<br>------- ------,154159.5,154158.8999999985,153879.388,153891.69999999925,153896.04,154162.621,,3,the
screen,html.Screen,2_1_1_1_4,2022-02-21T16:52:31.019Z,,,,,,,,,,,,,,,,,54,,,,,,,,,,,,,,309.37899999998626,,response,,,,100,,,,,,,Space,keypress(Space),,,,,,,,-- --- ---- --- French ----- ------- ---- -- --- ------- --<br>------- ---------- ------ -- ----- -- ----- -- ---- ------<br>--- ----- --- --- ------ -------- ----- --- ------ ----- --<br>----- ----- ---------- --- --- ------ ------ ---- -- ------<br>------- --- ------ ----- --- ---- ------- -- ---- --- --<br>------- ------,154472.69999999925,154472,154145.969,154159.59999999776,154162.621,154479.037,,4,French
screen,html.Screen,2_1_1_1_5,2022-02-21T16:52:31.397Z,,,,,,,,,,,,,,,,,54,,,,,,,,,,,,,,371.2630000007339,,response,,,,100,,,,,,,Space,keypress(Space),,,,,,,,-- --- ---- --- ------ crown ------- ---- -- --- ------- --<br>------- ---------- ------ -- ----- -- ----- -- ---- ------<br>--- ----- --- --- ------ -------- ----- --- ------ ----- --<br>----- ----- ---------- --- --- ------ ------ ---- -- ------<br>------- --- ------ ----- --- ---- ------- -- ---- --- --<br>------- ------,154850.8999999985,154850.30000000075,154462.385,154472.69999999925,154479.037,154862.042,,5,crown
screen,html.Screen,2_1_1_1_6,2022-02-21T16:52:31.716Z,,,,,,,,,,,,,,,,,54,,,,,,,,,,,,,,307.0579999977781,,response,,,,100,,,,,,,Space,keypress(Space),,,,,,,,-- --- ---- --- ------ ----- secured ---- -- --- ------- --<br>------- ---------- ------ -- ----- -- ----- -- ---- ------<br>--- ----- --- --- ------ -------- ----- --- ------ ----- --<br>----- ----- ---------- --- --- ------ ------ ---- -- ------<br>------- --- ------ ----- --- ---- ------- -- ---- --- --<br>------- ------,155169.80000000075,155169.09999999776,154845.39,154850.8999999985,154862.042,155178.477,,6,secured
screen,html.Screen,2_1_1_1_7,2022-02-21T16:52:31.985Z,,,,,,,,,,,,,,,,,54,,,,,,,,,,,,,,259.6229999977513,,response,,,,100,,,,,,,Space,keypress(Space),,,,,,,,-- --- ---- --- ------ ----- ------- much -- --- ------- --<br>------- ---------- ------ -- ----- -- ----- -- ---- ------<br>--- ----- --- --- ------ -------- ----- --- ------ ----- --<br>----- ----- ---------- --- --- ------ ------ ---- -- ------<br>------- --- ------ ----- --- ---- ------- -- ---- --- --<br>------- ------,155438.69999999925,155438.09999999776,155161.825,155169.80000000075,155178.477,155444.961,,7,much
screen,html.Screen,2_1_1_1_8,2022-02-21T16:52:32.289Z,,,,,,,,,,,,,,,,,54,,,,,,,,,,,,,,297.2389999992447,,response,,,,100,,,,,,,Space,keypress(Space),,,,,,,,-- --- ---- --- ------ ----- ------- ---- of --- ------- --<br>------- ---------- ------ -- ----- -- ----- -- ---- ------<br>--- ----- --- --- ------ -------- ----- --- ------ ----- --<br>----- ----- ---------- --- --- ------ ------ ---- -- ------<br>------- --- ------ ----- --- ---- ------- -- ---- --- --<br>------- ------,155742.80000000075,155742.19999999925,155428.309,155438.80000000075,155444.961,155744.773,,8,of
screen,html.Screen,2_1_1_1_9,2022-02-21T16:52:32.661Z,,,,,,,,,,,,,,,,,54,,,,,,,,,,,,,,369.1269999985234,,response,,,,100,,,,,,,Space,keypress(Space),,,,,,,,-- --- ---- --- ------ ----- ------- ---- -- its ------- --<br>------- ---------- ------ -- ----- -- ----- -- ---- ------<br>--- ----- --- --- ------ -------- ----- --- ------ ----- --<br>----- ----- ---------- --- --- ------ ------ ---- -- ------<br>------- --- ------ ----- --- ---- ------- -- ---- --- --<br>------- ------,156114.30000000075,156113.8999999985,155728.121,155742.80000000075,155744.773,156127.677,,9,its
screen,html.Screen,2_1_1_1_10,2022-02-21T16:52:32.951Z,,,,,,,,,,,,,,,,,54,,,,,,,,,,,,,,276.9229999977688,,response,,,,100,,,,,,,Space,keypress(Space),,,,,,,,-- --- ---- --- ------ ----- ------- ---- -- --- revenue --<br>------- ---------- ------ -- ----- -- ----- -- ---- ------<br>--- ----- --- --- ------ -------- ----- --- ------ ----- --<br>----- ----- ---------- --- --- ------ ------ ---- -- ------<br>------- --- ------ ----- --- ---- ------- -- ---- --- --<br>------- ------,156405,156404.59999999776,156111.025,156114.3999999985,156127.677,156410.772,,10,revenue
screen,html.Screen,2_1_1_1_11,2022-02-21T16:52:33.257Z,,,,,,,,,,,,,,,,,54,,,,,,,,,,,,,,299.42799999925774,,response,,,,100,,,,,,,Space,keypress(Space),,,,,,,,-- --- ---- --- ------ ----- ------- ---- -- --- ------- by<br>------- ---------- ------ -- ----- -- ----- -- ---- ------<br>--- ----- --- --- ------ -------- ----- --- ------ ----- --<br>----- ----- ---------- --- --- ------ ------ ---- -- ------<br>------- --- ------ ----- --- ---- ------- -- ---- --- --<br>------- ------,156710.80000000075,156710.19999999925,156394.12,156405.09999999776,156410.772,156727.165,,11,by
screen,html.Screen,2_1_1_1_12,2022-02-21T16:52:33.589Z,,,,,,,,,,,,,,,,,54,,,,,,,,,,,,,,315.1350000007369,,response,,,,100,,,,,,,Space,keypress(Space),,,,,,,,-- --- ---- --- ------ ----- ------- ---- -- --- ------- --<br>issuing ---------- ------ -- ----- -- ----- -- ---- ------<br>--- ----- --- --- ------ -------- ----- --- ------ ----- --<br>----- ----- ---------- --- --- ------ ------ ---- -- ------<br>------- --- ------ ----- --- ---- ------- -- ---- --- --<br>------- ------,157043.09999999776,157042.30000000075,156710.513,156710.80000000075,156727.165,157043.67,,12,issuing
screen,html.Screen,2_1_1_1_13,2022-02-21T16:52:33.833Z,,,,,,,,,,,,,,,,,54,,,,,,,,,,,,,,242.63000000073225,,response,,,,100,,,,,,,Space,keypress(Space),,,,,,,,-- --- ---- --- ------ ----- ------- ---- -- --- ------- --<br>------- government ------ -- ----- -- ----- -- ---- ------<br>--- ----- --- --- ------ -------- ----- --- ------ ----- --<br>----- ----- ---------- --- --- ------ ------ ---- -- ------<br>------- --- ------ ----- --- ---- ------- -- ---- --- --<br>------- ------,157286.8999999985,157286.30000000075,157027.018,157043.09999999776,157043.67,157293.398,,13,government
screen,html.Screen,2_1_1_1_14,2022-02-21T16:52:34.070Z,,,,,,,,,,,,,,,,,54,,,,,,,,,,,,,,230.1020000000135,,response,,,,100,,,,,,,Space,keypress(Space),,,,,,,,-- --- ---- --- ------ ----- ------- ---- -- --- ------- --<br>------- ---------- bonds. -- ----- -- ----- -- ---- ------<br>--- ----- --- --- ------ -------- ----- --- ------ ----- --<br>----- ----- ---------- --- --- ------ ------ ---- -- ------<br>------- --- ------ ----- --- ---- ------- -- ---- --- --<br>------- ------,157524.09999999776,157523.5,157276.746,157287.09999999776,157293.398,157526.547,,14,bonds.
screen,html.Screen,2_1_1_1_15,2022-02-21T16:52:34.582Z,,,,,,,,,,,,,,,,,54,,,,,,,,,,,,,,508.2530000007537,,response,,,,100,,,,,,,Space,keypress(Space),,,,,,,,-- --- ---- --- ------ ----- ------- ---- -- --- ------- --<br>------- ---------- ------ In ----- -- ----- -- ---- ------<br>--- ----- --- --- ------ -------- ----- --- ------ ----- --<br>----- ----- ---------- --- --- ------ ------ ---- -- ------<br>------- --- ------ ----- --- ---- ------- -- ---- --- --<br>------- ------,158035.30000000075,158034.80000000075,157509.895,157524.19999999925,157526.547,158042.762,,15,In
screen,html.Screen,2_1_1_1_16,2022-02-21T16:52:34.911Z,,,,,,,,,,,,,,,,,54,,,,,,,,,,,,,,321.53800000075717,,response,,,,100,,,,,,,Space,keypress(Space),,,,,,,,"-- --- ---- --- ------ ----- ------- ---- -- --- ------- --<br>------- ---------- ------ -- 1727, -- ----- -- ---- ------<br>--- ----- --- --- ------ -------- ----- --- ------ ----- --<br>----- ----- ---------- --- --- ------ ------ ---- -- ------<br>------- --- ------ ----- --- ---- ------- -- ---- --- --<br>------- ------",158364.80000000075,158364.30000000075,158026.11,158035.5,158042.762,158375.682,,16,"1727,"
screen,html.Screen,2_1_1_1_17,2022-02-21T16:52:35.747Z,,,,,,,,,,,,,,,,,54,,,,,,,,,,,,,,824.9179999977641,,response,,,,100,,,,,,,Space,keypress(Space),,,,,,,,-- --- ---- --- ------ ----- ------- ---- -- --- ------- --<br>------- ---------- ------ -- ----- in ----- -- ---- ------<br>--- ----- --- --- ------ -------- ----- --- ------ ----- --<br>----- ----- ---------- --- --- ------ ------ ---- -- ------<br>------- --- ------ ----- --- ---- ------- -- ---- --- --<br>------- ------,159201.19999999925,159200.59999999776,158359.03,158365,158375.682,159208.32,,17,in
screen,html.Screen,2_1_1_1_18,2022-02-21T16:52:36.138Z,,,,,,,,,,,,,,,,,54,,,,,,,,,,,,,,383.179999999993,,response,,,,100,,,,,,,Space,keypress(Space),,,,,,,,-- --- ---- --- ------ ----- ------- ---- -- --- ------- --<br>------- ---------- ------ -- ----- -- order -- ---- ------<br>--- ----- --- --- ------ -------- ----- --- ------ ----- --<br>----- ----- ---------- --- --- ------ ------ ---- -- ------<br>------- --- ------ ----- --- ---- ------- -- ---- --- --<br>------- ------,159592.19999999925,159591.5,159191.668,159201.19999999925,159208.32,159608.106,,18,order
screen,html.Screen,2_1_1_1_19,2022-02-21T16:52:36.508Z,,,,,,,,,,,,,,,,,54,,,,,,,,,,,,,,353.1940000007453,,response,,,,100,,,,,,,Space,keypress(Space),,,,,,,,-- --- ---- --- ------ ----- ------- ---- -- --- ------- --<br>------- ---------- ------ -- ----- -- ----- to ---- ------<br>--- ----- --- --- ------ -------- ----- --- ------ ----- --<br>----- ----- ---------- --- --- ------ ------ ---- -- ------<br>------- --- ------ ----- --- ---- ------- -- ---- --- --<br>------- ------,159961.8999999985,159961.30000000075,159591.454,159592.19999999925,159608.106,159974.498,,19,to
screen,html.Screen,2_1_1_1_20,2022-02-21T16:52:36.825Z,,,,,,,,,,,,,,,,,54,,,,,,,,,,,,,,303.80200000075274,,response,,,,100,,,,,,,Space,keypress(Space),,,,,,,,-- --- ---- --- ------ ----- ------- ---- -- --- ------- --<br>------- ---------- ------ -- ----- -- ----- -- save ------<br>--- ----- --- --- ------ -------- ----- --- ------ ----- --<br>----- ----- ---------- --- --- ------ ------ ---- -- ------<br>------- --- ------ ----- --- ---- ------- -- ---- --- --<br>------- ------,160278.8999999985,160278.30000000075,159957.846,159961.8999999985,159974.498,160290.914,,20,save
screen,html.Screen,2_1_1_1_21,2022-02-21T16:52:37.247Z,,,,,,,,,,,,,,,,,54,,,,,,,,,,,,,,409.08600000001024,,response,,,,100,,,,,,,Space,keypress(Space),,,,,,,,"-- --- ---- --- ------ ----- ------- ---- -- --- ------- --<br>------- ---------- ------ -- ----- -- ----- -- ---- money,<br>--- ----- --- --- ------ -------- ----- --- ------ ----- --<br>----- ----- ---------- --- --- ------ ------ ---- -- ------<br>------- --- ------ ----- --- ---- ------- -- ---- --- --<br>------- ------",160700.59999999776,160700,160274.262,160279,160290.914,160707.234,,21,"money,"
screen,html.Screen,2_1_1_1_22,2022-02-21T16:52:37.585Z,,,,,,,,,,,,,,,,,54,,,,,,,,,,,,,,331.16599999851314,,response,,,,100,,,,,,,Space,keypress(Space),,,,,,,,-- --- ---- --- ------ ----- ------- ---- -- --- ------- --<br>------- ---------- ------ -- ----- -- ----- -- ---- ------<br>the ----- --- --- ------ -------- ----- --- ------ ----- --<br>----- ----- ---------- --- --- ------ ------ ---- -- ------<br>------- --- ------ ----- --- ---- ------- -- ---- --- --<br>------- ------,161039,161038.3999999985,160690.582,160700.59999999776,160707.234,161040.321,,22,the
screen,html.Screen,2_1_1_1_23,2022-02-21T16:52:37.959Z,,,,,,,,,,,,,,,,,54,,,,,,,,,,,,,,372.0789999985136,,response,,,,100,,,,,,,Space,keypress(Space),,,,,,,,-- --- ---- --- ------ ----- ------- ---- -- --- ------- --<br>------- ---------- ------ -- ----- -- ----- -- ---- ------<br>--- state --- --- ------ -------- ----- --- ------ ----- --<br>----- ----- ---------- --- --- ------ ------ ---- -- ------<br>------- --- ------ ----- --- ---- ------- -- ---- --- --<br>------- ------,161413,161412.3999999985,161023.669,161039.09999999776,161040.321,161423.374,,23,state
screen,html.Screen,2_1_1_1_24,2022-02-21T16:52:38.222Z,,,,,,,,,,,,,,,,,54,,,,,,,,,,,,,,251.82599999924423,,response,,,,100,,,,,,,Space,keypress(Space),,,,,,,,-- --- ---- --- ------ ----- ------- ---- -- --- ------- --<br>------- ---------- ------ -- ----- -- ----- -- ---- ------<br>--- ----- cut --- ------ -------- ----- --- ------ ----- --<br>----- ----- ---------- --- --- ------ ------ ---- -- ------<br>------- --- ------ ----- --- ---- ------- -- ---- --- --<br>------- ------,161675.69999999925,161675.19999999925,161406.722,161413,161423.374,161689.88,,24,cut
screen,html.Screen,2_1_1_1_25,2022-02-21T16:52:38.530Z,,,,,,,,,,,,,,,,,54,,,,,,,,,,,,,,293.21999999776017,,response,,,,100,,,,,,,Space,keypress(Space),,,,,,,,-- --- ---- --- ------ ----- ------- ---- -- --- ------- --<br>------- ---------- ------ -- ----- -- ----- -- ---- ------<br>--- ----- --- the ------ -------- ----- --- ------ ----- --<br>----- ----- ---------- --- --- ------ ------ ---- -- ------<br>------- --- ------ ----- --- ---- ------- -- ---- --- --<br>------- ------,161983.59999999776,161983.09999999776,161673.228,161675.69999999925,161689.88,161989.483,,25,the
screen,html.Screen,2_1_1_1_26,2022-02-21T16:52:39.144Z,,,,,,,,,,,,,,,,,54,,,,,,,,,,,,,,607.6169999977574,,response,,,,100,,,,,,,Space,keypress(Space),,,,,,,,-- --- ---- --- ------ ----- ------- ---- -- --- ------- --<br>------- ---------- ------ -- ----- -- ----- -- ---- ------<br>--- ----- --- --- bonds' -------- ----- --- ------ ----- --<br>----- ----- ---------- --- --- ------ ------ ---- -- ------<br>------- --- ------ ----- --- ---- ------- -- ---- --- --<br>------- ------,162597.59999999776,162597.09999999776,161972.831,161983.69999999925,161989.483,162605.67,,26,bonds'
screen,html.Screen,2_1_1_1_27,2022-02-21T16:52:39.428Z,,,,,,,,,,,,,,,,,54,,,,,,,,,,,,,,275.3299999999872,,response,,,,100,,,,,,,Space,keypress(Space),,,,,,,,-- --- ---- --- ------ ----- ------- ---- -- --- ------- --<br>------- ---------- ------ -- ----- -- ----- -- ---- ------<br>--- ----- --- --- ------ interest ----- --- ------ ----- --<br>----- ----- ---------- --- --- ------ ------ ---- -- ------<br>------- --- ------ ----- --- ---- ------- -- ---- --- --<br>------- ------,162881.3999999985,162881,162589.018,162597.59999999776,162605.67,162888.754,,27,interest
screen,html.Screen,2_1_1_1_28,2022-02-21T16:52:39.763Z,,,,,,,,,,,,,,,,,54,,,,,,,,,,,,,,327.24600000001374,,response,,,,100,,,,,,,Space,keypress(Space),,,,,,,,-- --- ---- --- ------ ----- ------- ---- -- --- ------- --<br>------- ---------- ------ -- ----- -- ----- -- ---- ------<br>--- ----- --- --- ------ -------- rate. --- ------ ----- --<br>----- ----- ---------- --- --- ------ ------ ---- -- ------<br>------- --- ------ ----- --- ---- ------- -- ---- --- --<br>------- ------,163216.59999999776,163216,162872.102,162881.5,162888.754,163221.777,,28,rate.
screen,html.Screen,2_1_1_1_29,2022-02-21T16:52:40.231Z,,,,,,,,,,,,,,,,,54,,,,,,,,,,,,,,462.32299999776296,,response,,,,100,,,,,,,Space,keypress(Space),,,,,,,,-- --- ---- --- ------ ----- ------- ---- -- --- ------- --<br>------- ---------- ------ -- ----- -- ----- -- ---- ------<br>--- ----- --- --- ------ -------- ----- The ------ ----- --<br>----- ----- ---------- --- --- ------ ------ ---- -- ------<br>------- --- ------ ----- --- ---- ------- -- ---- --- --<br>------- ------,163684.69999999925,163684.09999999776,163205.125,163216.59999999776,163221.777,163688.121,,29,The
screen,html.Screen,2_1_1_1_30,2022-02-21T16:52:40.531Z,,,,,,,,,,,,,,,,,54,,,,,,,,,,,,,,295.5789999992412,,response,,,,100,,,,,,,Space,keypress(Space),,,,,,,,-- --- ---- --- ------ ----- ------- ---- -- --- ------- --<br>------- ---------- ------ -- ----- -- ----- -- ---- ------<br>--- ----- --- --- ------ -------- ----- --- market ----- --<br>----- ----- ---------- --- --- ------ ------ ---- -- ------<br>------- --- ------ ----- --- ---- ------- -- ---- --- --<br>------- ------,163984.19999999925,163983.69999999925,163671.469,163684.69999999925,163688.121,163987.882,,30,market
screen,html.Screen,2_1_1_1_31,2022-02-21T16:52:40.870Z,,,,,,,,,,,,,,,,,54,,,,,,,,,,,,,,334.8179999992426,,response,,,,100,,,,,,,Space,keypress(Space),,,,,,,,-- --- ---- --- ------ ----- ------- ---- -- --- ------- --<br>------- ---------- ------ -- ----- -- ----- -- ---- ------<br>--- ----- --- --- ------ -------- ----- --- ------ value --<br>----- ----- ---------- --- --- ------ ------ ---- -- ------<br>------- --- ------ ----- --- ---- ------- -- ---- --- --<br>------- ------,164323.30000000075,164322.69999999925,163971.23,163984.19999999925,163987.882,164337.581,,31,value
screen,html.Screen,2_1_1_1_32,2022-02-21T16:52:41.220Z,,,,,,,,,,,,,,,,,54,,,,,,,,,,,,,,335.11899999924935,,response,,,,100,,,,,,,Space,keypress(Space),,,,,,,,-- --- ---- --- ------ ----- ------- ---- -- --- ------- --<br>------- ---------- ------ -- ----- -- ----- -- ---- ------<br>--- ----- --- --- ------ -------- ----- --- ------ ----- of<br>----- ----- ---------- --- --- ------ ------ ---- -- ------<br>------- --- ------ ----- --- ---- ------- -- ---- --- --<br>------- ------,164673.30000000075,164672.69999999925,164320.929,164323.30000000075,164337.581,164687.298,,32,of
screen,html.Screen,2_1_1_1_33,2022-02-21T16:52:41.573Z,,,,,,,,,,,,,,,,,54,,,,,,,,,,,,,,338.6019999985001,,response,,,,100,,,,,,,Space,keypress(Space),,,,,,,,-- --- ---- --- ------ ----- ------- ---- -- --- ------- --<br>------- ---------- ------ -- ----- -- ----- -- ---- ------<br>--- ----- --- --- ------ -------- ----- --- ------ ----- --<br>these ----- ---------- --- --- ------ ------ ---- -- ------<br>------- --- ------ ----- --- ---- ------- -- ---- --- --<br>------- ------,165026.5,165025.8999999985,164670.646,164673.3999999985,164687.298,165036.995,,33,these
screen,html.Screen,2_1_1_1_34,2022-02-21T16:52:41.836Z,,,,,,,,,,,,,,,,,54,,,,,,,,,,,,,,252.30500000074971,,response,,,,100,,,,,,,Space,keypress(Space),,,,,,,,-- --- ---- --- ------ ----- ------- ---- -- --- ------- --<br>------- ---------- ------ -- ----- -- ----- -- ---- ------<br>--- ----- --- --- ------ -------- ----- --- ------ ----- --<br>----- bonds ---------- --- --- ------ ------ ---- -- ------<br>------- --- ------ ----- --- ---- ------- -- ---- --- --<br>------- ------,165290,165289.30000000075,165020.343,165026.59999999776,165036.995,165303.452,,34,bonds
screen,html.Screen,2_1_1_1_35,2022-02-21T16:52:42.570Z,,,,,,,,,,,,,,,,,54,,,,,,,,,,,,,,719.9479999985197,,response,,,,100,,,,,,,Space,keypress(Space),,,,,,,,"-- --- ---- --- ------ ----- ------- ---- -- --- ------- --<br>------- ---------- ------ -- ----- -- ----- -- ---- ------<br>--- ----- --- --- ------ -------- ----- --- ------ ----- --<br>----- ----- plummeted, --- --- ------ ------ ---- -- ------<br>------- --- ------ ----- --- ---- ------- -- ---- --- --<br>------- ------",166024,166023.3999999985,165286.8,165290,165303.452,166036.166,,35,"plummeted,"
screen,html.Screen,2_1_1_1_36,2022-02-21T16:52:43.536Z,,,,,,,,,,,,,,,,,54,,,,,,,,,,,,,,952.7339999985124,,response,,,,100,,,,,,,Space,keypress(Space),,,,,,,,-- --- ---- --- ------ ----- ------- ---- -- --- ------- --<br>------- ---------- ------ -- ----- -- ----- -- ---- ------<br>--- ----- --- --- ------ -------- ----- --- ------ ----- --<br>----- ----- ---------- and --- ------ ------ ---- -- ------<br>------- --- ------ ----- --- ---- ------- -- ---- --- --<br>------- ------,166989.59999999776,166988.8999999985,166019.514,166024.09999999776,166036.166,167002.004,,36,and
screen,html.Screen,2_1_1_1_37,2022-02-21T16:52:43.900Z,,,,,,,,,,,,,,,,,54,,,,,,,,,,,,,,350.99600000001374,,response,,,,100,,,,,,,Space,keypress(Space),,,,,,,,-- --- ---- --- ------ ----- ------- ---- -- --- ------- --<br>------- ---------- ------ -- ----- -- ----- -- ---- ------<br>--- ----- --- --- ------ -------- ----- --- ------ ----- --<br>----- ----- ---------- --- the ------ ------ ---- -- ------<br>------- --- ------ ----- --- ---- ------- -- ---- --- --<br>------- ------,167353.80000000075,167353,166985.352,166989.69999999925,167002.004,167368.385,,37,the
screen,html.Screen,2_1_1_1_38,2022-02-21T16:52:44.164Z,,,,,,,,,,,,,,,,,54,,,,,,,,,,,,,,249.1149999999907,,response,,,,100,,,,,,,Space,keypress(Space),,,,,,,,-- --- ---- --- ------ ----- ------- ---- -- --- ------- --<br>------- ---------- ------ -- ----- -- ----- -- ---- ------<br>--- ----- --- --- ------ -------- ----- --- ------ ----- --<br>----- ----- ---------- --- --- market ------ ---- -- ------<br>------- --- ------ ----- --- ---- ------- -- ---- --- --<br>------- ------,167618.09999999776,167617.5,167351.733,167353.8999999985,167368.385,167634.893,,38,market
screen,html.Screen,2_1_1_1_39,2022-02-21T16:52:44.565Z,,,,,,,,,,,,,,,,,54,,,,,,,,,,,,,,383.2069999977539,,response,,,,100,,,,,,,Space,keypress(Space),,,,,,,,-- --- ---- --- ------ ----- ------- ---- -- --- ------- --<br>------- ---------- ------ -- ----- -- ----- -- ---- ------<br>--- ----- --- --- ------ -------- ----- --- ------ ----- --<br>----- ----- ---------- --- --- ------ became ---- -- ------<br>------- --- ------ ----- --- ---- ------- -- ---- --- --<br>------- ------,168018.69999999925,168018.09999999776,167618.241,167618.19999999925,167634.893,168034.626,,39,became
screen,html.Screen,2_1_1_1_40,2022-02-21T16:52:44.830Z,,,,,,,,,,,,,,,,,54,,,,,,,,,,,,,,248.67400000075577,,response,,,,100,,,,,,,Space,keypress(Space),,,,,,,,-- --- ---- --- ------ ----- ------- ---- -- --- ------- --<br>------- ---------- ------ -- ----- -- ----- -- ---- ------<br>--- ----- --- --- ------ -------- ----- --- ------ ----- --<br>----- ----- ---------- --- --- ------ ------ wary -- ------<br>------- --- ------ ----- --- ---- ------- -- ---- --- --<br>------- ------,168284,168283.30000000075,168017.974,168018.69999999925,168034.626,168284.461,,40,wary
screen,html.Screen,2_1_1_1_41,2022-02-21T16:52:45.089Z,,,,,,,,,,,,,,,,,54,,,,,,,,,,,,,,257.3390000007348,,response,,,,100,,,,,,,Space,keypress(Space),,,,,,,,-- --- ---- --- ------ ----- ------- ---- -- --- ------- --<br>------- ---------- ------ -- ----- -- ----- -- ---- ------<br>--- ----- --- --- ------ -------- ----- --- ------ ----- --<br>----- ----- ---------- --- --- ------ ------ ---- of ------<br>------- --- ------ ----- --- ---- ------- -- ---- --- --<br>------- ------,168542.5,168541.80000000075,168267.809,168284.09999999776,168284.461,168550.797,,41,of
screen,html.Screen,2_1_1_1_42,2022-02-21T16:52:45.471Z,,,,,,,,,,,,,,,,,54,,,,,,,,,,,,,,373.0030000007537,,response,,,,100,,,,,,,Space,keypress(Space),,,,,,,,-- --- ---- --- ------ ----- ------- ---- -- --- ------- --<br>------- ---------- ------ -- ----- -- ----- -- ---- ------<br>--- ----- --- --- ------ -------- ----- --- ------ ----- --<br>----- ----- ---------- --- --- ------ ------ ---- -- French<br>------- --- ------ ----- --- ---- ------- -- ---- --- --<br>------- ------,168924.3999999985,168923.80000000075,168534.145,168542.59999999776,168550.797,168933.804,,42,French
screen,html.Screen,2_1_1_1_43,2022-02-21T16:52:45.836Z,,,,,,,,,,,,,,,,,54,,,,,,,,,,,,,,355.1959999999963,,response,,,,100,,,,,,,Space,keypress(Space),,,,,,,,-- --- ---- --- ------ ----- ------- ---- -- --- ------- --<br>------- ---------- ------ -- ----- -- ----- -- ---- ------<br>--- ----- --- --- ------ -------- ----- --- ------ ----- --<br>----- ----- ---------- --- --- ------ ------ ---- -- ------<br>credit. --- ------ ----- --- ---- ------- -- ---- --- --<br>------- ------,169289.5,169289,168917.152,168924.5,168933.804,169300.159,,43,credit.
screen,html.Screen,2_1_1_1_44,2022-02-21T16:52:46.395Z,,,,,,,,,,,,,,,,,54,,,,,,,,,,,,,,547.5409999992407,,response,,,,100,,,,,,,Space,keypress(Space),,,,,,,,-- --- ---- --- ------ ----- ------- ---- -- --- ------- --<br>------- ---------- ------ -- ----- -- ----- -- ---- ------<br>--- ----- --- --- ------ -------- ----- --- ------ ----- --<br>----- ----- ---------- --- --- ------ ------ ---- -- ------<br>------- The ------ ----- --- ---- ------- -- ---- --- --<br>------- ------,169848.30000000075,169847.69999999925,169283.507,169289.59999999776,169300.159,169849.626,,44,The
screen,html.Screen,2_1_1_1_45,2022-02-21T16:52:46.772Z,,,,,,,,,,,,,,,,,54,,,,,,,,,,,,,,375.3740000000107,,response,,,,100,,,,,,,Space,keypress(Space),,,,,,,,-- --- ---- --- ------ ----- ------- ---- -- --- ------- --<br>------- ---------- ------ -- ----- -- ----- -- ---- ------<br>--- ----- --- --- ------ -------- ----- --- ------ ----- --<br>----- ----- ---------- --- --- ------ ------ ---- -- ------<br>------- --- French ----- --- ---- ------- -- ---- --- --<br>------- ------,170225.5,170225,169832.974,169848.30000000075,169849.626,170232.731,,45,French
screen,html.Screen,2_1_1_1_46,2022-02-21T16:52:47.027Z,,,,,,,,,,,,,,,,,54,,,,,,,,,,,,,,247.0690000007453,,response,,,,100,,,,,,,Space,keypress(Space),,,,,,,,-- --- ---- --- ------ ----- ------- ---- -- --- ------- --<br>------- ---------- ------ -- ----- -- ----- -- ---- ------<br>--- ----- --- --- ------ -------- ----- --- ------ ----- --<br>----- ----- ---------- --- --- ------ ------ ---- -- ------<br>------- --- ------ state --- ---- ------- -- ---- --- --<br>------- ------,170480.3999999985,170479.80000000075,170216.079,170225.59999999776,170232.731,170482.539,,46,state
screen,html.Screen,2_1_1_1_47,2022-02-21T16:52:47.239Z,,,,,,,,,,,,,,,,,54,,,,,,,,,,,,,,209.56099999777507,,response,,,,100,,,,,,,Space,keypress(Space),,,,,,,,-- --- ---- --- ------ ----- ------- ---- -- --- ------- --<br>------- ---------- ------ -- ----- -- ----- -- ---- ------<br>--- ----- --- --- ------ -------- ----- --- ------ ----- --<br>----- ----- ---------- --- --- ------ ------ ---- -- ------<br>------- --- ------ ----- was ---- ------- -- ---- --- --<br>------- ------,170692.69999999925,170692.09999999776,170465.887,170480.3999999985,170482.539,170698.85,,47,was
screen,html.Screen,2_1_1_1_48,2022-02-21T16:52:47.584Z,,,,,,,,,,,,,,,,,54,,,,,,,,,,,,,,338.249999997759,,response,,,,100,,,,,,,Space,keypress(Space),,,,,,,,-- --- ---- --- ------ ----- ------- ---- -- --- ------- --<br>------- ---------- ------ -- ----- -- ----- -- ---- ------<br>--- ----- --- --- ------ -------- ----- --- ------ ----- --<br>----- ----- ---------- --- --- ------ ------ ---- -- ------<br>------- --- ------ ----- --- left ------- -- ---- --- --<br>------- ------,171037.69999999925,171037.09999999776,170682.198,170692.69999999925,170698.85,171048.741,,48,left
screen,html.Screen,2_1_1_1_49,2022-02-21T16:52:47.947Z,,,,,,,,,,,,,,,,,54,,,,,,,,,,,,,,351.35899999775575,,response,,,,100,,,,,,,Space,keypress(Space),,,,,,,,-- --- ---- --- ------ ----- ------- ---- -- --- ------- --<br>------- ---------- ------ -- ----- -- ----- -- ---- ------<br>--- ----- --- --- ------ -------- ----- --- ------ ----- --<br>----- ----- ---------- --- --- ------ ------ ---- -- ------<br>------- --- ------ ----- --- ---- without -- ---- --- --<br>------- ------,171400.80000000075,171400.09999999776,171032.089,171037.80000000075,171048.741,171415.074,,49,without
screen,html.Screen,2_1_1_1_50,2022-02-21T16:52:48.215Z,,,,,,,,,,,,,,,,,54,,,,,,,,,,,,,,253.1259999992617,,response,,,,100,,,,,,,Space,keypress(Space),,,,,,,,-- --- ---- --- ------ ----- ------- ---- -- --- ------- --<br>------- ---------- ------ -- ----- -- ----- -- ---- ------<br>--- ----- --- --- ------ -------- ----- --- ------ ----- --<br>----- ----- ---------- --- --- ------ ------ ---- -- ------<br>------- --- ------ ----- --- ---- ------- an ---- --- --<br>------- ------,171668.69999999925,171668.19999999925,171398.422,171400.8999999985,171415.074,171681.54,,50,an
screen,html.Screen,2_1_1_1_51,2022-02-21T16:52:48.686Z,,,,,,,,,,,,,,,,,54,,,,,,,,,,,,,,457.85999999850173,,response,,,,100,,,,,,,Space,keypress(Space),,,,,,,,-- --- ---- --- ------ ----- ------- ---- -- --- ------- --<br>------- ---------- ------ -- ----- -- ----- -- ---- ------<br>--- ----- --- --- ------ -------- ----- --- ------ ----- --<br>----- ----- ---------- --- --- ------ ------ ---- -- ------<br>------- --- ------ ----- --- ---- ------- -- easy --- --<br>------- ------,172140,172139.3999999985,171664.888,171668.80000000075,171681.54,172147.82,,51,easy
screen,html.Screen,2_1_1_1_52,2022-02-21T16:52:48.944Z,,,,,,,,,,,,,,,,,54,,,,,,,,,,,,,,248.98000000073807,,response,,,,100,,,,,,,Space,keypress(Space),,,,,,,,-- --- ---- --- ------ ----- ------- ---- -- --- ------- --<br>------- ---------- ------ -- ----- -- ----- -- ---- ------<br>--- ----- --- --- ------ -------- ----- --- ------ ----- --<br>----- ----- ---------- --- --- ------ ------ ---- -- ------<br>------- --- ------ ----- --- ---- ------- -- ---- way --<br>------- ------,172397.30000000075,172396.80000000075,172131.168,172140,172147.82,172397.638,,52,way
screen,html.Screen,2_1_1_1_53,2022-02-21T16:52:49.341Z,,,,,,,,,,,,,,,,,54,,,,,,,,,,,,,,396.3619999999937,,response,,,,100,,,,,,,Space,keypress(Space),,,,,,,,-- --- ---- --- ------ ----- ------- ---- -- --- ------- --<br>------- ---------- ------ -- ----- -- ----- -- ---- ------<br>--- ----- --- --- ------ -------- ----- --- ------ ----- --<br>----- ----- ---------- --- --- ------ ------ ---- -- ------<br>------- --- ------ ----- --- ---- ------- -- ---- --- of<br>------- ------,172794.5,172794,172380.986,172397.3999999985,172397.638,172797.29,,53,of
screen,html.Screen,2_1_1_1_54,2022-02-21T16:52:49.719Z,,,,,,,,,,,,,,,,,54,,,,,,,,,,,,,,375.10999999850173,,response,,,,100,,,,,,,Space,keypress(Space),,,,,,,,-- --- ---- --- ------ ----- ------- ---- -- --- ------- --<br>------- ---------- ------ -- ----- -- ----- -- ---- ------<br>--- ----- --- --- ------ -------- ----- --- ------ ----- --<br>----- ----- ---------- --- --- ------ ------ ---- -- ------<br>------- --- ------ ----- --- ---- ------- -- ---- --- --<br>raising ------,173173.09999999776,173172.3999999985,172780.638,172794.59999999776,172797.29,173180.358,,54,raising
screen,html.Screen,2_1_1_1_55,2022-02-21T16:52:50.303Z,,,,,,,,,,,,,,,,,54,,,,,,,,,,,,,,575.6419999999925,,response,,,,100,,,,,,,Space,keypress(Space),,,,,,,,-- --- ---- --- ------ ----- ------- ---- -- --- ------- --<br>------- ---------- ------ -- ----- -- ----- -- ---- ------<br>--- ----- --- --- ------ -------- ----- --- ------ ----- --<br>----- ----- ---------- --- --- ------ ------ ---- -- ------<br>------- --- ------ ----- --- ---- ------- -- ---- --- --<br>------- money.,173756.59999999776,173756,173163.706,173173.19999999925,173180.358,173763.21,,55,money.
Item 100,flow.Loop,2_1_1_1,2022-02-21T16:52:50.303Z,,,,,,,,,,,,,,,,,,,,,,,,,,,,,,,21658.421000000002,,completion,,,,,E,,,,,,,,,,,silence,,,,,173756.69999999925,173756,152080.927,152084.30000000075,152097.579,173763.21,,,
Question 1,html.Screen,2_1_1_2,2022-02-21T16:52:52.678Z,,,,,,,,,,,,,,,,,,,,,,,,,,,,true,TRUE,,2366.989999999263,,response,,,,100,E,,,,,,TRUE,click #choice-1,,,,silence,,,,,176131.59999999776,176130.19999999925,173746.558,173756.69999999925,173763.21,176144.605,,,
Question 2,html.Screen,2_1_1_3,2022-02-21T16:52:55.002Z,,,,,,,,,,,,,,,,,,,,,,,,,,,,true,FALSE,,2309.0949999992445,,response,,,,100,E,,,,,,FALSE,click #choice-2,,,,silence,,,,,178455.19999999925,178453.69999999925,176127.953,176131.59999999776,176144.605,178459.356,,,
Item 100,flow.Sequence,2_1_1,2022-02-21T16:52:55.002Z,,,,,,,,,,,,,,,,,,,,,,,,,,,,,,,36347.920999999245,,completion,,,,,,,,,,,,,,,,,,,,,178455.3999999985,178453.69999999925,142089.127,142092.09999999776,142105.779,178459.356,,,
End of Practice,html.Page,2_1_2,2022-02-21T16:52:58.312Z,,,,,,,,,,,,,,,,,,,,,,,,,,,,,,,3302.243999997765,,form submission,,,,,,,,,,,,,,,,,,,,,181762.19999999925,181761.59999999776,178442.704,178455.5,178459.356,181773.164,,,
Practice,flow.Sequence,2_1,2022-02-21T16:52:58.312Z,,,,,,,,,,,,,,,,,,,,,,,,,,,,,,,82337.32499999777,,completion,,,,,,,,,,,,,,,,,,,,,181762.5,181761.59999999776,99407.623,99426.69999999925,99424.275,181773.164,,,
Trap_instruction,html.Page,2_2_0,2022-02-21T16:53:03.217Z,,,,,,,,,,,,,,,,,,,,,,,,,,,,,,,4894.435999997775,,form submission,,,,,,,,,,,,,,,,,,,,,186667.80000000075,186667.59999999776,181756.512,181762.59999999776,181773.164,186669.042,,,
trap_trial,html.Screen,2_2_1,2022-02-21T16:53:06.423Z,,,,,,,,,,,,,,,,,,,,,,,,,,,,true,1,,3202.2580000007583,,response,,,,,,,,,,,1,click #choice-1,,,,,,,,,189873,189871.30000000075,186652.39,186667.80000000075,186669.042,189882.967,,,
end of trap trial,html.Page,2_2_2,2022-02-21T16:53:08.713Z,,,,,,,,,,,,,,,,,,,,,,,,,,,,,,,2279.833000000741,,form submission,,,,,,,,,,,,,,,,,,,,,192163.3999999985,192162.80000000075,189866.315,189873.09999999776,189882.967,192164.713,,,
Trap 1,flow.Sequence,2_2,2022-02-21T16:53:08.713Z,,,,,,,,,,,,,,,,,,,,,,,,,,,,,,,10389.636000000755,,completion,,,,,,,,,,,,,,,,,,,,,192163.59999999776,192162.80000000075,181756.512,181762.59999999776,181773.164,192164.713,,,
Standby,html.Page,2_3_0,2022-02-21T16:53:16.701Z,,,,,,,,,,,,,,,,,,,,,,,,,,,,,,,7992.826000000001,,timeout,,,,,,,,,,,,,,,,,,,,,200151.30000000075,200140.887,192148.061,192163.69999999925,192164.713,200157.539,,,
Holding screen,html.Screen,2_3_1_0_0,2022-02-21T16:53:23.686Z,,,,,,,,,,,,,,,,,,,,,,,,,,,,,,,6994.643000000011,,timeout,,,,,,,,,,,,,,,,,,,,,207136.69999999925,207135.53,200140.887,200151.3999999985,200157.539,207152.182,,,
screen,html.Screen,2_3_1_0_1_0,2022-02-21T16:53:24.474Z,,,,,,,,,,,,,,,,,48,,,,,,,,,,,,,,771.9179999977641,,response,,,,10,E,,,,,,Space,keypress(Space),,,,lyrical,,,,As -- --- ------ ------- --------- ----------- --------<br>--------- -------- --- ------- -- ------- ---- -- ------<br>-- --- -------- -------- ---------- ---- ---- ---- ------<br>-- --------- -- ---- -- --- -- --- ------- -- - -----<br>---------- -- -- -- ---- ----- -- ------ -- --- ------<br>-------,207924.80000000075,207924.09999999776,207135.53,207136.80000000075,207152.182,207934.865,,0,As
screen,html.Screen,2_3_1_0_1_1,2022-02-21T16:53:24.825Z,,,,,,,,,,,,,,,,,48,,,,,,,,,,,,,,339.93500000075437,,response,,,,10,E,,,,,,Space,keypress(Space),,,,lyrical,,,,-- in --- ------ ------- --------- ----------- --------<br>--------- -------- --- ------- -- ------- ---- -- ------<br>-- --- -------- -------- ---------- ---- ---- ---- ------<br>-- --------- -- ---- -- --- -- --- ------- -- - -----<br>---------- -- -- -- ---- ----- -- ------ -- --- ------<br>-------,208275.3999999985,208274.80000000075,207918.213,207924.80000000075,207934.865,208284.576,,1,in
screen,html.Screen,2_3_1_0_1_2,2022-02-21T16:53:25.057Z,,,,,,,,,,,,,,,,,48,,,,,,,,,,,,,,221.92399999999907,,response,,,,10,E,,,,,,Space,keypress(Space),,,,lyrical,,,,-- -- the ------ ------- --------- ----------- --------<br>--------- -------- --- ------- -- ------- ---- -- ------<br>-- --- -------- -------- ---------- ---- ---- ---- ------<br>-- --------- -- ---- -- --- -- --- ------- -- - -----<br>---------- -- -- -- ---- ----- -- ------ -- --- ------<br>-------,208507.19999999925,208506.5,208267.924,208275.5,208284.576,208517.966,,2,the
screen,html.Screen,2_3_1_0_1_3,2022-02-21T16:53:25.251Z,,,,,,,,,,,,,,,,,48,,,,,,,,,,,,,,183.23399999926914,,response,,,,10,E,,,,,,Space,keypress(Space),,,,lyrical,,,,-- -- --- United ------- --------- ----------- --------<br>--------- -------- --- ------- -- ------- ---- -- ------<br>-- --- -------- -------- ---------- ---- ---- ---- ------<br>-- --------- -- ---- -- --- -- --- ------- -- - -----<br>---------- -- -- -- ---- ----- -- ------ -- --- ------<br>-------,208701.80000000075,208701.19999999925,208501.314,208507.19999999925,208517.966,208717.835,,3,United
screen,html.Screen,2_3_1_0_1_4,2022-02-21T16:53:25.503Z,,,,,,,,,,,,,,,,,48,,,,,,,,,,,,,,234.66500000000815,,response,,,,10,E,,,,,,Space,keypress(Space),,,,lyrical,,,,"-- -- --- ------ States, --------- ----------- --------<br>--------- -------- --- ------- -- ------- ---- -- ------<br>-- --- -------- -------- ---------- ---- ---- ---- ------<br>-- --------- -- ---- -- --- -- --- ------- -- - -----<br>---------- -- -- -- ---- ----- -- ------ -- --- ------<br>-------",208953,208952.5,208701.183,208701.80000000075,208717.835,208967.435,,4,"States,"
screen,html.Screen,2_3_1_0_1_5,2022-02-21T16:53:25.969Z,,,,,,,,,,,,,,,,,48,,,,,,,,,,,,,,451.16499999776715,,response,,,,10,E,,,,,,Space,keypress(Space),,,,lyrical,,,,-- -- --- ------ ------- Colombian ----------- --------<br>--------- -------- --- ------- -- ------- ---- -- ------<br>-- --- -------- -------- ---------- ---- ---- ---- ------<br>-- --------- -- ---- -- --- -- --- ------- -- - -----<br>---------- -- -- -- ---- ----- -- ------ -- --- ------<br>-------,209419.3999999985,209418.59999999776,208950.783,208953.09999999776,208967.435,209433.667,,5,Colombian
screen,html.Screen,2_3_1_0_1_6,2022-02-21T16:53:26.458Z,,,,,,,,,,,,,,,,,48,,,,,,,,,,,,,,473.9329999977781,,response,,,,10,E,,,,,,Space,keypress(Space),,,,lyrical,,,,-- -- --- ------ ------- --------- legislation --------<br>--------- -------- --- ------- -- ------- ---- -- ------<br>-- --- -------- -------- ---------- ---- ---- ---- ------<br>-- --------- -- ---- -- --- -- --- ------- -- - -----<br>---------- -- -- -- ---- ----- -- ------ -- --- ------<br>-------,209908.09999999776,209907.59999999776,209417.015,209419.3999999985,209433.667,209916.746,,6,legislation
screen,html.Screen,2_3_1_0_1_7,2022-02-21T16:53:27.285Z,,,,,,,,,,,,,,,,,48,,,,,,,,,,,,,,818.1539999984961,,response,,,,10,E,,,,,,Space,keypress(Space),,,,lyrical,,,,-- -- --- ------ ------- --------- ----------- requires<br>--------- -------- --- ------- -- ------- ---- -- ------<br>-- --- -------- -------- ---------- ---- ---- ---- ------<br>-- --------- -- ---- -- --- -- --- ------- -- - -----<br>---------- -- -- -- ---- ----- -- ------ -- --- ------<br>-------,210735.5,210734.8999999985,209900.094,209908.19999999925,209916.746,210749.381,,7,requires
screen,html.Screen,2_3_1_0_1_8,2022-02-21T16:53:28.134Z,,,,,,,,,,,,,,,,,48,,,,,,,,,,,,,,834.119000000006,,response,,,,10,E,,,,,,Space,keypress(Space),,,,lyrical,,,,-- -- --- ------ ------- --------- ----------- --------<br>travelers -------- --- ------- -- ------- ---- -- ------<br>-- --- -------- -------- ---------- ---- ---- ---- ------<br>-- --------- -- ---- -- --- -- --- ------- -- - -----<br>---------- -- -- -- ---- ----- -- ------ -- --- ------<br>-------,211584,211583.5,210732.729,210735.59999999776,210749.381,211598.652,,8,travelers
screen,html.Screen,2_3_1_0_1_9,2022-02-21T16:53:28.477Z,,,,,,,,,,,,,,,,,48,,,,,,,,,,,,,,328.44799999776296,,response,,,,10,E,,,,,,Space,keypress(Space),,,,lyrical,,,,-- -- --- ------ ------- --------- ----------- --------<br>--------- entering --- ------- -- ------- ---- -- ------<br>-- --- -------- -------- ---------- ---- ---- ---- ------<br>-- --------- -- ---- -- --- -- --- ------- -- - -----<br>---------- -- -- -- ---- ----- -- ------ -- --- ------<br>-------,211927.5,211927.09999999776,211582,211584,211598.652,211931.742,,9,entering
screen,html.Screen,2_3_1_0_1_10,2022-02-21T16:53:28.790Z,,,,,,,,,,,,,,,,,48,,,,,,,,,,,,,,308.6579999985115,,response,,,,10,E,,,,,,Space,keypress(Space),,,,lyrical,,,,-- -- --- ------ ------- --------- ----------- --------<br>--------- -------- the ------- -- ------- ---- -- ------<br>-- --- -------- -------- ---------- ---- ---- ---- ------<br>-- --------- -- ---- -- --- -- --- ------- -- - -----<br>---------- -- -- -- ---- ----- -- ------ -- --- ------<br>-------,212240.8999999985,212240.3999999985,211915.09,211927.59999999776,211931.742,212248.058,,10,the
screen,html.Screen,2_3_1_0_1_11,2022-02-21T16:53:29.050Z,,,,,,,,,,,,,,,,,48,,,,,,,,,,,,,,251.8419999985199,,response,,,,10,E,,,,,,Space,keypress(Space),,,,lyrical,,,,-- -- --- ------ ------- --------- ----------- --------<br>--------- -------- --- country -- ------- ---- -- ------<br>-- --- -------- -------- ---------- ---- ---- ---- ------<br>-- --------- -- ---- -- --- -- --- ------- -- - -----<br>---------- -- -- -- ---- ----- -- ------ -- --- ------<br>-------,212500.59999999776,212499.8999999985,212231.406,212241,212248.058,212514.487,,11,country
screen,html.Screen,2_3_1_0_1_12,2022-02-21T16:53:29.489Z,,,,,,,,,,,,,,,,,48,,,,,,,,,,,,,,424.6129999977711,,response,,,,10,E,,,,,,Space,keypress(Space),,,,lyrical,,,,-- -- --- ------ ------- --------- ----------- --------<br>--------- -------- --- ------- to ------- ---- -- ------<br>-- --- -------- -------- ---------- ---- ---- ---- ------<br>-- --------- -- ---- -- --- -- --- ------- -- - -----<br>---------- -- -- -- ---- ----- -- ------ -- --- ------<br>-------,212939.69999999925,212939.09999999776,212497.835,212500.80000000075,212514.487,212947.498,,12,to
screen,html.Screen,2_3_1_0_1_13,2022-02-21T16:53:29.736Z,,,,,,,,,,,,,,,,,48,,,,,,,,,,,,,,237.80200000075274,,response,,,,10,E,,,,,,Space,keypress(Space),,,,lyrical,,,,-- -- --- ------ ------- --------- ----------- --------<br>--------- -------- --- ------- -- declare ---- -- ------<br>-- --- -------- -------- ---------- ---- ---- ---- ------<br>-- --------- -- ---- -- --- -- --- ------- -- - -----<br>---------- -- -- -- ---- ----- -- ------ -- --- ------<br>-------,213186,213185.30000000075,212930.846,212939.69999999925,212947.498,213197.321,,13,declare
screen,html.Screen,2_3_1_0_1_14,2022-02-21T16:53:30.131Z,,,,,,,,,,,,,,,,,48,,,,,,,,,,,,,,383.77899999776855,,response,,,,10,E,,,,,,Space,keypress(Space),,,,lyrical,,,,-- -- --- ------ ------- --------- ----------- --------<br>--------- -------- --- ------- -- ------- cash -- ------<br>-- --- -------- -------- ---------- ---- ---- ---- ------<br>-- --------- -- ---- -- --- -- --- ------- -- - -----<br>---------- -- -- -- ---- ----- -- ------ -- --- ------<br>-------,213581.59999999776,213581.09999999776,213180.669,213186.09999999776,213197.321,213597.136,,14,cash
screen,html.Screen,2_3_1_0_1_15,2022-02-21T16:53:30.431Z,,,,,,,,,,,,,,,,,48,,,,,,,,,,,,,,283.7639999985113,,response,,,,10,E,,,,,,Space,keypress(Space),,,,lyrical,,,,-- -- --- ------ ------- --------- ----------- --------<br>--------- -------- --- ------- -- ------- ---- in ------<br>-- --- -------- -------- ---------- ---- ---- ---- ------<br>-- --------- -- ---- -- --- -- --- ------- -- - -----<br>---------- -- -- -- ---- ----- -- ------ -- --- ------<br>-------,213881.5,213880.8999999985,213580.484,213581.69999999925,213597.136,213896.831,,15,in
screen,html.Screen,2_3_1_0_1_16,2022-02-21T16:53:30.748Z,,,,,,,,,,,,,,,,,48,,,,,,,,,,,,,,301.36899999924935,,response,,,,10,E,,,,,,Space,keypress(Space),,,,lyrical,,,,-- -- --- ------ ------- --------- ----------- --------<br>--------- -------- --- ------- -- ------- ---- -- excess<br>-- --- -------- -------- ---------- ---- ---- ---- ------<br>-- --------- -- ---- -- --- -- --- ------- -- - -----<br>---------- -- -- -- ---- ----- -- ------ -- --- ------<br>-------,214198.8999999985,214198.19999999925,213880.179,213881.59999999776,213896.831,214213.25,,16,excess
screen,html.Screen,2_3_1_0_1_17,2022-02-21T16:53:31.226Z,,,,,,,,,,,,,,,,,48,,,,,,,,,,,,,,462.44999999925494,,response,,,,10,E,,,,,,Space,keypress(Space),,,,lyrical,,,,-- -- --- ------ ------- --------- ----------- --------<br>--------- -------- --- ------- -- ------- ---- -- ------<br>of --- -------- -------- ---------- ---- ---- ---- ------<br>-- --------- -- ---- -- --- -- --- ------- -- - -----<br>---------- -- -- -- ---- ----- -- ------ -- --- ------<br>-------,214676.3999999985,214675.69999999925,214196.598,214199,214213.25,214679.513,,17,of
screen,html.Screen,2_3_1_0_1_18,2022-02-21T16:53:31.526Z,,,,,,,,,,,,,,,,,48,,,,,,,,,,,,,,295.8869999985036,,response,,,,10,E,,,,,,Space,keypress(Space),,,,lyrical,,,,-- -- --- ------ ------- --------- ----------- --------<br>--------- -------- --- ------- -- ------- ---- -- ------<br>-- ten -------- -------- ---------- ---- ---- ---- ------<br>-- --------- -- ---- -- --- -- --- ------- -- - -----<br>---------- -- -- -- ---- ----- -- ------ -- --- ------<br>-------,214976,214975.3999999985,214662.861,214676.3999999985,214679.513,214979.288,,18,ten
screen,html.Screen,2_3_1_0_1_19,2022-02-21T16:53:31.917Z,,,,,,,,,,,,,,,,,48,,,,,,,,,,,,,,387.5120000007446,,response,,,,10,E,,,,,,Space,keypress(Space),,,,lyrical,,,,-- -- --- ------ ------- --------- ----------- --------<br>--------- -------- --- ------- -- ------- ---- -- ------<br>-- --- thousand -------- ---------- ---- ---- ---- ------<br>-- --------- -- ---- -- --- -- --- ------- -- - -----<br>---------- -- -- -- ---- ----- -- ------ -- --- ------<br>-------,215367.3999999985,215366.80000000075,214962.636,214976,214979.288,215378.958,,19,thousand
screen,html.Screen,2_3_1_0_1_20,2022-02-21T16:53:32.502Z,,,,,,,,,,,,,,,,,48,,,,,,,,,,,,,,573.1419999977516,,response,,,,10,E,,,,,,Space,keypress(Space),,,,lyrical,,,,-- -- --- ------ ------- --------- ----------- --------<br>--------- -------- --- ------- -- ------- ---- -- ------<br>-- --- -------- dollars. ---------- ---- ---- ---- ------<br>-- --------- -- ---- -- --- -- --- ------- -- - -----<br>---------- -- -- -- ---- ----- -- ------ -- --- ------<br>-------,215952.3999999985,215952.09999999776,215362.306,215367.5,215378.958,215961.773,,20,dollars.
screen,html.Screen,2_3_1_0_1_21,2022-02-21T16:53:33.611Z,,,,,,,,,,,,,,,,,48,,,,,,,,,,,,,,1099.6269999985234,,response,,,,10,E,,,,,,Space,keypress(Space),,,,lyrical,,,,-- -- --- ------ ------- --------- ----------- --------<br>--------- -------- --- ------- -- ------- ---- -- ------<br>-- --- -------- -------- Concealing ---- ---- ---- ------<br>-- --------- -- ---- -- --- -- --- ------- -- - -----<br>---------- -- -- -- ---- ----- -- ------ -- --- ------<br>-------,217061.8999999985,217061.3999999985,215945.121,215952.5,215961.773,217077.33,,21,Concealing
screen,html.Screen,2_3_1_0_1_22,2022-02-21T16:53:34.104Z,,,,,,,,,,,,,,,,,48,,,,,,,,,,,,,,476.36999999926775,,response,,,,10,E,,,,,,Space,keypress(Space),,,,lyrical,,,,-- -- --- ------ ------- --------- ----------- --------<br>--------- -------- --- ------- -- ------- ---- -- ------<br>-- --- -------- -------- ---------- more ---- ---- ------<br>-- --------- -- ---- -- --- -- --- ------- -- - -----<br>---------- -- -- -- ---- ----- -- ------ -- --- ------<br>-------,217554.19999999925,217553.69999999925,217060.678,217062,217077.33,217560.412,,22,more
screen,html.Screen,2_3_1_0_1_23,2022-02-21T16:53:34.474Z,,,,,,,,,,,,,,,,,48,,,,,,,,,,,,,,363.28799999924377,,response,,,,10,E,,,,,,Space,keypress(Space),,,,lyrical,,,,-- -- --- ------ ------- --------- ----------- --------<br>--------- -------- --- ------- -- ------- ---- -- ------<br>-- --- -------- -------- ---------- ---- than ---- ------<br>-- --------- -- ---- -- --- -- --- ------- -- - -----<br>---------- -- -- -- ---- ----- -- ------ -- --- ------<br>-------,217924.30000000075,217923.69999999925,217543.76,217554.30000000075,217560.412,217926.824,,23,than
screen,html.Screen,2_3_1_0_1_24,2022-02-21T16:53:34.734Z,,,,,,,,,,,,,,,,,48,,,,,,,,,,,,,,257.2759999977716,,response,,,,10,E,,,,,,Space,keypress(Space),,,,lyrical,,,,-- -- --- ------ ------- --------- ----------- --------<br>--------- -------- --- ------- -- ------- ---- -- ------<br>-- --- -------- -------- ---------- ---- ---- that ------<br>-- --------- -- ---- -- --- -- --- ------- -- - -----<br>---------- -- -- -- ---- ----- -- ------ -- --- ------<br>-------,218184.59999999776,218184.09999999776,217910.172,217924.3999999985,217926.824,218193.298,,24,that
screen,html.Screen,2_3_1_0_1_25,2022-02-21T16:53:35.098Z,,,,,,,,,,,,,,,,,48,,,,,,,,,,,,,,354.90199999924516,,response,,,,10,E,,,,,,Space,keypress(Space),,,,lyrical,,,,-- -- --- ------ ------- --------- ----------- --------<br>--------- -------- --- ------- -- ------- ---- -- ------<br>-- --- -------- -------- ---------- ---- ---- ---- amount<br>-- --------- -- ---- -- --- -- --- ------- -- - -----<br>---------- -- -- -- ---- ----- -- ------ -- --- ------<br>-------,218548.80000000075,218548.19999999925,218176.646,218184.59999999776,218193.298,218559.645,,25,amount
screen,html.Screen,2_3_1_0_1_26,2022-02-21T16:53:35.481Z,,,,,,,,,,,,,,,,,48,,,,,,,,,,,,,,370.9549999977753,,response,,,,10,E,,,,,,Space,keypress(Space),,,,lyrical,,,,-- -- --- ------ ------- --------- ----------- --------<br>--------- -------- --- ------- -- ------- ---- -- ------<br>-- --- -------- -------- ---------- ---- ---- ---- ------<br>to --------- -- ---- -- --- -- --- ------- -- - -----<br>---------- -- -- -- ---- ----- -- ------ -- --- ------<br>-------,218931.30000000075,218930.59999999776,218542.993,218548.8999999985,218559.645,218942.68,,26,to
screen,html.Screen,2_3_1_0_1_27,2022-02-21T16:53:35.703Z,,,,,,,,,,,,,,,,,48,,,,,,,,,,,,,,210.12000000075204,,response,,,,10,E,,,,,,Space,keypress(Space),,,,lyrical,,,,-- -- --- ------ ------- --------- ----------- --------<br>--------- -------- --- ------- -- ------- ---- -- ------<br>-- --- -------- -------- ---------- ---- ---- ---- ------<br>-- transport -- ---- -- --- -- --- ------- -- - -----<br>---------- -- -- -- ---- ----- -- ------ -- --- ------<br>-------,219153.3999999985,219152.80000000075,218926.028,218931.3999999985,218942.68,219159.025,,27,transport
screen,html.Screen,2_3_1_0_1_28,2022-02-21T16:53:36.264Z,,,,,,,,,,,,,,,,,48,,,,,,,,,,,,,,554.3749999985157,,response,,,,10,E,,,,,,Space,keypress(Space),,,,lyrical,,,,-- -- --- ------ ------- --------- ----------- --------<br>--------- -------- --- ------- -- ------- ---- -- ------<br>-- --- -------- -------- ---------- ---- ---- ---- ------<br>-- --------- it ---- -- --- -- --- ------- -- - -----<br>---------- -- -- -- ---- ----- -- ------ -- --- ------<br>-------,219714,219713.3999999985,219142.373,219153.3999999985,219159.025,219725.395,,28,it
screen,html.Screen,2_3_1_0_1_29,2022-02-21T16:53:36.545Z,,,,,,,,,,,,,,,,,48,,,,,,,,,,,,,,269.40500000075554,,response,,,,10,E,,,,,,Space,keypress(Space),,,,lyrical,,,,-- -- --- ------ ------- --------- ----------- --------<br>--------- -------- --- ------- -- ------- ---- -- ------<br>-- --- -------- -------- ---------- ---- ---- ---- ------<br>-- --------- -- into -- --- -- --- ------- -- - -----<br>---------- -- -- -- ---- ----- -- ------ -- --- ------<br>-------,219995.3999999985,219994.80000000075,219708.743,219714,219725.395,220008.503,,29,into
screen,html.Screen,2_3_1_0_1_30,2022-02-21T16:53:36.778Z,,,,,,,,,,,,,,,,,48,,,,,,,,,,,,,,219.79700000074808,,response,,,,10,E,,,,,,Space,keypress(Space),,,,lyrical,,,,-- -- --- ------ ------- --------- ----------- --------<br>--------- -------- --- ------- -- ------- ---- -- ------<br>-- --- -------- -------- ---------- ---- ---- ---- ------<br>-- --------- -- ---- or --- -- --- ------- -- - -----<br>---------- -- -- -- ---- ----- -- ------ -- --- ------<br>-------,220228.8999999985,220228.30000000075,219991.851,219995.3999999985,220008.503,220241.551,,30,or
screen,html.Screen,2_3_1_0_1_31,2022-02-21T16:53:37.054Z,,,,,,,,,,,,,,,,,48,,,,,,,,,,,,,,261.84899999850313,,response,,,,10,E,,,,,,Space,keypress(Space),,,,lyrical,,,,-- -- --- ------ ------- --------- ----------- --------<br>--------- -------- --- ------- -- ------- ---- -- ------<br>-- --- -------- -------- ---------- ---- ---- ---- ------<br>-- --------- -- ---- -- out -- --- ------- -- - -----<br>---------- -- -- -- ---- ----- -- ------ -- --- ------<br>-------,220504,220503.3999999985,220224.899,220228.8999999985,220241.551,220507.924,,31,out
screen,html.Screen,2_3_1_0_1_32,2022-02-21T16:53:37.606Z,,,,,,,,,,,,,,,,,48,,,,,,,,,,,,,,547.9759999985108,,response,,,,10,E,,,,,,Space,keypress(Space),,,,lyrical,,,,-- -- --- ------ ------- --------- ----------- --------<br>--------- -------- --- ------- -- ------- ---- -- ------<br>-- --- -------- -------- ---------- ---- ---- ---- ------<br>-- --------- -- ---- -- --- of --- ------- -- - -----<br>---------- -- -- -- ---- ----- -- ------ -- --- ------<br>-------,221056.30000000075,221055.8999999985,220491.272,220504,220507.924,221057.602,,32,of
screen,html.Screen,2_3_1_0_1_33,2022-02-21T16:53:37.901Z,,,,,,,,,,,,,,,,,48,,,,,,,,,,,,,,293.2979999984964,,response,,,,10,E,,,,,,Space,keypress(Space),,,,lyrical,,,,-- -- --- ------ ------- --------- ----------- --------<br>--------- -------- --- ------- -- ------- ---- -- ------<br>-- --- -------- -------- ---------- ---- ---- ---- ------<br>-- --------- -- ---- -- --- -- the ------- -- - -----<br>---------- -- -- -- ---- ----- -- ------ -- --- ------<br>-------,221351.59999999776,221350.8999999985,221040.95,221056.3999999985,221057.602,221357.33,,33,the
screen,html.Screen,2_3_1_0_1_34,2022-02-21T16:53:38.068Z,,,,,,,,,,,,,,,,,48,,,,,,,,,,,,,,160.36999999926775,,response,,,,10,E,,,,,,Space,keypress(Space),,,,lyrical,,,,-- -- --- ------ ------- --------- ----------- --------<br>--------- -------- --- ------- -- ------- ---- -- ------<br>-- --- -------- -------- ---------- ---- ---- ---- ------<br>-- --------- -- ---- -- --- -- --- country -- - -----<br>---------- -- -- -- ---- ----- -- ------ -- --- ------<br>-------,221518.30000000075,221517.69999999925,221340.678,221351.59999999776,221357.33,221523.94,,34,country
screen,html.Screen,2_3_1_0_1_35,2022-02-21T16:53:38.907Z,,,,,,,,,,,,,,,,,48,,,,,,,,,,,,,,833.3600000007427,,response,,,,10,E,,,,,,Space,keypress(Space),,,,lyrical,,,,-- -- --- ------ ------- --------- ----------- --------<br>--------- -------- --- ------- -- ------- ---- -- ------<br>-- --- -------- -------- ---------- ---- ---- ---- ------<br>-- --------- -- ---- -- --- -- --- ------- is - -----<br>---------- -- -- -- ---- ----- -- ------ -- --- ------<br>-------,222357.8999999985,222357.30000000075,221507.288,221518.30000000075,221523.94,222373.182,,35,is
screen,html.Screen,2_3_1_0_1_36,2022-02-21T16:53:39.344Z,,,,,,,,,,,,,,,,,48,,,,,,,,,,,,,,420.7179999985092,,response,,,,10,E,,,,,,Space,keypress(Space),,,,lyrical,,,,-- -- --- ------ ------- --------- ----------- --------<br>--------- -------- --- ------- -- ------- ---- -- ------<br>-- --- -------- -------- ---------- ---- ---- ---- ------<br>-- --------- -- ---- -- --- -- --- ------- -- a -----<br>---------- -- -- -- ---- ----- -- ------ -- --- ------<br>-------,222794.5,222793.8999999985,222356.53,222357.8999999985,222373.182,222806.137,,36,a
screen,html.Screen,2_3_1_0_1_37,2022-02-21T16:53:39.816Z,,,,,,,,,,,,,,,,,48,,,,,,,,,,,,,,459.56299999926705,,response,,,,10,E,,,,,,Space,keypress(Space),,,,lyrical,,,,-- -- --- ------ ------- --------- ----------- --------<br>--------- -------- --- ------- -- ------- ---- -- ------<br>-- --- -------- -------- ---------- ---- ---- ---- ------<br>-- --------- -- ---- -- --- -- --- ------- -- - crime<br>---------- -- -- -- ---- ----- -- ------ -- --- ------<br>-------,223266.19999999925,223265.69999999925,222789.485,222794.59999999776,222806.137,223272.387,,37,crime
screen,html.Screen,2_3_1_0_1_38,2022-02-21T16:53:40.222Z,,,,,,,,,,,,,,,,,48,,,,,,,,,,,,,,399.31299999926705,,response,,,,10,E,,,,,,Space,keypress(Space),,,,lyrical,,,,-- -- --- ------ ------- --------- ----------- --------<br>--------- -------- --- ------- -- ------- ---- -- ------<br>-- --- -------- -------- ---------- ---- ---- ---- ------<br>-- --------- -- ---- -- --- -- --- ------- -- - -----<br>punishable -- -- -- ---- ----- -- ------ -- --- ------<br>-------,223672.30000000075,223671.69999999925,223255.735,223266.30000000075,223272.387,223688.754,,38,punishable
screen,html.Screen,2_3_1_0_1_39,2022-02-21T16:53:40.651Z,,,,,,,,,,,,,,,,,48,,,,,,,,,,,,,,411.84599999777856,,response,,,,10,E,,,,,,Space,keypress(Space),,,,lyrical,,,,-- -- --- ------ ------- --------- ----------- --------<br>--------- -------- --- ------- -- ------- ---- -- ------<br>-- --- -------- -------- ---------- ---- ---- ---- ------<br>-- --------- -- ---- -- --- -- --- ------- -- - -----<br>---------- by -- -- ---- ----- -- ------ -- --- ------<br>-------,224101.09999999776,224100.59999999776,223672.102,223672.3999999985,223688.754,224105.091,,39,by
screen,html.Screen,2_3_1_0_1_40,2022-02-21T16:53:40.903Z,,,,,,,,,,,,,,,,,48,,,,,,,,,,,,,,247.50899999777903,,response,,,,10,E,,,,,,Space,keypress(Space),,,,lyrical,,,,-- -- --- ------ ------- --------- ----------- --------<br>--------- -------- --- ------- -- ------- ---- -- ------<br>-- --- -------- -------- ---------- ---- ---- ---- ------<br>-- --------- -- ---- -- --- -- --- ------- -- - -----<br>---------- -- up -- ---- ----- -- ------ -- --- ------<br>-------,224353.19999999925,224352.59999999776,224088.439,224101.09999999776,224105.091,224354.765,,40,up
screen,html.Screen,2_3_1_0_1_41,2022-02-21T16:53:41.133Z,,,,,,,,,,,,,,,,,48,,,,,,,,,,,,,,228.0350000007311,,response,,,,10,E,,,,,,Space,keypress(Space),,,,lyrical,,,,-- -- --- ------ ------- --------- ----------- --------<br>--------- -------- --- ------- -- ------- ---- -- ------<br>-- --- -------- -------- ---------- ---- ---- ---- ------<br>-- --------- -- ---- -- --- -- --- ------- -- - -----<br>---------- -- -- to ---- ----- -- ------ -- --- ------<br>-------,224583.3999999985,224582.80000000075,224338.113,224353.30000000075,224354.765,224588.034,,41,to
screen,html.Screen,2_3_1_0_1_42,2022-02-21T16:53:41.342Z,,,,,,,,,,,,,,,,,48,,,,,,,,,,,,,,204.16599999924074,,response,,,,10,E,,,,,,Space,keypress(Space),,,,lyrical,,,,-- -- --- ------ ------- --------- ----------- --------<br>--------- -------- --- ------- -- ------- ---- -- ------<br>-- --- -------- -------- ---------- ---- ---- ---- ------<br>-- --------- -- ---- -- --- -- --- ------- -- - -----<br>---------- -- -- -- five ----- -- ------ -- --- ------<br>-------,224792.80000000075,224792.19999999925,224571.382,224583.3999999985,224588.034,224804.559,,42,five
