sender,sender_type,sender_id,timestamp,meta,,Blues,Classical,Country,Dance,Electronic,Folk,Gospel,Hip-Hop,Jazz,Latin,Musical/Film,New-age,Pop,Prolific_id,Provo_ID,R&B,Rap,Reggae,Religious,Rock,Soul,Swing,Traditional,age,artist_name,correct,correctResponse,distraction,duration,education,ended_on,familiarity,gender,headphone_check_performance,item,list,music_frequency,offensiveness,pleasantness,position_correct,preference,response,response_action,snippet_file,song_name,song_rating,sound,stimulus_1,stimulus_2,stimulus_3,text,time_commit,time_end,time_render,time_run,time_show,time_switch,url,word,word_ID
Prolific ID,html.Form,0,2022-02-15T16:25:52.524Z,"{""labjs_version"":""20.2.2"",""labjs_build"":{""flavor"":""production"",""commit"":""a25486e0c714a0ae2ce03ff94b7bb6896854dcfa""},""location"":""https://run.pavlovia.org/mvasilev/prolific2_music_b/"",""userAgent"":""Mozilla/5.0 (Windows NT 10.0; Win64; x64) AppleWebKit/537.36 (KHTML, like Gecko) Chrome/97.0.4692.99 Safari/537.36"",""platform"":""Win32"",""language"":""en-GB"",""locale"":""en-GB"",""timeZone"":""Europe/London"",""timezoneOffset"":0,""screen_width"":1280,""screen_height"":720,""scroll_width"":1280,""scroll_height"":553,""window_innerWidth"":1280,""window_innerHeight"":601,""devicePixelRatio"":1.5}",,,,,,,,,,,,,,,5fc5007654b8ea07678e48cc,,,,,,,,,,,,,,,8079.235000023842,,form submission,,,,,,,,,,,,,,,,,,,,,14518.899999976158,14518.100000023842,6421.168,6422.600000023842,6438.865,14519.418,{},,
Introduction,html.Screen,1_0,2022-02-15T16:26:00.176Z,,,,,,,,,,,,,,,,,,,,,,,,,,,,,,,7646.582,,response,,,,,,,,,,,continue,click button,,,,,,,,,22170.300000071526,22166,14502.804,14519.200000047684,14519.418,22200.566,,,
Volume calibration,html.Screen,1_1,2022-02-15T16:26:19.536Z,,,,,,,,,,,,,,,,,,,,,,,,,,,,,,,19325.434,,response,,,,,,,,,,,continue,click button,,,,,,,,,41530,41526,22183.919,22170.5,22200.566,41543.717,,,
Task instructions,html.Screen,1_2,2022-02-15T16:26:27.700Z,,,,,,,,,,,,,,,,,,,,,,,,,,,,,,,8149.083000071529,,response,,,,,,,,,,,continue,click button,,,,,,,,,49693.800000071526,49692.800000071526,41527.028,41530.10000002384,41543.717,49708.044,,,
Sounds,html.Screen,1_3_0_0,2022-02-15T16:26:31.949Z,,,,,,,,,,,,,,,,,,,,,,,,,,,,,,,4248.1029999999955,,timeout,,,,,,,,,3,,,,,,,,I,O,S,,53943.300000071526,53939.819,49691.116,49694.10000002384,49708.044,53956.147,,,
Judgement,html.Screen,1_3_0_1,2022-02-15T16:26:33.746Z,,,,,,,,,,,,,,,,,,,,,,,,,,,,true,3,,1781.4530000238447,,response,,,,,,,,,3,,3,click #choice-3,,,,,I,O,S,,55739.39999997616,55737.60000002384,53939.819,53943.700000047684,53956.147,55756.523,,,
Trial,flow.Sequence,1_3_0,2022-02-15T16:26:33.746Z,,,,,,,,,,,,,,,,,,,,,,,,,,,,,,,6029.55600002384,,completion,,,,,,,,,3,,,,,,,,I,O,S,,55739.800000071526,55737.60000002384,49691.116,49694.10000002384,49708.044,55756.523,,,
Sounds,html.Screen,1_3_1_0,2022-02-15T16:26:37.996Z,,,,,,,,,,,,,,,,,,,,,,,,,,,,,,,4247.5639999999985,,timeout,,,,,,,,,2,,,,,,,,I,S,O,,59989.60000002384,59987.514,55722.485,55740,55756.523,60004.087,,,
Judgement,html.Screen,1_3_1_1,2022-02-15T16:26:38.855Z,,,,,,,,,,,,,,,,,,,,,,,,,,,,true,2,,843.6130000476842,,response,,,,,,,,,2,,2,click #choice-2,,,,,I,S,O,,60849.200000047684,60847.700000047684,59987.514,59989.800000071526,60004.087,60853.859,,,
Trial,flow.Sequence,1_3_1,2022-02-15T16:26:38.856Z,,,,,,,,,,,,,,,,,,,,,,,,,,,,,,,5091.177000047683,,completion,,,,,,,,,2,,,,,,,,I,S,O,,60849.5,60847.700000047684,55722.485,55740,55756.523,60853.859,,,
Sounds,html.Screen,1_3_2_0,2022-02-15T16:26:43.093Z,,,,,,,,,,,,,,,,,,,,,,,,,,,,,,,4248.821000000004,,timeout,,,,,,,,,1,,,,,,,,S,I,O,,65087.300000071526,65086.147,60837.336,60849.700000047684,60853.859,65102.68,,,
Judgement,html.Screen,1_3_2_1,2022-02-15T16:26:44.225Z,,,,,,,,,,,,,,,,,,,,,,,,,,,,true,1,,1115.3199999999997,,response,,,,,,,,,1,,1,click #choice-1,,,,,S,I,O,,66219.39999997616,66218,65086.147,65087.700000047684,65102.68,66235.705,,,
Trial,flow.Sequence,1_3_2,2022-02-15T16:26:44.226Z,,,,,,,,,,,,,,,,,,,,,,,,,,,,,,,5364.141000000003,,completion,,,,,,,,,1,,,,,,,,S,I,O,,66219.70000004768,66218,60837.336,60849.700000047684,60853.859,66235.705,,,
Sounds,html.Screen,1_3_3_0,2022-02-15T16:26:48.475Z,,,,,,,,,,,,,,,,,,,,,,,,,,,,,,,4248.471999999994,,timeout,,,,,,,,,3,,,,,,,,O,I,S,,70469,70467.644,66218.654,66219.80000007153,66235.705,70484.177,,,
Judgement,html.Screen,1_3_3_1,2022-02-15T16:26:49.385Z,,,,,,,,,,,,,,,,,,,,,,,,,,,,true,3,,893.6230000715295,,response,,,,,,,,,3,,3,click #choice-3,,,,,O,I,S,,71379.20000004768,71377.80000007153,70467.644,70469.20000004768,70484.177,71383.591,,,
Trial,flow.Sequence,1_3_3,2022-02-15T16:26:49.386Z,,,,,,,,,,,,,,,,,,,,,,,,,,,,,,,5142.095000071524,,completion,,,,,,,,,3,,,,,,,,O,I,S,,71379.39999997616,71377.80000007153,66218.654,66219.80000007153,66235.705,71383.591,,,
Sounds,html.Screen,1_3_4_0,2022-02-15T16:26:53.623Z,,,,,,,,,,,,,,,,,,,,,,,,,,,,,,,4248.850000000006,,timeout,,,,,,,,,1,,,,,,,,S,O,I,,75617.30000007153,75615.804,71367.099,71379.5,71383.591,75632.441,,,
Judgement,html.Screen,1_3_4_1,2022-02-15T16:26:54.515Z,,,,,,,,,,,,,,,,,,,,,,,,,,,,true,1,,875.3590000715194,,response,,,,,,,,,1,,1,click #choice-1,,,,,S,O,I,,76509,76507.80000007153,75615.804,75617.5,75632.441,76515.354,,,
Trial,flow.Sequence,1_3_4,2022-02-15T16:26:54.515Z,,,,,,,,,,,,,,,,,,,,,,,,,,,,,,,5124.209000071525,,completion,,,,,,,,,1,,,,,,,,S,O,I,,76509.30000007153,76507.80000007153,71367.099,71379.5,71383.591,76515.354,,,
Sounds,html.Screen,1_3_5_0,2022-02-15T16:26:58.755Z,,,,,,,,,,,,,,,,,,,,,,,,,,,,,,,4248.627999999997,,timeout,,,,,,,,,2,,,,,,,,O,S,I,,80748.39999997616,80747.226,76498.897,76509.39999997616,76515.354,80763.982,,,
Judgement,html.Screen,1_3_5_1,2022-02-15T16:26:59.625Z,,,,,,,,,,,,,,,,,,,,,,,,,,,,true,2,,854.0179999999964,,response,,,,,,,,,2,,2,click #choice-2,,,,,O,S,I,,81619.20000004768,81618,80747.226,80748.60000002384,80763.982,81630.161,,,
Trial,flow.Sequence,1_3_5,2022-02-15T16:26:59.625Z,,,,,,,,,,,,,,,,,,,,,,,,,,,,,,,5102.645999999993,,completion,,,,,,,,,2,,,,,,,,O,S,I,,81619.39999997616,81618,76498.897,76509.30000007153,76515.354,81630.161,,,
Task,flow.Loop,1_3,2022-02-15T16:26:59.631Z,,,,,,,,,,,,,,,,,,,,,,,,,,,,,,,31909.956,,completion,,,1,,,,,,,,,,,,,,,,,,81625.30000007153,81618,49691.116,49694.10000002384,49708.044,81630.161,,,
Trap,html.Screen,1_4,2022-02-15T16:26:59.633Z,,,,,,,,,,,,,,,,,,,,,,,,,,,,,,,NaN,,skipped,,,,,,,,,,,,,,,,,,,,,81626.89999997616,81618,,81626.80000007153,,81630.161,,,
Thanks,html.Screen,1_5,2022-02-15T16:27:03.505Z,,,,,,,,,,,,,,,,,,,,,,,,,,,,,,,3867.139000071533,,response,,,,,,,,,,,continue,click button,,,,,,,,,85498.70000004768,85497.30000007153,81613.807,81627.20000004768,81630.161,90393.891,,,
Headphone screening,flow.Sequence,1,2022-02-15T16:27:03.505Z,,,,,,,,,,,,,,,,,,,,,,,,,,,,,,,70977.88200007152,,completion,,,,,,,,,,,,,,,,,,,,,85498.89999997616,85497.30000007153,14502.804,14519.200000047684,14519.418,90393.891,,,
Instructions,html.Page,2_0,2022-02-15T16:27:32.904Z,,,,,,,,,,,,,,,,,,,,,,,,,,,,,,,24503.608999999997,,form submission,,,,,,,,,,,,,,,,,,,,,114898,114897.5,90377.224,90390.5,90393.891,114902.419,,,
Holding screen,html.Screen,2_1_0_0,2022-02-15T16:27:42.889Z,,,,,,,,,,,,,,,,,,,,,,,,,,,,,,,9996.56700000001,,timeout,,,,,,,,,,,,,,,,,,,,,124883.5,124882.679,114885.924,114898.30000007153,114902.419,124898.986,,,
screen,html.Screen,2_1_0_1_0,2022-02-15T16:27:43.798Z,,,,,,,,,,,,,,,,,53,,,,,,,,,,,,,,889.1140000238374,,response,,,,99,,,,,,,Space,keypress(Space),,,,,,,,When -- ----- -- ------ - ------- --- ----------<br>------------- ------ ------ ---- ---- ------- ----- -- ----<br>-------- ------- -- ---------- --- - --- ----- ----- ----<br>---- --- --- ----- --- ---- ---- ------- ----- ---- -------<br>--- --- -- ----- -- --- ---- -- --- ---- -- ------ ------<br>--- ----- -- ----,125792.10000002384,125788.10000002384,124882.679,124883.70000004768,124898.986,125798.624,,0,When
screen,html.Screen,2_1_0_1_1,2022-02-15T16:27:44.491Z,,,,,,,,,,,,,,,,,53,,,,,,,,,,,,,,685.8760000000038,,response,,,,99,,,,,,,Space,keypress(Space),,,,,,,,---- it ----- -- ------ - ------- --- ----------<br>------------- ------ ------ ---- ---- ------- ----- -- ----<br>-------- ------- -- ---------- --- - --- ----- ----- ----<br>---- --- --- ----- --- ---- ---- ------- ----- ---- -------<br>--- --- -- ----- -- --- ---- -- --- ---- -- ------ ------<br>--- ----- -- ----,126485.39999997616,126484.5,125782.395,125792.30000007153,125798.624,126498.861,,1,it
screen,html.Screen,2_1_0_1_2,2022-02-15T16:27:45.028Z,,,,,,,,,,,,,,,,,53,,,,,,,,,,,,,,523.0389999761537,,response,,,,99,,,,,,,Space,keypress(Space),,,,,,,,---- -- comes -- ------ - ------- --- ----------<br>------------- ------ ------ ---- ---- ------- ----- -- ----<br>-------- ------- -- ---------- --- - --- ----- ----- ----<br>---- --- --- ----- --- ---- ---- ------- ----- ---- -------<br>--- --- -- ----- -- --- ---- -- --- ---- -- ------ ------<br>--- ----- -- ----,127022.60000002384,127021.89999997616,126482.341,126485.60000002384,126498.861,127031.852,,2,comes
screen,html.Screen,2_1_0_1_3,2022-02-15T16:27:45.498Z,,,,,,,,,,,,,,,,,53,,,,,,,,,,,,,,459.4480000715266,,response,,,,99,,,,,,,Space,keypress(Space),,,,,,,,---- -- ----- to ------ - ------- --- ----------<br>------------- ------ ------ ---- ---- ------- ----- -- ----<br>-------- ------- -- ---------- --- - --- ----- ----- ----<br>---- --- --- ----- --- ---- ---- ------- ----- ---- -------<br>--- --- -- ----- -- --- ---- -- --- ---- -- ------ ------<br>--- ----- -- ----,127492,127491.30000007153,127015.386,127022.80000007153,127031.852,127498.025,,3,to
screen,html.Screen,2_1_0_1_4,2022-02-15T16:27:45.976Z,,,,,,,,,,,,,,,,,53,,,,,,,,,,,,,,471.2750000715314,,response,,,,99,,,,,,,Space,keypress(Space),,,,,,,,---- -- ----- -- having - ------- --- ----------<br>------------- ------ ------ ---- ---- ------- ----- -- ----<br>-------- ------- -- ---------- --- - --- ----- ----- ----<br>---- --- --- ----- --- ---- ---- ------- ----- ---- -------<br>--- --- -- ----- -- --- ---- -- --- ---- -- ------ ------<br>--- ----- -- ----,127969.89999997616,127969.30000007153,127481.825,127492.20000004768,127498.025,127981.54,,4,having
screen,html.Screen,2_1_0_1_5,2022-02-15T16:27:46.409Z,,,,,,,,,,,,,,,,,53,,,,,,,,,,,,,,420.56000002384826,,response,,,,99,,,,,,,Space,keypress(Space),,,,,,,,---- -- ----- -- ------ a ------- --- ----------<br>------------- ------ ------ ---- ---- ------- ----- -- ----<br>-------- ------- -- ---------- --- - --- ----- ----- ----<br>---- --- --- ----- --- ---- ---- ------- ----- ---- -------<br>--- --- -- ----- -- --- ---- -- --- ---- -- ------ ------<br>--- ----- -- ----,128402.70000004768,128402.10000002384,127965.239,127970,127981.54,128414.658,,5,a
screen,html.Screen,2_1_0_1_6,2022-02-15T16:27:46.871Z,,,,,,,,,,,,,,,,,53,,,,,,,,,,,,,,449.14200007152976,,response,,,,99,,,,,,,Space,keypress(Space),,,,,,,,---- -- ----- -- ------ - lasting --- ----------<br>------------- ------ ------ ---- ---- ------- ----- -- ----<br>-------- ------- -- ---------- --- - --- ----- ----- ----<br>---- --- --- ----- --- ---- ---- ------- ----- ---- -------<br>--- --- -- ----- -- --- ---- -- --- ---- -- ------ ------<br>--- ----- -- ----,128864.70000004768,128863.80000007153,128398.209,128402.70000004768,128414.658,128881.242,,6,lasting
screen,html.Screen,2_1_0_1_7,2022-02-15T16:27:47.328Z,,,,,,,,,,,,,,,,,53,,,,,,,,,,,,,,440.45800004768535,,response,,,,99,,,,,,,Space,keypress(Space),,,,,,,,---- -- ----- -- ------ - ------- and ----------<br>------------- ------ ------ ---- ---- ------- ----- -- ----<br>-------- ------- -- ---------- --- - --- ----- ----- ----<br>---- --- --- ----- --- ---- ---- ------- ----- ---- -------<br>--- --- -- ----- -- --- ---- -- --- ---- -- ------ ------<br>--- ----- -- ----,129322.60000002384,129321.70000004768,128864.731,128864.89999997616,128881.242,129330.724,,7,and
screen,html.Screen,2_1_0_1_8,2022-02-15T16:27:47.969Z,,,,,,,,,,,,,,,,,53,,,,,,,,,,,,,,632.1759999761562,,response,,,,99,,,,,,,Space,keypress(Space),,,,,,,,---- -- ----- -- ------ - ------- --- fulfilling<br>------------- ------ ------ ---- ---- ------- ----- -- ----<br>-------- ------- -- ---------- --- - --- ----- ----- ----<br>---- --- --- ----- --- ---- ---- ------- ----- ---- -------<br>--- --- -- ----- -- --- ---- -- --- ---- -- ------ ------<br>--- ----- -- ----,129963.70000004768,129962.89999997616,129314.538,129322.70000004768,129330.724,129980.876,,8,fulfilling
screen,html.Screen,2_1_0_1_9,2022-02-15T16:27:48.522Z,,,,,,,,,,,,,,,,,53,,,,,,,,,,,,,,534.224000023838,,response,,,,99,,,,,,,Space,keypress(Space),,,,,,,,"---- -- ----- -- ------ - ------- --- ----------<br>relationship, ------ ------ ---- ---- ------- ----- -- ----<br>-------- ------- -- ---------- --- - --- ----- ----- ----<br>---- --- --- ----- --- ---- ---- ------- ----- ---- -------<br>--- --- -- ----- -- --- ---- -- --- ---- -- ------ ------<br>--- ----- -- ----",130516,130515.10000002384,129964.216,129964,129980.876,130530.848,,9,"relationship,"
screen,html.Screen,2_1_0_1_10,2022-02-15T16:27:48.980Z,,,,,,,,,,,,,,,,,53,,,,,,,,,,,,,,442.45200007152744,,response,,,,99,,,,,,,Space,keypress(Space),,,,,,,,---- -- ----- -- ------ - ------- --- ----------<br>------------- common ------ ---- ---- ------- ----- -- ----<br>-------- ------- -- ---------- --- - --- ----- ----- ----<br>---- --- --- ----- --- ---- ---- ------- ----- ---- -------<br>--- --- -- ----- -- --- ---- -- --- ---- -- ------ ------<br>--- ----- -- ----,130974.10000002384,130973.30000007153,130514.342,130516.20000004768,130530.848,130980.228,,10,common
screen,html.Screen,2_1_0_1_11,2022-02-15T16:27:49.438Z,,,,,,,,,,,,,,,,,53,,,,,,,,,,,,,,451.17199997615535,,response,,,,99,,,,,,,Space,keypress(Space),,,,,,,,---- -- ----- -- ------ - ------- --- ----------<br>------------- ------ wisdom ---- ---- ------- ----- -- ----<br>-------- ------- -- ---------- --- - --- ----- ----- ----<br>---- --- --- ----- --- ---- ---- ------- ----- ---- -------<br>--- --- -- ----- -- --- ---- -- --- ---- -- ------ ------<br>--- ----- -- ----,131432.20000004768,131431.39999997616,130963.993,130974.20000004768,130980.228,131463.531,,11,wisdom
screen,html.Screen,2_1_0_1_12,2022-02-15T16:27:49.893Z,,,,,,,,,,,,,,,,,53,,,,,,,,,,,,,,422.86899997617,,response,,,,99,,,,,,,Space,keypress(Space),,,,,,,,---- -- ----- -- ------ - ------- --- ----------<br>------------- ------ ------ says ---- ------- ----- -- ----<br>-------- ------- -- ---------- --- - --- ----- ----- ----<br>---- --- --- ----- --- ---- ---- ------- ----- ---- -------<br>--- --- -- ----- -- --- ---- -- --- ---- -- ------ ------<br>--- ----- -- ----,131887.10000002384,131886.39999997616,131446.984,131432.30000007153,131463.531,131897.039,,12,says
screen,html.Screen,2_1_0_1_13,2022-02-15T16:27:50.321Z,,,,,,,,,,,,,,,,,53,,,,,,,,,,,,,,417.16100004769396,,response,,,,99,,,,,,,Space,keypress(Space),,,,,,,,---- -- ----- -- ------ - ------- --- ----------<br>------------- ------ ------ ---- that ------- ----- -- ----<br>-------- ------- -- ---------- --- - --- ----- ----- ----<br>---- --- --- ----- --- ---- ---- ------- ----- ---- -------<br>--- --- -- ----- -- --- ---- -- --- ---- -- ------ ------<br>--- ----- -- ----,132315,132314.20000004768,131880.495,131887.30000007153,131897.039,132329.825,,13,that
screen,html.Screen,2_1_0_1_14,2022-02-15T16:27:50.753Z,,,,,,,,,,,,,,,,,53,,,,,,,,,,,,,,416.97500007151393,,response,,,,99,,,,,,,Space,keypress(Space),,,,,,,,---- -- ----- -- ------ - ------- --- ----------<br>------------- ------ ------ ---- ---- feeling ----- -- ----<br>-------- ------- -- ---------- --- - --- ----- ----- ----<br>---- --- --- ----- --- ---- ---- ------- ----- ---- -------<br>--- --- -- ----- -- --- ---- -- --- ---- -- ------ ------<br>--- ----- -- ----,132747.60000002384,132746.80000007153,132313.549,132315.10000002384,132329.825,132763.442,,14,feeling
screen,html.Screen,2_1_0_1_15,2022-02-15T16:27:51.197Z,,,,,,,,,,,,,,,,,53,,,,,,,,,,,,,,426.95799997614813,,response,,,,99,,,,,,,Space,keypress(Space),,,,,,,,---- -- ----- -- ------ - ------- --- ----------<br>------------- ------ ------ ---- ---- ------- close -- ----<br>-------- ------- -- ---------- --- - --- ----- ----- ----<br>---- --- --- ----- --- ---- ---- ------- ----- ---- -------<br>--- --- -- ----- -- --- ---- -- --- ---- -- ------ ------<br>--- ----- -- ----,133191.20000004768,133190.39999997616,132746.865,132747.80000007153,132763.442,133196.145,,15,close
screen,html.Screen,2_1_0_1_16,2022-02-15T16:27:51.631Z,,,,,,,,,,,,,,,,,53,,,,,,,,,,,,,,427.8550000000105,,response,,,,99,,,,,,,Space,keypress(Space),,,,,,,,---- -- ----- -- ------ - ------- --- ----------<br>------------- ------ ------ ---- ---- ------- ----- to ----<br>-------- ------- -- ---------- --- - --- ----- ----- ----<br>---- --- --- ----- --- ---- ---- ------- ----- ---- -------<br>--- --- -- ----- -- --- ---- -- --- ---- -- ------ ------<br>--- ----- -- ----,133624.70000004768,133624,133180.066,133191.30000007153,133196.145,133629.294,,16,to
screen,html.Screen,2_1_0_1_17,2022-02-15T16:27:52.480Z,,,,,,,,,,,,,,,,,53,,,,,,,,,,,,,,844.3060000238474,,response,,,,99,,,,,,,Space,keypress(Space),,,,,,,,---- -- ----- -- ------ - ------- --- ----------<br>------------- ------ ------ ---- ---- ------- ----- -- your<br>-------- ------- -- ---------- --- - --- ----- ----- ----<br>---- --- --- ----- --- ---- ---- ------- ----- ---- -------<br>--- --- -- ----- -- --- ---- -- --- ---- -- ------ ------<br>--- ----- -- ----,134474.30000007153,134473.60000002384,133612.9,133624.89999997616,133629.294,134479.008,,17,your
screen,html.Screen,2_1_0_1_18,2022-02-15T16:27:53.002Z,,,,,,,,,,,,,,,,,53,,,,,,,,,,,,,,516.292000071524,,response,,,,99,,,,,,,Space,keypress(Space),,,,,,,,---- -- ----- -- ------ - ------- --- ----------<br>------------- ------ ------ ---- ---- ------- ----- -- ----<br>romantic ------- -- ---------- --- - --- ----- ----- ----<br>---- --- --- ----- --- ---- ---- ------- ----- ---- -------<br>--- --- -- ----- -- --- ---- -- --- ---- -- ------ ------<br>--- ----- -- ----,134996,134995.30000007153,134463.159,134474.39999997616,134479.008,135012.599,,18,romantic
screen,html.Screen,2_1_0_1_19,2022-02-15T16:27:53.451Z,,,,,,,,,,,,,,,,,53,,,,,,,,,,,,,,431.6010000476963,,response,,,,99,,,,,,,Space,keypress(Space),,,,,,,,---- -- ----- -- ------ - ------- --- ----------<br>------------- ------ ------ ---- ---- ------- ----- -- ----<br>-------- partner -- ---------- --- - --- ----- ----- ----<br>---- --- --- ----- --- ---- ---- ------- ----- ---- -------<br>--- --- -- ----- -- --- ---- -- --- ---- -- ------ ------<br>--- ----- -- ----,135445,135444.20000004768,134996.053,134996.10000002384,135012.599,135479.058,,19,partner
screen,html.Screen,2_1_0_1_20,2022-02-15T16:27:53.912Z,,,,,,,,,,,,,,,,,53,,,,,,,,,,,,,,426.2420000715356,,response,,,,99,,,,,,,Space,keypress(Space),,,,,,,,---- -- ----- -- ------ - ------- --- ----------<br>------------- ------ ------ ---- ---- ------- ----- -- ----<br>-------- ------- is ---------- --- - --- ----- ----- ----<br>---- --- --- ----- --- ---- ---- ------- ----- ---- -------<br>--- --- -- ----- -- --- ---- -- --- ---- -- ------ ------<br>--- ----- -- ----,135906,135905.30000007153,135462.134,135445.10000002384,135479.058,135911.938,,20,is
screen,html.Screen,2_1_0_1_21,2022-02-15T16:27:54.360Z,,,,,,,,,,,,,,,,,53,,,,,,,,,,,,,,441.86200007153093,,response,,,,99,,,,,,,Space,keypress(Space),,,,,,,,---- -- ----- -- ------ - ------- --- ----------<br>------------- ------ ------ ---- ---- ------- ----- -- ----<br>-------- ------- -- paramount. --- - --- ----- ----- ----<br>---- --- --- ----- --- ---- ---- ------- ----- ---- -------<br>--- --- -- ----- -- --- ---- -- --- ---- -- ------ ------<br>--- ----- -- ----,136354.60000002384,136353.80000007153,135895.697,135906.30000007153,135911.938,136361.99,,21,paramount.
screen,html.Screen,2_1_0_1_22,2022-02-15T16:27:54.863Z,,,,,,,,,,,,,,,,,53,,,,,,,,,,,,,,494.3100000715349,,response,,,,99,,,,,,,Space,keypress(Space),,,,,,,,---- -- ----- -- ------ - ------- --- ----------<br>------------- ------ ------ ---- ---- ------- ----- -- ----<br>-------- ------- -- ---------- But - --- ----- ----- ----<br>---- --- --- ----- --- ---- ---- ------- ----- ---- -------<br>--- --- -- ----- -- --- ---- -- --- ---- -- ------ ------<br>--- ----- -- ----,136857.10000002384,136856.30000007153,136345.716,136354.60000002384,136361.99,136861.538,,22,But
screen,html.Screen,2_1_0_1_23,2022-02-15T16:27:55.404Z,,,,,,,,,,,,,,,,,53,,,,,,,,,,,,,,535.6620000476833,,response,,,,99,,,,,,,Space,keypress(Space),,,,,,,,---- -- ----- -- ------ - ------- --- ----------<br>------------- ------ ------ ---- ---- ------- ----- -- ----<br>-------- ------- -- ---------- --- a --- ----- ----- ----<br>---- --- --- ----- --- ---- ---- ------- ----- ---- -------<br>--- --- -- ----- -- --- ---- -- --- ---- -- ------ ------<br>--- ----- -- ----,137398.10000002384,137397.20000004768,136845.512,136857.30000007153,136861.538,137411.432,,23,a
screen,html.Screen,2_1_0_1_24,2022-02-15T16:27:55.891Z,,,,,,,,,,,,,,,,,53,,,,,,,,,,,,,,472.5679999999993,,response,,,,99,,,,,,,Space,keypress(Space),,,,,,,,---- -- ----- -- ------ - ------- --- ----------<br>------------- ------ ------ ---- ---- ------- ----- -- ----<br>-------- ------- -- ---------- --- - new ----- ----- ----<br>---- --- --- ----- --- ---- ---- ------- ----- ---- -------<br>--- --- -- ----- -- --- ---- -- --- ---- -- ------ ------<br>--- ----- -- ----,137884.70000004768,137884,137395.364,137398.10000002384,137411.432,137894.863,,24,new
screen,html.Screen,2_1_0_1_25,2022-02-15T16:27:56.360Z,,,,,,,,,,,,,,,,,53,,,,,,,,,,,,,,458.1369999999879,,response,,,,99,,,,,,,Space,keypress(Space),,,,,,,,---- -- ----- -- ------ - ------- --- ----------<br>------------- ------ ------ ---- ---- ------- ----- -- ----<br>-------- ------- -- ---------- --- - --- study ----- ----<br>---- --- --- ----- --- ---- ---- ------- ----- ---- -------<br>--- --- -- ----- -- --- ---- -- --- ---- -- ------ ------<br>--- ----- -- ----,138353.60000002384,138353,137878.362,137884.80000007153,137894.863,138361.118,,25,study
screen,html.Screen,2_1_0_1_26,2022-02-15T16:27:56.810Z,,,,,,,,,,,,,,,,,53,,,,,,,,,,,,,,442.7819999761705,,response,,,,99,,,,,,,Space,keypress(Space),,,,,,,,---- -- ----- -- ------ - ------- --- ----------<br>------------- ------ ------ ---- ---- ------- ----- -- ----<br>-------- ------- -- ---------- --- - --- ----- finds ----<br>---- --- --- ----- --- ---- ---- ------- ----- ---- -------<br>--- --- -- ----- -- --- ---- -- --- ---- -- ------ ------<br>--- ----- -- ----,138804.60000002384,138803.89999997616,138345.006,138353.89999997616,138361.118,138810.956,,26,finds
screen,html.Screen,2_1_0_1_27,2022-02-15T16:27:57.241Z,,,,,,,,,,,,,,,,,53,,,,,,,,,,,,,,423.0439999999944,,response,,,,99,,,,,,,Space,keypress(Space),,,,,,,,---- -- ----- -- ------ - ------- --- ----------<br>------------- ------ ------ ---- ---- ------- ----- -- ----<br>-------- ------- -- ---------- --- - --- ----- ----- that<br>---- --- --- ----- --- ---- ---- ------- ----- ---- -------<br>--- --- -- ----- -- --- ---- -- --- ---- -- ------ ------<br>--- ----- -- ----,139234.70000004768,139234,138794.835,138804.89999997616,138810.956,139244.562,,27,that
screen,html.Screen,2_1_0_1_28,2022-02-15T16:27:57.728Z,,,,,,,,,,,,,,,,,53,,,,,,,,,,,,,,475.7380000715202,,response,,,,99,,,,,,,Space,keypress(Space),,,,,,,,---- -- ----- -- ------ - ------- --- ----------<br>------------- ------ ------ ---- ---- ------- ----- -- ----<br>-------- ------- -- ---------- --- - --- ----- ----- ----<br>it's --- --- ----- --- ---- ---- ------- ----- ---- -------<br>--- --- -- ----- -- --- ---- -- --- ---- -- ------ ------<br>--- ----- -- ----,139722.5,139720.30000007153,139228.02,139234.89999997616,139244.562,139727.305,,28,it's
screen,html.Screen,2_1_0_1_29,2022-02-15T16:27:58.179Z,,,,,,,,,,,,,,,,,53,,,,,,,,,,,,,,444.79500002384884,,response,,,,99,,,,,,,Space,keypress(Space),,,,,,,,---- -- ----- -- ------ - ------- --- ----------<br>------------- ------ ------ ---- ---- ------- ----- -- ----<br>-------- ------- -- ---------- --- - --- ----- ----- ----<br>---- not --- ----- --- ---- ---- ------- ----- ---- -------<br>--- --- -- ----- -- --- ---- -- --- ---- -- ------ ------<br>--- ----- -- ----,140172.80000007153,140172.10000002384,139711.199,139722.60000002384,139727.305,140177.087,,29,not
screen,html.Screen,2_1_0_1_30,2022-02-15T16:27:58.646Z,,,,,,,,,,,,,,,,,53,,,,,,,,,,,,,,462.71300007152604,,response,,,,99,,,,,,,Space,keypress(Space),,,,,,,,---- -- ----- -- ------ - ------- --- ----------<br>------------- ------ ------ ---- ---- ------- ----- -- ----<br>-------- ------- -- ---------- --- - --- ----- ----- ----<br>---- --- how ----- --- ---- ---- ------- ----- ---- -------<br>--- --- -- ----- -- --- ---- -- --- ---- -- ------ ------<br>--- ----- -- ----,140640.20000004768,140639.80000007153,140161.033,140172.89999997616,140177.087,140643.642,,30,how
screen,html.Screen,2_1_0_1_31,2022-02-15T16:27:59.079Z,,,,,,,,,,,,,,,,,53,,,,,,,,,,,,,,435.35800000000745,,response,,,,99,,,,,,,Space,keypress(Space),,,,,,,,---- -- ----- -- ------ - ------- --- ----------<br>------------- ------ ------ ---- ---- ------- ----- -- ----<br>-------- ------- -- ---------- --- - --- ----- ----- ----<br>---- --- --- close --- ---- ---- ------- ----- ---- -------<br>--- --- -- ----- -- --- ---- -- --- ---- -- ------ ------<br>--- ----- -- ----,141079.80000007153,141079,140627.559,140640.30000007153,140643.642,141093.646,,31,close
screen,html.Screen,2_1_0_1_32,2022-02-15T16:27:59.529Z,,,,,,,,,,,,,,,,,53,,,,,,,,,,,,,,435.3539999999921,,response,,,,99,,,,,,,Space,keypress(Space),,,,,,,,---- -- ----- -- ------ - ------- --- ----------<br>------------- ------ ------ ---- ---- ------- ----- -- ----<br>-------- ------- -- ---------- --- - --- ----- ----- ----<br>---- --- --- ----- you ---- ---- ------- ----- ---- -------<br>--- --- -- ----- -- --- ---- -- --- ---- -- ------ ------<br>--- ----- -- ----,141529.89999997616,141529,141077.242,141079.89999997616,141093.646,141543.723,,32,you
screen,html.Screen,2_1_0_1_33,2022-02-15T16:27:59.995Z,,,,,,,,,,,,,,,,,53,,,,,,,,,,,,,,450.9770000476856,,response,,,,99,,,,,,,Space,keypress(Space),,,,,,,,---- -- ----- -- ------ - ------- --- ----------<br>------------- ------ ------ ---- ---- ------- ----- -- ----<br>-------- ------- -- ---------- --- - --- ----- ----- ----<br>---- --- --- ----- --- feel ---- ------- ----- ---- -------<br>--- --- -- ----- -- --- ---- -- --- ---- -- ------ ------<br>--- ----- -- ----,141995.70000004768,141994.70000004768,141527.253,141530,141543.723,142009.938,,33,feel
screen,html.Screen,2_1_0_1_34,2022-02-15T16:28:00.495Z,,,,,,,,,,,,,,,,,53,,,,,,,,,,,,,,485.26200004768907,,response,,,,99,,,,,,,Space,keypress(Space),,,,,,,,---- -- ----- -- ------ - ------- --- ----------<br>------------- ------ ------ ---- ---- ------- ----- -- ----<br>-------- ------- -- ---------- --- - --- ----- ----- ----<br>---- --- --- ----- --- ---- that ------- ----- ---- -------<br>--- --- -- ----- -- --- ---- -- --- ---- -- ------ ------<br>--- ----- -- ----,142496.10000002384,142495.20000004768,141993.837,141995.89999997616,142009.938,142510.066,,34,that
screen,html.Screen,2_1_0_1_35,2022-02-15T16:28:00.992Z,,,,,,,,,,,,,,,,,53,,,,,,,,,,,,,,481.6340000476921,,response,,,,99,,,,,,,Space,keypress(Space),,,,,,,,---- -- ----- -- ------ - ------- --- ----------<br>------------- ------ ------ ---- ---- ------- ----- -- ----<br>-------- ------- -- ---------- --- - --- ----- ----- ----<br>---- --- --- ----- --- ---- ---- matters ----- ---- -------<br>--- --- -- ----- -- --- ---- -- --- ---- -- ------ ------<br>--- ----- -- ----,142992.5,142991.70000004768,142493.196,142496.20000004768,142510.066,143010.023,,35,matters
screen,html.Screen,2_1_0_1_36,2022-02-15T16:28:01.534Z,,,,,,,,,,,,,,,,,53,,,,,,,,,,,,,,524.0770000238554,,response,,,,99,,,,,,,Space,keypress(Space),,,,,,,,"---- -- ----- -- ------ - ------- --- ----------<br>------------- ------ ------ ---- ---- ------- ----- -- ----<br>-------- ------- -- ---------- --- - --- ----- ----- ----<br>---- --- --- ----- --- ---- ---- ------- most, ---- -------<br>--- --- -- ----- -- --- ---- -- --- ---- -- ------ ------<br>--- ----- -- ----",143534.89999997616,143534.10000002384,142993.494,142992.80000007153,143010.023,143542.685,,36,"most,"
screen,html.Screen,2_1_0_1_37,2022-02-15T16:28:02.469Z,,,,,,,,,,,,,,,,,53,,,,,,,,,,,,,,925.9150000238442,,response,,,,99,,,,,,,Space,keypress(Space),,,,,,,,---- -- ----- -- ------ - ------- --- ----------<br>------------- ------ ------ ---- ---- ------- ----- -- ----<br>-------- ------- -- ---------- --- - --- ----- ----- ----<br>---- --- --- ----- --- ---- ---- ------- ----- it's -------<br>--- --- -- ----- -- --- ---- -- --- ---- -- ------ ------<br>--- ----- -- ----,144469.5,144468.60000002384,143526.623,143535,143542.685,144475.685,,37,it's
screen,html.Screen,2_1_0_1_38,2022-02-15T16:28:03.015Z,,,,,,,,,,,,,,,,,53,,,,,,,,,,,,,,539.515000047686,,response,,,,99,,,,,,,Space,keypress(Space),,,,,,,,---- -- ----- -- ------ - ------- --- ----------<br>------------- ------ ------ ---- ---- ------- ----- -- ----<br>-------- ------- -- ---------- --- - --- ----- ----- ----<br>---- --- --- ----- --- ---- ---- ------- ----- ---- whether<br>--- --- -- ----- -- --- ---- -- --- ---- -- ------ ------<br>--- ----- -- ----,145015.89999997616,145015.20000004768,144459.881,144469.60000002384,144475.685,145025.919,,38,whether
screen,html.Screen,2_1_0_1_39,2022-02-15T16:28:03.486Z,,,,,,,,,,,,,,,,,53,,,,,,,,,,,,,,459.88100007153116,,response,,,,99,,,,,,,Space,keypress(Space),,,,,,,,---- -- ----- -- ------ - ------- --- ----------<br>------------- ------ ------ ---- ---- ------- ----- -- ----<br>-------- ------- -- ---------- --- - --- ----- ----- ----<br>---- --- --- ----- --- ---- ---- ------- ----- ---- -------<br>you --- -- ----- -- --- ---- -- --- ---- -- ------ ------<br>--- ----- -- ----,145486.60000002384,145485.80000007153,145009.496,145016.10000002384,145025.919,145492.01,,39,you
screen,html.Screen,2_1_0_1_40,2022-02-15T16:28:03.920Z,,,,,,,,,,,,,,,,,53,,,,,,,,,,,,,,428.1900000476744,,response,,,,99,,,,,,,Space,keypress(Space),,,,,,,,---- -- ----- -- ------ - ------- --- ----------<br>------------- ------ ------ ---- ---- ------- ----- -- ----<br>-------- ------- -- ---------- --- - --- ----- ----- ----<br>---- --- --- ----- --- ---- ---- ------- ----- ---- -------<br>--- are -- ----- -- --- ---- -- --- ---- -- ------ ------<br>--- ----- -- ----,145921,145920.20000004768,145475.925,145486.70000004768,145492.01,145925.173,,40,are
screen,html.Screen,2_1_0_1_41,2022-02-15T16:28:04.355Z,,,,,,,,,,,,,,,,,53,,,,,,,,,,,,,,430.02700004767394,,response,,,,99,,,,,,,Space,keypress(Space),,,,,,,,---- -- ----- -- ------ - ------- --- ----------<br>------------- ------ ------ ---- ---- ------- ----- -- ----<br>-------- ------- -- ---------- --- - --- ----- ----- ----<br>---- --- --- ----- --- ---- ---- ------- ----- ---- -------<br>--- --- as ----- -- --- ---- -- --- ---- -- ------ ------<br>--- ----- -- ----,146356,146355.20000004768,145909.098,145921.20000004768,145925.173,146358.353,,41,as
screen,html.Screen,2_1_0_1_42,2022-02-15T16:28:04.792Z,,,,,,,,,,,,,,,,,53,,,,,,,,,,,,,,434.1469999999972,,response,,,,99,,,,,,,Space,keypress(Space),,,,,,,,---- -- ----- -- ------ - ------- --- ----------<br>------------- ------ ------ ---- ---- ------- ----- -- ----<br>-------- ------- -- ---------- --- - --- ----- ----- ----<br>---- --- --- ----- --- ---- ---- ------- ----- ---- -------<br>--- --- -- close -- --- ---- -- --- ---- -- ------ ------<br>--- ----- -- ----,146793.10000002384,146792.5,146342.297,146356.10000002384,146358.353,146808.341,,42,close
screen,html.Screen,2_1_0_1_43,2022-02-15T16:28:05.179Z,,,,,,,,,,,,,,,,,53,,,,,,,,,,,,,,370.8590000476979,,response,,,,99,,,,,,,Space,keypress(Space),,,,,,,,---- -- ----- -- ------ - ------- --- ----------<br>------------- ------ ------ ---- ---- ------- ----- -- ----<br>-------- ------- -- ---------- --- - --- ----- ----- ----<br>---- --- --- ----- --- ---- ---- ------- ----- ---- -------<br>--- --- -- ----- as --- ---- -- --- ---- -- ------ ------<br>--- ----- -- ----,147180.10000002384,147179.20000004768,146791.808,146793.20000004768,146808.341,147191.881,,43,as
screen,html.Screen,2_1_0_1_44,2022-02-15T16:28:05.575Z,,,,,,,,,,,,,,,,,53,,,,,,,,,,,,,,383.61900000000605,,response,,,,99,,,,,,,Space,keypress(Space),,,,,,,,---- -- ----- -- ------ - ------- --- ----------<br>------------- ------ ------ ---- ---- ------- ----- -- ----<br>-------- ------- -- ---------- --- - --- ----- ----- ----<br>---- --- --- ----- --- ---- ---- ------- ----- ---- -------<br>--- --- -- ----- -- you ---- -- --- ---- -- ------ ------<br>--- ----- -- ----,147576.39999997616,147575.5,147175.316,147180.20000004768,147191.881,147591.757,,44,you
screen,html.Screen,2_1_0_1_45,2022-02-15T16:28:06.004Z,,,,,,,,,,,,,,,,,53,,,,,,,,,,,,,,412.1429999761458,,response,,,,99,,,,,,,Space,keypress(Space),,,,,,,,---- -- ----- -- ------ - ------- --- ----------<br>------------- ------ ------ ---- ---- ------- ----- -- ----<br>-------- ------- -- ---------- --- - --- ----- ----- ----<br>---- --- --- ----- --- ---- ---- ------- ----- ---- -------<br>--- --- -- ----- -- --- want -- --- ---- -- ------ ------<br>--- ----- -- ----,148004.70000004768,148003.89999997616,147575.019,147576.60000002384,147591.757,148007.845,,45,want
screen,html.Screen,2_1_0_1_46,2022-02-15T16:28:06.403Z,,,,,,,,,,,,,,,,,53,,,,,,,,,,,,,,395.7550000238407,,response,,,,99,,,,,,,Space,keypress(Space),,,,,,,,---- -- ----- -- ------ - ------- --- ----------<br>------------- ------ ------ ---- ---- ------- ----- -- ----<br>-------- ------- -- ---------- --- - --- ----- ----- ----<br>---- --- --- ----- --- ---- ---- ------- ----- ---- -------<br>--- --- -- ----- -- --- ---- to --- ---- -- ------ ------<br>--- ----- -- ----,148404.39999997616,148403.60000002384,147991.714,148004.80000007153,148007.845,148407.658,,46,to
screen,html.Screen,2_1_0_1_47,2022-02-15T16:28:06.816Z,,,,,,,,,,,,,,,,,53,,,,,,,,,,,,,,408.44200002384605,,response,,,,99,,,,,,,Space,keypress(Space),,,,,,,,"---- -- ----- -- ------ - ------- --- ----------<br>------------- ------ ------ ---- ---- ------- ----- -- ----<br>-------- ------- -- ---------- --- - --- ----- ----- ----<br>---- --- --- ----- --- ---- ---- ------- ----- ---- -------<br>--- --- -- ----- -- --- ---- -- be, ---- -- ------ ------<br>--- ----- -- ----",148816.89999997616,148816.10000002384,148391.585,148404.5,148407.658,148824.238,,47,"be,"
screen,html.Screen,2_1_0_1_48,2022-02-15T16:28:07.255Z,,,,,,,,,,,,,,,,,53,,,,,,,,,,,,,,431.2619999999879,,response,,,,99,,,,,,,Space,keypress(Space),,,,,,,,---- -- ----- -- ------ - ------- --- ----------<br>------------- ------ ------ ---- ---- ------- ----- -- ----<br>-------- ------- -- ---------- --- - --- ----- ----- ----<br>---- --- --- ----- --- ---- ---- ------- ----- ---- -------<br>--- --- -- ----- -- --- ---- -- --- even -- ------ ------<br>--- ----- -- ----,149256.39999997616,149255.5,148808.159,148817,148824.238,149286.848,,48,even
screen,html.Screen,2_1_0_1_49,2022-02-15T16:28:07.699Z,,,,,,,,,,,,,,,,,53,,,,,,,,,,,,,,412.3520000476856,,response,,,,99,,,,,,,Space,keypress(Space),,,,,,,,---- -- ----- -- ------ - ------- --- ----------<br>------------- ------ ------ ---- ---- ------- ----- -- ----<br>-------- ------- -- ---------- --- - --- ----- ----- ----<br>---- --- --- ----- --- ---- ---- ------- ----- ---- -------<br>--- --- -- ----- -- --- ---- -- --- ---- if ------ ------<br>--- ----- -- ----,149700,149699.20000004768,149240.9,149256.39999997616,149286.848,149707.196,,49,if
screen,html.Screen,2_1_0_1_50,2022-02-15T16:28:08.144Z,,,,,,,,,,,,,,,,,53,,,,,,,,,,,,,,437.4040000238456,,response,,,,99,,,,,,,Space,keypress(Space),,,,,,,,---- -- ----- -- ------ - ------- --- ----------<br>------------- ------ ------ ---- ---- ------- ----- -- ----<br>-------- ------- -- ---------- --- - --- ----- ----- ----<br>---- --- --- ----- --- ---- ---- ------- ----- ---- -------<br>--- --- -- ----- -- --- ---- -- --- ---- -- that's ------<br>--- ----- -- ----,150145.30000007153,150144.60000002384,149690.992,149700.10000002384,149707.196,150157.574,,50,that's
screen,html.Screen,2_1_0_1_51,2022-02-15T16:28:08.624Z,,,,,,,,,,,,,,,,,53,,,,,,,,,,,,,,466.8259999761649,,response,,,,99,,,,,,,Space,keypress(Space),,,,,,,,---- -- ----- -- ------ - ------- --- ----------<br>------------- ------ ------ ---- ---- ------- ----- -- ----<br>-------- ------- -- ---------- --- - --- ----- ----- ----<br>---- --- --- ----- --- ---- ---- ------- ----- ---- -------<br>--- --- -- ----- -- --- ---- -- --- ---- -- ------ really<br>--- ----- -- ----,150625.10000002384,150624.39999997616,150140.839,150145.5,150157.574,150640.515,,51,really
screen,html.Screen,2_1_0_1_52,2022-02-15T16:28:09.083Z,,,,,,,,,,,,,,,,,53,,,,,,,,,,,,,,442.5850000238279,,response,,,,99,,,,,,,Space,keypress(Space),,,,,,,,---- -- ----- -- ------ - ------- --- ----------<br>------------- ------ ------ ---- ---- ------- ----- -- ----<br>-------- ------- -- ---------- --- - --- ----- ----- ----<br>---- --- --- ----- --- ---- ---- ------- ----- ---- -------<br>--- --- -- ----- -- --- ---- -- --- ---- -- ------ ------<br>not ----- -- ----,151083.89999997616,151083.10000002384,150624.265,150625.30000007153,150640.515,151090.148,,52,not
screen,html.Screen,2_1_0_1_53,2022-02-15T16:28:09.507Z,,,,,,,,,,,,,,,,,53,,,,,,,,,,,,,,417.3520000000135,,response,,,,99,,,,,,,Space,keypress(Space),,,,,,,,---- -- ----- -- ------ - ------- --- ----------<br>------------- ------ ------ ---- ---- ------- ----- -- ----<br>-------- ------- -- ---------- --- - --- ----- ----- ----<br>---- --- --- ----- --- ---- ---- ------- ----- ---- -------<br>--- --- -- ----- -- --- ---- -- --- ---- -- ------ ------<br>--- close -- ----,151508.39999997616,151507.5,151073.649,151084.10000002384,151090.148,151523.445,,53,close
screen,html.Screen,2_1_0_1_54,2022-02-15T16:28:09.907Z,,,,,,,,,,,,,,,,,53,,,,,,,,,,,,,,383.95499997615116,,response,,,,99,,,,,,,Space,keypress(Space),,,,,,,,---- -- ----- -- ------ - ------- --- ----------<br>------------- ------ ------ ---- ---- ------- ----- -- ----<br>-------- ------- -- ---------- --- - --- ----- ----- ----<br>---- --- --- ----- --- ---- ---- ------- ----- ---- -------<br>--- --- -- ----- -- --- ---- -- --- ---- -- ------ ------<br>--- ----- at ----,151908.5,151907.39999997616,151507.214,151508.5,151523.445,151923.322,,54,at
screen,html.Screen,2_1_0_1_55,2022-02-15T16:28:10.786Z,,,,,,,,,,,,,,,,,53,,,,,,,,,,,,,,862.3780000476982,,response,,,,99,,,,,,,Space,keypress(Space),,,,,,,,---- -- ----- -- ------ - ------- --- ----------<br>------------- ------ ------ ---- ---- ------- ----- -- ----<br>-------- ------- -- ---------- --- - --- ----- ----- ----<br>---- --- --- ----- --- ---- ---- ------- ----- ---- -------<br>--- --- -- ----- -- --- ---- -- --- ---- -- ------ ------<br>--- ----- -- all.,152786.70000004768,152785.70000004768,151907.11,151908.60000002384,151923.322,152789.512,,55,all.
Item 99,flow.Loop,2_1_0_1,2022-02-15T16:28:10.786Z,,,,,,,,,,,,,,,,,,,,,,,,,,,,,,,27886.71400004768,,completion,,,,,B,,,,,,,,,,,silence,,,,,152787,152785.70000004768,124882.679,124883.60000002384,124898.986,152789.512,,,
Question 1,html.Screen,2_1_0_2,2022-02-15T16:28:24.147Z,,,,,,,,,,,,,,,,,,,,,,,,,,,,true,FALSE,,13356.788000071538,,response,,,,99,B,,,,,,FALSE,click #choice-2,,,,silence,,,,,166147.5,166146.30000007153,152773.668,152787.10000002384,152789.512,166151.69,,,
Question 2,html.Screen,2_1_0_3,2022-02-15T16:28:32.532Z,,,,,,,,,,,,,,,,,,,,,,,,,,,,false,TRUE,,8379.709999976156,,response,,,,99,B,,,,,,FALSE,click #choice-2,,,,silence,,,,,174532.70000004768,174531.39999997616,166135.575,166147.70000004768,166151.69,174565.529,,,
Item 99,flow.Sequence,2_1_0,2022-02-15T16:28:32.532Z,,,,,,,,,,,,,,,,,,,,,,,,,,,,,,,59628.980999976164,,completion,,,,,,,,,,,,,,,,,,,,,174533,174531.39999997616,114885.924,114898.20000004768,114902.419,174565.529,,,
Holding screen,html.Screen,2_1_1_0,2022-02-15T16:28:42.552Z,,,,,,,,,,,,,,,,,,,,,,,,,,,,,,,9997.054000000004,,timeout,,,,,,,,,,,,,,,,,,,,,184552.80000007153,184545.558,174549.334,174533.10000002384,174565.529,184562.583,,,
screen,html.Screen,2_1_1_1_0,2022-02-15T16:28:44.152Z,,,,,,,,,,,,,,,,,54,,,,,,,,,,,,,,1588.9169999999867,,response,,,,100,,,,,,,Space,keypress(Space),,,,,,,,At --- ---- --- ------ ----- ------- ---- -- --- ------- --<br>------- ---------- ------ -- ----- -- ----- -- ---- ------<br>--- ----- --- --- ------ -------- ----- --- ------ ----- --<br>----- ----- ---------- --- --- ------ ------ ---- -- ------<br>------- --- ------ ----- --- ---- ------- -- ---- --- --<br>------- ------,186152.60000002384,186151.5,184545.558,184553,184562.583,186162.036,,0,At
screen,html.Screen,2_1_1_1_1,2022-02-15T16:28:44.924Z,,,,,,,,,,,,,,,,,54,,,,,,,,,,,,,,761.6640000476909,,response,,,,100,,,,,,,Space,keypress(Space),,,,,,,,-- the ---- --- ------ ----- ------- ---- -- --- ------- --<br>------- ---------- ------ -- ----- -- ----- -- ---- ------<br>--- ----- --- --- ------ -------- ----- --- ------ ----- --<br>----- ----- ---------- --- --- ------ ------ ---- -- ------<br>------- --- ------ ----- --- ---- ------- -- ---- --- --<br>------- ------,186924.70000004768,186923.70000004768,186146.113,186152.80000007153,186162.036,186928.006,,1,the
screen,html.Screen,2_1_1_1_2,2022-02-15T16:28:45.359Z,,,,,,,,,,,,,,,,,54,,,,,,,,,,,,,,431.2940000715316,,response,,,,100,,,,,,,Space,keypress(Space),,,,,,,,-- --- time --- ------ ----- ------- ---- -- --- ------- --<br>------- ---------- ------ -- ----- -- ----- -- ---- ------<br>--- ----- --- --- ------ -------- ----- --- ------ ----- --<br>----- ----- ---------- --- --- ------ ------ ---- -- ------<br>------- --- ------ ----- --- ---- ------- -- ---- --- --<br>------- ------,187360.10000002384,187359.30000007153,186911.735,186924.80000007153,186928.006,187386.936,,2,time
screen,html.Screen,2_1_1_1_3,2022-02-15T16:28:45.768Z,,,,,,,,,,,,,,,,,54,,,,,,,,,,,,,,381.3640000715386,,response,,,,100,,,,,,,Space,keypress(Space),,,,,,,,-- --- ---- the ------ ----- ------- ---- -- --- ------- --<br>------- ---------- ------ -- ----- -- ----- -- ---- ------<br>--- ----- --- --- ------ -------- ----- --- ------ ----- --<br>----- ----- ---------- --- --- ------ ------ ---- -- ------<br>------- --- ------ ----- --- ---- ------- -- ---- --- --<br>------- ------,187769.20000004768,187768.30000007153,187345.13,187360.20000004768,187386.936,187778.207,,3,the
screen,html.Screen,2_1_1_1_4,2022-02-15T16:28:46.177Z,,,,,,,,,,,,,,,,,54,,,,,,,,,,,,,,398.7930000000051,,response,,,,100,,,,,,,Space,keypress(Space),,,,,,,,-- --- ---- --- French ----- ------- ---- -- --- ------- --<br>------- ---------- ------ -- ----- -- ----- -- ---- ------<br>--- ----- --- --- ------ -------- ----- --- ------ ----- --<br>----- ----- ---------- --- --- ------ ------ ---- -- ------<br>------- --- ------ ----- --- ---- ------- -- ---- --- --<br>------- ------,188177.60000002384,188177,187761.424,187769.30000007153,187778.207,188211.354,,4,French
screen,html.Screen,2_1_1_1_5,2022-02-15T16:28:46.606Z,,,,,,,,,,,,,,,,,54,,,,,,,,,,,,,,394.7460000238498,,response,,,,100,,,,,,,Space,keypress(Space),,,,,,,,-- --- ---- --- ------ crown ------- ---- -- --- ------- --<br>------- ---------- ------ -- ----- -- ----- -- ---- ------<br>--- ----- --- --- ------ -------- ----- --- ------ ----- --<br>----- ----- ---------- --- --- ------ ------ ---- -- ------<br>------- --- ------ ----- --- ---- ------- -- ---- --- --<br>------- ------,188606.89999997616,188606.10000002384,188194.738,188177.89999997616,188211.354,188610.818,,5,crown
screen,html.Screen,2_1_1_1_6,2022-02-15T16:28:47.038Z,,,,,,,,,,,,,,,,,54,,,,,,,,,,,,,,427.8820000476844,,response,,,,100,,,,,,,Space,keypress(Space),,,,,,,,-- --- ---- --- ------ ----- secured ---- -- --- ------- --<br>------- ---------- ------ -- ----- -- ----- -- ---- ------<br>--- ----- --- --- ------ -------- ----- --- ------ ----- --<br>----- ----- ---------- --- --- ------ ------ ---- -- ------<br>------- --- ------ ----- --- ---- ------- -- ---- --- --<br>------- ------,189039.5,189038.70000004768,188594.728,188607,188610.818,189043.974,,6,secured
screen,html.Screen,2_1_1_1_7,2022-02-15T16:28:47.472Z,,,,,,,,,,,,,,,,,54,,,,,,,,,,,,,,428.32600007153815,,response,,,,100,,,,,,,Space,keypress(Space),,,,,,,,-- --- ---- --- ------ ----- ------- much -- --- ------- --<br>------- ---------- ------ -- ----- -- ----- -- ---- ------<br>--- ----- --- --- ------ -------- ----- --- ------ ----- --<br>----- ----- ---------- --- --- ------ ------ ---- -- ------<br>------- --- ------ ----- --- ---- ------- -- ---- --- --<br>------- ------,189473.10000002384,189472.30000007153,189027.929,189039.60000002384,189043.974,189477.15,,7,much
screen,html.Screen,2_1_1_1_8,2022-02-15T16:28:47.846Z,,,,,,,,,,,,,,,,,54,,,,,,,,,,,,,,369.05000004768954,,response,,,,100,,,,,,,Space,keypress(Space),,,,,,,,-- --- ---- --- ------ ----- ------- ---- of --- ------- --<br>------- ---------- ------ -- ----- -- ----- -- ---- ------<br>--- ----- --- --- ------ -------- ----- --- ------ ----- --<br>----- ----- ---------- --- --- ------ ------ ---- -- ------<br>------- --- ------ ----- --- ---- ------- -- ---- --- --<br>------- ------,189847,189846.20000004768,189460.811,189473.30000007153,189477.15,189860.79,,8,of
screen,html.Screen,2_1_1_1_9,2022-02-15T16:28:48.217Z,,,,,,,,,,,,,,,,,54,,,,,,,,,,,,,,356.70999999999185,,response,,,,100,,,,,,,Space,keypress(Space),,,,,,,,-- --- ---- --- ------ ----- ------- ---- -- its ------- --<br>------- ---------- ------ -- ----- -- ----- -- ---- ------<br>--- ----- --- --- ------ -------- ----- --- ------ ----- --<br>----- ----- ---------- --- --- ------ ------ ---- -- ------<br>------- --- ------ ----- --- ---- ------- -- ---- --- --<br>------- ------,190218.30000007153,190217.5,189843.914,189847.20000004768,189860.79,190227.389,,9,its
screen,html.Screen,2_1_1_1_10,2022-02-15T16:28:48.634Z,,,,,,,,,,,,,,,,,54,,,,,,,,,,,,,,407.1110000000044,,response,,,,100,,,,,,,Space,keypress(Space),,,,,,,,-- --- ---- --- ------ ----- ------- ---- -- --- revenue --<br>------- ---------- ------ -- ----- -- ----- -- ---- ------<br>--- ----- --- --- ------ -------- ----- --- ------ ----- --<br>----- ----- ---------- --- --- ------ ------ ---- -- ------<br>------- --- ------ ----- --- ---- ------- -- ---- --- --<br>------- ------,190635.30000007153,190634.5,190210.832,190218.5,190227.389,190643.934,,10,revenue
screen,html.Screen,2_1_1_1_11,2022-02-15T16:28:49.050Z,,,,,,,,,,,,,,,,,54,,,,,,,,,,,,,,405.76600004767533,,response,,,,100,,,,,,,Space,keypress(Space),,,,,,,,-- --- ---- --- ------ ----- ------- ---- -- --- ------- by<br>------- ---------- ------ -- ----- -- ----- -- ---- ------<br>--- ----- --- --- ------ -------- ----- --- ------ ----- --<br>----- ----- ---------- --- --- ------ ------ ---- -- ------<br>------- --- ------ ----- --- ---- ------- -- ---- --- --<br>------- ------,191050.60000002384,191049.70000004768,190627.361,190635.5,190643.934,191060.216,,11,by
screen,html.Screen,2_1_1_1_12,2022-02-15T16:28:49.464Z,,,,,,,,,,,,,,,,,54,,,,,,,,,,,,,,404.38400002385606,,response,,,,100,,,,,,,Space,keypress(Space),,,,,,,,-- --- ---- --- ------ ----- ------- ---- -- --- ------- --<br>issuing ---------- ------ -- ----- -- ----- -- ---- ------<br>--- ----- --- --- ------ -------- ----- --- ------ ----- --<br>----- ----- ---------- --- --- ------ ------ ---- -- ------<br>------- --- ------ ----- --- ---- ------- -- ---- --- --<br>------- ------,191465.39999997616,191464.60000002384,191043.742,191050.70000004768,191060.216,191477.006,,12,issuing
screen,html.Screen,2_1_1_1_13,2022-02-15T16:28:49.873Z,,,,,,,,,,,,,,,,,54,,,,,,,,,,,,,,395.8939999761642,,response,,,,100,,,,,,,Space,keypress(Space),,,,,,,,-- --- ---- --- ------ ----- ------- ---- -- --- ------- --<br>------- government ------ -- ----- -- ----- -- ---- ------<br>--- ----- --- --- ------ -------- ----- --- ------ ----- --<br>----- ----- ---------- --- --- ------ ------ ---- -- ------<br>------- --- ------ ----- --- ---- ------- -- ---- --- --<br>------- ------,191873.60000002384,191872.89999997616,191460.291,191465.60000002384,191477.006,191876.414,,13,government
screen,html.Screen,2_1_1_1_14,2022-02-15T16:28:50.275Z,,,,,,,,,,,,,,,,,54,,,,,,,,,,,,,,398.3860000715358,,response,,,,100,,,,,,,Space,keypress(Space),,,,,,,,-- --- ---- --- ------ ----- ------- ---- -- --- ------- --<br>------- ---------- bonds. -- ----- -- ----- -- ---- ------<br>--- ----- --- --- ------ -------- ----- --- ------ ----- --<br>----- ----- ---------- --- --- ------ ------ ---- -- ------<br>------- --- ------ ----- --- ---- ------- -- ---- --- --<br>------- ------,192275.60000002384,192274.80000007153,191860.275,191873.80000007153,191876.414,192292.962,,14,bonds.
screen,html.Screen,2_1_1_1_15,2022-02-15T16:28:50.689Z,,,,,,,,,,,,,,,,,54,,,,,,,,,,,,,,396.7380000476842,,response,,,,100,,,,,,,Space,keypress(Space),,,,,,,,-- --- ---- --- ------ ----- ------- ---- -- --- ------- --<br>------- ---------- ------ In ----- -- ----- -- ---- ------<br>--- ----- --- --- ------ -------- ----- --- ------ ----- --<br>----- ----- ---------- --- --- ------ ------ ---- -- ------<br>------- --- ------ ----- --- ---- ------- -- ---- --- --<br>------- ------,192690.5,192689.70000004768,192260.152,192275.80000007153,192292.962,192692.879,,15,In
screen,html.Screen,2_1_1_1_16,2022-02-15T16:28:51.097Z,,,,,,,,,,,,,,,,,54,,,,,,,,,,,,,,404.7210000238556,,response,,,,100,,,,,,,Space,keypress(Space),,,,,,,,"-- --- ---- --- ------ ----- ------- ---- -- --- ------- --<br>------- ---------- ------ -- 1727, -- ----- -- ---- ------<br>--- ----- --- --- ------ -------- ----- --- ------ ----- --<br>----- ----- ---------- --- --- ------ ------ ---- -- ------<br>------- --- ------ ----- --- ---- ------- -- ---- --- --<br>------- ------",193098.39999997616,193097.60000002384,192676.601,192690.60000002384,192692.879,193109.607,,16,"1727,"
screen,html.Screen,2_1_1_1_17,2022-02-15T16:28:51.464Z,,,,,,,,,,,,,,,,,54,,,,,,,,,,,,,,354.1930000715365,,response,,,,100,,,,,,,Space,keypress(Space),,,,,,,,-- --- ---- --- ------ ----- ------- ---- -- --- ------- --<br>------- ---------- ------ -- ----- in ----- -- ---- ------<br>--- ----- --- --- ------ -------- ----- --- ------ ----- --<br>----- ----- ---------- --- --- ------ ------ ---- -- ------<br>------- --- ------ ----- --- ---- ------- -- ---- --- --<br>------- ------,193464.70000004768,193463.80000007153,193093.084,193098.5,193109.607,193476.322,,17,in
screen,html.Screen,2_1_1_1_18,2022-02-15T16:28:51.918Z,,,,,,,,,,,,,,,,,54,,,,,,,,,,,,,,441.37800004769815,,response,,,,100,,,,,,,Space,keypress(Space),,,,,,,,-- --- ---- --- ------ ----- ------- ---- -- --- ------- --<br>------- ---------- ------ -- ----- -- order -- ---- ------<br>--- ----- --- --- ------ -------- ----- --- ------ ----- --<br>----- ----- ---------- --- --- ------ ------ ---- -- ------<br>------- --- ------ ----- --- ---- ------- -- ---- --- --<br>------- ------,193918.5,193917.70000004768,193459.599,193464.89999997616,193476.322,193926.092,,18,order
screen,html.Screen,2_1_1_1_19,2022-02-15T16:28:52.314Z,,,,,,,,,,,,,,,,,54,,,,,,,,,,,,,,388.00800002383767,,response,,,,100,,,,,,,Space,keypress(Space),,,,,,,,-- --- ---- --- ------ ----- ------- ---- -- --- ------- --<br>------- ---------- ------ -- ----- -- ----- to ---- ------<br>--- ----- --- --- ------ -------- ----- --- ------ ----- --<br>----- ----- ---------- --- --- ------ ------ ---- -- ------<br>------- --- ------ ----- --- ---- ------- -- ---- --- --<br>------- ------,194315,194314.10000002384,193909.596,193918.60000002384,193926.092,194326.034,,19,to
screen,html.Screen,2_1_1_1_20,2022-02-15T16:28:52.748Z,,,,,,,,,,,,,,,,,54,,,,,,,,,,,,,,421.86599997614394,,response,,,,100,,,,,,,Space,keypress(Space),,,,,,,,-- --- ---- --- ------ ----- ------- ---- -- --- ------- --<br>------- ---------- ------ -- ----- -- ----- -- save ------<br>--- ----- --- --- ------ -------- ----- --- ------ ----- --<br>----- ----- ---------- --- --- ------ ------ ---- -- ------<br>------- --- ------ ----- --- ---- ------- -- ---- --- --<br>------- ------,194748.60000002384,194747.89999997616,194309.45,194315.10000002384,194326.034,194759.055,,20,save
screen,html.Screen,2_1_1_1_21,2022-02-15T16:28:53.162Z,,,,,,,,,,,,,,,,,54,,,,,,,,,,,,,,402.445000000007,,response,,,,100,,,,,,,Space,keypress(Space),,,,,,,,"-- --- ---- --- ------ ----- ------- ---- -- --- ------- --<br>------- ---------- ------ -- ----- -- ----- -- ---- money,<br>--- ----- --- --- ------ -------- ----- --- ------ ----- --<br>----- ----- ---------- --- --- ------ ------ ---- -- ------<br>------- --- ------ ----- --- ---- ------- -- ---- --- --<br>------- ------",195162.5,195161.5,194742.626,194748.70000004768,194759.055,195175.694,,21,"money,"
screen,html.Screen,2_1_1_1_22,2022-02-15T16:28:53.582Z,,,,,,,,,,,,,,,,,54,,,,,,,,,,,,,,406.20599997616955,,response,,,,100,,,,,,,Space,keypress(Space),,,,,,,,-- --- ---- --- ------ ----- ------- ---- -- --- ------- --<br>------- ---------- ------ -- ----- -- ----- -- ---- ------<br>the ----- --- --- ------ -------- ----- --- ------ ----- --<br>----- ----- ---------- --- --- ------ ------ ---- -- ------<br>------- --- ------ ----- --- ---- ------- -- ---- --- --<br>------- ------,195582.80000007153,195581.89999997616,195159.174,195162.80000007153,195175.694,195592.094,,22,the
screen,html.Screen,2_1_1_1_23,2022-02-15T16:28:54.027Z,,,,,,,,,,,,,,,,,54,,,,,,,,,,,,,,435.2060000715137,,response,,,,100,,,,,,,Space,keypress(Space),,,,,,,,-- --- ---- --- ------ ----- ------- ---- -- --- ------- --<br>------- ---------- ------ -- ----- -- ----- -- ---- ------<br>--- state --- --- ------ -------- ----- --- ------ ----- --<br>----- ----- ---------- --- --- ------ ------ ---- -- ------<br>------- --- ------ ----- --- ---- ------- -- ---- --- --<br>------- ------,196028,196027.30000007153,195575.398,195582.89999997616,195592.094,196042.061,,23,state
screen,html.Screen,2_1_1_1_24,2022-02-15T16:28:54.395Z,,,,,,,,,,,,,,,,,54,,,,,,,,,,,,,,353.43900000001304,,response,,,,100,,,,,,,Space,keypress(Space),,,,,,,,-- --- ---- --- ------ ----- ------- ---- -- --- ------- --<br>------- ---------- ------ -- ----- -- ----- -- ---- ------<br>--- ----- cut --- ------ -------- ----- --- ------ ----- --<br>----- ----- ---------- --- --- ------ ------ ---- -- ------<br>------- --- ------ ----- --- ---- ------- -- ---- --- --<br>------- ------,196396.30000007153,196395.5,196025.39,196028.10000002384,196042.061,196408.625,,24,cut
screen,html.Screen,2_1_1_1_25,2022-02-15T16:28:54.768Z,,,,,,,,,,,,,,,,,54,,,,,,,,,,,,,,359.6750000715256,,response,,,,100,,,,,,,Space,keypress(Space),,,,,,,,-- --- ---- --- ------ ----- ------- ---- -- --- ------- --<br>------- ---------- ------ -- ----- -- ----- -- ---- ------<br>--- ----- --- the ------ -------- ----- --- ------ ----- --<br>----- ----- ---------- --- --- ------ ------ ---- -- ------<br>------- --- ------ ----- --- ---- ------- -- ---- --- --<br>------- ------,196769.20000004768,196768.30000007153,196392.092,196396.39999997616,196408.625,196774.775,,25,the
screen,html.Screen,2_1_1_1_26,2022-02-15T16:28:55.169Z,,,,,,,,,,,,,,,,,54,,,,,,,,,,,,,,394.5250000715314,,response,,,,100,,,,,,,Space,keypress(Space),,,,,,,,-- --- ---- --- ------ ----- ------- ---- -- --- ------- --<br>------- ---------- ------ -- ----- -- ----- -- ---- ------<br>--- ----- --- --- bonds' -------- ----- --- ------ ----- --<br>----- ----- ---------- --- --- ------ ------ ---- -- ------<br>------- --- ------ ----- --- ---- ------- -- ---- --- --<br>------- ------,197170.20000004768,197169.30000007153,196758.51,196769.39999997616,196774.775,197174.593,,26,bonds'
screen,html.Screen,2_1_1_1_27,2022-02-15T16:28:55.580Z,,,,,,,,,,,,,,,,,54,,,,,,,,,,,,,,405.30699997616466,,response,,,,100,,,,,,,Space,keypress(Space),,,,,,,,-- --- ---- --- ------ ----- ------- ---- -- --- ------- --<br>------- ---------- ------ -- ----- -- ----- -- ---- ------<br>--- ----- --- --- ------ interest ----- --- ------ ----- --<br>----- ----- ---------- --- --- ------ ------ ---- -- ------<br>------- --- ------ ----- --- ---- ------- -- ---- --- --<br>------- ------,197580.80000007153,197579.89999997616,197158.538,197170.30000007153,197174.593,197591.565,,27,interest
screen,html.Screen,2_1_1_1_28,2022-02-15T16:28:55.960Z,,,,,,,,,,,,,,,,,54,,,,,,,,,,,,,,368.6350000476814,,response,,,,100,,,,,,,Space,keypress(Space),,,,,,,,-- --- ---- --- ------ ----- ------- ---- -- --- ------- --<br>------- ---------- ------ -- ----- -- ----- -- ---- ------<br>--- ----- --- --- ------ -------- rate. --- ------ ----- --<br>----- ----- ---------- --- --- ------ ------ ---- -- ------<br>------- --- ------ ----- --- ---- ------- -- ---- --- --<br>------- ------,197961,197960.20000004768,197574.689,197580.89999997616,197591.565,197974.669,,28,rate.
screen,html.Screen,2_1_1_1_29,2022-02-15T16:28:56.368Z,,,,,,,,,,,,,,,,,54,,,,,,,,,,,,,,393.5310000476893,,response,,,,100,,,,,,,Space,keypress(Space),,,,,,,,-- --- ---- --- ------ ----- ------- ---- -- --- ------- --<br>------- ---------- ------ -- ----- -- ----- -- ---- ------<br>--- ----- --- --- ------ -------- ----- The ------ ----- --<br>----- ----- ---------- --- --- ------ ------ ---- -- ------<br>------- --- ------ ----- --- ---- ------- -- ---- --- --<br>------- ------,198368.89999997616,198368.20000004768,197958.22,197961.20000004768,197974.669,198374.161,,29,The
screen,html.Screen,2_1_1_1_30,2022-02-15T16:28:56.780Z,,,,,,,,,,,,,,,,,54,,,,,,,,,,,,,,406.3390000000072,,response,,,,100,,,,,,,Space,keypress(Space),,,,,,,,-- --- ---- --- ------ ----- ------- ---- -- --- ------- --<br>------- ---------- ------ -- ----- -- ----- -- ---- ------<br>--- ----- --- --- ------ -------- ----- --- market ----- --<br>----- ----- ---------- --- --- ------ ------ ---- -- ------<br>------- --- ------ ----- --- ---- ------- -- ---- --- --<br>------- ------,198781.20000004768,198780.5,198358.091,198369.10000002384,198374.161,198791.016,,30,market
screen,html.Screen,2_1_1_1_31,2022-02-15T16:28:57.145Z,,,,,,,,,,,,,,,,,54,,,,,,,,,,,,,,354.18400004768046,,response,,,,100,,,,,,,Space,keypress(Space),,,,,,,,-- --- ---- --- ------ ----- ------- ---- -- --- ------- --<br>------- ---------- ------ -- ----- -- ----- -- ---- ------<br>--- ----- --- --- ------ -------- ----- --- ------ value --<br>----- ----- ---------- --- --- ------ ------ ---- -- ------<br>------- --- ------ ----- --- ---- ------- -- ---- --- --<br>------- ------,199146,199145.20000004768,198774.325,198781.39999997616,198791.016,199157.786,,31,value
screen,html.Screen,2_1_1_1_32,2022-02-15T16:28:57.541Z,,,,,,,,,,,,,,,,,54,,,,,,,,,,,,,,383.7140000000072,,response,,,,100,,,,,,,Space,keypress(Space),,,,,,,,-- --- ---- --- ------ ----- ------- ---- -- --- ------- --<br>------- ---------- ------ -- ----- -- ----- -- ---- ------<br>--- ----- --- --- ------ -------- ----- --- ------ ----- of<br>----- ----- ---------- --- --- ------ ------ ---- -- ------<br>------- --- ------ ----- --- ---- ------- -- ---- --- --<br>------- ------,199542.30000007153,199541.5,199141.03,199146.10000002384,199157.786,199557.386,,32,of
screen,html.Screen,2_1_1_1_33,2022-02-15T16:28:57.974Z,,,,,,,,,,,,,,,,,54,,,,,,,,,,,,,,416.51399997615954,,response,,,,100,,,,,,,Space,keypress(Space),,,,,,,,-- --- ---- --- ------ ----- ------- ---- -- --- ------- --<br>------- ---------- ------ -- ----- -- ----- -- ---- ------<br>--- ----- --- --- ------ -------- ----- --- ------ ----- --<br>these ----- ---------- --- --- ------ ------ ---- -- ------<br>------- --- ------ ----- --- ---- ------- -- ---- --- --<br>------- ------,199974.80000007153,199973.89999997616,199541.021,199542.5,199557.386,199990.794,,33,these
screen,html.Screen,2_1_1_1_34,2022-02-15T16:28:58.391Z,,,,,,,,,,,,,,,,,54,,,,,,,,,,,,,,400.2060000000056,,response,,,,100,,,,,,,Space,keypress(Space),,,,,,,,-- --- ---- --- ------ ----- ------- ---- -- --- ------- --<br>------- ---------- ------ -- ----- -- ----- -- ---- ------<br>--- ----- --- --- ------ -------- ----- --- ------ ----- --<br>----- bonds ---------- --- --- ------ ------ ---- -- ------<br>------- --- ------ ----- --- ---- ------- -- ---- --- --<br>------- ------,200391.80000007153,200391,199974.265,199975,199990.794,200407.141,,34,bonds
screen,html.Screen,2_1_1_1_35,2022-02-15T16:28:58.771Z,,,,,,,,,,,,,,,,,54,,,,,,,,,,,,,,363.85899999999674,,response,,,,100,,,,,,,Space,keypress(Space),,,,,,,,"-- --- ---- --- ------ ----- ------- ---- -- --- ------- --<br>------- ---------- ------ -- ----- -- ----- -- ---- ------<br>--- ----- --- --- ------ -------- ----- --- ------ ----- --<br>----- ----- plummeted, --- --- ------ ------ ---- -- ------<br>------- --- ------ ----- --- ---- ------- -- ---- --- --<br>------- ------",200771.80000007153,200771,200390.744,200393.10000002384,200407.141,200793.784,,35,"plummeted,"
screen,html.Screen,2_1_1_1_36,2022-02-15T16:28:59.180Z,,,,,,,,,,,,,,,,,54,,,,,,,,,,,,,,380.61599997614394,,response,,,,100,,,,,,,Space,keypress(Space),,,,,,,,-- --- ---- --- ------ ----- ------- ---- -- --- ------- --<br>------- ---------- ------ -- ----- -- ----- -- ---- ------<br>--- ----- --- --- ------ -------- ----- --- ------ ----- --<br>----- ----- ---------- and --- ------ ------ ---- -- ------<br>------- --- ------ ----- --- ---- ------- -- ---- --- --<br>------- ------,201175.20000004768,201174.39999997616,200757.26,200771.89999997616,200793.784,201190.026,,36,and
screen,html.Screen,2_1_1_1_37,2022-02-15T16:28:59.556Z,,,,,,,,,,,,,,,,,54,,,,,,,,,,,,,,360.5740000238293,,response,,,,100,,,,,,,Space,keypress(Space),,,,,,,,-- --- ---- --- ------ ----- ------- ---- -- --- ------- --<br>------- ---------- ------ -- ----- -- ----- -- ---- ------<br>--- ----- --- --- ------ -------- ----- --- ------ ----- --<br>----- ----- ---------- --- the ------ ------ ---- -- ------<br>------- --- ------ ----- --- ---- ------- -- ---- --- --<br>------- ------,201551.39999997616,201550.60000002384,201173.684,201175.39999997616,201190.026,201556.485,,37,the
screen,html.Screen,2_1_1_1_38,2022-02-15T16:28:59.968Z,,,,,,,,,,,,,,,,,54,,,,,,,,,,,,,,405.4149999761721,,response,,,,100,,,,,,,Space,keypress(Space),,,,,,,,-- --- ---- --- ------ ----- ------- ---- -- --- ------- --<br>------- ---------- ------ -- ----- -- ----- -- ---- ------<br>--- ----- --- --- ------ -------- ----- --- ------ ----- --<br>----- ----- ---------- --- --- market ------ ---- -- ------<br>------- --- ------ ----- --- ---- ------- -- ---- --- --<br>------- ------,201962.80000007153,201961.89999997616,201540.14,201551.5,201556.485,201973.531,,38,market
screen,html.Screen,2_1_1_1_39,2022-02-15T16:29:00.381Z,,,,,,,,,,,,,,,,,54,,,,,,,,,,,,,,401.56900002385373,,response,,,,100,,,,,,,Space,keypress(Space),,,,,,,,-- --- ---- --- ------ ----- ------- ---- -- --- ------- --<br>------- ---------- ------ -- ----- -- ----- -- ---- ------<br>--- ----- --- --- ------ -------- ----- --- ------ ----- --<br>----- ----- ---------- --- --- ------ became ---- -- ------<br>------- --- ------ ----- --- ---- ------- -- ---- --- --<br>------- ------,202375.80000007153,202375.10000002384,201956.774,201963,201973.531,202389.625,,39,became
screen,html.Screen,2_1_1_1_40,2022-02-15T16:29:00.782Z,,,,,,,,,,,,,,,,,54,,,,,,,,,,,,,,386.47500002384186,,response,,,,100,,,,,,,Space,keypress(Space),,,,,,,,-- --- ---- --- ------ ----- ------- ---- -- --- ------- --<br>------- ---------- ------ -- ----- -- ----- -- ---- ------<br>--- ----- --- --- ------ -------- ----- --- ------ ----- --<br>----- ----- ---------- --- --- ------ ------ wary -- ------<br>------- --- ------ ----- --- ---- ------- -- ---- --- --<br>------- ------,202776.89999997616,202776.10000002384,202373.051,202375.89999997616,202389.625,202789.854,,40,wary
screen,html.Screen,2_1_1_1_41,2022-02-15T16:29:01.185Z,,,,,,,,,,,,,,,,,54,,,,,,,,,,,,,,389.1460000000079,,response,,,,100,,,,,,,Space,keypress(Space),,,,,,,,-- --- ---- --- ------ ----- ------- ---- -- --- ------- --<br>------- ---------- ------ -- ----- -- ----- -- ---- ------<br>--- ----- --- --- ------ -------- ----- --- ------ ----- --<br>----- ----- ---------- --- --- ------ ------ ---- of ------<br>------- --- ------ ----- --- ---- ------- -- ---- --- --<br>------- ------,203179.80000007153,203179,202773.273,202777,202789.854,203189.673,,41,of
screen,html.Screen,2_1_1_1_42,2022-02-15T16:29:01.580Z,,,,,,,,,,,,,,,,,54,,,,,,,,,,,,,,384.9270000238321,,response,,,,100,,,,,,,Space,keypress(Space),,,,,,,,-- --- ---- --- ------ ----- ------- ---- -- --- ------- --<br>------- ---------- ------ -- ----- -- ----- -- ---- ------<br>--- ----- --- --- ------ -------- ----- --- ------ ----- --<br>----- ----- ---------- --- --- ------ ------ ---- -- French<br>------- --- ------ ----- --- ---- ------- -- ---- --- --<br>------- ------,203575.39999997616,203574.60000002384,203172.952,203180,203189.673,203589.242,,42,French
screen,html.Screen,2_1_1_1_43,2022-02-15T16:29:02.039Z,,,,,,,,,,,,,,,,,54,,,,,,,,,,,,,,443.95800004768535,,response,,,,100,,,,,,,Space,keypress(Space),,,,,,,,-- --- ---- --- ------ ----- ------- ---- -- --- ------- --<br>------- ---------- ------ -- ----- -- ----- -- ---- ------<br>--- ----- --- --- ------ -------- ----- --- ------ ----- --<br>----- ----- ---------- --- --- ------ ------ ---- -- ------<br>credit. --- ------ ----- --- ---- ------- -- ---- --- --<br>------- ------,204034.10000002384,204033.20000004768,203572.998,203575.60000002384,203589.242,204039.021,,43,credit.
screen,html.Screen,2_1_1_1_44,2022-02-15T16:29:02.436Z,,,,,,,,,,,,,,,,,54,,,,,,,,,,,,,,390.9789999999921,,response,,,,100,,,,,,,Space,keypress(Space),,,,,,,,-- --- ---- --- ------ ----- ------- ---- -- --- ------- --<br>------- ---------- ------ -- ----- -- ----- -- ---- ------<br>--- ----- --- --- ------ -------- ----- --- ------ ----- --<br>----- ----- ---------- --- --- ------ ------ ---- -- ------<br>------- The ------ ----- --- ---- ------- -- ---- --- --<br>------- ------,204430.80000007153,204430,204022.859,204034.10000002384,204039.021,204439.263,,44,The
screen,html.Screen,2_1_1_1_45,2022-02-15T16:29:02.821Z,,,,,,,,,,,,,,,,,54,,,,,,,,,,,,,,376.63699997615186,,response,,,,100,,,,,,,Space,keypress(Space),,,,,,,,-- --- ---- --- ------ ----- ------- ---- -- --- ------- --<br>------- ---------- ------ -- ----- -- ----- -- ---- ------<br>--- ----- --- --- ------ -------- ----- --- ------ ----- --<br>----- ----- ---------- --- --- ------ ------ ---- -- ------<br>------- --- French ----- --- ---- ------- -- ---- --- --<br>------- ------,204816.70000004768,204815.89999997616,204422.708,204431,204439.263,204822.011,,45,French
screen,html.Screen,2_1_1_1_46,2022-02-15T16:29:03.224Z,,,,,,,,,,,,,,,,,54,,,,,,,,,,,,,,396.58900002384325,,response,,,,100,,,,,,,Space,keypress(Space),,,,,,,,-- --- ---- --- ------ ----- ------- ---- -- --- ------- --<br>------- ---------- ------ -- ----- -- ----- -- ---- ------<br>--- ----- --- --- ------ -------- ----- --- ------ ----- --<br>----- ----- ---------- --- --- ------ ------ ---- -- ------<br>------- --- ------ state --- ---- ------- -- ---- --- --<br>------- ------,205219.39999997616,205218.60000002384,204805.728,204816.80000007153,204822.011,205221.853,,46,state
screen,html.Screen,2_1_1_1_47,2022-02-15T16:29:03.612Z,,,,,,,,,,,,,,,,,54,,,,,,,,,,,,,,384.9470000715228,,response,,,,100,,,,,,,Space,keypress(Space),,,,,,,,-- --- ---- --- ------ ----- ------- ---- -- --- ------- --<br>------- ---------- ------ -- ----- -- ----- -- ---- ------<br>--- ----- --- --- ------ -------- ----- --- ------ ----- --<br>----- ----- ---------- --- --- ------ ------ ---- -- ------<br>------- --- ------ ----- was ---- ------- -- ---- --- --<br>------- ------,205607.60000002384,205606.80000007153,205205.606,205219.60000002384,205221.853,205622.154,,47,was
screen,html.Screen,2_1_1_1_48,2022-02-15T16:29:04.049Z,,,,,,,,,,,,,,,,,54,,,,,,,,,,,,,,421.34599999999045,,response,,,,100,,,,,,,Space,keypress(Space),,,,,,,,-- --- ---- --- ------ ----- ------- ---- -- --- ------- --<br>------- ---------- ------ -- ----- -- ----- -- ---- ------<br>--- ----- --- --- ------ -------- ----- --- ------ ----- --<br>----- ----- ---------- --- --- ------ ------ ---- -- ------<br>------- --- ------ ----- --- left ------- -- ---- --- --<br>------- ------,206044.30000007153,206043.5,205605.643,205607.70000004768,205622.154,206055.386,,48,left
screen,html.Screen,2_1_1_1_49,2022-02-15T16:29:04.492Z,,,,,,,,,,,,,,,,,54,,,,,,,,,,,,,,431.01399997615954,,response,,,,100,,,,,,,Space,keypress(Space),,,,,,,,-- --- ---- --- ------ ----- ------- ---- -- --- ------- --<br>------- ---------- ------ -- ----- -- ----- -- ---- ------<br>--- ----- --- --- ------ -------- ----- --- ------ ----- --<br>----- ----- ---------- --- --- ------ ------ ---- -- ------<br>------- --- ------ ----- --- ---- without -- ---- --- --<br>------- ------,206487.20000004768,206486.39999997616,206038.676,206044.5,206055.386,206509.821,,49,without
screen,html.Screen,2_1_1_1_50,2022-02-15T16:29:04.957Z,,,,,,,,,,,,,,,,,54,,,,,,,,,,,,,,441.7790000238456,,response,,,,100,,,,,,,Space,keypress(Space),,,,,,,,-- --- ---- --- ------ ----- ------- ---- -- --- ------- --<br>------- ---------- ------ -- ----- -- ----- -- ---- ------<br>--- ----- --- --- ------ -------- ----- --- ------ ----- --<br>----- ----- ---------- --- --- ------ ------ ---- -- ------<br>------- --- ------ ----- --- ---- ------- an ---- --- --<br>------- ------,206952.39999997616,206951.60000002384,206472.039,206487.39999997616,206509.821,206954.644,,50,an
screen,html.Screen,2_1_1_1_51,2022-02-15T16:29:05.402Z,,,,,,,,,,,,,,,,,54,,,,,,,,,,,,,,442.15600007152534,,response,,,,100,,,,,,,Space,keypress(Space),,,,,,,,-- --- ---- --- ------ ----- ------- ---- -- --- ------- --<br>------- ---------- ------ -- ----- -- ----- -- ---- ------<br>--- ----- --- --- ------ -------- ----- --- ------ ----- --<br>----- ----- ---------- --- --- ------ ------ ---- -- ------<br>------- --- ------ ----- --- ---- ------- -- easy --- --<br>------- ------,207397.60000002384,207396.80000007153,206938.554,206952.60000002384,206954.644,207404.598,,51,easy
screen,html.Screen,2_1_1_1_52,2022-02-15T16:29:05.822Z,,,,,,,,,,,,,,,,,54,,,,,,,,,,,,,,412.20200007152744,,response,,,,100,,,,,,,Space,keypress(Space),,,,,,,,-- --- ---- --- ------ ----- ------- ---- -- --- ------- --<br>------- ---------- ------ -- ----- -- ----- -- ---- ------<br>--- ----- --- --- ------ -------- ----- --- ------ ----- --<br>----- ----- ---------- --- --- ------ ------ ---- -- ------<br>------- --- ------ ----- --- ---- ------- -- ---- way --<br>------- ------,207817.60000002384,207816.80000007153,207388.405,207397.80000007153,207404.598,207820.981,,52,way
screen,html.Screen,2_1_1_1_53,2022-02-15T16:29:06.273Z,,,,,,,,,,,,,,,,,54,,,,,,,,,,,,,,446.71900004768395,,response,,,,100,,,,,,,Space,keypress(Space),,,,,,,,-- --- ---- --- ------ ----- ------- ---- -- --- ------- --<br>------- ---------- ------ -- ----- -- ----- -- ---- ------<br>--- ----- --- --- ------ -------- ----- --- ------ ----- --<br>----- ----- ---------- --- --- ------ ------ ---- -- ------<br>------- --- ------ ----- --- ---- ------- -- ---- --- of<br>------- ------,208268.5,208267.70000004768,207804.782,207817.80000007153,207820.981,208270.87,,53,of
screen,html.Screen,2_1_1_1_54,2022-02-15T16:29:06.737Z,,,,,,,,,,,,,,,,,54,,,,,,,,,,,,,,460.0299999761628,,response,,,,100,,,,,,,Space,keypress(Space),,,,,,,,-- --- ---- --- ------ ----- ------- ---- -- --- ------- --<br>------- ---------- ------ -- ----- -- ----- -- ---- ------<br>--- ----- --- --- ------ -------- ----- --- ------ ----- --<br>----- ----- ---------- --- --- ------ ------ ---- -- ------<br>------- --- ------ ----- --- ---- ------- -- ---- --- --<br>raising ------,208731.80000007153,208730.89999997616,208254.768,208268.60000002384,208270.87,208737.366,,54,raising
screen,html.Screen,2_1_1_1_55,2022-02-15T16:29:07.182Z,,,,,,,,,,,,,,,,,54,,,,,,,,,,,,,,439.2340000238328,,response,,,,100,,,,,,,Space,keypress(Space),,,,,,,,-- --- ---- --- ------ ----- ------- ---- -- --- ------- --<br>------- ---------- ------ -- ----- -- ----- -- ---- ------<br>--- ----- --- --- ------ -------- ----- --- ------ ----- --<br>----- ----- ---------- --- --- ------ ------ ---- -- ------<br>------- --- ------ ----- --- ---- ------- -- ---- --- --<br>------- money.,209177.39999997616,209176.60000002384,208721.201,208732,208737.366,209187.248,,55,money.
Item 100,flow.Loop,2_1_1_1,2022-02-15T16:29:07.182Z,,,,,,,,,,,,,,,,,,,,,,,,,,,,,,,24614.01700002383,,completion,,,,,B,,,,,,,,,,,silence,,,,,209177.80000007153,209176.60000002384,184545.558,184552.89999997616,184562.583,209187.248,,,
Question 1,html.Screen,2_1_1_2,2022-02-15T16:29:10.302Z,,,,,,,,,,,,,,,,,,,,,,,,,,,,true,TRUE,,3108.5520000715333,,response,,,,100,B,,,,,,TRUE,click #choice-1,,,,silence,,,,,212297.20000004768,212295.80000007153,209170.992,209177.80000007153,209187.248,212302.815,,,
Question 2,html.Screen,2_1_1_3,2022-02-15T16:29:13.706Z,,,,,,,,,,,,,,,,,,,,,,,,,,,,true,FALSE,,3397.584999976156,,response,,,,100,B,,,,,,FALSE,click #choice-2,,,,silence,,,,,215701.60000002384,215700.39999997616,212286.322,212297.39999997616,212302.815,215732.431,,,
Item 100,flow.Sequence,2_1_1,2022-02-15T16:29:13.707Z,,,,,,,,,,,,,,,,,,,,,,,,,,,,,,,41134.87099997615,,completion,,,,,,,,,,,,,,,,,,,,,215701.89999997616,215700.39999997616,174549.334,174533.10000002384,174565.529,215732.431,,,
End of Practice,html.Page,2_1_2,2022-02-15T16:29:19.204Z,,,,,,,,,,,,,,,,,,,,,,,,,,,,,,,5466.769000047672,,form submission,,,,,,,,,,,,,,,,,,,,,221199.70000004768,221199.20000004768,215685.495,215702,215732.431,221229.687,,,
Practice,flow.Sequence,2_1,2022-02-15T16:29:19.205Z,,,,,,,,,,,,,,,,,,,,,,,,,,,,,,,106296.78100004769,,completion,,,,,,,,,,,,,,,,,,,,,221200.10000002384,221199.20000004768,114885.924,114898.10000002384,114902.419,221229.687,,,
Trap_instruction,html.Page,2_2_0,2022-02-15T16:29:25.227Z,,,,,,,,,,,,,,,,,,,,,,,,,,,,,,,5992.4130000238365,,form submission,,,,,,,,,,,,,,,,,,,,,227222.39999997616,227222.10000002384,221183.565,221200.20000004768,221229.687,227231.109,,,
trap_trial,html.Screen,2_2_1,2022-02-15T16:29:29.263Z,,,,,,,,,,,,,,,,,,,,,,,,,,,,true,1,,4025.691000071529,,response,,,,,,,,,,,1,click #choice-1,,,,,,,,,231258.20000004768,231256.80000007153,227214.794,227222.60000002384,227231.109,231263.103,,,
end of trap trial,html.Page,2_2_2,2022-02-15T16:29:31.903Z,,,,,,,,,,,,,,,,,,,,,,,,,,,,,,,2634.997000023839,,form submission,,,,,,,,,,,,,,,,,,,,,233898.5,233898.10000002384,231246.772,231258.30000007153,231263.103,233912.631,,,
Trap 1,flow.Sequence,2_2,2022-02-15T16:29:31.904Z,,,,,,,,,,,,,,,,,,,,,,,,,,,,,,,12668.413000023837,,completion,,,,,,,,,,,,,,,,,,,,,233898.70000004768,233898.10000002384,221183.565,221200.10000002384,221229.687,233912.631,,,
Standby,html.Page,2_3_0,2022-02-15T16:29:39.899Z,,,,,,,,,,,,,,,,,,,,,,,,,,,,,,,7997.325000000012,,timeout,,,,,,,,,,,,,,,,,,,,,241894,241893.254,233895.87,233898.89999997616,233912.631,241909.956,,,
Holding screen,html.Screen,2_3_1_0_0,2022-02-15T16:29:46.896Z,,,,,,,,,,,,,,,,,,,,,,,,,,,,,,,6997.236000000004,,timeout,,,,,,,,,,,,,,,,,,,,,248891.39999997616,248890.543,241893.254,241894.20000004768,241909.956,248907.192,,,
screen,html.Screen,2_3_1_0_1_0,2022-02-15T16:29:53.894Z,,,,,,,,,,,,,,,,,11,,,,,,,,,,,,,,6998.0779999999795,,timeout,,,,4,B,,,,,,,,,,,lyrical,,,,Known -- ---- --- -- --- -------- ------------ ---------- --<br>- ------- ------ --------- -- ------------ -- --- ---- -----<br>------ ---- ---- ------ ------ ------- --- ----- ---------<br>---- --- -------- -------- --- --- -- ------- --- --- -----<br>-- --- ------ ------- --- --- -------- ---- --------- --<br>---------- -- -------- ----------------,255889.30000007153,255888.551,248890.543,248891.5,248907.192,255905.27,,0,Known
screen,html.Screen,2_3_1_0_1_1,2022-02-15T16:29:54.432Z,,,,,,,,,,,,,,,,,11,,,,,,,,,,,,,,520.530000071536,,response,,,,4,B,,,,,,Space,keypress(Space),,,,lyrical,,,,----- as ---- --- -- --- -------- ------------ ---------- --<br>- ------- ------ --------- -- ------------ -- --- ---- -----<br>------ ---- ---- ------ ------ ------- --- ----- ---------<br>---- --- -------- -------- --- --- -- ------- --- --- -----<br>-- --- ------ ------- --- --- -------- ---- --------- --<br>---------- -- -------- ----------------,256426.70000004768,256425.80000007153,255888.551,255889.5,255905.27,256438.448,,1,as
screen,html.Screen,2_3_1_0_1_2,2022-02-15T16:29:54.944Z,,,,,,,,,,,,,,,,,11,,,,,,,,,,,,,,499.55199999999604,,response,,,,4,B,,,,,,Space,keypress(Space),,,,lyrical,,,,----- -- Rapa --- -- --- -------- ------------ ---------- --<br>- ------- ------ --------- -- ------------ -- --- ---- -----<br>------ ---- ---- ------ ------ ------- --- ----- ---------<br>---- --- -------- -------- --- --- -- ------- --- --- -----<br>-- --- ------ ------- --- --- -------- ---- --------- --<br>---------- -- -------- ----------------,256938.80000007153,256938,256421.692,256426.89999997616,256438.448,256954.77,,2,Rapa
screen,html.Screen,2_3_1_0_1_3,2022-02-15T16:29:55.356Z,,,,,,,,,,,,,,,,,11,,,,,,,,,,,,,,395.7300000000105,,response,,,,4,B,,,,,,Space,keypress(Space),,,,lyrical,,,,----- -- ---- Nui -- --- -------- ------------ ---------- --<br>- ------- ------ --------- -- ------------ -- --- ---- -----<br>------ ---- ---- ------ ------ ------- --- ----- ---------<br>---- --- -------- -------- --- --- -- ------- --- --- -----<br>-- --- ------ ------- --- --- -------- ---- --------- --<br>---------- -- -------- ----------------,257351.39999997616,257350.5,256938.241,256939,256954.77,257354.31,,3,Nui
screen,html.Screen,2_3_1_0_1_4,2022-02-15T16:29:55.770Z,,,,,,,,,,,,,,,,,11,,,,,,,,,,,,,,410.2900000238442,,response,,,,4,B,,,,,,Space,keypress(Space),,,,lyrical,,,,----- -- ---- --- to --- -------- ------------ ---------- --<br>- ------- ------ --------- -- ------------ -- --- ---- -----<br>------ ---- ---- ------ ------ ------- --- ----- ---------<br>---- --- -------- -------- --- --- -- ------- --- --- -----<br>-- --- ------ ------- --- --- -------- ---- --------- --<br>---------- -- -------- ----------------,257765.39999997616,257764.60000002384,257338.129,257351.5,257354.31,257770.811,,4,to
screen,html.Screen,2_3_1_0_1_5,2022-02-15T16:29:56.244Z,,,,,,,,,,,,,,,,,11,,,,,,,,,,,,,,467.4890000715386,,response,,,,4,B,,,,,,Space,keypress(Space),,,,lyrical,,,,----- -- ---- --- -- the -------- ------------ ---------- --<br>- ------- ------ --------- -- ------------ -- --- ---- -----<br>------ ---- ---- ------ ------ ------- --- ----- ---------<br>---- --- -------- -------- --- --- -- ------- --- --- -----<br>-- --- ------ ------- --- --- -------- ---- --------- --<br>---------- -- -------- ----------------,258239.10000002384,258238.30000007153,257754.529,257765.60000002384,257770.811,258254.515,,5,the
screen,html.Screen,2_3_1_0_1_6,2022-02-15T16:29:56.708Z,,,,,,,,,,,,,,,,,11,,,,,,,,,,,,,,448.2850000715116,,response,,,,4,B,,,,,,Space,keypress(Space),,,,lyrical,,,,----- -- ---- --- -- --- island's ------------ ---------- --<br>- ------- ------ --------- -- ------------ -- --- ---- -----<br>------ ---- ---- ------ ------ ------- --- ----- ---------<br>---- --- -------- -------- --- --- -- ------- --- --- -----<br>-- --- ------ ------- --- --- -------- ---- --------- --<br>---------- -- -------- ----------------,258703.70000004768,258702.80000007153,258238.003,258239.30000007153,258254.515,258720.889,,6,island's
screen,html.Screen,2_3_1_0_1_7,2022-02-15T16:29:57.199Z,,,,,,,,,,,,,,,,,11,,,,,,,,,,,,,,472.6110000000044,,response,,,,4,B,,,,,,Space,keypress(Space),,,,lyrical,,,,"----- -- ---- --- -- --- -------- inhabitants, ---------- --<br>- ------- ------ --------- -- ------------ -- --- ---- -----<br>------ ---- ---- ------ ------ ------- --- ----- ---------<br>---- --- -------- -------- --- --- -- ------- --- --- -----<br>-- --- ------ ------- --- --- -------- ---- --------- --<br>---------- -- -------- ----------------",259194.30000007153,259193.5,258703.988,258703.80000007153,258720.889,259203.87,,7,"inhabitants,"
screen,html.Screen,2_3_1_0_1_8,2022-02-15T16:29:57.641Z,,,,,,,,,,,,,,,,,11,,,,,,,,,,,,,,431.7300000238465,,response,,,,4,B,,,,,,Space,keypress(Space),,,,lyrical,,,,----- -- ---- --- -- --- -------- ------------ Rongorongo --<br>- ------- ------ --------- -- ------------ -- --- ---- -----<br>------ ---- ---- ------ ------ ------- --- ----- ---------<br>---- --- -------- -------- --- --- -- ------- --- --- -----<br>-- --- ------ ------- --- --- -------- ---- --------- --<br>---------- -- -------- ----------------,259636.39999997616,259635.60000002384,259187.069,259194.39999997616,259203.87,259653.954,,8,Rongorongo
screen,html.Screen,2_3_1_0_1_9,2022-02-15T16:29:58.069Z,,,,,,,,,,,,,,,,,11,,,,,,,,,,,,,,409.5460000000021,,response,,,,4,B,,,,,,Space,keypress(Space),,,,lyrical,,,,----- -- ---- --- -- --- -------- ------------ ---------- is<br>- ------- ------ --------- -- ------------ -- --- ---- -----<br>------ ---- ---- ------ ------ ------- --- ----- ---------<br>---- --- -------- -------- --- --- -- ------- --- --- -----<br>-- --- ------ ------- --- --- -------- ---- --------- --<br>---------- -- -------- ----------------,260064.39999997616,260063.5,259637.206,259636.60000002384,259653.954,260070.05,,9,is
screen,html.Screen,2_3_1_0_1_10,2022-02-15T16:29:58.494Z,,,,,,,,,,,,,,,,,11,,,,,,,,,,,,,,418.0500000238535,,response,,,,4,B,,,,,,Space,keypress(Space),,,,lyrical,,,,----- -- ---- --- -- --- -------- ------------ ---------- --<br>a ------- ------ --------- -- ------------ -- --- ---- -----<br>------ ---- ---- ------ ------ ------- --- ----- ---------<br>---- --- -------- -------- --- --- -- ------- --- --- -----<br>-- --- ------ ------- --- --- -------- ---- --------- --<br>---------- -- -------- ----------------,260488.80000007153,260488.10000002384,260053.755,260064.5,260070.05,260503.34,,10,a
screen,html.Screen,2_3_1_0_1_11,2022-02-15T16:29:58.990Z,,,,,,,,,,,,,,,,,11,,,,,,,,,,,,,,481.1600000000035,,response,,,,4,B,,,,,,Space,keypress(Space),,,,lyrical,,,,----- -- ---- --- -- --- -------- ------------ ---------- --<br>- writing ------ --------- -- ------------ -- --- ---- -----<br>------ ---- ---- ------ ------ ------- --- ----- ---------<br>---- --- -------- -------- --- --- -- ------- --- --- -----<br>-- --- ------ ------- --- --- -------- ---- --------- --<br>---------- -- -------- ----------------,260985.30000007153,260984.5,260486.968,260488.89999997616,260503.34,261003.896,,11,writing
screen,html.Screen,2_3_1_0_1_12,2022-02-15T16:29:59.432Z,,,,,,,,,,,,,,,,,11,,,,,,,,,,,,,,423.1039999999921,,response,,,,4,B,,,,,,Space,keypress(Space),,,,lyrical,,,,----- -- ---- --- -- --- -------- ------------ ---------- --<br>- ------- system --------- -- ------------ -- --- ---- -----<br>------ ---- ---- ------ ------ ------- --- ----- ---------<br>---- --- -------- -------- --- --- -- ------- --- --- -----<br>-- --- ------ ------- --- --- -------- ---- --------- --<br>---------- -- -------- ----------------,261427.70000004768,261427,260970.134,260985.5,261003.896,261436.332,,12,system
screen,html.Screen,2_3_1_0_1_13,2022-02-15T16:30:00.491Z,,,,,,,,,,,,,,,,,11,,,,,,,,,,,,,,1049.6680000000051,,response,,,,4,B,,,,,,Space,keypress(Space),,,,lyrical,,,,----- -- ---- --- -- --- -------- ------------ ---------- --<br>- ------- ------ comprised -- ------------ -- --- ---- -----<br>------ ---- ---- ------ ------ ------- --- ----- ---------<br>---- --- -------- -------- --- --- -- ------- --- --- -----<br>-- --- ------ ------- --- --- -------- ---- --------- --<br>---------- -- -------- ----------------,262486.8000000715,262486,261420.003,261427.89999997616,261436.332,262502.899,,13,comprised
screen,html.Screen,2_3_1_0_1_14,2022-02-15T16:30:00.894Z,,,,,,,,,,,,,,,,,11,,,,,,,,,,,,,,385.50099997618236,,response,,,,4,B,,,,,,Space,keypress(Space),,,,lyrical,,,,----- -- ---- --- -- --- -------- ------------ ---------- --<br>- ------- ------ --------- of ------------ -- --- ---- -----<br>------ ---- ---- ------ ------ ------- --- ----- ---------<br>---- --- -------- -------- --- --- -- ------- --- --- -----<br>-- --- ------ ------- --- --- -------- ---- --------- --<br>---------- -- -------- ----------------,262889.2000000477,262888.39999997616,262486.415,262487.10000002384,262502.899,262902.863,,14,of
screen,html.Screen,2_3_1_0_1_15,2022-02-15T16:30:01.329Z,,,,,,,,,,,,,,,,,11,,,,,,,,,,,,,,421.23700002382975,,response,,,,4,B,,,,,,Space,keypress(Space),,,,lyrical,,,,----- -- ---- --- -- --- -------- ------------ ---------- --<br>- ------- ------ --------- -- pictographs. -- --- ---- -----<br>------ ---- ---- ------ ------ ------- --- ----- ---------<br>---- --- -------- -------- --- --- -- ------- --- --- -----<br>-- --- ------ ------- --- --- -------- ---- --------- --<br>---------- -- -------- ----------------,263324.89999997616,263324.10000002384,262885.995,262889.39999997616,262902.863,263335.695,,15,pictographs.
screen,html.Screen,2_3_1_0_1_16,2022-02-15T16:30:01.782Z,,,,,,,,,,,,,,,,,11,,,,,,,,,,,,,,441.4050000238349,,response,,,,4,B,,,,,,Space,keypress(Space),,,,lyrical,,,,----- -- ---- --- -- --- -------- ------------ ---------- --<br>- ------- ------ --------- -- ------------ It --- ---- -----<br>------ ---- ---- ------ ------ ------- --- ----- ---------<br>---- --- -------- -------- --- --- -- ------- --- --- -----<br>-- --- ------ ------- --- --- -------- ---- --------- --<br>---------- -- -------- ----------------,263777.8000000715,263777.10000002384,263319.36,263325.10000002384,263335.695,263785.662,,16,It
screen,html.Screen,2_3_1_0_1_17,2022-02-15T16:30:02.182Z,,,,,,,,,,,,,,,,,11,,,,,,,,,,,,,,390.6380000715144,,response,,,,4,B,,,,,,Space,keypress(Space),,,,lyrical,,,,----- -- ---- --- -- --- -------- ------------ ---------- --<br>- ------- ------ --------- -- ------------ -- has ---- -----<br>------ ---- ---- ------ ------ ------- --- ----- ---------<br>---- --- -------- -------- --- --- -- ------- --- --- -----<br>-- --- ------ ------- --- --- -------- ---- --------- --<br>---------- -- -------- ----------------,264177.2000000477,264176.3000000715,263769.039,263778,263785.662,264185.64,,17,has
screen,html.Screen,2_3_1_0_1_18,2022-02-15T16:30:02.571Z,,,,,,,,,,,,,,,,,11,,,,,,,,,,,,,,380.1600000715116,,response,,,,4,B,,,,,,Space,keypress(Space),,,,lyrical,,,,----- -- ---- --- -- --- -------- ------------ ---------- --<br>- ------- ------ --------- -- ------------ -- --- been -----<br>------ ---- ---- ------ ------ ------- --- ----- ---------<br>---- --- -------- -------- --- --- -- ------- --- --- -----<br>-- --- ------ ------- --- --- -------- ---- --------- --<br>---------- -- -------- ----------------,264566.60000002384,264565.8000000715,264168.74,264177.39999997616,264185.64,264568.577,,18,been
screen,html.Screen,2_3_1_0_1_19,2022-02-15T16:30:02.976Z,,,,,,,,,,,,,,,,,11,,,,,,,,,,,,,,402.22300007153535,,response,,,,4,B,,,,,,Space,keypress(Space),,,,lyrical,,,,----- -- ---- --- -- --- -------- ------------ ---------- --<br>- ------- ------ --------- -- ------------ -- --- ---- found<br>------ ---- ---- ------ ------ ------- --- ----- ---------<br>---- --- -------- -------- --- --- -- ------- --- --- -----<br>-- --- ------ ------- --- --- -------- ---- --------- --<br>---------- -- -------- ----------------,264971.5,264970.8000000715,264551.904,264566.7000000477,264568.577,264985.15,,19,found
screen,html.Screen,2_3_1_0_1_20,2022-02-15T16:30:03.425Z,,,,,,,,,,,,,,,,,11,,,,,,,,,,,,,,435.24999997613486,,response,,,,4,B,,,,,,Space,keypress(Space),,,,lyrical,,,,----- -- ---- --- -- --- -------- ------------ ---------- --<br>- ------- ------ --------- -- ------------ -- --- ---- -----<br>carved ---- ---- ------ ------ ------- --- ----- ---------<br>---- --- -------- -------- --- --- -- ------- --- --- -----<br>-- --- ------ ------- --- --- -------- ---- --------- --<br>---------- -- -------- ----------------,265421.10000002384,265420.39999997616,264968.702,264971.7000000477,264985.15,265435.111,,20,carved
screen,html.Screen,2_3_1_0_1_21,2022-02-15T16:30:03.856Z,,,,,,,,,,,,,,,,,11,,,,,,,,,,,,,,416.2889999761828,,response,,,,4,B,,,,,,Space,keypress(Space),,,,lyrical,,,,----- -- ---- --- -- --- -------- ------------ ---------- --<br>- ------- ------ --------- -- ------------ -- --- ---- -----<br>------ into ---- ------ ------ ------- --- ----- ---------<br>---- --- -------- -------- --- --- -- ------- --- --- -----<br>-- --- ------ ------- --- --- -------- ---- --------- --<br>---------- -- -------- ----------------,265852.10000002384,265851.39999997616,265418.694,265421.2000000477,265435.111,265868.246,,21,into
screen,html.Screen,2_3_1_0_1_22,2022-02-15T16:30:04.306Z,,,,,,,,,,,,,,,,,11,,,,,,,,,,,,,,432.8540000238572,,response,,,,4,B,,,,,,Space,keypress(Space),,,,lyrical,,,,----- -- ---- --- -- --- -------- ------------ ---------- --<br>- ------- ------ --------- -- ------------ -- --- ---- -----<br>------ ---- many ------ ------ ------- --- ----- ---------<br>---- --- -------- -------- --- --- -- ------- --- --- -----<br>-- --- ------ ------- --- --- -------- ---- --------- --<br>---------- -- -------- ----------------,266302,266301.10000002384,265851.523,265852.3000000715,265868.246,266318.099,,22,many
screen,html.Screen,2_3_1_0_1_23,2022-02-15T16:30:04.808Z,,,,,,,,,,,,,,,,,11,,,,,,,,,,,,,,485.3009999761707,,response,,,,4,B,,,,,,Space,keypress(Space),,,,lyrical,,,,----- -- ---- --- -- --- -------- ------------ ---------- --<br>- ------- ------ --------- -- ------------ -- --- ---- -----<br>------ ---- ---- oblong ------ ------- --- ----- ---------<br>---- --- -------- -------- --- --- -- ------- --- --- -----<br>-- --- ------ ------- --- --- -------- ---- --------- --<br>---------- -- -------- ----------------,266804.2000000477,266803.39999997616,266301.677,266302.10000002384,266318.099,266818.299,,23,oblong
screen,html.Screen,2_3_1_0_1_24,2022-02-15T16:30:05.216Z,,,,,,,,,,,,,,,,,11,,,,,,,,,,,,,,392.6009999761591,,response,,,,4,B,,,,,,Space,keypress(Space),,,,lyrical,,,,----- -- ---- --- -- --- -------- ------------ ---------- --<br>- ------- ------ --------- -- ------------ -- --- ---- -----<br>------ ---- ---- ------ wooden ------- --- ----- ---------<br>---- --- -------- -------- --- --- -- ------- --- --- -----<br>-- --- ------ ------- --- --- -------- ---- --------- --<br>---------- -- -------- ----------------,267211.7000000477,267210.89999997616,266801.507,266804.3000000715,266818.299,267217.674,,24,wooden
screen,html.Screen,2_3_1_0_1_25,2022-02-15T16:30:05.633Z,,,,,,,,,,,,,,,,,11,,,,,,,,,,,,,,410.6260000715265,,response,,,,4,B,,,,,,Space,keypress(Space),,,,lyrical,,,,----- -- ---- --- -- --- -------- ------------ ---------- --<br>- ------- ------ --------- -- ------------ -- --- ---- -----<br>------ ---- ---- ------ ------ tablets --- ----- ---------<br>---- --- -------- -------- --- --- -- ------- --- --- -----<br>-- --- ------ ------- --- --- -------- ---- --------- --<br>---------- -- -------- ----------------,267629.10000002384,267628.3000000715,267201.379,267211.89999997616,267217.674,267634.233,,25,tablets
screen,html.Screen,2_3_1_0_1_26,2022-02-15T16:30:06.022Z,,,,,,,,,,,,,,,,,11,,,,,,,,,,,,,,383.1669999761507,,response,,,,4,B,,,,,,Space,keypress(Space),,,,lyrical,,,,----- -- ---- --- -- --- -------- ------------ ---------- --<br>- ------- ------ --------- -- ------------ -- --- ---- -----<br>------ ---- ---- ------ ------ ------- and ----- ---------<br>---- --- -------- -------- --- --- -- ------- --- --- -----<br>-- --- ------ ------- --- --- -------- ---- --------- --<br>---------- -- -------- ----------------,268018.10000002384,268017.39999997616,267617.9,267629.3000000715,267634.233,268034.545,,26,and
screen,html.Screen,2_3_1_0_1_27,2022-02-15T16:30:06.458Z,,,,,,,,,,,,,,,,,11,,,,,,,,,,,,,,418.35499997617444,,response,,,,4,B,,,,,,Space,keypress(Space),,,,lyrical,,,,----- -- ---- --- -- --- -------- ------------ ---------- --<br>- ------- ------ --------- -- ------------ -- --- ---- -----<br>------ ---- ---- ------ ------ ------- --- other ---------<br>---- --- -------- -------- --- --- -- ------- --- --- -----<br>-- --- ------ ------- --- --- -------- ---- --------- --<br>---------- -- -------- ----------------,268453.7000000477,268452.89999997616,268017.657,268018.2000000477,268034.545,268467.445,,27,other
screen,html.Screen,2_3_1_0_1_28,2022-02-15T16:30:06.926Z,,,,,,,,,,,,,,,,,11,,,,,,,,,,,,,,453.75500004767673,,response,,,,4,B,,,,,,Space,keypress(Space),,,,lyrical,,,,----- -- ---- --- -- --- -------- ------------ ---------- --<br>- ------- ------ --------- -- ------------ -- --- ---- -----<br>------ ---- ---- ------ ------ ------- --- ----- artifacts<br>---- --- -------- -------- --- --- -- ------- --- --- -----<br>-- --- ------ ------- --- --- -------- ---- --------- --<br>---------- -- -------- ----------------,268921.89999997616,268921.2000000477,268450.955,268453.89999997616,268467.445,268934.143,,28,artifacts
screen,html.Screen,2_3_1_0_1_29,2022-02-15T16:30:07.382Z,,,,,,,,,,,,,,,,,11,,,,,,,,,,,,,,442.7569999761763,,response,,,,4,B,,,,,,Space,keypress(Space),,,,lyrical,,,,----- -- ---- --- -- --- -------- ------------ ---------- --<br>- ------- ------ --------- -- ------------ -- --- ---- -----<br>------ ---- ---- ------ ------ ------- --- ----- ---------<br>from --- -------- -------- --- --- -- ------- --- --- -----<br>-- --- ------ ------- --- --- -------- ---- --------- --<br>---------- -- -------- ----------------,269377.7000000477,269376.89999997616,268917.116,268922.2000000477,268934.143,269383.651,,29,from
screen,html.Screen,2_3_1_0_1_30,2022-02-15T16:30:07.857Z,,,,,,,,,,,,,,,,,11,,,,,,,,,,,,,,468.649000071513,,response,,,,4,B,,,,,,Space,keypress(Space),,,,lyrical,,,,----- -- ---- --- -- --- -------- ------------ ---------- --<br>- ------- ------ --------- -- ------------ -- --- ---- -----<br>------ ---- ---- ------ ------ ------- --- ----- ---------<br>---- the -------- -------- --- --- -- ------- --- --- -----<br>-- --- ------ ------- --- --- -------- ---- --------- --<br>---------- -- -------- ----------------,269853.2000000477,269852.3000000715,269366.894,269377.89999997616,269383.651,269866.999,,30,the
screen,html.Screen,2_3_1_0_1_31,2022-02-15T16:30:08.333Z,,,,,,,,,,,,,,,,,11,,,,,,,,,,,,,,461.40099997614743,,response,,,,4,B,,,,,,Space,keypress(Space),,,,lyrical,,,,----- -- ---- --- -- --- -------- ------------ ---------- --<br>- ------- ------ --------- -- ------------ -- --- ---- -----<br>------ ---- ---- ------ ------ ------- --- ----- ---------<br>---- --- island's -------- --- --- -- ------- --- --- -----<br>-- --- ------ ------- --- --- -------- ---- --------- --<br>---------- -- -------- ----------------,270329.10000002384,270328.39999997616,269850.408,269853.3000000715,269866.999,270333.251,,31,island's
screen,html.Screen,2_3_1_0_1_32,2022-02-15T16:30:08.795Z,,,,,,,,,,,,,,,,,11,,,,,,,,,,,,,,456.2490000000107,,response,,,,4,B,,,,,,Space,keypress(Space),,,,lyrical,,,,----- -- ---- --- -- --- -------- ------------ ---------- --<br>- ------- ------ --------- -- ------------ -- --- ---- -----<br>------ ---- ---- ------ ------ ------- --- ----- ---------<br>---- --- -------- history. --- --- -- ------- --- --- -----<br>-- --- ------ ------- --- --- -------- ---- --------- --<br>---------- -- -------- ----------------,270790.3000000715,270789.5,270316.62,270329.3000000715,270333.251,270800.138,,32,history.
screen,html.Screen,2_3_1_0_1_33,2022-02-15T16:30:09.234Z,,,,,,,,,,,,,,,,,11,,,,,,,,,,,,,,429.26199997618096,,response,,,,4,B,,,,,,Space,keypress(Space),,,,lyrical,,,,----- -- ---- --- -- --- -------- ------------ ---------- --<br>- ------- ------ --------- -- ------------ -- --- ---- -----<br>------ ---- ---- ------ ------ ------- --- ----- ---------<br>---- --- -------- -------- The --- -- ------- --- --- -----<br>-- --- ------ ------- --- --- -------- ---- --------- --<br>---------- -- -------- ----------------,271230.10000002384,271229.39999997616,270783.549,270790.39999997616,270800.138,271265.584,,33,The
screen,html.Screen,2_3_1_0_1_34,2022-02-15T16:30:09.657Z,,,,,,,,,,,,,,,,,11,,,,,,,,,,,,,,386.11600004771026,,response,,,,4,B,,,,,,Space,keypress(Space),,,,lyrical,,,,----- -- ---- --- -- --- -------- ------------ ---------- --<br>- ------- ------ --------- -- ------------ -- --- ---- -----<br>------ ---- ---- ------ ------ ------- --- ----- ---------<br>---- --- -------- -------- --- art -- ------- --- --- -----<br>-- --- ------ ------- --- --- -------- ---- --------- --<br>---------- -- -------- ----------------,271652.60000002384,271651.7000000477,271216.706,271230.3000000715,271265.584,271666.77,,34,art
screen,html.Screen,2_3_1_0_1_35,2022-02-15T16:30:10.035Z,,,,,,,,,,,,,,,,,11,,,,,,,,,,,,,,362.83000002382323,,response,,,,4,B,,,,,,Space,keypress(Space),,,,lyrical,,,,----- -- ---- --- -- --- -------- ------------ ---------- --<br>- ------- ------ --------- -- ------------ -- --- ---- -----<br>------ ---- ---- ------ ------ ------- --- ----- ---------<br>---- --- -------- -------- --- --- of ------- --- --- -----<br>-- --- ------ ------- --- --- -------- ---- --------- --<br>---------- -- -------- ----------------,272030.5,272029.60000002384,271651.734,271652.8000000715,271666.77,272032.738,,35,of
screen,html.Screen,2_3_1_0_1_36,2022-02-15T16:30:10.321Z,,,,,,,,,,,,,,,,,11,,,,,,,,,,,,,,282.4620000476716,,response,,,,4,B,,,,,,Space,keypress(Space),,,,lyrical,,,,----- -- ---- --- -- --- -------- ------------ ---------- --<br>- ------- ------ --------- -- ------------ -- --- ---- -----<br>------ ---- ---- ------ ------ ------- --- ----- ---------<br>---- --- -------- -------- --- --- -- writing --- --- -----<br>-- --- ------ ------- --- --- -------- ---- --------- --<br>---------- -- -------- ----------------,272316.3000000715,272315.2000000477,272016.321,272030.60000002384,272032.738,272332.833,,36,writing
screen,html.Screen,2_3_1_0_1_37,2022-02-15T16:30:10.719Z,,,,,,,,,,,,,,,,,11,,,,,,,,,,,,,,380.7670000238577,,response,,,,4,B,,,,,,Space,keypress(Space),,,,lyrical,,,,----- -- ---- --- -- --- -------- ------------ ---------- --<br>- ------- ------ --------- -- ------------ -- --- ---- -----<br>------ ---- ---- ------ ------ ------- --- ----- ---------<br>---- --- -------- -------- --- --- -- ------- was --- -----<br>-- --- ------ ------- --- --- -------- ---- --------- --<br>---------- -- -------- ----------------,272714.39999997616,272713.60000002384,272316.309,272316.5,272332.833,272735.877,,37,was
screen,html.Screen,2_3_1_0_1_38,2022-02-15T16:30:11.498Z,,,,,,,,,,,,,,,,,11,,,,,,,,,,,,,,757.423000071547,,response,,,,4,B,,,,,,Space,keypress(Space),,,,lyrical,,,,----- -- ---- --- -- --- -------- ------------ ---------- --<br>- ------- ------ --------- -- ------------ -- --- ---- -----<br>------ ---- ---- ------ ------ ------- --- ----- ---------<br>---- --- -------- -------- --- --- -- ------- --- not -----<br>-- --- ------ ------- --- --- -------- ---- --------- --<br>---------- -- -------- ----------------,273494,273493.3000000715,272699.433,272714.60000002384,272735.877,273498.889,,38,not
screen,html.Screen,2_3_1_0_1_39,2022-02-15T16:30:12.048Z,,,,,,,,,,,,,,,,,11,,,,,,,,,,,,,,543.9110000715009,,response,,,,4,B,,,,,,Space,keypress(Space),,,,lyrical,,,,----- -- ---- --- -- --- -------- ------------ ---------- --<br>- ------- ------ --------- -- ------------ -- --- ---- -----<br>------ ---- ---- ------ ------ ------- --- ----- ---------<br>---- --- -------- -------- --- --- -- ------- --- --- known<br>-- --- ------ ------- --- --- -------- ---- --------- --<br>---------- -- -------- ----------------,274043.60000002384,274042.8000000715,273482.454,273494.3000000715,273498.889,274048.676,,39,known
