sender,sender_type,sender_id,timestamp,meta,,Blues,Classical,Country,Dance,Electronic,Folk,Gospel,Hip-Hop,Jazz,Latin,Musical/Film,New-age,Pop,Prolific_id,Provo_ID,R&B,Rap,Reggae,Religious,Rock,Soul,Swing,Traditional,age,artist_name,correct,correctResponse,distraction,duration,education,ended_on,familiarity,gender,headphone_check_performance,item,list,music_frequency,offensiveness,pleasantness,position_correct,preference,response,response_action,snippet_file,song_name,song_rating,sound,stimulus_1,stimulus_2,stimulus_3,text,time_commit,time_end,time_render,time_run,time_show,time_switch,url,word,word_ID
Prolific ID,html.Form,0,2022-02-15T14:06:45.613Z,"{""labjs_version"":""20.2.2"",""labjs_build"":{""flavor"":""production"",""commit"":""a25486e0c714a0ae2ce03ff94b7bb6896854dcfa""},""location"":""https://run.pavlovia.org/mvasilev/prolific2_music_f/"",""userAgent"":""Mozilla/5.0 (Windows NT 10.0; Win64; x64) AppleWebKit/537.36 (KHTML, like Gecko) Chrome/98.0.4758.82 Safari/537.36"",""platform"":""Win32"",""language"":""en-GB"",""locale"":""en-GB"",""timeZone"":""Europe/London"",""timezoneOffset"":0,""screen_width"":1366,""screen_height"":768,""scroll_width"":2732,""scroll_height"":1266,""window_innerWidth"":2732,""window_innerHeight"":1314,""devicePixelRatio"":0.5}",,,,,,,,,,,,,,,56bbad070b36c4000b4d4ef9,,,,,,,,,,,,,,,13010.077999994039,,form submission,,,,,,,,,,,,,,,,,,,,,44187,44185.59999999404,31042.194,31052.40000000596,31175.522,44257.544,{},,
Introduction,html.Screen,1_0,2022-02-15T14:06:59.240Z,,,,,,,,,,,,,,,,,,,,,,,,,,,,,,,13552.055999994038,,response,,,,,,,,,,,continue,click button,,,,,,,,,57813.59999999404,57809.59999999404,44174.214,44187.80000001192,44257.544,57823.115,,,
Volume calibration,html.Screen,1_1,2022-02-15T14:07:22.605Z,,,,,,,,,,,,,,,,,,,,,,,,,,,,,,,23350.185000011923,,response,,,,,,,,,,,continue,click button,,,,,,,,,81178.40000000596,81173.30000001192,57806.449,57814,57823.115,81187.785,,,
Task instructions,html.Screen,1_2,2022-02-15T14:07:33.164Z,,,,,,,,,,,,,,,,,,,,,,,,,,,,,,,10548.515000011917,,response,,,,,,,,,,,continue,click button,,,,,,,,,91737.80000001192,91736.30000001192,81171.119,81178.69999998808,81187.785,91737.539,,,
Sounds,html.Screen,1_3_0_0,2022-02-15T14:07:37.401Z,,,,,,,,,,,,,,,,,,,,,,,,,,,,,,,4249.138999999996,,timeout,,,,,,,,,1,,,,,,,,S,O,I,,95974.40000000596,95970.012,91720.873,91738.30000001192,91737.539,95986.678,,,
Judgement,html.Screen,1_3_0_1,2022-02-15T14:07:39.232Z,,,,,,,,,,,,,,,,,,,,,,,,,,,,true,1,,1817.622000011921,,response,,,,,,,,,1,,1,click #choice-1,,,,,S,O,I,,97806.19999998808,97804.30000001192,95970.012,95974.59999999404,95986.678,97819.722,,,
Trial,flow.Sequence,1_3_0,2022-02-15T14:07:39.233Z,,,,,,,,,,,,,,,,,,,,,,,,,,,,,,,6066.761000011917,,completion,,,,,,,,,1,,,,,,,,S,O,I,,97806.80000001192,97804.30000001192,91720.873,91738.19999998808,91737.539,97819.722,,,
Sounds,html.Screen,1_3_1_0,2022-02-15T14:07:43.482Z,,,,,,,,,,,,,,,,,,,,,,,,,,,,,,,4249.8110000000015,,timeout,,,,,,,,,3,,,,,,,,O,I,S,,102055.5,102052.867,97803.056,97807.40000000596,97819.722,102069.533,,,
Judgement,html.Screen,1_3_1_1,2022-02-15T14:07:44.278Z,,,,,,,,,,,,,,,,,,,,,,,,,,,,true,3,,778.6669999880833,,response,,,,,,,,,3,,3,click #choice-3,,,,,O,I,S,,102852.09999999404,102848.19999998808,102052.867,102055.69999998808,102069.533,102852.637,,,
Trial,flow.Sequence,1_3_1,2022-02-15T14:07:44.281Z,,,,,,,,,,,,,,,,,,,,,,,,,,,,,,,5028.477999988085,,completion,,,,,,,,,3,,,,,,,,O,I,S,,102854.90000000596,102848.19999998808,97803.056,97807,97819.722,102852.637,,,
Sounds,html.Screen,1_3_2_0,2022-02-15T14:07:48.515Z,,,,,,,,,,,,,,,,,,,,,,,,,,,,,,,4249.815000000002,,timeout,,,,,,,,,1,,,,,,,,S,I,O,,107088.5,107085.786,102835.971,102855.30000001192,102852.637,107102.452,,,
Judgement,html.Screen,1_3_2_1,2022-02-15T14:07:49.397Z,,,,,,,,,,,,,,,,,,,,,,,,,,,,true,1,,866.4480000059557,,response,,,,,,,,,1,,1,click #choice-1,,,,,S,I,O,,107970.80000001192,107968.90000000596,107085.786,107088.69999998808,107102.452,107985.567,,,
Trial,flow.Sequence,1_3_2,2022-02-15T14:07:49.398Z,,,,,,,,,,,,,,,,,,,,,,,,,,,,,,,5116.263000005958,,completion,,,,,,,,,1,,,,,,,,S,I,O,,107971.40000000596,107968.90000000596,102835.971,102855.19999998808,102852.637,107985.567,,,
Sounds,html.Screen,1_3_3_0,2022-02-15T14:07:53.647Z,,,,,,,,,,,,,,,,,,,,,,,,,,,,,,,4250.0060000000085,,timeout,,,,,,,,,3,,,,,,,,I,O,S,,112220.80000001192,112218.907,107968.901,107971.80000001192,107985.567,112235.573,,,
Judgement,html.Screen,1_3_3_1,2022-02-15T14:07:54.302Z,,,,,,,,,,,,,,,,,,,,,,,,,,,,true,3,,637.1269999880751,,response,,,,,,,,,3,,3,click #choice-3,,,,,I,O,S,,112875.69999998808,112872.69999998808,112218.907,112221.09999999404,112235.573,112885.141,,,
Trial,flow.Sequence,1_3_3,2022-02-15T14:07:54.302Z,,,,,,,,,,,,,,,,,,,,,,,,,,,,,,,4887.132999988084,,completion,,,,,,,,,3,,,,,,,,I,O,S,,112876,112872.69999998808,107968.901,107971.59999999404,107985.567,112885.141,,,
Sounds,html.Screen,1_3_4_0,2022-02-15T14:07:58.547Z,,,,,,,,,,,,,,,,,,,,,,,,,,,,,,,4249.790999999997,,timeout,,,,,,,,,2,,,,,,,,I,S,O,,117120.69999998808,117118.266,112868.475,112876.19999998808,112885.141,117134.932,,,
Judgement,html.Screen,1_3_4_1,2022-02-15T14:07:59.235Z,,,,,,,,,,,,,,,,,,,,,,,,,,,,true,2,,672.1679999940388,,response,,,,,,,,,2,,2,click #choice-2,,,,,I,S,O,,117808.59999999404,117807.09999999404,117118.266,117120.90000000596,117134.932,117818.041,,,
Trial,flow.Sequence,1_3_4,2022-02-15T14:07:59.235Z,,,,,,,,,,,,,,,,,,,,,,,,,,,,,,,4921.958999994036,,completion,,,,,,,,,2,,,,,,,,I,S,O,,117809.09999999404,117807.09999999404,112868.475,112876.09999999404,112885.141,117818.041,,,
Sounds,html.Screen,1_3_5_0,2022-02-15T14:08:03.479Z,,,,,,,,,,,,,,,,,,,,,,,,,,,,,,,4249.819000000003,,timeout,,,,,,,,,2,,,,,,,,O,S,I,,122052.80000001192,122051.194,117801.375,117809.30000001192,117818.041,122067.86,,,
Judgement,html.Screen,1_3_5_1,2022-02-15T14:08:04.240Z,,,,,,,,,,,,,,,,,,,,,,,,,,,,true,2,,741.0400000059599,,response,,,,,,,,,2,,2,click #choice-2,,,,,O,S,I,,122813.40000000596,122808.90000000596,122051.194,122053,122067.86,122817.75,,,
Trial,flow.Sequence,1_3_5,2022-02-15T14:08:04.240Z,,,,,,,,,,,,,,,,,,,,,,,,,,,,,,,4990.859000005963,,completion,,,,,,,,,2,,,,,,,,O,S,I,,122813.80000001192,122808.90000000596,117801.375,117809.19999998808,117818.041,122817.75,,,
Task,flow.Loop,1_3,2022-02-15T14:08:04.249Z,,,,,,,,,,,,,,,,,,,,,,,,,,,,,,,31071.361000005956,,completion,,,1,,,,,,,,,,,,,,,,,,122822.30000001192,122808.90000000596,91720.873,91738.19999998808,91737.539,122817.75,,,
Trap,html.Screen,1_4,2022-02-15T14:08:04.252Z,,,,,,,,,,,,,,,,,,,,,,,,,,,,,,,NaN,,skipped,,,,,,,,,,,,,,,,,,,,,122825.5,122808.90000000596,,122825.09999999404,,122817.75,,,
Thanks,html.Screen,1_5,2022-02-15T14:08:07.916Z,,,,,,,,,,,,,,,,,,,,,,,,,,,,,,,3670.25,,response,,,,,,,,,,,continue,click button,,,,,,,,,126489.30000001192,126488,122801.084,122825.80000001192,122817.75,132967.05,,,
Headphone screening,flow.Sequence,1,2022-02-15T14:08:07.916Z,,,,,,,,,,,,,,,,,,,,,,,,,,,,,,,82230.456,,completion,,,,,,,,,,,,,,,,,,,,,126489.59999999404,126488,44174.214,44187.69999998808,44257.544,132967.05,,,
Instructions,html.Page,2_0,2022-02-15T14:08:39.331Z,,,,,,,,,,,,,,,,,,,,,,,,,,,,,,,24937.14999998809,,form submission,,,,,,,,,,,,,,,,,,,,,157904.90000000596,157904.19999998808,132950.384,132960.59999999404,132967.05,157914.701,,,
Holding screen,html.Screen,2_1_0_0,2022-02-15T14:08:49.324Z,,,,,,,,,,,,,,,,,,,,,,,,,,,,,,,10132.529999999999,,timeout,,,,,,,,,,,,,,,,,,,,,167898.5,167897.237,157898.035,157905.30000001192,157914.701,168047.231,,,
screen,html.Screen,2_1_0_1_0,2022-02-15T14:08:51.194Z,,,,,,,,,,,,,,,,,53,,,,,,,,,,,,,,1717.4689999880793,,response,,,,99,,,,,,,Space,keypress(Space),,,,,,,,When -- ----- -- ------ - ------- --- ----------<br>------------- ------ ------ ---- ---- ------- ----- -- ----<br>-------- ------- -- ---------- --- - --- ----- ----- ----<br>---- --- --- ----- --- ---- ---- ------- ----- ---- -------<br>--- --- -- ----- -- --- ---- -- --- ---- -- ------ ------<br>--- ----- -- ----,169768.59999999404,169764.69999998808,167897.237,167898.80000001192,168047.231,169780.456,,0,When
screen,html.Screen,2_1_0_1_1,2022-02-15T14:08:52.243Z,,,,,,,,,,,,,,,,,53,,,,,,,,,,,,,,1035.5439999999944,,response,,,,99,,,,,,,Space,keypress(Space),,,,,,,,---- it ----- -- ------ - ------- --- ----------<br>------------- ------ ------ ---- ---- ------- ----- -- ----<br>-------- ------- -- ---------- --- - --- ----- ----- ----<br>---- --- --- ----- --- ---- ---- ------- ----- ---- -------<br>--- --- -- ----- -- --- ---- -- --- ---- -- ------ ------<br>--- ----- -- ----,170816.90000000596,170816,169763.79,169769,169780.456,170830.368,,1,it
screen,html.Screen,2_1_0_1_2,2022-02-15T14:08:53.227Z,,,,,,,,,,,,,,,,,53,,,,,,,,,,,,,,969.5320000059728,,response,,,,99,,,,,,,Space,keypress(Space),,,,,,,,---- -- comes -- ------ - ------- --- ----------<br>------------- ------ ------ ---- ---- ------- ----- -- ----<br>-------- ------- -- ---------- --- - --- ----- ----- ----<br>---- --- --- ----- --- ---- ---- ------- ----- ---- -------<br>--- --- -- ----- -- --- ---- -- --- ---- -- ------ ------<br>--- ----- -- ----,171800.90000000596,171799.90000000596,170813.702,170817.09999999404,170830.368,171813.586,,2,comes
screen,html.Screen,2_1_0_1_3,2022-02-15T14:08:54.164Z,,,,,,,,,,,,,,,,,53,,,,,,,,,,,,,,924.0139999940293,,response,,,,99,,,,,,,Space,keypress(Space),,,,,,,,---- -- ----- to ------ - ------- --- ----------<br>------------- ------ ------ ---- ---- ------- ----- -- ----<br>-------- ------- -- ---------- --- - --- ----- ----- ----<br>---- --- --- ----- --- ---- ---- ------- ----- ---- -------<br>--- --- -- ----- -- --- ---- -- --- ---- -- ------ ------<br>--- ----- -- ----,172738.5,172737.59999999404,171796.92,171802.19999998808,171813.586,172746.856,,3,to
screen,html.Screen,2_1_0_1_4,2022-02-15T14:08:55.205Z,,,,,,,,,,,,,,,,,53,,,,,,,,,,,,,,1004.9440000119212,,response,,,,99,,,,,,,Space,keypress(Space),,,,,,,,---- -- ----- -- having - ------- --- ----------<br>------------- ------ ------ ---- ---- ------- ----- -- ----<br>-------- ------- -- ---------- --- - --- ----- ----- ----<br>---- --- --- ----- --- ---- ---- ------- ----- ---- -------<br>--- --- -- ----- -- --- ---- -- --- ---- -- ------ ------<br>--- ----- -- ----,173778.69999998808,173751.80000001192,172730.19,172738.69999998808,172746.856,173780.123,,4,having
screen,html.Screen,2_1_0_1_5,2022-02-15T14:08:56.146Z,,,,,,,,,,,,,,,,,53,,,,,,,,,,,,,,938.9769999940472,,response,,,,99,,,,,,,Space,keypress(Space),,,,,,,,---- -- ----- -- ------ a ------- --- ----------<br>------------- ------ ------ ---- ---- ------- ----- -- ----<br>-------- ------- -- ---------- --- - --- ----- ----- ----<br>---- --- --- ----- --- ---- ---- ------- ----- ---- -------<br>--- --- -- ----- -- --- ---- -- --- ---- -- ------ ------<br>--- ----- -- ----,174720,174719.09999999404,173763.457,173779,173780.123,174730.101,,5,a
screen,html.Screen,2_1_0_1_6,2022-02-15T14:08:57.038Z,,,,,,,,,,,,,,,,,53,,,,,,,,,,,,,,881.3990000000049,,response,,,,99,,,,,,,Space,keypress(Space),,,,,,,,---- -- ----- -- ------ - lasting --- ----------<br>------------- ------ ------ ---- ---- ------- ----- -- ----<br>-------- ------- -- ---------- --- - --- ----- ----- ----<br>---- --- --- ----- --- ---- ---- ------- ----- ---- -------<br>--- --- -- ----- -- --- ---- -- --- ---- -- ------ ------<br>--- ----- -- ----,175612.40000000596,175611.5,174713.435,174720.19999998808,174730.101,175613.261,,6,lasting
screen,html.Screen,2_1_0_1_7,2022-02-15T14:08:58.079Z,,,,,,,,,,,,,,,,,53,,,,,,,,,,,,,,1039.338999994041,,response,,,,99,,,,,,,Space,keypress(Space),,,,,,,,---- -- ----- -- ------ - ------- and ----------<br>------------- ------ ------ ---- ---- ------- ----- -- ----<br>-------- ------- -- ---------- --- - --- ----- ----- ----<br>---- --- --- ----- --- ---- ---- ------- ----- ---- -------<br>--- --- -- ----- -- --- ---- -- --- ---- -- ------ ------<br>--- ----- -- ----,176653.5,176652.59999999404,175596.595,175612.59999999404,175613.261,176663.219,,7,and
screen,html.Screen,2_1_0_1_8,2022-02-15T14:08:59.088Z,,,,,,,,,,,,,,,,,53,,,,,,,,,,,,,,997.9809999880672,,response,,,,99,,,,,,,Space,keypress(Space),,,,,,,,---- -- ----- -- ------ - ------- --- fulfilling<br>------------- ------ ------ ---- ---- ------- ----- -- ----<br>-------- ------- -- ---------- --- - --- ----- ----- ----<br>---- --- --- ----- --- ---- ---- ------- ----- ---- -------<br>--- --- -- ----- -- --- ---- -- --- ---- -- ------ ------<br>--- ----- -- ----,177662.09999999404,177661.19999998808,176646.553,176653.69999998808,176663.219,177663.11,,8,fulfilling
screen,html.Screen,2_1_0_1_9,2022-02-15T14:09:00.482Z,,,,,,,,,,,,,,,,,53,,,,,,,,,,,,,,1392.089999988093,,response,,,,99,,,,,,,Space,keypress(Space),,,,,,,,"---- -- ----- -- ------ - ------- --- ----------<br>relationship, ------ ------ ---- ---- ------- ----- -- ----<br>-------- ------- -- ---------- --- - --- ----- ----- ----<br>---- --- --- ----- --- ---- ---- ------- ----- ---- -------<br>--- --- -- ----- -- --- ---- -- --- ---- -- ------ ------<br>--- ----- -- ----",179056.09999999404,179055.19999998808,177646.444,177662.30000001192,177663.11,179063.014,,9,"relationship,"
screen,html.Screen,2_1_0_1_10,2022-02-15T14:09:01.538Z,,,,,,,,,,,,,,,,,53,,,,,,,,,,,,,,1048.585999994044,,response,,,,99,,,,,,,Space,keypress(Space),,,,,,,,---- -- ----- -- ------ - ------- --- ----------<br>------------- common ------ ---- ---- ------- ----- -- ----<br>-------- ------- -- ---------- --- - --- ----- ----- ----<br>---- --- --- ----- --- ---- ---- ------- ----- ---- -------<br>--- --- -- ----- -- --- ---- -- --- ---- -- ------ ------<br>--- ----- -- ----,180112.40000000596,180111.59999999404,179046.348,179056.19999998808,179063.014,180129.563,,10,common
screen,html.Screen,2_1_0_1_11,2022-02-15T14:09:02.694Z,,,,,,,,,,,,,,,,,53,,,,,,,,,,,,,,1128.8370000059658,,response,,,,99,,,,,,,Space,keypress(Space),,,,,,,,---- -- ----- -- ------ - ------- --- ----------<br>------------- ------ wisdom ---- ---- ------- ----- -- ----<br>-------- ------- -- ---------- --- - --- ----- ----- ----<br>---- --- --- ----- --- ---- ---- ------- ----- ---- -------<br>--- --- -- ----- -- --- ---- -- --- ---- -- ------ ------<br>--- ----- -- ----,181268.30000001192,181258.40000000596,180112.897,180112.69999998808,180129.563,181279.44,,11,wisdom
screen,html.Screen,2_1_0_1_12,2022-02-15T14:09:03.896Z,,,,,,,,,,,,,,,,,53,,,,,,,,,,,,,,1189.6599999940372,,response,,,,99,,,,,,,Space,keypress(Space),,,,,,,,---- -- ----- -- ------ - ------- --- ----------<br>------------- ------ ------ says ---- ------- ----- -- ----<br>-------- ------- -- ---------- --- - --- ----- ----- ----<br>---- --- --- ----- --- ---- ---- ------- ----- ---- -------<br>--- --- -- ----- -- --- ---- -- --- ---- -- ------ ------<br>--- ----- -- ----,182470,182469.09999999404,181262.774,181268.59999999404,181279.44,182479.36,,12,says
screen,html.Screen,2_1_0_1_13,2022-02-15T14:09:05.237Z,,,,,,,,,,,,,,,,,53,,,,,,,,,,,,,,1331.339999988093,,response,,,,99,,,,,,,Space,keypress(Space),,,,,,,,---- -- ----- -- ------ - ------- --- ----------<br>------------- ------ ------ ---- that ------- ----- -- ----<br>-------- ------- -- ---------- --- - --- ----- ----- ----<br>---- --- --- ----- --- ---- ---- ------- ----- ---- -------<br>--- --- -- ----- -- --- ---- -- --- ---- -- ------ ------<br>--- ----- -- ----,183811.5,183810.69999998808,182462.694,182470.19999998808,182479.36,183812.6,,13,that
screen,html.Screen,2_1_0_1_14,2022-02-15T14:09:06.355Z,,,,,,,,,,,,,,,,,53,,,,,,,,,,,,,,1115.5999999880733,,response,,,,99,,,,,,,Space,keypress(Space),,,,,,,,---- -- ----- -- ------ - ------- --- ----------<br>------------- ------ ------ ---- ---- feeling ----- -- ----<br>-------- ------- -- ---------- --- - --- ----- ----- ----<br>---- --- --- ----- --- ---- ---- ------- ----- ---- -------<br>--- --- -- ----- -- --- ---- -- --- ---- -- ------ ------<br>--- ----- -- ----,184929,184928.19999998808,183795.934,183811.69999998808,183812.6,184945.878,,14,feeling
screen,html.Screen,2_1_0_1_15,2022-02-15T14:09:07.346Z,,,,,,,,,,,,,,,,,53,,,,,,,,,,,,,,972.922000011924,,response,,,,99,,,,,,,Space,keypress(Space),,,,,,,,---- -- ----- -- ------ - ------- --- ----------<br>------------- ------ ------ ---- ---- ------- close -- ----<br>-------- ------- -- ---------- --- - --- ----- ----- ----<br>---- --- --- ----- --- ---- ---- ------- ----- ---- -------<br>--- --- -- ----- -- --- ---- -- --- ---- -- ------ ------<br>--- ----- -- ----,185919.90000000596,185918.80000001192,184929.212,184929.30000001192,184945.878,185929.088,,15,close
screen,html.Screen,2_1_0_1_16,2022-02-15T14:09:08.536Z,,,,,,,,,,,,,,,,,53,,,,,,,,,,,,,,1180.0119999940507,,response,,,,99,,,,,,,Space,keypress(Space),,,,,,,,---- -- ----- -- ------ - ------- --- ----------<br>------------- ------ ------ ---- ---- ------- ----- to ----<br>-------- ------- -- ---------- --- - --- ----- ----- ----<br>---- --- --- ----- --- ---- ---- ------- ----- ---- -------<br>--- --- -- ----- -- --- ---- -- --- ---- -- ------ ------<br>--- ----- -- ----,187109.90000000596,187109.09999999404,185912.422,185920,185929.088,187112.328,,16,to
screen,html.Screen,2_1_0_1_17,2022-02-15T14:09:09.616Z,,,,,,,,,,,,,,,,,53,,,,,,,,,,,,,,1077.0720000059518,,response,,,,99,,,,,,,Space,keypress(Space),,,,,,,,---- -- ----- -- ------ - ------- --- ----------<br>------------- ------ ------ ---- ---- ------- ----- -- your<br>-------- ------- -- ---------- --- - --- ----- ----- ----<br>---- --- --- ----- --- ---- ---- ------- ----- ---- -------<br>--- --- -- ----- -- --- ---- -- --- ---- -- ------ ------<br>--- ----- -- ----,188190.40000000596,188189.40000000596,187095.662,187110.19999998808,187112.328,188195.565,,17,your
screen,html.Screen,2_1_0_1_18,2022-02-15T14:09:10.678Z,,,,,,,,,,,,,,,,,53,,,,,,,,,,,,,,1055.1349999880767,,response,,,,99,,,,,,,Space,keypress(Space),,,,,,,,---- -- ----- -- ------ - ------- --- ----------<br>------------- ------ ------ ---- ---- ------- ----- -- ----<br>romantic ------- -- ---------- --- - --- ----- ----- ----<br>---- --- --- ----- --- ---- ---- ------- ----- ---- -------<br>--- --- -- ----- -- --- ---- -- --- ---- -- ------ ------<br>--- ----- -- ----,189251.90000000596,189250.69999998808,188178.899,188190.59999999404,188195.565,189262.123,,18,romantic
screen,html.Screen,2_1_0_1_19,2022-02-15T14:09:11.684Z,,,,,,,,,,,,,,,,,53,,,,,,,,,,,,,,994.8770000000077,,response,,,,99,,,,,,,Space,keypress(Space),,,,,,,,---- -- ----- -- ------ - ------- --- ----------<br>------------- ------ ------ ---- ---- ------- ----- -- ----<br>-------- partner -- ---------- --- - --- ----- ----- ----<br>---- --- --- ----- --- ---- ---- ------- ----- ---- -------<br>--- --- -- ----- -- --- ---- -- --- ---- -- ------ ------<br>--- ----- -- ----,190258.19999998808,190257,189245.457,189252.09999999404,189262.123,190262.096,,19,partner
screen,html.Screen,2_1_0_1_20,2022-02-15T14:09:12.505Z,,,,,,,,,,,,,,,,,53,,,,,,,,,,,,,,816.4040000000095,,response,,,,99,,,,,,,Space,keypress(Space),,,,,,,,---- -- ----- -- ------ - ------- --- ----------<br>------------- ------ ------ ---- ---- ------- ----- -- ----<br>-------- ------- is ---------- --- - --- ----- ----- ----<br>---- --- --- ----- --- ---- ---- ------- ----- ---- -------<br>--- --- -- ----- -- --- ---- -- --- ---- -- ------ ------<br>--- ----- -- ----,191079.69999998808,191078.5,190245.43,190258.40000000596,190262.096,191095.337,,20,is
screen,html.Screen,2_1_0_1_21,2022-02-15T14:09:14.694Z,,,,,,,,,,,,,,,,,53,,,,,,,,,,,,,,2171.3629999880795,,response,,,,99,,,,,,,Space,keypress(Space),,,,,,,,---- -- ----- -- ------ - ------- --- ----------<br>------------- ------ ------ ---- ---- ------- ----- -- ----<br>-------- ------- -- paramount. --- - --- ----- ----- ----<br>---- --- --- ----- --- ---- ---- ------- ----- ---- -------<br>--- --- -- ----- -- --- ---- -- --- ---- -- ------ ------<br>--- ----- -- ----,193267.80000001192,193266.69999998808,191078.671,191079.90000000596,191095.337,193295.165,,21,paramount.
screen,html.Screen,2_1_0_1_22,2022-02-15T14:09:15.782Z,,,,,,,,,,,,,,,,,53,,,,,,,,,,,,,,1060.1350000119128,,response,,,,99,,,,,,,Space,keypress(Space),,,,,,,,---- -- ----- -- ------ - ------- --- ----------<br>------------- ------ ------ ---- ---- ------- ----- -- ----<br>-------- ------- -- ---------- But - --- ----- ----- ----<br>---- --- --- ----- --- ---- ---- ------- ----- ---- -------<br>--- --- -- ----- -- --- ---- -- --- ---- -- ------ ------<br>--- ----- -- ----,194356.30000001192,194355.30000001192,193261.833,193268,193295.165,194361.782,,22,But
screen,html.Screen,2_1_0_1_23,2022-02-15T14:09:16.762Z,,,,,,,,,,,,,,,,,53,,,,,,,,,,,,,,972.9179999880726,,response,,,,99,,,,,,,Space,keypress(Space),,,,,,,,---- -- ----- -- ------ - ------- --- ----------<br>------------- ------ ------ ---- ---- ------- ----- -- ----<br>-------- ------- -- ---------- --- a --- ----- ----- ----<br>---- --- --- ----- --- ---- ---- ------- ----- ---- -------<br>--- --- -- ----- -- --- ---- -- --- ---- -- ------ ------<br>--- ----- -- ----,195336.30000001192,195334.69999998808,194345.116,194356.5,194361.782,195344.964,,23,a
screen,html.Screen,2_1_0_1_24,2022-02-15T14:09:17.740Z,,,,,,,,,,,,,,,,,53,,,,,,,,,,,,,,968.3360000119137,,response,,,,99,,,,,,,Space,keypress(Space),,,,,,,,---- -- ----- -- ------ - ------- --- ----------<br>------------- ------ ------ ---- ---- ------- ----- -- ----<br>-------- ------- -- ---------- --- - new ----- ----- ----<br>---- --- --- ----- --- ---- ---- ------- ----- ---- -------<br>--- --- -- ----- -- --- ---- -- --- ---- -- ------ ------<br>--- ----- -- ----,196314.19999998808,196313.30000001192,195328.298,195336.5,195344.964,196328.22,,24,new
screen,html.Screen,2_1_0_1_25,2022-02-15T14:09:18.736Z,,,,,,,,,,,,,,,,,53,,,,,,,,,,,,,,981.4799999880779,,response,,,,99,,,,,,,Space,keypress(Space),,,,,,,,---- -- ----- -- ------ - ------- --- ----------<br>------------- ------ ------ ---- ---- ------- ----- -- ----<br>-------- ------- -- ---------- --- - --- study ----- ----<br>---- --- --- ----- --- ---- ---- ------- ----- ---- -------<br>--- --- -- ----- -- --- ---- -- --- ---- -- ------ ------<br>--- ----- -- ----,197310.69999998808,197309.69999998808,196311.554,196314.40000000596,196328.22,197328.115,,25,study
screen,html.Screen,2_1_0_1_26,2022-02-15T14:09:19.673Z,,,,,,,,,,,,,,,,,53,,,,,,,,,,,,,,918.0849999880884,,response,,,,99,,,,,,,Space,keypress(Space),,,,,,,,---- -- ----- -- ------ - ------- --- ----------<br>------------- ------ ------ ---- ---- ------- ----- -- ----<br>-------- ------- -- ---------- --- - --- ----- finds ----<br>---- --- --- ----- --- ---- ---- ------- ----- ---- -------<br>--- --- -- ----- -- --- ---- -- --- ---- -- ------ ------<br>--- ----- -- ----,198247.19999998808,198246.19999998808,197311.449,197311,197328.115,198261.368,,26,finds
screen,html.Screen,2_1_0_1_27,2022-02-15T14:09:20.697Z,,,,,,,,,,,,,,,,,53,,,,,,,,,,,,,,1008.8319999880914,,response,,,,99,,,,,,,Space,keypress(Space),,,,,,,,---- -- ----- -- ------ - ------- --- ----------<br>------------- ------ ------ ---- ---- ------- ----- -- ----<br>-------- ------- -- ---------- --- - --- ----- ----- that<br>---- --- --- ----- --- ---- ---- ------- ----- ---- -------<br>--- --- -- ----- -- --- ---- -- --- ---- -- ------ ------<br>--- ----- -- ----,199271.09999999404,199270.19999998808,198244.702,198247.40000000596,198261.368,199277.994,,27,that
screen,html.Screen,2_1_0_1_28,2022-02-15T14:09:21.632Z,,,,,,,,,,,,,,,,,53,,,,,,,,,,,,,,927.4060000059544,,response,,,,99,,,,,,,Space,keypress(Space),,,,,,,,---- -- ----- -- ------ - ------- --- ----------<br>------------- ------ ------ ---- ---- ------- ----- -- ----<br>-------- ------- -- ---------- --- - --- ----- ----- ----<br>it's --- --- ----- --- ---- ---- ------- ----- ---- -------<br>--- --- -- ----- -- --- ---- -- --- ---- -- ------ ------<br>--- ----- -- ----,200206.40000000596,200205.40000000596,199261.328,199271.30000001192,199277.994,200211.198,,28,it's
screen,html.Screen,2_1_0_1_29,2022-02-15T14:09:22.585Z,,,,,,,,,,,,,,,,,53,,,,,,,,,,,,,,946.9019999940356,,response,,,,99,,,,,,,Space,keypress(Space),,,,,,,,---- -- ----- -- ------ - ------- --- ----------<br>------------- ------ ------ ---- ---- ------- ----- -- ----<br>-------- ------- -- ---------- --- - --- ----- ----- ----<br>---- not --- ----- --- ---- ---- ------- ----- ---- -------<br>--- --- -- ----- -- --- ---- -- --- ---- -- ------ ------<br>--- ----- -- ----,201159.09999999404,201158.09999999404,200194.532,200206.59999999404,200211.198,201161.119,,29,not
screen,html.Screen,2_1_0_1_30,2022-02-15T14:09:23.491Z,,,,,,,,,,,,,,,,,53,,,,,,,,,,,,,,902.4809999940335,,response,,,,99,,,,,,,Space,keypress(Space),,,,,,,,---- -- ----- -- ------ - ------- --- ----------<br>------------- ------ ------ ---- ---- ------- ----- -- ----<br>-------- ------- -- ---------- --- - --- ----- ----- ----<br>---- --- how ----- --- ---- ---- ------- ----- ---- -------<br>--- --- -- ----- -- --- ---- -- --- ---- -- ------ ------<br>--- ----- -- ----,202064.90000000596,202063.59999999404,201144.453,201159.19999998808,201161.119,202077.735,,30,how
screen,html.Screen,2_1_0_1_31,2022-02-15T14:09:24.425Z,,,,,,,,,,,,,,,,,53,,,,,,,,,,,,,,920.5650000119349,,response,,,,99,,,,,,,Space,keypress(Space),,,,,,,,---- -- ----- -- ------ - ------- --- ----------<br>------------- ------ ------ ---- ---- ------- ----- -- ----<br>-------- ------- -- ---------- --- - --- ----- ----- ----<br>---- --- --- close --- ---- ---- ------- ----- ---- -------<br>--- --- -- ----- -- --- ---- -- --- ---- -- ------ ------<br>--- ----- -- ----,202999.19999998808,202998.30000001192,202061.069,202065.19999998808,202077.735,203010.969,,31,close
screen,html.Screen,2_1_0_1_32,2022-02-15T14:09:25.778Z,,,,,,,,,,,,,,,,,53,,,,,,,,,,,,,,1340.1309999940277,,response,,,,99,,,,,,,Space,keypress(Space),,,,,,,,---- -- ----- -- ------ - ------- --- ----------<br>------------- ------ ------ ---- ---- ------- ----- -- ----<br>-------- ------- -- ---------- --- - --- ----- ----- ----<br>---- --- --- ----- you ---- ---- ------- ----- ---- -------<br>--- --- -- ----- -- --- ---- -- --- ---- -- ------ ------<br>--- ----- -- ----,204351.90000000596,204351.09999999404,202994.303,202999.40000000596,203010.969,204360.871,,32,you
screen,html.Screen,2_1_0_1_33,2022-02-15T14:09:26.559Z,,,,,,,,,,,,,,,,,53,,,,,,,,,,,,,,771.2289999940258,,response,,,,99,,,,,,,Space,keypress(Space),,,,,,,,---- -- ----- -- ------ - ------- --- ----------<br>------------- ------ ------ ---- ---- ------- ----- -- ----<br>-------- ------- -- ---------- --- - --- ----- ----- ----<br>---- --- --- ----- --- feel ---- ------- ----- ---- -------<br>--- --- -- ----- -- --- ---- -- --- ---- -- ------ ------<br>--- ----- -- ----,205133,205132.09999999404,204344.205,204352.09999999404,204360.871,205144.134,,33,feel
screen,html.Screen,2_1_0_1_34,2022-02-15T14:09:27.395Z,,,,,,,,,,,,,,,,,53,,,,,,,,,,,,,,824.4659999940486,,response,,,,99,,,,,,,Space,keypress(Space),,,,,,,,---- -- ----- -- ------ - ------- --- ----------<br>------------- ------ ------ ---- ---- ------- ----- -- ----<br>-------- ------- -- ---------- --- - --- ----- ----- ----<br>---- --- --- ----- --- ---- that ------- ----- ---- -------<br>--- --- -- ----- -- --- ---- -- --- ---- -- ------ ------<br>--- ----- -- ----,205969.5,205968.59999999404,205127.468,205133.30000001192,205144.134,205977.39,,34,that
screen,html.Screen,2_1_0_1_35,2022-02-15T14:09:28.106Z,,,,,,,,,,,,,,,,,53,,,,,,,,,,,,,,698.2099999940256,,response,,,,99,,,,,,,Space,keypress(Space),,,,,,,,---- -- ----- -- ------ - ------- --- ----------<br>------------- ------ ------ ---- ---- ------- ----- -- ----<br>-------- ------- -- ---------- --- - --- ----- ----- ----<br>---- --- --- ----- --- ---- ---- matters ----- ---- -------<br>--- --- -- ----- -- --- ---- -- --- ---- -- ------ ------<br>--- ----- -- ----,206680.40000000596,206675.59999999404,205960.724,205969.69999998808,205977.39,206694.065,,35,matters
screen,html.Screen,2_1_0_1_36,2022-02-15T14:09:28.977Z,,,,,,,,,,,,,,,,,53,,,,,,,,,,,,,,855.1349999880767,,response,,,,99,,,,,,,Space,keypress(Space),,,,,,,,"---- -- ----- -- ------ - ------- --- ----------<br>------------- ------ ------ ---- ---- ------- ----- -- ----<br>-------- ------- -- ---------- --- - --- ----- ----- ----<br>---- --- --- ----- --- ---- ---- ------- most, ---- -------<br>--- --- -- ----- -- --- ---- -- --- ---- -- ------ ------<br>--- ----- -- ----",207551.30000001192,207549.19999998808,206677.399,206680.80000001192,206694.065,207560.589,,36,"most,"
screen,html.Screen,2_1_0_1_37,2022-02-15T14:09:29.670Z,,,,,,,,,,,,,,,,,53,,,,,,,,,,,,,,683.2110000119137,,response,,,,99,,,,,,,Space,keypress(Space),,,,,,,,---- -- ----- -- ------ - ------- --- ----------<br>------------- ------ ------ ---- ---- ------- ----- -- ----<br>-------- ------- -- ---------- --- - --- ----- ----- ----<br>---- --- --- ----- --- ---- ---- ------- ----- it's -------<br>--- --- -- ----- -- --- ---- -- --- ---- -- ------ ------<br>--- ----- -- ----,208244.69999998808,208243.80000001192,207543.923,207551.5,207560.589,208260.515,,37,it's
screen,html.Screen,2_1_0_1_38,2022-02-15T14:09:30.389Z,,,,,,,,,,,,,,,,,53,,,,,,,,,,,,,,701.8850000059465,,response,,,,99,,,,,,,Space,keypress(Space),,,,,,,,---- -- ----- -- ------ - ------- --- ----------<br>------------- ------ ------ ---- ---- ------- ----- -- ----<br>-------- ------- -- ---------- --- - --- ----- ----- ----<br>---- --- --- ----- --- ---- ---- ------- ----- ---- whether<br>--- --- -- ----- -- --- ---- -- --- ---- -- ------ ------<br>--- ----- -- ----,208963.59999999404,208962.40000000596,208243.849,208244.90000000596,208260.515,208977.136,,38,whether
screen,html.Screen,2_1_0_1_39,2022-02-15T14:09:31.154Z,,,,,,,,,,,,,,,,,53,,,,,,,,,,,,,,749.7640000059619,,response,,,,99,,,,,,,Space,keypress(Space),,,,,,,,---- -- ----- -- ------ - ------- --- ----------<br>------------- ------ ------ ---- ---- ------- ----- -- ----<br>-------- ------- -- ---------- --- - --- ----- ----- ----<br>---- --- --- ----- --- ---- ---- ------- ----- ---- -------<br>you --- -- ----- -- --- ---- -- --- ---- -- ------ ------<br>--- ----- -- ----,209727.90000000596,209726.90000000596,208960.47,208963.90000000596,208977.136,209743.71,,39,you
screen,html.Screen,2_1_0_1_40,2022-02-15T14:09:31.859Z,,,,,,,,,,,,,,,,,53,,,,,,,,,,,,,,688.1900000059686,,response,,,,99,,,,,,,Space,keypress(Space),,,,,,,,---- -- ----- -- ------ - ------- --- ----------<br>------------- ------ ------ ---- ---- ------- ----- -- ----<br>-------- ------- -- ---------- --- - --- ----- ----- ----<br>---- --- --- ----- --- ---- ---- ------- ----- ---- -------<br>--- are -- ----- -- --- ---- -- --- ---- -- ------ ------<br>--- ----- -- ----,210433,210431.90000000596,209727.044,209728.19999998808,209743.71,210443.68,,40,are
screen,html.Screen,2_1_0_1_41,2022-02-15T14:09:32.489Z,,,,,,,,,,,,,,,,,53,,,,,,,,,,,,,,618.4199999940465,,response,,,,99,,,,,,,Space,keypress(Space),,,,,,,,---- -- ----- -- ------ - ------- --- ----------<br>------------- ------ ------ ---- ---- ------- ----- -- ----<br>-------- ------- -- ---------- --- - --- ----- ----- ----<br>---- --- --- ----- --- ---- ---- ------- ----- ---- -------<br>--- --- as ----- -- --- ---- -- --- ---- -- ------ ------<br>--- ----- -- ----,211063,211062.09999999404,210427.014,210433.19999998808,210443.68,211076.931,,41,as
screen,html.Screen,2_1_0_1_42,2022-02-15T14:09:33.225Z,,,,,,,,,,,,,,,,,53,,,,,,,,,,,,,,721.1689999940281,,response,,,,99,,,,,,,Space,keypress(Space),,,,,,,,---- -- ----- -- ------ - ------- --- ----------<br>------------- ------ ------ ---- ---- ------- ----- -- ----<br>-------- ------- -- ---------- --- - --- ----- ----- ----<br>---- --- --- ----- --- ---- ---- ------- ----- ---- -------<br>--- --- -- close -- --- ---- -- --- ---- -- ------ ------<br>--- ----- -- ----,211799.09999999404,211798.09999999404,211060.265,211063.19999998808,211076.931,211810.203,,42,close
screen,html.Screen,2_1_0_1_43,2022-02-15T14:09:33.977Z,,,,,,,,,,,,,,,,,53,,,,,,,,,,,,,,730.5970000119123,,response,,,,99,,,,,,,Space,keypress(Space),,,,,,,,---- -- ----- -- ------ - ------- --- ----------<br>------------- ------ ------ ---- ---- ------- ----- -- ----<br>-------- ------- -- ---------- --- - --- ----- ----- ----<br>---- --- --- ----- --- ---- ---- ------- ----- ---- -------<br>--- --- -- ----- as --- ---- -- --- ---- -- ------ ------<br>--- ----- -- ----,212551.40000000596,212540.80000001192,211793.537,211799.40000000596,211810.203,212560.151,,43,as
screen,html.Screen,2_1_0_1_44,2022-02-15T14:09:34.653Z,,,,,,,,,,,,,,,,,53,,,,,,,,,,,,,,665.7490000059479,,response,,,,99,,,,,,,Space,keypress(Space),,,,,,,,---- -- ----- -- ------ - ------- --- ----------<br>------------- ------ ------ ---- ---- ------- ----- -- ----<br>-------- ------- -- ---------- --- - --- ----- ----- ----<br>---- --- --- ----- --- ---- ---- ------- ----- ---- -------<br>--- --- -- ----- -- you ---- -- --- ---- -- ------ ------<br>--- ----- -- ----,213226.80000001192,213225.90000000596,212543.485,212551.5,212560.151,213243.458,,44,you
screen,html.Screen,2_1_0_1_45,2022-02-15T14:09:35.377Z,,,,,,,,,,,,,,,,,53,,,,,,,,,,,,,,706.6419999940263,,response,,,,99,,,,,,,Space,keypress(Space),,,,,,,,---- -- ----- -- ------ - ------- --- ----------<br>------------- ------ ------ ---- ---- ------- ----- -- ----<br>-------- ------- -- ---------- --- - --- ----- ----- ----<br>---- --- --- ----- --- ---- ---- ------- ----- ---- -------<br>--- --- -- ----- -- --- want -- --- ---- -- ------ ------<br>--- ----- -- ----,213951,213950.09999999404,213226.792,213227,213243.458,213960.05,,45,want
screen,html.Screen,2_1_0_1_46,2022-02-15T14:09:36.047Z,,,,,,,,,,,,,,,,,53,,,,,,,,,,,,,,659.8500000059721,,response,,,,99,,,,,,,Space,keypress(Space),,,,,,,,---- -- ----- -- ------ - ------- --- ----------<br>------------- ------ ------ ---- ---- ------- ----- -- ----<br>-------- ------- -- ---------- --- - --- ----- ----- ----<br>---- --- --- ----- --- ---- ---- ------- ----- ---- -------<br>--- --- -- ----- -- --- ---- to --- ---- -- ------ ------<br>--- ----- -- ----,214620.80000001192,214619.90000000596,213943.384,213951.30000001192,213960.05,214626.657,,46,to
screen,html.Screen,2_1_0_1_47,2022-02-15T14:09:37.569Z,,,,,,,,,,,,,,,,,53,,,,,,,,,,,,,,1515.3429999999935,,response,,,,99,,,,,,,Space,keypress(Space),,,,,,,,"---- -- ----- -- ------ - ------- --- ----------<br>------------- ------ ------ ---- ---- ------- ----- -- ----<br>-------- ------- -- ---------- --- - --- ----- ----- ----<br>---- --- --- ----- --- ---- ---- ------- ----- ---- -------<br>--- --- -- ----- -- --- ---- -- be, ---- -- ------ ------<br>--- ----- -- ----",216143,216142,214609.991,214620.90000000596,214626.657,216159.877,,47,"be,"
screen,html.Screen,2_1_0_1_48,2022-02-15T14:09:38.332Z,,,,,,,,,,,,,,,,,53,,,,,,,,,,,,,,746.0230000059528,,response,,,,99,,,,,,,Space,keypress(Space),,,,,,,,---- -- ----- -- ------ - ------- --- ----------<br>------------- ------ ------ ---- ---- ------- ----- -- ----<br>-------- ------- -- ---------- --- - --- ----- ----- ----<br>---- --- --- ----- --- ---- ---- ------- ----- ---- -------<br>--- --- -- ----- -- --- ---- -- --- even -- ------ ------<br>--- ----- -- ----,216906.69999998808,216905.90000000596,216143.211,216143.19999998808,216159.877,216909.855,,48,even
screen,html.Screen,2_1_0_1_49,2022-02-15T14:09:38.988Z,,,,,,,,,,,,,,,,,53,,,,,,,,,,,,,,650.9450000119105,,response,,,,99,,,,,,,Space,keypress(Space),,,,,,,,---- -- ----- -- ------ - ------- --- ----------<br>------------- ------ ------ ---- ---- ------- ----- -- ----<br>-------- ------- -- ---------- --- - --- ----- ----- ----<br>---- --- --- ----- --- ---- ---- ------- ----- ---- -------<br>--- --- -- ----- -- --- ---- -- --- ---- if ------ ------<br>--- ----- -- ----,217561.80000001192,217560.80000001192,216893.189,216906.90000000596,216909.855,217576.402,,49,if
screen,html.Screen,2_1_0_1_50,2022-02-15T14:09:39.698Z,,,,,,,,,,,,,,,,,53,,,,,,,,,,,,,,694.6979999940377,,response,,,,99,,,,,,,Space,keypress(Space),,,,,,,,---- -- ----- -- ------ - ------- --- ----------<br>------------- ------ ------ ---- ---- ------- ----- -- ----<br>-------- ------- -- ---------- --- - --- ----- ----- ----<br>---- --- --- ----- --- ---- ---- ------- ----- ---- -------<br>--- --- -- ----- -- --- ---- -- --- ---- -- that's ------<br>--- ----- -- ----,218272.40000000596,218271.09999999404,217559.736,217562,217576.402,218276.346,,50,that's
screen,html.Screen,2_1_0_1_51,2022-02-15T14:09:40.484Z,,,,,,,,,,,,,,,,,53,,,,,,,,,,,,,,780.6540000000095,,response,,,,99,,,,,,,Space,keypress(Space),,,,,,,,---- -- ----- -- ------ - ------- --- ----------<br>------------- ------ ------ ---- ---- ------- ----- -- ----<br>-------- ------- -- ---------- --- - --- ----- ----- ----<br>---- --- --- ----- --- ---- ---- ------- ----- ---- -------<br>--- --- -- ----- -- --- ---- -- --- ---- -- ------ really<br>--- ----- -- ----,219057.90000000596,219057,218259.68,218272.5,218276.346,219059.707,,51,really
screen,html.Screen,2_1_0_1_52,2022-02-15T14:09:41.236Z,,,,,,,,,,,,,,,,,53,,,,,,,,,,,,,,747.9929999880842,,response,,,,99,,,,,,,Space,keypress(Space),,,,,,,,---- -- ----- -- ------ - ------- --- ----------<br>------------- ------ ------ ---- ---- ------- ----- -- ----<br>-------- ------- -- ---------- --- - --- ----- ----- ----<br>---- --- --- ----- --- ---- ---- ------- ----- ---- -------<br>--- --- -- ----- -- --- ---- -- --- ---- -- ------ ------<br>not ----- -- ----,219810.40000000596,219807.69999998808,219043.041,219058.09999999404,219059.707,219826.21,,52,not
screen,html.Screen,2_1_0_1_53,2022-02-15T14:09:41.996Z,,,,,,,,,,,,,,,,,53,,,,,,,,,,,,,,743.0900000119291,,response,,,,99,,,,,,,Space,keypress(Space),,,,,,,,---- -- ----- -- ------ - ------- --- ----------<br>------------- ------ ------ ---- ---- ------- ----- -- ----<br>-------- ------- -- ---------- --- - --- ----- ----- ----<br>---- --- --- ----- --- ---- ---- ------- ----- ---- -------<br>--- --- -- ----- -- --- ---- -- --- ---- -- ------ ------<br>--- close -- ----,220570.30000001192,220569.30000001192,219809.544,219810.59999999404,219826.21,220576.161,,53,close
screen,html.Screen,2_1_0_1_54,2022-02-15T14:09:42.919Z,,,,,,,,,,,,,,,,,53,,,,,,,,,,,,,,916.2390000059677,,response,,,,99,,,,,,,Space,keypress(Space),,,,,,,,---- -- ----- -- ------ - ------- --- ----------<br>------------- ------ ------ ---- ---- ------- ----- -- ----<br>-------- ------- -- ---------- --- - --- ----- ----- ----<br>---- --- --- ----- --- ---- ---- ------- ----- ---- -------<br>--- --- -- ----- -- --- ---- -- --- ---- -- ------ ------<br>--- ----- at ----,221493.19999998808,221492.40000000596,220559.495,220570.59999999404,220576.161,221509.424,,54,at
screen,html.Screen,2_1_0_1_55,2022-02-15T14:09:46.377Z,,,,,,,,,,,,,,,,,53,,,,,,,,,,,,,,3440.9760000059614,,response,,,,99,,,,,,,Space,keypress(Space),,,,,,,,---- -- ----- -- ------ - ------- --- ----------<br>------------- ------ ------ ---- ---- ------- ----- -- ----<br>-------- ------- -- ---------- --- - --- ----- ----- ----<br>---- --- --- ----- --- ---- ---- ------- ----- ---- -------<br>--- --- -- ----- -- --- ---- -- --- ---- -- ------ ------<br>--- ----- -- all.,224951.19999998808,224950.40000000596,221492.758,221493.5,221509.424,224959.228,,55,all.
Item 99,flow.Loop,2_1_0_1,2022-02-15T14:09:46.377Z,,,,,,,,,,,,,,,,,,,,,,,,,,,,,,,56903.16900000596,,completion,,,,,F,,,,,,,,,,,silence,,,,,224951.69999998808,224950.40000000596,167897.237,167898.80000001192,168047.231,224959.228,,,
Question 1,html.Screen,2_1_0_2,2022-02-15T14:09:51.765Z,,,,,,,,,,,,,,,,,,,,,,,,,,,,true,FALSE,,5378.771999999997,,response,,,,99,F,,,,,,FALSE,click #choice-2,,,,silence,,,,,230339.5,230338,224942.562,224951.80000001192,224959.228,230341.94,,,
Question 2,html.Screen,2_1_0_3,2022-02-15T14:09:58.088Z,,,,,,,,,,,,,,,,,,,,,,,,,,,,true,TRUE,,6318.559999999998,,response,,,,99,F,,,,,,TRUE,click #choice-1,,,,silence,,,,,236662,236660.5,230325.274,230339.69999998808,230341.94,236674.766,,,
Item 99,flow.Sequence,2_1_0,2022-02-15T14:09:58.088Z,,,,,,,,,,,,,,,,,,,,,,,,,,,,,,,78745.799,,completion,,,,,,,,,,,,,,,,,,,,,236662.19999998808,236660.5,157898.035,157905.30000001192,157914.701,236674.766,,,
Holding screen,html.Screen,2_1_1_0,2022-02-15T14:10:08.084Z,,,,,,,,,,,,,,,,,,,,,,,,,,,,,,,9999.304000000004,,timeout,,,,,,,,,,,,,,,,,,,,,246658.59999999404,246657.404,236658.1,236662.40000000596,236674.766,246674.07,,,
screen,html.Screen,2_1_1_1_0,2022-02-15T14:10:09.401Z,,,,,,,,,,,,,,,,,54,,,,,,,,,,,,,,1299.629999988072,,response,,,,100,,,,,,,Space,keypress(Space),,,,,,,,At --- ---- --- ------ ----- ------- ---- -- --- ------- --<br>------- ---------- ------ -- ----- -- ----- -- ---- ------<br>--- ----- --- --- ------ -------- ----- --- ------ ----- --<br>----- ----- ---------- --- --- ------ ------ ---- -- ------<br>------- --- ------ ----- --- ---- ------- -- ---- --- --<br>------- ------,247974.90000000596,247973.69999998808,246657.404,246659,246674.07,247990.543,,0,At
screen,html.Screen,2_1_1_1_1,2022-02-15T14:10:10.017Z,,,,,,,,,,,,,,,,,54,,,,,,,,,,,,,,599.9569999999949,,response,,,,100,,,,,,,Space,keypress(Space),,,,,,,,-- the ---- --- ------ ----- ------- ---- -- --- ------- --<br>------- ---------- ------ -- ----- -- ----- -- ---- ------<br>--- ----- --- --- ------ -------- ----- --- ------ ----- --<br>----- ----- ---------- --- --- ------ ------ ---- -- ------<br>------- --- ------ ----- --- ---- ------- -- ---- --- --<br>------- ------,248591.40000000596,248590.5,247973.877,247975.09999999404,247990.543,248607.195,,1,the
screen,html.Screen,2_1_1_1_2,2022-02-15T14:10:10.774Z,,,,,,,,,,,,,,,,,54,,,,,,,,,,,,,,740.4049999940326,,response,,,,100,,,,,,,Space,keypress(Space),,,,,,,,-- --- time --- ------ ----- ------- ---- -- --- ------- --<br>------- ---------- ------ -- ----- -- ----- -- ---- ------<br>--- ----- --- --- ------ -------- ----- --- ------ ----- --<br>----- ----- ---------- --- --- ------ ------ ---- -- ------<br>------- --- ------ ----- --- ---- ------- -- ---- --- --<br>------- ------,249348.40000000596,249347.59999999404,248590.529,248591.59999999404,248607.195,249357.087,,2,time
screen,html.Screen,2_1_1_1_3,2022-02-15T14:10:11.357Z,,,,,,,,,,,,,,,,,54,,,,,,,,,,,,,,573.3130000059609,,response,,,,100,,,,,,,Space,keypress(Space),,,,,,,,-- --- ---- the ------ ----- ------- ---- -- --- ------- --<br>------- ---------- ------ -- ----- -- ----- -- ---- ------<br>--- ----- --- --- ------ -------- ----- --- ------ ----- --<br>----- ----- ---------- --- --- ------ ------ ---- -- ------<br>------- --- ------ ----- --- ---- ------- -- ---- --- --<br>------- ------,249931.30000001192,249930.40000000596,249340.421,249348.69999998808,249357.087,249940.355,,3,the
screen,html.Screen,2_1_1_1_4,2022-02-15T14:10:12.114Z,,,,,,,,,,,,,,,,,54,,,,,,,,,,,,,,746.3449999880686,,response,,,,100,,,,,,,Space,keypress(Space),,,,,,,,-- --- ---- --- French ----- ------- ---- -- --- ------- --<br>------- ---------- ------ -- ----- -- ----- -- ---- ------<br>--- ----- --- --- ------ -------- ----- --- ------ ----- --<br>----- ----- ---------- --- --- ------ ------ ---- -- ------<br>------- --- ------ ----- --- ---- ------- -- ---- --- --<br>------- ------,250688.59999999404,250686.69999998808,249923.689,249931.40000000596,249940.355,250690.298,,4,French
screen,html.Screen,2_1_1_1_5,2022-02-15T14:10:12.696Z,,,,,,,,,,,,,,,,,54,,,,,,,,,,,,,,579.5020000119112,,response,,,,100,,,,,,,Space,keypress(Space),,,,,,,,-- --- ---- --- ------ crown ------- ---- -- --- ------- --<br>------- ---------- ------ -- ----- -- ----- -- ---- ------<br>--- ----- --- --- ------ -------- ----- --- ------ ----- --<br>----- ----- ---------- --- --- ------ ------ ---- -- ------<br>------- --- ------ ----- --- ---- ------- -- ---- --- --<br>------- ------,251270.80000001192,251269.80000001192,250673.632,250688.80000001192,250690.298,251273.6,,5,crown
screen,html.Screen,2_1_1_1_6,2022-02-15T14:10:13.257Z,,,,,,,,,,,,,,,,,54,,,,,,,,,,,,,,555.2000000119151,,response,,,,100,,,,,,,Space,keypress(Space),,,,,,,,-- --- ---- --- ------ ----- secured ---- -- --- ------- --<br>------- ---------- ------ -- ----- -- ----- -- ---- ------<br>--- ----- --- --- ------ -------- ----- --- ------ ----- --<br>----- ----- ---------- --- --- ------ ------ ---- -- ------<br>------- --- ------ ----- --- ---- ------- -- ---- --- --<br>------- ------,251831.30000001192,251828.80000001192,251256.934,251271,251273.6,251840.17,,6,secured
screen,html.Screen,2_1_1_1_7,2022-02-15T14:10:13.851Z,,,,,,,,,,,,,,,,,54,,,,,,,,,,,,,,583.7300000059477,,response,,,,100,,,,,,,Space,keypress(Space),,,,,,,,-- --- ---- --- ------ ----- ------- much -- --- ------- --<br>------- ---------- ------ -- ----- -- ----- -- ---- ------<br>--- ----- --- --- ------ -------- ----- --- ------ ----- --<br>----- ----- ---------- --- --- ------ ------ ---- -- ------<br>------- --- ------ ----- --- ---- ------- -- ---- --- --<br>------- ------,252425.09999999404,252423.90000000596,251823.504,251831.59999999404,251840.17,252440.133,,7,much
screen,html.Screen,2_1_1_1_8,2022-02-15T14:10:14.386Z,,,,,,,,,,,,,,,,,54,,,,,,,,,,,,,,518.9669999940379,,response,,,,100,,,,,,,Space,keypress(Space),,,,,,,,-- --- ---- --- ------ ----- ------- ---- of --- ------- --<br>------- ---------- ------ -- ----- -- ----- -- ---- ------<br>--- ----- --- --- ------ -------- ----- --- ------ ----- --<br>----- ----- ---------- --- --- ------ ------ ---- -- ------<br>------- --- ------ ----- --- ---- ------- -- ---- --- --<br>------- ------,252960,252959.09999999404,252423.467,252425.30000001192,252440.133,252973.433,,8,of
screen,html.Screen,2_1_1_1_9,2022-02-15T14:10:14.841Z,,,,,,,,,,,,,,,,,54,,,,,,,,,,,,,,440.66699999404955,,response,,,,100,,,,,,,Space,keypress(Space),,,,,,,,-- --- ---- --- ------ ----- ------- ---- -- its ------- --<br>------- ---------- ------ -- ----- -- ----- -- ---- ------<br>--- ----- --- --- ------ -------- ----- --- ------ ----- --<br>----- ----- ---------- --- --- ------ ------ ---- -- ------<br>------- --- ------ ----- --- ---- ------- -- ---- --- --<br>------- ------,253415,253414.09999999404,252956.767,252960.19999998808,252973.433,253423.375,,9,its
screen,html.Screen,2_1_1_1_10,2022-02-15T14:10:15.371Z,,,,,,,,,,,,,,,,,54,,,,,,,,,,,,,,520.7249999940395,,response,,,,100,,,,,,,Space,keypress(Space),,,,,,,,-- --- ---- --- ------ ----- ------- ---- -- --- revenue --<br>------- ---------- ------ -- ----- -- ----- -- ---- ------<br>--- ----- --- --- ------ -------- ----- --- ------ ----- --<br>----- ----- ---------- --- --- ------ ------ ---- -- ------<br>------- --- ------ ----- --- ---- ------- -- ---- --- --<br>------- ------,253945,253944.09999999404,253406.709,253415.19999998808,253423.375,253956.681,,10,revenue
screen,html.Screen,2_1_1_1_11,2022-02-15T14:10:15.915Z,,,,,,,,,,,,,,,,,54,,,,,,,,,,,,,,531.5189999880677,,response,,,,100,,,,,,,Space,keypress(Space),,,,,,,,-- --- ---- --- ------ ----- ------- ---- -- --- ------- by<br>------- ---------- ------ -- ----- -- ----- -- ---- ------<br>--- ----- --- --- ------ -------- ----- --- ------ ----- --<br>----- ----- ---------- --- --- ------ ------ ---- -- ------<br>------- --- ------ ----- --- ---- ------- -- ---- --- --<br>------- ------,254489.19999998808,254488.19999998808,253940.015,253945.19999998808,253956.681,254506.632,,11,by
screen,html.Screen,2_1_1_1_12,2022-02-15T14:10:16.460Z,,,,,,,,,,,,,,,,,54,,,,,,,,,,,,,,527.3679999999877,,response,,,,100,,,,,,,Space,keypress(Space),,,,,,,,-- --- ---- --- ------ ----- ------- ---- -- --- ------- --<br>issuing ---------- ------ -- ----- -- ----- -- ---- ------<br>--- ----- --- --- ------ -------- ----- --- ------ ----- --<br>----- ----- ---------- --- --- ------ ------ ---- -- ------<br>------- --- ------ ----- --- ---- ------- -- ---- --- --<br>------- ------,255034.80000001192,255034,254489.966,254489.40000000596,254506.632,255039.899,,12,issuing
screen,html.Screen,2_1_1_1_13,2022-02-15T14:10:16.944Z,,,,,,,,,,,,,,,,,54,,,,,,,,,,,,,,477.3009999880742,,response,,,,100,,,,,,,Space,keypress(Space),,,,,,,,-- --- ---- --- ------ ----- ------- ---- -- --- ------- --<br>------- government ------ -- ----- -- ----- -- ---- ------<br>--- ----- --- --- ------ -------- ----- --- ------ ----- --<br>----- ----- ---------- --- --- ------ ------ ---- -- ------<br>------- --- ------ ----- --- ---- ------- -- ---- --- --<br>------- ------,255518.19999998808,255517.19999998808,255023.233,255036.5,255039.899,255523.214,,13,government
screen,html.Screen,2_1_1_1_14,2022-02-15T14:10:18.345Z,,,,,,,,,,,,,,,,,54,,,,,,,,,,,,,,1395.3859999940323,,response,,,,100,,,,,,,Space,keypress(Space),,,,,,,,-- --- ---- --- ------ ----- ------- ---- -- --- ------- --<br>------- ---------- bonds. -- ----- -- ----- -- ---- ------<br>--- ----- --- --- ------ -------- ----- --- ------ ----- --<br>----- ----- ---------- --- --- ------ ------ ---- -- ------<br>------- --- ------ ----- --- ---- ------- -- ---- --- --<br>------- ------,256919.5,256918.59999999404,255506.548,255518.40000000596,255523.214,256923.161,,14,bonds.
screen,html.Screen,2_1_1_1_15,2022-02-15T14:10:18.951Z,,,,,,,,,,,,,,,,,54,,,,,,,,,,,,,,601.3390000000072,,response,,,,100,,,,,,,Space,keypress(Space),,,,,,,,-- --- ---- --- ------ ----- ------- ---- -- --- ------- --<br>------- ---------- ------ In ----- -- ----- -- ---- ------<br>--- ----- --- --- ------ -------- ----- --- ------ ----- --<br>----- ----- ---------- --- --- ------ ------ ---- -- ------<br>------- --- ------ ----- --- ---- ------- -- ---- --- --<br>------- ------,257525.5,257524.5,256906.495,256919.59999999404,256923.161,257539.757,,15,In
screen,html.Screen,2_1_1_1_16,2022-02-15T14:10:20.694Z,,,,,,,,,,,,,,,,,54,,,,,,,,,,,,,,1727.3429999940272,,response,,,,100,,,,,,,Space,keypress(Space),,,,,,,,"-- --- ---- --- ------ ----- ------- ---- -- --- ------- --<br>------- ---------- ------ -- 1727, -- ----- -- ---- ------<br>--- ----- --- --- ------ -------- ----- --- ------ ----- --<br>----- ----- ---------- --- --- ------ ------ ---- -- ------<br>------- --- ------ ----- --- ---- ------- -- ---- --- --<br>------- ------",259268,259267.09999999404,257523.091,257525.69999998808,257539.757,259273.002,,16,"1727,"
screen,html.Screen,2_1_1_1_17,2022-02-15T14:10:21.238Z,,,,,,,,,,,,,,,,,54,,,,,,,,,,,,,,538.9979999999923,,response,,,,100,,,,,,,Space,keypress(Space),,,,,,,,-- --- ---- --- ------ ----- ------- ---- -- --- ------- --<br>------- ---------- ------ -- ----- in ----- -- ---- ------<br>--- ----- --- --- ------ -------- ----- --- ------ ----- --<br>----- ----- ---------- --- --- ------ ------ ---- -- ------<br>------- --- ------ ----- --- ---- ------- -- ---- --- --<br>------- ------,259812.80000001192,259812,259256.336,259268.09999999404,259273.002,259822.89,,17,in
screen,html.Screen,2_1_1_1_18,2022-02-15T14:10:21.711Z,,,,,,,,,,,,,,,,,54,,,,,,,,,,,,,,461.8099999880651,,response,,,,100,,,,,,,Space,keypress(Space),,,,,,,,-- --- ---- --- ------ ----- ------- ---- -- --- ------- --<br>------- ---------- ------ -- ----- -- order -- ---- ------<br>--- ----- --- --- ------ -------- ----- --- ------ ----- --<br>----- ----- ---------- --- --- ------ ------ ---- -- ------<br>------- --- ------ ----- --- ---- ------- -- ---- --- --<br>------- ------,260285.69999998808,260284.69999998808,259806.224,259813,259822.89,260289.454,,18,order
screen,html.Screen,2_1_1_1_19,2022-02-15T14:10:22.246Z,,,,,,,,,,,,,,,,,54,,,,,,,,,,,,,,529.7459999880812,,response,,,,100,,,,,,,Space,keypress(Space),,,,,,,,-- --- ---- --- ------ ----- ------- ---- -- --- ------- --<br>------- ---------- ------ -- ----- -- ----- to ---- ------<br>--- ----- --- --- ------ -------- ----- --- ------ ----- --<br>----- ----- ---------- --- --- ------ ------ ---- -- ------<br>------- --- ------ ----- --- ---- ------- -- ---- --- --<br>------- ------,260820.19999998808,260819.19999998808,260272.788,260285.90000000596,260289.454,260822.747,,19,to
screen,html.Screen,2_1_1_1_20,2022-02-15T14:10:22.732Z,,,,,,,,,,,,,,,,,54,,,,,,,,,,,,,,482.95299998807604,,response,,,,100,,,,,,,Space,keypress(Space),,,,,,,,-- --- ---- --- ------ ----- ------- ---- -- --- ------- --<br>------- ---------- ------ -- ----- -- ----- -- save ------<br>--- ----- --- --- ------ -------- ----- --- ------ ----- --<br>----- ----- ---------- --- --- ------ ------ ---- -- ------<br>------- --- ------ ----- --- ---- ------- -- ---- --- --<br>------- ------,261306.80000001192,261305.69999998808,260806.081,260820.5,260822.747,261322.73,,20,save
screen,html.Screen,2_1_1_1_21,2022-02-15T14:10:23.529Z,,,,,,,,,,,,,,,,,54,,,,,,,,,,,,,,779.4699999880686,,response,,,,100,,,,,,,Space,keypress(Space),,,,,,,,"-- --- ---- --- ------ ----- ------- ---- -- --- ------- --<br>------- ---------- ------ -- ----- -- ----- -- ---- money,<br>--- ----- --- --- ------ -------- ----- --- ------ ----- --<br>----- ----- ---------- --- --- ------ ------ ---- -- ------<br>------- --- ------ ----- --- ---- ------- -- ---- --- --<br>------- ------",262103.09999999404,262102.19999998808,261306.064,261307,261322.73,262106.024,,21,"money,"
screen,html.Screen,2_1_1_1_22,2022-02-15T14:10:24.143Z,,,,,,,,,,,,,,,,,54,,,,,,,,,,,,,,610.276000011916,,response,,,,100,,,,,,,Space,keypress(Space),,,,,,,,-- --- ---- --- ------ ----- ------- ---- -- --- ------- --<br>------- ---------- ------ -- ----- -- ----- -- ---- ------<br>the ----- --- --- ------ -------- ----- --- ------ ----- --<br>----- ----- ---------- --- --- ------ ------ ---- -- ------<br>------- --- ------ ----- --- ---- ------- -- ---- --- --<br>------- ------,262717.1999999881,262716.3000000119,262089.358,262103.30000001192,262106.024,262722.631,,22,the
screen,html.Screen,2_1_1_1_23,2022-02-15T14:10:24.656Z,,,,,,,,,,,,,,,,,54,,,,,,,,,,,,,,506.36900000000605,,response,,,,100,,,,,,,Space,keypress(Space),,,,,,,,-- --- ---- --- ------ ----- ------- ---- -- --- ------- --<br>------- ---------- ------ -- ----- -- ----- -- ---- ------<br>--- state --- --- ------ -------- ----- --- ------ ----- --<br>----- ----- ---------- --- --- ------ ------ ---- -- ------<br>------- --- ------ ----- --- ---- ------- -- ---- --- --<br>------- ------,263230,263229,262705.965,262717.40000000596,262722.631,263239.244,,23,state
screen,html.Screen,2_1_1_1_24,2022-02-15T14:10:25.156Z,,,,,,,,,,,,,,,,,54,,,,,,,,,,,,,,489.955999988073,,response,,,,100,,,,,,,Space,keypress(Space),,,,,,,,-- --- ---- --- ------ ----- ------- ---- -- --- ------- --<br>------- ---------- ------ -- ----- -- ----- -- ---- ------<br>--- ----- cut --- ------ -------- ----- --- ------ ----- --<br>----- ----- ---------- --- --- ------ ------ ---- -- ------<br>------- --- ------ ----- --- ---- ------- -- ---- --- --<br>------- ------,263730.09999999404,263729.1999999881,263222.578,263230.1999999881,263239.244,263739.175,,24,cut
screen,html.Screen,2_1_1_1_25,2022-02-15T14:10:25.662Z,,,,,,,,,,,,,,,,,54,,,,,,,,,,,,,,496.32500000001164,,response,,,,100,,,,,,,Space,keypress(Space),,,,,,,,-- --- ---- --- ------ ----- ------- ---- -- --- ------- --<br>------- ---------- ------ -- ----- -- ----- -- ---- ------<br>--- ----- --- the ------ -------- ----- --- ------ ----- --<br>----- ----- ---------- --- --- ------ ------ ---- -- ------<br>------- --- ------ ----- --- ---- ------- -- ---- --- --<br>------- ------,264236.59999999404,264235.5,263722.509,263730.40000000596,263739.175,264239.148,,25,the
screen,html.Screen,2_1_1_1_26,2022-02-15T14:10:26.409Z,,,,,,,,,,,,,,,,,54,,,,,,,,,,,,,,743.252000005974,,response,,,,100,,,,,,,Space,keypress(Space),,,,,,,,-- --- ---- --- ------ ----- ------- ---- -- --- ------- --<br>------- ---------- ------ -- ----- -- ----- -- ---- ------<br>--- ----- --- --- bonds' -------- ----- --- ------ ----- --<br>----- ----- ---------- --- --- ------ ------ ---- -- ------<br>------- --- ------ ----- --- ---- ------- -- ---- --- --<br>------- ------,264983.5,264982.40000000596,264222.482,264236.6999999881,264239.148,264989.078,,26,bonds'
screen,html.Screen,2_1_1_1_27,2022-02-15T14:10:27.313Z,,,,,,,,,,,,,,,,,54,,,,,,,,,,,,,,896.7220000119414,,response,,,,100,,,,,,,Space,keypress(Space),,,,,,,,-- --- ---- --- ------ ----- ------- ---- -- --- ------- --<br>------- ---------- ------ -- ----- -- ----- -- ---- ------<br>--- ----- --- --- ------ interest ----- --- ------ ----- --<br>----- ----- ---------- --- --- ------ ------ ---- -- ------<br>------- --- ------ ----- --- ---- ------- -- ---- --- --<br>------- ------,265887,265885.8000000119,264972.412,264983.6999999881,264989.078,265889.014,,27,interest
screen,html.Screen,2_1_1_1_28,2022-02-15T14:10:27.876Z,,,,,,,,,,,,,,,,,54,,,,,,,,,,,,,,560.7860000118962,,response,,,,100,,,,,,,Space,keypress(Space),,,,,,,,-- --- ---- --- ------ ----- ------- ---- -- --- ------- --<br>------- ---------- ------ -- ----- -- ----- -- ---- ------<br>--- ----- --- --- ------ -------- rate. --- ------ ----- --<br>----- ----- ---------- --- --- ------ ------ ---- -- ------<br>------- --- ------ ----- --- ---- ------- -- ---- --- --<br>------- ------,266450.8000000119,266449.8000000119,265872.348,265887.1999999881,265889.014,266455.646,,28,rate.
screen,html.Screen,2_1_1_1_29,2022-02-15T14:10:29.039Z,,,,,,,,,,,,,,,,,54,,,,,,,,,,,,,,1155.154000011913,,response,,,,100,,,,,,,Space,keypress(Space),,,,,,,,-- --- ---- --- ------ ----- ------- ---- -- --- ------- --<br>------- ---------- ------ -- ----- -- ----- -- ---- ------<br>--- ----- --- --- ------ -------- ----- The ------ ----- --<br>----- ----- ---------- --- --- ------ ------ ---- -- ------<br>------- --- ------ ----- --- ---- ------- -- ---- --- --<br>------- ------,267613.09999999404,267610.8000000119,266438.98,266451.09999999404,266455.646,267622.209,,29,The
screen,html.Screen,2_1_1_1_30,2022-02-15T14:10:29.592Z,,,,,,,,,,,,,,,,,54,,,,,,,,,,,,,,543.5910000119475,,response,,,,100,,,,,,,Space,keypress(Space),,,,,,,,-- --- ---- --- ------ ----- ------- ---- -- --- ------- --<br>------- ---------- ------ -- ----- -- ----- -- ---- ------<br>--- ----- --- --- ------ -------- ----- --- market ----- --<br>----- ----- ---------- --- --- ------ ------ ---- -- ------<br>------- --- ------ ----- --- ---- ------- -- ---- --- --<br>------- ------,268166.6999999881,268165.8000000119,267605.543,267613.40000000596,267622.209,268172.197,,30,market
screen,html.Screen,2_1_1_1_31,2022-02-15T14:10:30.127Z,,,,,,,,,,,,,,,,,54,,,,,,,,,,,,,,528.3030000000144,,response,,,,100,,,,,,,Space,keypress(Space),,,,,,,,-- --- ---- --- ------ ----- ------- ---- -- --- ------- --<br>------- ---------- ------ -- ----- -- ----- -- ---- ------<br>--- ----- --- --- ------ -------- ----- --- ------ value --<br>----- ----- ---------- --- --- ------ ------ ---- -- ------<br>------- --- ------ ----- --- ---- ------- -- ---- --- --<br>------- ------,268701.3000000119,268700.5,268155.531,268167,268172.197,268705.422,,31,value
screen,html.Screen,2_1_1_1_32,2022-02-15T14:10:30.768Z,,,,,,,,,,,,,,,,,54,,,,,,,,,,,,,,636.3780000119004,,response,,,,100,,,,,,,Space,keypress(Space),,,,,,,,-- --- ---- --- ------ ----- ------- ---- -- --- ------- --<br>------- ---------- ------ -- ----- -- ----- -- ---- ------<br>--- ----- --- --- ------ -------- ----- --- ------ ----- of<br>----- ----- ---------- --- --- ------ ------ ---- -- ------<br>------- --- ------ ----- --- ---- ------- -- ---- --- --<br>------- ------,269342.59999999404,269341.8000000119,268688.756,268701.5,268705.422,269355.39,,32,of
screen,html.Screen,2_1_1_1_33,2022-02-15T14:10:31.253Z,,,,,,,,,,,,,,,,,54,,,,,,,,,,,,,,471.0100000059465,,response,,,,100,,,,,,,Space,keypress(Space),,,,,,,,-- --- ---- --- ------ ----- ------- ---- -- --- ------- --<br>------- ---------- ------ -- ----- -- ----- -- ---- ------<br>--- ----- --- --- ------ -------- ----- --- ------ ----- --<br>these ----- ---------- --- --- ------ ------ ---- -- ------<br>------- --- ------ ----- --- ---- ------- -- ---- --- --<br>------- ------,269827.1999999881,269826.40000000596,269338.724,269342.6999999881,269355.39,269838.693,,33,these
screen,html.Screen,2_1_1_1_34,2022-02-15T14:10:31.794Z,,,,,,,,,,,,,,,,,54,,,,,,,,,,,,,,529.2070000059321,,response,,,,100,,,,,,,Space,keypress(Space),,,,,,,,-- --- ---- --- ------ ----- ------- ---- -- --- ------- --<br>------- ---------- ------ -- ----- -- ----- -- ---- ------<br>--- ----- --- --- ------ -------- ----- --- ------ ----- --<br>----- bonds ---------- --- --- ------ ------ ---- -- ------<br>------- --- ------ ----- --- ---- ------- -- ---- --- --<br>------- ------,270368.6999999881,270367.90000000596,269822.027,269827.40000000596,269838.693,270371.968,,34,bonds
screen,html.Screen,2_1_1_1_35,2022-02-15T14:10:32.360Z,,,,,,,,,,,,,,,,,54,,,,,,,,,,,,,,561.0320000000065,,response,,,,100,,,,,,,Space,keypress(Space),,,,,,,,"-- --- ---- --- ------ ----- ------- ---- -- --- ------- --<br>------- ---------- ------ -- ----- -- ----- -- ---- ------<br>--- ----- --- --- ------ -------- ----- --- ------ ----- --<br>----- ----- plummeted, --- --- ------ ------ ---- -- ------<br>------- --- ------ ----- --- ---- ------- -- ---- --- --<br>------- ------",270933.90000000596,270933,270355.302,270369,270371.968,270938.568,,35,"plummeted,"
screen,html.Screen,2_1_1_1_36,2022-02-15T14:10:32.856Z,,,,,,,,,,,,,,,,,54,,,,,,,,,,,,,,490.53199999401113,,response,,,,100,,,,,,,Space,keypress(Space),,,,,,,,-- --- ---- --- ------ ----- ------- ---- -- --- ------- --<br>------- ---------- ------ -- ----- -- ----- -- ---- ------<br>--- ----- --- --- ------ -------- ----- --- ------ ----- --<br>----- ----- ---------- and --- ------ ------ ---- -- ------<br>------- --- ------ ----- --- ---- ------- -- ---- --- --<br>------- ------,271429.90000000596,271429.09999999404,270921.902,270934.09999999404,270938.568,271438.537,,36,and
screen,html.Screen,2_1_1_1_37,2022-02-15T14:10:33.293Z,,,,,,,,,,,,,,,,,54,,,,,,,,,,,,,,427.76300001190975,,response,,,,100,,,,,,,Space,keypress(Space),,,,,,,,-- --- ---- --- ------ ----- ------- ---- -- --- ------- --<br>------- ---------- ------ -- ----- -- ----- -- ---- ------<br>--- ----- --- --- ------ -------- ----- --- ------ ----- --<br>----- ----- ---------- --- the ------ ------ ---- -- ------<br>------- --- ------ ----- --- ---- ------- -- ---- --- --<br>------- ------,271867.1999999881,271866.3000000119,271421.871,271430.09999999404,271438.537,271871.841,,37,the
screen,html.Screen,2_1_1_1_38,2022-02-15T14:10:33.784Z,,,,,,,,,,,,,,,,,54,,,,,,,,,,,,,,470.55900000594556,,response,,,,100,,,,,,,Space,keypress(Space),,,,,,,,-- --- ---- --- ------ ----- ------- ---- -- --- ------- --<br>------- ---------- ------ -- ----- -- ----- -- ---- ------<br>--- ----- --- --- ------ -------- ----- --- ------ ----- --<br>----- ----- ---------- --- --- market ------ ---- -- ------<br>------- --- ------ ----- --- ---- ------- -- ---- --- --<br>------- ------,272358.59999999404,272342.40000000596,271855.175,271867.40000000596,271871.841,272371.775,,38,market
screen,html.Screen,2_1_1_1_39,2022-02-15T14:10:34.263Z,,,,,,,,,,,,,,,,,54,,,,,,,,,,,,,,464.2249999999767,,response,,,,100,,,,,,,Space,keypress(Space),,,,,,,,-- --- ---- --- ------ ----- ------- ---- -- --- ------- --<br>------- ---------- ------ -- ----- -- ----- -- ---- ------<br>--- ----- --- --- ------ -------- ----- --- ------ ----- --<br>----- ----- ---------- --- --- ------ became ---- -- ------<br>------- --- ------ ----- --- ---- ------- -- ---- --- --<br>------- ------,272836.90000000596,272836,272355.109,272361,272371.775,272838.445,,39,became
screen,html.Screen,2_1_1_1_40,2022-02-15T14:10:34.743Z,,,,,,,,,,,,,,,,,54,,,,,,,,,,,,,,478.054999999993,,response,,,,100,,,,,,,Space,keypress(Space),,,,,,,,-- --- ---- --- ------ ----- ------- ---- -- --- ------- --<br>------- ---------- ------ -- ----- -- ----- -- ---- ------<br>--- ----- --- --- ------ -------- ----- --- ------ ----- --<br>----- ----- ---------- --- --- ------ ------ wary -- ------<br>------- --- ------ ----- --- ---- ------- -- ---- --- --<br>------- ------,273317.5,273316.5,272821.779,272837.09999999404,272838.445,273321.72,,40,wary
screen,html.Screen,2_1_1_1_41,2022-02-15T14:10:35.208Z,,,,,,,,,,,,,,,,,54,,,,,,,,,,,,,,459.58000001194887,,response,,,,100,,,,,,,Space,keypress(Space),,,,,,,,-- --- ---- --- ------ ----- ------- ---- -- --- ------- --<br>------- ---------- ------ -- ----- -- ----- -- ---- ------<br>--- ----- --- --- ------ -------- ----- --- ------ ----- --<br>----- ----- ---------- --- --- ------ ------ ---- of ------<br>------- --- ------ ----- --- ---- ------- -- ---- --- --<br>------- ------,273782.59999999404,273781.3000000119,273305.054,273317.6999999881,273321.72,273788.319,,41,of
screen,html.Screen,2_1_1_1_42,2022-02-15T14:10:35.765Z,,,,,,,,,,,,,,,,,54,,,,,,,,,,,,,,550.3809999880614,,response,,,,100,,,,,,,Space,keypress(Space),,,,,,,,-- --- ---- --- ------ ----- ------- ---- -- --- ------- --<br>------- ---------- ------ -- ----- -- ----- -- ---- ------<br>--- ----- --- --- ------ -------- ----- --- ------ ----- --<br>----- ----- ---------- --- --- ------ ------ ---- -- French<br>------- --- ------ ----- --- ---- ------- -- ---- --- --<br>------- ------,274339.6999999881,274338.6999999881,273771.653,273782.8000000119,273788.319,274354.973,,42,French
screen,html.Screen,2_1_1_1_43,2022-02-15T14:10:37.325Z,,,,,,,,,,,,,,,,,54,,,,,,,,,,,,,,1543.8270000119228,,response,,,,100,,,,,,,Space,keypress(Space),,,,,,,,-- --- ---- --- ------ ----- ------- ---- -- --- ------- --<br>------- ---------- ------ -- ----- -- ----- -- ---- ------<br>--- ----- --- --- ------ -------- ----- --- ------ ----- --<br>----- ----- ---------- --- --- ------ ------ ---- -- ------<br>credit. --- ------ ----- --- ---- ------- -- ---- --- --<br>------- ------,275899.6999999881,275898.8000000119,274338.307,274339.90000000596,274354.973,275904.879,,43,credit.
screen,html.Screen,2_1_1_1_44,2022-02-15T14:10:37.910Z,,,,,,,,,,,,,,,,,54,,,,,,,,,,,,,,578.5210000059451,,response,,,,100,,,,,,,Space,keypress(Space),,,,,,,,-- --- ---- --- ------ ----- ------- ---- -- --- ------- --<br>------- ---------- ------ -- ----- -- ----- -- ---- ------<br>--- ----- --- --- ------ -------- ----- --- ------ ----- --<br>----- ----- ---------- --- --- ------ ------ ---- -- ------<br>------- The ------ ----- --- ---- ------- -- ---- --- --<br>------- ------,276484.3000000119,276483.40000000596,275888.213,275899.90000000596,275904.879,276488.152,,44,The
screen,html.Screen,2_1_1_1_45,2022-02-15T14:10:38.448Z,,,,,,,,,,,,,,,,,54,,,,,,,,,,,,,,533.6480000119191,,response,,,,100,,,,,,,Space,keypress(Space),,,,,,,,-- --- ---- --- ------ ----- ------- ---- -- --- ------- --<br>------- ---------- ------ -- ----- -- ----- -- ---- ------<br>--- ----- --- --- ------ -------- ----- --- ------ ----- --<br>----- ----- ---------- --- --- ------ ------ ---- -- ------<br>------- --- French ----- --- ---- ------- -- ---- --- --<br>------- ------,277022.8000000119,277021.8000000119,276471.486,276484.5,276488.152,277038.066,,45,French
screen,html.Screen,2_1_1_1_46,2022-02-15T14:10:38.935Z,,,,,,,,,,,,,,,,,54,,,,,,,,,,,,,,470.13399998808745,,response,,,,100,,,,,,,Space,keypress(Space),,,,,,,,-- --- ---- --- ------ ----- ------- ---- -- --- ------- --<br>------- ---------- ------ -- ----- -- ----- -- ---- ------<br>--- ----- --- --- ------ -------- ----- --- ------ ----- --<br>----- ----- ---------- --- --- ------ ------ ---- -- ------<br>------- --- ------ state --- ---- ------- -- ---- --- --<br>------- ------,277509.09999999404,277508.1999999881,277021.4,277023,277038.066,277521.392,,46,state
screen,html.Screen,2_1_1_1_47,2022-02-15T14:10:39.441Z,,,,,,,,,,,,,,,,,54,,,,,,,,,,,,,,492.8079999880865,,response,,,,100,,,,,,,Space,keypress(Space),,,,,,,,-- --- ---- --- ------ ----- ------- ---- -- --- ------- --<br>------- ---------- ------ -- ----- -- ----- -- ---- ------<br>--- ----- --- --- ------ -------- ----- --- ------ ----- --<br>----- ----- ---------- --- --- ------ ------ ---- -- ------<br>------- --- ------ ----- was ---- ------- -- ---- --- --<br>------- ------,278015.1999999881,278014.1999999881,277504.726,277509.3000000119,277521.392,278021.335,,47,was
screen,html.Screen,2_1_1_1_48,2022-02-15T14:10:39.942Z,,,,,,,,,,,,,,,,,54,,,,,,,,,,,,,,494.4650000119,,response,,,,100,,,,,,,Space,keypress(Space),,,,,,,,-- --- ---- --- ------ ----- ------- ---- -- --- ------- --<br>------- ---------- ------ -- ----- -- ----- -- ---- ------<br>--- ----- --- --- ------ -------- ----- --- ------ ----- --<br>----- ----- ---------- --- --- ------ ------ ---- -- ------<br>------- --- ------ ----- --- left ------- -- ---- --- --<br>------- ------,278516.6999999881,278515.8000000119,278004.669,278015.40000000596,278021.335,278521.29,,48,left
screen,html.Screen,2_1_1_1_49,2022-02-15T14:10:40.413Z,,,,,,,,,,,,,,,,,54,,,,,,,,,,,,,,465.71000000002095,,response,,,,100,,,,,,,Space,keypress(Space),,,,,,,,-- --- ---- --- ------ ----- ------- ---- -- --- ------- --<br>------- ---------- ------ -- ----- -- ----- -- ---- ------<br>--- ----- --- --- ------ -------- ----- --- ------ ----- --<br>----- ----- ---------- --- --- ------ ------ ---- -- ------<br>------- --- ------ ----- --- ---- without -- ---- --- --<br>------- ------,278987.8000000119,278987,278504.624,278516.90000000596,278521.29,279004.581,,49,without
screen,html.Screen,2_1_1_1_50,2022-02-15T14:10:40.948Z,,,,,,,,,,,,,,,,,54,,,,,,,,,,,,,,499.71900001191534,,response,,,,100,,,,,,,Space,keypress(Space),,,,,,,,-- --- ---- --- ------ ----- ------- ---- -- --- ------- --<br>------- ---------- ------ -- ----- -- ----- -- ---- ------<br>--- ----- --- --- ------ -------- ----- --- ------ ----- --<br>----- ----- ---------- --- --- ------ ------ ---- -- ------<br>------- --- ------ ----- --- ---- ------- an ---- --- --<br>------- ------,279522.5,279504.3000000119,278987.915,278987.90000000596,279004.581,279537.869,,50,an
screen,html.Screen,2_1_1_1_51,2022-02-15T14:10:41.453Z,,,,,,,,,,,,,,,,,54,,,,,,,,,,,,,,488.7309999940335,,response,,,,100,,,,,,,Space,keypress(Space),,,,,,,,-- --- ---- --- ------ ----- ------- ---- -- --- ------- --<br>------- ---------- ------ -- ----- -- ----- -- ---- ------<br>--- ----- --- --- ------ -------- ----- --- ------ ----- --<br>----- ----- ---------- --- --- ------ ------ ---- -- ------<br>------- --- ------ ----- --- ---- ------- -- easy --- --<br>------- ------,280027.5,280026.59999999404,279521.203,279522.6999999881,279537.869,280037.812,,51,easy
screen,html.Screen,2_1_1_1_52,2022-02-15T14:10:41.981Z,,,,,,,,,,,,,,,,,54,,,,,,,,,,,,,,516.5880000059842,,response,,,,100,,,,,,,Space,keypress(Space),,,,,,,,-- --- ---- --- ------ ----- ------- ---- -- --- ------- --<br>------- ---------- ------ -- ----- -- ----- -- ---- ------<br>--- ----- --- --- ------ -------- ----- --- ------ ----- --<br>----- ----- ---------- --- --- ------ ------ ---- -- ------<br>------- --- ------ ----- --- ---- ------- -- ---- way --<br>------- ------,280555.3000000119,280554.40000000596,280021.146,280027.8000000119,280037.812,280571.103,,52,way
screen,html.Screen,2_1_1_1_53,2022-02-15T14:10:42.934Z,,,,,,,,,,,,,,,,,54,,,,,,,,,,,,,,935.8969999999972,,response,,,,100,,,,,,,Space,keypress(Space),,,,,,,,-- --- ---- --- ------ ----- ------- ---- -- --- ------- --<br>------- ---------- ------ -- ----- -- ----- -- ---- ------<br>--- ----- --- --- ------ -------- ----- --- ------ ----- --<br>----- ----- ---------- --- --- ------ ------ ---- -- ------<br>------- --- ------ ----- --- ---- ------- -- ---- --- of<br>------- ------,281508.09999999404,281507,280554.437,280555.5,280571.103,281521.034,,53,of
screen,html.Screen,2_1_1_1_54,2022-02-15T14:10:43.567Z,,,,,,,,,,,,,,,,,54,,,,,,,,,,,,,,618.8660000059754,,response,,,,100,,,,,,,Space,keypress(Space),,,,,,,,-- --- ---- --- ------ ----- ------- ---- -- --- ------- --<br>------- ---------- ------ -- ----- -- ----- -- ---- ------<br>--- ----- --- --- ------ -------- ----- --- ------ ----- --<br>----- ----- ---------- --- --- ------ ------ ---- -- ------<br>------- --- ------ ----- --- ---- ------- -- ---- --- --<br>raising ------,282141,282139.90000000596,281504.368,281508.3000000119,281521.034,282154.318,,54,raising
screen,html.Screen,2_1_1_1_55,2022-02-15T14:10:45.154Z,,,,,,,,,,,,,,,,,54,,,,,,,,,,,,,,1573.2819999940111,,response,,,,100,,,,,,,Space,keypress(Space),,,,,,,,-- --- ---- --- ------ ----- ------- ---- -- --- ------- --<br>------- ---------- ------ -- ----- -- ----- -- ---- ------<br>--- ----- --- --- ------ -------- ----- --- ------ ----- --<br>----- ----- ---------- --- --- ------ ------ ---- -- ------<br>------- --- ------ ----- --- ---- ------- -- ---- --- --<br>------- money.,283728.59999999404,283727.59999999404,282137.652,282141.1999999881,282154.318,283737.543,,55,money.
Item 100,flow.Loop,2_1_1_1,2022-02-15T14:10:45.154Z,,,,,,,,,,,,,,,,,,,,,,,,,,,,,,,37053.52999999403,,completion,,,,,F,,,,,,,,,,,silence,,,,,283728.8000000119,283727.59999999404,246657.404,246658.90000000596,246674.07,283737.543,,,
Question 1,html.Screen,2_1_1_2,2022-02-15T14:10:47.927Z,,,,,,,,,,,,,,,,,,,,,,,,,,,,true,TRUE,,2761.656999988074,,response,,,,100,F,,,,,,TRUE,click #choice-1,,,,silence,,,,,286500.5,286499.1999999881,283720.877,283729,283737.543,286503.927,,,
Question 2,html.Screen,2_1_1_3,2022-02-15T14:10:51.355Z,,,,,,,,,,,,,,,,,,,,,,,,,,,,true,FALSE,,3423.373000011896,,response,,,,100,F,,,,,,FALSE,click #choice-2,,,,silence,,,,,289929,289927.3000000119,286487.261,286500.6999999881,286503.927,289936.983,,,
Item 100,flow.Sequence,2_1_1,2022-02-15T14:10:51.355Z,,,,,,,,,,,,,,,,,,,,,,,,,,,,,,,53252.53400001192,,completion,,,,,,,,,,,,,,,,,,,,,289929.3000000119,289927.3000000119,236658.1,236662.40000000596,236674.766,289936.983,,,
End of Practice,html.Page,2_1_2,2022-02-15T14:10:59.582Z,,,,,,,,,,,,,,,,,,,,,,,,,,,,,,,8218.516999999993,,form submission,,,,,,,,,,,,,,,,,,,,,298155.90000000596,298155.5,289920.317,289929.5,289936.983,298169.61,,,
Practice,flow.Sequence,2_1,2022-02-15T14:10:59.583Z,,,,,,,,,,,,,,,,,,,,,,,,,,,,,,,140240.799,,completion,,,,,,,,,,,,,,,,,,,,,298156.8000000119,298155.5,157898.035,157905.19999998808,157914.701,298169.61,,,
Trap_instruction,html.Page,2_2_0,2022-02-15T14:11:04.402Z,,,,,,,,,,,,,,,,,,,,,,,,,,,,,,,4806.190000011935,,form submission,,,,,,,,,,,,,,,,,,,,,302976.1999999881,302975.8000000119,298152.944,298157,298169.61,303019.392,,,
trap_trial,html.Screen,2_2_1,2022-02-15T14:11:08.789Z,,,,,,,,,,,,,,,,,,,,,,,,,,,,true,1,,4341.508000005968,,response,,,,,,,,,,,1,click #choice-1,,,,,,,,,307362.40000000596,307360.90000000596,302969.394,302976.40000000596,303019.392,307368.982,,,
end of trap trial,html.Page,2_2_2,2022-02-15T14:11:12.481Z,,,,,,,,,,,,,,,,,,,,,,,,,,,,,,,3685.9180000059423,,form submission,,,,,,,,,,,,,,,,,,,,,311055.3000000119,311054.90000000596,307352.316,307362.59999999404,307368.982,311068.558,,,
Trap 1,flow.Sequence,2_2,2022-02-15T14:11:12.482Z,,,,,,,,,,,,,,,,,,,,,,,,,,,,,,,12885.290000005974,,completion,,,,,,,,,,,,,,,,,,,,,311055.59999999404,311054.90000000596,298152.944,298156.90000000596,298169.61,311068.558,,,
Standby,html.Page,2_3_0,2022-02-15T14:11:20.479Z,,,,,,,,,,,,,,,,,,,,,,,,,,,,,,,7999.619999999995,,timeout,,,,,,,,,,,,,,,,,,,,,319053.1999999881,319051.512,311051.892,311055.8000000119,311068.558,319068.178,,,
Holding screen,html.Screen,2_3_1_0_0,2022-02-15T14:11:27.478Z,,,,,,,,,,,,,,,,,,,,,,,,,,,,,,,6999.159999999974,,timeout,,,,,,,,,,,,,,,,,,,,,326052.09999999404,326050.672,319051.512,319053.59999999404,319068.178,326067.338,,,
screen,html.Screen,2_3_1_0_1_0,2022-02-15T14:11:30.449Z,,,,,,,,,,,,,,,,,48,,,,,,,,,,,,,,2954.2619999940507,,response,,,,10,F,,,,,,Space,keypress(Space),,,,instrumental,,,,As -- --- ------ ------- --------- ----------- --------<br>--------- -------- --- ------- -- ------- ---- -- ------<br>-- --- -------- -------- ---------- ---- ---- ---- ------<br>-- --------- -- ---- -- --- -- --- ------- -- - -----<br>---------- -- -- -- ---- ----- -- ------ -- --- ------<br>-------,329022.90000000596,329021.59999999404,326050.672,326052.40000000596,326067.338,329033.851,,0,As
screen,html.Screen,2_3_1_0_1_1,2022-02-15T14:11:31.172Z,,,,,,,,,,,,,,,,,48,,,,,,,,,,,,,,709.3489999880549,,response,,,,10,F,,,,,,Space,keypress(Space),,,,instrumental,,,,-- in --- ------ ------- --------- ----------- --------<br>--------- -------- --- ------- -- ------- ---- -- ------<br>-- --- -------- -------- ---------- ---- ---- ---- ------<br>-- --------- -- ---- -- --- -- --- ------- -- - -----<br>---------- -- -- -- ---- ----- -- ------ -- --- ------<br>-------,329745.5,329743.1999999881,329017.185,329023.09999999404,329033.851,329750.441,,1,in
screen,html.Screen,2_3_1_0_1_2,2022-02-15T14:11:31.938Z,,,,,,,,,,,,,,,,,48,,,,,,,,,,,,,,760.6589999940479,,response,,,,10,F,,,,,,Space,keypress(Space),,,,instrumental,,,,-- -- the ------ ------- --------- ----------- --------<br>--------- -------- --- ------- -- ------- ---- -- ------<br>-- --- -------- -------- ---------- ---- ---- ---- ------<br>-- --------- -- ---- -- --- -- --- ------- -- - -----<br>---------- -- -- -- ---- ----- -- ------ -- --- ------<br>-------,330512,330511.09999999404,329733.775,329745.6999999881,329750.441,330516.936,,2,the
screen,html.Screen,2_3_1_0_1_3,2022-02-15T14:11:32.563Z,,,,,,,,,,,,,,,,,48,,,,,,,,,,,,,,619.1639999940526,,response,,,,10,F,,,,,,Space,keypress(Space),,,,instrumental,,,,-- -- --- United ------- --------- ----------- --------<br>--------- -------- --- ------- -- ------- ---- -- ------<br>-- --- -------- -------- ---------- ---- ---- ---- ------<br>-- --------- -- ---- -- --- -- --- ------- -- - -----<br>---------- -- -- -- ---- ----- -- ------ -- --- ------<br>-------,331137,331136.09999999404,330500.27,330512.1999999881,330516.936,331150.222,,3,United
screen,html.Screen,2_3_1_0_1_4,2022-02-15T14:11:33.357Z,,,,,,,,,,,,,,,,,48,,,,,,,,,,,,,,779.8779999940307,,response,,,,10,F,,,,,,Space,keypress(Space),,,,instrumental,,,,"-- -- --- ------ States, --------- ----------- --------<br>--------- -------- --- ------- -- ------- ---- -- ------<br>-- --- -------- -------- ---------- ---- ---- ---- ------<br>-- --------- -- ---- -- --- -- --- ------- -- - -----<br>---------- -- -- -- ---- ----- -- ------ -- --- ------<br>-------",331931,331930.09999999404,331133.556,331137.3000000119,331150.222,331933.48,,4,"States,"
screen,html.Screen,2_3_1_0_1_5,2022-02-15T14:11:34.166Z,,,,,,,,,,,,,,,,,48,,,,,,,,,,,,,,805.1199999940582,,response,,,,10,F,,,,,,Space,keypress(Space),,,,instrumental,,,,-- -- --- ------ ------- Colombian ----------- --------<br>--------- -------- --- ------- -- ------- ---- -- ------<br>-- --- -------- -------- ---------- ---- ---- ---- ------<br>-- --------- -- ---- -- --- -- --- ------- -- - -----<br>---------- -- -- -- ---- ----- -- ------ -- --- ------<br>-------,332739.5,332738.59999999404,331916.814,331931.3000000119,331933.48,332750.071,,5,Colombian
screen,html.Screen,2_3_1_0_1_6,2022-02-15T14:11:34.853Z,,,,,,,,,,,,,,,,,48,,,,,,,,,,,,,,675.8290000059642,,response,,,,10,F,,,,,,Space,keypress(Space),,,,instrumental,,,,-- -- --- ------ ------- --------- legislation --------<br>--------- -------- --- ------- -- ------- ---- -- ------<br>-- --- -------- -------- ---------- ---- ---- ---- ------<br>-- --------- -- ---- -- --- -- --- ------- -- - -----<br>---------- -- -- -- ---- ----- -- ------ -- --- ------<br>-------,333426.8000000119,333425.90000000596,332733.405,332739.59999999404,332750.071,333433.38,,6,legislation
screen,html.Screen,2_3_1_0_1_7,2022-02-15T14:11:35.537Z,,,,,,,,,,,,,,,,,48,,,,,,,,,,,,,,676.9200000119163,,response,,,,10,F,,,,,,Space,keypress(Space),,,,instrumental,,,,-- -- --- ------ ------- --------- ----------- requires<br>--------- -------- --- ------- -- ------- ---- -- ------<br>-- --- -------- -------- ---------- ---- ---- ---- ------<br>-- --------- -- ---- -- --- -- --- ------- -- - -----<br>---------- -- -- -- ---- ----- -- ------ -- --- ------<br>-------,334111.1999999881,334110.3000000119,333416.714,333426.90000000596,333433.38,334116.619,,7,requires
screen,html.Screen,2_3_1_0_1_8,2022-02-15T14:11:36.200Z,,,,,,,,,,,,,,,,,48,,,,,,,,,,,,,,655.580999988073,,response,,,,10,F,,,,,,Space,keypress(Space),,,,instrumental,,,,-- -- --- ------ ------- --------- ----------- --------<br>travelers -------- --- ------- -- ------- ---- -- ------<br>-- --- -------- -------- ---------- ---- ---- ---- ------<br>-- --------- -- ---- -- --- -- --- ------- -- - -----<br>---------- -- -- -- ---- ----- -- ------ -- --- ------<br>-------,334773.90000000596,334772.1999999881,334099.953,334111.40000000596,334116.619,334783.269,,8,travelers
screen,html.Screen,2_3_1_0_1_9,2022-02-15T14:11:36.881Z,,,,,,,,,,,,,,,,,48,,,,,,,,,,,,,,670.6310000059893,,response,,,,10,F,,,,,,Space,keypress(Space),,,,instrumental,,,,-- -- --- ------ ------- --------- ----------- --------<br>--------- entering --- ------- -- ------- ---- -- ------<br>-- --- -------- -------- ---------- ---- ---- ---- ------<br>-- --------- -- ---- -- --- -- --- ------- -- - -----<br>---------- -- -- -- ---- ----- -- ------ -- --- ------<br>-------,335454.8000000119,335453.90000000596,334766.603,334774.09999999404,334783.269,335466.508,,9,entering
screen,html.Screen,2_3_1_0_1_10,2022-02-15T14:11:37.457Z,,,,,,,,,,,,,,,,,48,,,,,,,,,,,,,,563.6919999881065,,response,,,,10,F,,,,,,Space,keypress(Space),,,,instrumental,,,,-- -- --- ------ ------- --------- ----------- --------<br>--------- -------- the ------- -- ------- ---- -- ------<br>-- --- -------- -------- ---------- ---- ---- ---- ------<br>-- --------- -- ---- -- --- -- --- ------- -- - -----<br>---------- -- -- -- ---- ----- -- ------ -- --- ------<br>-------,336031.09999999404,336030.1999999881,335449.842,335455,335466.508,336033.124,,10,the
screen,html.Screen,2_3_1_0_1_11,2022-02-15T14:11:38.111Z,,,,,,,,,,,,,,,,,48,,,,,,,,,,,,,,651.2760000059498,,response,,,,10,F,,,,,,Space,keypress(Space),,,,instrumental,,,,-- -- --- ------ ------- --------- ----------- --------<br>--------- -------- --- country -- ------- ---- -- ------<br>-- --- -------- -------- ---------- ---- ---- ---- ------<br>-- --------- -- ---- -- --- -- --- ------- -- - -----<br>---------- -- -- -- ---- ----- -- ------ -- --- ------<br>-------,336685.3000000119,336684.40000000596,336016.458,336031.40000000596,336033.124,336699.728,,11,country
screen,html.Screen,2_3_1_0_1_12,2022-02-15T14:11:38.850Z,,,,,,,,,,,,,,,,,48,,,,,,,,,,,,,,723.1720000059577,,response,,,,10,F,,,,,,Space,keypress(Space),,,,instrumental,,,,-- -- --- ------ ------- --------- ----------- --------<br>--------- -------- --- ------- to ------- ---- -- ------<br>-- --- -------- -------- ---------- ---- ---- ---- ------<br>-- --------- -- ---- -- --- -- --- ------- -- - -----<br>---------- -- -- -- ---- ----- -- ------ -- --- ------<br>-------,337423.8000000119,337422.90000000596,336683.062,336685.5,336699.728,337433.013,,12,to
screen,html.Screen,2_3_1_0_1_13,2022-02-15T14:11:39.540Z,,,,,,,,,,,,,,,,,48,,,,,,,,,,,,,,680.1869999881019,,response,,,,10,F,,,,,,Space,keypress(Space),,,,instrumental,,,,-- -- --- ------ ------- --------- ----------- --------<br>--------- -------- --- ------- -- declare ---- -- ------<br>-- --- -------- -------- ---------- ---- ---- ---- ------<br>-- --------- -- ---- -- --- -- --- ------- -- - -----<br>---------- -- -- -- ---- ----- -- ------ -- --- ------<br>-------,338114.1999999881,338113.1999999881,337416.347,337424,337433.013,338116.272,,13,declare
screen,html.Screen,2_3_1_0_1_14,2022-02-15T14:11:40.612Z,,,,,,,,,,,,,,,,,48,,,,,,,,,,,,,,1069.1280000059633,,response,,,,10,F,,,,,,Space,keypress(Space),,,,instrumental,,,,-- -- --- ------ ------- --------- ----------- --------<br>--------- -------- --- ------- -- ------- cash -- ------<br>-- --- -------- -------- ---------- ---- ---- ---- ------<br>-- --------- -- ---- -- --- -- --- ------- -- - -----<br>---------- -- -- -- ---- ----- -- ------ -- --- ------<br>-------,339186.40000000596,339185.40000000596,338099.606,338114.40000000596,338116.272,339199.579,,14,cash
screen,html.Screen,2_3_1_0_1_15,2022-02-15T14:11:41.262Z,,,,,,,,,,,,,,,,,48,,,,,,,,,,,,,,634.920999999973,,response,,,,10,F,,,,,,Space,keypress(Space),,,,instrumental,,,,-- -- --- ------ ------- --------- ----------- --------<br>--------- -------- --- ------- -- ------- ---- in ------<br>-- --- -------- -------- ---------- ---- ---- ---- ------<br>-- --------- -- ---- -- --- -- --- ------- -- - -----<br>---------- -- -- -- ---- ----- -- ------ -- --- ------<br>-------,339835.6999999881,339834.5,339182.913,339186.5,339199.579,339849.515,,15,in
screen,html.Screen,2_3_1_0_1_16,2022-02-15T14:11:41.978Z,,,,,,,,,,,,,,,,,48,,,,,,,,,,,,,,698.785000011907,,response,,,,10,F,,,,,,Space,keypress(Space),,,,instrumental,,,,-- -- --- ------ ------- --------- ----------- --------<br>--------- -------- --- ------- -- ------- ---- -- excess<br>-- --- -------- -------- ---------- ---- ---- ---- ------<br>-- --------- -- ---- -- --- -- --- ------- -- - -----<br>---------- -- -- -- ---- ----- -- ------ -- --- ------<br>-------,340552,340548.3000000119,339832.849,339835.90000000596,339849.515,340566.078,,16,excess
screen,html.Screen,2_3_1_0_1_17,2022-02-15T14:11:42.526Z,,,,,,,,,,,,,,,,,48,,,,,,,,,,,,,,533.2220000119414,,response,,,,10,F,,,,,,Space,keypress(Space),,,,instrumental,,,,-- -- --- ------ ------- --------- ----------- --------<br>--------- -------- --- ------- -- ------- ---- -- ------<br>of --- -------- -------- ---------- ---- ---- ---- ------<br>-- --------- -- ---- -- --- -- --- ------- -- - -----<br>---------- -- -- -- ---- ----- -- ------ -- --- ------<br>-------,341100.1999999881,341099.3000000119,340549.412,340552.1999999881,340566.078,341116.068,,17,of
screen,html.Screen,2_3_1_0_1_18,2022-02-15T14:11:43.152Z,,,,,,,,,,,,,,,,,48,,,,,,,,,,,,,,608.2320000118925,,response,,,,10,F,,,,,,Space,keypress(Space),,,,instrumental,,,,-- -- --- ------ ------- --------- ----------- --------<br>--------- -------- --- ------- -- ------- ---- -- ------<br>-- ten -------- -------- ---------- ---- ---- ---- ------<br>-- --------- -- ---- -- --- -- --- ------- -- - -----<br>---------- -- -- -- ---- ----- -- ------ -- --- ------<br>-------,341725.8000000119,341724.3000000119,341099.402,341100.40000000596,341116.068,341732.635,,18,ten
screen,html.Screen,2_3_1_0_1_19,2022-02-15T14:11:43.868Z,,,,,,,,,,,,,,,,,48,,,,,,,,,,,,,,708.6650000119116,,response,,,,10,F,,,,,,Space,keypress(Space),,,,instrumental,,,,-- -- --- ------ ------- --------- ----------- --------<br>--------- -------- --- ------- -- ------- ---- -- ------<br>-- --- thousand -------- ---------- ---- ---- ---- ------<br>-- --------- -- ---- -- --- -- --- ------- -- - -----<br>---------- -- -- -- ---- ----- -- ------ -- --- ------<br>-------,342442.3000000119,342441.3000000119,341715.969,341726.09999999404,341732.635,342449.248,,19,thousand
screen,html.Screen,2_3_1_0_1_20,2022-02-15T14:11:44.806Z,,,,,,,,,,,,,,,,,48,,,,,,,,,,,,,,930.2519999999786,,response,,,,10,F,,,,,,Space,keypress(Space),,,,instrumental,,,,-- -- --- ------ ------- --------- ----------- --------<br>--------- -------- --- ------- -- ------- ---- -- ------<br>-- --- -------- dollars. ---------- ---- ---- ---- ------<br>-- --------- -- ---- -- --- -- --- ------- -- - -----<br>---------- -- -- -- ---- ----- -- ------ -- --- ------<br>-------,343380.3000000119,343379.5,342432.582,342442.40000000596,342449.248,343382.527,,20,dollars.
screen,html.Screen,2_3_1_0_1_21,2022-02-15T14:11:45.526Z,,,,,,,,,,,,,,,,,48,,,,,,,,,,,,,,715.7730000119191,,response,,,,10,F,,,,,,Space,keypress(Space),,,,instrumental,,,,-- -- --- ------ ------- --------- ----------- --------<br>--------- -------- --- ------- -- ------- ---- -- ------<br>-- --- -------- -------- Concealing ---- ---- ---- ------<br>-- --------- -- ---- -- --- -- --- ------- -- - -----<br>---------- -- -- -- ---- ----- -- ------ -- --- ------<br>-------,344099.40000000596,344098.3000000119,343365.861,343380.59999999404,343382.527,344115.818,,21,Concealing
screen,html.Screen,2_3_1_0_1_22,2022-02-15T14:11:46.227Z,,,,,,,,,,,,,,,,,48,,,,,,,,,,,,,,684.5820000059321,,response,,,,10,F,,,,,,Space,keypress(Space),,,,instrumental,,,,-- -- --- ------ ------- --------- ----------- --------<br>--------- -------- --- ------- -- ------- ---- -- ------<br>-- --- -------- -------- ---------- more ---- ---- ------<br>-- --------- -- ---- -- --- -- --- ------- -- - -----<br>---------- -- -- -- ---- ----- -- ------ -- --- ------<br>-------,344801.3000000119,344800.40000000596,344099.152,344099.59999999404,344115.818,344815.751,,22,more
screen,html.Screen,2_3_1_0_1_23,2022-02-15T14:11:46.772Z,,,,,,,,,,,,,,,,,48,,,,,,,,,,,,,,497.9489999880898,,response,,,,10,F,,,,,,Space,keypress(Space),,,,instrumental,,,,-- -- --- ------ ------- --------- ----------- --------<br>--------- -------- --- ------- -- ------- ---- -- ------<br>-- --- -------- -------- ---------- ---- than ---- ------<br>-- --------- -- ---- -- --- -- --- ------- -- - -----<br>---------- -- -- -- ---- ----- -- ------ -- --- ------<br>-------,345345.3000000119,345313.6999999881,344799.085,344801.40000000596,344815.751,345349.004,,23,than
screen,html.Screen,2_3_1_0_1_24,2022-02-15T14:11:47.247Z,,,,,,,,,,,,,,,,,48,,,,,,,,,,,,,,470.99599999998463,,response,,,,10,F,,,,,,Space,keypress(Space),,,,instrumental,,,,-- -- --- ------ ------- --------- ----------- --------<br>--------- -------- --- ------- -- ------- ---- -- ------<br>-- --- -------- -------- ---------- ---- ---- that ------<br>-- --------- -- ---- -- --- -- --- ------- -- - -----<br>---------- -- -- -- ---- ----- -- ------ -- --- ------<br>-------,345821,345820,345332.338,345345.8000000119,345349.004,345832.305,,24,that
screen,html.Screen,2_3_1_0_1_25,2022-02-15T14:11:48.011Z,,,,,,,,,,,,,,,,,48,,,,,,,,,,,,,,751.2949999940465,,response,,,,10,F,,,,,,Space,keypress(Space),,,,instrumental,,,,-- -- --- ------ ------- --------- ----------- --------<br>--------- -------- --- ------- -- ------- ---- -- ------<br>-- --- -------- -------- ---------- ---- ---- ---- amount<br>-- --------- -- ---- -- --- -- --- ------- -- - -----<br>---------- -- -- -- ---- ----- -- ------ -- --- ------<br>-------,346584.5,346583.59999999404,345815.639,345821.1999999881,345832.305,346598.902,,25,amount
screen,html.Screen,2_3_1_0_1_26,2022-02-15T14:11:48.636Z,,,,,,,,,,,,,,,,,48,,,,,,,,,,,,,,609.8980000119191,,response,,,,10,F,,,,,,Space,keypress(Space),,,,instrumental,,,,-- -- --- ------ ------- --------- ----------- --------<br>--------- -------- --- ------- -- ------- ---- -- ------<br>-- --- -------- -------- ---------- ---- ---- ---- ------<br>to --------- -- ---- -- --- -- --- ------- -- - -----<br>---------- -- -- -- ---- ----- -- ------ -- --- ------<br>-------,347209.59999999404,347208.8000000119,346582.236,346584.6999999881,346598.902,347215.561,,26,to
screen,html.Screen,2_3_1_0_1_27,2022-02-15T14:11:49.202Z,,,,,,,,,,,,,,,,,48,,,,,,,,,,,,,,558.8390000059735,,response,,,,10,F,,,,,,Space,keypress(Space),,,,instrumental,,,,-- -- --- ------ ------- --------- ----------- --------<br>--------- -------- --- ------- -- ------- ---- -- ------<br>-- --- -------- -------- ---------- ---- ---- ---- ------<br>-- transport -- ---- -- --- -- --- ------- -- - -----<br>---------- -- -- -- ---- ----- -- ------ -- --- ------<br>-------,347775.40000000596,347774.40000000596,347198.895,347209.90000000596,347215.561,347782.132,,27,transport
screen,html.Screen,2_3_1_0_1_28,2022-02-15T14:11:49.763Z,,,,,,,,,,,,,,,,,48,,,,,,,,,,,,,,553.0679999880958,,response,,,,10,F,,,,,,Space,keypress(Space),,,,instrumental,,,,-- -- --- ------ ------- --------- ----------- --------<br>--------- -------- --- ------- -- ------- ---- -- ------<br>-- --- -------- -------- ---------- ---- ---- ---- ------<br>-- --------- it ---- -- --- -- --- ------- -- - -----<br>---------- -- -- -- ---- ----- -- ------ -- --- ------<br>-------,348336.5,348335.1999999881,347765.466,347775.59999999404,347782.132,348348.766,,28,it
screen,html.Screen,2_3_1_0_1_29,2022-02-15T14:11:50.291Z,,,,,,,,,,,,,,,,,48,,,,,,,,,,,,,,514.7339999999967,,response,,,,10,F,,,,,,Space,keypress(Space),,,,instrumental,,,,-- -- --- ------ ------- --------- ----------- --------<br>--------- -------- --- ------- -- ------- ---- -- ------<br>-- --- -------- -------- ---------- ---- ---- ---- ------<br>-- --------- -- into -- --- -- --- ------- -- - -----<br>---------- -- -- -- ---- ----- -- ------ -- --- ------<br>-------,348864.6999999881,348863.5,348332.1,348336.6999999881,348348.766,348882.038,,29,into
screen,html.Screen,2_3_1_0_1_30,2022-02-15T14:11:50.801Z,,,,,,,,,,,,,,,,,48,,,,,,,,,,,,,,492.36200000596,,response,,,,10,F,,,,,,Space,keypress(Space),,,,instrumental,,,,-- -- --- ------ ------- --------- ----------- --------<br>--------- -------- --- ------- -- ------- ---- -- ------<br>-- --- -------- -------- ---------- ---- ---- ---- ------<br>-- --------- -- ---- or --- -- --- ------- -- - -----<br>---------- -- -- -- ---- ----- -- ------ -- --- ------<br>-------,349375.40000000596,349374.40000000596,348865.372,348864.90000000596,348882.038,349381.989,,30,or
screen,html.Screen,2_3_1_0_1_31,2022-02-15T14:11:51.265Z,,,,,,,,,,,,,,,,,48,,,,,,,,,,,,,,456.31100001191953,,response,,,,10,F,,,,,,Space,keypress(Space),,,,instrumental,,,,-- -- --- ------ ------- --------- ----------- --------<br>--------- -------- --- ------- -- ------- ---- -- ------<br>-- --- -------- -------- ---------- ---- ---- ---- ------<br>-- --------- -- ---- -- out -- --- ------- -- - -----<br>---------- -- -- -- ---- ----- -- ------ -- --- ------<br>-------,349839.1999999881,349838.3000000119,349365.323,349375.59999999404,349381.989,349848.619,,31,out
screen,html.Screen,2_3_1_0_1_32,2022-02-15T14:11:51.725Z,,,,,,,,,,,,,,,,,48,,,,,,,,,,,,,,449.080999988073,,response,,,,10,F,,,,,,Space,keypress(Space),,,,instrumental,,,,-- -- --- ------ ------- --------- ----------- --------<br>--------- -------- --- ------- -- ------- ---- -- ------<br>-- --- -------- -------- ---------- ---- ---- ---- ------<br>-- --------- -- ---- -- --- of --- ------- -- - -----<br>---------- -- -- -- ---- ----- -- ------ -- --- ------<br>-------,350298.59999999404,350297.6999999881,349831.953,349839.5,349848.619,350315.244,,32,of
screen,html.Screen,2_3_1_0_1_33,2022-02-15T14:11:52.181Z,,,,,,,,,,,,,,,,,48,,,,,,,,,,,,,,438.3559999940335,,response,,,,10,F,,,,,,Space,keypress(Space),,,,instrumental,,,,-- -- --- ------ ------- --------- ----------- --------<br>--------- -------- --- ------- -- ------- ---- -- ------<br>-- --- -------- -------- ---------- ---- ---- ---- ------<br>-- --------- -- ---- -- --- -- the ------- -- - -----<br>---------- -- -- -- ---- ----- -- ------ -- --- ------<br>-------,350754.40000000596,350753.59999999404,350298.578,350298.8000000119,350315.244,350765.213,,33,the
screen,html.Screen,2_3_1_0_1_34,2022-02-15T14:11:52.719Z,,,,,,,,,,,,,,,,,48,,,,,,,,,,,,,,521.2870000000112,,response,,,,10,F,,,,,,Space,keypress(Space),,,,instrumental,,,,-- -- --- ------ ------- --------- ----------- --------<br>--------- -------- --- ------- -- ------- ---- -- ------<br>-- --- -------- -------- ---------- ---- ---- ---- ------<br>-- --------- -- ---- -- --- -- --- country -- - -----<br>---------- -- -- -- ---- ----- -- ------ -- --- ------<br>-------,351293.09999999404,351286.5,350748.547,350754.59999999404,350765.213,351298.501,,34,country
screen,html.Screen,2_3_1_0_1_35,2022-02-15T14:11:53.196Z,,,,,,,,,,,,,,,,,48,,,,,,,,,,,,,,470.4990000000107,,response,,,,10,F,,,,,,Space,keypress(Space),,,,instrumental,,,,-- -- --- ------ ------- --------- ----------- --------<br>--------- -------- --- ------- -- ------- ---- -- ------<br>-- --- -------- -------- ---------- ---- ---- ---- ------<br>-- --------- -- ---- -- --- -- --- ------- is - -----<br>---------- -- -- -- ---- ----- -- ------ -- --- ------<br>-------,351770,351769,351281.835,351293.40000000596,351298.501,351781.868,,35,is
screen,html.Screen,2_3_1_0_1_36,2022-02-15T14:11:53.660Z,,,,,,,,,,,,,,,,,48,,,,,,,,,,,,,,450.8319999880623,,response,,,,10,F,,,,,,Space,keypress(Space),,,,instrumental,,,,-- -- --- ------ ------- --------- ----------- --------<br>--------- -------- --- ------- -- ------- ---- -- ------<br>-- --- -------- -------- ---------- ---- ---- ---- ------<br>-- --------- -- ---- -- --- -- --- ------- -- a -----<br>---------- -- -- -- ---- ----- -- ------ -- --- ------<br>-------,352233.5,352232.6999999881,351765.202,351770.3000000119,351781.868,352248.427,,36,a
screen,html.Screen,2_3_1_0_1_37,2022-02-15T14:11:54.408Z,,,,,,,,,,,,,,,,,48,,,,,,,,,,,,,,732.5729999999749,,response,,,,10,F,,,,,,Space,keypress(Space),,,,instrumental,,,,-- -- --- ------ ------- --------- ----------- --------<br>--------- -------- --- ------- -- ------- ---- -- ------<br>-- --- -------- -------- ---------- ---- ---- ---- ------<br>-- --------- -- ---- -- --- -- --- ------- -- - crime<br>---------- -- -- -- ---- ----- -- ------ -- --- ------<br>-------,352981.8000000119,352981,352231.761,352233.6999999881,352248.427,352998.398,,37,crime
screen,html.Screen,2_3_1_0_1_38,2022-02-15T14:11:55.007Z,,,,,,,,,,,,,,,,,48,,,,,,,,,,,,,,576.1020000000135,,response,,,,10,F,,,,,,Space,keypress(Space),,,,instrumental,,,,-- -- --- ------ ------- --------- ----------- --------<br>--------- -------- --- ------- -- ------- ---- -- ------<br>-- --- -------- -------- ---------- ---- ---- ---- ------<br>-- --------- -- ---- -- --- -- --- ------- -- - -----<br>punishable -- -- -- ---- ----- -- ------ -- --- ------<br>-------,353580.40000000596,353574.5,352981.732,352982.09999999404,352998.398,353581.688,,38,punishable
screen,html.Screen,2_3_1_0_1_39,2022-02-15T14:11:55.484Z,,,,,,,,,,,,,,,,,48,,,,,,,,,,,,,,475.6120000118972,,response,,,,10,F,,,,,,Space,keypress(Space),,,,instrumental,,,,-- -- --- ------ ------- --------- ----------- --------<br>--------- -------- --- ------- -- ------- ---- -- ------<br>-- --- -------- -------- ---------- ---- ---- ---- ------<br>-- --------- -- ---- -- --- -- --- ------- -- - -----<br>---------- by -- -- ---- ----- -- ------ -- --- ------<br>-------,354058.1999999881,354057.3000000119,353565.022,353580.59999999404,353581.688,354064.951,,39,by
screen,html.Screen,2_3_1_0_1_40,2022-02-15T14:11:55.935Z,,,,,,,,,,,,,,,,,48,,,,,,,,,,,,,,443.04899999999907,,response,,,,10,F,,,,,,Space,keypress(Space),,,,instrumental,,,,-- -- --- ------ ------- --------- ----------- --------<br>--------- -------- --- ------- -- ------- ---- -- ------<br>-- --- -------- -------- ---------- ---- ---- ---- ------<br>-- --------- -- ---- -- --- -- --- ------- -- - -----<br>---------- -- up -- ---- ----- -- ------ -- --- ------<br>-------,354509.09999999404,354508,354048.285,354058.40000000596,354064.951,354514.897,,40,up
screen,html.Screen,2_3_1_0_1_41,2022-02-15T14:11:56.367Z,,,,,,,,,,,,,,,,,48,,,,,,,,,,,,,,425.30299998808187,,response,,,,10,F,,,,,,Space,keypress(Space),,,,instrumental,,,,-- -- --- ------ ------- --------- ----------- --------<br>--------- -------- --- ------- -- ------- ---- -- ------<br>-- --- -------- -------- ---------- ---- ---- ---- ------<br>-- --------- -- ---- -- --- -- --- ------- -- - -----<br>---------- -- -- to ---- ----- -- ------ -- --- ------<br>-------,354941.1999999881,354940.1999999881,354498.231,354509.3000000119,354514.897,354948.214,,41,to
screen,html.Screen,2_3_1_0_1_42,2022-02-15T14:11:56.821Z,,,,,,,,,,,,,,,,,48,,,,,,,,,,,,,,445.98599998810096,,response,,,,10,F,,,,,,Space,keypress(Space),,,,instrumental,,,,-- -- --- ------ ------- --------- ----------- --------<br>--------- -------- --- ------- -- ------- ---- -- ------<br>-- --- -------- -------- ---------- ---- ---- ---- ------<br>-- --------- -- ---- -- --- -- --- ------- -- - -----<br>---------- -- -- -- five ----- -- ------ -- --- ------<br>-------,355395,355394.1999999881,354931.548,354941.40000000596,354948.214,355398.16,,42,five
