sender,sender_type,sender_id,timestamp,meta,,Blues,Classical,Country,Dance,Electronic,Folk,Gospel,Hip-Hop,Jazz,Latin,Musical/Film,New-age,Pop,Prolific_id,Provo_ID,R&B,Rap,Reggae,Religious,Rock,Soul,Swing,Traditional,age,artist_name,correct,correctResponse,distraction,duration,education,ended_on,familiarity,gender,headphone_check_performance,item,list,music_frequency,offensiveness,pleasantness,position_correct,preference,response,response_action,snippet_file,song_name,song_rating,sound,stimulus_1,stimulus_2,stimulus_3,text,time_commit,time_end,time_render,time_run,time_show,time_switch,url,word,word_ID
Prolific ID,html.Form,0,2022-02-03T13:03:48.049Z,"{""labjs_version"":""20.2.2"",""labjs_build"":{""flavor"":""production"",""commit"":""a25486e0c714a0ae2ce03ff94b7bb6896854dcfa""},""location"":""https://run.pavlovia.org/mvasilev/prolific2_music_f/"",""userAgent"":""Mozilla/5.0 (Windows NT 10.0; Win64; x64) AppleWebKit/537.36 (KHTML, like Gecko) Chrome/97.0.4692.99 Safari/537.36 Edg/97.0.1072.76"",""platform"":""Win32"",""language"":""en-GB"",""locale"":""en-GB"",""timeZone"":""Europe/London"",""timezoneOffset"":0,""screen_width"":1504,""screen_height"":1003,""scroll_width"":1504,""scroll_height"":836,""window_innerWidth"":1504,""window_innerHeight"":884,""devicePixelRatio"":1.5}",,,,,,,,,,,,,,,616555ec3460f0a519c1cdff,,,,,,,,,,,,,,,3437.1659998569485,,form submission,,,,,,,,,,,,,,,,,,,,,10704,10703.399999856949,7236.726,7245.699999809265,7266.234,10712.592,{},,
Introduction,html.Screen,1_0,2022-02-03T13:04:16.237Z,,,,,,,,,,,,,,,,,,,,,,,,,,,,,,,28175.107999809265,,response,,,,,,,,,,,continue,click button,,,,,,,,,38891.5,38887.699999809265,10696.004,10704.5,10712.592,38894.865,,,
Volume calibration,html.Screen,1_1,2022-02-03T13:04:20.423Z,,,,,,,,,,,,,,,,,,,,,,,,,,,,,,,4177.834999809267,,response,,,,,,,,,,,continue,click button,,,,,,,,,43077.89999985695,43072.699999809265,38878.213,38891.799999952316,38894.865,43090.396,,,
Task instructions,html.Screen,1_2,2022-02-03T13:04:22.260Z,,,,,,,,,,,,,,,,,,,,,,,,,,,,,,,1822.1039999999994,,response,,,,,,,,,,,continue,click button,,,,,,,,,44914.299999952316,44912.5,43068.147,43078.09999990463,43090.396,44927.734,,,
Sounds,html.Screen,1_3_0_0,2022-02-03T13:04:26.515Z,,,,,,,,,,,,,,,,,,,,,,,,,,,,,,,4255.915000000001,,timeout,,,,,,,,,3,,,,,,,,I,O,S,,49168.699999809265,49166.828,44911.25,44914.59999990463,44927.734,49183.649,,,
Judgement,html.Screen,1_3_0_1,2022-02-03T13:04:31.809Z,,,,,,,,,,,,,,,,,,,,,,,,,,,,false,3,,5277.450999904635,,response,,,,,,,,,3,,1,click #choice-1,,,,,I,O,S,,54462.59999990463,54461.09999990463,49166.828,49168.799999952316,49183.649,54471.169,,,
Trial,flow.Sequence,1_3_0,2022-02-03T13:04:31.812Z,,,,,,,,,,,,,,,,,,,,,,,,,,,,,,,9533.365999904636,,completion,,,,,,,,,3,,,,,,,,I,O,S,,54465.799999952316,54461.09999990463,44911.25,44914.5,44927.734,54471.169,,,
Sounds,html.Screen,1_3_1_0,2022-02-03T13:04:36.052Z,,,,,,,,,,,,,,,,,,,,,,,,,,,,,,,4249.542999999998,,timeout,,,,,,,,,1,,,,,,,,S,I,O,,58705.39999985695,58704.454,54454.349,54466.299999952316,54471.169,58720.712,,,
Judgement,html.Screen,1_3_1_1,2022-02-03T13:04:36.513Z,,,,,,,,,,,,,,,,,,,,,,,,,,,,true,1,,444.08799995231675,,response,,,,,,,,,1,,1,click #choice-1,,,,,S,I,O,,59166.89999985695,59164.799999952316,58704.454,58705.699999809265,58720.712,59178.356,,,
Trial,flow.Sequence,1_3_1,2022-02-03T13:04:36.513Z,,,,,,,,,,,,,,,,,,,,,,,,,,,,,,,4693.630999952315,,completion,,,,,,,,,1,,,,,,,,S,I,O,,59167.199999809265,59164.799999952316,54454.349,54466,54471.169,59178.356,,,
Sounds,html.Screen,1_3_2_0,2022-02-03T13:04:40.762Z,,,,,,,,,,,,,,,,,,,,,,,,,,,,,,,4252.603999999999,,timeout,,,,,,,,,3,,,,,,,,O,I,S,,63415.799999952316,63414.49,59161.694,59167.39999985695,59178.356,63430.96,,,
Judgement,html.Screen,1_3_2_1,2022-02-03T13:04:41.349Z,,,,,,,,,,,,,,,,,,,,,,,,,,,,true,3,,571.1399999046334,,response,,,,,,,,,3,,3,click #choice-3,,,,,O,I,S,,64003.199999809265,64002.09999990463,63414.49,63416,63430.96,64014.844,,,
Trial,flow.Sequence,1_3_2,2022-02-03T13:04:41.350Z,,,,,,,,,,,,,,,,,,,,,,,,,,,,,,,4823.743999904633,,completion,,,,,,,,,3,,,,,,,,O,I,S,,64003.699999809265,64002.09999990463,59161.694,59167.299999952316,59178.356,64014.844,,,
Sounds,html.Screen,1_3_3_0,2022-02-03T13:04:45.592Z,,,,,,,,,,,,,,,,,,,,,,,,,,,,,,,4246.0869999999995,,timeout,,,,,,,,,2,,,,,,,,I,S,O,,68245.59999990463,68244.444,63997.634,64003.89999985695,64014.844,68260.931,,,
Judgement,html.Screen,1_3_3_1,2022-02-03T13:04:46.172Z,,,,,,,,,,,,,,,,,,,,,,,,,,,,true,2,,563.5690000000031,,response,,,,,,,,,2,,2,click #choice-2,,,,,I,S,O,,68826.39999985695,68824.5,68244.444,68245.79999995232,68260.931,68827.504,,,
Trial,flow.Sequence,1_3_3,2022-02-03T13:04:46.173Z,,,,,,,,,,,,,,,,,,,,,,,,,,,,,,,4809.656000000003,,completion,,,,,,,,,2,,,,,,,,I,S,O,,68826.59999990463,68824.5,63997.634,64003.799999952316,64014.844,68827.504,,,
Sounds,html.Screen,1_3_4_0,2022-02-03T13:04:50.411Z,,,,,,,,,,,,,,,,,,,,,,,,,,,,,,,4252.9389999999985,,timeout,,,,,,,,,2,,,,,,,,O,S,I,,73065.19999980927,73063.939,68811.099,68826.79999995232,68827.504,73080.443,,,
Judgement,html.Screen,1_3_4_1,2022-02-03T13:04:50.823Z,,,,,,,,,,,,,,,,,,,,,,,,,,,,true,2,,395.356999952317,,response,,,,,,,,,2,,2,click #choice-2,,,,,O,S,I,,73476.79999995232,73475.79999995232,73063.939,73065.39999985695,73080.443,73491.133,,,
Trial,flow.Sequence,1_3_4,2022-02-03T13:04:50.823Z,,,,,,,,,,,,,,,,,,,,,,,,,,,,,,,4648.2959999523155,,completion,,,,,,,,,2,,,,,,,,O,S,I,,73477.29999995232,73475.79999995232,68811.099,68826.69999980927,68827.504,73491.133,,,
Sounds,html.Screen,1_3_5_0,2022-02-03T13:04:55.066Z,,,,,,,,,,,,,,,,,,,,,,,,,,,,,,,4244.705000000002,,timeout,,,,,,,,,1,,,,,,,,S,O,I,,77720.29999995232,77719.145,73474.675,73477.5,73491.133,77735.838,,,
Judgement,html.Screen,1_3_5_1,2022-02-03T13:04:55.631Z,,,,,,,,,,,,,,,,,,,,,,,,,,,,true,1,,547.5619998569455,,response,,,,,,,,,1,,1,click #choice-1,,,,,S,O,I,,78284.79999995232,78283.39999985695,77719.145,77720.5,77735.838,78286.09,,,
Trial,flow.Sequence,1_3_5,2022-02-03T13:04:55.631Z,,,,,,,,,,,,,,,,,,,,,,,,,,,,,,,4792.266999856947,,completion,,,,,,,,,1,,,,,,,,S,O,I,,78285.09999990463,78283.39999985695,73474.675,73477.5,73491.133,78286.09,,,
Task,flow.Loop,1_3,2022-02-03T13:04:55.638Z,,,,,,,,,,,,,,,,,,,,,,,,,,,,,,,33355.66599985695,,completion,,,0.8333333333333334,,,,,,,,,,,,,,,,,,78292.29999995232,78283.39999985695,44911.25,44914.39999985695,44927.734,78286.09,,,
Trap,html.Screen,1_4,2022-02-03T13:04:55.640Z,,,,,,,,,,,,,,,,,,,,,,,,,,,,,,,NaN,,skipped,,,,,,,,,,,,,,,,,,,,,78294,78283.39999985695,,78293.79999995232,,78286.09,,,
Thanks,html.Screen,1_5,2022-02-03T13:04:57.931Z,,,,,,,,,,,,,,,,,,,,,,,,,,,,,,,2296.8099998569523,,response,,,,,,,,,,,continue,click button,,,,,,,,,80585.09999990463,80582.89999985695,78269.827,78294.19999980927,78286.09,84208.4,,,
Headphone screening,flow.Sequence,1,2022-02-03T13:04:57.931Z,,,,,,,,,,,,,,,,,,,,,,,,,,,,,,,69870.30799985694,,completion,,,,,,,,,,,,,,,,,,,,,80585.39999985695,80582.89999985695,10696.004,10704.5,10712.592,84208.4,,,
Instructions,html.Page,2_0,2022-02-03T13:05:06.373Z,,,,,,,,,,,,,,,,,,,,,,,,,,,,,,,4817.999999856955,,form submission,,,,,,,,,,,,,,,,,,,,,89026.89999985695,89026.39999985695,84192.788,84207.59999990463,84208.4,89039.843,,,
Holding screen,html.Screen,2_1_0_0,2022-02-03T13:05:16.370Z,,,,,,,,,,,,,,,,,,,,,,,,,,,,,,,9999.26000000001,,timeout,,,,,,,,,,,,,,,,,,,,,99024,99022.797,89023.252,89027.19999980927,89039.843,99039.103,,,
screen,html.Screen,2_1_0_1_0,2022-02-03T13:05:17.201Z,,,,,,,,,,,,,,,,,53,,,,,,,,,,,,,,811.4969999046298,,response,,,,99,,,,,,,Space,keypress(Space),,,,,,,,When -- ----- -- ------ - ------- --- ----------<br>------------- ------ ------ ---- ---- ------- ----- -- ----<br>-------- ------- -- ---------- --- - --- ----- ----- ----<br>---- --- --- ----- --- ---- ---- ------- ----- ---- -------<br>--- --- -- ----- -- --- ---- -- --- ---- -- ------ ------<br>--- ----- -- ----,99854.39999985695,99850.59999990463,99022.797,99024.29999995232,99039.103,99889.293,,0,When
screen,html.Screen,2_1_0_1_1,2022-02-03T13:05:17.577Z,,,,,,,,,,,,,,,,,53,,,,,,,,,,,,,,340.40699980926,,response,,,,99,,,,,,,Space,keypress(Space),,,,,,,,---- it ----- -- ------ - ------- --- ----------<br>------------- ------ ------ ---- ---- ------- ----- -- ----<br>-------- ------- -- ---------- --- - --- ----- ----- ----<br>---- --- --- ----- --- ---- ---- ------- ----- ---- -------<br>--- --- -- ----- -- --- ---- -- --- ---- -- ------ ------<br>--- ----- -- ----,100230.5,100229.69999980927,99839.548,99854.59999990463,99889.293,100256.635,,1,it
screen,html.Screen,2_1_0_1_2,2022-02-03T13:05:17.957Z,,,,,,,,,,,,,,,,,53,,,,,,,,,,,,,,353.5649998092704,,response,,,,99,,,,,,,Space,keypress(Space),,,,,,,,---- -- comes -- ------ - ------- --- ----------<br>------------- ------ ------ ---- ---- ------- ----- -- ----<br>-------- ------- -- ---------- --- - --- ----- ----- ----<br>---- --- --- ----- --- ---- ---- ------- ----- ---- -------<br>--- --- -- ----- -- --- ---- -- --- ---- -- ------ ------<br>--- ----- -- ----,100611,100610.19999980927,100223.609,100230.69999980927,100256.635,100633.029,,2,comes
screen,html.Screen,2_1_0_1_3,2022-02-03T13:05:18.297Z,,,,,,,,,,,,,,,,,53,,,,,,,,,,,,,,316.971000000005,,response,,,,99,,,,,,,Space,keypress(Space),,,,,,,,---- -- ----- to ------ - ------- --- ----------<br>------------- ------ ------ ---- ---- ------- ----- -- ----<br>-------- ------- -- ---------- --- - --- ----- ----- ----<br>---- --- --- ----- --- ---- ---- ------- ----- ---- -------<br>--- --- -- ----- -- --- ---- -- --- ---- -- ------ ------<br>--- ----- -- ----,100950.69999980927,100950,100599.86,100611.09999990463,100633.029,100979.239,,3,to
screen,html.Screen,2_1_0_1_4,2022-02-03T13:05:18.617Z,,,,,,,,,,,,,,,,,53,,,,,,,,,,,,,,290.86099990463117,,response,,,,99,,,,,,,Space,keypress(Space),,,,,,,,---- -- ----- -- having - ------- --- ----------<br>------------- ------ ------ ---- ---- ------- ----- -- ----<br>-------- ------- -- ---------- --- - --- ----- ----- ----<br>---- --- --- ----- --- ---- ---- ------- ----- ---- -------<br>--- --- -- ----- -- --- ---- -- --- ---- -- ------ ------<br>--- ----- -- ----,101270.79999995232,101270.09999990463,100946.984,100950.89999985695,100979.239,101308.909,,4,having
screen,html.Screen,2_1_0_1_5,2022-02-03T13:05:18.958Z,,,,,,,,,,,,,,,,,53,,,,,,,,,,,,,,301.2909998092655,,response,,,,99,,,,,,,Space,keypress(Space),,,,,,,,---- -- ----- -- ------ a ------- --- ----------<br>------------- ------ ------ ---- ---- ------- ----- -- ----<br>-------- ------- -- ---------- --- - --- ----- ----- ----<br>---- --- --- ----- --- ---- ---- ------- ----- ---- -------<br>--- --- -- ----- -- --- ---- -- --- ---- -- ------ ------<br>--- ----- -- ----,101612.09999990463,101610.19999980927,101270.048,101271,101308.909,101649.293,,5,a
screen,html.Screen,2_1_0_1_6,2022-02-03T13:05:19.278Z,,,,,,,,,,,,,,,,,53,,,,,,,,,,,,,,281.40699980926,,response,,,,99,,,,,,,Space,keypress(Space),,,,,,,,---- -- ----- -- ------ - lasting --- ----------<br>------------- ------ ------ ---- ---- ------- ----- -- ----<br>-------- ------- -- ---------- --- - --- ----- ----- ----<br>---- --- --- ----- --- ---- ---- ------- ----- ---- -------<br>--- --- -- ----- -- --- ---- -- --- ---- -- ------ ------<br>--- ----- -- ----,101931.5,101930.69999980927,101606.672,101612.19999980927,101649.293,101960.218,,6,lasting
screen,html.Screen,2_1_0_1_7,2022-02-03T13:05:19.578Z,,,,,,,,,,,,,,,,,53,,,,,,,,,,,,,,270.48199980927166,,response,,,,99,,,,,,,Space,keypress(Space),,,,,,,,---- -- ----- -- ------ - ------- and ----------<br>------------- ------ ------ ---- ---- ------- ----- -- ----<br>-------- ------- -- ---------- --- - --- ----- ----- ----<br>---- --- --- ----- --- ---- ---- ------- ----- ---- -------<br>--- --- -- ----- -- --- ---- -- --- ---- -- ------ ------<br>--- ----- -- ----,102231.39999985695,102230.69999980927,101931.389,101931.69999980927,101960.218,102269.135,,7,and
screen,html.Screen,2_1_0_1_8,2022-02-03T13:05:19.897Z,,,,,,,,,,,,,,,,,53,,,,,,,,,,,,,,280.6649999523215,,response,,,,99,,,,,,,Space,keypress(Space),,,,,,,,---- -- ----- -- ------ - ------- --- fulfilling<br>------------- ------ ------ ---- ---- ------- ----- -- ----<br>-------- ------- -- ---------- --- - --- ----- ----- ----<br>---- --- --- ----- --- ---- ---- ------- ----- ---- -------<br>--- --- -- ----- -- --- ---- -- --- ---- -- ------ ------<br>--- ----- -- ----,102550.69999980927,102549.79999995232,102217.448,102231.59999990463,102269.135,102589.204,,8,fulfilling
screen,html.Screen,2_1_0_1_9,2022-02-03T13:05:20.227Z,,,,,,,,,,,,,,,,,53,,,,,,,,,,,,,,291.19599985695095,,response,,,,99,,,,,,,Space,keypress(Space),,,,,,,,"---- -- ----- -- ------ - ------- --- ----------<br>relationship, ------ ------ ---- ---- ------- ----- -- ----<br>-------- ------- -- ---------- --- - --- ----- ----- ----<br>---- --- --- ----- --- ---- ---- ------- ----- ---- -------<br>--- --- -- ----- -- --- ---- -- --- ---- -- ------ ------<br>--- ----- -- ----",102881.19999980927,102880.39999985695,102550.485,102550.79999995232,102589.204,102903.517,,9,"relationship,"
screen,html.Screen,2_1_0_1_10,2022-02-03T13:05:20.557Z,,,,,,,,,,,,,,,,,53,,,,,,,,,,,,,,306.2829999523092,,response,,,,99,,,,,,,Space,keypress(Space),,,,,,,,---- -- ----- -- ------ - ------- --- ----------<br>------------- common ------ ---- ---- ------- ----- -- ----<br>-------- ------- -- ---------- --- - --- ----- ----- ----<br>---- --- --- ----- --- ---- ---- ------- ----- ---- -------<br>--- --- -- ----- -- --- ---- -- --- ---- -- ------ ------<br>--- ----- -- ----,103210.59999990463,103209.79999995232,102869.869,102881.5,102903.517,103238.825,,10,common
screen,html.Screen,2_1_0_1_11,2022-02-03T13:05:20.867Z,,,,,,,,,,,,,,,,,53,,,,,,,,,,,,,,281.6750000000029,,response,,,,99,,,,,,,Space,keypress(Space),,,,,,,,---- -- ----- -- ------ - ------- --- ----------<br>------------- ------ wisdom ---- ---- ------- ----- -- ----<br>-------- ------- -- ---------- --- - --- ----- ----- ----<br>---- --- --- ----- --- ---- ---- ------- ----- ---- -------<br>--- --- -- ----- -- --- ---- -- --- ---- -- ------ ------<br>--- ----- -- ----,103521.29999995232,103520.5,103200.725,103210.79999995232,103238.825,103549.045,,11,wisdom
screen,html.Screen,2_1_0_1_12,2022-02-03T13:05:21.137Z,,,,,,,,,,,,,,,,,53,,,,,,,,,,,,,,240.8549998569506,,response,,,,99,,,,,,,Space,keypress(Space),,,,,,,,---- -- ----- -- ------ - ------- --- ----------<br>------------- ------ ------ says ---- ------- ----- -- ----<br>-------- ------- -- ---------- --- - --- ----- ----- ----<br>---- --- --- ----- --- ---- ---- ------- ----- ---- -------<br>--- --- -- ----- -- --- ---- -- --- ---- -- ------ ------<br>--- ----- -- ----,103790.59999990463,103789.89999985695,103513.261,103521.5,103549.045,103829.053,,12,says
screen,html.Screen,2_1_0_1_13,2022-02-03T13:05:21.447Z,,,,,,,,,,,,,,,,,53,,,,,,,,,,,,,,271.2469999523164,,response,,,,99,,,,,,,Space,keypress(Space),,,,,,,,---- -- ----- -- ------ - ------- --- ----------<br>------------- ------ ------ ---- that ------- ----- -- ----<br>-------- ------- -- ---------- --- - --- ----- ----- ----<br>---- --- --- ----- --- ---- ---- ------- ----- ---- -------<br>--- --- -- ----- -- --- ---- -- --- ---- -- ------ ------<br>--- ----- -- ----,104101.09999990463,104100.29999995232,103790.681,103790.89999985695,103829.053,104129.004,,13,that
screen,html.Screen,2_1_0_1_14,2022-02-03T13:05:21.719Z,,,,,,,,,,,,,,,,,53,,,,,,,,,,,,,,242.99599999999919,,response,,,,99,,,,,,,Space,keypress(Space),,,,,,,,---- -- ----- -- ------ - ------- --- ----------<br>------------- ------ ------ ---- ---- feeling ----- -- ----<br>-------- ------- -- ---------- --- - --- ----- ----- ----<br>---- --- --- ----- --- ---- ---- ------- ----- ---- -------<br>--- --- -- ----- -- --- ---- -- --- ---- -- ------ ------<br>--- ----- -- ----,104372.89999985695,104372,104093.302,104101.19999980927,104129.004,104402.417,,14,feeling
screen,html.Screen,2_1_0_1_15,2022-02-03T13:05:22.007Z,,,,,,,,,,,,,,,,,53,,,,,,,,,,,,,,257.882999952315,,response,,,,99,,,,,,,Space,keypress(Space),,,,,,,,---- -- ----- -- ------ - ------- --- ----------<br>------------- ------ ------ ---- ---- ------- close -- ----<br>-------- ------- -- ---------- --- - --- ----- ----- ----<br>---- --- --- ----- --- ---- ---- ------- ----- ---- -------<br>--- --- -- ----- -- --- ---- -- --- ---- -- ------ ------<br>--- ----- -- ----,104661.19999980927,104660.29999995232,104370.568,104373,104402.417,104699.112,,15,close
screen,html.Screen,2_1_0_1_16,2022-02-03T13:05:22.327Z,,,,,,,,,,,,,,,,,53,,,,,,,,,,,,,,281.18799995232257,,response,,,,99,,,,,,,Space,keypress(Space),,,,,,,,---- -- ----- -- ------ - ------- --- ----------<br>------------- ------ ------ ---- ---- ------- ----- to ----<br>-------- ------- -- ---------- --- - --- ----- ----- ----<br>---- --- --- ----- --- ---- ---- ------- ----- ---- -------<br>--- --- -- ----- -- --- ---- -- --- ---- -- ------ ------<br>--- ----- -- ----,104981.09999990463,104980.29999995232,104658.893,104661.29999995232,104699.112,105010.403,,16,to
screen,html.Screen,2_1_0_1_17,2022-02-03T13:05:22.627Z,,,,,,,,,,,,,,,,,53,,,,,,,,,,,,,,269.99699985694315,,response,,,,99,,,,,,,Space,keypress(Space),,,,,,,,---- -- ----- -- ------ - ------- --- ----------<br>------------- ------ ------ ---- ---- ------- ----- -- your<br>-------- ------- -- ---------- --- - --- ----- ----- ----<br>---- --- --- ----- --- ---- ---- ------- ----- ---- -------<br>--- --- -- ----- -- --- ---- -- --- ---- -- ------ ------<br>--- ----- -- ----,105281.09999990463,105280.39999985695,104980.122,104981.19999980927,105010.403,105319.029,,17,your
screen,html.Screen,2_1_0_1_18,2022-02-03T13:05:22.887Z,,,,,,,,,,,,,,,,,53,,,,,,,,,,,,,,221.17099980927014,,response,,,,99,,,,,,,Space,keypress(Space),,,,,,,,---- -- ----- -- ------ - ------- --- ----------<br>------------- ------ ------ ---- ---- ------- ----- -- ----<br>romantic ------- -- ---------- --- - --- ----- ----- ----<br>---- --- --- ----- --- ---- ---- ------- ----- ---- -------<br>--- --- -- ----- -- --- ---- -- --- ---- -- ------ ------<br>--- ----- -- ----,105541,105540.19999980927,105266.947,105281.39999985695,105319.029,105566.801,,18,romantic
screen,html.Screen,2_1_0_1_19,2022-02-03T13:05:23.147Z,,,,,,,,,,,,,,,,,53,,,,,,,,,,,,,,233.49899995230953,,response,,,,99,,,,,,,Space,keypress(Space),,,,,,,,---- -- ----- -- ------ - ------- --- ----------<br>------------- ------ ------ ---- ---- ------- ----- -- ----<br>-------- partner -- ---------- --- - --- ----- ----- ----<br>---- --- --- ----- --- ---- ---- ------- ----- ---- -------<br>--- --- -- ----- -- --- ---- -- --- ---- -- ------ ------<br>--- ----- -- ----,105801,105800.29999995232,105533.945,105541.09999990463,105566.801,105828.845,,19,partner
screen,html.Screen,2_1_0_1_20,2022-02-03T13:05:23.408Z,,,,,,,,,,,,,,,,,53,,,,,,,,,,,,,,231.7549999046314,,response,,,,99,,,,,,,Space,keypress(Space),,,,,,,,---- -- ----- -- ------ - ------- --- ----------<br>------------- ------ ------ ---- ---- ------- ----- -- ----<br>-------- ------- is ---------- --- - --- ----- ----- ----<br>---- --- --- ----- --- ---- ---- ------- ----- ---- -------<br>--- --- -- ----- -- --- ---- -- --- ---- -- ------ ------<br>--- ----- -- ----,106061.39999985695,106060.59999990463,105793.419,105801.19999980927,105828.845,106089.045,,20,is
screen,html.Screen,2_1_0_1_21,2022-02-03T13:05:23.667Z,,,,,,,,,,,,,,,,,53,,,,,,,,,,,,,,230.75499995231803,,response,,,,99,,,,,,,Space,keypress(Space),,,,,,,,---- -- ----- -- ------ - ------- --- ----------<br>------------- ------ ------ ---- ---- ------- ----- -- ----<br>-------- ------- -- paramount. --- - --- ----- ----- ----<br>---- --- --- ----- --- ---- ---- ------- ----- ---- -------<br>--- --- -- ----- -- --- ---- -- --- ---- -- ------ ------<br>--- ----- -- ----,106320.59999990463,106319.79999995232,106053.682,106061.59999990463,106089.045,106348.844,,21,paramount.
screen,html.Screen,2_1_0_1_22,2022-02-03T13:05:23.977Z,,,,,,,,,,,,,,,,,53,,,,,,,,,,,,,,281.55599985695153,,response,,,,99,,,,,,,Space,keypress(Space),,,,,,,,---- -- ----- -- ------ - ------- --- ----------<br>------------- ------ ------ ---- ---- ------- ----- -- ----<br>-------- ------- -- ---------- But - --- ----- ----- ----<br>---- --- --- ----- --- ---- ---- ------- ----- ---- -------<br>--- --- -- ----- -- --- ---- -- --- ---- -- ------ ------<br>--- ----- -- ----,106631.19999980927,106630.39999985695,106314.097,106320.79999995232,106348.844,106658.905,,22,But
screen,html.Screen,2_1_0_1_23,2022-02-03T13:05:24.247Z,,,,,,,,,,,,,,,,,53,,,,,,,,,,,,,,241.19499990463373,,response,,,,99,,,,,,,Space,keypress(Space),,,,,,,,---- -- ----- -- ------ - ------- --- ----------<br>------------- ------ ------ ---- ---- ------- ----- -- ----<br>-------- ------- -- ---------- --- a --- ----- ----- ----<br>---- --- --- ----- --- ---- ---- ------- ----- ---- -------<br>--- --- -- ----- -- --- ---- -- --- ---- -- ------ ------<br>--- ----- -- ----,106900.89999985695,106900.09999990463,106623.32,106631.39999985695,106658.905,106938.924,,23,a
screen,html.Screen,2_1_0_1_24,2022-02-03T13:05:24.508Z,,,,,,,,,,,,,,,,,53,,,,,,,,,,,,,,221.77599980926607,,response,,,,99,,,,,,,Space,keypress(Space),,,,,,,,---- -- ----- -- ------ - ------- --- ----------<br>------------- ------ ------ ---- ---- ------- ----- -- ----<br>-------- ------- -- ---------- --- - new ----- ----- ----<br>---- --- --- ----- --- ---- ---- ------- ----- ---- -------<br>--- --- -- ----- -- --- ---- -- --- ---- -- ------ ------<br>--- ----- -- ----,107161.59999990463,107160.69999980927,106900.313,106901.09999990463,106938.924,107188.913,,24,new
screen,html.Screen,2_1_0_1_25,2022-02-03T13:05:24.787Z,,,,,,,,,,,,,,,,,53,,,,,,,,,,,,,,251.4869998569484,,response,,,,99,,,,,,,Space,keypress(Space),,,,,,,,---- -- ----- -- ------ - ------- --- ----------<br>------------- ------ ------ ---- ---- ------- ----- -- ----<br>-------- ------- -- ---------- --- - --- study ----- ----<br>---- --- --- ----- --- ---- ---- ------- ----- ---- -------<br>--- --- -- ----- -- --- ---- -- --- ---- -- ------ ------<br>--- ----- -- ----,107441.19999980927,107440.39999985695,107153.35,107161.69999980927,107188.913,107464.523,,25,study
screen,html.Screen,2_1_0_1_26,2022-02-03T13:05:25.047Z,,,,,,,,,,,,,,,,,53,,,,,,,,,,,,,,235.3769998569478,,response,,,,99,,,,,,,Space,keypress(Space),,,,,,,,---- -- ----- -- ------ - ------- --- ----------<br>------------- ------ ------ ---- ---- ------- ----- -- ----<br>-------- ------- -- ---------- --- - --- ----- finds ----<br>---- --- --- ----- --- ---- ---- ------- ----- ---- -------<br>--- --- -- ----- -- --- ---- -- --- ---- -- ------ ------<br>--- ----- -- ----,107700.69999980927,107699.89999985695,107431.243,107441.39999985695,107464.523,107729.816,,26,finds
screen,html.Screen,2_1_0_1_27,2022-02-03T13:05:25.315Z,,,,,,,,,,,,,,,,,53,,,,,,,,,,,,,,238.2839999046264,,response,,,,99,,,,,,,Space,keypress(Space),,,,,,,,---- -- ----- -- ------ - ------- --- ----------<br>------------- ------ ------ ---- ---- ------- ----- -- ----<br>-------- ------- -- ---------- --- - --- ----- ----- that<br>---- --- --- ----- --- ---- ---- ------- ----- ---- -------<br>--- --- -- ----- -- --- ---- -- --- ---- -- ------ ------<br>--- ----- -- ----,107968.89999985695,107968.09999990463,107693.947,107701,107729.816,107997.835,,27,that
screen,html.Screen,2_1_0_1_28,2022-02-03T13:05:25.626Z,,,,,,,,,,,,,,,,,53,,,,,,,,,,,,,,281.56499985694245,,response,,,,99,,,,,,,Space,keypress(Space),,,,,,,,---- -- ----- -- ------ - ------- --- ----------<br>------------- ------ ------ ---- ---- ------- ----- -- ----<br>-------- ------- -- ---------- --- - --- ----- ----- ----<br>it's --- --- ----- --- ---- ---- ------- ----- ---- -------<br>--- --- -- ----- -- --- ---- -- --- ---- -- ------ ------<br>--- ----- -- ----,108280.09999990463,108279.39999985695,107969.649,107969.19999980927,107997.835,108309.578,,28,it's
screen,html.Screen,2_1_0_1_29,2022-02-03T13:05:25.877Z,,,,,,,,,,,,,,,,,53,,,,,,,,,,,,,,220.62199980927107,,response,,,,99,,,,,,,Space,keypress(Space),,,,,,,,---- -- ----- -- ------ - ------- --- ----------<br>------------- ------ ------ ---- ---- ------- ----- -- ----<br>-------- ------- -- ---------- --- - --- ----- ----- ----<br>---- not --- ----- --- ---- ---- ------- ----- ---- -------<br>--- --- -- ----- -- --- ---- -- --- ---- -- ------ ------<br>--- ----- -- ----,108531.09999990463,108530.19999980927,108271.59,108280.29999995232,108309.578,108561.374,,29,not
screen,html.Screen,2_1_0_1_30,2022-02-03T13:05:26.102Z,,,,,,,,,,,,,,,,,53,,,,,,,,,,,,,,194.12600000000384,,response,,,,99,,,,,,,Space,keypress(Space),,,,,,,,---- -- ----- -- ------ - ------- --- ----------<br>------------- ------ ------ ---- ---- ------- ----- -- ----<br>-------- ------- -- ---------- --- - --- ----- ----- ----<br>---- --- how ----- --- ---- ---- ------- ----- ---- -------<br>--- --- -- ----- -- --- ---- -- --- ---- -- ------ ------<br>--- ----- -- ----,108756.29999995232,108755.5,108516.33,108531.19999980927,108561.374,108784.849,,30,how
screen,html.Screen,2_1_0_1_31,2022-02-03T13:05:26.362Z,,,,,,,,,,,,,,,,,53,,,,,,,,,,,,,,230.4509999523143,,response,,,,99,,,,,,,Space,keypress(Space),,,,,,,,---- -- ----- -- ------ - ------- --- ----------<br>------------- ------ ------ ---- ---- ------- ----- -- ----<br>-------- ------- -- ---------- --- - --- ----- ----- ----<br>---- --- --- close --- ---- ---- ------- ----- ---- -------<br>--- --- -- ----- -- --- ---- -- --- ---- -- ------ ------<br>--- ----- -- ----,109016,109015.29999995232,108749.908,108756.5,108784.849,109045.991,,31,close
screen,html.Screen,2_1_0_1_32,2022-02-03T13:05:26.612Z,,,,,,,,,,,,,,,,,53,,,,,,,,,,,,,,219.10899990463804,,response,,,,99,,,,,,,Space,keypress(Space),,,,,,,,---- -- ----- -- ------ - ------- --- ----------<br>------------- ------ ------ ---- ---- ------- ----- -- ----<br>-------- ------- -- ---------- --- - --- ----- ----- ----<br>---- --- --- ----- you ---- ---- ------- ----- ---- -------<br>--- --- -- ----- -- --- ---- -- --- ---- -- ------ ------<br>--- ----- -- ----,109265.79999995232,109265.09999990463,109009.005,109016.09999990463,109045.991,109295.011,,32,you
screen,html.Screen,2_1_0_1_33,2022-02-03T13:05:26.904Z,,,,,,,,,,,,,,,,,53,,,,,,,,,,,,,,261.7889999523177,,response,,,,99,,,,,,,Space,keypress(Space),,,,,,,,---- -- ----- -- ------ - ------- --- ----------<br>------------- ------ ------ ---- ---- ------- ----- -- ----<br>-------- ------- -- ---------- --- - --- ----- ----- ----<br>---- --- --- ----- --- feel ---- ------- ----- ---- -------<br>--- --- -- ----- -- --- ---- -- --- ---- -- ------ ------<br>--- ----- -- ----,109557.69999980927,109556.79999995232,109251.967,109266,109295.011,109587.406,,33,feel
screen,html.Screen,2_1_0_1_34,2022-02-03T13:05:27.174Z,,,,,,,,,,,,,,,,,53,,,,,,,,,,,,,,238.99399985694617,,response,,,,99,,,,,,,Space,keypress(Space),,,,,,,,---- -- ----- -- ------ - ------- --- ----------<br>------------- ------ ------ ---- ---- ------- ----- -- ----<br>-------- ------- -- ---------- --- - --- ----- ----- ----<br>---- --- --- ----- --- ---- that ------- ----- ---- -------<br>--- --- -- ----- -- --- ---- -- --- ---- -- ------ ------<br>--- ----- -- ----,109827.39999985695,109826.39999985695,109551.691,109557.79999995232,109587.406,109856.312,,34,that
screen,html.Screen,2_1_0_1_35,2022-02-03T13:05:27.445Z,,,,,,,,,,,,,,,,,53,,,,,,,,,,,,,,241.7879999046272,,response,,,,99,,,,,,,Space,keypress(Space),,,,,,,,---- -- ----- -- ------ - ------- --- ----------<br>------------- ------ ------ ---- ---- ------- ----- -- ----<br>-------- ------- -- ---------- --- - --- ----- ----- ----<br>---- --- --- ----- --- ---- ---- matters ----- ---- -------<br>--- --- -- ----- -- --- ---- -- --- ---- -- ------ ------<br>--- ----- -- ----,110099,110098.09999990463,109826.763,109827.59999990463,109856.312,110125.136,,35,matters
screen,html.Screen,2_1_0_1_36,2022-02-03T13:05:27.741Z,,,,,,,,,,,,,,,,,53,,,,,,,,,,,,,,269.3640000000014,,response,,,,99,,,,,,,Space,keypress(Space),,,,,,,,"---- -- ----- -- ------ - ------- --- ----------<br>------------- ------ ------ ---- ---- ------- ----- -- ----<br>-------- ------- -- ---------- --- - --- ----- ----- ----<br>---- --- --- ----- --- ---- ---- ------- most, ---- -------<br>--- --- -- ----- -- --- ---- -- --- ---- -- ------ ------<br>--- ----- -- ----",110395.29999995232,110394.5,110096.544,110099.19999980927,110125.136,110423.431,,36,"most,"
screen,html.Screen,2_1_0_1_37,2022-02-03T13:05:28.024Z,,,,,,,,,,,,,,,,,53,,,,,,,,,,,,,,253.968999856952,,response,,,,99,,,,,,,Space,keypress(Space),,,,,,,,---- -- ----- -- ------ - ------- --- ----------<br>------------- ------ ------ ---- ---- ------- ----- -- ----<br>-------- ------- -- ---------- --- - --- ----- ----- ----<br>---- --- --- ----- --- ---- ---- ------- ----- it's -------<br>--- --- -- ----- -- --- ---- -- --- ---- -- ------ ------<br>--- ----- -- ----,110678.09999990463,110677.39999985695,110384.405,110395.5,110423.431,110707.736,,37,it's
screen,html.Screen,2_1_0_1_38,2022-02-03T13:05:28.291Z,,,,,,,,,,,,,,,,,53,,,,,,,,,,,,,,236.36399990462814,,response,,,,99,,,,,,,Space,keypress(Space),,,,,,,,---- -- ----- -- ------ - ------- --- ----------<br>------------- ------ ------ ---- ---- ------- ----- -- ----<br>-------- ------- -- ---------- --- - --- ----- ----- ----<br>---- --- --- ----- --- ---- ---- ------- ----- ---- whether<br>--- --- -- ----- -- --- ---- -- --- ---- -- ------ ------<br>--- ----- -- ----,110944.89999985695,110944.09999990463,110664.25,110678.39999985695,110707.736,110974.464,,38,whether
screen,html.Screen,2_1_0_1_39,2022-02-03T13:05:28.588Z,,,,,,,,,,,,,,,,,53,,,,,,,,,,,,,,266.93599985694163,,response,,,,99,,,,,,,Space,keypress(Space),,,,,,,,---- -- ----- -- ------ - ------- --- ----------<br>------------- ------ ------ ---- ---- ------- ----- -- ----<br>-------- ------- -- ---------- --- - --- ----- ----- ----<br>---- --- --- ----- --- ---- ---- ------- ----- ---- -------<br>you --- -- ----- -- --- ---- -- --- ---- -- ------ ------<br>--- ----- -- ----,111242.09999990463,111241.39999985695,110930.707,110945,110974.464,111271.005,,39,you
screen,html.Screen,2_1_0_1_40,2022-02-03T13:05:28.876Z,,,,,,,,,,,,,,,,,53,,,,,,,,,,,,,,257.6949998092605,,response,,,,99,,,,,,,Space,keypress(Space),,,,,,,,---- -- ----- -- ------ - ------- --- ----------<br>------------- ------ ------ ---- ---- ------- ----- -- ----<br>-------- ------- -- ---------- --- - --- ----- ----- ----<br>---- --- --- ----- --- ---- ---- ------- ----- ---- -------<br>--- are -- ----- -- --- ---- -- --- ---- -- ------ ------<br>--- ----- -- ----,111529.5,111528.69999980927,111230.739,111243.29999995232,111271.005,111558.866,,40,are
screen,html.Screen,2_1_0_1_41,2022-02-03T13:05:29.130Z,,,,,,,,,,,,,,,,,53,,,,,,,,,,,,,,224.63400000000547,,response,,,,99,,,,,,,Space,keypress(Space),,,,,,,,---- -- ----- -- ------ - ------- --- ----------<br>------------- ------ ------ ---- ---- ------- ----- -- ----<br>-------- ------- -- ---------- --- - --- ----- ----- ----<br>---- --- --- ----- --- ---- ---- ------- ----- ---- -------<br>--- --- as ----- -- --- ---- -- --- ---- -- ------ ------<br>--- ----- -- ----,111784.39999985695,111783.5,111528.741,111529.69999980927,111558.866,111813.861,,41,as
screen,html.Screen,2_1_0_1_42,2022-02-03T13:05:29.349Z,,,,,,,,,,,,,,,,,53,,,,,,,,,,,,,,188.03899985694443,,response,,,,99,,,,,,,Space,keypress(Space),,,,,,,,---- -- ----- -- ------ - ------- --- ----------<br>------------- ------ ------ ---- ---- ------- ----- -- ----<br>-------- ------- -- ---------- --- - --- ----- ----- ----<br>---- --- --- ----- --- ---- ---- ------- ----- ---- -------<br>--- --- -- close -- --- ---- -- --- ---- -- ------ ------<br>--- ----- -- ----,112002.69999980927,112001.89999985695,111781.924,111784.5,111813.861,112032.563,,42,close
screen,html.Screen,2_1_0_1_43,2022-02-03T13:05:29.567Z,,,,,,,,,,,,,,,,,53,,,,,,,,,,,,,,187.43700000000536,,response,,,,99,,,,,,,Space,keypress(Space),,,,,,,,---- -- ----- -- ------ - ------- --- ----------<br>------------- ------ ------ ---- ---- ------- ----- -- ----<br>-------- ------- -- ---------- --- - --- ----- ----- ----<br>---- --- --- ----- --- ---- ---- ------- ----- ---- -------<br>--- --- -- ----- as --- ---- -- --- ---- -- ------ ------<br>--- ----- -- ----,112220.69999980927,112220,111987.113,112002.79999995232,112032.563,112256.944,,43,as
screen,html.Screen,2_1_0_1_44,2022-02-03T13:05:29.801Z,,,,,,,,,,,,,,,,,53,,,,,,,,,,,,,,197.35599995231314,,response,,,,99,,,,,,,Space,keypress(Space),,,,,,,,---- -- ----- -- ------ - ------- --- ----------<br>------------- ------ ------ ---- ---- ------- ----- -- ----<br>-------- ------- -- ---------- --- - --- ----- ----- ----<br>---- --- --- ----- --- ---- ---- ------- ----- ---- -------<br>--- --- -- ----- -- you ---- -- --- ---- -- ------ ------<br>--- ----- -- ----,112455.09999990463,112454.29999995232,112250.125,112220.89999985695,112256.944,112484.781,,44,you
screen,html.Screen,2_1_0_1_45,2022-02-03T13:05:30.053Z,,,,,,,,,,,,,,,,,53,,,,,,,,,,,,,,221.41899980926246,,response,,,,99,,,,,,,Space,keypress(Space),,,,,,,,---- -- ----- -- ------ - ------- --- ----------<br>------------- ------ ------ ---- ---- ------- ----- -- ----<br>-------- ------- -- ---------- --- - --- ----- ----- ----<br>---- --- --- ----- --- ---- ---- ------- ----- ---- -------<br>--- --- -- ----- -- --- want -- --- ---- -- ------ ------<br>--- ----- -- ----,112706.89999985695,112706.19999980927,112440.33,112455.39999985695,112484.781,112736.29,,45,want
screen,html.Screen,2_1_0_1_46,2022-02-03T13:05:30.320Z,,,,,,,,,,,,,,,,,53,,,,,,,,,,,,,,237.2100000000064,,response,,,,99,,,,,,,Space,keypress(Space),,,,,,,,---- -- ----- -- ------ - ------- --- ----------<br>------------- ------ ------ ---- ---- ------- ----- -- ----<br>-------- ------- -- ---------- --- - --- ----- ----- ----<br>---- --- --- ----- --- ---- ---- ------- ----- ---- -------<br>--- --- -- ----- -- --- ---- to --- ---- -- ------ ------<br>--- ----- -- ----,112974.29999995232,112973.5,112707.424,112707.09999990463,112736.29,113003.817,,46,to
screen,html.Screen,2_1_0_1_47,2022-02-03T13:05:30.542Z,,,,,,,,,,,,,,,,,53,,,,,,,,,,,,,,190.88299980926968,,response,,,,99,,,,,,,Space,keypress(Space),,,,,,,,"---- -- ----- -- ------ - ------- --- ----------<br>------------- ------ ------ ---- ---- ------- ----- -- ----<br>-------- ------- -- ---------- --- - --- ----- ----- ----<br>---- --- --- ----- --- ---- ---- ------- ----- ---- -------<br>--- --- -- ----- -- --- ---- -- be, ---- -- ------ ------<br>--- ----- -- ----",113195.59999990463,113194.69999980927,112959.692,112974.39999985695,113003.817,113224.714,,47,"be,"
screen,html.Screen,2_1_0_1_48,2022-02-03T13:05:30.777Z,,,,,,,,,,,,,,,,,53,,,,,,,,,,,,,,205.38599990462535,,response,,,,99,,,,,,,Space,keypress(Space),,,,,,,,---- -- ----- -- ------ - ------- --- ----------<br>------------- ------ ------ ---- ---- ------- ----- -- ----<br>-------- ------- -- ---------- --- - --- ----- ----- ----<br>---- --- --- ----- --- ---- ---- ------- ----- ---- -------<br>--- --- -- ----- -- --- ---- -- --- even -- ------ ------<br>--- ----- -- ----,113430.89999985695,113430.09999990463,113193.791,113195.69999980927,113224.714,113459.885,,48,even
screen,html.Screen,2_1_0_1_49,2022-02-03T13:05:31.028Z,,,,,,,,,,,,,,,,,53,,,,,,,,,,,,,,221.41499995232152,,response,,,,99,,,,,,,Space,keypress(Space),,,,,,,,---- -- ----- -- ------ - ------- --- ----------<br>------------- ------ ------ ---- ---- ------- ----- -- ----<br>-------- ------- -- ---------- --- - --- ----- ----- ----<br>---- --- --- ----- --- ---- ---- ------- ----- ---- -------<br>--- --- -- ----- -- --- ---- -- --- ---- if ------ ------<br>--- ----- -- ----,113682.19999980927,113681.29999995232,113431.213,113431.09999990463,113459.885,113711.154,,49,if
screen,html.Screen,2_1_0_1_50,2022-02-03T13:05:31.302Z,,,,,,,,,,,,,,,,,53,,,,,,,,,,,,,,244.04599980927014,,response,,,,99,,,,,,,Space,keypress(Space),,,,,,,,---- -- ----- -- ------ - ------- --- ----------<br>------------- ------ ------ ---- ---- ------- ----- -- ----<br>-------- ------- -- ---------- --- - --- ----- ----- ----<br>---- --- --- ----- --- ---- ---- ------- ----- ---- -------<br>--- --- -- ----- -- --- ---- -- --- ---- -- that's ------<br>--- ----- -- ----,113956,113955.19999980927,113666.899,113682.29999995232,113711.154,113985.373,,50,that's
screen,html.Screen,2_1_0_1_51,2022-02-03T13:05:31.561Z,,,,,,,,,,,,,,,,,53,,,,,,,,,,,,,,229.02699985694198,,response,,,,99,,,,,,,Space,keypress(Space),,,,,,,,---- -- ----- -- ------ - ------- --- ----------<br>------------- ------ ------ ---- ---- ------- ----- -- ----<br>-------- ------- -- ---------- --- - --- ----- ----- ----<br>---- --- --- ----- --- ---- ---- ------- ----- ---- -------<br>--- --- -- ----- -- --- ---- -- --- ---- -- ------ really<br>--- ----- -- ----,114215.09999990463,114214.39999985695,113951.163,113956.19999980927,113985.373,114244.609,,51,really
screen,html.Screen,2_1_0_1_52,2022-02-03T13:05:31.902Z,,,,,,,,,,,,,,,,,53,,,,,,,,,,,,,,310.5909998092684,,response,,,,99,,,,,,,Space,keypress(Space),,,,,,,,---- -- ----- -- ------ - ------- --- ----------<br>------------- ------ ------ ---- ---- ------- ----- -- ----<br>-------- ------- -- ---------- --- - --- ----- ----- ----<br>---- --- --- ----- --- ---- ---- ------- ----- ---- -------<br>--- --- -- ----- -- --- ---- -- --- ---- -- ------ ------<br>not ----- -- ----,114556,114555.19999980927,114208.708,114215.39999985695,114244.609,114585.698,,52,not
screen,html.Screen,2_1_0_1_53,2022-02-03T13:05:32.188Z,,,,,,,,,,,,,,,,,53,,,,,,,,,,,,,,255.30199999999604,,response,,,,99,,,,,,,Space,keypress(Space),,,,,,,,---- -- ----- -- ------ - ------- --- ----------<br>------------- ------ ------ ---- ---- ------- ----- -- ----<br>-------- ------- -- ---------- --- - --- ----- ----- ----<br>---- --- --- ----- --- ---- ---- ------- ----- ---- -------<br>--- --- -- ----- -- --- ---- -- --- ---- -- ------ ------<br>--- close -- ----,114841.89999985695,114841,114551.006,114556.19999980927,114585.698,114870.808,,53,close
screen,html.Screen,2_1_0_1_54,2022-02-03T13:05:32.444Z,,,,,,,,,,,,,,,,,53,,,,,,,,,,,,,,226.3919998092606,,response,,,,99,,,,,,,Space,keypress(Space),,,,,,,,---- -- ----- -- ------ - ------- --- ----------<br>------------- ------ ------ ---- ---- ------- ----- -- ----<br>-------- ------- -- ---------- --- - --- ----- ----- ----<br>---- --- --- ----- --- ---- ---- ------- ----- ---- -------<br>--- --- -- ----- -- --- ---- -- --- ---- -- ------ ------<br>--- ----- at ----,115098,115097.19999980927,114841.987,114842,114870.808,115126.804,,54,at
screen,html.Screen,2_1_0_1_55,2022-02-03T13:05:32.702Z,,,,,,,,,,,,,,,,,53,,,,,,,,,,,,,,228.3959998092614,,response,,,,99,,,,,,,Space,keypress(Space),,,,,,,,---- -- ----- -- ------ - ------- --- ----------<br>------------- ------ ------ ---- ---- ------- ----- -- ----<br>-------- ------- -- ---------- --- - --- ----- ----- ----<br>---- --- --- ----- --- ---- ---- ------- ----- ---- -------<br>--- --- -- ----- -- --- ---- -- --- ---- -- ------ ------<br>--- ----- -- all.,115356.09999990463,115355.19999980927,115094.644,115098.09999990463,115126.804,115385.056,,55,all.
Item 99,flow.Loop,2_1_0_1,2022-02-03T13:05:32.703Z,,,,,,,,,,,,,,,,,,,,,,,,,,,,,,,16316.096999809262,,completion,,,,,F,,,,,,,,,,,silence,,,,,115356.39999985695,115355.19999980927,99022.797,99024.09999990463,99039.103,115385.056,,,
Question 1,html.Screen,2_1_0_2,2022-02-03T13:05:37.072Z,,,,,,,,,,,,,,,,,,,,,,,,,,,,true,FALSE,,4339.343999856952,,response,,,,99,F,,,,,,FALSE,click #choice-2,,,,silence,,,,,119725.79999995232,119724.39999985695,115350.396,115356.5,115385.056,119731.113,,,
Question 2,html.Screen,2_1_0_3,2022-02-03T13:05:40.900Z,,,,,,,,,,,,,,,,,,,,,,,,,,,,false,TRUE,,3821.0869998092676,,response,,,,99,F,,,,,,FALSE,click #choice-2,,,,silence,,,,,123553.59999990463,123552.19999980927,119714.462,119726,119731.113,123555.668,,,
Item 99,flow.Sequence,2_1_0,2022-02-03T13:05:40.900Z,,,,,,,,,,,,,,,,,,,,,,,,,,,,,,,34512.35699980927,,completion,,,,,,,,,,,,,,,,,,,,,123553.79999995232,123552.19999980927,89023.252,89027.09999990463,89039.843,123555.668,,,
Holding screen,html.Screen,2_1_1_0,2022-02-03T13:05:50.895Z,,,,,,,,,,,,,,,,,,,,,,,,,,,,,,,10008.774999999994,,timeout,,,,,,,,,,,,,,,,,,,,,133549.29999995232,133548.111,123539.259,123554,123555.668,133564.443,,,
screen,html.Screen,2_1_1_1_0,2022-02-03T13:05:51.451Z,,,,,,,,,,,,,,,,,54,,,,,,,,,,,,,,539.7569998092658,,response,,,,100,,,,,,,Space,keypress(Space),,,,,,,,At --- ---- --- ------ ----- ------- ---- -- --- ------- --<br>------- ---------- ------ -- ----- -- ----- -- ---- ------<br>--- ----- --- --- ------ -------- ----- --- ------ ----- --<br>----- ----- ---------- --- --- ------ ------ ---- -- ------<br>------- --- ------ ----- --- ---- ------- -- ---- --- --<br>------- ------,134105.09999990463,134104.19999980927,133548.111,133549.5,133564.443,134128.209,,0,At
screen,html.Screen,2_1_1_1_1,2022-02-03T13:05:51.746Z,,,,,,,,,,,,,,,,,54,,,,,,,,,,,,,,270.9909998092626,,response,,,,100,,,,,,,Space,keypress(Space),,,,,,,,-- the ---- --- ------ ----- ------- ---- -- --- ------- --<br>------- ---------- ------ -- ----- -- ----- -- ---- ------<br>--- ----- --- --- ------ -------- ----- --- ------ ----- --<br>----- ----- ---------- --- --- ------ ------ ---- -- ------<br>------- --- ------ ----- --- ---- ------- -- ---- --- --<br>------- ------,134400,134399.19999980927,134098.17,134105.79999995232,134128.209,134428.945,,1,the
screen,html.Screen,2_1_1_1_2,2022-02-03T13:05:52.015Z,,,,,,,,,,,,,,,,,54,,,,,,,,,,,,,,239.05499999999302,,response,,,,100,,,,,,,Space,keypress(Space),,,,,,,,-- --- time --- ------ ----- ------- ---- -- --- ------- --<br>------- ---------- ------ -- ----- -- ----- -- ---- ------<br>--- ----- --- --- ------ -------- ----- --- ------ ----- --<br>----- ----- ---------- --- --- ------ ------ ---- -- ------<br>------- --- ------ ----- --- ---- ------- -- ---- --- --<br>------- ------,134668.79999995232,134668,134389.751,134400.09999990463,134428.945,134697.826,,2,time
screen,html.Screen,2_1_1_1_3,2022-02-03T13:05:52.259Z,,,,,,,,,,,,,,,,,54,,,,,,,,,,,,,,214.17399999999907,,response,,,,100,,,,,,,Space,keypress(Space),,,,,,,,-- --- ---- the ------ ----- ------- ---- -- --- ------- --<br>------- ---------- ------ -- ----- -- ----- -- ---- ------<br>--- ----- --- --- ------ -------- ----- --- ------ ----- --<br>----- ----- ---------- --- --- ------ ------ ---- -- ------<br>------- --- ------ ----- --- ---- ------- -- ---- --- --<br>------- ------,134912.69999980927,134912,134669.215,134668.89999985695,134697.826,134943.025,,3,the
screen,html.Screen,2_1_1_1_4,2022-02-03T13:05:52.527Z,,,,,,,,,,,,,,,,,54,,,,,,,,,,,,,,236.67499980927096,,response,,,,100,,,,,,,Space,keypress(Space),,,,,,,,-- --- ---- --- French ----- ------- ---- -- --- ------- --<br>------- ---------- ------ -- ----- -- ----- -- ---- ------<br>--- ----- --- --- ------ -------- ----- --- ------ ----- --<br>----- ----- ---------- --- --- ------ ------ ---- -- ------<br>------- --- ------ ----- --- ---- ------- -- ---- --- --<br>------- ------,135180.39999985695,135179.69999980927,134904.676,134912.89999985695,134943.025,135209.716,,4,French
screen,html.Screen,2_1_1_1_5,2022-02-03T13:05:52.728Z,,,,,,,,,,,,,,,,,54,,,,,,,,,,,,,,171.48399980927934,,response,,,,100,,,,,,,Space,keypress(Space),,,,,,,,-- --- ---- --- ------ crown ------- ---- -- --- ------- --<br>------- ---------- ------ -- ----- -- ----- -- ---- ------<br>--- ----- --- --- ------ -------- ----- --- ------ ----- --<br>----- ----- ---------- --- --- ------ ------ ---- -- ------<br>------- --- ------ ----- --- ---- ------- -- ---- --- --<br>------- ------,135381.89999985695,135381.19999980927,135165.231,135180.59999990463,135209.716,135411.43,,5,crown
screen,html.Screen,2_1_1_1_6,2022-02-03T13:05:52.944Z,,,,,,,,,,,,,,,,,54,,,,,,,,,,,,,,185.26999980927212,,response,,,,100,,,,,,,Space,keypress(Space),,,,,,,,-- --- ---- --- ------ ----- secured ---- -- --- ------- --<br>------- ---------- ------ -- ----- -- ----- -- ---- ------<br>--- ----- --- --- ------ -------- ----- --- ------ ----- --<br>----- ----- ---------- --- --- ------ ------ ---- -- ------<br>------- --- ------ ----- --- ---- ------- -- ---- --- --<br>------- ------,135597.5,135596.69999980927,135382.669,135382,135411.43,135627.071,,6,secured
screen,html.Screen,2_1_1_1_7,2022-02-03T13:05:53.152Z,,,,,,,,,,,,,,,,,54,,,,,,,,,,,,,,177.92900000000373,,response,,,,100,,,,,,,Space,keypress(Space),,,,,,,,-- --- ---- --- ------ ----- ------- much -- --- ------- --<br>------- ---------- ------ -- ----- -- ----- -- ---- ------<br>--- ----- --- --- ------ -------- ----- --- ------ ----- --<br>----- ----- ---------- --- --- ------ ------ ---- -- ------<br>------- --- ------ ----- --- ---- ------- -- ---- --- --<br>------- ------,135805.79999995232,135805,135584.574,135597.59999990463,135627.071,135835.44,,7,much
screen,html.Screen,2_1_1_1_8,2022-02-03T13:05:53.372Z,,,,,,,,,,,,,,,,,54,,,,,,,,,,,,,,190.05999999999767,,response,,,,100,,,,,,,Space,keypress(Space),,,,,,,,-- --- ---- --- ------ ----- ------- ---- of --- ------- --<br>------- ---------- ------ -- ----- -- ----- -- ---- ------<br>--- ----- --- --- ------ -------- ----- --- ------ ----- --<br>----- ----- ---------- --- --- ------ ------ ---- -- ------<br>------- --- ------ ----- --- ---- ------- -- ---- --- --<br>------- ------,136026.19999980927,136025.5,135800.208,135805.89999985695,135835.44,136054.876,,8,of
screen,html.Screen,2_1_1_1_9,2022-02-03T13:05:53.608Z,,,,,,,,,,,,,,,,,54,,,,,,,,,,,,,,205.72399990464328,,response,,,,100,,,,,,,Space,keypress(Space),,,,,,,,-- --- ---- --- ------ ----- ------- ---- -- its ------- --<br>------- ---------- ------ -- ----- -- ----- -- ---- ------<br>--- ----- --- --- ------ -------- ----- --- ------ ----- --<br>----- ----- ---------- --- --- ------ ------ ---- -- ------<br>------- --- ------ ----- --- ---- ------- -- ---- --- --<br>------- ------,136261.39999985695,136260.59999990463,136024.82,136026.39999985695,136054.876,136281.391,,9,its
screen,html.Screen,2_1_1_1_10,2022-02-03T13:05:53.835Z,,,,,,,,,,,,,,,,,54,,,,,,,,,,,,,,206.40899995231302,,response,,,,100,,,,,,,Space,keypress(Space),,,,,,,,-- --- ---- --- ------ ----- ------- ---- -- --- revenue --<br>------- ---------- ------ -- ----- -- ----- -- ---- ------<br>--- ----- --- --- ------ -------- ----- --- ------ ----- --<br>----- ----- ---------- --- --- ------ ------ ---- -- ------<br>------- --- ------ ----- --- ---- ------- -- ---- --- --<br>------- ------,136488.59999990463,136487.79999995232,136261.877,136261.59999990463,136281.391,136517.947,,10,revenue
screen,html.Screen,2_1_1_1_11,2022-02-03T13:05:54.093Z,,,,,,,,,,,,,,,,,54,,,,,,,,,,,,,,228.25299980927957,,response,,,,100,,,,,,,Space,keypress(Space),,,,,,,,-- --- ---- --- ------ ----- ------- ---- -- --- ------- by<br>------- ---------- ------ -- ----- -- ----- -- ---- ------<br>--- ----- --- --- ------ -------- ----- --- ------ ----- --<br>----- ----- ---------- --- --- ------ ------ ---- -- ------<br>------- --- ------ ----- --- ---- ------- -- ---- --- --<br>------- ------,136747,136746.19999980927,136480.847,136488.69999980927,136517.947,136776.876,,11,by
screen,html.Screen,2_1_1_1_12,2022-02-03T13:05:54.301Z,,,,,,,,,,,,,,,,,54,,,,,,,,,,,,,,177.423999952327,,response,,,,100,,,,,,,Space,keypress(Space),,,,,,,,-- --- ---- --- ------ ----- ------- ---- -- --- ------- --<br>issuing ---------- ------ -- ----- -- ----- -- ---- ------<br>--- ----- --- --- ------ -------- ----- --- ------ ----- --<br>----- ----- ---------- --- --- ------ ------ ---- -- ------<br>------- --- ------ ----- --- ---- ------- -- ---- --- --<br>------- ------,136955,136954.29999995232,136740.9,136747.09999990463,136776.876,136985.063,,12,issuing
screen,html.Screen,2_1_1_1_13,2022-02-03T13:05:54.543Z,,,,,,,,,,,,,,,,,54,,,,,,,,,,,,,,210.8369998569542,,response,,,,100,,,,,,,Space,keypress(Space),,,,,,,,-- --- ---- --- ------ ----- ------- ---- -- --- ------- --<br>------- government ------ -- ----- -- ----- -- ---- ------<br>--- ----- --- --- ------ -------- ----- --- ------ ----- --<br>----- ----- ---------- --- --- ------ ------ ---- -- ------<br>------- --- ------ ----- --- ---- ------- -- ---- --- --<br>------- ------,137196.69999980927,137195.89999985695,136949.761,136955.19999980927,136985.063,137226.267,,13,government
screen,html.Screen,2_1_1_1_14,2022-02-03T13:05:54.771Z,,,,,,,,,,,,,,,,,54,,,,,,,,,,,,,,197.73300000000745,,response,,,,100,,,,,,,Space,keypress(Space),,,,,,,,-- --- ---- --- ------ ----- ------- ---- -- --- ------- --<br>------- ---------- bonds. -- ----- -- ----- -- ---- ------<br>--- ----- --- --- ------ -------- ----- --- ------ ----- --<br>----- ----- ---------- --- --- ------ ------ ---- -- ------<br>------- --- ------ ----- --- ---- ------- -- ---- --- --<br>------- ------,137424.79999995232,137424,137190.415,137196.69999980927,137226.267,137455.022,,14,bonds.
screen,html.Screen,2_1_1_1_15,2022-02-03T13:05:55.007Z,,,,,,,,,,,,,,,,,54,,,,,,,,,,,,,,204.67799980926793,,response,,,,100,,,,,,,Space,keypress(Space),,,,,,,,-- --- ---- --- ------ ----- ------- ---- -- --- ------- --<br>------- ---------- ------ In ----- -- ----- -- ---- ------<br>--- ----- --- --- ------ -------- ----- --- ------ ----- --<br>----- ----- ---------- --- --- ------ ------ ---- -- ------<br>------- --- ------ ----- --- ---- ------- -- ---- --- --<br>------- ------,137660.39999985695,137659.69999980927,137415.635,137425,137455.022,137689.761,,15,In
screen,html.Screen,2_1_1_1_16,2022-02-03T13:05:55.243Z,,,,,,,,,,,,,,,,,54,,,,,,,,,,,,,,205.83899990463397,,response,,,,100,,,,,,,Space,keypress(Space),,,,,,,,"-- --- ---- --- ------ ----- ------- ---- -- --- ------- --<br>------- ---------- ------ -- 1727, -- ----- -- ---- ------<br>--- ----- --- --- ------ -------- ----- --- ------ ----- --<br>----- ----- ---------- --- --- ------ ------ ---- -- ------<br>------- --- ------ ----- --- ---- ------- -- ---- --- --<br>------- ------",137896.5,137895.59999990463,137660.493,137660.59999990463,137689.761,137925.44,,16,"1727,"
screen,html.Screen,2_1_1_1_17,2022-02-03T13:05:55.462Z,,,,,,,,,,,,,,,,,54,,,,,,,,,,,,,,190.05999999999767,,response,,,,100,,,,,,,Space,keypress(Space),,,,,,,,-- --- ---- --- ------ ----- ------- ---- -- --- ------- --<br>------- ---------- ------ -- ----- in ----- -- ---- ------<br>--- ----- --- --- ------ -------- ----- --- ------ ----- --<br>----- ----- ---------- --- --- ------ ------ ---- -- ------<br>------- --- ------ ----- --- ---- ------- -- ---- --- --<br>------- ------,138116.29999995232,138115.5,137896.277,137896.59999990463,137925.44,138144.973,,17,in
screen,html.Screen,2_1_1_1_18,2022-02-03T13:05:55.683Z,,,,,,,,,,,,,,,,,54,,,,,,,,,,,,,,190.82699995231815,,response,,,,100,,,,,,,Space,keypress(Space),,,,,,,,-- --- ---- --- ------ ----- ------- ---- -- --- ------- --<br>------- ---------- ------ -- ----- -- order -- ---- ------<br>--- ----- --- --- ------ -------- ----- --- ------ ----- --<br>----- ----- ---------- --- --- ------ ------ ---- -- ------<br>------- --- ------ ----- --- ---- ------- -- ---- --- --<br>------- ------,138336.59999990463,138335.79999995232,138115.948,138116.39999985695,138144.973,138365.676,,18,order
screen,html.Screen,2_1_1_1_19,2022-02-03T13:05:55.915Z,,,,,,,,,,,,,,,,,54,,,,,,,,,,,,,,202.42399990462582,,response,,,,100,,,,,,,Space,keypress(Space),,,,,,,,-- --- ---- --- ------ ----- ------- ---- -- --- ------- --<br>------- ---------- ------ -- ----- -- ----- to ---- ------<br>--- ----- --- --- ------ -------- ----- --- ------ ----- --<br>----- ----- ---------- --- --- ------ ------ ---- -- ------<br>------- --- ------ ----- --- ---- ------- -- ---- --- --<br>------- ------,138568.89999985695,138568.09999990463,138335.438,138336.79999995232,138365.676,138597.813,,19,to
screen,html.Screen,2_1_1_1_20,2022-02-03T13:05:56.142Z,,,,,,,,,,,,,,,,,54,,,,,,,,,,,,,,196.98699995232164,,response,,,,100,,,,,,,Space,keypress(Space),,,,,,,,-- --- ---- --- ------ ----- ------- ---- -- --- ------- --<br>------- ---------- ------ -- ----- -- ----- -- save ------<br>--- ----- --- --- ------ -------- ----- --- ------ ----- --<br>----- ----- ---------- --- --- ------ ------ ---- -- ------<br>------- --- ------ ----- --- ---- ------- -- ---- --- --<br>------- ------,138795.59999990463,138794.79999995232,138556.046,138569.09999990463,138597.813,138824.842,,20,save
screen,html.Screen,2_1_1_1_21,2022-02-03T13:05:56.414Z,,,,,,,,,,,,,,,,,54,,,,,,,,,,,,,,241.85799980926095,,response,,,,100,,,,,,,Space,keypress(Space),,,,,,,,"-- --- ---- --- ------ ----- ------- ---- -- --- ------- --<br>------- ---------- ------ -- ----- -- ----- -- ---- money,<br>--- ----- --- --- ------ -------- ----- --- ------ ----- --<br>----- ----- ---------- --- --- ------ ------ ---- -- ------<br>------- --- ------ ----- --- ---- ------- -- ---- --- --<br>------- ------",139067.5,139066.69999980927,138788.2,138795.79999995232,138824.842,139097.536,,21,"money,"
screen,html.Screen,2_1_1_1_22,2022-02-03T13:05:56.724Z,,,,,,,,,,,,,,,,,54,,,,,,,,,,,,,,279.2639999523235,,response,,,,100,,,,,,,Space,keypress(Space),,,,,,,,-- --- ---- --- ------ ----- ------- ---- -- --- ------- --<br>------- ---------- ------ -- ----- -- ----- -- ---- ------<br>the ----- --- --- ------ -------- ----- --- ------ ----- --<br>----- ----- ---------- --- --- ------ ------ ---- -- ------<br>------- --- ------ ----- --- ---- ------- -- ---- --- --<br>------- ------,139377.59999990463,139376.79999995232,139065.002,139067.69999980927,139097.536,139407.43,,22,the
screen,html.Screen,2_1_1_1_23,2022-02-03T13:05:56.996Z,,,,,,,,,,,,,,,,,54,,,,,,,,,,,,,,241.76999980927212,,response,,,,100,,,,,,,Space,keypress(Space),,,,,,,,-- --- ---- --- ------ ----- ------- ---- -- --- ------- --<br>------- ---------- ------ -- ----- -- ----- -- ---- ------<br>--- state --- --- ------ -------- ----- --- ------ ----- --<br>----- ----- ---------- --- --- ------ ------ ---- -- ------<br>------- --- ------ ----- --- ---- ------- -- ---- --- --<br>------- ------,139650,139649.19999980927,139369.882,139377.79999995232,139407.43,139678.834,,23,state
screen,html.Screen,2_1_1_1_24,2022-02-03T13:05:57.231Z,,,,,,,,,,,,,,,,,54,,,,,,,,,,,,,,205.0659998569463,,response,,,,100,,,,,,,Space,keypress(Space),,,,,,,,-- --- ---- --- ------ ----- ------- ---- -- --- ------- --<br>------- ---------- ------ -- ----- -- ----- -- ---- ------<br>--- ----- cut --- ------ -------- ----- --- ------ ----- --<br>----- ----- ---------- --- --- ------ ------ ---- -- ------<br>------- --- ------ ----- --- ---- ------- -- ---- --- --<br>------- ------,139884.79999995232,139883.89999985695,139646.933,139650.19999980927,139678.834,139914.176,,24,cut
screen,html.Screen,2_1_1_1_25,2022-02-03T13:05:57.449Z,,,,,,,,,,,,,,,,,54,,,,,,,,,,,,,,188.2239998569421,,response,,,,100,,,,,,,Space,keypress(Space),,,,,,,,-- --- ---- --- ------ ----- ------- ---- -- --- ------- --<br>------- ---------- ------ -- ----- -- ----- -- ---- ------<br>--- ----- --- the ------ -------- ----- --- ------ ----- --<br>----- ----- ---------- --- --- ------ ------ ---- -- ------<br>------- --- ------ ----- --- ---- ------- -- ---- --- --<br>------- ------,140103,140102.39999985695,139869.377,139885,139914.176,140132.695,,25,the
screen,html.Screen,2_1_1_1_26,2022-02-03T13:05:57.679Z,,,,,,,,,,,,,,,,,54,,,,,,,,,,,,,,199.20499985694187,,response,,,,100,,,,,,,Space,keypress(Space),,,,,,,,-- --- ---- --- ------ ----- ------- ---- -- --- ------- --<br>------- ---------- ------ -- ----- -- ----- -- ---- ------<br>--- ----- --- --- bonds' -------- ----- --- ------ ----- --<br>----- ----- ---------- --- --- ------ ------ ---- -- ------<br>------- --- ------ ----- --- ---- ------- -- ---- --- --<br>------- ------,140332.69999980927,140331.89999985695,140103.835,140103.19999980927,140132.695,140362.575,,26,bonds'
screen,html.Screen,2_1_1_1_27,2022-02-03T13:05:57.872Z,,,,,,,,,,,,,,,,,54,,,,,,,,,,,,,,162.3249998569372,,response,,,,100,,,,,,,Space,keypress(Space),,,,,,,,-- --- ---- --- ------ ----- ------- ---- -- --- ------- --<br>------- ---------- ------ -- ----- -- ----- -- ---- ------<br>--- ----- --- --- ------ interest ----- --- ------ ----- --<br>----- ----- ---------- --- --- ------ ------ ---- -- ------<br>------- --- ------ ----- --- ---- ------- -- ---- --- --<br>------- ------,140525.69999980927,140524.89999985695,140321.869,140332.89999985695,140362.575,140555.823,,27,interest
screen,html.Screen,2_1_1_1_28,2022-02-03T13:05:58.065Z,,,,,,,,,,,,,,,,,54,,,,,,,,,,,,,,161.87699980926118,,response,,,,100,,,,,,,Space,keypress(Space),,,,,,,,-- --- ---- --- ------ ----- ------- ---- -- --- ------- --<br>------- ---------- ------ -- ----- -- ----- -- ---- ------<br>--- ----- --- --- ------ -------- rate. --- ------ ----- --<br>----- ----- ---------- --- --- ------ ------ ---- -- ------<br>------- --- ------ ----- --- ---- ------- -- ---- --- --<br>------- ------,140718.5,140717.69999980927,140518.843,140526,140555.823,140747.253,,28,rate.
screen,html.Screen,2_1_1_1_29,2022-02-03T13:05:58.298Z,,,,,,,,,,,,,,,,,54,,,,,,,,,,,,,,204.14699985695188,,response,,,,100,,,,,,,Space,keypress(Space),,,,,,,,-- --- ---- --- ------ ----- ------- ---- -- --- ------- --<br>------- ---------- ------ -- ----- -- ----- -- ---- ------<br>--- ----- --- --- ------ -------- ----- The ------ ----- --<br>----- ----- ---------- --- --- ------ ------ ---- -- ------<br>------- --- ------ ----- --- ---- ------- -- ---- --- --<br>------- ------,140952.29999995232,140951.39999985695,140711.935,140718.59999990463,140747.253,140981.746,,29,The
screen,html.Screen,2_1_1_1_30,2022-02-03T13:05:58.581Z,,,,,,,,,,,,,,,,,54,,,,,,,,,,,,,,251.9539998092514,,response,,,,100,,,,,,,Space,keypress(Space),,,,,,,,-- --- ---- --- ------ ----- ------- ---- -- --- ------- --<br>------- ---------- ------ -- ----- -- ----- -- ---- ------<br>--- ----- --- --- ------ -------- ----- --- market ----- --<br>----- ----- ---------- --- --- ------ ------ ---- -- ------<br>------- --- ------ ----- --- ---- ------- -- ---- --- --<br>------- ------,141234.5,141233.69999980927,140937.641,140952.5,140981.746,141264.039,,30,market
screen,html.Screen,2_1_1_1_31,2022-02-03T13:05:58.832Z,,,,,,,,,,,,,,,,,54,,,,,,,,,,,,,,221.16099980927538,,response,,,,100,,,,,,,Space,keypress(Space),,,,,,,,-- --- ---- --- ------ ----- ------- ---- -- --- ------- --<br>------- ---------- ------ -- ----- -- ----- -- ---- ------<br>--- ----- --- --- ------ -------- ----- --- ------ value --<br>----- ----- ---------- --- --- ------ ------ ---- -- ------<br>------- --- ------ ----- --- ---- ------- -- ---- --- --<br>------- ------,141485.89999985695,141485.19999980927,141221.595,141234.69999980927,141264.039,141522.424,,31,value
screen,html.Screen,2_1_1_1_32,2022-02-03T13:05:59.066Z,,,,,,,,,,,,,,,,,54,,,,,,,,,,,,,,196.6759999046335,,response,,,,100,,,,,,,Space,keypress(Space),,,,,,,,-- --- ---- --- ------ ----- ------- ---- -- --- ------- --<br>------- ---------- ------ -- ----- -- ----- -- ---- ------<br>--- ----- --- --- ------ -------- ----- --- ------ ----- of<br>----- ----- ---------- --- --- ------ ------ ---- -- ------<br>------- --- ------ ----- --- ---- ------- -- ---- --- --<br>------- ------,141719.89999985695,141719.09999990463,141515.447,141486.19999980927,141522.424,141749.324,,32,of
screen,html.Screen,2_1_1_1_33,2022-02-03T13:05:59.335Z,,,,,,,,,,,,,,,,,54,,,,,,,,,,,,,,238.77599990463932,,response,,,,100,,,,,,,Space,keypress(Space),,,,,,,,-- --- ---- --- ------ ----- ------- ---- -- --- ------- --<br>------- ---------- ------ -- ----- -- ----- -- ---- ------<br>--- ----- --- --- ------ -------- ----- --- ------ ----- --<br>these ----- ---------- --- --- ------ ------ ---- -- ------<br>------- --- ------ ----- --- ---- ------- -- ---- --- --<br>------- ------,141989,141988.09999990463,141705.574,141720.09999990463,141749.324,142017.949,,33,these
screen,html.Screen,2_1_1_1_34,2022-02-03T13:05:59.595Z,,,,,,,,,,,,,,,,,54,,,,,,,,,,,,,,230.4509998569556,,response,,,,100,,,,,,,Space,keypress(Space),,,,,,,,-- --- ---- --- ------ ----- ------- ---- -- --- ------- --<br>------- ---------- ------ -- ----- -- ----- -- ---- ------<br>--- ----- --- --- ------ -------- ----- --- ------ ----- --<br>----- bonds ---------- --- --- ------ ------ ---- -- ------<br>------- --- ------ ----- --- ---- ------- -- ---- --- --<br>------- ------,142249.19999980927,142248.39999985695,141988.843,141989.19999980927,142017.949,142278.453,,34,bonds
screen,html.Screen,2_1_1_1_35,2022-02-03T13:05:59.836Z,,,,,,,,,,,,,,,,,54,,,,,,,,,,,,,,210.34699995230767,,response,,,,100,,,,,,,Space,keypress(Space),,,,,,,,"-- --- ---- --- ------ ----- ------- ---- -- --- ------- --<br>------- ---------- ------ -- ----- -- ----- -- ---- ------<br>--- ----- --- --- ------ -------- ----- --- ------ ----- --<br>----- ----- plummeted, --- --- ------ ------ ---- -- ------<br>------- --- ------ ----- --- ---- ------- -- ---- --- --<br>------- ------",142489.59999990463,142488.79999995232,142241.787,142249.29999995232,142278.453,142518.707,,35,"plummeted,"
screen,html.Screen,2_1_1_1_36,2022-02-03T13:06:00.041Z,,,,,,,,,,,,,,,,,54,,,,,,,,,,,,,,175.0929999523214,,response,,,,100,,,,,,,Space,keypress(Space),,,,,,,,-- --- ---- --- ------ ----- ------- ---- -- --- ------- --<br>------- ---------- ------ -- ----- -- ----- -- ---- ------<br>--- ----- --- --- ------ -------- ----- --- ------ ----- --<br>----- ----- ---------- and --- ------ ------ ---- -- ------<br>------- --- ------ ----- --- ---- ------- -- ---- --- --<br>------- ------,142694.5,142693.79999995232,142484.89,142489.79999995232,142518.707,142724.019,,36,and
screen,html.Screen,2_1_1_1_37,2022-02-03T13:06:00.329Z,,,,,,,,,,,,,,,,,54,,,,,,,,,,,,,,258.1809998092649,,response,,,,100,,,,,,,Space,keypress(Space),,,,,,,,-- --- ---- --- ------ ----- ------- ---- -- --- ------- --<br>------- ---------- ------ -- ----- -- ----- -- ---- ------<br>--- ----- --- --- ------ -------- ----- --- ------ ----- --<br>----- ----- ---------- --- the ------ ------ ---- -- ------<br>------- --- ------ ----- --- ---- ------- -- ---- --- --<br>------- ------,142982.89999985695,142982.19999980927,142691.82,142694.69999980927,142724.019,143011.346,,37,the
screen,html.Screen,2_1_1_1_38,2022-02-03T13:06:00.566Z,,,,,,,,,,,,,,,,,54,,,,,,,,,,,,,,207.95399995232583,,response,,,,100,,,,,,,Space,keypress(Space),,,,,,,,-- --- ---- --- ------ ----- ------- ---- -- --- ------- --<br>------- ---------- ------ -- ----- -- ----- -- ---- ------<br>--- ----- --- --- ------ -------- ----- --- ------ ----- --<br>----- ----- ---------- --- --- market ------ ---- -- ------<br>------- --- ------ ----- --- ---- ------- -- ---- --- --<br>------- ------,143220.09999990463,143219.29999995232,142980.159,142983,143011.346,143249.573,,38,market
screen,html.Screen,2_1_1_1_39,2022-02-03T13:06:00.818Z,,,,,,,,,,,,,,,,,54,,,,,,,,,,,,,,221.62699980926118,,response,,,,100,,,,,,,Space,keypress(Space),,,,,,,,-- --- ---- --- ------ ----- ------- ---- -- --- ------- --<br>------- ---------- ------ -- ----- -- ----- -- ---- ------<br>--- ----- --- --- ------ -------- ----- --- ------ ----- --<br>----- ----- ---------- --- --- ------ became ---- -- ------<br>------- --- ------ ----- --- ---- ------- -- ---- --- --<br>------- ------,143472.09999990463,143471.19999980927,143218.674,143220.19999980927,143249.573,143508.044,,39,became
screen,html.Screen,2_1_1_1_40,2022-02-03T13:06:01.046Z,,,,,,,,,,,,,,,,,54,,,,,,,,,,,,,,190.55599990463816,,response,,,,100,,,,,,,Space,keypress(Space),,,,,,,,-- --- ---- --- ------ ----- ------- ---- -- --- ------- --<br>------- ---------- ------ -- ----- -- ----- -- ---- ------<br>--- ----- --- --- ------ -------- ----- --- ------ ----- --<br>----- ----- ---------- --- --- ------ ------ wary -- ------<br>------- --- ------ ----- --- ---- ------- -- ---- --- --<br>------- ------,143699.39999985695,143698.59999990463,143501.627,143472.19999980927,143508.044,143708.253,,40,wary
screen,html.Screen,2_1_1_1_41,2022-02-03T13:06:01.303Z,,,,,,,,,,,,,,,,,54,,,,,,,,,,,,,,247.8469999046356,,response,,,,100,,,,,,,Space,keypress(Space),,,,,,,,-- --- ---- --- ------ ----- ------- ---- -- --- ------- --<br>------- ---------- ------ -- ----- -- ----- -- ---- ------<br>--- ----- --- --- ------ -------- ----- --- ------ ----- --<br>----- ----- ---------- --- --- ------ ------ ---- of ------<br>------- --- ------ ----- --- ---- ------- -- ---- --- --<br>------- ------,143956.89999985695,143956.09999990463,143691.276,143699.59999990463,143708.253,143986.486,,41,of
screen,html.Screen,2_1_1_1_42,2022-02-03T13:06:01.575Z,,,,,,,,,,,,,,,,,54,,,,,,,,,,,,,,241.81399995231186,,response,,,,100,,,,,,,Space,keypress(Space),,,,,,,,-- --- ---- --- ------ ----- ------- ---- -- --- ------- --<br>------- ---------- ------ -- ----- -- ----- -- ---- ------<br>--- ----- --- --- ------ -------- ----- --- ------ ----- --<br>----- ----- ---------- --- --- ------ ------ ---- -- French<br>------- --- ------ ----- --- ---- ------- -- ---- --- --<br>------- ------,144229.09999990463,144228.29999995232,143941.744,143957.09999990463,143986.486,144255.689,,42,French
screen,html.Screen,2_1_1_1_43,2022-02-03T13:06:01.828Z,,,,,,,,,,,,,,,,,54,,,,,,,,,,,,,,225.31099999998696,,response,,,,100,,,,,,,Space,keypress(Space),,,,,,,,-- --- ---- --- ------ ----- ------- ---- -- --- ------- --<br>------- ---------- ------ -- ----- -- ----- -- ---- ------<br>--- ----- --- --- ------ -------- ----- --- ------ ----- --<br>----- ----- ---------- --- --- ------ ------ ---- -- ------<br>credit. --- ------ ----- --- ---- ------- -- ---- --- --<br>------- ------,144481.79999995232,144481,144225.956,144229.29999995232,144255.689,144511.301,,43,credit.
screen,html.Screen,2_1_1_1_44,2022-02-03T13:06:02.064Z,,,,,,,,,,,,,,,,,54,,,,,,,,,,,,,,205.49899995230953,,response,,,,100,,,,,,,Space,keypress(Space),,,,,,,,-- --- ---- --- ------ ----- ------- ---- -- --- ------- --<br>------- ---------- ------ -- ----- -- ----- -- ---- ------<br>--- ----- --- --- ------ -------- ----- --- ------ ----- --<br>----- ----- ---------- --- --- ------ ------ ---- -- ------<br>------- The ------ ----- --- ---- ------- -- ---- --- --<br>------- ------,144717.5,144716.79999995232,144481.524,144482,144511.301,144747.34,,44,The
screen,html.Screen,2_1_1_1_45,2022-02-03T13:06:02.276Z,,,,,,,,,,,,,,,,,54,,,,,,,,,,,,,,181.75999990463606,,response,,,,100,,,,,,,Space,keypress(Space),,,,,,,,-- --- ---- --- ------ ----- ------- ---- -- --- ------- --<br>------- ---------- ------ -- ----- -- ----- -- ---- ------<br>--- ----- --- --- ------ -------- ----- --- ------ ----- --<br>----- ----- ---------- --- --- ------ ------ ---- -- ------<br>------- --- French ----- --- ---- ------- -- ---- --- --<br>------- ------,144929.79999995232,144929.09999990463,144717.645,144717.79999995232,144747.34,144958.677,,45,French
screen,html.Screen,2_1_1_1_46,2022-02-03T13:06:02.480Z,,,,,,,,,,,,,,,,,54,,,,,,,,,,,,,,174.12299995232024,,response,,,,100,,,,,,,Space,keypress(Space),,,,,,,,-- --- ---- --- ------ ----- ------- ---- -- --- ------- --<br>------- ---------- ------ -- ----- -- ----- -- ---- ------<br>--- ----- --- --- ------ -------- ----- --- ------ ----- --<br>----- ----- ---------- --- --- ------ ------ ---- -- ------<br>------- --- ------ state --- ---- ------- -- ---- --- --<br>------- ------,145133.59999990463,145132.79999995232,144920.152,144929.89999985695,144958.677,145163.452,,46,state
screen,html.Screen,2_1_1_1_47,2022-02-03T13:06:02.687Z,,,,,,,,,,,,,,,,,54,,,,,,,,,,,,,,177.04800000000978,,response,,,,100,,,,,,,Space,keypress(Space),,,,,,,,-- --- ---- --- ------ ----- ------- ---- -- --- ------- --<br>------- ---------- ------ -- ----- -- ----- -- ---- ------<br>--- ----- --- --- ------ -------- ----- --- ------ ----- --<br>----- ----- ---------- --- --- ------ ------ ---- -- ------<br>------- --- ------ ----- was ---- ------- -- ---- --- --<br>------- ------,145341.19999980927,145340.5,145131.948,145133.69999980927,145163.452,145369.696,,47,was
screen,html.Screen,2_1_1_1_48,2022-02-03T13:06:02.912Z,,,,,,,,,,,,,,,,,54,,,,,,,,,,,,,,195.80400000000373,,response,,,,100,,,,,,,Space,keypress(Space),,,,,,,,-- --- ---- --- ------ ----- ------- ---- -- --- ------- --<br>------- ---------- ------ -- ----- -- ----- -- ---- ------<br>--- ----- --- --- ------ -------- ----- --- ------ ----- --<br>----- ----- ---------- --- --- ------ ------ ---- -- ------<br>------- --- ------ ----- --- left ------- -- ---- --- --<br>------- ------,145566.29999995232,145565.5,145335.745,145341.39999985695,145369.696,145595.368,,48,left
screen,html.Screen,2_1_1_1_49,2022-02-03T13:06:03.193Z,,,,,,,,,,,,,,,,,54,,,,,,,,,,,,,,250.7319999046449,,response,,,,100,,,,,,,Space,keypress(Space),,,,,,,,-- --- ---- --- ------ ----- ------- ---- -- --- ------- --<br>------- ---------- ------ -- ----- -- ----- -- ---- ------<br>--- ----- --- --- ------ -------- ----- --- ------ ----- --<br>----- ----- ---------- --- --- ------ ------ ---- -- ------<br>------- --- ------ ----- --- ---- without -- ---- --- --<br>------- ------,145846.89999985695,145846.09999990463,145560.826,145566.5,145595.368,145874.999,,49,without
screen,html.Screen,2_1_1_1_50,2022-02-03T13:06:03.447Z,,,,,,,,,,,,,,,,,54,,,,,,,,,,,,,,225.20099980925443,,response,,,,100,,,,,,,Space,keypress(Space),,,,,,,,-- --- ---- --- ------ ----- ------- ---- -- --- ------- --<br>------- ---------- ------ -- ----- -- ----- -- ---- ------<br>--- ----- --- --- ------ -------- ----- --- ------ ----- --<br>----- ----- ---------- --- --- ------ ------ ---- -- ------<br>------- --- ------ ----- --- ---- ------- an ---- --- --<br>------- ------,146101,146100.19999980927,145836.205,145847.09999990463,145874.999,146129.476,,50,an
screen,html.Screen,2_1_1_1_51,2022-02-03T13:06:03.707Z,,,,,,,,,,,,,,,,,54,,,,,,,,,,,,,,230.42399985695374,,response,,,,100,,,,,,,Space,keypress(Space),,,,,,,,-- --- ---- --- ------ ----- ------- ---- -- --- ------- --<br>------- ---------- ------ -- ----- -- ----- -- ---- ------<br>--- ----- --- --- ------ -------- ----- --- ------ ----- --<br>----- ----- ---------- --- --- ------ ------ ---- -- ------<br>------- --- ------ ----- --- ---- ------- -- easy --- --<br>------- ------,146360.79999995232,146359.89999985695,146099.554,146101.09999990463,146129.476,146389.875,,51,easy
screen,html.Screen,2_1_1_1_52,2022-02-03T13:06:03.927Z,,,,,,,,,,,,,,,,,54,,,,,,,,,,,,,,190.22499990463257,,response,,,,100,,,,,,,Space,keypress(Space),,,,,,,,-- --- ---- --- ------ ----- ------- ---- -- --- ------- --<br>------- ---------- ------ -- ----- -- ----- -- ---- ------<br>--- ----- --- --- ------ -------- ----- --- ------ ----- --<br>----- ----- ---------- --- --- ------ ------ ---- -- ------<br>------- --- ------ ----- --- ---- ------- -- ---- way --<br>------- ------,146580.89999985695,146580.09999990463,146353.34,146361,146389.875,146609.448,,52,way
screen,html.Screen,2_1_1_1_53,2022-02-03T13:06:04.176Z,,,,,,,,,,,,,,,,,54,,,,,,,,,,,,,,219.25199980926118,,response,,,,100,,,,,,,Space,keypress(Space),,,,,,,,-- --- ---- --- ------ ----- ------- ---- -- --- ------- --<br>------- ---------- ------ -- ----- -- ----- -- ---- ------<br>--- ----- --- --- ------ -------- ----- --- ------ ----- --<br>----- ----- ---------- --- --- ------ ------ ---- -- ------<br>------- --- ------ ----- --- ---- ------- -- ---- --- of<br>------- ------,146829.59999990463,146828.69999980927,146579.976,146581.09999990463,146609.448,146858.642,,53,of
screen,html.Screen,2_1_1_1_54,2022-02-03T13:06:04.431Z,,,,,,,,,,,,,,,,,54,,,,,,,,,,,,,,225.85800000000745,,response,,,,100,,,,,,,Space,keypress(Space),,,,,,,,-- --- ---- --- ------ ----- ------- ---- -- --- ------- --<br>------- ---------- ------ -- ----- -- ----- -- ---- ------<br>--- ----- --- --- ------ -------- ----- --- ------ ----- --<br>----- ----- ---------- --- --- ------ ------ ---- -- ------<br>------- --- ------ ----- --- ---- ------- -- ---- --- --<br>raising ------,147085.19999980927,147084.5,146817.185,146829.69999980927,146858.642,147115.416,,54,raising
screen,html.Screen,2_1_1_1_55,2022-02-03T13:06:04.707Z,,,,,,,,,,,,,,,,,54,,,,,,,,,,,,,,244.38399995231885,,response,,,,100,,,,,,,Space,keypress(Space),,,,,,,,-- --- ---- --- ------ ----- ------- ---- -- --- ------- --<br>------- ---------- ------ -- ----- -- ----- -- ---- ------<br>--- ----- --- --- ------ -------- ----- --- ------ ----- --<br>----- ----- ---------- --- --- ------ ------ ---- -- ------<br>------- --- ------ ----- --- ---- ------- -- ---- --- --<br>------- money.,147360.69999980927,147359.79999995232,147081.541,147085.39999985695,147115.416,147389.982,,55,money.
Item 100,flow.Loop,2_1_1_1,2022-02-03T13:06:04.707Z,,,,,,,,,,,,,,,,,,,,,,,,,,,,,,,13795.356999952317,,completion,,,,,F,,,,,,,,,,,silence,,,,,147361,147359.79999995232,133548.111,133549.39999985695,133564.443,147389.982,,,
Question 1,html.Screen,2_1_1_2,2022-02-03T13:06:07.104Z,,,,,,,,,,,,,,,,,,,,,,,,,,,,true,TRUE,,2365.018000000011,,response,,,,100,F,,,,,,TRUE,click #choice-1,,,,silence,,,,,149757.5,149755,147354.863,147361.09999990463,147389.982,149769.424,,,
Question 2,html.Screen,2_1_1_3,2022-02-03T13:06:09.246Z,,,,,,,,,,,,,,,,,,,,,,,,,,,,false,FALSE,,2128.97599985695,,response,,,,100,F,,,,,,TRUE,click #choice-1,,,,silence,,,,,151900.29999995232,151898.39999985695,149752.745,149757.69999980927,149769.424,151909.111,,,
Item 100,flow.Sequence,2_1_1,2022-02-03T13:06:09.247Z,,,,,,,,,,,,,,,,,,,,,,,,,,,,,,,28342.731999856944,,completion,,,,,,,,,,,,,,,,,,,,,151900.5,151898.39999985695,123539.259,123554,123555.668,151909.111,,,
End of Practice,html.Page,2_1_2,2022-02-03T13:06:12.725Z,,,,,,,,,,,,,,,,,,,,,,,,,,,,,,,3469.688999952312,,form submission,,,,,,,,,,,,,,,,,,,,,155379.19999980927,155378.79999995232,151892.462,151900.59999990463,151909.111,155383.233,,,
Practice,flow.Sequence,2_1,2022-02-03T13:06:12.726Z,,,,,,,,,,,,,,,,,,,,,,,,,,,,,,,66338.95699995232,,completion,,,,,,,,,,,,,,,,,,,,,155379.5,155378.79999995232,89023.252,89027,89039.843,155383.233,,,
Trap_instruction,html.Page,2_2_0,2022-02-03T13:06:16.760Z,,,,,,,,,,,,,,,,,,,,,,,,,,,,,,,4030.366999904625,,form submission,,,,,,,,,,,,,,,,,,,,,159414.09999990463,159413.59999990463,155367.15,155379.69999980927,155383.233,159422.072,,,
trap_trial,html.Screen,2_2_1,2022-02-03T13:06:19.779Z,,,,,,,,,,,,,,,,,,,,,,,,,,,,true,1,,3009.3279998569633,,response,,,,,,,,,,,1,click #choice-1,,,,,,,,,162432.69999980927,162431.39999985695,159405.567,159414.29999995232,159422.072,162436.11,,,
end of trap trial,html.Page,2_2_2,2022-02-03T13:06:21.308Z,,,,,,,,,,,,,,,,,,,,,,,,,,,,,,,1525.1899999523303,,form submission,,,,,,,,,,,,,,,,,,,,,163961.5,163961.29999995232,162419.558,162432.89999985695,162436.11,163979.457,,,
Trap 1,flow.Sequence,2_2,2022-02-03T13:06:21.308Z,,,,,,,,,,,,,,,,,,,,,,,,,,,,,,,8578.066999952309,,completion,,,,,,,,,,,,,,,,,,,,,163961.79999995232,163961.29999995232,155367.15,155379.59999990463,155383.233,163979.457,,,
Standby,html.Page,2_3_0,2022-02-03T13:06:29.317Z,,,,,,,,,,,,,,,,,,,,,,,,,,,,,,,8006.1750000000175,,timeout,,,,,,,,,,,,,,,,,,,,,171970.39999985695,171969.27,163945.479,163962,163979.457,171985.632,,,
Holding screen,html.Screen,2_3_1_0_0,2022-02-03T13:06:36.320Z,,,,,,,,,,,,,,,,,,,,,,,,,,,,,,,7004.546999999991,,timeout,,,,,,,,,,,,,,,,,,,,,178973.89999985695,178972.732,171969.27,171970.59999990463,171985.632,178990.179,,,
screen,html.Screen,2_3_1_0_1_0,2022-02-03T13:06:37.176Z,,,,,,,,,,,,,,,,,48,,,,,,,,,,,,,,838.9209999046288,,response,,,,10,F,,,,,,Space,keypress(Space),,,,instrumental,,,,As -- --- ------ ------- --------- ----------- --------<br>--------- -------- --- ------- -- ------- ---- -- ------<br>-- --- -------- -------- ---------- ---- ---- ---- ------<br>-- --------- -- ---- -- --- -- --- ------- -- - -----<br>---------- -- -- -- ---- ----- -- ------ -- --- ------<br>-------,179830,179829.09999990463,178972.732,178974.19999980927,178990.179,179853.957,,0,As
screen,html.Screen,2_3_1_0_1_1,2022-02-03T13:06:37.431Z,,,,,,,,,,,,,,,,,48,,,,,,,,,,,,,,230.44299985695397,,response,,,,10,F,,,,,,Space,keypress(Space),,,,instrumental,,,,-- in --- ------ ------- --------- ----------- --------<br>--------- -------- --- ------- -- ------- ---- -- ------<br>-- --- -------- -------- ---------- ---- ---- ---- ------<br>-- --------- -- ---- -- --- -- --- ------- -- - -----<br>---------- -- -- -- ---- ----- -- ------ -- --- ------<br>-------,180085.29999995232,180084.39999985695,179823.436,179830.19999980927,179853.957,180114.139,,1,in
screen,html.Screen,2_3_1_0_1_2,2022-02-03T13:06:37.682Z,,,,,,,,,,,,,,,,,48,,,,,,,,,,,,,,220.56099980926956,,response,,,,10,F,,,,,,Space,keypress(Space),,,,instrumental,,,,-- -- the ------ ------- --------- ----------- --------<br>--------- -------- --- ------- -- ------- ---- -- ------<br>-- --- -------- -------- ---------- ---- ---- ---- ------<br>-- --------- -- ---- -- --- -- --- ------- -- - -----<br>---------- -- -- -- ---- ----- -- ------ -- --- ------<br>-------,180335.5,180334.69999980927,180082.34,180085.39999985695,180114.139,180373.73,,2,the
screen,html.Screen,2_3_1_0_1_3,2022-02-03T13:06:38.052Z,,,,,,,,,,,,,,,,,48,,,,,,,,,,,,,,331.0699999523058,,response,,,,10,F,,,,,,Space,keypress(Space),,,,instrumental,,,,-- -- --- United ------- --------- ----------- --------<br>--------- -------- --- ------- -- ------- ---- -- ------<br>-- --- -------- -------- ---------- ---- ---- ---- ------<br>-- --------- -- ---- -- --- -- --- ------- -- - -----<br>---------- -- -- -- ---- ----- -- ------ -- --- ------<br>-------,180705.59999990463,180704.79999995232,180320.846,180335.59999990463,180373.73,180734.433,,3,United
screen,html.Screen,2_3_1_0_1_4,2022-02-03T13:06:38.262Z,,,,,,,,,,,,,,,,,48,,,,,,,,,,,,,,180.3669999523263,,response,,,,10,F,,,,,,Space,keypress(Space),,,,instrumental,,,,"-- -- --- ------ States, --------- ----------- --------<br>--------- -------- --- ------- -- ------- ---- -- ------<br>-- --- -------- -------- ---------- ---- ---- ---- ------<br>-- --------- -- ---- -- --- -- --- ------- -- - -----<br>---------- -- -- -- ---- ----- -- ------ -- --- ------<br>-------",180915.5,180914.79999995232,180704.348,180705.79999995232,180734.433,180943.889,,4,"States,"
screen,html.Screen,2_3_1_0_1_5,2022-02-03T13:06:38.452Z,,,,,,,,,,,,,,,,,48,,,,,,,,,,,,,,160.81099980926956,,response,,,,10,F,,,,,,Space,keypress(Space),,,,instrumental,,,,-- -- --- ------ ------- Colombian ----------- --------<br>--------- -------- --- ------- -- ------- ---- -- ------<br>-- --- -------- -------- ---------- ---- ---- ---- ------<br>-- --------- -- ---- -- --- -- --- ------- -- - -----<br>---------- -- -- -- ---- ----- -- ------ -- --- ------<br>-------,181105.5,181104.69999980927,180908.31,180915.69999980927,180943.889,181133.7,,5,Colombian
screen,html.Screen,2_3_1_0_1_6,2022-02-03T13:06:38.702Z,,,,,,,,,,,,,,,,,48,,,,,,,,,,,,,,220.9999998092535,,response,,,,10,F,,,,,,Space,keypress(Space),,,,instrumental,,,,-- -- --- ------ ------- --------- legislation --------<br>--------- -------- --- ------- -- ------- ---- -- ------<br>-- --- -------- -------- ---------- ---- ---- ---- ------<br>-- --------- -- ---- -- --- -- --- ------- -- - -----<br>---------- -- -- -- ---- ----- -- ------ -- --- ------<br>-------,181355.5,181354.69999980927,181101.515,181105.59999990463,181133.7,181393.637,,6,legislation
screen,html.Screen,2_3_1_0_1_7,2022-02-03T13:06:39.182Z,,,,,,,,,,,,,,,,,48,,,,,,,,,,,,,,441.4629999046447,,response,,,,10,F,,,,,,Space,keypress(Space),,,,instrumental,,,,-- -- --- ------ ------- --------- ----------- requires<br>--------- -------- --- ------- -- ------- ---- -- ------<br>-- --- -------- -------- ---------- ---- ---- ---- ------<br>-- --------- -- ---- -- --- -- --- ------- -- - -----<br>---------- -- -- -- ---- ----- -- ------ -- --- ------<br>-------,181835.89999985695,181835.09999990463,181341.342,181355.69999980927,181393.637,181863.894,,7,requires
screen,html.Screen,2_3_1_0_1_8,2022-02-03T13:06:39.562Z,,,,,,,,,,,,,,,,,48,,,,,,,,,,,,,,350.8059998092649,,response,,,,10,F,,,,,,Space,keypress(Space),,,,instrumental,,,,-- -- --- ------ ------- --------- ----------- --------<br>travelers -------- --- ------- -- ------- ---- -- ------<br>-- --- -------- -------- ---------- ---- ---- ---- ------<br>-- --------- -- ---- -- --- -- --- ------- -- - -----<br>---------- -- -- -- ---- ----- -- ------ -- --- ------<br>-------,182215.69999980927,182214.69999980927,181824.995,181836.09999990463,181863.894,182238.897,,8,travelers
screen,html.Screen,2_3_1_0_1_9,2022-02-03T13:06:39.802Z,,,,,,,,,,,,,,,,,48,,,,,,,,,,,,,,216.30299980926793,,response,,,,10,F,,,,,,Space,keypress(Space),,,,instrumental,,,,-- -- --- ------ ------- --------- ----------- --------<br>--------- entering --- ------- -- ------- ---- -- ------<br>-- --- -------- -------- ---------- ---- ---- ---- ------<br>-- --------- -- ---- -- --- -- --- ------- -- - -----<br>---------- -- -- -- ---- ----- -- ------ -- --- ------<br>-------,182456,182455.19999980927,182204.872,182215.79999995232,182238.897,182484.966,,9,entering
screen,html.Screen,2_3_1_0_1_10,2022-02-03T13:06:40.062Z,,,,,,,,,,,,,,,,,48,,,,,,,,,,,,,,230.0340000000142,,response,,,,10,F,,,,,,Space,keypress(Space),,,,instrumental,,,,-- -- --- ------ ------- --------- ----------- --------<br>--------- -------- the ------- -- ------- ---- -- ------<br>-- --- -------- -------- ---------- ---- ---- ---- ------<br>-- --------- -- ---- -- --- -- --- ------- -- - -----<br>---------- -- -- -- ---- ----- -- ------ -- --- ------<br>-------,182715.89999985695,182715,182451.24,182456.19999980927,182484.966,182741.832,,10,the
screen,html.Screen,2_3_1_0_1_11,2022-02-03T13:06:40.294Z,,,,,,,,,,,,,,,,,48,,,,,,,,,,,,,,204.9679999523214,,response,,,,10,F,,,,,,Space,keypress(Space),,,,instrumental,,,,-- -- --- ------ ------- --------- ----------- --------<br>--------- -------- --- country -- ------- ---- -- ------<br>-- --- -------- -------- ---------- ---- ---- ---- ------<br>-- --------- -- ---- -- --- -- --- ------- -- - -----<br>---------- -- -- -- ---- ----- -- ------ -- --- ------<br>-------,182947.5,182946.79999995232,182708.409,182716,182741.832,182967.786,,11,country
screen,html.Screen,2_3_1_0_1_12,2022-02-03T13:06:40.522Z,,,,,,,,,,,,,,,,,48,,,,,,,,,,,,,,207.0139999523235,,response,,,,10,F,,,,,,Space,keypress(Space),,,,instrumental,,,,-- -- --- ------ ------- --------- ----------- --------<br>--------- -------- --- ------- to ------- ---- -- ------<br>-- --- -------- -------- ---------- ---- ---- ---- ------<br>-- --------- -- ---- -- --- -- --- ------- -- - -----<br>---------- -- -- -- ---- ----- -- ------ -- --- ------<br>-------,183175.69999980927,183174.79999995232,182935.181,182947.69999980927,182967.786,183203.636,,12,to
screen,html.Screen,2_3_1_0_1_13,2022-02-03T13:06:40.752Z,,,,,,,,,,,,,,,,,48,,,,,,,,,,,,,,201.06399980926653,,response,,,,10,F,,,,,,Space,keypress(Space),,,,instrumental,,,,-- -- --- ------ ------- --------- ----------- --------<br>--------- -------- --- ------- -- declare ---- -- ------<br>-- --- -------- -------- ---------- ---- ---- ---- ------<br>-- --------- -- ---- -- --- -- --- ------- -- - -----<br>---------- -- -- -- ---- ----- -- ------ -- --- ------<br>-------,183405.5,183404.69999980927,183166.798,183175.79999995232,183203.636,183433.961,,13,declare
screen,html.Screen,2_3_1_0_1_14,2022-02-03T13:06:41.002Z,,,,,,,,,,,,,,,,,48,,,,,,,,,,,,,,221.2389998092549,,response,,,,10,F,,,,,,Space,keypress(Space),,,,instrumental,,,,-- -- --- ------ ------- --------- ----------- --------<br>--------- -------- --- ------- -- ------- cash -- ------<br>-- --- -------- -------- ---------- ---- ---- ---- ------<br>-- --------- -- ---- -- --- -- --- ------- -- - -----<br>---------- -- -- -- ---- ----- -- ------ -- --- ------<br>-------,183656,183655.19999980927,183394.65,183405.69999980927,183433.961,183689.866,,14,cash
screen,html.Screen,2_3_1_0_1_15,2022-02-03T13:06:41.242Z,,,,,,,,,,,,,,,,,48,,,,,,,,,,,,,,204.9339999523072,,response,,,,10,F,,,,,,Space,keypress(Space),,,,instrumental,,,,-- -- --- ------ ------- --------- ----------- --------<br>--------- -------- --- ------- -- ------- ---- in ------<br>-- --- -------- -------- ---------- ---- ---- ---- ------<br>-- --------- -- ---- -- --- -- --- ------- -- - -----<br>---------- -- -- -- ---- ----- -- ------ -- --- ------<br>-------,183895.59999990463,183894.79999995232,183641.604,183656.19999980927,183689.866,183923.756,,15,in
screen,html.Screen,2_3_1_0_1_16,2022-02-03T13:06:41.522Z,,,,,,,,,,,,,,,,,48,,,,,,,,,,,,,,250.9439998092712,,response,,,,10,F,,,,,,Space,keypress(Space),,,,instrumental,,,,-- -- --- ------ ------- --------- ----------- --------<br>--------- -------- --- ------- -- ------- ---- -- excess<br>-- --- -------- -------- ---------- ---- ---- ---- ------<br>-- --------- -- ---- -- --- -- --- ------- -- - -----<br>---------- -- -- -- ---- ----- -- ------ -- --- ------<br>-------,184175.39999985695,184174.69999980927,183891.531,183895.79999995232,183923.756,184197.974,,16,excess
screen,html.Screen,2_3_1_0_1_17,2022-02-03T13:06:41.811Z,,,,,,,,,,,,,,,,,48,,,,,,,,,,,,,,266.5260000000126,,response,,,,10,F,,,,,,Space,keypress(Space),,,,instrumental,,,,-- -- --- ------ ------- --------- ----------- --------<br>--------- -------- --- ------- -- ------- ---- -- ------<br>of --- -------- -------- ---------- ---- ---- ---- ------<br>-- --------- -- ---- -- --- -- --- ------- -- - -----<br>---------- -- -- -- ---- ----- -- ------ -- --- ------<br>-------,184465.29999995232,184464.5,184164.754,184175.59999990463,184197.974,184486.408,,17,of
screen,html.Screen,2_3_1_0_1_18,2022-02-03T13:06:42.062Z,,,,,,,,,,,,,,,,,48,,,,,,,,,,,,,,228.79199980926933,,response,,,,10,F,,,,,,Space,keypress(Space),,,,instrumental,,,,-- -- --- ------ ------- --------- ----------- --------<br>--------- -------- --- ------- -- ------- ---- -- ------<br>-- ten -------- -------- ---------- ---- ---- ---- ------<br>-- --------- -- ---- -- --- -- --- ------- -- - -----<br>---------- -- -- -- ---- ----- -- ------ -- --- ------<br>-------,184715.89999985695,184715.19999980927,184460.957,184465.5,184486.408,184753.726,,18,ten
screen,html.Screen,2_3_1_0_1_19,2022-02-03T13:06:42.262Z,,,,,,,,,,,,,,,,,48,,,,,,,,,,,,,,160.97399980927003,,response,,,,10,F,,,,,,Space,keypress(Space),,,,instrumental,,,,-- -- --- ------ ------- --------- ----------- --------<br>--------- -------- --- ------- -- ------- ---- -- ------<br>-- --- thousand -------- ---------- ---- ---- ---- ------<br>-- --------- -- ---- -- --- -- --- ------- -- - -----<br>---------- -- -- -- ---- ----- -- ------ -- --- ------<br>-------,184915.5,184914.69999980927,184700.75,184716.09999990463,184753.726,184918.146,,19,thousand
screen,html.Screen,2_3_1_0_1_20,2022-02-03T13:06:42.483Z,,,,,,,,,,,,,,,,,48,,,,,,,,,,,,,,217.55399980925722,,response,,,,10,F,,,,,,Space,keypress(Space),,,,instrumental,,,,-- -- --- ------ ------- --------- ----------- --------<br>--------- -------- --- ------- -- ------- ---- -- ------<br>-- --- -------- dollars. ---------- ---- ---- ---- ------<br>-- --------- -- ---- -- --- -- --- ------- -- - -----<br>---------- -- -- -- ---- ----- -- ------ -- --- ------<br>-------,185136.5,185135.69999980927,184901.498,184915.69999980927,184918.146,185165.871,,20,dollars.
screen,html.Screen,2_3_1_0_1_21,2022-02-03T13:06:42.722Z,,,,,,,,,,,,,,,,,48,,,,,,,,,,,,,,209.12899999998626,,response,,,,10,F,,,,,,Space,keypress(Space),,,,instrumental,,,,-- -- --- ------ ------- --------- ----------- --------<br>--------- -------- --- ------- -- ------- ---- -- ------<br>-- --- -------- -------- Concealing ---- ---- ---- ------<br>-- --------- -- ---- -- --- -- --- ------- -- - -----<br>---------- -- -- -- ---- ----- -- ------ -- --- ------<br>-------,185375.89999985695,185375,185135.535,185136.59999990463,185165.871,185404.932,,21,Concealing
screen,html.Screen,2_3_1_0_1_22,2022-02-03T13:06:43.062Z,,,,,,,,,,,,,,,,,48,,,,,,,,,,,,,,310.0679999999993,,response,,,,10,F,,,,,,Space,keypress(Space),,,,instrumental,,,,-- -- --- ------ ------- --------- ----------- --------<br>--------- -------- --- ------- -- ------- ---- -- ------<br>-- --- -------- -------- ---------- more ---- ---- ------<br>-- --------- -- ---- -- --- -- --- ------- -- - -----<br>---------- -- -- -- ---- ----- -- ------ -- --- ------<br>-------,185715.79999995232,185715,185372.35,185376.09999990463,185404.932,185744.893,,22,more
screen,html.Screen,2_3_1_0_1_23,2022-02-03T13:06:43.322Z,,,,,,,,,,,,,,,,,48,,,,,,,,,,,,,,230.60699999998906,,response,,,,10,F,,,,,,Space,keypress(Space),,,,instrumental,,,,-- -- --- ------ ------- --------- ----------- --------<br>--------- -------- --- ------- -- ------- ---- -- ------<br>-- --- -------- -------- ---------- ---- than ---- ------<br>-- --------- -- ---- -- --- -- --- ------- -- - -----<br>---------- -- -- -- ---- ----- -- ------ -- --- ------<br>-------,185976.29999995232,185975.5,185711.581,185715.89999985695,185744.893,186003.798,,23,than
screen,html.Screen,2_3_1_0_1_24,2022-02-03T13:06:43.562Z,,,,,,,,,,,,,,,,,48,,,,,,,,,,,,,,211.40199980925536,,response,,,,10,F,,,,,,Space,keypress(Space),,,,instrumental,,,,-- -- --- ------ ------- --------- ----------- --------<br>--------- -------- --- ------- -- ------- ---- -- ------<br>-- --- -------- -------- ---------- ---- ---- that ------<br>-- --------- -- ---- -- --- -- --- ------- -- - -----<br>---------- -- -- -- ---- ----- -- ------ -- --- ------<br>-------,186216.09999990463,186215.19999980927,185968.594,185976.5,186003.798,186253.561,,24,that
screen,html.Screen,2_3_1_0_1_25,2022-02-03T13:06:43.802Z,,,,,,,,,,,,,,,,,48,,,,,,,,,,,,,,201.43900000001304,,response,,,,10,F,,,,,,Space,keypress(Space),,,,instrumental,,,,-- -- --- ------ ------- --------- ----------- --------<br>--------- -------- --- ------- -- ------- ---- -- ------<br>-- --- -------- -------- ---------- ---- ---- ---- amount<br>-- --------- -- ---- -- --- -- --- ------- -- - -----<br>---------- -- -- -- ---- ----- -- ------ -- --- ------<br>-------,186456,186455,186212.102,186216.09999990463,186253.561,186485.544,,25,amount
screen,html.Screen,2_3_1_0_1_26,2022-02-03T13:06:44.082Z,,,,,,,,,,,,,,,,,48,,,,,,,,,,,,,,249.55599990463816,,response,,,,10,F,,,,,,Space,keypress(Space),,,,instrumental,,,,-- -- --- ------ ------- --------- ----------- --------<br>--------- -------- --- ------- -- ------- ---- -- ------<br>-- --- -------- -------- ---------- ---- ---- ---- ------<br>to --------- -- ---- -- --- -- --- ------- -- - -----<br>---------- -- -- -- ---- ----- -- ------ -- --- ------<br>-------,186735.89999985695,186735.09999990463,186451.966,186456.09999990463,186485.544,186763.758,,26,to
screen,html.Screen,2_3_1_0_1_27,2022-02-03T13:06:44.292Z,,,,,,,,,,,,,,,,,48,,,,,,,,,,,,,,181.14199985694722,,response,,,,10,F,,,,,,Space,keypress(Space),,,,instrumental,,,,-- -- --- ------ ------- --------- ----------- --------<br>--------- -------- --- ------- -- ------- ---- -- ------<br>-- --- -------- -------- ---------- ---- ---- ---- ------<br>-- transport -- ---- -- --- -- --- ------- -- - -----<br>---------- -- -- -- ---- ----- -- ------ -- --- ------<br>-------,186945.69999980927,186944.89999985695,186724.944,186736.09999990463,186763.758,186973.664,,27,transport
screen,html.Screen,2_3_1_0_1_28,2022-02-03T13:06:44.542Z,,,,,,,,,,,,,,,,,48,,,,,,,,,,,,,,221.63599995232653,,response,,,,10,F,,,,,,Space,keypress(Space),,,,instrumental,,,,-- -- --- ------ ------- --------- ----------- --------<br>--------- -------- --- ------- -- ------- ---- -- ------<br>-- --- -------- -------- ---------- ---- ---- ---- ------<br>-- --------- it ---- -- --- -- --- ------- -- - -----<br>---------- -- -- -- ---- ----- -- ------ -- --- ------<br>-------,187196.09999990463,187195.29999995232,186938.489,186945.79999995232,186973.664,187223.801,,28,it
screen,html.Screen,2_3_1_0_1_29,2022-02-03T13:06:44.752Z,,,,,,,,,,,,,,,,,48,,,,,,,,,,,,,,181.39899980925838,,response,,,,10,F,,,,,,Space,keypress(Space),,,,instrumental,,,,-- -- --- ------ ------- --------- ----------- --------<br>--------- -------- --- ------- -- ------- ---- -- ------<br>-- --- -------- -------- ---------- ---- ---- ---- ------<br>-- --------- -- into -- --- -- --- ------- -- - -----<br>---------- -- -- -- ---- ----- -- ------ -- --- ------<br>-------,187406.09999990463,187405.19999980927,187182.513,187196.29999995232,187223.801,187433.815,,29,into
screen,html.Screen,2_3_1_0_1_30,2022-02-03T13:06:44.942Z,,,,,,,,,,,,,,,,,48,,,,,,,,,,,,,,160.8849998092628,,response,,,,10,F,,,,,,Space,keypress(Space),,,,instrumental,,,,-- -- --- ------ ------- --------- ----------- --------<br>--------- -------- --- ------- -- ------- ---- -- ------<br>-- --- -------- -------- ---------- ---- ---- ---- ------<br>-- --------- -- ---- or --- -- --- ------- -- - -----<br>---------- -- -- -- ---- ----- -- ------ -- --- ------<br>-------,187595.5,187594.69999980927,187398.573,187406.19999980927,187433.815,187624.387,,30,or
screen,html.Screen,2_3_1_0_1_31,2022-02-03T13:06:45.172Z,,,,,,,,,,,,,,,,,48,,,,,,,,,,,,,,200.31299980927724,,response,,,,10,F,,,,,,Space,keypress(Space),,,,instrumental,,,,-- -- --- ------ ------- --------- ----------- --------<br>--------- -------- --- ------- -- ------- ---- -- ------<br>-- --- -------- -------- ---------- ---- ---- ---- ------<br>-- --------- -- ---- -- out -- --- ------- -- - -----<br>---------- -- -- -- ---- ----- -- ------ -- --- ------<br>-------,187825.5,187824.69999980927,187591.798,187595.69999980927,187624.387,187848.849,,31,out
screen,html.Screen,2_3_1_0_1_32,2022-02-03T13:06:45.414Z,,,,,,,,,,,,,,,,,48,,,,,,,,,,,,,,217.75099990464514,,response,,,,10,F,,,,,,Space,keypress(Space),,,,instrumental,,,,-- -- --- ------ ------- --------- ----------- --------<br>--------- -------- --- ------- -- ------- ---- -- ------<br>-- --- -------- -------- ---------- ---- ---- ---- ------<br>-- --------- -- ---- -- --- of --- ------- -- - -----<br>---------- -- -- -- ---- ----- -- ------ -- --- ------<br>-------,188067.39999985695,188066.59999990463,187814.92,187825.69999980927,187848.849,188094.937,,32,of
screen,html.Screen,2_3_1_0_1_33,2022-02-03T13:06:45.673Z,,,,,,,,,,,,,,,,,48,,,,,,,,,,,,,,230.6629999046272,,response,,,,10,F,,,,,,Space,keypress(Space),,,,instrumental,,,,-- -- --- ------ ------- --------- ----------- --------<br>--------- -------- --- ------- -- ------- ---- -- ------<br>-- --- -------- -------- ---------- ---- ---- ---- ------<br>-- --------- -- ---- -- --- -- the ------- -- - -----<br>---------- -- -- -- ---- ----- -- ------ -- --- ------<br>-------,188326.5,188325.59999990463,188061.099,188067.59999990463,188094.937,188353.908,,33,the
screen,html.Screen,2_3_1_0_1_34,2022-02-03T13:06:45.898Z,,,,,,,,,,,,,,,,,48,,,,,,,,,,,,,,196.99199985695304,,response,,,,10,F,,,,,,Space,keypress(Space),,,,instrumental,,,,-- -- --- ------ ------- --------- ----------- --------<br>--------- -------- --- ------- -- ------- ---- -- ------<br>-- --- -------- -------- ---------- ---- ---- ---- ------<br>-- --------- -- ---- -- --- -- --- country -- - -----<br>---------- -- -- -- ---- ----- -- ------ -- --- ------<br>-------,188551.59999990463,188550.89999985695,188320.095,188326.59999990463,188353.908,188583.819,,34,country
screen,html.Screen,2_3_1_0_1_35,2022-02-03T13:06:46.112Z,,,,,,,,,,,,,,,,,48,,,,,,,,,,,,,,181.6810000000114,,response,,,,10,F,,,,,,Space,keypress(Space),,,,instrumental,,,,-- -- --- ------ ------- --------- ----------- --------<br>--------- -------- --- ------- -- ------- ---- -- ------<br>-- --- -------- -------- ---------- ---- ---- ---- ------<br>-- --------- -- ---- -- --- -- --- ------- is - -----<br>---------- -- -- -- ---- ----- -- ------ -- --- ------<br>-------,188766.09999990463,188765.5,188545.824,188551.89999985695,188583.819,188785.928,,35,is
screen,html.Screen,2_3_1_0_1_36,2022-02-03T13:06:46.312Z,,,,,,,,,,,,,,,,,48,,,,,,,,,,,,,,179.07199999998556,,response,,,,10,F,,,,,,Space,keypress(Space),,,,instrumental,,,,-- -- --- ------ ------- --------- ----------- --------<br>--------- -------- --- ------- -- ------- ---- -- ------<br>-- --- -------- -------- ---------- ---- ---- ---- ------<br>-- --------- -- ---- -- --- -- --- ------- -- a -----<br>---------- -- -- -- ---- ----- -- ------ -- --- ------<br>-------,188965.69999980927,188965,188753.625,188766.29999995232,188785.928,188984.999,,36,a
screen,html.Screen,2_3_1_0_1_37,2022-02-03T13:06:46.532Z,,,,,,,,,,,,,,,,,48,,,,,,,,,,,,,,199.90099985693814,,response,,,,10,F,,,,,,Space,keypress(Space),,,,instrumental,,,,-- -- --- ------ ------- --------- ----------- --------<br>--------- -------- --- ------- -- ------- ---- -- ------<br>-- --- -------- -------- ---------- ---- ---- ---- ------<br>-- --------- -- ---- -- --- -- --- ------- -- - crime<br>---------- -- -- -- ---- ----- -- ------ -- --- ------<br>-------,189185.59999990463,189184.89999985695,188952.244,188965.89999985695,188984.999,189215.116,,37,crime
screen,html.Screen,2_3_1_0_1_38,2022-02-03T13:06:46.822Z,,,,,,,,,,,,,,,,,48,,,,,,,,,,,,,,259.58399980925606,,response,,,,10,F,,,,,,Space,keypress(Space),,,,instrumental,,,,-- -- --- ------ ------- --------- ----------- --------<br>--------- -------- --- ------- -- ------- ---- -- ------<br>-- --- -------- -------- ---------- ---- ---- ---- ------<br>-- --------- -- ---- -- --- -- --- ------- -- - -----<br>punishable -- -- -- ---- ----- -- ------ -- --- ------<br>-------,189475.39999985695,189474.69999980927,189184.559,189185.89999985695,189215.116,189503.782,,38,punishable
screen,html.Screen,2_3_1_0_1_39,2022-02-03T13:06:47.032Z,,,,,,,,,,,,,,,,,48,,,,,,,,,,,,,,181.41799980925862,,response,,,,10,F,,,,,,Space,keypress(Space),,,,instrumental,,,,-- -- --- ------ ------- --------- ----------- --------<br>--------- -------- --- ------- -- ------- ---- -- ------<br>-- --- -------- -------- ---------- ---- ---- ---- ------<br>-- --------- -- ---- -- --- -- --- ------- -- - -----<br>---------- by -- -- ---- ----- -- ------ -- --- ------<br>-------,189686.09999990463,189685.19999980927,189471.75,189475.59999990463,189503.782,189713.774,,39,by
screen,html.Screen,2_3_1_0_1_40,2022-02-03T13:06:47.224Z,,,,,,,,,,,,,,,,,48,,,,,,,,,,,,,,163.5259999523114,,response,,,,10,F,,,,,,Space,keypress(Space),,,,instrumental,,,,-- -- --- ------ ------- --------- ----------- --------<br>--------- -------- --- ------- -- ------- ---- -- ------<br>-- --- -------- -------- ---------- ---- ---- ---- ------<br>-- --------- -- ---- -- --- -- --- ------- -- - -----<br>---------- -- up -- ---- ----- -- ------ -- --- ------<br>-------,189878.19999980927,189877.29999995232,189678.141,189686.19999980927,189713.774,189903.819,,40,up
screen,html.Screen,2_3_1_0_1_41,2022-02-03T13:06:47.432Z,,,,,,,,,,,,,,,,,48,,,,,,,,,,,,,,181.08099985696026,,response,,,,10,F,,,,,,Space,keypress(Space),,,,instrumental,,,,-- -- --- ------ ------- --------- ----------- --------<br>--------- -------- --- ------- -- ------- ---- -- ------<br>-- --- -------- -------- ---------- ---- ---- ---- ------<br>-- --------- -- ---- -- --- -- --- ------- -- - -----<br>---------- -- -- to ---- ----- -- ------ -- --- ------<br>-------,190085.79999995232,190084.89999985695,189871.646,189878.29999995232,189903.819,190113.795,,41,to
screen,html.Screen,2_3_1_0_1_42,2022-02-03T13:06:47.632Z,,,,,,,,,,,,,,,,,48,,,,,,,,,,,,,,171.10499985693605,,response,,,,10,F,,,,,,Space,keypress(Space),,,,instrumental,,,,-- -- --- ------ ------- --------- ----------- --------<br>--------- -------- --- ------- -- ------- ---- -- ------<br>-- --- -------- -------- ---------- ---- ---- ---- ------<br>-- --------- -- ---- -- --- -- --- ------- -- - -----<br>---------- -- -- -- five ----- -- ------ -- --- ------<br>-------,190285.69999980927,190284.89999985695,190081.029,190085.89999985695,190113.795,190323.696,,42,five
