sender,sender_type,sender_id,timestamp,meta,,Blues,Classical,Country,Dance,Electronic,Folk,Gospel,Hip-Hop,Jazz,Latin,Musical/Film,New-age,Pop,Prolific_id,Provo_ID,R&B,Rap,Reggae,Religious,Rock,Soul,Swing,Traditional,age,artist_name,correct,correctResponse,distraction,duration,education,ended_on,familiarity,gender,headphone_check_performance,item,list,music_frequency,offensiveness,pleasantness,position_correct,preference,response,response_action,snippet_file,song_name,song_rating,sound,stimulus_1,stimulus_2,stimulus_3,text,time_commit,time_end,time_render,time_run,time_show,time_switch,url,word,word_ID
Prolific ID,html.Form,0,2022-02-17T16:42:17.488Z,"{""labjs_version"":""20.2.2"",""labjs_build"":{""flavor"":""production"",""commit"":""a25486e0c714a0ae2ce03ff94b7bb6896854dcfa""},""location"":""https://run.pavlovia.org/mvasilev/prolific2_music_f/"",""userAgent"":""Mozilla/5.0 (Windows NT 10.0; Win64; x64) AppleWebKit/537.36 (KHTML, like Gecko) Chrome/98.0.4758.102 Safari/537.36"",""platform"":""Win32"",""language"":""en-GB"",""locale"":""en-GB"",""timeZone"":""Europe/London"",""timezoneOffset"":0,""screen_width"":1280,""screen_height"":721,""scroll_width"":1280,""scroll_height"":561,""window_innerWidth"":1280,""window_innerHeight"":609,""devicePixelRatio"":1.5}",,,,,,,,,,,,,,,5d41925ef7b99500012b960e,,,,,,,,,,,,,,,3269.0110000000004,,form submission,,,,,,,,,,,,,,,,,,,,,8623.5,8623,5337.271,5346.799999952316,5353.989,8623.958,{},,
Introduction,html.Screen,1_0,2022-02-17T16:42:22.873Z,,,,,,,,,,,,,,,,,,,,,,,,,,,,,,,5381.341999952316,,response,,,,,,,,,,,continue,click button,,,,,,,,,14008.099999904633,14005.299999952316,8607.269,8623.799999952316,8623.958,14012.656,,,
Volume calibration,html.Screen,1_1,2022-02-17T16:42:42.721Z,,,,,,,,,,,,,,,,,,,,,,,,,,,,,,,19840.343999999997,,response,,,,,,,,,,,continue,click button,,,,,,,,,33856.39999985695,33853,13996.021,14008.299999952316,14012.656,33865.775,,,
Task instructions,html.Screen,1_2,2022-02-17T16:42:49.462Z,,,,,,,,,,,,,,,,,,,,,,,,,,,,,,,6731.024999952315,,response,,,,,,,,,,,continue,click button,,,,,,,,,40597.39999985695,40596.799999952316,33849.229,33856.5,33865.775,40605.972,,,
Sounds,html.Screen,1_3_0_0,2022-02-17T16:42:53.711Z,,,,,,,,,,,,,,,,,,,,,,,,,,,,,,,4254.241000000002,,timeout,,,,,,,,,1,,,,,,,,S,O,I,,44845.799999952316,44843.454,40589.288,40597.699999809265,40605.972,44860.213,,,
Judgement,html.Screen,1_3_0_1,2022-02-17T16:42:56.455Z,,,,,,,,,,,,,,,,,,,,,,,,,,,,true,1,,2728.7869999999966,,response,,,,,,,,,1,,1,click #choice-1,,,,,S,O,I,,47589.89999985695,47589,44843.454,44845.89999985695,44860.213,47596.218,,,
Trial,flow.Sequence,1_3_0,2022-02-17T16:42:56.455Z,,,,,,,,,,,,,,,,,,,,,,,,,,,,,,,6983.027999999998,,completion,,,,,,,,,1,,,,,,,,S,O,I,,47590.299999952316,47589,40589.288,40597.59999990463,40605.972,47596.218,,,
Sounds,html.Screen,1_3_1_0,2022-02-17T16:43:00.700Z,,,,,,,,,,,,,,,,,,,,,,,,,,,,,,,4254.398999999998,,timeout,,,,,,,,,3,,,,,,,,O,I,S,,51835.09999990463,51834.03,47579.717,47590.39999985695,47596.218,51850.617,,,
Judgement,html.Screen,1_3_1_1,2022-02-17T16:43:02.111Z,,,,,,,,,,,,,,,,,,,,,,,,,,,,true,3,,1394.3830000000016,,response,,,,,,,,,3,,3,click #choice-3,,,,,O,I,S,,53246,53245,51834.03,51835.299999952316,51850.617,53251.872,,,
Trial,flow.Sequence,1_3_1,2022-02-17T16:43:02.111Z,,,,,,,,,,,,,,,,,,,,,,,,,,,,,,,5648.781999999999,,completion,,,,,,,,,3,,,,,,,,O,I,S,,53246.199999809265,53245,47579.717,47590.39999985695,47596.218,53251.872,,,
Sounds,html.Screen,1_3_2_0,2022-02-17T16:43:06.356Z,,,,,,,,,,,,,,,,,,,,,,,,,,,,,,,4254.449999999997,,timeout,,,,,,,,,3,,,,,,,,I,O,S,,57490.799999952316,57489.453,53235.229,53246.39999985695,53251.872,57506.322,,,
Judgement,html.Screen,1_3_2_1,2022-02-17T16:43:07.039Z,,,,,,,,,,,,,,,,,,,,,,,,,,,,true,3,,666.877999809265,,response,,,,,,,,,3,,3,click #choice-3,,,,,I,O,S,,58174.09999990463,58173.199999809265,57489.453,57491.199999809265,57506.322,58190.092,,,
Trial,flow.Sequence,1_3_2,2022-02-17T16:43:07.039Z,,,,,,,,,,,,,,,,,,,,,,,,,,,,,,,4921.327999809262,,completion,,,,,,,,,3,,,,,,,,I,O,S,,58174.39999985695,58173.199999809265,53235.229,53246.299999952316,53251.872,58190.092,,,
Sounds,html.Screen,1_3_3_0,2022-02-17T16:43:11.294Z,,,,,,,,,,,,,,,,,,,,,,,,,,,,,,,4254.242000000006,,timeout,,,,,,,,,2,,,,,,,,O,S,I,,62429.299999952316,62427.714,58173.499,58174.5,58190.092,62444.334,,,
Judgement,html.Screen,1_3_3_1,2022-02-17T16:43:11.959Z,,,,,,,,,,,,,,,,,,,,,,,,,,,,true,2,,648.6659999999974,,response,,,,,,,,,2,,2,click #choice-2,,,,,O,S,I,,63093.799999952316,63093,62427.714,62429.59999990463,62444.334,63094.991,,,
Trial,flow.Sequence,1_3_3,2022-02-17T16:43:11.959Z,,,,,,,,,,,,,,,,,,,,,,,,,,,,,,,4902.908000000003,,completion,,,,,,,,,2,,,,,,,,O,S,I,,63094,63093,58173.499,58174.5,58190.092,63094.991,,,
Sounds,html.Screen,1_3_4_0,2022-02-17T16:43:16.198Z,,,,,,,,,,,,,,,,,,,,,,,,,,,,,,,4254.3529999999955,,timeout,,,,,,,,,2,,,,,,,,I,S,O,,67333.59999990463,67332.691,63078.312,63094.09999990463,63094.991,67349.344,,,
Judgement,html.Screen,1_3_4_1,2022-02-17T16:43:16.782Z,,,,,,,,,,,,,,,,,,,,,,,,,,,,true,2,,567.5559998569515,,response,,,,,,,,,2,,2,click #choice-2,,,,,I,S,O,,67917.69999980927,67916.89999985695,67332.691,67333.79999995232,67349.344,67933.191,,,
Trial,flow.Sequence,1_3_4,2022-02-17T16:43:16.783Z,,,,,,,,,,,,,,,,,,,,,,,,,,,,,,,4821.908999856947,,completion,,,,,,,,,2,,,,,,,,I,S,O,,67917.89999985695,67916.89999985695,63078.312,63094,63094.991,67933.191,,,
Sounds,html.Screen,1_3_5_0,2022-02-17T16:43:21.036Z,,,,,,,,,,,,,,,,,,,,,,,,,,,,,,,4254.20199999999,,timeout,,,,,,,,,1,,,,,,,,S,I,O,,72171.29999995232,72170.75,67916.698,67917.89999985695,67933.191,72187.393,,,
Judgement,html.Screen,1_3_5_1,2022-02-17T16:43:21.751Z,,,,,,,,,,,,,,,,,,,,,,,,,,,,true,1,,697.5069998569525,,response,,,,,,,,,1,,1,click #choice-1,,,,,S,I,O,,72885.79999995232,72884.89999985695,72170.75,72171.5,72187.393,72888.106,,,
Trial,flow.Sequence,1_3_5,2022-02-17T16:43:21.751Z,,,,,,,,,,,,,,,,,,,,,,,,,,,,,,,4951.708999856943,,completion,,,,,,,,,1,,,,,,,,S,I,O,,72886,72884.89999985695,67916.698,67917.89999985695,67933.191,72888.106,,,
Task,flow.Loop,1_3,2022-02-17T16:43:21.755Z,,,,,,,,,,,,,,,,,,,,,,,,,,,,,,,32278.927999856947,,completion,,,1,,,,,,,,,,,,,,,,,,72890.5,72884.89999985695,40589.288,40597.59999990463,40605.972,72888.106,,,
Trap,html.Screen,1_4,2022-02-17T16:43:21.756Z,,,,,,,,,,,,,,,,,,,,,,,,,,,,,,,NaN,,skipped,,,,,,,,,,,,,,,,,,,,,72891.59999990463,72884.89999985695,,72891.5,,72888.106,,,
Thanks,html.Screen,1_5,2022-02-17T16:43:24.358Z,,,,,,,,,,,,,,,,,,,,,,,,,,,,,,,2604.793999856949,,response,,,,,,,,,,,continue,click button,,,,,,,,,75493.59999990463,75492.89999985695,72871.729,72891.69999980927,72888.106,78443.607,,,
Headphone screening,flow.Sequence,1,2022-02-17T16:43:24.359Z,,,,,,,,,,,,,,,,,,,,,,,,,,,,,,,66868.94199985695,,completion,,,,,,,,,,,,,,,,,,,,,75493.79999995232,75492.89999985695,8607.269,8623.799999952316,8623.958,78443.607,,,
Instructions,html.Page,2_0,2022-02-17T16:43:49.495Z,,,,,,,,,,,,,,,,,,,,,,,,,,,,,,,22186.09299980926,,form submission,,,,,,,,,,,,,,,,,,,,,100629.89999985695,100629.69999980927,78427.266,78443,78443.607,100632.475,,,
Holding screen,html.Screen,2_1_0_0,2022-02-17T16:43:59.475Z,,,,,,,,,,,,,,,,,,,,,,,,,,,,,,,10009.964999999997,,timeout,,,,,,,,,,,,,,,,,,,,,110610.39999985695,110609.297,100615.805,100630.09999990463,100632.475,110642.44,,,
screen,html.Screen,2_1_0_1_0,2022-02-17T16:44:00.256Z,,,,,,,,,,,,,,,,,53,,,,,,,,,,,,,,747.4599998569465,,response,,,,99,,,,,,,Space,keypress(Space),,,,,,,,When -- ----- -- ------ - ------- --- ----------<br>------------- ------ ------ ---- ---- ------- ----- -- ----<br>-------- ------- -- ---------- --- - --- ----- ----- ----<br>---- --- --- ----- --- ---- ---- ------- ----- ---- -------<br>--- --- -- ----- -- --- ---- -- --- ---- -- ------ ------<br>--- ----- -- ----,111391.5,111389.89999985695,110609.297,110610.79999995232,110642.44,111393.153,,0,When
screen,html.Screen,2_1_0_1_1,2022-02-17T16:44:00.618Z,,,,,,,,,,,,,,,,,53,,,,,,,,,,,,,,359.1469999523106,,response,,,,99,,,,,,,Space,keypress(Space),,,,,,,,---- it ----- -- ------ - ------- --- ----------<br>------------- ------ ------ ---- ---- ------- ----- -- ----<br>-------- ------- -- ---------- --- - --- ----- ----- ----<br>---- --- --- ----- --- ---- ---- ------- ----- ---- -------<br>--- --- -- ----- -- --- ---- -- --- ---- -- ------ ------<br>--- ----- -- ----,111753.39999985695,111752.29999995232,111376.749,111391.59999990463,111393.153,111760.298,,1,it
screen,html.Screen,2_1_0_1_2,2022-02-17T16:44:00.931Z,,,,,,,,,,,,,,,,,53,,,,,,,,,,,,,,304.7020000000048,,response,,,,99,,,,,,,Space,keypress(Space),,,,,,,,---- -- comes -- ------ - ------- --- ----------<br>------------- ------ ------ ---- ---- ------- ----- -- ----<br>-------- ------- -- ---------- --- - --- ----- ----- ----<br>---- --- --- ----- --- ---- ---- ------- ----- ---- -------<br>--- --- -- ----- -- --- ---- -- --- ---- -- ------ ------<br>--- ----- -- ----,112066.09999990463,112065,111743.577,111753.69999980927,111760.298,112077.537,,2,comes
screen,html.Screen,2_1_0_1_3,2022-02-17T16:44:01.331Z,,,,,,,,,,,,,,,,,53,,,,,,,,,,,,,,387.56299990463594,,response,,,,99,,,,,,,Space,keypress(Space),,,,,,,,---- -- ----- to ------ - ------- --- ----------<br>------------- ------ ------ ---- ---- ------- ----- -- ----<br>-------- ------- -- ---------- --- - --- ----- ----- ----<br>---- --- --- ----- --- ---- ---- ------- ----- ---- -------<br>--- --- -- ----- -- --- ---- -- --- ---- -- ------ ------<br>--- ----- -- ----,112466.29999995232,112465.09999990463,112060.644,112066.39999985695,112077.537,112477.751,,3,to
screen,html.Screen,2_1_0_1_4,2022-02-17T16:44:01.690Z,,,,,,,,,,,,,,,,,53,,,,,,,,,,,,,,347.04899995231244,,response,,,,99,,,,,,,Space,keypress(Space),,,,,,,,---- -- ----- -- having - ------- --- ----------<br>------------- ------ ------ ---- ---- ------- ----- -- ----<br>-------- ------- -- ---------- --- - --- ----- ----- ----<br>---- --- --- ----- --- ---- ---- ------- ----- ---- -------<br>--- --- -- ----- -- --- ---- -- --- ---- -- ------ ------<br>--- ----- -- ----,112825.5,112824.79999995232,112461.23,112466.59999990463,112477.751,112828,,4,having
screen,html.Screen,2_1_0_1_5,2022-02-17T16:44:02.058Z,,,,,,,,,,,,,,,,,53,,,,,,,,,,,,,,364,,response,,,,99,,,,,,,Space,keypress(Space),,,,,,,,---- -- ----- -- ------ a ------- --- ----------<br>------------- ------ ------ ---- ---- ------- ----- -- ----<br>-------- ------- -- ---------- --- - --- ----- ----- ----<br>---- --- --- ----- --- ---- ---- ------- ----- ---- -------<br>--- --- -- ----- -- --- ---- -- --- ---- -- ------ ------<br>--- ----- -- ----,113192.79999995232,113192,112811.605,112825.69999980927,112828,113194.98,,5,a
screen,html.Screen,2_1_0_1_6,2022-02-17T16:44:02.458Z,,,,,,,,,,,,,,,,,53,,,,,,,,,,,,,,397.11999990463664,,response,,,,99,,,,,,,Space,keypress(Space),,,,,,,,---- -- ----- -- ------ - lasting --- ----------<br>------------- ------ ------ ---- ---- ------- ----- -- ----<br>-------- ------- -- ---------- --- - --- ----- ----- ----<br>---- --- --- ----- --- ---- ---- ------- ----- ---- -------<br>--- --- -- ----- -- --- ---- -- --- ---- -- ------ ------<br>--- ----- -- ----,113593,113592.09999990463,113178.616,113193,113194.98,113595.459,,6,lasting
screen,html.Screen,2_1_0_1_7,2022-02-17T16:44:02.882Z,,,,,,,,,,,,,,,,,53,,,,,,,,,,,,,,420.7409998092626,,response,,,,99,,,,,,,Space,keypress(Space),,,,,,,,---- -- ----- -- ------ - ------- and ----------<br>------------- ------ ------ ---- ---- ------- ----- -- ----<br>-------- ------- -- ---------- --- - --- ----- ----- ----<br>---- --- --- ----- --- ---- ---- ------- ----- ---- -------<br>--- --- -- ----- -- --- ---- -- --- ---- -- ------ ------<br>--- ----- -- ----,114017.29999995232,114016.19999980927,113578.734,113593.29999995232,113595.459,114029.226,,7,and
screen,html.Screen,2_1_0_1_8,2022-02-17T16:44:03.312Z,,,,,,,,,,,,,,,,,53,,,,,,,,,,,,,,417.47399980927,,response,,,,99,,,,,,,Space,keypress(Space),,,,,,,,---- -- ----- -- ------ - ------- --- fulfilling<br>------------- ------ ------ ---- ---- ------- ----- -- ----<br>-------- ------- -- ---------- --- - --- ----- ----- ----<br>---- --- --- ----- --- ---- ---- ------- ----- ---- -------<br>--- --- -- ----- -- --- ---- -- --- ---- -- ------ ------<br>--- ----- -- ----,114447,114446.69999980927,114012.603,114017.59999990463,114029.226,114462.928,,8,fulfilling
screen,html.Screen,2_1_0_1_9,2022-02-17T16:44:03.689Z,,,,,,,,,,,,,,,,,53,,,,,,,,,,,,,,360.5720000000001,,response,,,,99,,,,,,,Space,keypress(Space),,,,,,,,"---- -- ----- -- ------ - ------- --- ----------<br>relationship, ------ ------ ---- ---- ------- ----- -- ----<br>-------- ------- -- ---------- --- - --- ----- ----- ----<br>---- --- --- ----- --- ---- ---- ------- ----- ---- -------<br>--- --- -- ----- -- --- ---- -- --- ---- -- ------ ------<br>--- ----- -- ----",114824.09999990463,114823.5,114446.267,114447.09999990463,114462.928,114829.987,,9,"relationship,"
screen,html.Screen,2_1_0_1_10,2022-02-17T16:44:04.003Z,,,,,,,,,,,,,,,,,53,,,,,,,,,,,,,,306.5130000000063,,response,,,,99,,,,,,,Space,keypress(Space),,,,,,,,---- -- ----- -- ------ - ------- --- ----------<br>------------- common ------ ---- ---- ------- ----- -- ----<br>-------- ------- -- ---------- --- - --- ----- ----- ----<br>---- --- --- ----- --- ---- ---- ------- ----- ---- -------<br>--- --- -- ----- -- --- ---- -- --- ---- -- ------ ------<br>--- ----- -- ----,115137.59999990463,115136.5,114813.541,114824.39999985695,114829.987,115147.036,,10,common
screen,html.Screen,2_1_0_1_11,2022-02-17T16:44:04.314Z,,,,,,,,,,,,,,,,,53,,,,,,,,,,,,,,301.0639999046398,,response,,,,99,,,,,,,Space,keypress(Space),,,,,,,,---- -- ----- -- ------ - ------- --- ----------<br>------------- ------ wisdom ---- ---- ------- ----- -- ----<br>-------- ------- -- ---------- --- - --- ----- ----- ----<br>---- --- --- ----- --- ---- ---- ------- ----- ---- -------<br>--- --- -- ----- -- --- ---- -- --- ---- -- ------ ------<br>--- ----- -- ----,115449,115448.09999990463,115130.375,115137.89999985695,115147.036,115464.004,,11,wisdom
screen,html.Screen,2_1_0_1_12,2022-02-17T16:44:04.651Z,,,,,,,,,,,,,,,,,53,,,,,,,,,,,,,,321.1959998092643,,response,,,,99,,,,,,,Space,keypress(Space),,,,,,,,---- -- ----- -- ------ - ------- --- ----------<br>------------- ------ ------ says ---- ------- ----- -- ----<br>-------- ------- -- ---------- --- - --- ----- ----- ----<br>---- --- --- ----- --- ---- ---- ------- ----- ---- -------<br>--- --- -- ----- -- --- ---- -- --- ---- -- ------ ------<br>--- ----- -- ----,115786.19999980927,115785.19999980927,115447.257,115449.19999980927,115464.004,115797.867,,12,says
screen,html.Screen,2_1_0_1_13,2022-02-17T16:44:04.963Z,,,,,,,,,,,,,,,,,53,,,,,,,,,,,,,,298.7329999046342,,response,,,,99,,,,,,,Space,keypress(Space),,,,,,,,---- -- ----- -- ------ - ------- --- ----------<br>------------- ------ ------ ---- that ------- ----- -- ----<br>-------- ------- -- ---------- --- - --- ----- ----- ----<br>---- --- --- ----- --- ---- ---- ------- ----- ---- -------<br>--- --- -- ----- -- --- ---- -- --- ---- -- ------ ------<br>--- ----- -- ----,116097.59999990463,116096.59999990463,115780.956,115786.39999985695,115797.867,116114.675,,13,that
screen,html.Screen,2_1_0_1_14,2022-02-17T16:44:05.322Z,,,,,,,,,,,,,,,,,53,,,,,,,,,,,,,,341.92499990462966,,response,,,,99,,,,,,,Space,keypress(Space),,,,,,,,---- -- ----- -- ------ - ------- --- ----------<br>------------- ------ ------ ---- ---- feeling ----- -- ----<br>-------- ------- -- ---------- --- - --- ----- ----- ----<br>---- --- --- ----- --- ---- ---- ------- ----- ---- -------<br>--- --- -- ----- -- --- ---- -- --- ---- -- ------ ------<br>--- ----- -- ----,116457.5,116456.59999990463,116097.936,116097.89999985695,116114.675,116464.98,,14,feeling
screen,html.Screen,2_1_0_1_15,2022-02-17T16:44:05.771Z,,,,,,,,,,,,,,,,,53,,,,,,,,,,,,,,439.5200000000041,,response,,,,99,,,,,,,Space,keypress(Space),,,,,,,,---- -- ----- -- ------ - ------- --- ----------<br>------------- ------ ------ ---- ---- ------- close -- ----<br>-------- ------- -- ---------- --- - --- ----- ----- ----<br>---- --- --- ----- --- ---- ---- ------- ----- ---- -------<br>--- --- -- ----- -- --- ---- -- --- ---- -- ------ ------<br>--- ----- -- ----,116905.69999980927,116904.5,116448.607,116457.69999980927,116464.98,116915.533,,15,close
screen,html.Screen,2_1_0_1_16,2022-02-17T16:44:06.090Z,,,,,,,,,,,,,,,,,53,,,,,,,,,,,,,,308.36699985695304,,response,,,,99,,,,,,,Space,keypress(Space),,,,,,,,---- -- ----- -- ------ - ------- --- ----------<br>------------- ------ ------ ---- ---- ------- ----- to ----<br>-------- ------- -- ---------- --- - --- ----- ----- ----<br>---- --- --- ----- --- ---- ---- ------- ----- ---- -------<br>--- --- -- ----- -- --- ---- -- --- ---- -- ------ ------<br>--- ----- -- ----,117224.89999985695,117223.89999985695,116898.755,116906.09999990463,116915.533,117232.375,,16,to
screen,html.Screen,2_1_0_1_17,2022-02-17T16:44:06.458Z,,,,,,,,,,,,,,,,,53,,,,,,,,,,,,,,360.125,,response,,,,99,,,,,,,Space,keypress(Space),,,,,,,,---- -- ----- -- ------ - ------- --- ----------<br>------------- ------ ------ ---- ---- ------- ----- -- your<br>-------- ------- -- ---------- --- - --- ----- ----- ----<br>---- --- --- ----- --- ---- ---- ------- ----- ---- -------<br>--- --- -- ----- -- --- ---- -- --- ---- -- ------ ------<br>--- ----- -- ----,117593.39999985695,117592.5,117215.807,117225.19999980927,117232.375,117599.454,,17,your
screen,html.Screen,2_1_0_1_18,2022-02-17T16:44:06.819Z,,,,,,,,,,,,,,,,,53,,,,,,,,,,,,,,353.3459999523184,,response,,,,99,,,,,,,Space,keypress(Space),,,,,,,,---- -- ----- -- ------ - ------- --- ----------<br>------------- ------ ------ ---- ---- ------- ----- -- ----<br>romantic ------- -- ---------- --- - --- ----- ----- ----<br>---- --- --- ----- --- ---- ---- ------- ----- ---- -------<br>--- --- -- ----- -- --- ---- -- --- ---- -- ------ ------<br>--- ----- -- ----,117953.79999995232,117952.79999995232,117583.095,117593.69999980927,117599.454,117966.686,,18,romantic
screen,html.Screen,2_1_0_1_19,2022-02-17T16:44:07.115Z,,,,,,,,,,,,,,,,,53,,,,,,,,,,,,,,282.0139998092636,,response,,,,99,,,,,,,Space,keypress(Space),,,,,,,,---- -- ----- -- ------ - ------- --- ----------<br>------------- ------ ------ ---- ---- ------- ----- -- ----<br>-------- partner -- ---------- --- - --- ----- ----- ----<br>---- --- --- ----- --- ---- ---- ------- ----- ---- -------<br>--- --- -- ----- -- --- ---- -- --- ---- -- ------ ------<br>--- ----- -- ----,118249.69999980927,118248.69999980927,117949.854,117954,117966.686,118267.026,,19,partner
screen,html.Screen,2_1_0_1_20,2022-02-17T16:44:07.432Z,,,,,,,,,,,,,,,,,53,,,,,,,,,,,,,,299.1739998092671,,response,,,,99,,,,,,,Space,keypress(Space),,,,,,,,---- -- ----- -- ------ - ------- --- ----------<br>------------- ------ ------ ---- ---- ------- ----- -- ----<br>-------- ------- is ---------- --- - --- ----- ----- ----<br>---- --- --- ----- --- ---- ---- ------- ----- ---- -------<br>--- --- -- ----- -- --- ---- -- --- ---- -- ------ ------<br>--- ----- -- ----,118566.59999990463,118566.19999980927,118250.085,118249.79999995232,118267.026,118583.846,,20,is
screen,html.Screen,2_1_0_1_21,2022-02-17T16:44:07.779Z,,,,,,,,,,,,,,,,,53,,,,,,,,,,,,,,329.35399980926013,,response,,,,99,,,,,,,Space,keypress(Space),,,,,,,,---- -- ----- -- ------ - ------- --- ----------<br>------------- ------ ------ ---- ---- ------- ----- -- ----<br>-------- ------- -- paramount. --- - --- ----- ----- ----<br>---- --- --- ----- --- ---- ---- ------- ----- ---- -------<br>--- --- -- ----- -- --- ---- -- --- ---- -- ------ ------<br>--- ----- -- ----,118914.19999980927,118913.19999980927,118550.614,118566.69999980927,118583.846,118917.376,,21,paramount.
screen,html.Screen,2_1_0_1_22,2022-02-17T16:44:08.402Z,,,,,,,,,,,,,,,,,53,,,,,,,,,,,,,,618.1239999999962,,response,,,,99,,,,,,,Space,keypress(Space),,,,,,,,---- -- ----- -- ------ - ------- --- ----------<br>------------- ------ ------ ---- ---- ------- ----- -- ----<br>-------- ------- -- ---------- But - --- ----- ----- ----<br>---- --- --- ----- --- ---- ---- ------- ----- ---- -------<br>--- --- -- ----- -- --- ---- -- --- ---- -- ------ ------<br>--- ----- -- ----,119536.79999995232,119535.5,118900.888,118914.39999985695,118917.376,119551.354,,22,But
screen,html.Screen,2_1_0_1_23,2022-02-17T16:44:08.678Z,,,,,,,,,,,,,,,,,53,,,,,,,,,,,,,,261.64599999999336,,response,,,,99,,,,,,,Space,keypress(Space),,,,,,,,---- -- ----- -- ------ - ------- --- ----------<br>------------- ------ ------ ---- ---- ------- ----- -- ----<br>-------- ------- -- ---------- --- a --- ----- ----- ----<br>---- --- --- ----- --- ---- ---- ------- ----- ---- -------<br>--- --- -- ----- -- --- ---- -- --- ---- -- ------ ------<br>--- ----- -- ----,119813.39999985695,119813,119534.775,119537.29999995232,119551.354,119818.263,,23,a
screen,html.Screen,2_1_0_1_24,2022-02-17T16:44:08.978Z,,,,,,,,,,,,,,,,,53,,,,,,,,,,,,,,293.63699985694257,,response,,,,99,,,,,,,Space,keypress(Space),,,,,,,,---- -- ----- -- ------ - ------- --- ----------<br>------------- ------ ------ ---- ---- ------- ----- -- ----<br>-------- ------- -- ---------- --- - new ----- ----- ----<br>---- --- --- ----- --- ---- ---- ------- ----- ---- -------<br>--- --- -- ----- -- --- ---- -- --- ---- -- ------ ------<br>--- ----- -- ----,120112.89999985695,120111.89999985695,119801.555,119813.5,119818.263,120118.66,,24,new
screen,html.Screen,2_1_0_1_25,2022-02-17T16:44:09.272Z,,,,,,,,,,,,,,,,,53,,,,,,,,,,,,,,287.9399999046291,,response,,,,99,,,,,,,Space,keypress(Space),,,,,,,,---- -- ----- -- ------ - ------- --- ----------<br>------------- ------ ------ ---- ---- ------- ----- -- ----<br>-------- ------- -- ---------- --- - --- study ----- ----<br>---- --- --- ----- --- ---- ---- ------- ----- ---- -------<br>--- --- -- ----- -- --- ---- -- --- ---- -- ------ ------<br>--- ----- -- ----,120407,120406.59999990463,120101.857,120113.19999980927,120118.66,120419.02,,25,study
screen,html.Screen,2_1_0_1_26,2022-02-17T16:44:09.598Z,,,,,,,,,,,,,,,,,53,,,,,,,,,,,,,,313.8799998569448,,response,,,,99,,,,,,,Space,keypress(Space),,,,,,,,---- -- ----- -- ------ - ------- --- ----------<br>------------- ------ ------ ---- ---- ------- ----- -- ----<br>-------- ------- -- ---------- --- - --- ----- finds ----<br>---- --- --- ----- --- ---- ---- ------- ----- ---- -------<br>--- --- -- ----- -- --- ---- -- --- ---- -- ------ ------<br>--- ----- -- ----,120733.29999995232,120732.89999985695,120402.434,120407.09999990463,120419.02,120735.869,,26,finds
screen,html.Screen,2_1_0_1_27,2022-02-17T16:44:09.977Z,,,,,,,,,,,,,,,,,53,,,,,,,,,,,,,,375.13099999999395,,response,,,,99,,,,,,,Space,keypress(Space),,,,,,,,---- -- ----- -- ------ - ------- --- ----------<br>------------- ------ ------ ---- ---- ------- ----- -- ----<br>-------- ------- -- ---------- --- - --- ----- ----- that<br>---- --- --- ----- --- ---- ---- ------- ----- ---- -------<br>--- --- -- ----- -- --- ---- -- --- ---- -- ------ ------<br>--- ----- -- ----,121111.79999995232,121111,120719.438,120733.39999985695,120735.869,121119.629,,27,that
screen,html.Screen,2_1_0_1_28,2022-02-17T16:44:10.436Z,,,,,,,,,,,,,,,,,53,,,,,,,,,,,,,,450.67099995231547,,response,,,,99,,,,,,,Space,keypress(Space),,,,,,,,---- -- ----- -- ------ - ------- --- ----------<br>------------- ------ ------ ---- ---- ------- ----- -- ----<br>-------- ------- -- ---------- --- - --- ----- ----- ----<br>it's --- --- ----- --- ---- ---- ------- ----- ---- -------<br>--- --- -- ----- -- --- ---- -- --- ---- -- ------ ------<br>--- ----- -- ----,121571.5,121570.29999995232,121102.847,121111.89999985695,121119.629,121586.893,,28,it's
screen,html.Screen,2_1_0_1_29,2022-02-17T16:44:10.745Z,,,,,,,,,,,,,,,,,53,,,,,,,,,,,,,,292.30699980926875,,response,,,,99,,,,,,,Space,keypress(Space),,,,,,,,---- -- ----- -- ------ - ------- --- ----------<br>------------- ------ ------ ---- ---- ------- ----- -- ----<br>-------- ------- -- ---------- --- - --- ----- ----- ----<br>---- not --- ----- --- ---- ---- ------- ----- ---- -------<br>--- --- -- ----- -- --- ---- -- --- ---- -- ------ ------<br>--- ----- -- ----,121879.89999985695,121879.19999980927,121570.137,121571.79999995232,121586.893,121887.015,,29,not
screen,html.Screen,2_1_0_1_30,2022-02-17T16:44:10.991Z,,,,,,,,,,,,,,,,,53,,,,,,,,,,,,,,238.18499980926572,,response,,,,99,,,,,,,Space,keypress(Space),,,,,,,,---- -- ----- -- ------ - ------- --- ----------<br>------------- ------ ------ ---- ---- ------- ----- -- ----<br>-------- ------- -- ---------- --- - --- ----- ----- ----<br>---- --- how ----- --- ---- ---- ------- ----- ---- -------<br>--- --- -- ----- -- --- ---- -- --- ---- -- ------ ------<br>--- ----- -- ----,122125.59999990463,122125.19999980927,121870.606,121880,121887.015,122137.234,,30,how
screen,html.Screen,2_1_0_1_31,2022-02-17T16:44:11.234Z,,,,,,,,,,,,,,,,,53,,,,,,,,,,,,,,230.86599990463583,,response,,,,99,,,,,,,Space,keypress(Space),,,,,,,,---- -- ----- -- ------ - ------- --- ----------<br>------------- ------ ------ ---- ---- ------- ----- -- ----<br>-------- ------- -- ---------- --- - --- ----- ----- ----<br>---- --- --- close --- ---- ---- ------- ----- ---- -------<br>--- --- -- ----- -- --- ---- -- --- ---- -- ------ ------<br>--- ----- -- ----,122369,122368.09999990463,122120.724,122125.69999980927,122137.234,122391.437,,31,close
screen,html.Screen,2_1_0_1_32,2022-02-17T16:44:11.499Z,,,,,,,,,,,,,,,,,53,,,,,,,,,,,,,,241.4629998569435,,response,,,,99,,,,,,,Space,keypress(Space),,,,,,,,---- -- ----- -- ------ - ------- --- ----------<br>------------- ------ ------ ---- ---- ------- ----- -- ----<br>-------- ------- -- ---------- --- - --- ----- ----- ----<br>---- --- --- ----- you ---- ---- ------- ----- ---- -------<br>--- --- -- ----- -- --- ---- -- --- ---- -- ------ ------<br>--- ----- -- ----,122633.89999985695,122632.89999985695,122354.133,122369.29999995232,122391.437,122637.837,,32,you
screen,html.Screen,2_1_0_1_33,2022-02-17T16:44:11.697Z,,,,,,,,,,,,,,,,,53,,,,,,,,,,,,,,193.16300000000047,,response,,,,99,,,,,,,Space,keypress(Space),,,,,,,,---- -- ----- -- ------ - ------- --- ----------<br>------------- ------ ------ ---- ---- ------- ----- -- ----<br>-------- ------- -- ---------- --- - --- ----- ----- ----<br>---- --- --- ----- --- feel ---- ------- ----- ---- -------<br>--- --- -- ----- -- --- ---- -- --- ---- -- ------ ------<br>--- ----- -- ----,122831.89999985695,122831,122621.413,122634.19999980927,122637.837,122838.041,,33,feel
screen,html.Screen,2_1_0_1_34,2022-02-17T16:44:11.891Z,,,,,,,,,,,,,,,,,53,,,,,,,,,,,,,,187.05899990463513,,response,,,,99,,,,,,,Space,keypress(Space),,,,,,,,---- -- ----- -- ------ - ------- --- ----------<br>------------- ------ ------ ---- ---- ------- ----- -- ----<br>-------- ------- -- ---------- --- - --- ----- ----- ----<br>---- --- --- ----- --- ---- that ------- ----- ---- -------<br>--- --- -- ----- -- --- ---- -- --- ---- -- ------ ------<br>--- ----- -- ----,123026,123025.09999990463,122821.555,122832.19999980927,122838.041,123038.505,,34,that
screen,html.Screen,2_1_0_1_35,2022-02-17T16:44:12.362Z,,,,,,,,,,,,,,,,,53,,,,,,,,,,,,,,457.99499999999534,,response,,,,99,,,,,,,Space,keypress(Space),,,,,,,,---- -- ----- -- ------ - ------- --- ----------<br>------------- ------ ------ ---- ---- ------- ----- -- ----<br>-------- ------- -- ---------- --- - --- ----- ----- ----<br>---- --- --- ----- --- ---- ---- matters ----- ---- -------<br>--- --- -- ----- -- --- ---- -- --- ---- -- ------ ------<br>--- ----- -- ----,123497.59999990463,123496.5,123021.472,123026.29999995232,123038.505,123505.408,,35,matters
screen,html.Screen,2_1_0_1_36,2022-02-17T16:44:12.763Z,,,,,,,,,,,,,,,,,53,,,,,,,,,,,,,,391.2919998092693,,response,,,,99,,,,,,,Space,keypress(Space),,,,,,,,"---- -- ----- -- ------ - ------- --- ----------<br>------------- ------ ------ ---- ---- ------- ----- -- ----<br>-------- ------- -- ---------- --- - --- ----- ----- ----<br>---- --- --- ----- --- ---- ---- ------- most, ---- -------<br>--- --- -- ----- -- --- ---- -- --- ---- -- ------ ------<br>--- ----- -- ----",123898,123896.69999980927,123488.868,123497.89999985695,123505.408,123905.672,,36,"most,"
screen,html.Screen,2_1_0_1_37,2022-02-17T16:44:13.183Z,,,,,,,,,,,,,,,,,53,,,,,,,,,,,,,,412.32799999999406,,response,,,,99,,,,,,,Space,keypress(Space),,,,,,,,---- -- ----- -- ------ - ------- --- ----------<br>------------- ------ ------ ---- ---- ------- ----- -- ----<br>-------- ------- -- ---------- --- - --- ----- ----- ----<br>---- --- --- ----- --- ---- ---- ------- ----- it's -------<br>--- --- -- ----- -- --- ---- -- --- ---- -- ------ ------<br>--- ----- -- ----,124318.29999995232,124318,123889.358,123898.19999980927,123905.672,124322.784,,37,it's
screen,html.Screen,2_1_0_1_38,2022-02-17T16:44:13.591Z,,,,,,,,,,,,,,,,,53,,,,,,,,,,,,,,403.4159998092655,,response,,,,99,,,,,,,Space,keypress(Space),,,,,,,,---- -- ----- -- ------ - ------- --- ----------<br>------------- ------ ------ ---- ---- ------- ----- -- ----<br>-------- ------- -- ---------- --- - --- ----- ----- ----<br>---- --- --- ----- --- ---- ---- ------- ----- ---- whether<br>--- --- -- ----- -- --- ---- -- --- ---- -- ------ ------<br>--- ----- -- ----,124726.5,124726.19999980927,124306.138,124318.39999985695,124322.784,124739.847,,38,whether
screen,html.Screen,2_1_0_1_39,2022-02-17T16:44:13.962Z,,,,,,,,,,,,,,,,,53,,,,,,,,,,,,,,356.35299980927084,,response,,,,99,,,,,,,Space,keypress(Space),,,,,,,,---- -- ----- -- ------ - ------- --- ----------<br>------------- ------ ------ ---- ---- ------- ----- -- ----<br>-------- ------- -- ---------- --- - --- ----- ----- ----<br>---- --- --- ----- --- ---- ---- ------- ----- ---- -------<br>you --- -- ----- -- --- ---- -- --- ---- -- ------ ------<br>--- ----- -- ----,125097.19999980927,125096.19999980927,124723.175,124726.59999990463,124739.847,125106.878,,39,you
screen,html.Screen,2_1_0_1_40,2022-02-17T16:44:14.327Z,,,,,,,,,,,,,,,,,53,,,,,,,,,,,,,,355.2219999046356,,response,,,,99,,,,,,,Space,keypress(Space),,,,,,,,---- -- ----- -- ------ - ------- --- ----------<br>------------- ------ ------ ---- ---- ------- ----- -- ----<br>-------- ------- -- ---------- --- - --- ----- ----- ----<br>---- --- --- ----- --- ---- ---- ------- ----- ---- -------<br>--- are -- ----- -- --- ---- -- --- ---- -- ------ ------<br>--- ----- -- ----,125462.5,125462.09999990463,125090.307,125097.39999985695,125106.878,125473.922,,40,are
screen,html.Screen,2_1_0_1_41,2022-02-17T16:44:14.735Z,,,,,,,,,,,,,,,,,53,,,,,,,,,,,,,,395.9779998569429,,response,,,,99,,,,,,,Space,keypress(Space),,,,,,,,---- -- ----- -- ------ - ------- --- ----------<br>------------- ------ ------ ---- ---- ------- ----- -- ----<br>-------- ------- -- ---------- --- - --- ----- ----- ----<br>---- --- --- ----- --- ---- ---- ------- ----- ---- -------<br>--- --- as ----- -- --- ---- -- --- ---- -- ------ ------<br>--- ----- -- ----,125870.19999980927,125869.89999985695,125457.3,125462.59999990463,125473.922,125874.452,,41,as
screen,html.Screen,2_1_0_1_42,2022-02-17T16:44:15.151Z,,,,,,,,,,,,,,,,,53,,,,,,,,,,,,,,411.5479999999952,,response,,,,99,,,,,,,Space,keypress(Space),,,,,,,,---- -- ----- -- ------ - ------- --- ----------<br>------------- ------ ------ ---- ---- ------- ----- -- ----<br>-------- ------- -- ---------- --- - --- ----- ----- ----<br>---- --- --- ----- --- ---- ---- ------- ----- ---- -------<br>--- --- -- close -- --- ---- -- --- ---- -- ------ ------<br>--- ----- -- ----,126286.59999990463,126286,125857.909,125870.29999995232,125874.452,126291.418,,42,close
screen,html.Screen,2_1_0_1_43,2022-02-17T16:44:15.395Z,,,,,,,,,,,,,,,,,53,,,,,,,,,,,,,,237.38199995231116,,response,,,,99,,,,,,,Space,keypress(Space),,,,,,,,---- -- ----- -- ------ - ------- --- ----------<br>------------- ------ ------ ---- ---- ------- ----- -- ----<br>-------- ------- -- ---------- --- - --- ----- ----- ----<br>---- --- --- ----- --- ---- ---- ------- ----- ---- -------<br>--- --- -- ----- as --- ---- -- --- ---- -- ------ ------<br>--- ----- -- ----,126529.89999985695,126528.79999995232,126274.93,126286.69999980927,126291.418,126541.699,,43,as
screen,html.Screen,2_1_0_1_44,2022-02-17T16:44:15.692Z,,,,,,,,,,,,,,,,,53,,,,,,,,,,,,,,284.60099995232304,,response,,,,99,,,,,,,Space,keypress(Space),,,,,,,,---- -- ----- -- ------ - ------- --- ----------<br>------------- ------ ------ ---- ---- ------- ----- -- ----<br>-------- ------- -- ---------- --- - --- ----- ----- ----<br>---- --- --- ----- --- ---- ---- ------- ----- ---- -------<br>--- --- -- ----- -- you ---- -- --- ---- -- ------ ------<br>--- ----- -- ----,126827.39999985695,126826.29999995232,126524.989,126530.09999990463,126541.699,126842.045,,44,you
screen,html.Screen,2_1_0_1_45,2022-02-17T16:44:16.042Z,,,,,,,,,,,,,,,,,53,,,,,,,,,,,,,,333.8549998569506,,response,,,,99,,,,,,,Space,keypress(Space),,,,,,,,---- -- ----- -- ------ - ------- --- ----------<br>------------- ------ ------ ---- ---- ------- ----- -- ----<br>-------- ------- -- ---------- --- - --- ----- ----- ----<br>---- --- --- ----- --- ---- ---- ------- ----- ---- -------<br>--- --- -- ----- -- --- want -- --- ---- -- ------ ------<br>--- ----- -- ----,127176.89999985695,127175.89999985695,126825.32,126827.59999990463,126842.045,127192.607,,45,want
screen,html.Screen,2_1_0_1_46,2022-02-17T16:44:16.281Z,,,,,,,,,,,,,,,,,53,,,,,,,,,,,,,,222.49299990462896,,response,,,,99,,,,,,,Space,keypress(Space),,,,,,,,---- -- ----- -- ------ - ------- --- ----------<br>------------- ------ ------ ---- ---- ------- ----- -- ----<br>-------- ------- -- ---------- --- - --- ----- ----- ----<br>---- --- --- ----- --- ---- ---- ------- ----- ---- -------<br>--- --- -- ----- -- --- ---- to --- ---- -- ------ ------<br>--- ----- -- ----,127415.69999980927,127415.09999990463,127175.697,127177.19999980927,127192.607,127426.091,,46,to
screen,html.Screen,2_1_0_1_47,2022-02-17T16:44:16.499Z,,,,,,,,,,,,,,,,,53,,,,,,,,,,,,,,206.70899995231593,,response,,,,99,,,,,,,Space,keypress(Space),,,,,,,,"---- -- ----- -- ------ - ------- --- ----------<br>------------- ------ ------ ---- ---- ------- ----- -- ----<br>-------- ------- -- ---------- --- - --- ----- ----- ----<br>---- --- --- ----- --- ---- ---- ------- ----- ---- -------<br>--- --- -- ----- -- --- ---- -- be, ---- -- ------ ------<br>--- ----- -- ----",127633.89999985695,127632.79999995232,127409.34,127415.79999995232,127426.091,127642.826,,47,"be,"
screen,html.Screen,2_1_0_1_48,2022-02-17T16:44:16.850Z,,,,,,,,,,,,,,,,,53,,,,,,,,,,,,,,341.5739998569479,,response,,,,99,,,,,,,Space,keypress(Space),,,,,,,,---- -- ----- -- ------ - ------- --- ----------<br>------------- ------ ------ ---- ---- ------- ----- -- ----<br>-------- ------- -- ---------- --- - --- ----- ----- ----<br>---- --- --- ----- --- ---- ---- ------- ----- ---- -------<br>--- --- -- ----- -- --- ---- -- --- even -- ------ ------<br>--- ----- -- ----,127985.39999985695,127984.39999985695,127626.066,127634.09999990463,127642.826,127993.235,,48,even
screen,html.Screen,2_1_0_1_49,2022-02-17T16:44:17.115Z,,,,,,,,,,,,,,,,,53,,,,,,,,,,,,,,255.46499980926455,,response,,,,99,,,,,,,Space,keypress(Space),,,,,,,,---- -- ----- -- ------ - ------- --- ----------<br>------------- ------ ------ ---- ---- ------- ----- -- ----<br>-------- ------- -- ---------- --- - --- ----- ----- ----<br>---- --- --- ----- --- ---- ---- ------- ----- ---- -------<br>--- --- -- ----- -- --- ---- -- --- ---- if ------ ------<br>--- ----- -- ----,128249.59999990463,128248.69999980927,127976.481,127985.69999980927,127993.235,128260.33,,49,if
screen,html.Screen,2_1_0_1_50,2022-02-17T16:44:17.371Z,,,,,,,,,,,,,,,,,53,,,,,,,,,,,,,,244.96999995231454,,response,,,,99,,,,,,,Space,keypress(Space),,,,,,,,---- -- ----- -- ------ - ------- --- ----------<br>------------- ------ ------ ---- ---- ------- ----- -- ----<br>-------- ------- -- ---------- --- - --- ----- ----- ----<br>---- --- --- ----- --- ---- ---- ------- ----- ---- -------<br>--- --- -- ----- -- --- ---- -- --- ---- -- that's ------<br>--- ----- -- ----,128505.69999980927,128505.29999995232,128243.381,128249.89999985695,128260.33,128510.335,,50,that's
screen,html.Screen,2_1_0_1_51,2022-02-17T16:44:17.811Z,,,,,,,,,,,,,,,,,53,,,,,,,,,,,,,,434.56499985694245,,response,,,,99,,,,,,,Space,keypress(Space),,,,,,,,---- -- ----- -- ------ - ------- --- ----------<br>------------- ------ ------ ---- ---- ------- ----- -- ----<br>-------- ------- -- ---------- --- - --- ----- ----- ----<br>---- --- --- ----- --- ---- ---- ------- ----- ---- -------<br>--- --- -- ----- -- --- ---- -- --- ---- -- ------ really<br>--- ----- -- ----,128945.69999980927,128944.89999985695,128493.647,128505.79999995232,128510.335,128961.043,,51,really
screen,html.Screen,2_1_0_1_52,2022-02-17T16:44:18.210Z,,,,,,,,,,,,,,,,,53,,,,,,,,,,,,,,383.15699980926,,response,,,,99,,,,,,,Space,keypress(Space),,,,,,,,---- -- ----- -- ------ - ------- --- ----------<br>------------- ------ ------ ---- ---- ------- ----- -- ----<br>-------- ------- -- ---------- --- - --- ----- ----- ----<br>---- --- --- ----- --- ---- ---- ------- ----- ---- -------<br>--- --- -- ----- -- --- ---- -- --- ---- -- ------ ------<br>not ----- -- ----,129345.19999980927,129344.19999980927,128944.182,128946,128961.043,129361.152,,52,not
screen,html.Screen,2_1_0_1_53,2022-02-17T16:44:18.531Z,,,,,,,,,,,,,,,,,53,,,,,,,,,,,,,,303.9479999046307,,response,,,,99,,,,,,,Space,keypress(Space),,,,,,,,---- -- ----- -- ------ - ------- --- ----------<br>------------- ------ ------ ---- ---- ------- ----- -- ----<br>-------- ------- -- ---------- --- - --- ----- ----- ----<br>---- --- --- ----- --- ---- ---- ------- ----- ---- -------<br>--- --- -- ----- -- --- ---- -- --- ---- -- ------ ------<br>--- close -- ----,129666.09999990463,129665.09999990463,129344.859,129345.5,129361.152,129678.574,,53,close
screen,html.Screen,2_1_0_1_54,2022-02-17T16:44:18.883Z,,,,,,,,,,,,,,,,,53,,,,,,,,,,,,,,338.3259998569556,,response,,,,99,,,,,,,Space,keypress(Space),,,,,,,,---- -- ----- -- ------ - ------- --- ----------<br>------------- ------ ------ ---- ---- ------- ----- -- ----<br>-------- ------- -- ---------- --- - --- ----- ----- ----<br>---- --- --- ----- --- ---- ---- ------- ----- ---- -------<br>--- --- -- ----- -- --- ---- -- --- ---- -- ------ ------<br>--- ----- at ----,130018,130016.89999985695,129661.684,129666.29999995232,129678.574,130028.619,,54,at
screen,html.Screen,2_1_0_1_55,2022-02-17T16:44:20.756Z,,,,,,,,,,,,,,,,,53,,,,,,,,,,,,,,1861.6809999523102,,response,,,,99,,,,,,,Space,keypress(Space),,,,,,,,---- -- ----- -- ------ - ------- --- ----------<br>------------- ------ ------ ---- ---- ------- ----- -- ----<br>-------- ------- -- ---------- --- - --- ----- ----- ----<br>---- --- --- ----- --- ---- ---- ------- ----- ---- -------<br>--- --- -- ----- -- --- ---- -- --- ---- -- ------ ------<br>--- ----- -- all.,131891.5,131890.29999995232,130012.085,130018.19999980927,130028.619,131897.138,,55,all.
Item 99,flow.Loop,2_1_0_1,2022-02-17T16:44:20.757Z,,,,,,,,,,,,,,,,,,,,,,,,,,,,,,,21247.859999952314,,completion,,,,,F,,,,,,,,,,,silence,,,,,131892.19999980927,131890.29999995232,110609.297,110610.69999980927,110642.44,131897.138,,,
Question 1,html.Screen,2_1_0_2,2022-02-17T16:44:29.695Z,,,,,,,,,,,,,,,,,,,,,,,,,,,,true,FALSE,,8932.261999856943,,response,,,,99,F,,,,,,FALSE,click #choice-2,,,,silence,,,,,140830.29999995232,140829.39999985695,131880.602,131892.39999985695,131897.138,140839.268,,,
Question 2,html.Screen,2_1_0_3,2022-02-17T16:44:33.183Z,,,,,,,,,,,,,,,,,,,,,,,,,,,,true,TRUE,,3477.731999999989,,response,,,,99,F,,,,,,TRUE,click #choice-1,,,,silence,,,,,144318.09999990463,144317,140822.815,140830.5,140839.268,144326.067,,,
Item 99,flow.Sequence,2_1_0,2022-02-17T16:44:33.183Z,,,,,,,,,,,,,,,,,,,,,,,,,,,,,,,43684.524999999994,,completion,,,,,,,,,,,,,,,,,,,,,144318.29999995232,144317,100615.805,100630.09999990463,100632.475,144326.067,,,
Holding screen,html.Screen,2_1_1_0,2022-02-17T16:44:43.169Z,,,,,,,,,,,,,,,,,,,,,,,,,,,,,,,9993.430999999982,,timeout,,,,,,,,,,,,,,,,,,,,,154304.09999990463,154302.983,144309.44,144318.39999985695,144326.067,154319.498,,,
screen,html.Screen,2_1_1_1_0,2022-02-17T16:44:43.971Z,,,,,,,,,,,,,,,,,54,,,,,,,,,,,,,,785.5020000000077,,response,,,,100,,,,,,,Space,keypress(Space),,,,,,,,At --- ---- --- ------ ----- ------- ---- -- --- ------- --<br>------- ---------- ------ -- ----- -- ----- -- ---- ------<br>--- ----- --- --- ------ -------- ----- --- ------ ----- --<br>----- ----- ---------- --- --- ------ ------ ---- -- ------<br>------- --- ------ ----- --- ---- ------- -- ---- --- --<br>------- ------,155105.89999985695,155105,154302.983,154304.5,154319.498,155120.29,,0,At
screen,html.Screen,2_1_1_1_1,2022-02-17T16:44:44.316Z,,,,,,,,,,,,,,,,,54,,,,,,,,,,,,,,329.3099999046244,,response,,,,100,,,,,,,Space,keypress(Space),,,,,,,,-- the ---- --- ------ ----- ------- ---- -- --- ------- --<br>------- ---------- ------ -- ----- -- ----- -- ---- ------<br>--- ----- --- --- ------ -------- ----- --- ------ ----- --<br>----- ----- ---------- --- --- ------ ------ ---- -- ------<br>------- --- ------ ----- --- ---- ------- -- ---- --- --<br>------- ------,155450.59999990463,155449.59999990463,155103.821,155105.89999985695,155120.29,155453.982,,1,the
screen,html.Screen,2_1_1_1_2,2022-02-17T16:44:44.587Z,,,,,,,,,,,,,,,,,54,,,,,,,,,,,,,,267.1179999046435,,response,,,,100,,,,,,,Space,keypress(Space),,,,,,,,-- --- time --- ------ ----- ------- ---- -- --- ------- --<br>------- ---------- ------ -- ----- -- ----- -- ---- ------<br>--- ----- --- --- ------ -------- ----- --- ------ ----- --<br>----- ----- ---------- --- --- ------ ------ ---- -- ------<br>------- --- ------ ----- --- ---- ------- -- ---- --- --<br>------- ------,155722.09999990463,155721.09999990463,155437.217,155450.89999985695,155453.982,155737.826,,2,time
screen,html.Screen,2_1_1_1_3,2022-02-17T16:44:44.892Z,,,,,,,,,,,,,,,,,54,,,,,,,,,,,,,,288.0739998569479,,response,,,,100,,,,,,,Space,keypress(Space),,,,,,,,-- --- ---- the ------ ----- ------- ---- -- --- ------- --<br>------- ---------- ------ -- ----- -- ----- -- ---- ------<br>--- ----- --- --- ------ -------- ----- --- ------ ----- --<br>----- ----- ---------- --- --- ------ ------ ---- -- ------<br>------- --- ------ ----- --- ---- ------- -- ---- --- --<br>------- ------,156026.89999985695,156025.89999985695,155721.12,155722.39999985695,155737.826,156037.949,,3,the
screen,html.Screen,2_1_1_1_4,2022-02-17T16:44:45.224Z,,,,,,,,,,,,,,,,,54,,,,,,,,,,,,,,320.6509999046393,,response,,,,100,,,,,,,Space,keypress(Space),,,,,,,,-- --- ---- --- French ----- ------- ---- -- --- ------- --<br>------- ---------- ------ -- ----- -- ----- -- ---- ------<br>--- ----- --- --- ------ -------- ----- --- ------ ----- --<br>----- ----- ---------- --- --- ------ ------ ---- -- ------<br>------- --- ------ ----- --- ---- ------- -- ---- --- --<br>------- ------,156359,156358.59999990463,156021.377,156027.09999990463,156037.949,156371.747,,4,French
screen,html.Screen,2_1_1_1_5,2022-02-17T16:44:45.528Z,,,,,,,,,,,,,,,,,54,,,,,,,,,,,,,,291.1529998569458,,response,,,,100,,,,,,,Space,keypress(Space),,,,,,,,-- --- ---- --- ------ crown ------- ---- -- --- ------- --<br>------- ---------- ------ -- ----- -- ----- -- ---- ------<br>--- ----- --- --- ------ -------- ----- --- ------ ----- --<br>----- ----- ---------- --- --- ------ ------ ---- -- ------<br>------- --- ------ ----- --- ---- ------- -- ---- --- --<br>------- ------,156663.39999985695,156662.89999985695,156355.1,156359.09999990463,156371.747,156671.762,,5,crown
screen,html.Screen,2_1_1_1_6,2022-02-17T16:44:45.883Z,,,,,,,,,,,,,,,,,54,,,,,,,,,,,,,,344.8379999046447,,response,,,,100,,,,,,,Space,keypress(Space),,,,,,,,-- --- ---- --- ------ ----- secured ---- -- --- ------- --<br>------- ---------- ------ -- ----- -- ----- -- ---- ------<br>--- ----- --- --- ------ -------- ----- --- ------ ----- --<br>----- ----- ---------- --- --- ------ ------ ---- -- ------<br>------- --- ------ ----- --- ---- ------- -- ---- --- --<br>------- ------,157017.59999990463,157016.59999990463,156655.385,156663.5,156671.762,157022.218,,6,secured
screen,html.Screen,2_1_1_1_7,2022-02-17T16:44:46.262Z,,,,,,,,,,,,,,,,,54,,,,,,,,,,,,,,374.7820000000065,,response,,,,100,,,,,,,Space,keypress(Space),,,,,,,,-- --- ---- --- ------ ----- ------- much -- --- ------- --<br>------- ---------- ------ -- ----- -- ----- -- ---- ------<br>--- ----- --- --- ------ -------- ----- --- ------ ----- --<br>----- ----- ---------- --- --- ------ ------ ---- -- ------<br>------- --- ------ ----- --- ---- ------- -- ---- --- --<br>------- ------,157397.29999995232,157397,157005.449,157017.79999995232,157022.218,157405.799,,7,much
screen,html.Screen,2_1_1_1_8,2022-02-17T16:44:46.538Z,,,,,,,,,,,,,,,,,54,,,,,,,,,,,,,,266.70100000000093,,response,,,,100,,,,,,,Space,keypress(Space),,,,,,,,-- --- ---- --- ------ ----- ------- ---- of --- ------- --<br>------- ---------- ------ -- ----- -- ----- -- ---- ------<br>--- ----- --- --- ------ -------- ----- --- ------ ----- --<br>----- ----- ---------- --- --- ------ ------ ---- -- ------<br>------- --- ------ ----- --- ---- ------- -- ---- --- --<br>------- ------,157673.5,157672.5,157389.204,157397.5,157405.799,157689.533,,8,of
screen,html.Screen,2_1_1_1_9,2022-02-17T16:44:46.771Z,,,,,,,,,,,,,,,,,54,,,,,,,,,,,,,,215.16699980926933,,response,,,,100,,,,,,,Space,keypress(Space),,,,,,,,-- --- ---- --- ------ ----- ------- ---- -- its ------- --<br>------- ---------- ------ -- ----- -- ----- -- ---- ------<br>--- ----- --- --- ------ -------- ----- --- ------ ----- --<br>----- ----- ---------- --- --- ------ ------ ---- -- ------<br>------- --- ------ ----- --- ---- ------- -- ---- --- --<br>------- ------,157905.5,157904.69999980927,157672.762,157673.69999980927,157689.533,157923.157,,9,its
screen,html.Screen,2_1_1_1_10,2022-02-17T16:44:47.008Z,,,,,,,,,,,,,,,,,54,,,,,,,,,,,,,,219.54299980925862,,response,,,,100,,,,,,,Space,keypress(Space),,,,,,,,-- --- ---- --- ------ ----- ------- ---- -- --- revenue --<br>------- ---------- ------ -- ----- -- ----- -- ---- ------<br>--- ----- --- --- ------ -------- ----- --- ------ ----- --<br>----- ----- ---------- --- --- ------ ------ ---- -- ------<br>------- --- ------ ----- --- ---- ------- -- ---- --- --<br>------- ------,158143.29999995232,158142.69999980927,157906.412,157905.79999995232,157923.157,158156.559,,10,revenue
screen,html.Screen,2_1_1_1_11,2022-02-17T16:44:47.400Z,,,,,,,,,,,,,,,,,54,,,,,,,,,,,,,,378.2409999523079,,response,,,,100,,,,,,,Space,keypress(Space),,,,,,,,-- --- ---- --- ------ ----- ------- ---- -- --- ------- by<br>------- ---------- ------ -- ----- -- ----- -- ---- ------<br>--- ----- --- --- ------ -------- ----- --- ------ ----- --<br>----- ----- ---------- --- --- ------ ------ ---- -- ------<br>------- --- ------ ----- --- ---- ------- -- ---- --- --<br>------- ------,158535.29999995232,158534.79999995232,158140.226,158143.39999985695,158156.559,158540.288,,11,by
screen,html.Screen,2_1_1_1_12,2022-02-17T16:44:47.647Z,,,,,,,,,,,,,,,,,54,,,,,,,,,,,,,,241.3119999046321,,response,,,,100,,,,,,,Space,keypress(Space),,,,,,,,-- --- ---- --- ------ ----- ------- ---- -- --- ------- --<br>issuing ---------- ------ -- ----- -- ----- -- ---- ------<br>--- ----- --- --- ------ -------- ----- --- ------ ----- --<br>----- ----- ---------- --- --- ------ ------ ---- -- ------<br>------- --- ------ ----- --- ---- ------- -- ---- --- --<br>------- ------,158782,158781.59999990463,158523.656,158535.5,158540.288,158790.506,,12,issuing
screen,html.Screen,2_1_1_1_13,2022-02-17T16:44:48.136Z,,,,,,,,,,,,,,,,,54,,,,,,,,,,,,,,479.79399995232234,,response,,,,100,,,,,,,Space,keypress(Space),,,,,,,,-- --- ---- --- ------ ----- ------- ---- -- --- ------- --<br>------- government ------ -- ----- -- ----- -- ---- ------<br>--- ----- --- --- ------ -------- ----- --- ------ ----- --<br>----- ----- ---------- --- --- ------ ------ ---- -- ------<br>------- --- ------ ----- --- ---- ------- -- ---- --- --<br>------- ------,159270.59999990463,159270.29999995232,158773.961,158782,158790.506,159274.313,,13,government
screen,html.Screen,2_1_1_1_14,2022-02-17T16:44:48.408Z,,,,,,,,,,,,,,,,,54,,,,,,,,,,,,,,267.98699995232164,,response,,,,100,,,,,,,Space,keypress(Space),,,,,,,,-- --- ---- --- ------ ----- ------- ---- -- --- ------- --<br>------- ---------- bonds. -- ----- -- ----- -- ---- ------<br>--- ----- --- --- ------ -------- ----- --- ------ ----- --<br>----- ----- ---------- --- --- ------ ------ ---- -- ------<br>------- --- ------ ----- --- ---- ------- -- ---- --- --<br>------- ------,159542.79999995232,159542.29999995232,159257.654,159270.69999980927,159274.313,159558.018,,14,bonds.
screen,html.Screen,2_1_1_1_15,2022-02-17T16:44:48.770Z,,,,,,,,,,,,,,,,,54,,,,,,,,,,,,,,346.48199999998906,,response,,,,100,,,,,,,Space,keypress(Space),,,,,,,,-- --- ---- --- ------ ----- ------- ---- -- --- ------- --<br>------- ---------- ------ In ----- -- ----- -- ---- ------<br>--- ----- --- --- ------ -------- ----- --- ------ ----- --<br>----- ----- ---------- --- --- ------ ------ ---- -- ------<br>------- --- ------ ----- --- ---- ------- -- ---- --- --<br>------- ------,159905.39999985695,159904.5,159541.411,159543,159558.018,159908.403,,15,In
screen,html.Screen,2_1_1_1_16,2022-02-17T16:44:48.991Z,,,,,,,,,,,,,,,,,54,,,,,,,,,,,,,,217.19699990464142,,response,,,,100,,,,,,,Space,keypress(Space),,,,,,,,"-- --- ---- --- ------ ----- ------- ---- -- --- ------- --<br>------- ---------- ------ -- 1727, -- ----- -- ---- ------<br>--- ----- --- --- ------ -------- ----- --- ------ ----- --<br>----- ----- ---------- --- --- ------ ------ ---- -- ------<br>------- --- ------ ----- --- ---- ------- -- ---- --- --<br>------- ------",160125.89999985695,160125.59999990463,159891.695,159905.69999980927,159908.403,160141.877,,16,"1727,"
screen,html.Screen,2_1_1_1_17,2022-02-17T16:44:49.442Z,,,,,,,,,,,,,,,,,54,,,,,,,,,,,,,,434.1229999999923,,response,,,,100,,,,,,,Space,keypress(Space),,,,,,,,-- --- ---- --- ------ ----- ------- ---- -- --- ------- --<br>------- ---------- ------ -- ----- in ----- -- ---- ------<br>--- ----- --- --- ------ -------- ----- --- ------ ----- --<br>----- ----- ---------- --- --- ------ ------ ---- -- ------<br>------- --- ------ ----- --- ---- ------- -- ---- --- --<br>------- ------,160576.89999985695,160576,160125.266,160126,160141.877,160592.617,,17,in
screen,html.Screen,2_1_1_1_18,2022-02-17T16:44:49.750Z,,,,,,,,,,,,,,,,,54,,,,,,,,,,,,,,292.6829999523179,,response,,,,100,,,,,,,Space,keypress(Space),,,,,,,,-- --- ---- --- ------ ----- ------- ---- -- --- ------- --<br>------- ---------- ------ -- ----- -- order -- ---- ------<br>--- ----- --- --- ------ -------- ----- --- ------ ----- --<br>----- ----- ---------- --- --- ------ ------ ---- -- ------<br>------- --- ------ ----- --- ---- ------- -- ---- --- --<br>------- ------,160885.59999990463,160885.29999995232,160575.813,160577.09999990463,160592.617,160892.608,,18,order
screen,html.Screen,2_1_1_1_19,2022-02-17T16:44:50.024Z,,,,,,,,,,,,,,,,,54,,,,,,,,,,,,,,265.89199999999255,,response,,,,100,,,,,,,Space,keypress(Space),,,,,,,,-- --- ---- --- ------ ----- ------- ---- -- --- ------- --<br>------- ---------- ------ -- ----- -- ----- to ---- ------<br>--- ----- --- --- ------ -------- ----- --- ------ ----- --<br>----- ----- ---------- --- --- ------ ------ ---- -- ------<br>------- --- ------ ----- --- ---- ------- -- ---- --- --<br>------- ------,161159.09999990463,161158.5,160876.061,160885.59999990463,160892.608,161193.026,,19,to
screen,html.Screen,2_1_1_1_20,2022-02-17T16:44:50.234Z,,,,,,,,,,,,,,,,,54,,,,,,,,,,,,,,174.97399999998743,,response,,,,100,,,,,,,Space,keypress(Space),,,,,,,,-- --- ---- --- ------ ----- ------- ---- -- --- ------- --<br>------- ---------- ------ -- ----- -- ----- -- save ------<br>--- ----- --- --- ------ -------- ----- --- ------ ----- --<br>----- ----- ---------- --- --- ------ ------ ---- -- ------<br>------- --- ------ ----- --- ---- ------- -- ---- --- --<br>------- ------,161368.89999985695,161368,161176.227,161159.09999990463,161193.026,161376.494,,20,save
screen,html.Screen,2_1_1_1_21,2022-02-17T16:44:50.567Z,,,,,,,,,,,,,,,,,54,,,,,,,,,,,,,,325.00599999999395,,response,,,,100,,,,,,,Space,keypress(Space),,,,,,,,"-- --- ---- --- ------ ----- ------- ---- -- --- ------- --<br>------- ---------- ------ -- ----- -- ----- -- ---- money,<br>--- ----- --- --- ------ -------- ----- --- ------ ----- --<br>----- ----- ---------- --- --- ------ ------ ---- -- ------<br>------- --- ------ ----- --- ---- ------- -- ---- --- --<br>------- ------",161701.89999985695,161701.5,161359.99,161369.19999980927,161376.494,161710.098,,21,"money,"
screen,html.Screen,2_1_1_1_22,2022-02-17T16:44:51.151Z,,,,,,,,,,,,,,,,,54,,,,,,,,,,,,,,575.5019999046344,,response,,,,100,,,,,,,Space,keypress(Space),,,,,,,,-- --- ---- --- ------ ----- ------- ---- -- --- ------- --<br>------- ---------- ------ -- ----- -- ----- -- ---- ------<br>the ----- --- --- ------ -------- ----- --- ------ ----- --<br>----- ----- ---------- --- --- ------ ------ ---- -- ------<br>------- --- ------ ----- --- ---- ------- -- ---- --- --<br>------- ------,162286.09999990463,162285.59999990463,161693.655,161702,161710.098,162294.006,,22,the
screen,html.Screen,2_1_1_1_23,2022-02-17T16:44:51.347Z,,,,,,,,,,,,,,,,,54,,,,,,,,,,,,,,186.99400000000605,,response,,,,100,,,,,,,Space,keypress(Space),,,,,,,,-- --- ---- --- ------ ----- ------- ---- -- --- ------- --<br>------- ---------- ------ -- ----- -- ----- -- ---- ------<br>--- state --- --- ------ -------- ----- --- ------ ----- --<br>----- ----- ---------- --- --- ------ ------ ---- -- ------<br>------- --- ------ ----- --- ---- ------- -- ---- --- --<br>------- ------,162482,162481,162277.351,162286.19999980927,162294.006,162494.546,,23,state
screen,html.Screen,2_1_1_1_24,2022-02-17T16:44:51.551Z,,,,,,,,,,,,,,,,,54,,,,,,,,,,,,,,191.7539999523142,,response,,,,100,,,,,,,Space,keypress(Space),,,,,,,,-- --- ---- --- ------ ----- ------- ---- -- --- ------- --<br>------- ---------- ------ -- ----- -- ----- -- ---- ------<br>--- ----- cut --- ------ -------- ----- --- ------ ----- --<br>----- ----- ---------- --- --- ------ ------ ---- -- ------<br>------- --- ------ ----- --- ---- ------- -- ---- --- --<br>------- ------,162686.59999990463,162686.29999995232,162477.526,162482.29999995232,162494.546,162694.461,,24,cut
screen,html.Screen,2_1_1_1_25,2022-02-17T16:44:51.987Z,,,,,,,,,,,,,,,,,54,,,,,,,,,,,,,,426.53899999998976,,response,,,,100,,,,,,,Space,keypress(Space),,,,,,,,-- --- ---- --- ------ ----- ------- ---- -- --- ------- --<br>------- ---------- ------ -- ----- -- ----- -- ---- ------<br>--- ----- --- the ------ -------- ----- --- ------ ----- --<br>----- ----- ---------- --- --- ------ ------ ---- -- ------<br>------- --- ------ ----- --- ---- ------- -- ---- --- --<br>------- ------,163122.09999990463,163121,162678.061,162686.69999980927,162694.461,163128.255,,25,the
screen,html.Screen,2_1_1_1_26,2022-02-17T16:44:52.216Z,,,,,,,,,,,,,,,,,54,,,,,,,,,,,,,,222.54499995231163,,response,,,,100,,,,,,,Space,keypress(Space),,,,,,,,-- --- ---- --- ------ ----- ------- ---- -- --- ------- --<br>------- ---------- ------ -- ----- -- ----- -- ---- ------<br>--- ----- --- --- bonds' -------- ----- --- ------ ----- --<br>----- ----- ---------- --- --- ------ ------ ---- -- ------<br>------- --- ------ ----- --- ---- ------- -- ---- --- --<br>------- ------,163351.39999985695,163350.79999995232,163111.752,163122.29999995232,163128.255,163361.777,,26,bonds'
screen,html.Screen,2_1_1_1_27,2022-02-17T16:44:52.450Z,,,,,,,,,,,,,,,,,54,,,,,,,,,,,,,,222.52299995231442,,response,,,,100,,,,,,,Space,keypress(Space),,,,,,,,-- --- ---- --- ------ ----- ------- ---- -- --- ------- --<br>------- ---------- ------ -- ----- -- ----- -- ---- ------<br>--- ----- --- --- ------ interest ----- --- ------ ----- --<br>----- ----- ---------- --- --- ------ ------ ---- -- ------<br>------- --- ------ ----- --- ---- ------- -- ---- --- --<br>------- ------,163585.39999985695,163584.29999995232,163345.106,163351.59999990463,163361.777,163595.382,,27,interest
screen,html.Screen,2_1_1_1_28,2022-02-17T16:44:52.851Z,,,,,,,,,,,,,,,,,54,,,,,,,,,,,,,,389.8179998092528,,response,,,,100,,,,,,,Space,keypress(Space),,,,,,,,-- --- ---- --- ------ ----- ------- ---- -- --- ------- --<br>------- ---------- ------ -- ----- -- ----- -- ---- ------<br>--- ----- --- --- ------ -------- rate. --- ------ ----- --<br>----- ----- ---------- --- --- ------ ------ ---- -- ------<br>------- --- ------ ----- --- ---- ------- -- ---- --- --<br>------- ------,163986.19999980927,163985.19999980927,163578.672,163585.69999980927,163595.382,163995.986,,28,rate.
screen,html.Screen,2_1_1_1_29,2022-02-17T16:44:53.537Z,,,,,,,,,,,,,,,,,54,,,,,,,,,,,,,,675.1139999046281,,response,,,,100,,,,,,,Space,keypress(Space),,,,,,,,-- --- ---- --- ------ ----- ------- ---- -- --- ------- --<br>------- ---------- ------ -- ----- -- ----- -- ---- ------<br>--- ----- --- --- ------ -------- ----- The ------ ----- --<br>----- ----- ---------- --- --- ------ ------ ---- -- ------<br>------- --- ------ ----- --- ---- ------- -- ---- --- --<br>------- ------,164671.89999985695,164671.09999990463,163979.043,163986.39999985695,163995.986,164679.732,,29,The
screen,html.Screen,2_1_1_1_30,2022-02-17T16:44:53.915Z,,,,,,,,,,,,,,,,,54,,,,,,,,,,,,,,369.8679999046435,,response,,,,100,,,,,,,Space,keypress(Space),,,,,,,,-- --- ---- --- ------ ----- ------- ---- -- --- ------- --<br>------- ---------- ------ -- ----- -- ----- -- ---- ------<br>--- ----- --- --- ------ -------- ----- --- market ----- --<br>----- ----- ---------- --- --- ------ ------ ---- -- ------<br>------- --- ------ ----- --- ---- ------- -- ---- --- --<br>------- ------,165050.59999990463,165049.59999990463,164663.148,164672.09999990463,164679.732,165063.791,,30,market
screen,html.Screen,2_1_1_1_31,2022-02-17T16:44:54.246Z,,,,,,,,,,,,,,,,,54,,,,,,,,,,,,,,317.70900000000256,,response,,,,100,,,,,,,Space,keypress(Space),,,,,,,,-- --- ---- --- ------ ----- ------- ---- -- --- ------- --<br>------- ---------- ------ -- ----- -- ----- -- ---- ------<br>--- ----- --- --- ------ -------- ----- --- ------ value --<br>----- ----- ---------- --- --- ------ ------ ---- -- ------<br>------- --- ------ ----- --- ---- ------- -- ---- --- --<br>------- ------,165381.69999980927,165381.5,165047.034,165051,165063.791,165397.153,,31,value
screen,html.Screen,2_1_1_1_32,2022-02-17T16:44:54.616Z,,,,,,,,,,,,,,,,,54,,,,,,,,,,,,,,353.546999809274,,response,,,,100,,,,,,,Space,keypress(Space),,,,,,,,-- --- ---- --- ------ ----- ------- ---- -- --- ------- --<br>------- ---------- ------ -- ----- -- ----- -- ---- ------<br>--- ----- --- --- ------ -------- ----- --- ------ ----- of<br>----- ----- ---------- --- --- ------ ------ ---- -- ------<br>------- --- ------ ----- --- ---- ------- -- ---- --- --<br>------- ------,165751.19999980927,165750.69999980927,165380.636,165381.69999980927,165397.153,165764.358,,32,of
screen,html.Screen,2_1_1_1_33,2022-02-17T16:44:54.856Z,,,,,,,,,,,,,,,,,54,,,,,,,,,,,,,,226.74199990462512,,response,,,,100,,,,,,,Space,keypress(Space),,,,,,,,-- --- ---- --- ------ ----- ------- ---- -- --- ------- --<br>------- ---------- ------ -- ----- -- ----- -- ---- ------<br>--- ----- --- --- ------ -------- ----- --- ------ ----- --<br>these ----- ---------- --- --- ------ ------ ---- -- ------<br>------- --- ------ ----- --- ---- ------- -- ---- --- --<br>------- ------,165991.69999980927,165991.09999990463,165747.704,165751.29999995232,165764.358,165997.729,,33,these
screen,html.Screen,2_1_1_1_34,2022-02-17T16:44:55.161Z,,,,,,,,,,,,,,,,,54,,,,,,,,,,,,,,297.67099985695677,,response,,,,100,,,,,,,Space,keypress(Space),,,,,,,,-- --- ---- --- ------ ----- ------- ---- -- --- ------- --<br>------- ---------- ------ -- ----- -- ----- -- ---- ------<br>--- ----- --- --- ------ -------- ----- --- ------ ----- --<br>----- bonds ---------- --- --- ------ ------ ---- -- ------<br>------- --- ------ ----- --- ---- ------- -- ---- --- --<br>------- ------,166296,166295.39999985695,165981.302,165991.89999985695,165997.729,166297.986,,34,bonds
screen,html.Screen,2_1_1_1_35,2022-02-17T16:44:55.491Z,,,,,,,,,,,,,,,,,54,,,,,,,,,,,,,,327.41399985694443,,response,,,,100,,,,,,,Space,keypress(Space),,,,,,,,"-- --- ---- --- ------ ----- ------- ---- -- --- ------- --<br>------- ---------- ------ -- ----- -- ----- -- ---- ------<br>--- ----- --- --- ------ -------- ----- --- ------ ----- --<br>----- ----- plummeted, --- --- ------ ------ ---- -- ------<br>------- --- ------ ----- --- ---- ------- -- ---- --- --<br>------- ------",166626.19999980927,166625.39999985695,166281.36,166296.19999980927,166297.986,166648.451,,35,"plummeted,"
screen,html.Screen,2_1_1_1_36,2022-02-17T16:44:55.761Z,,,,,,,,,,,,,,,,,54,,,,,,,,,,,,,,247.34899995231535,,response,,,,100,,,,,,,Space,keypress(Space),,,,,,,,-- --- ---- --- ------ ----- ------- ---- -- --- ------- --<br>------- ---------- ------ -- ----- -- ----- -- ---- ------<br>--- ----- --- --- ------ -------- ----- --- ------ ----- --<br>----- ----- ---------- and --- ------ ------ ---- -- ------<br>------- --- ------ ----- --- ---- ------- -- ---- --- --<br>------- ------,166896.79999995232,166895.79999995232,166615.031,166626.39999985695,166648.451,166922.623,,36,and
screen,html.Screen,2_1_1_1_37,2022-02-17T16:44:56.083Z,,,,,,,,,,,,,,,,,54,,,,,,,,,,,,,,295.17699995232397,,response,,,,100,,,,,,,Space,keypress(Space),,,,,,,,-- --- ---- --- ------ ----- ------- ---- -- --- ------- --<br>------- ---------- ------ -- ----- -- ----- -- ---- ------<br>--- ----- --- --- ------ -------- ----- --- ------ ----- --<br>----- ----- ---------- --- the ------ ------ ---- -- ------<br>------- --- ------ ----- --- ---- ------- -- ---- --- --<br>------- ------,167218.79999995232,167217.79999995232,166882.051,166897.09999990463,166922.623,167232.661,,37,the
screen,html.Screen,2_1_1_1_38,2022-02-17T16:44:56.386Z,,,,,,,,,,,,,,,,,54,,,,,,,,,,,,,,287.6389999523235,,response,,,,100,,,,,,,Space,keypress(Space),,,,,,,,-- --- ---- --- ------ ----- ------- ---- -- --- ------- --<br>------- ---------- ------ -- ----- -- ----- -- ---- ------<br>--- ----- --- --- ------ -------- ----- --- ------ ----- --<br>----- ----- ---------- --- --- market ------ ---- -- ------<br>------- --- ------ ----- --- ---- ------- -- ---- --- --<br>------- ------,167521.29999995232,167520.29999995232,167215.948,167219,167232.661,167532.693,,38,market
screen,html.Screen,2_1_1_1_39,2022-02-17T16:44:56.737Z,,,,,,,,,,,,,,,,,54,,,,,,,,,,,,,,339.00699980926584,,response,,,,100,,,,,,,Space,keypress(Space),,,,,,,,-- --- ---- --- ------ ----- ------- ---- -- --- ------- --<br>------- ---------- ------ -- ----- -- ----- -- ---- ------<br>--- ----- --- --- ------ -------- ----- --- ------ ----- --<br>----- ----- ---------- --- --- ------ became ---- -- ------<br>------- --- ------ ----- --- ---- ------- -- ---- --- --<br>------- ------,167872.5,167871.69999980927,167515.928,167521.5,167532.693,167883.153,,39,became
screen,html.Screen,2_1_1_1_40,2022-02-17T16:44:57.096Z,,,,,,,,,,,,,,,,,54,,,,,,,,,,,,,,347.4469999046414,,response,,,,100,,,,,,,Space,keypress(Space),,,,,,,,-- --- ---- --- ------ ----- ------- ---- -- --- ------- --<br>------- ---------- ------ -- ----- -- ----- -- ---- ------<br>--- ----- --- --- ------ -------- ----- --- ------ ----- --<br>----- ----- ---------- --- --- ------ ------ wary -- ------<br>------- --- ------ ----- --- ---- ------- -- ---- --- --<br>------- ------,168231.19999980927,168230.59999990463,167866.494,167872.69999980927,167883.153,168233.339,,40,wary
screen,html.Screen,2_1_1_1_41,2022-02-17T16:44:57.471Z,,,,,,,,,,,,,,,,,54,,,,,,,,,,,,,,372.76099990462535,,response,,,,100,,,,,,,Space,keypress(Space),,,,,,,,-- --- ---- --- ------ ----- ------- ---- -- --- ------- --<br>------- ---------- ------ -- ----- -- ----- -- ---- ------<br>--- ----- --- --- ------ -------- ----- --- ------ ----- --<br>----- ----- ---------- --- --- ------ ------ ---- of ------<br>------- --- ------ ----- --- ---- ------- -- ---- --- --<br>------- ------,168606.39999985695,168606.09999990463,168216.936,168231.39999985695,168233.339,168617.178,,41,of
screen,html.Screen,2_1_1_1_42,2022-02-17T16:44:57.841Z,,,,,,,,,,,,,,,,,54,,,,,,,,,,,,,,358.12199995230185,,response,,,,100,,,,,,,Space,keypress(Space),,,,,,,,-- --- ---- --- ------ ----- ------- ---- -- --- ------- --<br>------- ---------- ------ -- ----- -- ----- -- ---- ------<br>--- ----- --- --- ------ -------- ----- --- ------ ----- --<br>----- ----- ---------- --- --- ------ ------ ---- -- French<br>------- --- ------ ----- --- ---- ------- -- ---- --- --<br>------- ------,168976.19999980927,168975.29999995232,168600.436,168606.39999985695,168617.178,168984.155,,42,French
screen,html.Screen,2_1_1_1_43,2022-02-17T16:44:58.219Z,,,,,,,,,,,,,,,,,54,,,,,,,,,,,,,,368.94499990463373,,response,,,,100,,,,,,,Space,keypress(Space),,,,,,,,-- --- ---- --- ------ ----- ------- ---- -- --- ------- --<br>------- ---------- ------ -- ----- -- ----- -- ---- ------<br>--- ----- --- --- ------ -------- ----- --- ------ ----- --<br>----- ----- ---------- --- --- ------ ------ ---- -- ------<br>credit. --- ------ ----- --- ---- ------- -- ---- --- --<br>------- ------,169354.09999990463,169353.09999990463,168967.413,168976.39999985695,168984.155,169367.869,,43,credit.
screen,html.Screen,2_1_1_1_44,2022-02-17T16:44:58.538Z,,,,,,,,,,,,,,,,,54,,,,,,,,,,,,,,304.8309998092591,,response,,,,100,,,,,,,Space,keypress(Space),,,,,,,,-- --- ---- --- ------ ----- ------- ---- -- --- ------- --<br>------- ---------- ------ -- ----- -- ----- -- ---- ------<br>--- ----- --- --- ------ -------- ----- --- ------ ----- --<br>----- ----- ---------- --- --- ------ ------ ---- -- ------<br>------- The ------ ----- --- ---- ------- -- ---- --- --<br>------- ------,169673.79999995232,169672.69999980927,169351.246,169354.29999995232,169367.869,169684.767,,44,The
screen,html.Screen,2_1_1_1_45,2022-02-17T16:44:58.936Z,,,,,,,,,,,,,,,,,54,,,,,,,,,,,,,,385.73300000000745,,response,,,,100,,,,,,,Space,keypress(Space),,,,,,,,-- --- ---- --- ------ ----- ------- ---- -- --- ------- --<br>------- ---------- ------ -- ----- -- ----- -- ---- ------<br>--- ----- --- --- ------ -------- ----- --- ------ ----- --<br>----- ----- ---------- --- --- ------ ------ ---- -- ------<br>------- --- French ----- --- ---- ------- -- ---- --- --<br>------- ------,170070.89999985695,170070.5,169668.306,169674,169684.767,170085.275,,45,French
screen,html.Screen,2_1_1_1_46,2022-02-17T16:44:59.384Z,,,,,,,,,,,,,,,,,54,,,,,,,,,,,,,,433.6249998569547,,response,,,,100,,,,,,,Space,keypress(Space),,,,,,,,-- --- ---- --- ------ ----- ------- ---- -- --- ------- --<br>------- ---------- ------ -- ----- -- ----- -- ---- ------<br>--- ----- --- --- ------ -------- ----- --- ------ ----- --<br>----- ----- ---------- --- --- ------ ------ ---- -- ------<br>------- --- ------ state --- ---- ------- -- ---- --- --<br>------- ------,170519.19999980927,170518.89999985695,170068.442,170071,170085.275,170535.662,,46,state
screen,html.Screen,2_1_1_1_47,2022-02-17T16:44:59.802Z,,,,,,,,,,,,,,,,,54,,,,,,,,,,,,,,401.1379999523051,,response,,,,100,,,,,,,Space,keypress(Space),,,,,,,,-- --- ---- --- ------ ----- ------- ---- -- --- ------- --<br>------- ---------- ------ -- ----- -- ----- -- ---- ------<br>--- ----- --- --- ------ -------- ----- --- ------ ----- --<br>----- ----- ---------- --- --- ------ ------ ---- -- ------<br>------- --- ------ ----- was ---- ------- -- ---- --- --<br>------- ------,170937.79999995232,170936.79999995232,170518.909,170519.39999985695,170535.662,170952.983,,47,was
screen,html.Screen,2_1_1_1_48,2022-02-17T16:45:00.062Z,,,,,,,,,,,,,,,,,54,,,,,,,,,,,,,,244.31699995230883,,response,,,,100,,,,,,,Space,keypress(Space),,,,,,,,-- --- ---- --- ------ ----- ------- ---- -- --- ------- --<br>------- ---------- ------ -- ----- -- ----- -- ---- ------<br>--- ----- --- --- ------ -------- ----- --- ------ ----- --<br>----- ----- ---------- --- --- ------ ------ ---- -- ------<br>------- --- ------ ----- --- left ------- -- ---- --- --<br>------- ------,171197.59999990463,171197.29999995232,170936.177,170938,170952.983,171202.925,,48,left
screen,html.Screen,2_1_1_1_49,2022-02-17T16:45:00.391Z,,,,,,,,,,,,,,,,,54,,,,,,,,,,,,,,322.6749999046442,,response,,,,100,,,,,,,Space,keypress(Space),,,,,,,,-- --- ---- --- ------ ----- ------- ---- -- --- ------- --<br>------- ---------- ------ -- ----- -- ----- -- ---- ------<br>--- ----- --- --- ------ -------- ----- --- ------ ----- --<br>----- ----- ---------- --- --- ------ ------ ---- -- ------<br>------- --- ------ ----- --- ---- without -- ---- --- --<br>------- ------,171526.09999990463,171525.59999990463,171186.309,171197.69999980927,171202.925,171536.595,,49,without
screen,html.Screen,2_1_1_1_50,2022-02-17T16:45:00.744Z,,,,,,,,,,,,,,,,,54,,,,,,,,,,,,,,341.8049998569477,,response,,,,100,,,,,,,Space,keypress(Space),,,,,,,,-- --- ---- --- ------ ----- ------- ---- -- --- ------- --<br>------- ---------- ------ -- ----- -- ----- -- ---- ------<br>--- ----- --- --- ------ -------- ----- --- ------ ----- --<br>----- ----- ---------- --- --- ------ ------ ---- -- ------<br>------- --- ------ ----- --- ---- ------- an ---- --- --<br>------- ------,171878.89999985695,171878.39999985695,171519.875,171526.09999990463,171536.595,171886.96,,50,an
screen,html.Screen,2_1_1_1_51,2022-02-17T16:45:01.080Z,,,,,,,,,,,,,,,,,54,,,,,,,,,,,,,,327.939999856957,,response,,,,100,,,,,,,Space,keypress(Space),,,,,,,,-- --- ---- --- ------ ----- ------- ---- -- --- ------- --<br>------- ---------- ------ -- ----- -- ----- -- ---- ------<br>--- ----- --- --- ------ -------- ----- --- ------ ----- --<br>----- ----- ---------- --- --- ------ ------ ---- -- ------<br>------- --- ------ ----- --- ---- ------- -- easy --- --<br>------- ------,172215.5,172214.89999985695,171870.255,171878.89999985695,171886.96,172220.641,,51,easy
screen,html.Screen,2_1_1_1_52,2022-02-17T16:45:01.416Z,,,,,,,,,,,,,,,,,54,,,,,,,,,,,,,,330.35899999999674,,response,,,,100,,,,,,,Space,keypress(Space),,,,,,,,-- --- ---- --- ------ ----- ------- ---- -- --- ------- --<br>------- ---------- ------ -- ----- -- ----- -- ---- ------<br>--- ----- --- --- ------ -------- ----- --- ------ ----- --<br>----- ----- ---------- --- --- ------ ------ ---- -- ------<br>------- --- ------ ----- --- ---- ------- -- ---- way --<br>------- ------,172551.29999995232,172551,172203.934,172215.69999980927,172220.641,172554.369,,52,way
screen,html.Screen,2_1_1_1_53,2022-02-17T16:45:01.731Z,,,,,,,,,,,,,,,,,54,,,,,,,,,,,,,,310.93099995231023,,response,,,,100,,,,,,,Space,keypress(Space),,,,,,,,-- --- ---- --- ------ ----- ------- ---- -- --- ------- --<br>------- ---------- ------ -- ----- -- ----- -- ---- ------<br>--- ----- --- --- ------ -------- ----- --- ------ ----- --<br>----- ----- ---------- --- --- ------ ------ ---- -- ------<br>------- --- ------ ----- --- ---- ------- -- ---- --- of<br>------- ------,172866.59999990463,172865.29999995232,172537.59,172551.39999985695,172554.369,172871.339,,53,of
screen,html.Screen,2_1_1_1_54,2022-02-17T16:45:02.096Z,,,,,,,,,,,,,,,,,54,,,,,,,,,,,,,,359.26099990462535,,response,,,,100,,,,,,,Space,keypress(Space),,,,,,,,-- --- ---- --- ------ ----- ------- ---- -- --- ------- --<br>------- ---------- ------ -- ----- -- ----- -- ---- ------<br>--- ----- --- --- ------ -------- ----- --- ------ ----- --<br>----- ----- ---------- --- --- ------ ------ ---- -- ------<br>------- --- ------ ----- --- ---- ------- -- ---- --- --<br>raising ------,173231.19999980927,173230.59999990463,172854.622,172866.89999985695,172871.339,173238.341,,54,raising
screen,html.Screen,2_1_1_1_55,2022-02-17T16:45:04.267Z,,,,,,,,,,,,,,,,,54,,,,,,,,,,,,,,2163.058999856963,,response,,,,100,,,,,,,Space,keypress(Space),,,,,,,,-- --- ---- --- ------ ----- ------- ---- -- --- ------- --<br>------- ---------- ------ -- ----- -- ----- -- ---- ------<br>--- ----- --- --- ------ -------- ----- --- ------ ----- --<br>----- ----- ---------- --- --- ------ ------ ---- -- ------<br>------- --- ------ ----- --- ---- ------- -- ---- --- --<br>------- money.,175402.39999985695,175401.39999985695,173221.713,173231.29999995232,173238.341,175407.21,,55,money.
Item 100,flow.Loop,2_1_1_1,2022-02-17T16:45:04.268Z,,,,,,,,,,,,,,,,,,,,,,,,,,,,,,,21081.901999856957,,completion,,,,,F,,,,,,,,,,,silence,,,,,175402.89999985695,175401.39999985695,154302.983,154304.39999985695,154319.498,175407.21,,,
Question 1,html.Screen,2_1_1_2,2022-02-17T16:45:07.047Z,,,,,,,,,,,,,,,,,,,,,,,,,,,,true,TRUE,,2773.8899999046407,,response,,,,100,F,,,,,,TRUE,click #choice-1,,,,silence,,,,,178182,178181.09999990463,175390.392,175403,175407.21,178193.216,,,
Question 2,html.Screen,2_1_1_3,2022-02-17T16:45:10.990Z,,,,,,,,,,,,,,,,,,,,,,,,,,,,true,FALSE,,3931.3839999046468,,response,,,,100,F,,,,,,FALSE,click #choice-2,,,,silence,,,,,182125.19999980927,182124.59999990463,178176.877,178182.09999990463,178193.216,182130.511,,,
Item 100,flow.Sequence,2_1_1,2022-02-17T16:45:10.990Z,,,,,,,,,,,,,,,,,,,,,,,,,,,,,,,37798.53299990462,,completion,,,,,,,,,,,,,,,,,,,,,182125.29999995232,182124.59999990463,144309.44,144318.39999985695,144326.067,182130.511,,,
End of Practice,html.Page,2_1_2,2022-02-17T16:45:16.159Z,,,,,,,,,,,,,,,,,,,,,,,,,,,,,,,5163.489000000001,,form submission,,,,,,,,,,,,,,,,,,,,,187294.19999980927,187294,182113.966,182125.39999985695,182130.511,187302.381,,,
Practice,flow.Sequence,2_1,2022-02-17T16:45:16.159Z,,,,,,,,,,,,,,,,,,,,,,,,,,,,,,,86661.525,,completion,,,,,,,,,,,,,,,,,,,,,187294.39999985695,187294,100615.805,100630.09999990463,100632.475,187302.381,,,
Trap_instruction,html.Page,2_2_0,2022-02-17T16:45:20.566Z,,,,,,,,,,,,,,,,,,,,,,,,,,,,,,,4399.218999904639,,form submission,,,,,,,,,,,,,,,,,,,,,191701.79999995232,191701.59999990463,187285.731,187294.39999985695,187302.381,191706.76,,,
trap_trial,html.Screen,2_2_1,2022-02-17T16:45:24.598Z,,,,,,,,,,,,,,,,,,,,,,,,,,,,true,1,,4026.039999952307,,response,,,,,,,,,,,1,click #choice-1,,,,,,,,,195733.69999980927,195732.79999995232,191690.049,191701.89999985695,191706.76,195744.049,,,
end of trap trial,html.Page,2_2_2,2022-02-17T16:45:27.367Z,,,,,,,,,,,,,,,,,,,,,,,,,,,,,,,2757.5509999046335,,form submission,,,,,,,,,,,,,,,,,,,,,198501.89999985695,198501.59999990463,195727.495,195733.79999995232,195744.049,198513.543,,,
Trap 1,flow.Sequence,2_2,2022-02-17T16:45:27.367Z,,,,,,,,,,,,,,,,,,,,,,,,,,,,,,,11199.218999904639,,completion,,,,,,,,,,,,,,,,,,,,,198502.09999990463,198501.59999990463,187285.731,187294.39999985695,187302.381,198513.543,,,
Standby,html.Page,2_3_0,2022-02-17T16:45:35.371Z,,,,,,,,,,,,,,,,,,,,,,,,,,,,,,,8007.998999999982,,timeout,,,,,,,,,,,,,,,,,,,,,206506.69999980927,206505.127,198497.128,198502.09999990463,198513.543,206521.542,,,
Holding screen,html.Screen,2_3_1_0_0,2022-02-17T16:45:42.377Z,,,,,,,,,,,,,,,,,,,,,,,,,,,,,,,7007.037000000011,,timeout,,,,,,,,,,,,,,,,,,,,,213512.5,213511.88,206505.127,206507.09999990463,206521.542,213528.579,,,
screen,html.Screen,2_3_1_0_1_0,2022-02-17T16:45:44.403Z,,,,,,,,,,,,,,,,,11,,,,,,,,,,,,,,2008.7209999523184,,response,,,,4,F,,,,,,Space,keypress(Space),,,,instrumental,,,,Known -- ---- --- -- --- -------- ------------ ---------- --<br>- ------- ------ --------- -- ------------ -- --- ---- -----<br>------ ---- ---- ------ ------ ------- --- ----- ---------<br>---- --- -------- -------- --- --- -- ------- --- --- -----<br>-- --- ------ ------- --- --- -------- ---- --------- --<br>---------- -- -------- ----------------,215538.29999995232,215537.29999995232,213511.88,213512.79999995232,213528.579,215547.228,,0,Known
screen,html.Screen,2_3_1_0_1_1,2022-02-17T16:45:44.778Z,,,,,,,,,,,,,,,,,11,,,,,,,,,,,,,,365.3719999046298,,response,,,,4,F,,,,,,Space,keypress(Space),,,,instrumental,,,,----- as ---- --- -- --- -------- ------------ ---------- --<br>- ------- ------ --------- -- ------------ -- --- ---- -----<br>------ ---- ---- ------ ------ ------- --- ----- ---------<br>---- --- -------- -------- --- --- -- ------- --- --- -----<br>-- --- ------ ------- --- --- -------- ---- --------- --<br>---------- -- -------- ----------------,215913.59999990463,215912.59999990463,215530.597,215538.59999990463,215547.228,215931.028,,1,as
screen,html.Screen,2_3_1_0_1_2,2022-02-17T16:45:45.066Z,,,,,,,,,,,,,,,,,11,,,,,,,,,,,,,,269.77199995232513,,response,,,,4,F,,,,,,Space,keypress(Space),,,,instrumental,,,,----- -- Rapa --- -- --- -------- ------------ ---------- --<br>- ------- ------ --------- -- ------------ -- --- ---- -----<br>------ ---- ---- ------ ------ ------- --- ----- ---------<br>---- --- -------- -------- --- --- -- ------- --- --- -----<br>-- --- ------ ------- --- --- -------- ---- --------- --<br>---------- -- -------- ----------------,216201.59999990463,216200.79999995232,215914.335,215913.79999995232,215931.028,216214.734,,2,Rapa
screen,html.Screen,2_3_1_0_1_3,2022-02-17T16:45:45.737Z,,,,,,,,,,,,,,,,,11,,,,,,,,,,,,,,656.7660000000033,,response,,,,4,F,,,,,,Space,keypress(Space),,,,instrumental,,,,----- -- ---- Nui -- --- -------- ------------ ---------- --<br>- ------- ------ --------- -- ------------ -- --- ---- -----<br>------ ---- ---- ------ ------ ------- --- ----- ---------<br>---- --- -------- -------- --- --- -- ------- --- --- -----<br>-- --- ------ ------- --- --- -------- ---- --------- --<br>---------- -- -------- ----------------,216872.09999990463,216871.5,216197.944,216201.89999985695,216214.734,216881.909,,3,Nui
screen,html.Screen,2_3_1_0_1_4,2022-02-17T16:45:46.073Z,,,,,,,,,,,,,,,,,11,,,,,,,,,,,,,,325.19099990461837,,response,,,,4,F,,,,,,Space,keypress(Space),,,,instrumental,,,,----- -- ---- --- to --- -------- ------------ ---------- --<br>- ------- ------ --------- -- ------------ -- --- ---- -----<br>------ ---- ---- ------ ------ ------- --- ----- ---------<br>---- --- -------- -------- --- --- -- ------- --- --- -----<br>-- --- ------ ------- --- --- -------- ---- --------- --<br>---------- -- -------- ----------------,217208.09999990463,217207.09999990463,216865.417,216872.39999985695,216881.909,217215.626,,4,to
screen,html.Screen,2_3_1_0_1_5,2022-02-17T16:45:46.282Z,,,,,,,,,,,,,,,,,11,,,,,,,,,,,,,,200.8740000000107,,response,,,,4,F,,,,,,Space,keypress(Space),,,,instrumental,,,,----- -- ---- --- -- the -------- ------------ ---------- --<br>- ------- ------ --------- -- ------------ -- --- ---- -----<br>------ ---- ---- ------ ------ ------- --- ----- ---------<br>---- --- -------- -------- --- --- -- ------- --- --- -----<br>-- --- ------ ------- --- --- -------- ---- --------- --<br>---------- -- -------- ----------------,217417.39999985695,217416.5,217198.873,217208.39999985695,217215.626,217432.546,,5,the
screen,html.Screen,2_3_1_0_1_6,2022-02-17T16:45:46.482Z,,,,,,,,,,,,,,,,,11,,,,,,,,,,,,,,183.4539999999979,,response,,,,4,F,,,,,,Space,keypress(Space),,,,instrumental,,,,----- -- ---- --- -- --- island's ------------ ---------- --<br>- ------- ------ --------- -- ------------ -- --- ---- -----<br>------ ---- ---- ------ ------ ------- --- ----- ---------<br>---- --- -------- -------- --- --- -- ------- --- --- -----<br>-- --- ------ ------- --- --- -------- ---- --------- --<br>---------- -- -------- ----------------,217617.39999985695,217616,217415.81,217417.69999980927,217432.546,217632.676,,6,island's
screen,html.Screen,2_3_1_0_1_7,2022-02-17T16:45:46.904Z,,,,,,,,,,,,,,,,,11,,,,,,,,,,,,,,406.32399999999325,,response,,,,4,F,,,,,,Space,keypress(Space),,,,instrumental,,,,"----- -- ---- --- -- --- -------- inhabitants, ---------- --<br>- ------- ------ --------- -- ------------ -- --- ---- -----<br>------ ---- ---- ------ ------ ------- --- ----- ---------<br>---- --- -------- -------- --- --- -- ------- --- --- -----<br>-- --- ------ ------- --- --- -------- ---- --------- --<br>---------- -- -------- ----------------",218039.19999980927,218039,217615.904,217617.79999995232,217632.676,218049.887,,7,"inhabitants,"
screen,html.Screen,2_3_1_0_1_8,2022-02-17T16:45:47.991Z,,,,,,,,,,,,,,,,,11,,,,,,,,,,,,,,1076.012999856961,,response,,,,4,F,,,,,,Space,keypress(Space),,,,instrumental,,,,----- -- ---- --- -- --- -------- ------------ Rongorongo --<br>- ------- ------ --------- -- ------------ -- --- ---- -----<br>------ ---- ---- ------ ------ ------- --- ----- ---------<br>---- --- -------- -------- --- --- -- ------- --- --- -----<br>-- --- ------ ------- --- --- -------- ---- --------- --<br>---------- -- -------- ----------------,219126.5,219125.89999985695,218033.035,218039.29999995232,218049.887,219134.116,,8,Rongorongo
screen,html.Screen,2_3_1_0_1_9,2022-02-17T16:45:48.390Z,,,,,,,,,,,,,,,,,11,,,,,,,,,,,,,,390.7839998569398,,response,,,,4,F,,,,,,Space,keypress(Space),,,,instrumental,,,,----- -- ---- --- -- --- -------- ------------ ---------- is<br>- ------- ------ --------- -- ------------ -- --- ---- -----<br>------ ---- ---- ------ ------ ------- --- ----- ---------<br>---- --- -------- -------- --- --- -- ------- --- --- -----<br>-- --- ------ ------- --- --- -------- ---- --------- --<br>---------- -- -------- ----------------,219525.19999980927,219524.89999985695,219117.666,219126.59999990463,219134.116,219534.496,,9,is
screen,html.Screen,2_3_1_0_1_10,2022-02-17T16:45:48.752Z,,,,,,,,,,,,,,,,,11,,,,,,,,,,,,,,352.50399999998626,,response,,,,4,F,,,,,,Space,keypress(Space),,,,instrumental,,,,----- -- ---- --- -- --- -------- ------------ ---------- --<br>a ------- ------ --------- -- ------------ -- --- ---- -----<br>------ ---- ---- ------ ------ ------- --- ----- ---------<br>---- --- -------- -------- --- --- -- ------- --- --- -----<br>-- --- ------ ------- --- --- -------- ---- --------- --<br>---------- -- -------- ----------------,219887.79999995232,219887,219517.836,219525.19999980927,219534.496,219901.607,,10,a
screen,html.Screen,2_3_1_0_1_11,2022-02-17T16:45:49.078Z,,,,,,,,,,,,,,,,,11,,,,,,,,,,,,,,311.6929999523272,,response,,,,4,F,,,,,,Space,keypress(Space),,,,instrumental,,,,----- -- ---- --- -- --- -------- ------------ ---------- --<br>- writing ------ --------- -- ------------ -- --- ---- -----<br>------ ---- ---- ------ ------ ------- --- ----- ---------<br>---- --- -------- -------- --- --- -- ------- --- --- -----<br>-- --- ------ ------- --- --- -------- ---- --------- --<br>---------- -- -------- ----------------,220213.59999990463,220213.29999995232,219885.018,219887.89999985695,219901.607,220218.531,,11,writing
screen,html.Screen,2_3_1_0_1_12,2022-02-17T16:45:49.823Z,,,,,,,,,,,,,,,,,11,,,,,,,,,,,,,,739.2689999523282,,response,,,,4,F,,,,,,Space,keypress(Space),,,,instrumental,,,,----- -- ---- --- -- --- -------- ------------ ---------- --<br>- ------- system --------- -- ------------ -- --- ---- -----<br>------ ---- ---- ------ ------ ------- --- ----- ---------<br>---- --- -------- -------- --- --- -- ------- --- --- -----<br>-- --- ------ ------- --- --- -------- ---- --------- --<br>---------- -- -------- ----------------,220958.09999990463,220957.79999995232,220201.956,220213.59999990463,220218.531,220969.29,,12,system
screen,html.Screen,2_3_1_0_1_13,2022-02-17T16:45:50.944Z,,,,,,,,,,,,,,,,,11,,,,,,,,,,,,,,1109.6099998569407,,response,,,,4,F,,,,,,Space,keypress(Space),,,,instrumental,,,,----- -- ---- --- -- --- -------- ------------ ---------- --<br>- ------- ------ comprised -- ------------ -- --- ---- -----<br>------ ---- ---- ------ ------ ------- --- ----- ---------<br>---- --- -------- -------- --- --- -- ------- --- --- -----<br>-- --- ------ ------- --- --- -------- ---- --------- --<br>---------- -- -------- ----------------,222079.39999985695,222078.89999985695,220952.592,220958.29999995232,220969.29,222087.026,,13,comprised
screen,html.Screen,2_3_1_0_1_14,2022-02-17T16:45:51.319Z,,,,,,,,,,,,,,,,,11,,,,,,,,,,,,,,366.9739999999874,,response,,,,4,F,,,,,,Space,keypress(Space),,,,instrumental,,,,----- -- ---- --- -- --- -------- ------------ ---------- --<br>- ------- ------ --------- of ------------ -- --- ---- -----<br>------ ---- ---- ------ ------ ------- --- ----- ---------<br>---- --- -------- -------- --- --- -- ------- --- --- -----<br>-- --- ------ ------- --- --- -------- ---- --------- --<br>---------- -- -------- ----------------,222454.39999985695,222454,222070.377,222079.5,222087.026,222470.78,,14,of
screen,html.Screen,2_3_1_0_1_15,2022-02-17T16:45:52.079Z,,,,,,,,,,,,,,,,,11,,,,,,,,,,,,,,743.2200000000012,,response,,,,4,F,,,,,,Space,keypress(Space),,,,instrumental,,,,----- -- ---- --- -- --- -------- ------------ ---------- --<br>- ------- ------ --------- -- pictographs. -- --- ---- -----<br>------ ---- ---- ------ ------ ------- --- ----- ---------<br>---- --- -------- -------- --- --- -- ------- --- --- -----<br>-- --- ------ ------- --- --- -------- ---- --------- --<br>---------- -- -------- ----------------,223214.39999985695,223214,222454.095,222454.5,222470.78,223221.494,,15,pictographs.
screen,html.Screen,2_3_1_0_1_16,2022-02-17T16:45:52.455Z,,,,,,,,,,,,,,,,,11,,,,,,,,,,,,,,368.9059998569428,,response,,,,4,F,,,,,,Space,keypress(Space),,,,instrumental,,,,----- -- ---- --- -- --- -------- ------------ ---------- --<br>- ------- ------ --------- -- ------------ It --- ---- -----<br>------ ---- ---- ------ ------ ------- --- ----- ---------<br>---- --- -------- -------- --- --- -- ------- --- --- -----<br>-- --- ------ ------- --- --- -------- ---- --------- --<br>---------- -- -------- ----------------,223590.79999995232,223590.39999985695,223204.904,223214.89999985695,223221.494,223605.374,,16,It
screen,html.Screen,2_3_1_0_1_17,2022-02-17T16:45:52.800Z,,,,,,,,,,,,,,,,,11,,,,,,,,,,,,,,329.4259999523056,,response,,,,4,F,,,,,,Space,keypress(Space),,,,instrumental,,,,----- -- ---- --- -- --- -------- ------------ ---------- --<br>- ------- ------ --------- -- ------------ -- has ---- -----<br>------ ---- ---- ------ ------ ------- --- ----- ---------<br>---- --- -------- -------- --- --- -- ------- --- --- -----<br>-- --- ------ ------- --- --- -------- ---- --------- --<br>---------- -- -------- ----------------,223935.39999985695,223934.79999995232,223588.57,223590.89999985695,223605.374,223938.912,,17,has
screen,html.Screen,2_3_1_0_1_18,2022-02-17T16:45:53.159Z,,,,,,,,,,,,,,,,,11,,,,,,,,,,,,,,354.8879999523051,,response,,,,4,F,,,,,,Space,keypress(Space),,,,instrumental,,,,----- -- ---- --- -- --- -------- ------------ ---------- --<br>- ------- ------ --------- -- ------------ -- --- been -----<br>------ ---- ---- ------ ------ ------- --- ----- ---------<br>---- --- -------- -------- --- --- -- ------- --- --- -----<br>-- --- ------ ------- --- --- -------- ---- --------- --<br>---------- -- -------- ----------------,224294.09999990463,224293.79999995232,223922.372,223935.5,223938.912,224305.925,,18,been
screen,html.Screen,2_3_1_0_1_19,2022-02-17T16:45:53.559Z,,,,,,,,,,,,,,,,,11,,,,,,,,,,,,,,388.07500000001164,,response,,,,4,F,,,,,,Space,keypress(Space),,,,instrumental,,,,----- -- ---- --- -- --- -------- ------------ ---------- --<br>- ------- ------ --------- -- ------------ -- --- ---- found<br>------ ---- ---- ------ ------ ------- --- ----- ---------<br>---- --- -------- -------- --- --- -- ------- --- --- -----<br>-- --- ------ ------- --- --- -------- ---- --------- --<br>---------- -- -------- ----------------,224694.39999985695,224694,224289.414,224294.19999980927,224305.925,224706.309,,19,found
screen,html.Screen,2_3_1_0_1_20,2022-02-17T16:45:53.864Z,,,,,,,,,,,,,,,,,11,,,,,,,,,,,,,,292.2909999046242,,response,,,,4,F,,,,,,Space,keypress(Space),,,,instrumental,,,,----- -- ---- --- -- --- -------- ------------ ---------- --<br>- ------- ------ --------- -- ------------ -- --- ---- -----<br>carved ---- ---- ------ ------ ------- --- ----- ---------<br>---- --- -------- -------- --- --- -- ------- --- --- -----<br>-- --- ------ ------- --- --- -------- ---- --------- --<br>---------- -- -------- ----------------,224999.09999990463,224998.59999990463,224689.665,224694.5,224706.309,225006.642,,20,carved
screen,html.Screen,2_3_1_0_1_21,2022-02-17T16:45:54.134Z,,,,,,,,,,,,,,,,,11,,,,,,,,,,,,,,262.95799990464,,response,,,,4,F,,,,,,Space,keypress(Space),,,,instrumental,,,,----- -- ---- --- -- --- -------- ------------ ---------- --<br>- ------- ------ --------- -- ------------ -- --- ---- -----<br>------ into ---- ------ ------ ------- --- ----- ---------<br>---- --- -------- -------- --- --- -- ------- --- --- -----<br>-- --- ------ ------- --- --- -------- ---- --------- --<br>---------- -- -------- ----------------,225269.89999985695,225269.59999990463,224989.916,224999.09999990463,225006.642,225273.534,,21,into
screen,html.Screen,2_3_1_0_1_22,2022-02-17T16:45:54.427Z,,,,,,,,,,,,,,,,,11,,,,,,,,,,,,,,287.86599985693465,,response,,,,4,F,,,,,,Space,keypress(Space),,,,instrumental,,,,----- -- ---- --- -- --- -------- ------------ ---------- --<br>- ------- ------ --------- -- ------------ -- --- ---- -----<br>------ ---- many ------ ------ ------- --- ----- ---------<br>---- --- -------- -------- --- --- -- ------- --- --- -----<br>-- --- ------ ------- --- --- -------- ---- --------- --<br>---------- -- -------- ----------------,225562.5,225561.39999985695,225256.894,225269.89999985695,225273.534,225574.227,,22,many
screen,html.Screen,2_3_1_0_1_23,2022-02-17T16:45:54.695Z,,,,,,,,,,,,,,,,,11,,,,,,,,,,,,,,255.2729999999865,,response,,,,4,F,,,,,,Space,keypress(Space),,,,instrumental,,,,----- -- ---- --- -- --- -------- ------------ ---------- --<br>- ------- ------ --------- -- ------------ -- --- ---- -----<br>------ ---- ---- oblong ------ ------- --- ----- ---------<br>---- --- -------- -------- --- --- -- ------- --- --- -----<br>-- --- ------ ------- --- --- -------- ---- --------- --<br>---------- -- -------- ----------------,225829.89999985695,225829.5,225557.184,225562.69999980927,225574.227,225840.86,,23,oblong
screen,html.Screen,2_3_1_0_1_24,2022-02-17T16:45:54.937Z,,,,,,,,,,,,,,,,,11,,,,,,,,,,,,,,230.73999990464654,,response,,,,4,F,,,,,,Space,keypress(Space),,,,instrumental,,,,----- -- ---- --- -- --- -------- ------------ ---------- --<br>- ------- ------ --------- -- ------------ -- --- ---- -----<br>------ ---- ---- ------ wooden ------- --- ----- ---------<br>---- --- -------- -------- --- --- -- ------- --- --- -----<br>-- --- ------ ------- --- --- -------- ---- --------- --<br>---------- -- -------- ----------------,226072.69999980927,226071.59999990463,225824.205,225829.89999985695,225840.86,226093.267,,24,wooden
screen,html.Screen,2_3_1_0_1_25,2022-02-17T16:45:55.431Z,,,,,,,,,,,,,,,,,11,,,,,,,,,,,,,,472.83299990464,,response,,,,4,F,,,,,,Space,keypress(Space),,,,instrumental,,,,----- -- ---- --- -- --- -------- ------------ ---------- --<br>- ------- ------ --------- -- ------------ -- --- ---- -----<br>------ ---- ---- ------ ------ tablets --- ----- ---------<br>---- --- -------- -------- --- --- -- ------- --- --- -----<br>-- --- ------ ------- --- --- -------- ---- --------- --<br>---------- -- -------- ----------------,226566.79999995232,226566.09999990463,226057.794,226072.89999985695,226093.267,226574.865,,25,tablets
screen,html.Screen,2_3_1_0_1_26,2022-02-17T16:45:55.830Z,,,,,,,,,,,,,,,,,11,,,,,,,,,,,,,,390.53499985695817,,response,,,,4,F,,,,,,Space,keypress(Space),,,,instrumental,,,,----- -- ---- --- -- --- -------- ------------ ---------- --<br>- ------- ------ --------- -- ------------ -- --- ---- -----<br>------ ---- ---- ------ ------ ------- and ----- ---------<br>---- --- -------- -------- --- --- -- ------- --- --- -----<br>-- --- ------ ------- --- --- -------- ---- --------- --<br>---------- -- -------- ----------------,226965.79999995232,226965.39999985695,226558.255,226567,226574.865,226975.238,,26,and
screen,html.Screen,2_3_1_0_1_27,2022-02-17T16:45:56.168Z,,,,,,,,,,,,,,,,,11,,,,,,,,,,,,,,327.66199985693675,,response,,,,4,F,,,,,,Space,keypress(Space),,,,instrumental,,,,----- -- ---- --- -- --- -------- ------------ ---------- --<br>- ------- ------ --------- -- ------------ -- --- ---- -----<br>------ ---- ---- ------ ------ ------- --- other ---------<br>---- --- -------- -------- --- --- -- ------- --- --- -----<br>-- --- ------ ------- --- --- -------- ---- --------- --<br>---------- -- -------- ----------------,227303.19999980927,227302.89999985695,226958.646,226965.79999995232,226975.238,227308.962,,27,other
screen,html.Screen,2_3_1_0_1_28,2022-02-17T16:45:56.800Z,,,,,,,,,,,,,,,,,11,,,,,,,,,,,,,,626.2379998092656,,response,,,,4,F,,,,,,Space,keypress(Space),,,,instrumental,,,,----- -- ---- --- -- --- -------- ------------ ---------- --<br>- ------- ------ --------- -- ------------ -- --- ---- -----<br>------ ---- ---- ------ ------ ------- --- ----- artifacts<br>---- --- -------- -------- --- --- -- ------- --- --- -----<br>-- --- ------ ------- --- --- -------- ---- --------- --<br>---------- -- -------- ----------------,227935.79999995232,227935.19999980927,227292.254,227303.29999995232,227308.962,227942.904,,28,artifacts
screen,html.Screen,2_3_1_0_1_29,2022-02-17T16:45:57.111Z,,,,,,,,,,,,,,,,,11,,,,,,,,,,,,,,303.2959998092556,,response,,,,4,F,,,,,,Space,keypress(Space),,,,instrumental,,,,----- -- ---- --- -- --- -------- ------------ ---------- --<br>- ------- ------ --------- -- ------------ -- --- ---- -----<br>------ ---- ---- ------ ------ ------- --- ----- ---------<br>from --- -------- -------- --- --- -- ------- --- --- -----<br>-- --- ------ ------- --- --- -------- ---- --------- --<br>---------- -- -------- ----------------,228246.79999995232,228246.19999980927,227926.268,227936,227942.904,228259.93,,29,from
screen,html.Screen,2_3_1_0_1_30,2022-02-17T16:45:57.682Z,,,,,,,,,,,,,,,,,11,,,,,,,,,,,,,,556.4699998569558,,response,,,,4,F,,,,,,Space,keypress(Space),,,,instrumental,,,,----- -- ---- --- -- --- -------- ------------ ---------- --<br>- ------- ------ --------- -- ------------ -- --- ---- -----<br>------ ---- ---- ------ ------ ------- --- ----- ---------<br>---- the -------- -------- --- --- -- ------- --- --- -----<br>-- --- ------ ------- --- --- -------- ---- --------- --<br>---------- -- -------- ----------------,228817.39999985695,228816.39999985695,228243.213,228247,228259.93,228827.232,,30,the
screen,html.Screen,2_3_1_0_1_31,2022-02-17T16:45:58.023Z,,,,,,,,,,,,,,,,,11,,,,,,,,,,,,,,330.76800000001094,,response,,,,4,F,,,,,,Space,keypress(Space),,,,instrumental,,,,----- -- ---- --- -- --- -------- ------------ ---------- --<br>- ------- ------ --------- -- ------------ -- --- ---- -----<br>------ ---- ---- ------ ------ ------- --- ----- ---------<br>---- --- island's -------- --- --- -- ------- --- --- -----<br>-- --- ------ ------- --- --- -------- ---- --------- --<br>---------- -- -------- ----------------,229158.39999985695,229158,228810.425,228817.59999990463,228827.232,229160.78,,31,island's
screen,html.Screen,2_3_1_0_1_32,2022-02-17T16:45:58.442Z,,,,,,,,,,,,,,,,,11,,,,,,,,,,,,,,415.11999985695,,response,,,,4,F,,,,,,Space,keypress(Space),,,,instrumental,,,,----- -- ---- --- -- --- -------- ------------ ---------- --<br>- ------- ------ --------- -- ------------ -- --- ---- -----<br>------ ---- ---- ------ ------ ------- --- ----- ---------<br>---- --- -------- history. --- --- -- ------- --- --- -----<br>-- --- ------ ------- --- --- -------- ---- --------- --<br>---------- -- -------- ----------------,229577,229575.89999985695,229144.37,229158.59999990463,229160.78,229594.823,,32,history.
screen,html.Screen,2_3_1_0_1_33,2022-02-17T16:45:58.818Z,,,,,,,,,,,,,,,,,11,,,,,,,,,,,,,,357.5769998569449,,response,,,,4,F,,,,,,Space,keypress(Space),,,,instrumental,,,,----- -- ---- --- -- --- -------- ------------ ---------- --<br>- ------- ------ --------- -- ------------ -- --- ---- -----<br>------ ---- ---- ------ ------ ------- --- ----- ---------<br>---- --- -------- -------- The --- -- ------- --- --- -----<br>-- --- ------ ------- --- --- -------- ---- --------- --<br>---------- -- -------- ----------------,229953.09999990463,229952.39999985695,229577.975,229577.29999995232,229594.823,229961.681,,33,The
screen,html.Screen,2_3_1_0_1_34,2022-02-17T16:45:59.162Z,,,,,,,,,,,,,,,,,11,,,,,,,,,,,,,,334.21899985693744,,response,,,,4,F,,,,,,Space,keypress(Space),,,,instrumental,,,,----- -- ---- --- -- --- -------- ------------ ---------- --<br>- ------- ------ --------- -- ------------ -- --- ---- -----<br>------ ---- ---- ------ ------ ------- --- ----- ---------<br>---- --- -------- -------- --- art -- ------- --- --- -----<br>-- --- ------ ------- --- --- -------- ---- --------- --<br>---------- -- -------- ----------------,230297.19999980927,230295.89999985695,229944.89,229953.29999995232,229961.681,230312.066,,34,art
screen,html.Screen,2_3_1_0_1_35,2022-02-17T16:45:59.567Z,,,,,,,,,,,,,,,,,11,,,,,,,,,,,,,,390.1339998092735,,response,,,,4,F,,,,,,Space,keypress(Space),,,,instrumental,,,,----- -- ---- --- -- --- -------- ------------ ---------- --<br>- ------- ------ --------- -- ------------ -- --- ---- -----<br>------ ---- ---- ------ ------ ------- --- ----- ---------<br>---- --- -------- -------- --- --- of ------- --- --- -----<br>-- --- ------ ------- --- --- -------- ---- --------- --<br>---------- -- -------- ----------------,230702.5,230702.19999980927,230295.562,230297.59999990463,230312.066,230712.319,,35,of
screen,html.Screen,2_3_1_0_1_36,2022-02-17T16:46:00.026Z,,,,,,,,,,,,,,,,,11,,,,,,,,,,,,,,447.1810000000114,,response,,,,4,F,,,,,,Space,keypress(Space),,,,instrumental,,,,----- -- ---- --- -- --- -------- ------------ ---------- --<br>- ------- ------ --------- -- ------------ -- --- ---- -----<br>------ ---- ---- ------ ------ ------- --- ----- ---------<br>---- --- -------- -------- --- --- -- writing --- --- -----<br>-- --- ------ ------- --- --- -------- ---- --------- --<br>---------- -- -------- ----------------,231161.09999990463,231159.5,230695.757,230702.69999980927,230712.319,231195.595,,36,writing
screen,html.Screen,2_3_1_0_1_37,2022-02-17T16:46:00.391Z,,,,,,,,,,,,,,,,,11,,,,,,,,,,,,,,330.40499999999884,,response,,,,4,F,,,,,,Space,keypress(Space),,,,instrumental,,,,----- -- ---- --- -- --- -------- ------------ ---------- --<br>- ------- ------ --------- -- ------------ -- --- ---- -----<br>------ ---- ---- ------ ------ ------- --- ----- ---------<br>---- --- -------- -------- --- --- -- ------- was --- -----<br>-- --- ------ ------- --- --- -------- ---- --------- --<br>---------- -- -------- ----------------,231526.39999985695,231526,231146.14,231161.29999995232,231195.595,231529.778,,37,was
screen,html.Screen,2_3_1_0_1_38,2022-02-17T16:46:00.662Z,,,,,,,,,,,,,,,,,11,,,,,,,,,,,,,,267.52199995232513,,response,,,,4,F,,,,,,Space,keypress(Space),,,,instrumental,,,,----- -- ---- --- -- --- -------- ------------ ---------- --<br>- ------- ------ --------- -- ------------ -- --- ---- -----<br>------ ---- ---- ------ ------ ------- --- ----- ---------<br>---- --- -------- -------- --- --- -- ------- --- not -----<br>-- --- ------ ------- --- --- -------- ---- --------- --<br>---------- -- -------- ----------------,231797.69999980927,231797.29999995232,231513.125,231526.39999985695,231529.778,231813.421,,38,not
screen,html.Screen,2_3_1_0_1_39,2022-02-17T16:46:01.042Z,,,,,,,,,,,,,,,,,11,,,,,,,,,,,,,,362.8789999523142,,response,,,,4,F,,,,,,Space,keypress(Space),,,,instrumental,,,,----- -- ---- --- -- --- -------- ------------ ---------- --<br>- ------- ------ --------- -- ------------ -- --- ---- -----<br>------ ---- ---- ------ ------ ------- --- ----- ---------<br>---- --- -------- -------- --- --- -- ------- --- --- known<br>-- --- ------ ------- --- --- -------- ---- --------- --<br>---------- -- -------- ----------------,232177.29999995232,232176.29999995232,231796.731,231797.79999995232,231813.421,232180.547,,39,known
