sender,sender_type,sender_id,timestamp,meta,,Blues,Classical,Country,Dance,Electronic,Folk,Gospel,Hip-Hop,Jazz,Latin,Musical/Film,New-age,Pop,Prolific_id,Provo_ID,R&B,Rap,Reggae,Religious,Rock,Soul,Swing,Traditional,age,artist_name,correct,correctResponse,distraction,duration,education,ended_on,familiarity,gender,headphone_check_performance,item,list,music_frequency,offensiveness,pleasantness,position_correct,preference,response,response_action,snippet_file,song_name,song_rating,sound,stimulus_1,stimulus_2,stimulus_3,text,time_commit,time_end,time_render,time_run,time_show,time_switch,url,word,word_ID
Prolific ID,html.Form,0,2022-02-17T14:34:05.721Z,"{""labjs_version"":""20.2.2"",""labjs_build"":{""flavor"":""production"",""commit"":""a25486e0c714a0ae2ce03ff94b7bb6896854dcfa""},""location"":""https://run.pavlovia.org/mvasilev/prolific2_music_e/"",""userAgent"":""Mozilla/5.0 (Windows NT 10.0; Win64; x64; rv:97.0) Gecko/20100101 Firefox/97.0"",""platform"":""Win32"",""language"":""en-GB"",""locale"":""en-GB"",""timeZone"":""Europe/London"",""timezoneOffset"":0,""screen_width"":2560,""screen_height"":1440,""scroll_width"":2560,""scroll_height"":1239,""window_innerWidth"":2560,""window_innerHeight"":1287,""devicePixelRatio"":1}",,,,,,,,,,,,,,,5aeade84f00c7f00018f7807,,,,,,,,,,,,,,,5473.32,,form submission,,,,,,,,,,,,,,,,,,,,,12444,12443,6968.68,6969,6969.68,12443.88,{},,
Introduction,html.Screen,1_0,2022-02-17T14:34:14.357Z,,,,,,,,,,,,,,,,,,,,,,,,,,,,,,,8624.12,,response,,,,,,,,,,,continue,click button,,,,,,,,,21079,21068,12441.04,12445,12443.88,21084.4,,,
Volume calibration,html.Screen,1_1,2022-02-17T14:34:40.797Z,,,,,,,,,,,,,,,,,,,,,,,,,,,,,,,26420.6,,response,,,,,,,,,,,continue,click button,,,,,,,,,47519,47505,21079.02,21080,21084.4,47519.9,,,
Task instructions,html.Screen,1_2,2022-02-17T14:35:08.757Z,,,,,,,,,,,,,,,,,,,,,,,,,,,,,,,27954.1,,response,,,,,,,,,,,continue,click button,,,,,,,,,75479,75474,47519.12,47520,47519.9,75484.7,,,
Sounds,html.Screen,1_3_0_0,2022-02-17T14:35:13.007Z,,,,,,,,,,,,,,,,,,,,,,,,,,,,,,,4250.800000000003,,timeout,,,,,,,,,1,,,,,,,,S,O,I,,79730,79728.56,75478.76,75480,75484.7,79735.5,,,
Judgement,html.Screen,1_3_0_1,2022-02-17T14:35:17.227Z,,,,,,,,,,,,,,,,,,,,,,,,,,,,true,1,,4207.5,,response,,,,,,,,,1,,1,click #choice-1,,,,,S,O,I,,83950,83943,79728.56,79731,79735.5,83951.56,,,
Trial,flow.Sequence,1_3_0,2022-02-17T14:35:17.227Z,,,,,,,,,,,,,,,,,,,,,,,,,,,,,,,8458.300000000003,,completion,,,,,,,,,1,,,,,,,,S,O,I,,83950,83943,75478.76,75480,75484.7,83951.56,,,
Sounds,html.Screen,1_3_1_0,2022-02-17T14:35:21.474Z,,,,,,,,,,,,,,,,,,,,,,,,,,,,,,,4250.800000000003,,timeout,,,,,,,,,1,,,,,,,,S,I,O,,88197,88195.42,83948.86,83950,83951.56,88202.36,,,
Judgement,html.Screen,1_3_1_1,2022-02-17T14:35:22.254Z,,,,,,,,,,,,,,,,,,,,,,,,,,,,true,1,,771.6399999999994,,response,,,,,,,,,1,,1,click #choice-1,,,,,S,I,O,,88977,88974,88195.42,88197,88202.36,88980.28,,,
Trial,flow.Sequence,1_3_1,2022-02-17T14:35:22.254Z,,,,,,,,,,,,,,,,,,,,,,,,,,,,,,,5022.440000000002,,completion,,,,,,,,,1,,,,,,,,S,I,O,,88977,88974,83948.86,83950,83951.56,88980.28,,,
Sounds,html.Screen,1_3_2_0,2022-02-17T14:35:26.503Z,,,,,,,,,,,,,,,,,,,,,,,,,,,,,,,4250.800000000003,,timeout,,,,,,,,,3,,,,,,,,I,O,S,,93226,93224.14,88976.48,88977,88980.28,93231.08,,,
Judgement,html.Screen,1_3_2_1,2022-02-17T14:35:27.232Z,,,,,,,,,,,,,,,,,,,,,,,,,,,,true,3,,710.9199999999983,,response,,,,,,,,,3,,3,click #choice-3,,,,,I,O,S,,93955,93942,93224.14,93226,93231.08,93960.38,,,
Trial,flow.Sequence,1_3_2,2022-02-17T14:35:27.233Z,,,,,,,,,,,,,,,,,,,,,,,,,,,,,,,4961.720000000001,,completion,,,,,,,,,3,,,,,,,,I,O,S,,93955,93942,88976.48,88977,88980.28,93960.38,,,
Sounds,html.Screen,1_3_3_0,2022-02-17T14:35:31.483Z,,,,,,,,,,,,,,,,,,,,,,,,,,,,,,,4252.119999999995,,timeout,,,,,,,,,3,,,,,,,,O,I,S,,98206,98205.56,93954.42,93955,93960.38,98212.5,,,
Judgement,html.Screen,1_3_3_1,2022-02-17T14:35:32.117Z,,,,,,,,,,,,,,,,,,,,,,,,,,,,true,3,,620.5,,response,,,,,,,,,3,,3,click #choice-3,,,,,O,I,S,,98840,98833,98205.56,98206,98212.5,98844.56,,,
Trial,flow.Sequence,1_3_3,2022-02-17T14:35:32.117Z,,,,,,,,,,,,,,,,,,,,,,,,,,,,,,,4872.619999999995,,completion,,,,,,,,,3,,,,,,,,O,I,S,,98841,98833,93954.42,93955,93960.38,98844.56,,,
Sounds,html.Screen,1_3_4_0,2022-02-17T14:35:36.367Z,,,,,,,,,,,,,,,,,,,,,,,,,,,,,,,4250.800000000003,,timeout,,,,,,,,,2,,,,,,,,I,S,O,,103090,103088.42,98839.72,98841,98844.56,103095.36,,,
Judgement,html.Screen,1_3_4_1,2022-02-17T14:35:36.775Z,,,,,,,,,,,,,,,,,,,,,,,,,,,,true,2,,393.6399999999994,,response,,,,,,,,,2,,2,click #choice-2,,,,,I,S,O,,103497,103489,103088.42,103090,103095.36,103498.22,,,
Trial,flow.Sequence,1_3_4,2022-02-17T14:35:36.775Z,,,,,,,,,,,,,,,,,,,,,,,,,,,,,,,4644.440000000002,,completion,,,,,,,,,2,,,,,,,,I,S,O,,103497,103489,98839.72,98841,98844.56,103498.22,,,
Sounds,html.Screen,1_3_5_0,2022-02-17T14:35:41.020Z,,,,,,,,,,,,,,,,,,,,,,,,,,,,,,,4250.779999999999,,timeout,,,,,,,,,2,,,,,,,,O,S,I,,107743,107742.06,103496.88,103497,103498.22,107749,,,
Judgement,html.Screen,1_3_5_1,2022-02-17T14:35:41.416Z,,,,,,,,,,,,,,,,,,,,,,,,,,,,true,2,,381,,response,,,,,,,,,2,,2,click #choice-2,,,,,O,S,I,,108139,108130,107742.06,107744,107749,108144.92,,,
Trial,flow.Sequence,1_3_5,2022-02-17T14:35:41.417Z,,,,,,,,,,,,,,,,,,,,,,,,,,,,,,,4631.779999999999,,completion,,,,,,,,,2,,,,,,,,O,S,I,,108139,108130,103496.88,103497,103498.22,108144.92,,,
Task,flow.Loop,1_3,2022-02-17T14:35:41.418Z,,,,,,,,,,,,,,,,,,,,,,,,,,,,,,,32645.300000000003,,completion,,,1,,,,,,,,,,,,,,,,,,108140,108130,75478.76,75480,75484.7,108144.92,,,
Trap,html.Screen,1_4,2022-02-17T14:35:41.419Z,,,,,,,,,,,,,,,,,,,,,,,,,,,,,,,NaN,,skipped,,,,,,,,,,,,,,,,,,,,,108141,108130,,108141,,108144.92,,,
Thanks,html.Screen,1_5,2022-02-17T14:35:45.390Z,,,,,,,,,,,,,,,,,,,,,,,,,,,,,,,3955.0800000000017,,response,,,,,,,,,,,continue,click button,,,,,,,,,112113,112100,108138.92,108141,108144.92,115305.98,,,
Headphone screening,flow.Sequence,1,2022-02-17T14:35:45.390Z,,,,,,,,,,,,,,,,,,,,,,,,,,,,,,,99656.12,,completion,,,,,,,,,,,,,,,,,,,,,112113,112100,12441.04,12445,12443.88,115305.98,,,
Instructions,html.Page,2_0,2022-02-17T14:36:11.098Z,,,,,,,,,,,,,,,,,,,,,,,,,,,,,,,22513.020000000004,,form submission,,,,,,,,,,,,,,,,,,,,,137820,137819,115299.04,115297,115305.98,137825.34,,,
Holding screen,html.Screen,2_1_0_0,2022-02-17T14:36:21.099Z,,,,,,,,,,,,,,,,,,,,,,,,,,,,,,,10001.880000000005,,timeout,,,,,,,,,,,,,,,,,,,,,147821,147820.26,137818.74,137820,137825.34,147827.22,,,
screen,html.Screen,2_1_0_1_0,2022-02-17T14:36:22.368Z,,,,,,,,,,,,,,,,,53,,,,,,,,,,,,,,1256.7799999999988,,response,,,,99,,,,,,,Space,keypress(Space),,,,,,,,When -- ----- -- ------ - ------- --- ----------<br>------------- ------ ------ ---- ---- ------- ----- -- ----<br>-------- ------- -- ---------- --- - --- ----- ----- ----<br>---- --- --- ----- --- ---- ---- ------- ----- ---- -------<br>--- --- -- ----- -- --- ---- -- --- ---- -- ------ ------<br>--- ----- -- ----,149089,149084,147820.26,147821,147827.22,149091.34,,0,When
screen,html.Screen,2_1_0_1_1,2022-02-17T14:36:22.935Z,,,,,,,,,,,,,,,,,53,,,,,,,,,,,,,,555.6600000000035,,response,,,,99,,,,,,,Space,keypress(Space),,,,,,,,---- it ----- -- ------ - ------- --- ----------<br>------------- ------ ------ ---- ---- ------- ----- -- ----<br>-------- ------- -- ---------- --- - --- ----- ----- ----<br>---- --- --- ----- --- ---- ---- ------- ----- ---- -------<br>--- --- -- ----- -- --- ---- -- --- ---- -- ------ ------<br>--- ----- -- ----,149657,149647,149089.66,149089,149091.34,149660.88,,1,it
screen,html.Screen,2_1_0_1_2,2022-02-17T14:36:23.449Z,,,,,,,,,,,,,,,,,53,,,,,,,,,,,,,,501.11999999999534,,response,,,,99,,,,,,,Space,keypress(Space),,,,,,,,---- -- comes -- ------ - ------- --- ----------<br>------------- ------ ------ ---- ---- ------- ----- -- ----<br>-------- ------- -- ---------- --- - --- ----- ----- ----<br>---- --- --- ----- --- ---- ---- ------- ----- ---- -------<br>--- --- -- ----- -- --- ---- -- --- ---- -- ------ ------<br>--- ----- -- ----,150172,150162,149657.18,149657,149660.88,150174.88,,2,comes
screen,html.Screen,2_1_0_1_3,2022-02-17T14:36:23.913Z,,,,,,,,,,,,,,,,,53,,,,,,,,,,,,,,456.11999999999534,,response,,,,99,,,,,,,Space,keypress(Space),,,,,,,,---- -- ----- to ------ - ------- --- ----------<br>------------- ------ ------ ---- ---- ------- ----- -- ----<br>-------- ------- -- ---------- --- - --- ----- ----- ----<br>---- --- --- ----- --- ---- ---- ------- ----- ---- -------<br>--- --- -- ----- -- --- ---- -- --- ---- -- ------ ------<br>--- ----- -- ----,150635,150631,150171.88,150172,150174.88,150640.24,,3,to
screen,html.Screen,2_1_0_1_4,2022-02-17T14:36:24.423Z,,,,,,,,,,,,,,,,,53,,,,,,,,,,,,,,490.7600000000093,,response,,,,99,,,,,,,Space,keypress(Space),,,,,,,,---- -- ----- -- having - ------- --- ----------<br>------------- ------ ------ ---- ---- ------- ----- -- ----<br>-------- ------- -- ---------- --- - --- ----- ----- ----<br>---- --- --- ----- --- ---- ---- ------- ----- ---- -------<br>--- --- -- ----- -- --- ---- -- --- ---- -- ------ ------<br>--- ----- -- ----,151146,151131,150635.74,150636,150640.24,151147.28,,4,having
screen,html.Screen,2_1_0_1_5,2022-02-17T14:36:24.914Z,,,,,,,,,,,,,,,,,53,,,,,,,,,,,,,,483.72000000000116,,response,,,,99,,,,,,,Space,keypress(Space),,,,,,,,---- -- ----- -- ------ a ------- --- ----------<br>------------- ------ ------ ---- ---- ------- ----- -- ----<br>-------- ------- -- ---------- --- - --- ----- ----- ----<br>---- --- --- ----- --- ---- ---- ------- ----- ---- -------<br>--- --- -- ----- -- --- ---- -- --- ---- -- ------ ------<br>--- ----- -- ----,151636,151631,151145.66,151146,151147.28,151640.42,,5,a
screen,html.Screen,2_1_0_1_6,2022-02-17T14:36:25.512Z,,,,,,,,,,,,,,,,,53,,,,,,,,,,,,,,584.5799999999872,,response,,,,99,,,,,,,Space,keypress(Space),,,,,,,,---- -- ----- -- ------ - lasting --- ----------<br>------------- ------ ------ ---- ---- ------- ----- -- ----<br>-------- ------- -- ---------- --- - --- ----- ----- ----<br>---- --- --- ----- --- ---- ---- ------- ----- ---- -------<br>--- --- -- ----- -- --- ---- -- --- ---- -- ------ ------<br>--- ----- -- ----,152235,152225,151636.9,151636,151640.42,152237.76,,6,lasting
screen,html.Screen,2_1_0_1_7,2022-02-17T14:36:26.036Z,,,,,,,,,,,,,,,,,53,,,,,,,,,,,,,,517.2399999999907,,response,,,,99,,,,,,,Space,keypress(Space),,,,,,,,---- -- ----- -- ------ - ------- and ----------<br>------------- ------ ------ ---- ---- ------- ----- -- ----<br>-------- ------- -- ---------- --- - --- ----- ----- ----<br>---- --- --- ----- --- ---- ---- ------- ----- ---- -------<br>--- --- -- ----- -- --- ---- -- --- ---- -- ------ ------<br>--- ----- -- ----,152758,152755,152235.1,152235,152237.76,152758.7,,7,and
screen,html.Screen,2_1_0_1_8,2022-02-17T14:36:26.526Z,,,,,,,,,,,,,,,,,53,,,,,,,,,,,,,,480.29999999998836,,response,,,,99,,,,,,,Space,keypress(Space),,,,,,,,---- -- ----- -- ------ - ------- --- fulfilling<br>------------- ------ ------ ---- ---- ------- ----- -- ----<br>-------- ------- -- ---------- --- - --- ----- ----- ----<br>---- --- --- ----- --- ---- ---- ------- ----- ---- -------<br>--- --- -- ----- -- --- ---- -- --- ---- -- ------ ------<br>--- ----- -- ----,153249,153239,152758.18,152758,152758.7,153251.84,,8,fulfilling
screen,html.Screen,2_1_0_1_9,2022-02-17T14:36:27.146Z,,,,,,,,,,,,,,,,,53,,,,,,,,,,,,,,612.1600000000035,,response,,,,99,,,,,,,Space,keypress(Space),,,,,,,,"---- -- ----- -- ------ - ------- --- ----------<br>relationship, ------ ------ ---- ---- ------- ----- -- ----<br>-------- ------- -- ---------- --- - --- ----- ----- ----<br>---- --- --- ----- --- ---- ---- ------- ----- ---- -------<br>--- --- -- ----- -- --- ---- -- --- ---- -- ------ ------<br>--- ----- -- ----",153869,153864,153249.02,153249,153251.84,153870,,9,"relationship,"
screen,html.Screen,2_1_0_1_10,2022-02-17T14:36:27.931Z,,,,,,,,,,,,,,,,,53,,,,,,,,,,,,,,776,,response,,,,99,,,,,,,Space,keypress(Space),,,,,,,,---- -- ----- -- ------ - ------- --- ----------<br>------------- common ------ ---- ---- ------- ----- -- ----<br>-------- ------- -- ---------- --- - --- ----- ----- ----<br>---- --- --- ----- --- ---- ---- ------- ----- ---- -------<br>--- --- -- ----- -- --- ---- -- --- ---- -- ------ ------<br>--- ----- -- ----,154654,154646,153868.84,153869,153870,154654.88,,10,common
screen,html.Screen,2_1_0_1_11,2022-02-17T14:36:28.517Z,,,,,,,,,,,,,,,,,53,,,,,,,,,,,,,,569.1199999999953,,response,,,,99,,,,,,,Space,keypress(Space),,,,,,,,---- -- ----- -- ------ - ------- --- ----------<br>------------- ------ wisdom ---- ---- ------- ----- -- ----<br>-------- ------- -- ---------- --- - --- ----- ----- ----<br>---- --- --- ----- --- ---- ---- ------- ----- ---- -------<br>--- --- -- ----- -- --- ---- -- --- ---- -- ------ ------<br>--- ----- -- ----,155239,155224,154653.7,154654,154654.88,155245.26,,11,wisdom
screen,html.Screen,2_1_0_1_12,2022-02-17T14:36:29.036Z,,,,,,,,,,,,,,,,,53,,,,,,,,,,,,,,510.7399999999907,,response,,,,99,,,,,,,Space,keypress(Space),,,,,,,,---- -- ----- -- ------ - ------- --- ----------<br>------------- ------ ------ says ---- ------- ----- -- ----<br>-------- ------- -- ---------- --- - --- ----- ----- ----<br>---- --- --- ----- --- ---- ---- ------- ----- ---- -------<br>--- --- -- ----- -- --- ---- -- --- ---- -- ------ ------<br>--- ----- -- ----,155758,155756,155238.82,155239,155245.26,155759.26,,12,says
screen,html.Screen,2_1_0_1_13,2022-02-17T14:36:29.702Z,,,,,,,,,,,,,,,,,53,,,,,,,,,,,,,,651.7399999999907,,response,,,,99,,,,,,,Space,keypress(Space),,,,,,,,---- -- ----- -- ------ - ------- --- ----------<br>------------- ------ ------ ---- that ------- ----- -- ----<br>-------- ------- -- ---------- --- - --- ----- ----- ----<br>---- --- --- ----- --- ---- ---- ------- ----- ---- -------<br>--- --- -- ----- -- --- ---- -- --- ---- -- ------ ------<br>--- ----- -- ----,156424,156411,155758.74,155759,155759.26,156426.04,,13,that
screen,html.Screen,2_1_0_1_14,2022-02-17T14:36:30.239Z,,,,,,,,,,,,,,,,,53,,,,,,,,,,,,,,531.9599999999919,,response,,,,99,,,,,,,Space,keypress(Space),,,,,,,,---- -- ----- -- ------ - ------- --- ----------<br>------------- ------ ------ ---- ---- feeling ----- -- ----<br>-------- ------- -- ---------- --- - --- ----- ----- ----<br>---- --- --- ----- --- ---- ---- ------- ----- ---- -------<br>--- --- -- ----- -- --- ---- -- --- ---- -- ------ ------<br>--- ----- -- ----,156962,156958,156424.26,156424,156426.04,156967.82,,14,feeling
screen,html.Screen,2_1_0_1_15,2022-02-17T14:36:30.838Z,,,,,,,,,,,,,,,,,53,,,,,,,,,,,,,,585.179999999993,,response,,,,99,,,,,,,Space,keypress(Space),,,,,,,,---- -- ----- -- ------ - ------- --- ----------<br>------------- ------ ------ ---- ---- ------- close -- ----<br>-------- ------- -- ---------- --- - --- ----- ----- ----<br>---- --- --- ----- --- ---- ---- ------- ----- ---- -------<br>--- --- -- ----- -- --- ---- -- --- ---- -- ------ ------<br>--- ----- -- ----,157560,157553,156961.88,156962,156967.82,157565.14,,15,close
screen,html.Screen,2_1_0_1_16,2022-02-17T14:36:31.332Z,,,,,,,,,,,,,,,,,53,,,,,,,,,,,,,,486.85999999998603,,response,,,,99,,,,,,,Space,keypress(Space),,,,,,,,---- -- ----- -- ------ - ------- --- ----------<br>------------- ------ ------ ---- ---- ------- ----- to ----<br>-------- ------- -- ---------- --- - --- ----- ----- ----<br>---- --- --- ----- --- ---- ---- ------- ----- ---- -------<br>--- --- -- ----- -- --- ---- -- --- ---- -- ------ ------<br>--- ----- -- ----,158054,158052,157559.74,157560,157565.14,158058.3,,16,to
screen,html.Screen,2_1_0_1_17,2022-02-17T14:36:31.930Z,,,,,,,,,,,,,,,,,53,,,,,,,,,,,,,,587.7000000000116,,response,,,,99,,,,,,,Space,keypress(Space),,,,,,,,---- -- ----- -- ------ - ------- --- ----------<br>------------- ------ ------ ---- ---- ------- ----- -- your<br>-------- ------- -- ---------- --- - --- ----- ----- ----<br>---- --- --- ----- --- ---- ---- ------- ----- ---- -------<br>--- --- -- ----- -- --- ---- -- --- ---- -- ------ ------<br>--- ----- -- ----,158652,158646,158054.44,158055,158058.3,158655.62,,17,your
screen,html.Screen,2_1_0_1_18,2022-02-17T14:36:32.464Z,,,,,,,,,,,,,,,,,53,,,,,,,,,,,,,,522.3800000000047,,response,,,,99,,,,,,,Space,keypress(Space),,,,,,,,---- -- ----- -- ------ - ------- --- ----------<br>------------- ------ ------ ---- ---- ------- ----- -- ----<br>romantic ------- -- ---------- --- - --- ----- ----- ----<br>---- --- --- ----- --- ---- ---- ------- ----- ---- -------<br>--- --- -- ----- -- --- ---- -- --- ---- -- ------ ------<br>--- ----- -- ----,159187,159178,158652.84,158652,158655.62,159190.46,,18,romantic
screen,html.Screen,2_1_0_1_19,2022-02-17T14:36:33.220Z,,,,,,,,,,,,,,,,,53,,,,,,,,,,,,,,737.5400000000081,,response,,,,99,,,,,,,Space,keypress(Space),,,,,,,,---- -- ----- -- ------ - ------- --- ----------<br>------------- ------ ------ ---- ---- ------- ----- -- ----<br>-------- partner -- ---------- --- - --- ----- ----- ----<br>---- --- --- ----- --- ---- ---- ------- ----- ---- -------<br>--- --- -- ----- -- --- ---- -- --- ---- -- ------ ------<br>--- ----- -- ----,159941,159928,159186.62,159187,159190.46,159947.54,,19,partner
screen,html.Screen,2_1_0_1_20,2022-02-17T14:36:33.910Z,,,,,,,,,,,,,,,,,53,,,,,,,,,,,,,,683.4599999999919,,response,,,,99,,,,,,,Space,keypress(Space),,,,,,,,---- -- ----- -- ------ - ------- --- ----------<br>------------- ------ ------ ---- ---- ------- ----- -- ----<br>-------- ------- is ---------- --- - --- ----- ----- ----<br>---- --- --- ----- --- ---- ---- ------- ----- ---- -------<br>--- --- -- ----- -- --- ---- -- --- ---- -- ------ ------<br>--- ----- -- ----,160633,160631,159941.6,159941,159947.54,160635.16,,20,is
screen,html.Screen,2_1_0_1_21,2022-02-17T14:36:34.578Z,,,,,,,,,,,,,,,,,53,,,,,,,,,,,,,,651.8399999999965,,response,,,,99,,,,,,,Space,keypress(Space),,,,,,,,---- -- ----- -- ------ - ------- --- ----------<br>------------- ------ ------ ---- ---- ------- ----- -- ----<br>-------- ------- -- paramount. --- - --- ----- ----- ----<br>---- --- --- ----- --- ---- ---- ------- ----- ---- -------<br>--- --- -- ----- -- --- ---- -- --- ---- -- ------ ------<br>--- ----- -- ----,161301,161287,160632.6,160633,160635.16,161301.96,,21,paramount.
screen,html.Screen,2_1_0_1_22,2022-02-17T14:36:35.454Z,,,,,,,,,,,,,,,,,53,,,,,,,,,,,,,,860.0400000000081,,response,,,,99,,,,,,,Space,keypress(Space),,,,,,,,---- -- ----- -- ------ - ------- --- ----------<br>------------- ------ ------ ---- ---- ------- ----- -- ----<br>-------- ------- -- ---------- But - --- ----- ----- ----<br>---- --- --- ----- --- ---- ---- ------- ----- ---- -------<br>--- --- -- ----- -- --- ---- -- --- ---- -- ------ ------<br>--- ----- -- ----,162176,162162,161300.9,161301,161301.96,162177.12,,22,But
screen,html.Screen,2_1_0_1_23,2022-02-17T14:36:36.020Z,,,,,,,,,,,,,,,,,53,,,,,,,,,,,,,,562.8800000000047,,response,,,,99,,,,,,,Space,keypress(Space),,,,,,,,---- -- ----- -- ------ - ------- --- ----------<br>------------- ------ ------ ---- ---- ------- ----- -- ----<br>-------- ------- -- ---------- --- a --- ----- ----- ----<br>---- --- --- ----- --- ---- ---- ------- ----- ---- -------<br>--- --- -- ----- -- --- ---- -- --- ---- -- ------ ------<br>--- ----- -- ----,162743,162740,162176.3,162176,162177.12,162746.68,,23,a
screen,html.Screen,2_1_0_1_24,2022-02-17T14:36:36.507Z,,,,,,,,,,,,,,,,,53,,,,,,,,,,,,,,478.320000000007,,response,,,,99,,,,,,,Space,keypress(Space),,,,,,,,---- -- ----- -- ------ - ------- --- ----------<br>------------- ------ ------ ---- ---- ------- ----- -- ----<br>-------- ------- -- ---------- --- - new ----- ----- ----<br>---- --- --- ----- --- ---- ---- ------- ----- ---- -------<br>--- --- -- ----- -- --- ---- -- --- ---- -- ------ ------<br>--- ----- -- ----,163230,163225,162742.58,162743,162746.68,163232.88,,24,new
screen,html.Screen,2_1_0_1_25,2022-02-17T14:36:37.028Z,,,,,,,,,,,,,,,,,53,,,,,,,,,,,,,,507.11999999999534,,response,,,,99,,,,,,,Space,keypress(Space),,,,,,,,---- -- ----- -- ------ - ------- --- ----------<br>------------- ------ ------ ---- ---- ------- ----- -- ----<br>-------- ------- -- ---------- --- - --- study ----- ----<br>---- --- --- ----- --- ---- ---- ------- ----- ---- -------<br>--- --- -- ----- -- --- ---- -- --- ---- -- ------ ------<br>--- ----- -- ----,163750,163740,163229.88,163230,163232.88,163753.8,,25,study
screen,html.Screen,2_1_0_1_26,2022-02-17T14:36:37.491Z,,,,,,,,,,,,,,,,,53,,,,,,,,,,,,,,454.20000000001164,,response,,,,99,,,,,,,Space,keypress(Space),,,,,,,,---- -- ----- -- ------ - ------- --- ----------<br>------------- ------ ------ ---- ---- ------- ----- -- ----<br>-------- ------- -- ---------- --- - --- ----- finds ----<br>---- --- --- ----- --- ---- ---- ------- ----- ---- -------<br>--- --- -- ----- -- --- ---- -- --- ---- -- ------ ------<br>--- ----- -- ----,164214,164208,163750.44,163750,163753.8,164219.18,,26,finds
screen,html.Screen,2_1_0_1_27,2022-02-17T14:36:38.024Z,,,,,,,,,,,,,,,,,53,,,,,,,,,,,,,,519.820000000007,,response,,,,99,,,,,,,Space,keypress(Space),,,,,,,,---- -- ----- -- ------ - ------- --- ----------<br>------------- ------ ------ ---- ---- ------- ----- -- ----<br>-------- ------- -- ---------- --- - --- ----- ----- that<br>---- --- --- ----- --- ---- ---- ------- ----- ---- -------<br>--- --- -- ----- -- --- ---- -- --- ---- -- ------ ------<br>--- ----- -- ----,164746,164739,164214.1,164214,164219.18,164747.04,,27,that
screen,html.Screen,2_1_0_1_28,2022-02-17T14:36:38.522Z,,,,,,,,,,,,,,,,,53,,,,,,,,,,,,,,492.95999999999185,,response,,,,99,,,,,,,Space,keypress(Space),,,,,,,,---- -- ----- -- ------ - ------- --- ----------<br>------------- ------ ------ ---- ---- ------- ----- -- ----<br>-------- ------- -- ---------- --- - --- ----- ----- ----<br>it's --- --- ----- --- ---- ---- ------- ----- ---- -------<br>--- --- -- ----- -- --- ---- -- --- ---- -- ------ ------<br>--- ----- -- ----,165244,165240,164746.86,164746,164747.04,165247.14,,28,it's
screen,html.Screen,2_1_0_1_29,2022-02-17T14:36:38.967Z,,,,,,,,,,,,,,,,,53,,,,,,,,,,,,,,430.85999999998603,,response,,,,99,,,,,,,Space,keypress(Space),,,,,,,,---- -- ----- -- ------ - ------- --- ----------<br>------------- ------ ------ ---- ---- ------- ----- -- ----<br>-------- ------- -- ---------- --- - --- ----- ----- ----<br>---- not --- ----- --- ---- ---- ------- ----- ---- -------<br>--- --- -- ----- -- --- ---- -- --- ---- -- ------ ------<br>--- ----- -- ----,165689,165678,165244,165244,165247.14,165691.68,,29,not
screen,html.Screen,2_1_0_1_30,2022-02-17T14:36:39.404Z,,,,,,,,,,,,,,,,,53,,,,,,,,,,,,,,422.320000000007,,response,,,,99,,,,,,,Space,keypress(Space),,,,,,,,---- -- ----- -- ------ - ------- --- ----------<br>------------- ------ ------ ---- ---- ------- ----- -- ----<br>-------- ------- -- ---------- --- - --- ----- ----- ----<br>---- --- how ----- --- ---- ---- ------- ----- ---- -------<br>--- --- -- ----- -- --- ---- -- --- ---- -- ------ ------<br>--- ----- -- ----,166126,166114,165689.9,165689,165691.68,166129.26,,30,how
screen,html.Screen,2_1_0_1_31,2022-02-17T14:36:39.871Z,,,,,,,,,,,,,,,,,53,,,,,,,,,,,,,,453.7399999999907,,response,,,,99,,,,,,,Space,keypress(Space),,,,,,,,---- -- ----- -- ------ - ------- --- ----------<br>------------- ------ ------ ---- ---- ------- ----- -- ----<br>-------- ------- -- ---------- --- - --- ----- ----- ----<br>---- --- --- close --- ---- ---- ------- ----- ---- -------<br>--- --- -- ----- -- --- ---- -- --- ---- -- ------ ------<br>--- ----- -- ----,166594,166583,166126.12,166126,166129.26,166594.62,,31,close
screen,html.Screen,2_1_0_1_32,2022-02-17T14:36:40.365Z,,,,,,,,,,,,,,,,,53,,,,,,,,,,,,,,489.38000000000466,,response,,,,99,,,,,,,Space,keypress(Space),,,,,,,,---- -- ----- -- ------ - ------- --- ----------<br>------------- ------ ------ ---- ---- ------- ----- -- ----<br>-------- ------- -- ---------- --- - --- ----- ----- ----<br>---- --- --- ----- you ---- ---- ------- ----- ---- -------<br>--- --- -- ----- -- --- ---- -- --- ---- -- ------ ------<br>--- ----- -- ----,167088,167084,166593.74,166594,166594.62,167087.76,,32,you
screen,html.Screen,2_1_0_1_33,2022-02-17T14:36:40.826Z,,,,,,,,,,,,,,,,,53,,,,,,,,,,,,,,448.2399999999907,,response,,,,99,,,,,,,Space,keypress(Space),,,,,,,,---- -- ----- -- ------ - ------- --- ----------<br>------------- ------ ------ ---- ---- ------- ----- -- ----<br>-------- ------- -- ---------- --- - --- ----- ----- ----<br>---- --- --- ----- --- feel ---- ------- ----- ---- -------<br>--- --- -- ----- -- --- ---- -- --- ---- -- ------ ------<br>--- ----- -- ----,167548,167536,167087.5,167088,167087.76,167553.14,,33,feel
screen,html.Screen,2_1_0_1_34,2022-02-17T14:36:41.354Z,,,,,,,,,,,,,,,,,53,,,,,,,,,,,,,,514.859999999986,,response,,,,99,,,,,,,Space,keypress(Space),,,,,,,,---- -- ----- -- ------ - ------- --- ----------<br>------------- ------ ------ ---- ---- ------- ----- -- ----<br>-------- ------- -- ---------- --- - --- ----- ----- ----<br>---- --- --- ----- --- ---- that ------- ----- ---- -------<br>--- --- -- ----- -- --- ---- -- --- ---- -- ------ ------<br>--- ----- -- ----,168076,168068,167548.62,167548,167553.14,168081,,34,that
screen,html.Screen,2_1_0_1_35,2022-02-17T14:36:41.810Z,,,,,,,,,,,,,,,,,53,,,,,,,,,,,,,,441,,response,,,,99,,,,,,,Space,keypress(Space),,,,,,,,---- -- ----- -- ------ - ------- --- ----------<br>------------- ------ ------ ---- ---- ------- ----- -- ----<br>-------- ------- -- ---------- --- - --- ----- ----- ----<br>---- --- --- ----- --- ---- ---- matters ----- ---- -------<br>--- --- -- ----- -- --- ---- -- --- ---- -- ------ ------<br>--- ----- -- ----,168532,168522,168076.14,168076,168081,168532.48,,35,matters
screen,html.Screen,2_1_0_1_36,2022-02-17T14:36:42.842Z,,,,,,,,,,,,,,,,,53,,,,,,,,,,,,,,1020.5199999999895,,response,,,,99,,,,,,,Space,keypress(Space),,,,,,,,"---- -- ----- -- ------ - ------- --- ----------<br>------------- ------ ------ ---- ---- ------- ----- -- ----<br>-------- ------- -- ---------- --- - --- ----- ----- ----<br>---- --- --- ----- --- ---- ---- ------- most, ---- -------<br>--- --- -- ----- -- --- ---- -- --- ---- -- ------ ------<br>--- ----- -- ----",169564,169553,168531.82,168532,168532.48,169567.4,,36,"most,"
screen,html.Screen,2_1_0_1_37,2022-02-17T14:36:43.379Z,,,,,,,,,,,,,,,,,53,,,,,,,,,,,,,,531.6000000000058,,response,,,,99,,,,,,,Space,keypress(Space),,,,,,,,---- -- ----- -- ------ - ------- --- ----------<br>------------- ------ ------ ---- ---- ------- ----- -- ----<br>-------- ------- -- ---------- --- - --- ----- ----- ----<br>---- --- --- ----- --- ---- ---- ------- ----- it's -------<br>--- --- -- ----- -- --- ---- -- --- ---- -- ------ ------<br>--- ----- -- ----,170101,170099,169564.06,169564,169567.4,170102.22,,37,it's
screen,html.Screen,2_1_0_1_38,2022-02-17T14:36:43.885Z,,,,,,,,,,,,,,,,,53,,,,,,,,,,,,,,497.77999999999884,,response,,,,99,,,,,,,Space,keypress(Space),,,,,,,,---- -- ----- -- ------ - ------- --- ----------<br>------------- ------ ------ ---- ---- ------- ----- -- ----<br>-------- ------- -- ---------- --- - --- ----- ----- ----<br>---- --- --- ----- --- ---- ---- ------- ----- ---- whether<br>--- --- -- ----- -- --- ---- -- --- ---- -- ------ ------<br>--- ----- -- ----,170607,170600,170101.64,170101,170102.22,170609.26,,38,whether
screen,html.Screen,2_1_0_1_39,2022-02-17T14:36:44.354Z,,,,,,,,,,,,,,,,,53,,,,,,,,,,,,,,458.7399999999907,,response,,,,99,,,,,,,Space,keypress(Space),,,,,,,,---- -- ----- -- ------ - ------- --- ----------<br>------------- ------ ------ ---- ---- ------- ----- -- ----<br>-------- ------- -- ---------- --- - --- ----- ----- ----<br>---- --- --- ----- --- ---- ---- ------- ----- ---- -------<br>you --- -- ----- -- --- ---- -- --- ---- -- ------ ------<br>--- ----- -- ----,171077,171068,170607.38,170607,170609.26,171081.58,,39,you
screen,html.Screen,2_1_0_1_40,2022-02-17T14:36:44.742Z,,,,,,,,,,,,,,,,,53,,,,,,,,,,,,,,377.4200000000128,,response,,,,99,,,,,,,Space,keypress(Space),,,,,,,,---- -- ----- -- ------ - ------- --- ----------<br>------------- ------ ------ ---- ---- ------- ----- -- ----<br>-------- ------- -- ---------- --- - --- ----- ----- ----<br>---- --- --- ----- --- ---- ---- ------- ----- ---- -------<br>--- are -- ----- -- --- ---- -- --- ---- -- ------ ------<br>--- ----- -- ----,171465,171459,171076.6,171077,171081.58,171470.54,,40,are
screen,html.Screen,2_1_0_1_41,2022-02-17T14:36:45.165Z,,,,,,,,,,,,,,,,,53,,,,,,,,,,,,,,410.45999999999185,,response,,,,99,,,,,,,Space,keypress(Space),,,,,,,,---- -- ----- -- ------ - ------- --- ----------<br>------------- ------ ------ ---- ---- ------- ----- -- ----<br>-------- ------- -- ---------- --- - --- ----- ----- ----<br>---- --- --- ----- --- ---- ---- ------- ----- ---- -------<br>--- --- as ----- -- --- ---- -- --- ---- -- ------ ------<br>--- ----- -- ----,171888,171881,171464.86,171465,171470.54,171894.22,,41,as
screen,html.Screen,2_1_0_1_42,2022-02-17T14:36:45.952Z,,,,,,,,,,,,,,,,,53,,,,,,,,,,,,,,767.7799999999988,,response,,,,99,,,,,,,Space,keypress(Space),,,,,,,,---- -- ----- -- ------ - ------- --- ----------<br>------------- ------ ------ ---- ---- ------- ----- -- ----<br>-------- ------- -- ---------- --- - --- ----- ----- ----<br>---- --- --- ----- --- ---- ---- ------- ----- ---- -------<br>--- --- -- close -- --- ---- -- --- ---- -- ------ ------<br>--- ----- -- ----,172674,172662,171888,171888,171894.22,172680.36,,42,close
screen,html.Screen,2_1_0_1_43,2022-02-17T14:36:46.509Z,,,,,,,,,,,,,,,,,53,,,,,,,,,,,,,,544.640000000014,,response,,,,99,,,,,,,Space,keypress(Space),,,,,,,,---- -- ----- -- ------ - ------- --- ----------<br>------------- ------ ------ ---- ---- ------- ----- -- ----<br>-------- ------- -- ---------- --- - --- ----- ----- ----<br>---- --- --- ----- --- ---- ---- ------- ----- ---- -------<br>--- --- -- ----- as --- ---- -- --- ---- -- ------ ------<br>--- ----- -- ----,173231,173225,172674.8,172675,172680.36,173235.98,,43,as
screen,html.Screen,2_1_0_1_44,2022-02-17T14:36:47.134Z,,,,,,,,,,,,,,,,,53,,,,,,,,,,,,,,613.0199999999895,,response,,,,99,,,,,,,Space,keypress(Space),,,,,,,,---- -- ----- -- ------ - ------- --- ----------<br>------------- ------ ------ ---- ---- ------- ----- -- ----<br>-------- ------- -- ---------- --- - --- ----- ----- ----<br>---- --- --- ----- --- ---- ---- ------- ----- ---- -------<br>--- --- -- ----- -- you ---- -- --- ---- -- ------ ------<br>--- ----- -- ----,173857,173849,173231.52,173231,173235.98,173861.1,,44,you
screen,html.Screen,2_1_0_1_45,2022-02-17T14:36:47.551Z,,,,,,,,,,,,,,,,,53,,,,,,,,,,,,,,410.8999999999942,,response,,,,99,,,,,,,Space,keypress(Space),,,,,,,,---- -- ----- -- ------ - ------- --- ----------<br>------------- ------ ------ ---- ---- ------- ----- -- ----<br>-------- ------- -- ---------- --- - --- ----- ----- ----<br>---- --- --- ----- --- ---- ---- ------- ----- ---- -------<br>--- --- -- ----- -- --- want -- --- ---- -- ------ ------<br>--- ----- -- ----,174273,174272,173856.6,173857,173861.1,174277.84,,45,want
screen,html.Screen,2_1_0_1_46,2022-02-17T14:36:47.969Z,,,,,,,,,,,,,,,,,53,,,,,,,,,,,,,,400.1600000000035,,response,,,,99,,,,,,,Space,keypress(Space),,,,,,,,---- -- ----- -- ------ - ------- --- ----------<br>------------- ------ ------ ---- ---- ------- ----- -- ----<br>-------- ------- -- ---------- --- - --- ----- ----- ----<br>---- --- --- ----- --- ---- ---- ------- ----- ---- -------<br>--- --- -- ----- -- --- ---- to --- ---- -- ------ ------<br>--- ----- -- ----,174691,174678,174273.48,174273,174277.84,174694.6,,46,to
screen,html.Screen,2_1_0_1_47,2022-02-17T14:36:48.651Z,,,,,,,,,,,,,,,,,53,,,,,,,,,,,,,,669.3999999999942,,response,,,,99,,,,,,,Space,keypress(Space),,,,,,,,"---- -- ----- -- ------ - ------- --- ----------<br>------------- ------ ------ ---- ---- ------- ----- -- ----<br>-------- ------- -- ---------- --- - --- ----- ----- ----<br>---- --- --- ----- --- ---- ---- ------- ----- ---- -------<br>--- --- -- ----- -- --- ---- -- be, ---- -- ------ ------<br>--- ----- -- ----",175374,175364,174691.28,174691,174694.6,175375.28,,47,"be,"
screen,html.Screen,2_1_0_1_48,2022-02-17T14:36:49.225Z,,,,,,,,,,,,,,,,,53,,,,,,,,,,,,,,566.7200000000012,,response,,,,99,,,,,,,Space,keypress(Space),,,,,,,,---- -- ----- -- ------ - ------- --- ----------<br>------------- ------ ------ ---- ---- ------- ----- -- ----<br>-------- ------- -- ---------- --- - --- ----- ----- ----<br>---- --- --- ----- --- ---- ---- ------- ----- ---- -------<br>--- --- -- ----- -- --- ---- -- --- even -- ------ ------<br>--- ----- -- ----,175946,175942,175374.02,175374,175375.28,175951.78,,48,even
screen,html.Screen,2_1_0_1_49,2022-02-17T14:36:49.652Z,,,,,,,,,,,,,,,,,53,,,,,,,,,,,,,,412.22000000000116,,response,,,,99,,,,,,,Space,keypress(Space),,,,,,,,---- -- ----- -- ------ - ------- --- ----------<br>------------- ------ ------ ---- ---- ------- ----- -- ----<br>-------- ------- -- ---------- --- - --- ----- ----- ----<br>---- --- --- ----- --- ---- ---- ------- ----- ---- -------<br>--- --- -- ----- -- --- ---- -- --- ---- if ------ ------<br>--- ----- -- ----,176374,176364,175946.88,175946,175951.78,176375.46,,49,if
screen,html.Screen,2_1_0_1_50,2022-02-17T14:36:50.235Z,,,,,,,,,,,,,,,,,53,,,,,,,,,,,,,,566.5400000000081,,response,,,,99,,,,,,,Space,keypress(Space),,,,,,,,---- -- ----- -- ------ - ------- --- ----------<br>------------- ------ ------ ---- ---- ------- ----- -- ----<br>-------- ------- -- ---------- --- - --- ----- ----- ----<br>---- --- --- ----- --- ---- ---- ------- ----- ---- -------<br>--- --- -- ----- -- --- ---- -- --- ---- -- that's ------<br>--- ----- -- ----,176958,176942,176373.86,176374,176375.46,176958.9,,50,that's
screen,html.Screen,2_1_0_1_51,2022-02-17T14:36:50.728Z,,,,,,,,,,,,,,,,,53,,,,,,,,,,,,,,483.1000000000058,,response,,,,99,,,,,,,Space,keypress(Space),,,,,,,,---- -- ----- -- ------ - ------- --- ----------<br>------------- ------ ------ ---- ---- ------- ----- -- ----<br>-------- ------- -- ---------- --- - --- ----- ----- ----<br>---- --- --- ----- --- ---- ---- ------- ----- ---- -------<br>--- --- -- ----- -- --- ---- -- --- ---- -- ------ really<br>--- ----- -- ----,177451,177442,176957.5,176958,176958.9,177452.06,,51,really
screen,html.Screen,2_1_0_1_52,2022-02-17T14:36:51.245Z,,,,,,,,,,,,,,,,,53,,,,,,,,,,,,,,506.9400000000023,,response,,,,99,,,,,,,Space,keypress(Space),,,,,,,,---- -- ----- -- ------ - ------- --- ----------<br>------------- ------ ------ ---- ---- ------- ----- -- ----<br>-------- ------- -- ---------- --- - --- ----- ----- ----<br>---- --- --- ----- --- ---- ---- ------- ----- ---- -------<br>--- --- -- ----- -- --- ---- -- --- ---- -- ------ ------<br>not ----- -- ----,177966,177959,177451.14,177451,177452.06,177972.98,,52,not
screen,html.Screen,2_1_0_1_53,2022-02-17T14:36:51.966Z,,,,,,,,,,,,,,,,,53,,,,,,,,,,,,,,704.0199999999895,,response,,,,99,,,,,,,Space,keypress(Space),,,,,,,,---- -- ----- -- ------ - ------- --- ----------<br>------------- ------ ------ ---- ---- ------- ----- -- ----<br>-------- ------- -- ---------- --- - --- ----- ----- ----<br>---- --- --- ----- --- ---- ---- ------- ----- ---- -------<br>--- --- -- ----- -- --- ---- -- --- ---- -- ------ ------<br>--- close -- ----,178688,178677,177966.88,177967,177972.98,178695.34,,53,close
screen,html.Screen,2_1_0_1_54,2022-02-17T14:36:52.367Z,,,,,,,,,,,,,,,,,53,,,,,,,,,,,,,,387.6600000000035,,response,,,,99,,,,,,,Space,keypress(Space),,,,,,,,---- -- ----- -- ------ - ------- --- ----------<br>------------- ------ ------ ---- ---- ------- ----- -- ----<br>-------- ------- -- ---------- --- - --- ----- ----- ----<br>---- --- --- ----- --- ---- ---- ------- ----- ---- -------<br>--- --- -- ----- -- --- ---- -- --- ---- -- ------ ------<br>--- ----- at ----,179090,179083,178688.48,178688,178695.34,179091.24,,54,at
screen,html.Screen,2_1_0_1_55,2022-02-17T14:36:53.826Z,,,,,,,,,,,,,,,,,53,,,,,,,,,,,,,,1444.7600000000093,,response,,,,99,,,,,,,Space,keypress(Space),,,,,,,,---- -- ----- -- ------ - ------- --- ----------<br>------------- ------ ------ ---- ---- ------- ----- -- ----<br>-------- ------- -- ---------- --- - --- ----- ----- ----<br>---- --- --- ----- --- ---- ---- ------- ----- ---- -------<br>--- --- -- ----- -- --- ---- -- --- ---- -- ------ ------<br>--- ----- -- all.,180549,180536,179090.38,179090,179091.24,180549.86,,55,all.
Item 99,flow.Loop,2_1_0_1,2022-02-17T14:36:53.827Z,,,,,,,,,,,,,,,,,,,,,,,,,,,,,,,32708.78,,completion,,,,,E,,,,,,,,,,,silence,,,,,180549,180536,147820.26,147821,147827.22,180549.86,,,
Question 1,html.Screen,2_1_0_2,2022-02-17T14:37:03.203Z,,,,,,,,,,,,,,,,,,,,,,,,,,,,true,FALSE,,9362.140000000014,,response,,,,99,E,,,,,,FALSE,click #choice-2,,,,silence,,,,,189925,189912,180549.5,180549,180549.86,189926.62,,,
Question 2,html.Screen,2_1_0_3,2022-02-17T14:37:08.166Z,,,,,,,,,,,,,,,,,,,,,,,,,,,,true,TRUE,,4954.380000000005,,response,,,,99,E,,,,,,TRUE,click #choice-1,,,,silence,,,,,194889,194881,189924.64,189925,189926.62,194892.82,,,
Item 99,flow.Sequence,2_1_0,2022-02-17T14:37:08.167Z,,,,,,,,,,,,,,,,,,,,,,,,,,,,,,,57055.66,,completion,,,,,,,,,,,,,,,,,,,,,194889,194881,137818.74,137820,137825.34,194892.82,,,
Holding screen,html.Screen,2_1_1_0,2022-02-17T14:37:18.167Z,,,,,,,,,,,,,,,,,,,,,,,,,,,,,,,10001.880000000005,,timeout,,,,,,,,,,,,,,,,,,,,,204889,204887.76,194888.44,194889,194892.82,204894.7,,,
screen,html.Screen,2_1_1_1_0,2022-02-17T14:37:21.150Z,,,,,,,,,,,,,,,,,54,,,,,,,,,,,,,,2969.2999999999884,,response,,,,100,,,,,,,Space,keypress(Space),,,,,,,,At --- ---- --- ------ ----- ------- ---- -- --- ------- --<br>------- ---------- ------ -- ----- -- ----- -- ---- ------<br>--- ----- --- --- ------ -------- ----- --- ------ ----- --<br>----- ----- ---------- --- --- ------ ------ ---- -- ------<br>------- --- ------ ----- --- ---- ------- -- ---- --- --<br>------- ------,207873,207864,204887.76,204889,204894.7,207874.42,,0,At
screen,html.Screen,2_1_1_1_1,2022-02-17T14:37:21.749Z,,,,,,,,,,,,,,,,,54,,,,,,,,,,,,,,583.5799999999872,,response,,,,100,,,,,,,Space,keypress(Space),,,,,,,,-- the ---- --- ------ ----- ------- ---- -- --- ------- --<br>------- ---------- ------ -- ----- -- ----- -- ---- ------<br>--- ----- --- --- ------ -------- ----- --- ------ ----- --<br>----- ----- ---------- --- --- ------ ------ ---- -- ------<br>------- --- ------ ----- --- ---- ------- -- ---- --- --<br>------- ------,208472,208458,207872.88,207873,207874.42,208471.76,,1,the
screen,html.Screen,2_1_1_1_2,2022-02-17T14:37:22.060Z,,,,,,,,,,,,,,,,,54,,,,,,,,,,,,,,300.2399999999907,,response,,,,100,,,,,,,Space,keypress(Space),,,,,,,,-- --- time --- ------ ----- ------- ---- -- --- ------- --<br>------- ---------- ------ -- ----- -- ----- -- ---- ------<br>--- ----- --- --- ------ -------- ----- --- ------ ----- --<br>----- ----- ---------- --- --- ------ ------ ---- -- ------<br>------- --- ------ ----- --- ---- ------- -- ---- --- --<br>------- ------,208782,208772,208471.7,208472,208471.76,208784.32,,2,time
screen,html.Screen,2_1_1_1_3,2022-02-17T14:37:22.459Z,,,,,,,,,,,,,,,,,54,,,,,,,,,,,,,,393.679999999993,,response,,,,100,,,,,,,Space,keypress(Space),,,,,,,,-- --- ---- the ------ ----- ------- ---- -- --- ------- --<br>------- ---------- ------ -- ----- -- ----- -- ---- ------<br>--- ----- --- --- ------ -------- ----- --- ------ ----- --<br>----- ----- ---------- --- --- ------ ------ ---- -- ------<br>------- --- ------ ----- --- ---- ------- -- ---- --- --<br>------- ------,209181,209178,208782.46,208782,208784.32,209187.16,,3,the
screen,html.Screen,2_1_1_1_4,2022-02-17T14:37:23.002Z,,,,,,,,,,,,,,,,,54,,,,,,,,,,,,,,520.8399999999965,,response,,,,100,,,,,,,Space,keypress(Space),,,,,,,,-- --- ---- --- French ----- ------- ---- -- --- ------- --<br>------- ---------- ------ -- ----- -- ----- -- ---- ------<br>--- ----- --- --- ------ -------- ----- --- ------ ----- --<br>----- ----- ---------- --- --- ------ ------ ---- -- ------<br>------- --- ------ ----- --- ---- ------- -- ---- --- --<br>------- ------,209725,209708,209181.34,209181,209187.16,209728.94,,4,French
screen,html.Screen,2_1_1_1_5,2022-02-17T14:37:23.690Z,,,,,,,,,,,,,,,,,54,,,,,,,,,,,,,,667.0599999999977,,response,,,,100,,,,,,,Space,keypress(Space),,,,,,,,-- --- ---- --- ------ crown ------- ---- -- --- ------- --<br>------- ---------- ------ -- ----- -- ----- -- ---- ------<br>--- ----- --- --- ------ -------- ----- --- ------ ----- --<br>----- ----- ---------- --- --- ------ ------ ---- -- ------<br>------- --- ------ ----- --- ---- ------- -- ---- --- --<br>------- ------,210412,210396,209724.9,209725,209728.94,210416.56,,5,crown
screen,html.Screen,2_1_1_1_6,2022-02-17T14:37:24.394Z,,,,,,,,,,,,,,,,,54,,,,,,,,,,,,,,698.4400000000023,,response,,,,100,,,,,,,Space,keypress(Space),,,,,,,,-- --- ---- --- ------ ----- secured ---- -- --- ------- --<br>------- ---------- ------ -- ----- -- ----- -- ---- ------<br>--- ----- --- --- ------ -------- ----- --- ------ ----- --<br>----- ----- ---------- --- --- ------ ------ ---- -- ------<br>------- --- ------ ----- --- ---- ------- -- ---- --- --<br>------- ------,211117,211115,210411.64,210412,210416.56,211118.08,,6,secured
screen,html.Screen,2_1_1_1_7,2022-02-17T14:37:24.985Z,,,,,,,,,,,,,,,,,54,,,,,,,,,,,,,,574.9200000000128,,response,,,,100,,,,,,,Space,keypress(Space),,,,,,,,-- --- ---- --- ------ ----- ------- much -- --- ------- --<br>------- ---------- ------ -- ----- -- ----- -- ---- ------<br>--- ----- --- --- ------ -------- ----- --- ------ ----- --<br>----- ----- ---------- --- --- ------ ------ ---- -- ------<br>------- --- ------ ----- --- ---- ------- -- ---- --- --<br>------- ------,211708,211693,211117.38,211117,211118.08,211708.48,,7,much
screen,html.Screen,2_1_1_1_8,2022-02-17T14:37:25.389Z,,,,,,,,,,,,,,,,,54,,,,,,,,,,,,,,391.5199999999895,,response,,,,100,,,,,,,Space,keypress(Space),,,,,,,,-- --- ---- --- ------ ----- ------- ---- of --- ------- --<br>------- ---------- ------ -- ----- -- ----- -- ---- ------<br>--- ----- --- --- ------ -------- ----- --- ------ ----- --<br>----- ----- ---------- --- --- ------ ------ ---- -- ------<br>------- --- ------ ----- --- ---- ------- -- ---- --- --<br>------- ------,212112,212100,211708.16,211708,211708.48,212118.28,,8,of
screen,html.Screen,2_1_1_1_9,2022-02-17T14:37:25.781Z,,,,,,,,,,,,,,,,,54,,,,,,,,,,,,,,370.72000000000116,,response,,,,100,,,,,,,Space,keypress(Space),,,,,,,,-- --- ---- --- ------ ----- ------- ---- -- its ------- --<br>------- ---------- ------ -- ----- -- ----- -- ---- ------<br>--- ----- --- --- ------ -------- ----- --- ------ ----- --<br>----- ----- ---------- --- --- ------ ------ ---- -- ------<br>------- --- ------ ----- --- ---- ------- -- ---- --- --<br>------- ------,212504,212489,212112.32,212112,212118.28,212507.24,,9,its
screen,html.Screen,2_1_1_1_10,2022-02-17T14:37:26.555Z,,,,,,,,,,,,,,,,,54,,,,,,,,,,,,,,764.7600000000093,,response,,,,100,,,,,,,Space,keypress(Space),,,,,,,,-- --- ---- --- ------ ----- ------- ---- -- --- revenue --<br>------- ---------- ------ -- ----- -- ----- -- ---- ------<br>--- ----- --- --- ------ -------- ----- --- ------ ----- --<br>----- ----- ---------- --- --- ------ ------ ---- -- ------<br>------- --- ------ ----- --- ---- ------- -- ---- --- --<br>------- ------,213278,213272,212503.76,212504,212507.24,213279.44,,10,revenue
screen,html.Screen,2_1_1_1_11,2022-02-17T14:37:27.201Z,,,,,,,,,,,,,,,,,54,,,,,,,,,,,,,,631.5599999999977,,response,,,,100,,,,,,,Space,keypress(Space),,,,,,,,-- --- ---- --- ------ ----- ------- ---- -- --- ------- by<br>------- ---------- ------ -- ----- -- ----- -- ---- ------<br>--- ----- --- --- ------ -------- ----- --- ------ ----- --<br>----- ----- ---------- --- --- ------ ------ ---- -- ------<br>------- --- ------ ----- --- ---- ------- -- ---- --- --<br>------- ------,213923,213911,213277.84,213278,213279.44,213925.4,,11,by
screen,html.Screen,2_1_1_1_12,2022-02-17T14:37:27.903Z,,,,,,,,,,,,,,,,,54,,,,,,,,,,,,,,689.6000000000058,,response,,,,100,,,,,,,Space,keypress(Space),,,,,,,,-- --- ---- --- ------ ----- ------- ---- -- --- ------- --<br>issuing ---------- ------ -- ----- -- ----- -- ---- ------<br>--- ----- --- --- ------ -------- ----- --- ------ ----- --<br>----- ----- ---------- --- --- ------ ------ ---- -- ------<br>------- --- ------ ----- --- ---- ------- -- ---- --- --<br>------- ------,214626,214615,213923.44,213923,213925.4,214626.92,,12,issuing
screen,html.Screen,2_1_1_1_13,2022-02-17T14:37:28.492Z,,,,,,,,,,,,,,,,,54,,,,,,,,,,,,,,582.0799999999872,,response,,,,100,,,,,,,Space,keypress(Space),,,,,,,,-- --- ---- --- ------ ----- ------- ---- -- --- ------- --<br>------- government ------ -- ----- -- ----- -- ---- ------<br>--- ----- --- --- ------ -------- ----- --- ------ ----- --<br>----- ----- ---------- --- --- ------ ------ ---- -- ------<br>------- --- ------ ----- --- ---- ------- -- ---- --- --<br>------- ------,215215,215209,214625.74,214626,214626.92,215217.32,,13,government
screen,html.Screen,2_1_1_1_14,2022-02-17T14:37:29.280Z,,,,,,,,,,,,,,,,,54,,,,,,,,,,,,,,771.679999999993,,response,,,,100,,,,,,,Space,keypress(Space),,,,,,,,-- --- ---- --- ------ ----- ------- ---- -- --- ------- --<br>------- ---------- bonds. -- ----- -- ----- -- ---- ------<br>--- ----- --- --- ------ -------- ----- --- ------ ----- --<br>----- ----- ---------- --- --- ------ ------ ---- -- ------<br>------- --- ------ ----- --- ---- ------- -- ---- --- --<br>------- ------,216003,215989,215215.26,215215,215217.32,216002.18,,14,bonds.
screen,html.Screen,2_1_1_1_15,2022-02-17T14:37:30.219Z,,,,,,,,,,,,,,,,,54,,,,,,,,,,,,,,925.820000000007,,response,,,,100,,,,,,,Space,keypress(Space),,,,,,,,-- --- ---- --- ------ ----- ------- ---- -- --- ------- --<br>------- ---------- ------ In ----- -- ----- -- ---- ------<br>--- ----- --- --- ------ -------- ----- --- ------ ----- --<br>----- ----- ---------- --- --- ------ ------ ---- -- ------<br>------- --- ------ ----- --- ---- ------- -- ---- --- --<br>------- ------,216942,216928,216002.16,216003,216002.18,216946.8,,15,In
screen,html.Screen,2_1_1_1_16,2022-02-17T14:37:31.386Z,,,,,,,,,,,,,,,,,54,,,,,,,,,,,,,,1153.2000000000116,,response,,,,100,,,,,,,Space,keypress(Space),,,,,,,,"-- --- ---- --- ------ ----- ------- ---- -- --- ------- --<br>------- ---------- ------ -- 1727, -- ----- -- ---- ------<br>--- ----- --- --- ------ -------- ----- --- ------ ----- --<br>----- ----- ---------- --- --- ------ ------ ---- -- ------<br>------- --- ------ ----- --- ---- ------- -- ---- --- --<br>------- ------",218109,218100,216941.58,216942,216946.8,218113.68,,16,"1727,"
screen,html.Screen,2_1_1_1_17,2022-02-17T14:37:32.076Z,,,,,,,,,,,,,,,,,54,,,,,,,,,,,,,,672.320000000007,,response,,,,100,,,,,,,Space,keypress(Space),,,,,,,,-- --- ---- --- ------ ----- ------- ---- -- --- ------- --<br>------- ---------- ------ -- ----- in ----- -- ---- ------<br>--- ----- --- --- ------ -------- ----- --- ------ ----- --<br>----- ----- ---------- --- --- ------ ------ ---- -- ------<br>------- --- ------ ----- --- ---- ------- -- ---- --- --<br>------- ------,218799,218786,218109,218109,218113.68,218801.32,,17,in
screen,html.Screen,2_1_1_1_18,2022-02-17T14:37:32.589Z,,,,,,,,,,,,,,,,,54,,,,,,,,,,,,,,501.679999999993,,response,,,,100,,,,,,,Space,keypress(Space),,,,,,,,-- --- ---- --- ------ ----- ------- ---- -- --- ------- --<br>------- ---------- ------ -- ----- -- order -- ---- ------<br>--- ----- --- --- ------ -------- ----- --- ------ ----- --<br>----- ----- ---------- --- --- ------ ------ ---- -- ------<br>------- --- ------ ----- --- ---- ------- -- ---- --- --<br>------- ------,219311,219303,218799.16,218799,218801.32,219315.3,,18,order
screen,html.Screen,2_1_1_1_19,2022-02-17T14:37:33.357Z,,,,,,,,,,,,,,,,,54,,,,,,,,,,,,,,751.7000000000116,,response,,,,100,,,,,,,Space,keypress(Space),,,,,,,,-- --- ---- --- ------ ----- ------- ---- -- --- ------- --<br>------- ---------- ------ -- ----- -- ----- to ---- ------<br>--- ----- --- --- ------ -------- ----- --- ------ ----- --<br>----- ----- ---------- --- --- ------ ------ ---- -- ------<br>------- --- ------ ----- --- ---- ------- -- ---- --- --<br>------- ------,220080,220067,219311.3,219312,219315.3,220086.28,,19,to
screen,html.Screen,2_1_1_1_20,2022-02-17T14:37:34.330Z,,,,,,,,,,,,,,,,,54,,,,,,,,,,,,,,950.7200000000012,,response,,,,100,,,,,,,Space,keypress(Space),,,,,,,,-- --- ---- --- ------ ----- ------- ---- -- --- ------- --<br>------- ---------- ------ -- ----- -- ----- -- save ------<br>--- ----- --- --- ------ -------- ----- --- ------ ----- --<br>----- ----- ---------- --- --- ------ ------ ---- -- ------<br>------- --- ------ ----- --- ---- ------- -- ---- --- --<br>------- ------,221052,221037,220079.6,220080,220086.28,221058.68,,20,save
screen,html.Screen,2_1_1_1_21,2022-02-17T14:37:35.251Z,,,,,,,,,,,,,,,,,54,,,,,,,,,,,,,,899.320000000007,,response,,,,100,,,,,,,Space,keypress(Space),,,,,,,,"-- --- ---- --- ------ ----- ------- ---- -- --- ------- --<br>------- ---------- ------ -- ----- -- ----- -- ---- money,<br>--- ----- --- --- ------ -------- ----- --- ------ ----- --<br>----- ----- ---------- --- --- ------ ------ ---- -- ------<br>------- --- ------ ----- --- ---- ------- -- ---- --- --<br>------- ------",221974,221958,221052.62,221053,221058.68,221975.52,,21,"money,"
screen,html.Screen,2_1_1_1_22,2022-02-17T14:37:35.757Z,,,,,,,,,,,,,,,,,54,,,,,,,,,,,,,,499.4800000000105,,response,,,,100,,,,,,,Space,keypress(Space),,,,,,,,-- --- ---- --- ------ ----- ------- ---- -- --- ------- --<br>------- ---------- ------ -- ----- -- ----- -- ---- ------<br>the ----- --- --- ------ -------- ----- --- ------ ----- --<br>----- ----- ---------- --- --- ------ ------ ---- -- ------<br>------- --- ------ ----- --- ---- ------- -- ---- --- --<br>------- ------,222479,222475,221973.62,221974,221975.52,222482.56,,22,the
screen,html.Screen,2_1_1_1_23,2022-02-17T14:37:36.531Z,,,,,,,,,,,,,,,,,54,,,,,,,,,,,,,,757.4400000000023,,response,,,,100,,,,,,,Space,keypress(Space),,,,,,,,-- --- ---- --- ------ ----- ------- ---- -- --- ------- --<br>------- ---------- ------ -- ----- -- ----- -- ---- ------<br>--- state --- --- ------ -------- ----- --- ------ ----- --<br>----- ----- ---------- --- --- ------ ------ ---- -- ------<br>------- --- ------ ----- --- ---- ------- -- ---- --- --<br>------- ------,223254,223240,222479.58,222479,222482.56,223260.48,,23,state
screen,html.Screen,2_1_1_1_24,2022-02-17T14:37:36.987Z,,,,,,,,,,,,,,,,,54,,,,,,,,,,,,,,432.5199999999895,,response,,,,100,,,,,,,Space,keypress(Space),,,,,,,,-- --- ---- --- ------ ----- ------- ---- -- --- ------- --<br>------- ---------- ------ -- ----- -- ----- -- ---- ------<br>--- ----- cut --- ------ -------- ----- --- ------ ----- --<br>----- ----- ---------- --- --- ------ ------ ---- -- ------<br>------- --- ------ ----- --- ---- ------- -- ---- --- --<br>------- ------,223708,223693,223254.26,223254,223260.48,223711.96,,24,cut
screen,html.Screen,2_1_1_1_25,2022-02-17T14:37:37.450Z,,,,,,,,,,,,,,,,,54,,,,,,,,,,,,,,450.04000000000815,,response,,,,100,,,,,,,Space,keypress(Space),,,,,,,,-- --- ---- --- ------ ----- ------- ---- -- --- ------- --<br>------- ---------- ------ -- ----- -- ----- -- ---- ------<br>--- ----- --- the ------ -------- ----- --- ------ ----- --<br>----- ----- ---------- --- --- ------ ------ ---- -- ------<br>------- --- ------ ----- --- ---- ------- -- ---- --- --<br>------- ------,224172,224162,223708.72,223709,223711.96,224177.32,,25,the
screen,html.Screen,2_1_1_1_26,2022-02-17T14:37:38.050Z,,,,,,,,,,,,,,,,,54,,,,,,,,,,,,,,578.679999999993,,response,,,,100,,,,,,,Space,keypress(Space),,,,,,,,-- --- ---- --- ------ ----- ------- ---- -- --- ------- --<br>------- ---------- ------ -- ----- -- ----- -- ---- ------<br>--- ----- --- --- bonds' -------- ----- --- ------ ----- --<br>----- ----- ---------- --- --- ------ ------ ---- -- ------<br>------- --- ------ ----- --- ---- ------- -- ---- --- --<br>------- ------,224772,224756,224171.8,224172,224177.32,224774.66,,26,bonds'
screen,html.Screen,2_1_1_1_27,2022-02-17T14:37:38.517Z,,,,,,,,,,,,,,,,,54,,,,,,,,,,,,,,449.3399999999965,,response,,,,100,,,,,,,Space,keypress(Space),,,,,,,,-- --- ---- --- ------ ----- ------- ---- -- --- ------- --<br>------- ---------- ------ -- ----- -- ----- -- ---- ------<br>--- ----- --- --- ------ interest ----- --- ------ ----- --<br>----- ----- ---------- --- --- ------ ------ ---- -- ------<br>------- --- ------ ----- --- ---- ------- -- ---- --- --<br>------- ------,225239,225224,224771.82,224772,224774.66,225240.02,,27,interest
screen,html.Screen,2_1_1_1_28,2022-02-17T14:37:39.380Z,,,,,,,,,,,,,,,,,54,,,,,,,,,,,,,,858.9800000000105,,response,,,,100,,,,,,,Space,keypress(Space),,,,,,,,-- --- ---- --- ------ ----- ------- ---- -- --- ------- --<br>------- ---------- ------ -- ----- -- ----- -- ---- ------<br>--- ----- --- --- ------ -------- rate. --- ------ ----- --<br>----- ----- ---------- --- --- ------ ------ ---- -- ------<br>------- --- ------ ----- --- ---- ------- -- ---- --- --<br>------- ------,226103,226099,225239.22,225239,225240.02,226108.24,,28,rate.
screen,html.Screen,2_1_1_1_29,2022-02-17T14:37:39.958Z,,,,,,,,,,,,,,,,,54,,,,,,,,,,,,,,569.7600000000093,,response,,,,100,,,,,,,Space,keypress(Space),,,,,,,,-- --- ---- --- ------ ----- ------- ---- -- --- ------- --<br>------- ---------- ------ -- ----- -- ----- -- ---- ------<br>--- ----- --- --- ------ -------- ----- The ------ ----- --<br>----- ----- ---------- --- --- ------ ------ ---- -- ------<br>------- --- ------ ----- --- ---- ------- -- ---- --- --<br>------- ------,226680,226678,226103.34,226103,226108.24,226684.74,,29,The
screen,html.Screen,2_1_1_1_30,2022-02-17T14:37:40.518Z,,,,,,,,,,,,,,,,,54,,,,,,,,,,,,,,555.2600000000093,,response,,,,100,,,,,,,Space,keypress(Space),,,,,,,,-- --- ---- --- ------ ----- ------- ---- -- --- ------- --<br>------- ---------- ------ -- ----- -- ----- -- ---- ------<br>--- ----- --- --- ------ -------- ----- --- market ----- --<br>----- ----- ---------- --- --- ------ ------ ---- -- ------<br>------- --- ------ ----- --- ---- ------- -- ---- --- --<br>------- ------,227242,227240,226680.26,226680,226684.74,227247.34,,30,market
screen,html.Screen,2_1_1_1_31,2022-02-17T14:37:40.955Z,,,,,,,,,,,,,,,,,54,,,,,,,,,,,,,,413.6600000000035,,response,,,,100,,,,,,,Space,keypress(Space),,,,,,,,-- --- ---- --- ------ ----- ------- ---- -- --- ------- --<br>------- ---------- ------ -- ----- -- ----- -- ---- ------<br>--- ----- --- --- ------ -------- ----- --- ------ value --<br>----- ----- ---------- --- --- ------ ------ ---- -- ------<br>------- --- ------ ----- --- ---- ------- -- ---- --- --<br>------- ------,227677,227661,227241.26,227242,227247.34,227677.98,,31,value
screen,html.Screen,2_1_1_1_32,2022-02-17T14:37:41.513Z,,,,,,,,,,,,,,,,,54,,,,,,,,,,,,,,547.0199999999895,,response,,,,100,,,,,,,Space,keypress(Space),,,,,,,,-- --- ---- --- ------ ----- ------- ---- -- --- ------- --<br>------- ---------- ------ -- ----- -- ----- -- ---- ------<br>--- ----- --- --- ------ -------- ----- --- ------ ----- of<br>----- ----- ---------- --- --- ------ ------ ---- -- ------<br>------- --- ------ ----- --- ---- ------- -- ---- --- --<br>------- ------,228236,228225,227677.5,227677,227677.98,228240.58,,32,of
screen,html.Screen,2_1_1_1_33,2022-02-17T14:37:41.993Z,,,,,,,,,,,,,,,,,54,,,,,,,,,,,,,,467.4200000000128,,response,,,,100,,,,,,,Space,keypress(Space),,,,,,,,-- --- ---- --- ------ ----- ------- ---- -- --- ------- --<br>------- ---------- ------ -- ----- -- ----- -- ---- ------<br>--- ----- --- --- ------ -------- ----- --- ------ ----- --<br>these ----- ---------- --- --- ------ ------ ---- -- ------<br>------- --- ------ ----- --- ---- ------- -- ---- --- --<br>------- ------,228716,228708,228235.72,228236,228240.58,228719.84,,33,these
screen,html.Screen,2_1_1_1_34,2022-02-17T14:37:42.389Z,,,,,,,,,,,,,,,,,54,,,,,,,,,,,,,,379.1600000000035,,response,,,,100,,,,,,,Space,keypress(Space),,,,,,,,-- --- ---- --- ------ ----- ------- ---- -- --- ------- --<br>------- ---------- ------ -- ----- -- ----- -- ---- ------<br>--- ----- --- --- ------ -------- ----- --- ------ ----- --<br>----- bonds ---------- --- --- ------ ------ ---- -- ------<br>------- --- ------ ----- --- ---- ------- -- ---- --- --<br>------- ------,229112,229099,228716.32,228716,228719.84,229115.76,,34,bonds
screen,html.Screen,2_1_1_1_35,2022-02-17T14:37:42.909Z,,,,,,,,,,,,,,,,,54,,,,,,,,,,,,,,498.2399999999907,,response,,,,100,,,,,,,Space,keypress(Space),,,,,,,,"-- --- ---- --- ------ ----- ------- ---- -- --- ------- --<br>------- ---------- ------ -- ----- -- ----- -- ---- ------<br>--- ----- --- --- ------ -------- ----- --- ------ ----- --<br>----- ----- plummeted, --- --- ------ ------ ---- -- ------<br>------- --- ------ ----- --- ---- ------- -- ---- --- --<br>------- ------",229632,229614,229111.86,229112,229115.76,229636.68,,35,"plummeted,"
screen,html.Screen,2_1_1_1_36,2022-02-17T14:37:43.441Z,,,,,,,,,,,,,,,,,54,,,,,,,,,,,,,,524.320000000007,,response,,,,100,,,,,,,Space,keypress(Space),,,,,,,,-- --- ---- --- ------ ----- ------- ---- -- --- ------- --<br>------- ---------- ------ -- ----- -- ----- -- ---- ------<br>--- ----- --- --- ------ -------- ----- --- ------ ----- --<br>----- ----- ---------- and --- ------ ------ ---- -- ------<br>------- --- ------ ----- --- ---- ------- -- ---- --- --<br>------- ------,230163,230161,229631.52,229632,229636.68,230164.56,,36,and
screen,html.Screen,2_1_1_1_37,2022-02-17T14:37:43.905Z,,,,,,,,,,,,,,,,,54,,,,,,,,,,,,,,449.4400000000023,,response,,,,100,,,,,,,Space,keypress(Space),,,,,,,,-- --- ---- --- ------ ----- ------- ---- -- --- ------- --<br>------- ---------- ------ -- ----- -- ----- -- ---- ------<br>--- ----- --- --- ------ -------- ----- --- ------ ----- --<br>----- ----- ---------- --- the ------ ------ ---- -- ------<br>------- --- ------ ----- --- ---- ------- -- ---- --- --<br>------- ------,230628,230614,230163.38,230163,230164.56,230629.92,,37,the
screen,html.Screen,2_1_1_1_38,2022-02-17T14:37:44.343Z,,,,,,,,,,,,,,,,,54,,,,,,,,,,,,,,423.0799999999872,,response,,,,100,,,,,,,Space,keypress(Space),,,,,,,,-- --- ---- --- ------ ----- ------- ---- -- --- ------- --<br>------- ---------- ------ -- ----- -- ----- -- ---- ------<br>--- ----- --- --- ------ -------- ----- --- ------ ----- --<br>----- ----- ---------- --- --- market ------ ---- -- ------<br>------- --- ------ ----- --- ---- ------- -- ---- --- --<br>------- ------,231065,231053,230627.9,230628,230629.92,231067.5,,38,market
screen,html.Screen,2_1_1_1_39,2022-02-17T14:37:44.815Z,,,,,,,,,,,,,,,,,54,,,,,,,,,,,,,,454.5,,response,,,,100,,,,,,,Space,keypress(Space),,,,,,,,-- --- ---- --- ------ ----- ------- ---- -- --- ------- --<br>------- ---------- ------ -- ----- -- ----- -- ---- ------<br>--- ----- --- --- ------ -------- ----- --- ------ ----- --<br>----- ----- ---------- --- --- ------ became ---- -- ------<br>------- --- ------ ----- --- ---- ------- -- ---- --- --<br>------- ------,231537,231522,231065.26,231065,231067.5,231539.82,,39,became
screen,html.Screen,2_1_1_1_40,2022-02-17T14:37:45.388Z,,,,,,,,,,,,,,,,,54,,,,,,,,,,,,,,559.179999999993,,response,,,,100,,,,,,,Space,keypress(Space),,,,,,,,-- --- ---- --- ------ ----- ------- ---- -- --- ------- --<br>------- ---------- ------ -- ----- -- ----- -- ---- ------<br>--- ----- --- --- ------ -------- ----- --- ------ ----- --<br>----- ----- ---------- --- --- ------ ------ wary -- ------<br>------- --- ------ ----- --- ---- ------- -- ---- --- --<br>------- ------,232110,232099,231537.56,231538,231539.82,232116.32,,40,wary
screen,html.Screen,2_1_1_1_41,2022-02-17T14:37:45.746Z,,,,,,,,,,,,,,,,,54,,,,,,,,,,,,,,342.679999999993,,response,,,,100,,,,,,,Space,keypress(Space),,,,,,,,-- --- ---- --- ------ ----- ------- ---- -- --- ------- --<br>------- ---------- ------ -- ----- -- ----- -- ---- ------<br>--- ----- --- --- ------ -------- ----- --- ------ ----- --<br>----- ----- ---------- --- --- ------ ------ ---- of ------<br>------- --- ------ ----- --- ---- ------- -- ---- --- --<br>------- ------,232469,232459,232110.48,232110,232116.32,232470.54,,41,of
screen,html.Screen,2_1_1_1_42,2022-02-17T14:37:46.259Z,,,,,,,,,,,,,,,,,54,,,,,,,,,,,,,,503.45999999999185,,response,,,,100,,,,,,,Space,keypress(Space),,,,,,,,-- --- ---- --- ------ ----- ------- ---- -- --- ------- --<br>------- ---------- ------ -- ----- -- ----- -- ---- ------<br>--- ----- --- --- ------ -------- ----- --- ------ ----- --<br>----- ----- ---------- --- --- ------ ------ ---- -- French<br>------- --- ------ ----- --- ---- ------- -- ---- --- --<br>------- ------,232982,232974,232468.66,232469,232470.54,232984.54,,42,French
screen,html.Screen,2_1_1_1_43,2022-02-17T14:37:47.308Z,,,,,,,,,,,,,,,,,54,,,,,,,,,,,,,,1036.4599999999919,,response,,,,100,,,,,,,Space,keypress(Space),,,,,,,,-- --- ---- --- ------ ----- ------- ---- -- --- ------- --<br>------- ---------- ------ -- ----- -- ----- -- ---- ------<br>--- ----- --- --- ------ -------- ----- --- ------ ----- --<br>----- ----- ---------- --- --- ------ ------ ---- -- ------<br>credit. --- ------ ----- --- ---- ------- -- ---- --- --<br>------- ------,234031,234021,232982.04,232982,232984.54,234033.34,,43,credit.
screen,html.Screen,2_1_1_1_44,2022-02-17T14:37:47.695Z,,,,,,,,,,,,,,,,,54,,,,,,,,,,,,,,378.6600000000035,,response,,,,100,,,,,,,Space,keypress(Space),,,,,,,,-- --- ---- --- ------ ----- ------- ---- -- --- ------- --<br>------- ---------- ------ -- ----- -- ----- -- ---- ------<br>--- ----- --- --- ------ -------- ----- --- ------ ----- --<br>----- ----- ---------- --- --- ------ ------ ---- -- ------<br>------- The ------ ----- --- ---- ------- -- ---- --- --<br>------- ------,234418,234412,234030.52,234031,234033.34,234422.3,,44,The
screen,html.Screen,2_1_1_1_45,2022-02-17T14:37:48.114Z,,,,,,,,,,,,,,,,,54,,,,,,,,,,,,,,411.70000000001164,,response,,,,100,,,,,,,Space,keypress(Space),,,,,,,,-- --- ---- --- ------ ----- ------- ---- -- --- ------- --<br>------- ---------- ------ -- ----- -- ----- -- ---- ------<br>--- ----- --- --- ------ -------- ----- --- ------ ----- --<br>----- ----- ---------- --- --- ------ ------ ---- -- ------<br>------- --- French ----- --- ---- ------- -- ---- --- --<br>------- ------,234837,234834,234418.34,234418,234422.3,234839.04,,45,French
screen,html.Screen,2_1_1_1_46,2022-02-17T14:37:48.484Z,,,,,,,,,,,,,,,,,54,,,,,,,,,,,,,,353.95999999999185,,response,,,,100,,,,,,,Space,keypress(Space),,,,,,,,-- --- ---- --- ------ ----- ------- ---- -- --- ------- --<br>------- ---------- ------ -- ----- -- ----- -- ---- ------<br>--- ----- --- --- ------ -------- ----- --- ------ ----- --<br>----- ----- ---------- --- --- ------ ------ ---- -- ------<br>------- --- ------ state --- ---- ------- -- ---- --- --<br>------- ------,235207,235193,234836.62,234837,234839.04,235214.12,,46,state
screen,html.Screen,2_1_1_1_47,2022-02-17T14:37:48.850Z,,,,,,,,,,,,,,,,,54,,,,,,,,,,,,,,352.88000000000466,,response,,,,100,,,,,,,Space,keypress(Space),,,,,,,,-- --- ---- --- ------ ----- ------- ---- -- --- ------- --<br>------- ---------- ------ -- ----- -- ----- -- ---- ------<br>--- ----- --- --- ------ -------- ----- --- ------ ----- --<br>----- ----- ---------- --- --- ------ ------ ---- -- ------<br>------- --- ------ ----- was ---- ------- -- ---- --- --<br>------- ------,235573,235567,235207.4,235207,235214.12,235575.3,,47,was
screen,html.Screen,2_1_1_1_48,2022-02-17T14:37:49.229Z,,,,,,,,,,,,,,,,,54,,,,,,,,,,,,,,366.70000000001164,,response,,,,100,,,,,,,Space,keypress(Space),,,,,,,,-- --- ---- --- ------ ----- ------- ---- -- --- ------- --<br>------- ---------- ------ -- ----- -- ----- -- ---- ------<br>--- ----- --- --- ------ -------- ----- --- ------ ----- --<br>----- ----- ---------- --- --- ------ ------ ---- -- ------<br>------- --- ------ ----- --- left ------- -- ---- --- --<br>------- ------,235952,235942,235572.52,235573,235575.3,235957.32,,48,left
screen,html.Screen,2_1_1_1_49,2022-02-17T14:37:49.579Z,,,,,,,,,,,,,,,,,54,,,,,,,,,,,,,,329.679999999993,,response,,,,100,,,,,,,Space,keypress(Space),,,,,,,,-- --- ---- --- ------ ----- ------- ---- -- --- ------- --<br>------- ---------- ------ -- ----- -- ----- -- ---- ------<br>--- ----- --- --- ------ -------- ----- --- ------ ----- --<br>----- ----- ---------- --- --- ------ ------ ---- -- ------<br>------- --- ------ ----- --- ---- without -- ---- --- --<br>------- ------,236302,236287,235951.38,235952,235957.32,236304.6,,49,without
screen,html.Screen,2_1_1_1_50,2022-02-17T14:37:50.162Z,,,,,,,,,,,,,,,,,54,,,,,,,,,,,,,,575.3999999999942,,response,,,,100,,,,,,,Space,keypress(Space),,,,,,,,-- --- ---- --- ------ ----- ------- ---- -- --- ------- --<br>------- ---------- ------ -- ----- -- ----- -- ---- ------<br>--- ----- --- --- ------ -------- ----- --- ------ ----- --<br>----- ----- ---------- --- --- ------ ------ ---- -- ------<br>------- --- ------ ----- --- ---- ------- an ---- --- --<br>------- ------,236885,236880,236302.28,236302,236304.6,236888.04,,50,an
screen,html.Screen,2_1_1_1_51,2022-02-17T14:37:50.562Z,,,,,,,,,,,,,,,,,54,,,,,,,,,,,,,,383.95999999999185,,response,,,,100,,,,,,,Space,keypress(Space),,,,,,,,-- --- ---- --- ------ ----- ------- ---- -- --- ------- --<br>------- ---------- ------ -- ----- -- ----- -- ---- ------<br>--- ----- --- --- ------ -------- ----- --- ------ ----- --<br>----- ----- ---------- --- --- ------ ------ ---- -- ------<br>------- --- ------ ----- --- ---- ------- -- easy --- --<br>------- ------,237284,237272,236885.2,236885,236888.04,237290.9,,51,easy
screen,html.Screen,2_1_1_1_52,2022-02-17T14:37:50.941Z,,,,,,,,,,,,,,,,,54,,,,,,,,,,,,,,370.1000000000058,,response,,,,100,,,,,,,Space,keypress(Space),,,,,,,,-- --- ---- --- ------ ----- ------- ---- -- --- ------- --<br>------- ---------- ------ -- ----- -- ----- -- ---- ------<br>--- ----- --- --- ------ -------- ----- --- ------ ----- --<br>----- ----- ---------- --- --- ------ ------ ---- -- ------<br>------- --- ------ ----- --- ---- ------- -- ---- way --<br>------- ------,237663,237661,237284.4,237284,237290.9,237665.96,,52,way
screen,html.Screen,2_1_1_1_53,2022-02-17T14:37:51.326Z,,,,,,,,,,,,,,,,,54,,,,,,,,,,,,,,371.04000000000815,,response,,,,100,,,,,,,Space,keypress(Space),,,,,,,,-- --- ---- --- ------ ----- ------- ---- -- --- ------- --<br>------- ---------- ------ -- ----- -- ----- -- ---- ------<br>--- ----- --- --- ------ -------- ----- --- ------ ----- --<br>----- ----- ---------- --- --- ------ ------ ---- -- ------<br>------- --- ------ ----- --- ---- ------- -- ---- --- of<br>------- ------,238049,238037,237663.32,237663,237665.96,238054.92,,53,of
screen,html.Screen,2_1_1_1_54,2022-02-17T14:37:51.725Z,,,,,,,,,,,,,,,,,54,,,,,,,,,,,,,,388.0799999999872,,response,,,,100,,,,,,,Space,keypress(Space),,,,,,,,-- --- ---- --- ------ ----- ------- ---- -- --- ------- --<br>------- ---------- ------ -- ----- -- ----- -- ---- ------<br>--- ----- --- --- ------ -------- ----- --- ------ ----- --<br>----- ----- ---------- --- --- ------ ------ ---- -- ------<br>------- --- ------ ----- --- ---- ------- -- ---- --- --<br>raising ------,238447,238443,238048.26,238049,238054.92,238450.84,,54,raising
screen,html.Screen,2_1_1_1_55,2022-02-17T14:37:52.432Z,,,,,,,,,,,,,,,,,54,,,,,,,,,,,,,,695.1600000000035,,response,,,,100,,,,,,,Space,keypress(Space),,,,,,,,-- --- ---- --- ------ ----- ------- ---- -- --- ------- --<br>------- ---------- ------ -- ----- -- ----- -- ---- ------<br>--- ----- --- --- ------ -------- ----- --- ------ ----- --<br>----- ----- ---------- --- --- ------ ------ ---- -- ------<br>------- --- ------ ----- --- ---- ------- -- ---- --- --<br>------- money.,239154,239146,238447.54,238447,238450.84,239159.3,,55,money.
Item 100,flow.Loop,2_1_1_1,2022-02-17T14:37:52.432Z,,,,,,,,,,,,,,,,,,,,,,,,,,,,,,,34251.29999999999,,completion,,,,,E,,,,,,,,,,,silence,,,,,239154,239146,204887.76,204889,204894.7,239159.3,,,
Question 1,html.Screen,2_1_1_2,2022-02-17T14:37:55.190Z,,,,,,,,,,,,,,,,,,,,,,,,,,,,true,TRUE,,2736.7000000000116,,response,,,,100,E,,,,,,TRUE,click #choice-1,,,,silence,,,,,241913,241896,239154.38,239154,239159.3,241916.76,,,
Question 2,html.Screen,2_1_1_3,2022-02-17T14:37:58.303Z,,,,,,,,,,,,,,,,,,,,,,,,,,,,true,FALSE,,3105.2399999999907,,response,,,,100,E,,,,,,FALSE,click #choice-2,,,,silence,,,,,245025,245022,241911.9,241913,241916.76,245028.46,,,
Item 100,flow.Sequence,2_1_1,2022-02-17T14:37:58.303Z,,,,,,,,,,,,,,,,,,,,,,,,,,,,,,,50129.17999999999,,completion,,,,,,,,,,,,,,,,,,,,,245025,245022,194888.44,194889,194892.82,245028.46,,,
End of Practice,html.Page,2_1_2,2022-02-17T14:38:14.686Z,,,,,,,,,,,,,,,,,,,,,,,,,,,,,,,16380.540000000008,,form submission,,,,,,,,,,,,,,,,,,,,,261409,261409,245024.92,245025,245028.46,261407.62,,,
Practice,flow.Sequence,2_1,2022-02-17T14:38:14.687Z,,,,,,,,,,,,,,,,,,,,,,,,,,,,,,,123583.66,,completion,,,,,,,,,,,,,,,,,,,,,261409,261409,137818.74,137820,137825.34,261407.62,,,
Trap_instruction,html.Page,2_2_0,2022-02-17T14:38:18.987Z,,,,,,,,,,,,,,,,,,,,,,,,,,,,,,,4301.380000000005,,form submission,,,,,,,,,,,,,,,,,,,,,265709,265709,261407.42,261409,261407.62,265713.98,,,
trap_trial,html.Screen,2_2_1,2022-02-17T14:38:21.619Z,,,,,,,,,,,,,,,,,,,,,,,,,,,,true,1,,2620.0200000000186,,response,,,,,,,,,,,1,click #choice-1,,,,,,,,,268341,268334,265707.78,265709,265713.98,268346.42,,,
end of trap trial,html.Page,2_2_2,2022-02-17T14:38:23.179Z,,,,,,,,,,,,,,,,,,,,,,,,,,,,,,,1555.5800000000163,,form submission,,,,,,,,,,,,,,,,,,,,,269902,269902,268341.08,268341,268346.42,269902.28,,,
Trap 1,flow.Sequence,2_2,2022-02-17T14:38:23.179Z,,,,,,,,,,,,,,,,,,,,,,,,,,,,,,,8494.380000000005,,completion,,,,,,,,,,,,,,,,,,,,,269902,269902,261407.42,261409,261407.62,269902.28,,,
Standby,html.Page,2_3_0,2022-02-17T14:38:31.175Z,,,,,,,,,,,,,,,,,,,,,,,,,,,,,,,8001.5,,timeout,,,,,,,,,,,,,,,,,,,,,277898,277896.82,269900.86,269902,269902.28,277903.78,,,
Holding screen,html.Screen,2_3_1_0_0,2022-02-17T14:38:38.177Z,,,,,,,,,,,,,,,,,,,,,,,,,,,,,,,7001.299999999988,,timeout,,,,,,,,,,,,,,,,,,,,,284900,284898.14,277896.82,277898,277903.78,284905.08,,,
screen,html.Screen,2_3_1_0_1_0,2022-02-17T14:38:39.682Z,,,,,,,,,,,,,,,,,11,,,,,,,,,,,,,,1491.9199999999837,,response,,,,4,E,,,,,,Space,keypress(Space),,,,lyrical,,,,Known -- ---- --- -- --- -------- ------------ ---------- --<br>- ------- ------ --------- -- ------------ -- --- ---- -----<br>------ ---- ---- ------ ------ ------- --- ----- ---------<br>---- --- -------- -------- --- --- -- ------- --- --- -----<br>-- --- ------ ------- --- --- -------- ---- --------- --<br>---------- -- -------- ----------------,286405,286397,284898.14,284900,284905.08,286405.36,,0,Known
screen,html.Screen,2_3_1_0_1_1,2022-02-17T14:38:40.163Z,,,,,,,,,,,,,,,,,11,,,,,,,,,,,,,,475.64000000001397,,response,,,,4,E,,,,,,Space,keypress(Space),,,,lyrical,,,,----- as ---- --- -- --- -------- ------------ ---------- --<br>- ------- ------ --------- -- ------------ -- --- ---- -----<br>------ ---- ---- ------ ------ ------- --- ----- ---------<br>---- --- -------- -------- --- --- -- ------- --- --- -----<br>-- --- ------ ------- --- --- -------- ---- --------- --<br>---------- -- -------- ----------------,286886,286881,286404.88,286405,286405.36,286891.56,,1,as
screen,html.Screen,2_3_1_0_1_2,2022-02-17T14:38:41.682Z,,,,,,,,,,,,,,,,,11,,,,,,,,,,,,,,1505.4400000000023,,response,,,,4,E,,,,,,Space,keypress(Space),,,,lyrical,,,,----- -- Rapa --- -- --- -------- ------------ ---------- --<br>- ------- ------ --------- -- ------------ -- --- ---- -----<br>------ ---- ---- ------ ------ ------- --- ----- ---------<br>---- --- -------- -------- --- --- -- ------- --- --- -----<br>-- --- ------ ------- --- --- -------- ---- --------- --<br>---------- -- -------- ----------------,288404,288397,286886.34,286886,286891.56,288405.74,,2,Rapa
screen,html.Screen,2_3_1_0_1_3,2022-02-17T14:38:42.367Z,,,,,,,,,,,,,,,,,11,,,,,,,,,,,,,,678.2600000000093,,response,,,,4,E,,,,,,Space,keypress(Space),,,,lyrical,,,,----- -- ---- Nui -- --- -------- ------------ ---------- --<br>- ------- ------ --------- -- ------------ -- --- ---- -----<br>------ ---- ---- ------ ------ ------- --- ----- ---------<br>---- --- -------- -------- --- --- -- ------- --- --- -----<br>-- --- ------ ------- --- --- -------- ---- --------- --<br>---------- -- -------- ----------------,289089,289084,288404.22,288404,288405.74,289093.36,,3,Nui
screen,html.Screen,2_3_1_0_1_4,2022-02-17T14:38:43.106Z,,,,,,,,,,,,,,,,,11,,,,,,,,,,,,,,724.640000000014,,response,,,,4,E,,,,,,Space,keypress(Space),,,,lyrical,,,,----- -- ---- --- to --- -------- ------------ ---------- --<br>- ------- ------ --------- -- ------------ -- --- ---- -----<br>------ ---- ---- ------ ------ ------- --- ----- ---------<br>---- --- -------- -------- --- --- -- ------- --- --- -----<br>-- --- ------ ------- --- --- -------- ---- --------- --<br>---------- -- -------- ----------------,289829,289818,289089.18,289090,289093.36,289829.62,,4,to
screen,html.Screen,2_3_1_0_1_5,2022-02-17T14:38:43.412Z,,,,,,,,,,,,,,,,,11,,,,,,,,,,,,,,300.38000000000466,,response,,,,4,E,,,,,,Space,keypress(Space),,,,lyrical,,,,----- -- ---- --- -- the -------- ------------ ---------- --<br>- ------- ------ --------- -- ------------ -- --- ---- -----<br>------ ---- ---- ------ ------ ------- --- ----- ---------<br>---- --- -------- -------- --- --- -- ------- --- --- -----<br>-- --- ------ ------- --- --- -------- ---- --------- --<br>---------- -- -------- ----------------,290134,290130,289828.82,289829,289829.62,290135.24,,5,the
screen,html.Screen,2_3_1_0_1_6,2022-02-17T14:38:43.920Z,,,,,,,,,,,,,,,,,11,,,,,,,,,,,,,,495.7600000000093,,response,,,,4,E,,,,,,Space,keypress(Space),,,,lyrical,,,,----- -- ---- --- -- --- island's ------------ ---------- --<br>- ------- ------ --------- -- ------------ -- --- ---- -----<br>------ ---- ---- ------ ------ ------- --- ----- ---------<br>---- --- -------- -------- --- --- -- ------- --- --- -----<br>-- --- ------ ------- --- --- -------- ---- --------- --<br>---------- -- -------- ----------------,290643,290631,290134.42,290134,290135.24,290649.22,,6,island's
screen,html.Screen,2_3_1_0_1_7,2022-02-17T14:38:44.534Z,,,,,,,,,,,,,,,,,11,,,,,,,,,,,,,,589.7800000000279,,response,,,,4,E,,,,,,Space,keypress(Space),,,,lyrical,,,,"----- -- ---- --- -- --- -------- inhabitants, ---------- --<br>- ------- ------ --------- -- ------------ -- --- ---- -----<br>------ ---- ---- ------ ------ ------- --- ----- ---------<br>---- --- -------- -------- --- --- -- ------- --- --- -----<br>-- --- ------ ------- --- --- -------- ---- --------- --<br>---------- -- -------- ----------------",291256,291239,290643.48,290643,290649.22,291260.44,,7,"inhabitants,"
screen,html.Screen,2_3_1_0_1_8,2022-02-17T14:38:46.017Z,,,,,,,,,,,,,,,,,11,,,,,,,,,,,,,,1464.5599999999977,,response,,,,4,E,,,,,,Space,keypress(Space),,,,lyrical,,,,----- -- ---- --- -- --- -------- ------------ Rongorongo --<br>- ------- ------ --------- -- ------------ -- --- ---- -----<br>------ ---- ---- ------ ------ ------- --- ----- ---------<br>---- --- -------- -------- --- --- -- ------- --- --- -----<br>-- --- ------ ------- --- --- -------- ---- --------- --<br>---------- -- -------- ----------------,292740,292725,291255.68,291256,291260.44,292741.28,,8,Rongorongo
screen,html.Screen,2_3_1_0_1_9,2022-02-17T14:38:46.426Z,,,,,,,,,,,,,,,,,11,,,,,,,,,,,,,,405.71999999997206,,response,,,,4,E,,,,,,Space,keypress(Space),,,,lyrical,,,,----- -- ---- --- -- --- -------- ------------ ---------- is<br>- ------- ------ --------- -- ------------ -- --- ---- -----<br>------ ---- ---- ------ ------ ------- --- ----- ---------<br>---- --- -------- -------- --- --- -- ------- --- --- -----<br>-- --- ------ ------- --- --- -------- ---- --------- --<br>---------- -- -------- ----------------,293148,293147,292740.08,292740,292741.28,293151.08,,9,is
screen,html.Screen,2_3_1_0_1_10,2022-02-17T14:38:47.076Z,,,,,,,,,,,,,,,,,11,,,,,,,,,,,,,,634.9199999999837,,response,,,,4,E,,,,,,Space,keypress(Space),,,,lyrical,,,,----- -- ---- --- -- --- -------- ------------ ---------- --<br>a ------- ------ --------- -- ------------ -- --- ---- -----<br>------ ---- ---- ------ ------ ------- --- ----- ---------<br>---- --- -------- -------- --- --- -- ------- --- --- -----<br>-- --- ------ ------- --- --- -------- ---- --------- --<br>---------- -- -------- ----------------,293800,293786,293148.58,293148,293151.08,293803.98,,10,a
screen,html.Screen,2_3_1_0_1_11,2022-02-17T14:38:47.890Z,,,,,,,,,,,,,,,,,11,,,,,,,,,,,,,,796.0200000000186,,response,,,,4,E,,,,,,Space,keypress(Space),,,,lyrical,,,,----- -- ---- --- -- --- -------- ------------ ---------- --<br>- writing ------ --------- -- ------------ -- --- ---- -----<br>------ ---- ---- ------ ------ ------- --- ----- ---------<br>---- --- -------- -------- --- --- -- ------- --- --- -----<br>-- --- ------ ------- --- --- -------- ---- --------- --<br>---------- -- -------- ----------------,294612,294600,293799.28,293800,293803.98,294616.62,,11,writing
screen,html.Screen,2_3_1_0_1_12,2022-02-17T14:38:48.391Z,,,,,,,,,,,,,,,,,11,,,,,,,,,,,,,,482.38000000000466,,response,,,,4,E,,,,,,Space,keypress(Space),,,,lyrical,,,,----- -- ---- --- -- --- -------- ------------ ---------- --<br>- ------- system --------- -- ------------ -- --- ---- -----<br>------ ---- ---- ------ ------ ------- --- ----- ---------<br>---- --- -------- -------- --- --- -- ------- --- --- -----<br>-- --- ------ ------- --- --- -------- ---- --------- --<br>---------- -- -------- ----------------,295113,295099,294612.48,294612,294616.62,295116.72,,12,system
screen,html.Screen,2_3_1_0_1_13,2022-02-17T14:38:48.862Z,,,,,,,,,,,,,,,,,11,,,,,,,,,,,,,,451.28000000002794,,response,,,,4,E,,,,,,Space,keypress(Space),,,,lyrical,,,,----- -- ---- --- -- --- -------- ------------ ---------- --<br>- ------- ------ comprised -- ------------ -- --- ---- -----<br>------ ---- ---- ------ ------ ------- --- ----- ---------<br>---- --- -------- -------- --- --- -- ------- --- --- -----<br>-- --- ------ ------- --- --- -------- ---- --------- --<br>---------- -- -------- ----------------,295584,295568,295112.98,295113,295116.72,295589.02,,13,comprised
screen,html.Screen,2_3_1_0_1_14,2022-02-17T14:38:49.419Z,,,,,,,,,,,,,,,,,11,,,,,,,,,,,,,,540.9799999999814,,response,,,,4,E,,,,,,Space,keypress(Space),,,,lyrical,,,,----- -- ---- --- -- --- -------- ------------ ---------- --<br>- ------- ------ --------- of ------------ -- --- ---- -----<br>------ ---- ---- ------ ------ ------- --- ----- ---------<br>---- --- -------- -------- --- --- -- ------- --- --- -----<br>-- --- ------ ------- --- --- -------- ---- --------- --<br>---------- -- -------- ----------------,296141,296130,295584.32,295584,295589.02,296144.68,,14,of
screen,html.Screen,2_3_1_0_1_15,2022-02-17T14:38:56.418Z,,,,,,,,,,,,,,,,,11,,,,,,,,,,,,,,7001.320000000007,,timeout,,,,4,E,,,,,,,,,,,lyrical,,,,----- -- ---- --- -- --- -------- ------------ ---------- --<br>- ------- ------ --------- -- pictographs. -- --- ---- -----<br>------ ---- ---- ------ ------ ------- --- ----- ---------<br>---- --- -------- -------- --- --- -- ------- --- --- -----<br>-- --- ------ ------- --- --- -------- ---- --------- --<br>---------- -- -------- ----------------,303140,303139.06,296141.78,296141,296144.68,303146,,15,pictographs.
screen,html.Screen,2_3_1_0_1_16,2022-02-17T14:38:57.207Z,,,,,,,,,,,,,,,,,11,,,,,,,,,,,,,,781,,response,,,,4,E,,,,,,Space,keypress(Space),,,,lyrical,,,,----- -- ---- --- -- --- -------- ------------ ---------- --<br>- ------- ------ --------- -- ------------ It --- ---- -----<br>------ ---- ---- ------ ------ ------- --- ----- ---------<br>---- --- -------- -------- --- --- -- ------- --- --- -----<br>-- --- ------ ------- --- --- -------- ---- --------- --<br>---------- -- -------- ----------------,303929,303927,303139.06,303140,303146,303930.88,,16,It
screen,html.Screen,2_3_1_0_1_17,2022-02-17T14:38:57.937Z,,,,,,,,,,,,,,,,,11,,,,,,,,,,,,,,716.1199999999953,,response,,,,4,E,,,,,,Space,keypress(Space),,,,lyrical,,,,----- -- ---- --- -- --- -------- ------------ ---------- --<br>- ------- ------ --------- -- ------------ -- has ---- -----<br>------ ---- ---- ------ ------ ------- --- ----- ---------<br>---- --- -------- -------- --- --- -- ------- --- --- -----<br>-- --- ------ ------- --- --- -------- ---- --------- --<br>---------- -- -------- ----------------,304659,304647,303929.4,303929,303930.88,304660.18,,17,has
screen,html.Screen,2_3_1_0_1_18,2022-02-17T14:38:58.429Z,,,,,,,,,,,,,,,,,11,,,,,,,,,,,,,,486.820000000007,,response,,,,4,E,,,,,,Space,keypress(Space),,,,lyrical,,,,----- -- ---- --- -- --- -------- ------------ ---------- --<br>- ------- ------ --------- -- ------------ -- --- been -----<br>------ ---- ---- ------ ------ ------- --- ----- ---------<br>---- --- -------- -------- --- --- -- ------- --- --- -----<br>-- --- ------ ------- --- --- -------- ---- --------- --<br>---------- -- -------- ----------------,305151,305147,304658.72,304659,304660.18,305153.32,,18,been
screen,html.Screen,2_3_1_0_1_19,2022-02-17T14:38:58.793Z,,,,,,,,,,,,,,,,,11,,,,,,,,,,,,,,351.679999999993,,response,,,,4,E,,,,,,Space,keypress(Space),,,,lyrical,,,,----- -- ---- --- -- --- -------- ------------ ---------- --<br>- ------- ------ --------- -- ------------ -- --- ---- found<br>------ ---- ---- ------ ------ ------- --- ----- ---------<br>---- --- -------- -------- --- --- -- ------- --- --- -----<br>-- --- ------ ------- --- --- -------- ---- --------- --<br>---------- -- -------- ----------------,305516,305505,305151.14,305152,305153.32,305521.44,,19,found
screen,html.Screen,2_3_1_0_1_20,2022-02-17T14:38:59.289Z,,,,,,,,,,,,,,,,,11,,,,,,,,,,,,,,483.5599999999977,,response,,,,4,E,,,,,,Space,keypress(Space),,,,lyrical,,,,----- -- ---- --- -- --- -------- ------------ ---------- --<br>- ------- ------ --------- -- ------------ -- --- ---- -----<br>carved ---- ---- ------ ------ ------- --- ----- ---------<br>---- --- -------- -------- --- --- -- ------- --- --- -----<br>-- --- ------ ------- --- --- -------- ---- --------- --<br>---------- -- -------- ----------------,306011,306005,305515.64,305516,305521.44,306014.6,,20,carved
screen,html.Screen,2_3_1_0_1_21,2022-02-17T14:39:00.097Z,,,,,,,,,,,,,,,,,11,,,,,,,,,,,,,,803.4000000000233,,response,,,,4,E,,,,,,Space,keypress(Space),,,,lyrical,,,,----- -- ---- --- -- --- -------- ------------ ---------- --<br>- ------- ------ --------- -- ------------ -- --- ---- -----<br>------ into ---- ------ ------ ------- --- ----- ---------<br>---- --- -------- -------- --- --- -- ------- --- --- -----<br>-- --- ------ ------- --- --- -------- ---- --------- --<br>---------- -- -------- ----------------,306819,306818,306011.46,306012,306014.6,306820.3,,21,into
screen,html.Screen,2_3_1_0_1_22,2022-02-17T14:39:00.948Z,,,,,,,,,,,,,,,,,11,,,,,,,,,,,,,,840.7000000000116,,response,,,,4,E,,,,,,Space,keypress(Space),,,,lyrical,,,,----- -- ---- --- -- --- -------- ------------ ---------- --<br>- ------- ------ --------- -- ------------ -- --- ---- -----<br>------ ---- many ------ ------ ------- --- ----- ---------<br>---- --- -------- -------- --- --- -- ------- --- --- -----<br>-- --- ------ ------- --- --- -------- ---- --------- --<br>---------- -- -------- ----------------,307670,307661,306819.32,306819,306820.3,307674.62,,22,many
screen,html.Screen,2_3_1_0_1_23,2022-02-17T14:39:01.549Z,,,,,,,,,,,,,,,,,11,,,,,,,,,,,,,,580.3800000000047,,response,,,,4,E,,,,,,Space,keypress(Space),,,,lyrical,,,,----- -- ---- --- -- --- -------- ------------ ---------- --<br>- ------- ------ --------- -- ------------ -- --- ---- -----<br>------ ---- ---- oblong ------ ------- --- ----- ---------<br>---- --- -------- -------- --- --- -- ------- --- --- -----<br>-- --- ------ ------- --- --- -------- ---- --------- --<br>---------- -- -------- ----------------,308272,308255,307670.28,307670,307674.62,308271.96,,23,oblong
screen,html.Screen,2_3_1_0_1_24,2022-02-17T14:39:02.056Z,,,,,,,,,,,,,,,,,11,,,,,,,,,,,,,,500.03999999997905,,response,,,,4,E,,,,,,Space,keypress(Space),,,,lyrical,,,,----- -- ---- --- -- --- -------- ------------ ---------- --<br>- ------- ------ --------- -- ------------ -- --- ---- -----<br>------ ---- ---- ------ wooden ------- --- ----- ---------<br>---- --- -------- -------- --- --- -- ------- --- --- -----<br>-- --- ------ ------- --- --- -------- ---- --------- --<br>---------- -- -------- ----------------,308778,308772,308271.34,308272,308271.96,308779,,24,wooden
screen,html.Screen,2_3_1_0_1_25,2022-02-17T14:39:02.538Z,,,,,,,,,,,,,,,,,11,,,,,,,,,,,,,,476,,response,,,,4,E,,,,,,Space,keypress(Space),,,,lyrical,,,,----- -- ---- --- -- --- -------- ------------ ---------- --<br>- ------- ------ --------- -- ------------ -- --- ---- -----<br>------ ---- ---- ------ ------ tablets --- ----- ---------<br>---- --- -------- -------- --- --- -- ------- --- --- -----<br>-- --- ------ ------- --- --- -------- ---- --------- --<br>---------- -- -------- ----------------,309261,309255,308778.68,308778,308779,309265.2,,25,tablets
screen,html.Screen,2_3_1_0_1_26,2022-02-17T14:39:03.033Z,,,,,,,,,,,,,,,,,11,,,,,,,,,,,,,,474.79999999998836,,response,,,,4,E,,,,,,Space,keypress(Space),,,,lyrical,,,,----- -- ---- --- -- --- -------- ------------ ---------- --<br>- ------- ------ --------- -- ------------ -- --- ---- -----<br>------ ---- ---- ------ ------ ------- and ----- ---------<br>---- --- -------- -------- --- --- -- ------- --- --- -----<br>-- --- ------ ------- --- --- -------- ---- --------- --<br>---------- -- -------- ----------------,309755,309740,309261.28,309261,309265.2,309758.36,,26,and
screen,html.Screen,2_3_1_0_1_27,2022-02-17T14:39:03.497Z,,,,,,,,,,,,,,,,,11,,,,,,,,,,,,,,449.64000000001397,,response,,,,4,E,,,,,,Space,keypress(Space),,,,lyrical,,,,----- -- ---- --- -- --- -------- ------------ ---------- --<br>- ------- ------ --------- -- ------------ -- --- ---- -----<br>------ ---- ---- ------ ------ ------- --- other ---------<br>---- --- -------- -------- --- --- -- ------- --- --- -----<br>-- --- ------ ------- --- --- -------- ---- --------- --<br>---------- -- -------- ----------------,310219,310208,309755.42,309756,309758.36,310223.72,,27,other
screen,html.Screen,2_3_1_0_1_28,2022-02-17T14:39:03.918Z,,,,,,,,,,,,,,,,,11,,,,,,,,,,,,,,407.28000000002794,,response,,,,4,E,,,,,,Space,keypress(Space),,,,lyrical,,,,----- -- ---- --- -- --- -------- ------------ ---------- --<br>- ------- ------ --------- -- ------------ -- --- ---- -----<br>------ ---- ---- ------ ------ ------- --- ----- artifacts<br>---- --- -------- -------- --- --- -- ------- --- --- -----<br>-- --- ------ ------- --- --- -------- ---- --------- --<br>---------- -- -------- ----------------,310641,310631,310219.3,310219,310223.72,310647.4,,28,artifacts
screen,html.Screen,2_3_1_0_1_29,2022-02-17T14:39:04.541Z,,,,,,,,,,,,,,,,,11,,,,,,,,,,,,,,608.5999999999767,,response,,,,4,E,,,,,,Space,keypress(Space),,,,lyrical,,,,----- -- ---- --- -- --- -------- ------------ ---------- --<br>- ------- ------ --------- -- ------------ -- --- ---- -----<br>------ ---- ---- ------ ------ ------- --- ----- ---------<br>from --- -------- -------- --- --- -- ------- --- --- -----<br>-- --- ------ ------- --- --- -------- ---- --------- --<br>---------- -- -------- ----------------,311263,311256,310640.96,310641,310647.4,311265.58,,29,from
screen,html.Screen,2_3_1_0_1_30,2022-02-17T14:39:05.163Z,,,,,,,,,,,,,,,,,11,,,,,,,,,,,,,,615.4199999999837,,response,,,,4,E,,,,,,Space,keypress(Space),,,,lyrical,,,,----- -- ---- --- -- --- -------- ------------ ---------- --<br>- ------- ------ --------- -- ------------ -- --- ---- -----<br>------ ---- ---- ------ ------ ------- --- ----- ---------<br>---- the -------- -------- --- --- -- ------- --- --- -----<br>-- --- ------ ------- --- --- -------- ---- --------- --<br>---------- -- -------- ----------------,311885,311881,311263.46,311263,311265.58,311890.7,,30,the
screen,html.Screen,2_3_1_0_1_31,2022-02-17T14:39:05.564Z,,,,,,,,,,,,,,,,,11,,,,,,,,,,,,,,381.29999999998836,,response,,,,4,E,,,,,,Space,keypress(Space),,,,lyrical,,,,----- -- ---- --- -- --- -------- ------------ ---------- --<br>- ------- ------ --------- -- ------------ -- --- ---- -----<br>------ ---- ---- ------ ------ ------- --- ----- ---------<br>---- --- island's -------- --- --- -- ------- --- --- -----<br>-- --- ------ ------- --- --- -------- ---- --------- --<br>---------- -- -------- ----------------,312287,312272,311885.4,311885,311890.7,312293.56,,31,island's
screen,html.Screen,2_3_1_0_1_32,2022-02-17T14:39:06.019Z,,,,,,,,,,,,,,,,,11,,,,,,,,,,,,,,446.4400000000023,,response,,,,4,E,,,,,,Space,keypress(Space),,,,lyrical,,,,----- -- ---- --- -- --- -------- ------------ ---------- --<br>- ------- ------ --------- -- ------------ -- --- ---- -----<br>------ ---- ---- ------ ------ ------- --- ----- ---------<br>---- --- -------- history. --- --- -- ------- --- --- -----<br>-- --- ------ ------- --- --- -------- ---- --------- --<br>---------- -- -------- ----------------,312742,312740,312286.66,312287,312293.56,312745.02,,32,history.
screen,html.Screen,2_3_1_0_1_33,2022-02-17T14:39:06.878Z,,,,,,,,,,,,,,,,,11,,,,,,,,,,,,,,838.9799999999814,,response,,,,4,E,,,,,,Space,keypress(Space),,,,lyrical,,,,----- -- ---- --- -- --- -------- ------------ ---------- --<br>- ------- ------ --------- -- ------------ -- --- ---- -----<br>------ ---- ---- ------ ------ ------- --- ----- ---------<br>---- --- -------- -------- The --- -- ------- --- --- -----<br>-- --- ------ ------- --- --- -------- ---- --------- --<br>---------- -- -------- ----------------,313601,313584,312742.38,312742,312745.02,313606.3,,33,The
screen,html.Screen,2_3_1_0_1_34,2022-02-17T14:39:07.288Z,,,,,,,,,,,,,,,,,11,,,,,,,,,,,,,,398.70000000001164,,response,,,,4,E,,,,,,Space,keypress(Space),,,,lyrical,,,,----- -- ---- --- -- --- -------- ------------ ---------- --<br>- ------- ------ --------- -- ------------ -- --- ---- -----<br>------ ---- ---- ------ ------ ------- --- ----- ---------<br>---- --- -------- -------- --- art -- ------- --- --- -----<br>-- --- ------ ------- --- --- -------- ---- --------- --<br>---------- -- -------- ----------------,314010,314005,313600.38,313601,313606.3,314016.1,,34,art
screen,html.Screen,2_3_1_0_1_35,2022-02-17T14:39:07.637Z,,,,,,,,,,,,,,,,,11,,,,,,,,,,,,,,332.9000000000233,,response,,,,4,E,,,,,,Space,keypress(Space),,,,lyrical,,,,----- -- ---- --- -- --- -------- ------------ ---------- --<br>- ------- ------ --------- -- ------------ -- --- ---- -----<br>------ ---- ---- ------ ------ ------- --- ----- ---------<br>---- --- -------- -------- --- --- of ------- --- --- -----<br>-- --- ------ ------- --- --- -------- ---- --------- --<br>---------- -- -------- ----------------,314359,314349,314010.14,314010,314016.1,314363.38,,35,of
screen,html.Screen,2_3_1_0_1_36,2022-02-17T14:39:08.040Z,,,,,,,,,,,,,,,,,11,,,,,,,,,,,,,,391.61999999999534,,response,,,,4,E,,,,,,Space,keypress(Space),,,,lyrical,,,,----- -- ---- --- -- --- -------- ------------ ---------- --<br>- ------- ------ --------- -- ------------ -- --- ---- -----<br>------ ---- ---- ------ ------ ------- --- ----- ---------<br>---- --- -------- -------- --- --- -- writing --- --- -----<br>-- --- ------ ------- --- --- -------- ---- --------- --<br>---------- -- -------- ----------------,314763,314755,314359.58,314359,314363.38,314766.24,,36,writing
screen,html.Screen,2_3_1_0_1_37,2022-02-17T14:39:08.421Z,,,,,,,,,,,,,,,,,11,,,,,,,,,,,,,,363.7600000000093,,response,,,,4,E,,,,,,Space,keypress(Space),,,,lyrical,,,,----- -- ---- --- -- --- -------- ------------ ---------- --<br>- ------- ------ --------- -- ------------ -- --- ---- -----<br>------ ---- ---- ------ ------ ------- --- ----- ---------<br>---- --- -------- -------- --- --- -- ------- was --- -----<br>-- --- ------ ------- --- --- -------- ---- --------- --<br>---------- -- -------- ----------------,315144,315130,314762.94,314763,314766.24,315148.26,,37,was
screen,html.Screen,2_3_1_0_1_38,2022-02-17T14:39:08.788Z,,,,,,,,,,,,,,,,,11,,,,,,,,,,,,,,356.7399999999907,,response,,,,4,E,,,,,,Space,keypress(Space),,,,lyrical,,,,----- -- ---- --- -- --- -------- ------------ ---------- --<br>- ------- ------ --------- -- ------------ -- --- ---- -----<br>------ ---- ---- ------ ------ ------- --- ----- ---------<br>---- --- -------- -------- --- --- -- ------- --- not -----<br>-- --- ------ ------- --- --- -------- ---- --------- --<br>---------- -- -------- ----------------,315511,315505,315144.02,315144,315148.26,315516.38,,38,not
screen,html.Screen,2_3_1_0_1_39,2022-02-17T14:39:09.457Z,,,,,,,,,,,,,,,,,11,,,,,,,,,,,,,,661.6199999999953,,response,,,,4,E,,,,,,Space,keypress(Space),,,,lyrical,,,,----- -- ---- --- -- --- -------- ------------ ---------- --<br>- ------- ------ --------- -- ------------ -- --- ---- -----<br>------ ---- ---- ------ ------ ------- --- ----- ---------<br>---- --- -------- -------- --- --- -- ------- --- --- known<br>-- --- ------ ------- --- --- -------- ---- --------- --<br>---------- -- -------- ----------------,316179,316178,315510.84,315511,315516.38,316183.16,,39,known
screen,html.Screen,2_3_1_0_1_40,2022-02-17T14:39:09.846Z,,,,,,,,,,,,,,,,,11,,,,,,,,,,,,,,383.8400000000256,,response,,,,4,E,,,,,,Space,keypress(Space),,,,lyrical,,,,----- -- ---- --- -- --- -------- ------------ ---------- --<br>- ------- ------ --------- -- ------------ -- --- ---- -----<br>------ ---- ---- ------ ------ ------- --- ----- ---------<br>---- --- -------- -------- --- --- -- ------- --- --- -----<br>in --- ------ ------- --- --- -------- ---- --------- --<br>---------- -- -------- ----------------,316569,316567,316179.66,316179,316183.16,316572.14,,40,in
screen,html.Screen,2_3_1_0_1_41,2022-02-17T14:39:10.240Z,,,,,,,,,,,,,,,,,11,,,,,,,,,,,,,,386.85999999998603,,response,,,,4,E,,,,,,Space,keypress(Space),,,,lyrical,,,,----- -- ---- --- -- --- -------- ------------ ---------- --<br>- ------- ------ --------- -- ------------ -- --- ---- -----<br>------ ---- ---- ------ ------ ------- --- ----- ---------<br>---- --- -------- -------- --- --- -- ------- --- --- -----<br>-- any ------ ------- --- --- -------- ---- --------- --<br>---------- -- -------- ----------------,316963,316959,316569.24,316569,316572.14,316968.04,,41,any
screen,html.Screen,2_3_1_0_1_42,2022-02-17T14:39:10.659Z,,,,,,,,,,,,,,,,,11,,,,,,,,,,,,,,396.96000000002095,,response,,,,4,E,,,,,,Space,keypress(Space),,,,lyrical,,,,----- -- ---- --- -- --- -------- ------------ ---------- --<br>- ------- ------ --------- -- ------------ -- --- ---- -----<br>------ ---- ---- ------ ------ ------- --- ----- ---------<br>---- --- -------- -------- --- --- -- ------- --- --- -----<br>-- --- nearby ------- --- --- -------- ---- --------- --<br>---------- -- -------- ----------------,317381,317365,316963,316963,316968.04,317384.78,,42,nearby
screen,html.Screen,2_3_1_0_1_43,2022-02-17T14:39:11.090Z,,,,,,,,,,,,,,,,,11,,,,,,,,,,,,,,418.21999999997206,,response,,,,4,E,,,,,,Space,keypress(Space),,,,lyrical,,,,----- -- ---- --- -- --- -------- ------------ ---------- --<br>- ------- ------ --------- -- ------------ -- --- ---- -----<br>------ ---- ---- ------ ------ ------- --- ----- ---------<br>---- --- -------- -------- --- --- -- ------- --- --- -----<br>-- --- ------ islands --- --- -------- ---- --------- --<br>---------- -- -------- ----------------,317812,317803,317381.6,317381,317384.78,317815.42,,43,islands
screen,html.Screen,2_3_1_0_1_44,2022-02-17T14:39:11.537Z,,,,,,,,,,,,,,,,,11,,,,,,,,,,,,,,440.5800000000163,,response,,,,4,E,,,,,,Space,keypress(Space),,,,lyrical,,,,----- -- ---- --- -- --- -------- ------------ ---------- --<br>- ------- ------ --------- -- ------------ -- --- ---- -----<br>------ ---- ---- ------ ------ ------- --- ----- ---------<br>---- --- -------- -------- --- --- -- ------- --- --- -----<br>-- --- ------ ------- and --- -------- ---- --------- --<br>---------- -- -------- ----------------,318260,318256,317812.52,317813,317815.42,318266.9,,44,and
screen,html.Screen,2_3_1_0_1_45,2022-02-17T14:39:12.146Z,,,,,,,,,,,,,,,,,11,,,,,,,,,,,,,,598.0999999999767,,response,,,,4,E,,,,,,Space,keypress(Space),,,,lyrical,,,,----- -- ---- --- -- --- -------- ------------ ---------- --<br>- ------- ------ --------- -- ------------ -- --- ---- -----<br>------ ---- ---- ------ ------ ------- --- ----- ---------<br>---- --- -------- -------- --- --- -- ------- --- --- -----<br>-- --- ------ ------- --- the -------- ---- --------- --<br>---------- -- -------- ----------------,318869,318865,318260.4,318261,318266.9,318871.18,,45,the
screen,html.Screen,2_3_1_0_1_46,2022-02-17T14:39:13.069Z,,,,,,,,,,,,,,,,,11,,,,,,,,,,,,,,914.820000000007,,response,,,,4,E,,,,,,Space,keypress(Space),,,,lyrical,,,,----- -- ---- --- -- --- -------- ------------ ---------- --<br>- ------- ------ --------- -- ------------ -- --- ---- -----<br>------ ---- ---- ------ ------ ------- --- ----- ---------<br>---- --- -------- -------- --- --- -- ------- --- --- -----<br>-- --- ------ ------- --- --- script's ---- --------- --<br>---------- -- -------- ----------------,319791,319786,318869.14,318869,318871.18,319794.96,,46,script's
screen,html.Screen,2_3_1_0_1_47,2022-02-17T14:39:13.672Z,,,,,,,,,,,,,,,,,11,,,,,,,,,,,,,,586.039999999979,,response,,,,4,E,,,,,,Space,keypress(Space),,,,lyrical,,,,----- -- ---- --- -- --- -------- ------------ ---------- --<br>- ------- ------ --------- -- ------------ -- --- ---- -----<br>------ ---- ---- ------ ------ ------- --- ----- ---------<br>---- --- -------- -------- --- --- -- ------- --- --- -----<br>-- --- ------ ------- --- --- -------- mere --------- --<br>---------- -- -------- ----------------,320395,320381,319791.4,319791,319794.96,320399.24,,47,mere
screen,html.Screen,2_3_1_0_1_48,2022-02-17T14:39:14.126Z,,,,,,,,,,,,,,,,,11,,,,,,,,,,,,,,433.7600000000093,,response,,,,4,E,,,,,,Space,keypress(Space),,,,lyrical,,,,----- -- ---- --- -- --- -------- ------------ ---------- --<br>- ------- ------ --------- -- ------------ -- --- ---- -----<br>------ ---- ---- ------ ------ ------- --- ----- ---------<br>---- --- -------- -------- --- --- -- ------- --- --- -----<br>-- --- ------ ------- --- --- -------- ---- existence --<br>---------- -- -------- ----------------,320848,320833,320394.96,320395,320399.24,320850.72,,48,existence
screen,html.Screen,2_3_1_0_1_49,2022-02-17T14:39:14.558Z,,,,,,,,,,,,,,,,,11,,,,,,,,,,,,,,421.28000000002794,,response,,,,4,E,,,,,,Space,keypress(Space),,,,lyrical,,,,----- -- ---- --- -- --- -------- ------------ ---------- --<br>- ------- ------ --------- -- ------------ -- --- ---- -----<br>------ ---- ---- ------ ------ ------- --- ----- ---------<br>---- --- -------- -------- --- --- -- ------- --- --- -----<br>-- --- ------ ------- --- --- -------- ---- --------- is<br>---------- -- -------- ----------------,321281,321272,320848.32,320848,320850.72,321281.34,,49,is
screen,html.Screen,2_3_1_0_1_50,2022-02-17T14:39:15.061Z,,,,,,,,,,,,,,,,,11,,,,,,,,,,,,,,489.6599999999744,,response,,,,4,E,,,,,,Space,keypress(Space),,,,lyrical,,,,----- -- ---- --- -- --- -------- ------------ ---------- --<br>- ------- ------ --------- -- ------------ -- --- ---- -----<br>------ ---- ---- ------ ------ ------- --- ----- ---------<br>---- --- -------- -------- --- --- -- ------- --- --- -----<br>-- --- ------ ------- --- --- -------- ---- --------- --<br>sufficient -- -------- ----------------,321784,321771,321280.74,321281,321281.34,321788.38,,50,sufficient
