sender,sender_type,sender_id,timestamp,meta,,Blues,Classical,Country,Dance,Electronic,Folk,Gospel,Hip-Hop,Jazz,Latin,Musical/Film,New-age,Pop,Prolific_id,Provo_ID,R&B,Rap,Reggae,Religious,Rock,Soul,Swing,Traditional,age,artist_name,correct,correctResponse,distraction,duration,education,ended_on,familiarity,gender,headphone_check_performance,item,list,music_frequency,offensiveness,pleasantness,position_correct,preference,response,response_action,snippet_file,song_name,song_rating,sound,stimulus_1,stimulus_2,stimulus_3,text,time_commit,time_end,time_render,time_run,time_show,time_switch,url,word,word_ID
Prolific ID,html.Form,0,2022-02-21T12:44:15.435Z,"{""labjs_version"":""20.2.2"",""labjs_build"":{""flavor"":""production"",""commit"":""a25486e0c714a0ae2ce03ff94b7bb6896854dcfa""},""location"":""https://run.pavlovia.org/mvasilev/prolific2_music_c/"",""userAgent"":""Mozilla/5.0 (Windows NT 10.0; Win64; x64) AppleWebKit/537.36 (KHTML, like Gecko) Chrome/98.0.4758.80 Safari/537.36 Edg/98.0.1108.50"",""platform"":""Win32"",""language"":""en-GB"",""locale"":""en-GB"",""timeZone"":""Europe/London"",""timezoneOffset"":0,""screen_width"":1366,""screen_height"":768,""scroll_width"":1366,""scroll_height"":609,""window_innerWidth"":1366,""window_innerHeight"":657,""devicePixelRatio"":1}",,,,,,,,,,,,,,,5f19dcae475ccd076cce6b3b,,,,,,,,,,,,,,,82415.47999998808,,form submission,,,,,,,,,,,,,,,,,,,,,109283.69999998808,109281.69999998808,26782.665,26792.69999998808,26866.22,109319.872,{},,
Introduction,html.Screen,1_0,2022-02-21T12:44:23.464Z,,,,,,,,,,,,,,,,,,,,,,,,,,,,,,,7984.027999976155,,response,,,,,,,,,,,continue,click button,,,,,,,,,117312.69999998808,117303.89999997616,109269.894,109285.69999998808,109319.872,117351.931,,,
Volume calibration,html.Screen,1_1,2022-02-21T12:45:11.343Z,,,,,,,,,,,,,,,,,,,,,,,,,,,,,,,47821.76899998808,,response,,,,,,,,,,,continue,click button,,,,,,,,,165187.80000001192,165173.69999998808,117302.2,117313.30000001192,117351.931,165194.407,,,
Task instructions,html.Screen,1_2,2022-02-21T12:45:22.446Z,,,,,,,,,,,,,,,,,,,,,,,,,,,,,,,11092.292999988073,,response,,,,,,,,,,,continue,click button,,,,,,,,,176290,176286.69999998808,165161.586,165188.09999996424,165194.407,176292.85,,,
Sounds,html.Screen,1_3_0_0,2022-02-21T12:45:26.704Z,,,,,,,,,,,,,,,,,,,,,,,,,,,,,,,4282.481,,timeout,,,,,,,,,3,,,,,,,,O,I,S,,180548.89999997616,180525.915,176276.669,176290.69999998808,176292.85,180575.331,,,
Judgement,html.Screen,1_3_0_1,2022-02-21T12:45:28.472Z,,,,,,,,,,,,,,,,,,,,,,,,,,,,true,3,,1737.6689999999944,,response,,,,,,,,,3,,3,click #choice-3,,,,,O,I,S,,182316.30000001192,182313,180525.915,180550.5,180575.331,182325.239,,,
Trial,flow.Sequence,1_3_0,2022-02-21T12:45:28.473Z,,,,,,,,,,,,,,,,,,,,,,,,,,,,,,,6020.149999999994,,completion,,,,,,,,,3,,,,,,,,O,I,S,,182317.19999998808,182313,176276.669,176290.59999996424,176292.85,182325.239,,,
Sounds,html.Screen,1_3_1_0,2022-02-21T12:45:32.718Z,,,,,,,,,,,,,,,,,,,,,,,,,,,,,,,4249.312999999995,,timeout,,,,,,,,,2,,,,,,,,I,S,O,,186562.59999996424,186558.363,182308.335,182317.89999997616,182325.239,186574.552,,,
Judgement,html.Screen,1_3_1_1,2022-02-21T12:45:34.133Z,,,,,,,,,,,,,,,,,,,,,,,,,,,,true,2,,1399.948000000004,,response,,,,,,,,,2,,2,click #choice-2,,,,,I,S,O,,187977.59999996424,187974.5,186558.363,186564.30000001192,186574.552,187992.389,,,
Trial,flow.Sequence,1_3_1,2022-02-21T12:45:34.134Z,,,,,,,,,,,,,,,,,,,,,,,,,,,,,,,5649.260999999999,,completion,,,,,,,,,2,,,,,,,,I,S,O,,187978.59999996424,187974.5,182308.335,182317.80000001192,182325.239,187992.389,,,
Sounds,html.Screen,1_3_2_0,2022-02-21T12:45:38.382Z,,,,,,,,,,,,,,,,,,,,,,,,,,,,,,,4247.774000000005,,timeout,,,,,,,,,3,,,,,,,,I,O,S,,192226.5,192223.461,187974.14,187979.30000001192,187992.389,192240.163,,,
Judgement,html.Screen,1_3_2_1,2022-02-21T12:45:39.470Z,,,,,,,,,,,,,,,,,,,,,,,,,,,,true,3,,1070.9369999642367,,response,,,,,,,,,3,,3,click #choice-3,,,,,I,O,S,,193314.69999998808,193311.09999996424,192223.461,192227.09999996424,192240.163,193323.328,,,
Trial,flow.Sequence,1_3_2,2022-02-21T12:45:39.471Z,,,,,,,,,,,,,,,,,,,,,,,,,,,,,,,5318.710999964242,,completion,,,,,,,,,3,,,,,,,,I,O,S,,193315.59999996424,193311.09999996424,187974.14,187979.09999996424,187992.389,193323.328,,,
Sounds,html.Screen,1_3_3_0,2022-02-21T12:45:43.713Z,,,,,,,,,,,,,,,,,,,,,,,,,,,,,,,4249.229999999981,,timeout,,,,,,,,,1,,,,,,,,S,I,O,,197557.89999997616,197556.268,193306.698,193316.19999998808,193323.328,197572.558,,,
Judgement,html.Screen,1_3_3_1,2022-02-21T12:45:44.582Z,,,,,,,,,,,,,,,,,,,,,,,,,,,,true,1,,851.94200000001,,response,,,,,,,,,1,,1,click #choice-1,,,,,S,I,O,,198427.39999997616,198424.5,197556.268,197558.30000001192,197572.558,198440.609,,,
Trial,flow.Sequence,1_3_3,2022-02-21T12:45:44.583Z,,,,,,,,,,,,,,,,,,,,,,,,,,,,,,,5101.171999999991,,completion,,,,,,,,,1,,,,,,,,S,I,O,,198428.09999996424,198424.5,193306.698,193315.89999997616,193323.328,198440.609,,,
Sounds,html.Screen,1_3_4_0,2022-02-21T12:45:48.829Z,,,,,,,,,,,,,,,,,,,,,,,,,,,,,,,4248.880000000005,,timeout,,,,,,,,,2,,,,,,,,O,S,I,,202674.30000001192,202671.821,198422.459,198428.59999996424,198440.609,202689.489,,,
Judgement,html.Screen,1_3_4_1,2022-02-21T12:45:49.688Z,,,,,,,,,,,,,,,,,,,,,,,,,,,,true,2,,839.7109999880777,,response,,,,,,,,,2,,2,click #choice-2,,,,,O,S,I,,203532.80000001192,203529.19999998808,202671.821,202675,202689.489,203539.217,,,
Trial,flow.Sequence,1_3_4,2022-02-21T12:45:49.688Z,,,,,,,,,,,,,,,,,,,,,,,,,,,,,,,5088.590999988082,,completion,,,,,,,,,2,,,,,,,,O,S,I,,203533.30000001192,203529.19999998808,198422.459,198428.5,198440.609,203539.217,,,
Sounds,html.Screen,1_3_5_0,2022-02-21T12:45:53.930Z,,,,,,,,,,,,,,,,,,,,,,,,,,,,,,,4248.517999999982,,timeout,,,,,,,,,1,,,,,,,,S,O,I,,207775.39999997616,207771.18,203521.898,203533.59999996424,203539.217,207787.735,,,
Judgement,html.Screen,1_3_5_1,2022-02-21T12:45:54.846Z,,,,,,,,,,,,,,,,,,,,,,,,,,,,true,1,,899.765000000014,,response,,,,,,,,,1,,1,click #choice-1,,,,,S,O,I,,208691.09999996424,208687.5,207771.18,207776.59999996424,207787.735,208720.835,,,
Trial,flow.Sequence,1_3_5,2022-02-21T12:45:54.847Z,,,,,,,,,,,,,,,,,,,,,,,,,,,,,,,5148.282999999996,,completion,,,,,,,,,1,,,,,,,,S,O,I,,208691.80000001192,208687.5,203521.898,203533.5,203539.217,208720.835,,,
Task,flow.Loop,1_3,2022-02-21T12:45:54.865Z,,,,,,,,,,,,,,,,,,,,,,,,,,,,,,,32394.649999999994,,completion,,,1,,,,,,,,,,,,,,,,,,208710,208687.5,176276.669,176290.5,176292.85,208720.835,,,
Trap,html.Screen,1_4,2022-02-21T12:45:54.869Z,,,,,,,,,,,,,,,,,,,,,,,,,,,,,,,NaN,,skipped,,,,,,,,,,,,,,,,,,,,,208714.19999998808,208687.5,,208713.39999997616,,208720.835,,,
Thanks,html.Screen,1_5,2022-02-21T12:46:00.103Z,,,,,,,,,,,,,,,,,,,,,,,,,,,,,,,5225.264999964245,,response,,,,,,,,,,,continue,click button,,,,,,,,,213948.39999997616,213946.09999996424,208687.799,208714.5,208720.835,223735.18,,,
Headphone screening,flow.Sequence,1,2022-02-21T12:46:00.104Z,,,,,,,,,,,,,,,,,,,,,,,,,,,,,,,104626.22799996423,,completion,,,,,,,,,,,,,,,,,,,,,213948.89999997616,213946.09999996424,109269.894,109285.59999996424,109319.872,223735.18,,,
Instructions,html.Page,2_0,2022-02-21T12:46:29.125Z,,,,,,,,,,,,,,,,,,,,,,,,,,,,,,,19234.019999988086,,form submission,,,,,,,,,,,,,,,,,,,,,242970.39999997616,242969.19999998808,223604.122,223713.69999998808,223735.18,242982.123,,,
Holding screen,html.Screen,2_1_0_0,2022-02-21T12:46:39.122Z,,,,,,,,,,,,,,,,,,,,,,,,,,,,,,,10115.254000000015,,timeout,,,,,,,,,,,,,,,,,,,,,252967.5,252964.065,242965.684,242971.19999998808,242982.123,253097.377,,,
screen,html.Screen,2_1_0_1_0,2022-02-21T12:46:40.402Z,,,,,,,,,,,,,,,,,53,,,,,,,,,,,,,,1135.7229999642295,,response,,,,99,,,,,,,Space,keypress(Space),,,,,,,,When -- ----- -- ------ - ------- --- ----------<br>------------- ------ ------ ---- ---- ------- ----- -- ----<br>-------- ------- -- ---------- --- - --- ----- ----- ----<br>---- --- --- ----- --- ---- ---- ------- ----- ---- -------<br>--- --- -- ----- -- --- ---- -- --- ---- -- ------ ------<br>--- ----- -- ----,254246.30000001192,254233.09999996424,252964.065,252969.30000001192,253097.377,254263.921,,0,When
screen,html.Screen,2_1_0_1_1,2022-02-21T12:46:41.159Z,,,,,,,,,,,,,,,,,53,,,,,,,,,,,,,,735.3790000119188,,response,,,,99,,,,,,,Space,keypress(Space),,,,,,,,---- it ----- -- ------ - ------- --- ----------<br>------------- ------ ------ ---- ---- ------- ----- -- ----<br>-------- ------- -- ---------- --- - --- ----- ----- ----<br>---- --- --- ----- --- ---- ---- ------- ----- ---- -------<br>--- --- -- ----- -- --- ---- -- --- ---- -- ------ ------<br>--- ----- -- ----,255003.59999996424,254999.30000001192,254247.561,254247.19999998808,254263.921,255013.898,,1,it
screen,html.Screen,2_1_0_1_2,2022-02-21T12:46:41.786Z,,,,,,,,,,,,,,,,,53,,,,,,,,,,,,,,611.9020000119344,,response,,,,99,,,,,,,Space,keypress(Space),,,,,,,,---- -- comes -- ------ - ------- --- ----------<br>------------- ------ ------ ---- ---- ------- ----- -- ----<br>-------- ------- -- ---------- --- - --- ----- ----- ----<br>---- --- --- ----- --- ---- ---- ------- ----- ---- -------<br>--- --- -- ----- -- --- ---- -- --- ---- -- ------ ------<br>--- ----- -- ----,255630.19999998808,255625.80000001192,254997.3,255004.80000001192,255013.898,255646.859,,2,comes
screen,html.Screen,2_1_0_1_3,2022-02-21T12:46:42.496Z,,,,,,,,,,,,,,,,,53,,,,,,,,,,,,,,688.2409999642405,,response,,,,99,,,,,,,Space,keypress(Space),,,,,,,,---- -- ----- to ------ - ------- --- ----------<br>------------- ------ ------ ---- ---- ------- ----- -- ----<br>-------- ------- -- ---------- --- - --- ----- ----- ----<br>---- --- --- ----- --- ---- ---- ------- ----- ---- -------<br>--- --- -- ----- -- --- ---- -- --- ---- -- ------ ------<br>--- ----- -- ----,256339.89999997616,256335.09999996424,255630.667,255631.80000001192,255646.859,256363.396,,3,to
screen,html.Screen,2_1_0_1_4,2022-02-21T12:46:43.110Z,,,,,,,,,,,,,,,,,53,,,,,,,,,,,,,,586.7039999642293,,response,,,,99,,,,,,,Space,keypress(Space),,,,,,,,---- -- ----- -- having - ------- --- ----------<br>------------- ------ ------ ---- ---- ------- ----- -- ----<br>-------- ------- -- ---------- --- - --- ----- ----- ----<br>---- --- --- ----- --- ---- ---- ------- ----- ---- -------<br>--- --- -- ----- -- --- ---- -- --- ---- -- ------ ------<br>--- ----- -- ----,256954.09999996424,256950.09999996424,256330.465,256341.09999996424,256363.396,256963.544,,4,having
screen,html.Screen,2_1_0_1_5,2022-02-21T12:46:43.990Z,,,,,,,,,,,,,,,,,53,,,,,,,,,,,,,,866.1559999880847,,response,,,,99,,,,,,,Space,keypress(Space),,,,,,,,---- -- ----- -- ------ a ------- --- ----------<br>------------- ------ ------ ---- ---- ------- ----- -- ----<br>-------- ------- -- ---------- --- - --- ----- ----- ----<br>---- --- --- ----- --- ---- ---- ------- ----- ---- -------<br>--- --- -- ----- -- --- ---- -- --- ---- -- ------ ------<br>--- ----- -- ----,257834.30000001192,257829.69999998808,256947.116,256955.30000001192,256963.544,257846.687,,5,a
screen,html.Screen,2_1_0_1_6,2022-02-21T12:46:44.613Z,,,,,,,,,,,,,,,,,53,,,,,,,,,,,,,,605.2129999761528,,response,,,,99,,,,,,,Space,keypress(Space),,,,,,,,---- -- ----- -- ------ - lasting --- ----------<br>------------- ------ ------ ---- ---- ------- ----- -- ----<br>-------- ------- -- ---------- --- - --- ----- ----- ----<br>---- --- --- ----- --- ---- ---- ------- ----- ---- -------<br>--- --- -- ----- -- --- ---- -- --- ---- -- ------ ------<br>--- ----- -- ----,258457.39999997616,258451.89999997616,257830.213,257835.39999997616,257846.687,258463.381,,6,lasting
screen,html.Screen,2_1_0_1_7,2022-02-21T12:46:45.266Z,,,,,,,,,,,,,,,,,53,,,,,,,,,,,,,,642.119000000006,,response,,,,99,,,,,,,Space,keypress(Space),,,,,,,,---- -- ----- -- ------ - ------- and ----------<br>------------- ------ ------ ---- ---- ------- ----- -- ----<br>-------- ------- -- ---------- --- - --- ----- ----- ----<br>---- --- --- ----- --- ---- ---- ------- ----- ---- -------<br>--- --- -- ----- -- --- ---- -- --- ---- -- ------ ------<br>--- ----- -- ----,259110.09999996424,259105.5,258446.828,258458.5,258463.381,259129.864,,7,and
screen,html.Screen,2_1_0_1_8,2022-02-21T12:46:46.303Z,,,,,,,,,,,,,,,,,53,,,,,,,,,,,,,,1012.7359999642358,,response,,,,99,,,,,,,Space,keypress(Space),,,,,,,,---- -- ----- -- ------ - ------- --- fulfilling<br>------------- ------ ------ ---- ---- ------- ----- -- ----<br>-------- ------- -- ---------- --- - --- ----- ----- ----<br>---- --- --- ----- --- ---- ---- ------- ----- ---- -------<br>--- --- -- ----- -- --- ---- -- --- ---- -- ------ ------<br>--- ----- -- ----,260146.89999997616,260142.59999996424,259113.374,259111.30000001192,259129.864,260162.992,,8,fulfilling
screen,html.Screen,2_1_0_1_9,2022-02-21T12:46:47.140Z,,,,,,,,,,,,,,,,,53,,,,,,,,,,,,,,817.0080000000016,,response,,,,99,,,,,,,Space,keypress(Space),,,,,,,,"---- -- ----- -- ------ - ------- --- ----------<br>relationship, ------ ------ ---- ---- ------- ----- -- ----<br>-------- ------- -- ---------- --- - --- ----- ----- ----<br>---- --- --- ----- --- ---- ---- ------- ----- ---- -------<br>--- --- -- ----- -- --- ---- -- --- ---- -- ------ ------<br>--- ----- -- ----",260984.30000001192,260980,260146.672,260148.19999998808,260162.992,260996.007,,9,"relationship,"
screen,html.Screen,2_1_0_1_10,2022-02-21T12:46:47.998Z,,,,,,,,,,,,,,,,,53,,,,,,,,,,,,,,841.4929999999877,,response,,,,99,,,,,,,Space,keypress(Space),,,,,,,,---- -- ----- -- ------ - ------- --- ----------<br>------------- common ------ ---- ---- ------- ----- -- ----<br>-------- ------- -- ---------- --- - --- ----- ----- ----<br>---- --- --- ----- --- ---- ---- ------- ----- ---- -------<br>--- --- -- ----- -- --- ---- -- --- ---- -- ------ ------<br>--- ----- -- ----,261842,261837.5,260979.983,260985.39999997616,260996.007,261862.648,,10,common
screen,html.Screen,2_1_0_1_11,2022-02-21T12:46:48.681Z,,,,,,,,,,,,,,,,,53,,,,,,,,,,,,,,658.3520000000135,,response,,,,99,,,,,,,Space,keypress(Space),,,,,,,,---- -- ----- -- ------ - ------- --- ----------<br>------------- ------ wisdom ---- ---- ------- ----- -- ----<br>-------- ------- -- ---------- --- - --- ----- ----- ----<br>---- --- --- ----- --- ---- ---- ------- ----- ---- -------<br>--- --- -- ----- -- --- ---- -- --- ---- -- ------ ------<br>--- ----- -- ----,262525.5,262521,261846.036,261843.19999998808,261862.648,262562.59,,11,wisdom
screen,html.Screen,2_1_0_1_12,2022-02-21T12:46:49.513Z,,,,,,,,,,,,,,,,,53,,,,,,,,,,,,,,790.8099999761325,,response,,,,99,,,,,,,Space,keypress(Space),,,,,,,,---- -- ----- -- ------ - ------- --- ----------<br>------------- ------ ------ says ---- ------- ----- -- ----<br>-------- ------- -- ---------- --- - --- ----- ----- ----<br>---- --- --- ----- --- ---- ---- ------- ----- ---- -------<br>--- --- -- ----- -- --- ---- -- --- ---- -- ------ ------<br>--- ----- -- ----,263357.89999997616,263353.39999997616,262545.965,262526.6999999881,262562.59,263395.864,,12,says
screen,html.Screen,2_1_0_1_13,2022-02-21T12:46:50.230Z,,,,,,,,,,,,,,,,,53,,,,,,,,,,,,,,673.4360000119195,,response,,,,99,,,,,,,Space,keypress(Space),,,,,,,,---- -- ----- -- ------ - ------- --- ----------<br>------------- ------ ------ ---- that ------- ----- -- ----<br>-------- ------- -- ---------- --- - --- ----- ----- ----<br>---- --- --- ----- --- ---- ---- ------- ----- ---- -------<br>--- --- -- ----- -- --- ---- -- --- ---- -- ------ ------<br>--- ----- -- ----,264073.89999997616,264069.3000000119,263379.552,263359,263395.864,264098.983,,13,that
screen,html.Screen,2_1_0_1_14,2022-02-21T12:46:51.110Z,,,,,,,,,,,,,,,,,53,,,,,,,,,,,,,,850.2169999880716,,response,,,,99,,,,,,,Space,keypress(Space),,,,,,,,---- -- ----- -- ------ - ------- --- ----------<br>------------- ------ ------ ---- ---- feeling ----- -- ----<br>-------- ------- -- ---------- --- - --- ----- ----- ----<br>---- --- --- ----- --- ---- ---- ------- ----- ---- -------<br>--- --- -- ----- -- --- ---- -- --- ---- -- ------ ------<br>--- ----- -- ----,264954.8000000119,264949.1999999881,264062.955,264075.09999996424,264098.983,264962.034,,14,feeling
screen,html.Screen,2_1_0_1_15,2022-02-21T12:46:52.089Z,,,,,,,,,,,,,,,,,53,,,,,,,,,,,,,,966.4660000000149,,response,,,,99,,,,,,,Space,keypress(Space),,,,,,,,---- -- ----- -- ------ - ------- --- ----------<br>------------- ------ ------ ---- ---- ------- close -- ----<br>-------- ------- -- ---------- --- - --- ----- ----- ----<br>---- --- --- ----- --- ---- ---- ------- ----- ---- -------<br>--- --- -- ----- -- --- ---- -- --- ---- -- ------ ------<br>--- ----- -- ----,265933,265928.5,264945.74,264955.89999997616,264962.034,265945.402,,15,close
screen,html.Screen,2_1_0_1_16,2022-02-21T12:46:52.682Z,,,,,,,,,,,,,,,,,53,,,,,,,,,,,,,,576.4979999761563,,response,,,,99,,,,,,,Space,keypress(Space),,,,,,,,---- -- ----- -- ------ - ------- --- ----------<br>------------- ------ ------ ---- ---- ------- ----- to ----<br>-------- ------- -- ---------- --- - --- ----- ----- ----<br>---- --- --- ----- --- ---- ---- ------- ----- ---- -------<br>--- --- -- ----- -- --- ---- -- --- ---- -- ------ ------<br>--- ----- -- ----,266526.3000000119,266521.89999997616,265928.507,265934,265945.402,266545.127,,16,to
screen,html.Screen,2_1_0_1_17,2022-02-21T12:46:53.390Z,,,,,,,,,,,,,,,,,53,,,,,,,,,,,,,,684.6730000119423,,response,,,,99,,,,,,,Space,keypress(Space),,,,,,,,---- -- ----- -- ------ - ------- --- ----------<br>------------- ------ ------ ---- ---- ------- ----- -- your<br>-------- ------- -- ---------- --- - --- ----- ----- ----<br>---- --- --- ----- --- ---- ---- ------- ----- ---- -------<br>--- --- -- ----- -- --- ---- -- --- ---- -- ------ ------<br>--- ----- -- ----,267234.3000000119,267229.8000000119,266528.81,266527.39999997616,266545.127,267245.075,,17,your
screen,html.Screen,2_1_0_1_18,2022-02-21T12:46:54.206Z,,,,,,,,,,,,,,,,,53,,,,,,,,,,,,,,800.3249999761465,,response,,,,99,,,,,,,Space,keypress(Space),,,,,,,,---- -- ----- -- ------ - ------- --- ----------<br>------------- ------ ------ ---- ---- ------- ----- -- ----<br>romantic ------- -- ---------- --- - --- ----- ----- ----<br>---- --- --- ----- --- ---- ---- ------- ----- ---- -------<br>--- --- -- ----- -- --- ---- -- --- ---- -- ------ ------<br>--- ----- -- ----,268050.8000000119,268045.39999997616,267228.811,267235.39999997616,267245.075,268061.582,,18,romantic
screen,html.Screen,2_1_0_1_19,2022-02-21T12:46:54.877Z,,,,,,,,,,,,,,,,,53,,,,,,,,,,,,,,655.218000011926,,response,,,,99,,,,,,,Space,keypress(Space),,,,,,,,---- -- ----- -- ------ - ------- --- ----------<br>------------- ------ ------ ---- ---- ------- ----- -- ----<br>-------- partner -- ---------- --- - --- ----- ----- ----<br>---- --- --- ----- --- ---- ---- ------- ----- ---- -------<br>--- --- -- ----- -- --- ---- -- --- ---- -- ------ ------<br>--- ----- -- ----,268721.1999999881,268716.8000000119,268045.221,268051.8000000119,268061.582,268728.113,,19,partner
screen,html.Screen,2_1_0_1_20,2022-02-21T12:46:55.382Z,,,,,,,,,,,,,,,,,53,,,,,,,,,,,,,,492.9869999642251,,response,,,,99,,,,,,,Space,keypress(Space),,,,,,,,---- -- ----- -- ------ - ------- --- ----------<br>------------- ------ ------ ---- ---- ------- ----- -- ----<br>-------- ------- is ---------- --- - --- ----- ----- ----<br>---- --- --- ----- --- ---- ---- ------- ----- ---- -------<br>--- --- -- ----- -- --- ---- -- --- ---- -- ------ ------<br>--- ----- -- ----,269226.09999996424,269221.09999996424,268711.876,268722.1999999881,268728.113,269244.703,,20,is
screen,html.Screen,2_1_0_1_21,2022-02-21T12:46:56.204Z,,,,,,,,,,,,,,,,,53,,,,,,,,,,,,,,798.3969999642577,,response,,,,99,,,,,,,Space,keypress(Space),,,,,,,,---- -- ----- -- ------ - ------- --- ----------<br>------------- ------ ------ ---- ---- ------- ----- -- ----<br>-------- ------- -- paramount. --- - --- ----- ----- ----<br>---- --- --- ----- --- ---- ---- ------- ----- ---- -------<br>--- --- -- ----- -- --- ---- -- --- ---- -- ------ ------<br>--- ----- -- ----,270048.59999996424,270043.09999996424,269227.979,269227.1999999881,269244.703,270061.507,,21,paramount.
screen,html.Screen,2_1_0_1_22,2022-02-21T12:46:56.761Z,,,,,,,,,,,,,,,,,53,,,,,,,,,,,,,,538.8929999761749,,response,,,,99,,,,,,,Space,keypress(Space),,,,,,,,---- -- ----- -- ------ - ------- --- ----------<br>------------- ------ ------ ---- ---- ------- ----- -- ----<br>-------- ------- -- ---------- But - --- ----- ----- ----<br>---- --- --- ----- --- ---- ---- ------- ----- ---- -------<br>--- --- -- ----- -- --- ---- -- --- ---- -- ------ ------<br>--- ----- -- ----,270605.09999996424,270600.39999997616,270045.025,270049.6999999881,270061.507,270611.425,,22,But
screen,html.Screen,2_1_0_1_23,2022-02-21T12:46:57.285Z,,,,,,,,,,,,,,,,,53,,,,,,,,,,,,,,513.2749999880907,,response,,,,99,,,,,,,Space,keypress(Space),,,,,,,,---- -- ----- -- ------ - ------- --- ----------<br>------------- ------ ------ ---- ---- ------- ----- -- ----<br>-------- ------- -- ---------- --- a --- ----- ----- ----<br>---- --- --- ----- --- ---- ---- ------- ----- ---- -------<br>--- --- -- ----- -- --- ---- -- --- ---- -- ------ ------<br>--- ----- -- ----,271129,271124.6999999881,270595.188,270606.1999999881,270611.425,271144.605,,23,a
screen,html.Screen,2_1_0_1_24,2022-02-21T12:46:57.906Z,,,,,,,,,,,,,,,,,53,,,,,,,,,,,,,,600.3950000000186,,response,,,,99,,,,,,,Space,keypress(Space),,,,,,,,---- -- ----- -- ------ - ------- --- ----------<br>------------- ------ ------ ---- ---- ------- ----- -- ----<br>-------- ------- -- ---------- --- - new ----- ----- ----<br>---- --- --- ----- --- ---- ---- ------- ----- ---- -------<br>--- --- -- ----- -- --- ---- -- --- ---- -- ------ ------<br>--- ----- -- ----,271750.1999999881,271745,271127.925,271130.09999996424,271144.605,271761.347,,24,new
screen,html.Screen,2_1_0_1_25,2022-02-21T12:46:58.693Z,,,,,,,,,,,,,,,,,53,,,,,,,,,,,,,,770.0529999761493,,response,,,,99,,,,,,,Space,keypress(Space),,,,,,,,---- -- ----- -- ------ - ------- --- ----------<br>------------- ------ ------ ---- ---- ------- ----- -- ----<br>-------- ------- -- ---------- --- - --- study ----- ----<br>---- --- --- ----- --- ---- ---- ------- ----- ---- -------<br>--- --- -- ----- -- --- ---- -- --- ---- -- ------ ------<br>--- ----- -- ----,272536.89999997616,272531.39999997616,271744.837,271751.3000000119,271761.347,272544.175,,25,study
screen,html.Screen,2_1_0_1_26,2022-02-21T12:46:59.470Z,,,,,,,,,,,,,,,,,53,,,,,,,,,,,,,,765.5249999880907,,response,,,,99,,,,,,,Space,keypress(Space),,,,,,,,---- -- ----- -- ------ - ------- --- ----------<br>------------- ------ ------ ---- ---- ------- ----- -- ----<br>-------- ------- -- ---------- --- - --- ----- finds ----<br>---- --- --- ----- --- ---- ---- ------- ----- ---- -------<br>--- --- -- ----- -- --- ---- -- --- ---- -- ------ ------<br>--- ----- -- ----,273314.39999997616,273309.6999999881,272528.15,272538.09999996424,272544.175,273327.73,,26,finds
screen,html.Screen,2_1_0_1_27,2022-02-21T12:47:00.264Z,,,,,,,,,,,,,,,,,53,,,,,,,,,,,,,,775.9699999880977,,response,,,,99,,,,,,,Space,keypress(Space),,,,,,,,---- -- ----- -- ------ - ------- --- ----------<br>------------- ------ ------ ---- ---- ------- ----- -- ----<br>-------- ------- -- ---------- --- - --- ----- ----- that<br>---- --- --- ----- --- ---- ---- ------- ----- ---- -------<br>--- --- -- ----- -- --- ---- -- --- ---- -- ------ ------<br>--- ----- -- ----,274107.89999997616,274103.6999999881,273311.251,273315.39999997616,273327.73,274127.444,,27,that
screen,html.Screen,2_1_0_1_28,2022-02-21T12:47:01.159Z,,,,,,,,,,,,,,,,,53,,,,,,,,,,,,,,871.6559999642195,,response,,,,99,,,,,,,Space,keypress(Space),,,,,,,,---- -- ----- -- ------ - ------- --- ----------<br>------------- ------ ------ ---- ---- ------- ----- -- ----<br>-------- ------- -- ---------- --- - --- ----- ----- ----<br>it's --- --- ----- --- ---- ---- ------- ----- ---- -------<br>--- --- -- ----- -- --- ---- -- --- ---- -- ------ ------<br>--- ----- -- ----,275003.6999999881,274999.09999996424,274111.321,274109,274127.444,275010.681,,28,it's
screen,html.Screen,2_1_0_1_29,2022-02-21T12:47:01.849Z,,,,,,,,,,,,,,,,,53,,,,,,,,,,,,,,678.1190000119386,,response,,,,99,,,,,,,Space,keypress(Space),,,,,,,,---- -- ----- -- ------ - ------- --- ----------<br>------------- ------ ------ ---- ---- ------- ----- -- ----<br>-------- ------- -- ---------- --- - --- ----- ----- ----<br>---- not --- ----- --- ---- ---- ------- ----- ---- -------<br>--- --- -- ----- -- --- ---- -- --- ---- -- ------ ------<br>--- ----- -- ----,275693.8000000119,275688.8000000119,274994.256,275004.6999999881,275010.681,275710.529,,29,not
screen,html.Screen,2_1_0_1_30,2022-02-21T12:47:02.579Z,,,,,,,,,,,,,,,,,53,,,,,,,,,,,,,,708.5709999642568,,response,,,,99,,,,,,,Space,keypress(Space),,,,,,,,---- -- ----- -- ------ - ------- --- ----------<br>------------- ------ ------ ---- ---- ------- ----- -- ----<br>-------- ------- -- ---------- --- - --- ----- ----- ----<br>---- --- how ----- --- ---- ---- ------- ----- ---- -------<br>--- --- -- ----- -- --- ---- -- --- ---- -- ------ ------<br>--- ----- -- ----,276423.5,276419.09999996424,275694.276,275695,275710.529,276460.332,,30,how
screen,html.Screen,2_1_0_1_31,2022-02-21T12:47:03.520Z,,,,,,,,,,,,,,,,,53,,,,,,,,,,,,,,899.6680000000051,,response,,,,99,,,,,,,Space,keypress(Space),,,,,,,,---- -- ----- -- ------ - ------- --- ----------<br>------------- ------ ------ ---- ---- ------- ----- -- ----<br>-------- ------- -- ---------- --- - --- ----- ----- ----<br>---- --- --- close --- ---- ---- ------- ----- ---- -------<br>--- --- -- ----- -- --- ---- -- --- ---- -- ------ ------<br>--- ----- -- ----,277364.59999996424,277360,276444.014,276424.59999996424,276460.332,277376.935,,31,close
screen,html.Screen,2_1_0_1_32,2022-02-21T12:47:04.391Z,,,,,,,,,,,,,,,,,53,,,,,,,,,,,,,,854.0650000000023,,response,,,,99,,,,,,,Space,keypress(Space),,,,,,,,---- -- ----- -- ------ - ------- --- ----------<br>------------- ------ ------ ---- ---- ------- ----- -- ----<br>-------- ------- -- ---------- --- - --- ----- ----- ----<br>---- --- --- ----- you ---- ---- ------- ----- ---- -------<br>--- --- -- ----- -- --- ---- -- --- ---- -- ------ ------<br>--- ----- -- ----,278235.6999999881,278231,277360.605,277365.6999999881,277376.935,278243.266,,32,you
screen,html.Screen,2_1_0_1_33,2022-02-21T12:47:05.131Z,,,,,,,,,,,,,,,,,53,,,,,,,,,,,,,,727.333999964234,,response,,,,99,,,,,,,Space,keypress(Space),,,,,,,,---- -- ----- -- ------ - ------- --- ----------<br>------------- ------ ------ ---- ---- ------- ----- -- ----<br>-------- ------- -- ---------- --- - --- ----- ----- ----<br>---- --- --- ----- --- feel ---- ------- ----- ---- -------<br>--- --- -- ----- -- --- ---- -- --- ---- -- ------ ------<br>--- ----- -- ----,278974.89999997616,278970.59999996424,278226.973,278236.8000000119,278243.266,278993.126,,33,feel
screen,html.Screen,2_1_0_1_34,2022-02-21T12:47:05.877Z,,,,,,,,,,,,,,,,,53,,,,,,,,,,,,,,723.6740000119316,,response,,,,99,,,,,,,Space,keypress(Space),,,,,,,,---- -- ----- -- ------ - ------- --- ----------<br>------------- ------ ------ ---- ---- ------- ----- -- ----<br>-------- ------- -- ---------- --- - --- ----- ----- ----<br>---- --- --- ----- --- ---- that ------- ----- ---- -------<br>--- --- -- ----- -- --- ---- -- --- ---- -- ------ ------<br>--- ----- -- ----,279721.1999999881,279716.8000000119,278977.057,278976,278993.126,279750.767,,34,that
screen,html.Screen,2_1_0_1_35,2022-02-21T12:47:06.692Z,,,,,,,,,,,,,,,,,53,,,,,,,,,,,,,,780.9329999880865,,response,,,,99,,,,,,,Space,keypress(Space),,,,,,,,---- -- ----- -- ------ - ------- --- ----------<br>------------- ------ ------ ---- ---- ------- ----- -- ----<br>-------- ------- -- ---------- --- - --- ----- ----- ----<br>---- --- --- ----- --- ---- ---- matters ----- ---- -------<br>--- --- -- ----- -- --- ---- -- --- ---- -- ------ ------<br>--- ----- -- ----,280536.39999997616,280531.6999999881,279710.017,279722.3000000119,279750.767,280568.271,,35,matters
screen,html.Screen,2_1_0_1_36,2022-02-21T12:47:07.354Z,,,,,,,,,,,,,,,,,53,,,,,,,,,,,,,,625.1289999761502,,response,,,,99,,,,,,,Space,keypress(Space),,,,,,,,"---- -- ----- -- ------ - ------- --- ----------<br>------------- ------ ------ ---- ---- ------- ----- -- ----<br>-------- ------- -- ---------- --- - --- ----- ----- ----<br>---- --- --- ----- --- ---- ---- ------- most, ---- -------<br>--- --- -- ----- -- --- ---- -- --- ---- -- ------ ------<br>--- ----- -- ----",281198.59999996424,281193.39999997616,280526.917,280538.8000000119,280568.271,281209.677,,36,"most,"
screen,html.Screen,2_1_0_1_37,2022-02-21T12:47:08.010Z,,,,,,,,,,,,,,,,,53,,,,,,,,,,,,,,640.5229999880539,,response,,,,99,,,,,,,Space,keypress(Space),,,,,,,,---- -- ----- -- ------ - ------- --- ----------<br>------------- ------ ------ ---- ---- ------- ----- -- ----<br>-------- ------- -- ---------- --- - --- ----- ----- ----<br>---- --- --- ----- --- ---- ---- ------- ----- it's -------<br>--- --- -- ----- -- --- ---- -- --- ---- -- ------ ------<br>--- ----- -- ----,281854.8000000119,281850.1999999881,281193.248,281199.6999999881,281209.677,281886.222,,37,it's
screen,html.Screen,2_1_0_1_38,2022-02-21T12:47:08.587Z,,,,,,,,,,,,,,,,,53,,,,,,,,,,,,,,540.5780000119121,,response,,,,99,,,,,,,Space,keypress(Space),,,,,,,,---- -- ----- -- ------ - ------- --- ----------<br>------------- ------ ------ ---- ---- ------- ----- -- ----<br>-------- ------- -- ---------- --- - --- ----- ----- ----<br>---- --- --- ----- --- ---- ---- ------- ----- ---- whether<br>--- --- -- ----- -- --- ---- -- --- ---- -- ------ ------<br>--- ----- -- ----,282431.1999999881,282426.8000000119,281843.318,281855.8000000119,281886.222,282442.716,,38,whether
screen,html.Screen,2_1_0_1_39,2022-02-21T12:47:09.284Z,,,,,,,,,,,,,,,,,53,,,,,,,,,,,,,,681.6839999761432,,response,,,,99,,,,,,,Space,keypress(Space),,,,,,,,---- -- ----- -- ------ - ------- --- ----------<br>------------- ------ ------ ---- ---- ------- ----- -- ----<br>-------- ------- -- ---------- --- - --- ----- ----- ----<br>---- --- --- ----- --- ---- ---- ------- ----- ---- -------<br>you --- -- ----- -- --- ---- -- --- ---- -- ------ ------<br>--- ----- -- ----,283128.89999997616,283124.39999997616,282426.302,282432.1999999881,282442.716,283142.707,,39,you
screen,html.Screen,2_1_0_1_40,2022-02-21T12:47:09.948Z,,,,,,,,,,,,,,,,,53,,,,,,,,,,,,,,645.093000011926,,response,,,,99,,,,,,,Space,keypress(Space),,,,,,,,---- -- ----- -- ------ - ------- --- ----------<br>------------- ------ ------ ---- ---- ------- ----- -- ----<br>-------- ------- -- ---------- --- - --- ----- ----- ----<br>---- --- --- ----- --- ---- ---- ------- ----- ---- -------<br>--- are -- ----- -- --- ---- -- --- ---- -- ------ ------<br>--- ----- -- ----,283792.59999996424,283787.8000000119,283126.179,283130,283142.707,283809.281,,40,are
screen,html.Screen,2_1_0_1_41,2022-02-21T12:47:10.625Z,,,,,,,,,,,,,,,,,53,,,,,,,,,,,,,,655.2189999999828,,response,,,,99,,,,,,,Space,keypress(Space),,,,,,,,---- -- ----- -- ------ - ------- --- ----------<br>------------- ------ ------ ---- ---- ------- ----- -- ----<br>-------- ------- -- ---------- --- - --- ----- ----- ----<br>---- --- --- ----- --- ---- ---- ------- ----- ---- -------<br>--- --- as ----- -- --- ---- -- --- ---- -- ------ ------<br>--- ----- -- ----,284469,284464.5,283792.898,283793.6999999881,283809.281,284475.911,,41,as
screen,html.Screen,2_1_0_1_42,2022-02-21T12:47:11.139Z,,,,,,,,,,,,,,,,,53,,,,,,,,,,,,,,501.6889999642153,,response,,,,99,,,,,,,Space,keypress(Space),,,,,,,,---- -- ----- -- ------ - ------- --- ----------<br>------------- ------ ------ ---- ---- ------- ----- -- ----<br>-------- ------- -- ---------- --- - --- ----- ----- ----<br>---- --- --- ----- --- ---- ---- ------- ----- ---- -------<br>--- --- -- close -- --- ---- -- --- ---- -- ------ ------<br>--- ----- -- ----,284983.3000000119,284977.59999996424,284459.542,284470,284475.911,284992.217,,42,close
screen,html.Screen,2_1_0_1_43,2022-02-21T12:47:11.837Z,,,,,,,,,,,,,,,,,53,,,,,,,,,,,,,,684.682999976154,,response,,,,99,,,,,,,Space,keypress(Space),,,,,,,,---- -- ----- -- ------ - ------- --- ----------<br>------------- ------ ------ ---- ---- ------- ----- -- ----<br>-------- ------- -- ---------- --- - --- ----- ----- ----<br>---- --- --- ----- --- ---- ---- ------- ----- ---- -------<br>--- --- -- ----- as --- ---- -- --- ---- -- ------ ------<br>--- ----- -- ----,285681.8000000119,285676.89999997616,284975.912,284984.39999997616,284992.217,285692.372,,43,as
screen,html.Screen,2_1_0_1_44,2022-02-21T12:47:12.560Z,,,,,,,,,,,,,,,,,53,,,,,,,,,,,,,,707.3279999881051,,response,,,,99,,,,,,,Space,keypress(Space),,,,,,,,---- -- ----- -- ------ - ------- --- ----------<br>------------- ------ ------ ---- ---- ------- ----- -- ----<br>-------- ------- -- ---------- --- - --- ----- ----- ----<br>---- --- --- ----- --- ---- ---- ------- ----- ---- -------<br>--- --- -- ----- -- you ---- -- --- ---- -- ------ ------<br>--- ----- -- ----,286404.59999996424,286399.6999999881,285675.792,285682.89999997616,285692.372,286426.456,,44,you
screen,html.Screen,2_1_0_1_45,2022-02-21T12:47:13.138Z,,,,,,,,,,,,,,,,,53,,,,,,,,,,,,,,551.8440000119153,,response,,,,99,,,,,,,Space,keypress(Space),,,,,,,,---- -- ----- -- ------ - ------- --- ----------<br>------------- ------ ------ ---- ---- ------- ----- -- ----<br>-------- ------- -- ---------- --- - --- ----- ----- ----<br>---- --- --- ----- --- ---- ---- ------- ----- ---- -------<br>--- --- -- ----- -- --- want -- --- ---- -- ------ ------<br>--- ----- -- ----,286982.6999999881,286978.3000000119,286409.003,286405.6999999881,286426.456,286991.896,,45,want
screen,html.Screen,2_1_0_1_46,2022-02-21T12:47:13.820Z,,,,,,,,,,,,,,,,,53,,,,,,,,,,,,,,668.5039999761502,,response,,,,99,,,,,,,Space,keypress(Space),,,,,,,,---- -- ----- -- ------ - ------- --- ----------<br>------------- ------ ------ ---- ---- ------- ----- -- ----<br>-------- ------- -- ---------- --- - --- ----- ----- ----<br>---- --- --- ----- --- ---- ---- ------- ----- ---- -------<br>--- --- -- ----- -- --- ---- to --- ---- -- ------ ------<br>--- ----- -- ----,287664.89999997616,287660.39999997616,286975.789,286983.8000000119,286991.896,287675.118,,46,to
screen,html.Screen,2_1_0_1_47,2022-02-21T12:47:14.676Z,,,,,,,,,,,,,,,,,53,,,,,,,,,,,,,,840.3819999999832,,response,,,,99,,,,,,,Space,keypress(Space),,,,,,,,"---- -- ----- -- ------ - ------- --- ----------<br>------------- ------ ------ ---- ---- ------- ----- -- ----<br>-------- ------- -- ---------- --- - --- ----- ----- ----<br>---- --- --- ----- --- ---- ---- ------- ----- ---- -------<br>--- --- -- ----- -- --- ---- -- be, ---- -- ------ ------<br>--- ----- -- ----",288520,288515.5,287658.868,287665.89999997616,287675.118,288546.081,,47,"be,"
screen,html.Screen,2_1_0_1_48,2022-02-21T12:47:15.302Z,,,,,,,,,,,,,,,,,53,,,,,,,,,,,,,,596.1189999880735,,response,,,,99,,,,,,,Space,keypress(Space),,,,,,,,---- -- ----- -- ------ - ------- --- ----------<br>------------- ------ ------ ---- ---- ------- ----- -- ----<br>-------- ------- -- ---------- --- - --- ----- ----- ----<br>---- --- --- ----- --- ---- ---- ------- ----- ---- -------<br>--- --- -- ----- -- --- ---- -- --- even -- ------ ------<br>--- ----- -- ----,289146.6999999881,289142.1999999881,288508.801,288521.09999996424,288546.081,289158.191,,48,even
screen,html.Screen,2_1_0_1_49,2022-02-21T12:47:16.039Z,,,,,,,,,,,,,,,,,53,,,,,,,,,,,,,,721.0089999880875,,response,,,,99,,,,,,,Space,keypress(Space),,,,,,,,---- -- ----- -- ------ - ------- --- ----------<br>------------- ------ ------ ---- ---- ------- ----- -- ----<br>-------- ------- -- ---------- --- - --- ----- ----- ----<br>---- --- --- ----- --- ---- ---- ------- ----- ---- -------<br>--- --- -- ----- -- --- ---- -- --- ---- if ------ ------<br>--- ----- -- ----,289883.5,289879.1999999881,289142.065,289147.6999999881,289158.191,289891.485,,49,if
screen,html.Screen,2_1_0_1_50,2022-02-21T12:47:16.616Z,,,,,,,,,,,,,,,,,53,,,,,,,,,,,,,,564.515000000014,,response,,,,99,,,,,,,Space,keypress(Space),,,,,,,,---- -- ----- -- ------ - ------- --- ----------<br>------------- ------ ------ ---- ---- ------- ----- -- ----<br>-------- ------- -- ---------- --- - --- ----- ----- ----<br>---- --- --- ----- --- ---- ---- ------- ----- ---- -------<br>--- --- -- ----- -- --- ---- -- --- ---- -- that's ------<br>--- ----- -- ----,290460.1999999881,290456,289875.152,289884.59999996424,289891.485,290474.688,,50,that's
screen,html.Screen,2_1_0_1_51,2022-02-21T12:47:24.627Z,,,,,,,,,,,,,,,,,53,,,,,,,,,,,,,,7991.9119999642135,,response,,,,99,,,,,,,Space,keypress(Space),,,,,,,,---- -- ----- -- ------ - ------- --- ----------<br>------------- ------ ------ ---- ---- ------- ----- -- ----<br>-------- ------- -- ---------- --- - --- ----- ----- ----<br>---- --- --- ----- --- ---- ---- ------- ----- ---- -------<br>--- --- -- ----- -- --- ---- -- --- ---- -- ------ really<br>--- ----- -- ----,298471.5,298466.59999996424,290458.626,290461.39999997616,290474.688,298490.241,,51,really
screen,html.Screen,2_1_0_1_52,2022-02-21T12:47:25.792Z,,,,,,,,,,,,,,,,,53,,,,,,,,,,,,,,1141.25900000002,,response,,,,99,,,,,,,Space,keypress(Space),,,,,,,,---- -- ----- -- ------ - ------- --- ----------<br>------------- ------ ------ ---- ---- ------- ----- -- ----<br>-------- ------- -- ---------- --- - --- ----- ----- ----<br>---- --- --- ----- --- ---- ---- ------- ----- ---- -------<br>--- --- -- ----- -- --- ---- -- --- ---- -- ------ ------<br>not ----- -- ----,299635.89999997616,299631.5,298473.301,298472.6999999881,298490.241,299673.247,,52,not
screen,html.Screen,2_1_0_1_53,2022-02-21T12:47:26.206Z,,,,,,,,,,,,,,,,,53,,,,,,,,,,,,,,372.553000011947,,response,,,,99,,,,,,,Space,keypress(Space),,,,,,,,---- -- ----- -- ------ - ------- --- ----------<br>------------- ------ ------ ---- ---- ------- ----- -- ----<br>-------- ------- -- ---------- --- - --- ----- ----- ----<br>---- --- --- ----- --- ---- ---- ------- ----- ---- -------<br>--- --- -- ----- -- --- ---- -- --- ---- -- ------ ------<br>--- close -- ----,300050.09999996424,300045.8000000119,299656.609,299637,299673.247,300056.501,,53,close
screen,html.Screen,2_1_0_1_54,2022-02-21T12:47:26.596Z,,,,,,,,,,,,,,,,,53,,,,,,,,,,,,,,379.79900001193164,,response,,,,99,,,,,,,Space,keypress(Space),,,,,,,,---- -- ----- -- ------ - ------- --- ----------<br>------------- ------ ------ ---- ---- ------- ----- -- ----<br>-------- ------- -- ---------- --- - --- ----- ----- ----<br>---- --- --- ----- --- ---- ---- ------- ----- ---- -------<br>--- --- -- ----- -- --- ---- -- --- ---- -- ------ ------<br>--- ----- at ----,300440.59999996424,300436.3000000119,300040.352,300051.5,300056.501,300456.598,,54,at
screen,html.Screen,2_1_0_1_55,2022-02-21T12:47:27.466Z,,,,,,,,,,,,,,,,,53,,,,,,,,,,,,,,849.6019999880809,,response,,,,99,,,,,,,Space,keypress(Space),,,,,,,,---- -- ----- -- ------ - ------- --- ----------<br>------------- ------ ------ ---- ---- ------- ----- -- ----<br>-------- ------- -- ---------- --- - --- ----- ----- ----<br>---- --- --- ----- --- ---- ---- ------- ----- ---- -------<br>--- --- -- ----- -- --- ---- -- --- ---- -- ------ ------<br>--- ----- -- all.,301310.6999999881,301306.1999999881,300439.76,300441.8000000119,300456.598,301389.779,,55,all.
Item 99,flow.Loop,2_1_0_1,2022-02-21T12:47:27.468Z,,,,,,,,,,,,,,,,,,,,,,,,,,,,,,,48208.82299998807,,completion,,,,,C,,,,,,,,,,,silence,,,,,301312.89999997616,301306.1999999881,252964.065,252968.80000001192,253097.377,301389.779,,,
Question 1,html.Screen,2_1_0_2,2022-02-21T12:47:34.164Z,,,,,,,,,,,,,,,,,,,,,,,,,,,,true,FALSE,,6612.72100000002,,response,,,,99,C,,,,,,FALSE,click #choice-2,,,,silence,,,,,308008.5,308002.5,301306.63,301314.3000000119,301389.779,308021.836,,,
Question 2,html.Screen,2_1_0_3,2022-02-21T12:47:43.138Z,,,,,,,,,,,,,,,,,,,,,,,,,,,,true,TRUE,,8956.863999988069,,response,,,,99,C,,,,,,TRUE,click #choice-1,,,,silence,,,,,316982.09999996424,316978.6999999881,307988.546,308011.1999999881,308021.836,317003.764,,,
Item 99,flow.Sequence,2_1_0,2022-02-21T12:47:43.138Z,,,,,,,,,,,,,,,,,,,,,,,,,,,,,,,73996.57699998809,,completion,,,,,,,,,,,,,,,,,,,,,316982.8000000119,316978.6999999881,242965.684,242971.09999996424,242982.123,317003.764,,,
Holding screen,html.Screen,2_1_1_0,2022-02-21T12:47:53.145Z,,,,,,,,,,,,,,,,,,,,,,,,,,,,,,,9998.704999999958,,timeout,,,,,,,,,,,,,,,,,,,,,326989.09999996424,326986.087,316970.953,316983.39999997616,317003.764,327002.469,,,
screen,html.Screen,2_1_1_1_0,2022-02-21T12:47:54.004Z,,,,,,,,,,,,,,,,,54,,,,,,,,,,,,,,839.5310000000172,,response,,,,100,,,,,,,Space,keypress(Space),,,,,,,,At --- ---- --- ------ ----- ------- ---- -- --- ------- --<br>------- ---------- ------ -- ----- -- ----- -- ---- ------<br>--- ----- --- --- ------ -------- ----- --- ------ ----- --<br>----- ----- ---------- --- --- ------ ------ ---- -- ------<br>------- --- ------ ----- --- ---- ------- -- ---- --- --<br>------- ------,327848.8000000119,327842,326986.087,326990.6999999881,327002.469,327852.116,,0,At
screen,html.Screen,2_1_1_1_1,2022-02-21T12:47:54.515Z,,,,,,,,,,,,,,,,,54,,,,,,,,,,,,,,502.48399996425724,,response,,,,100,,,,,,,Space,keypress(Space),,,,,,,,-- the ---- --- ------ ----- ------- ---- -- --- ------- --<br>------- ---------- ------ -- ----- -- ----- -- ---- ------<br>--- ----- --- --- ------ -------- ----- --- ------ ----- --<br>----- ----- ---------- --- --- ------ ------ ---- -- ------<br>------- --- ------ ----- --- ---- ------- -- ---- --- --<br>------- ------,328359,328354.59999996424,327835.958,327850,327852.116,328368.825,,1,the
screen,html.Screen,2_1_1_1_2,2022-02-21T12:47:54.921Z,,,,,,,,,,,,,,,,,54,,,,,,,,,,,,,,392.5749999761465,,response,,,,100,,,,,,,Space,keypress(Space),,,,,,,,-- --- time --- ------ ----- ------- ---- -- --- ------- --<br>------- ---------- ------ -- ----- -- ----- -- ---- ------<br>--- ----- --- --- ------ -------- ----- --- ------ ----- --<br>----- ----- ---------- --- --- ------ ------ ---- -- ------<br>------- --- ------ ----- --- ---- ------- -- ---- --- --<br>------- ------,328765.59999996424,328761.39999997616,328352.485,328360.5,328368.825,328785.513,,2,time
screen,html.Screen,2_1_1_1_3,2022-02-21T12:47:55.338Z,,,,,,,,,,,,,,,,,54,,,,,,,,,,,,,,392.88699997618096,,response,,,,100,,,,,,,Space,keypress(Space),,,,,,,,-- --- ---- the ------ ----- ------- ---- -- --- ------- --<br>------- ---------- ------ -- ----- -- ----- -- ---- ------<br>--- ----- --- --- ------ -------- ----- --- ------ ----- --<br>----- ----- ---------- --- --- ------ ------ ---- -- ------<br>------- --- ------ ----- --- ---- ------- -- ---- --- --<br>------- ------,329182.8000000119,329178.39999997616,328752.803,328766.59999996424,328785.513,329203.072,,3,the
screen,html.Screen,2_1_1_1_4,2022-02-21T12:47:55.751Z,,,,,,,,,,,,,,,,,54,,,,,,,,,,,,,,388.3279999761726,,response,,,,100,,,,,,,Space,keypress(Space),,,,,,,,-- --- ---- --- French ----- ------- ---- -- --- ------- --<br>------- ---------- ------ -- ----- -- ----- -- ---- ------<br>--- ----- --- --- ------ -------- ----- --- ------ ----- --<br>----- ----- ---------- --- --- ------ ------ ---- -- ------<br>------- --- ------ ----- --- ---- ------- -- ---- --- --<br>------- ------,329595.6999999881,329591.39999997616,329185.363,329183.8000000119,329203.072,329602.077,,4,French
screen,html.Screen,2_1_1_1_5,2022-02-21T12:47:56.274Z,,,,,,,,,,,,,,,,,54,,,,,,,,,,,,,,512.522999964247,,response,,,,100,,,,,,,Space,keypress(Space),,,,,,,,-- --- ---- --- ------ crown ------- ---- -- --- ------- --<br>------- ---------- ------ -- ----- -- ----- -- ---- ------<br>--- ----- --- --- ------ -------- ----- --- ------ ----- --<br>----- ----- ---------- --- --- ------ ------ ---- -- ------<br>------- --- ------ ----- --- ---- ------- -- ---- --- --<br>------- ------,330118.89999997616,330114.59999996424,329585.53,329596.8000000119,329602.077,330135.1,,5,crown
screen,html.Screen,2_1_1_1_6,2022-02-21T12:47:56.736Z,,,,,,,,,,,,,,,,,54,,,,,,,,,,,,,,440.9999999642605,,response,,,,100,,,,,,,Space,keypress(Space),,,,,,,,-- --- ---- --- ------ ----- secured ---- -- --- ------- --<br>------- ---------- ------ -- ----- -- ----- -- ---- ------<br>--- ----- --- --- ------ -------- ----- --- ------ ----- --<br>----- ----- ---------- --- --- ------ ------ ---- -- ------<br>------- --- ------ ----- --- ---- ------- -- ---- --- --<br>------- ------,330580.39999997616,330576.09999996424,330119.004,330120,330135.1,330584.978,,6,secured
screen,html.Screen,2_1_1_1_7,2022-02-21T12:47:57.279Z,,,,,,,,,,,,,,,,,54,,,,,,,,,,,,,,534.3220000119181,,response,,,,100,,,,,,,Space,keypress(Space),,,,,,,,-- --- ---- --- ------ ----- ------- much -- --- ------- --<br>------- ---------- ------ -- ----- -- ----- -- ---- ------<br>--- ----- --- --- ------ -------- ----- --- ------ ----- --<br>----- ----- ---------- --- --- ------ ------ ---- -- ------<br>------- --- ------ ----- --- ---- ------- -- ---- --- --<br>------- ------,331123.8000000119,331119.3000000119,330568.996,330581.5,330584.978,331135.156,,7,much
screen,html.Screen,2_1_1_1_8,2022-02-21T12:47:58.042Z,,,,,,,,,,,,,,,,,54,,,,,,,,,,,,,,747.1440000119037,,response,,,,100,,,,,,,Space,keypress(Space),,,,,,,,-- --- ---- --- ------ ----- ------- ---- of --- ------- --<br>------- ---------- ------ -- ----- -- ----- -- ---- ------<br>--- ----- --- --- ------ -------- ----- --- ------ ----- --<br>----- ----- ---------- --- --- ------ ------ ---- -- ------<br>------- --- ------ ----- --- ---- ------- -- ---- --- --<br>------- ------,331886.59999996424,331882.3000000119,331118.59,331124.8000000119,331135.156,331901.522,,8,of
screen,html.Screen,2_1_1_1_9,2022-02-21T12:47:58.470Z,,,,,,,,,,,,,,,,,54,,,,,,,,,,,,,,408.67799998808187,,response,,,,100,,,,,,,Space,keypress(Space),,,,,,,,-- --- ---- --- ------ ----- ------- ---- -- its ------- --<br>------- ---------- ------ -- ----- -- ----- -- ---- ------<br>--- ----- --- --- ------ -------- ----- --- ------ ----- --<br>----- ----- ---------- --- --- ------ ------ ---- -- ------<br>------- --- ------ ----- --- ---- ------- -- ---- --- --<br>------- ------,332314.6999999881,332310.1999999881,331885.195,331887.6999999881,331901.522,332351.679,,9,its
screen,html.Screen,2_1_1_1_10,2022-02-21T12:47:59.356Z,,,,,,,,,,,,,,,,,54,,,,,,,,,,,,,,846.5209999880753,,response,,,,100,,,,,,,Space,keypress(Space),,,,,,,,-- --- ---- --- ------ ----- ------- ---- -- --- revenue --<br>------- ---------- ------ -- ----- -- ----- -- ---- ------<br>--- ----- --- --- ------ -------- ----- --- ------ ----- --<br>----- ----- ---------- --- --- ------ ------ ---- -- ------<br>------- --- ------ ----- --- ---- ------- -- ---- --- --<br>------- ------,333200.09999996424,333198.1999999881,332335.237,332315.6999999881,332351.679,333217.846,,10,revenue
screen,html.Screen,2_1_1_1_11,2022-02-21T12:47:59.832Z,,,,,,,,,,,,,,,,,54,,,,,,,,,,,,,,453.5539999761386,,response,,,,100,,,,,,,Space,keypress(Space),,,,,,,,-- --- ---- --- ------ ----- ------- ---- -- --- ------- by<br>------- ---------- ------ -- ----- -- ----- -- ---- ------<br>--- ----- --- --- ------ -------- ----- --- ------ ----- --<br>----- ----- ---------- --- --- ------ ------ ---- -- ------<br>------- --- ------ ----- --- ---- ------- -- ---- --- --<br>------- ------,333676.3000000119,333671.39999997616,333185.059,333200.39999997616,333217.846,333684.558,,11,by
screen,html.Screen,2_1_1_1_12,2022-02-21T12:48:00.460Z,,,,,,,,,,,,,,,,,54,,,,,,,,,,,,,,615.64199998806,,response,,,,100,,,,,,,Space,keypress(Space),,,,,,,,-- --- ---- --- ------ ----- ------- ---- -- --- ------- --<br>issuing ---------- ------ -- ----- -- ----- -- ---- ------<br>--- ----- --- --- ------ -------- ----- --- ------ ----- --<br>----- ----- ---------- --- --- ------ ------ ---- -- ------<br>------- --- ------ ----- --- ---- ------- -- ---- --- --<br>------- ------,334304.5,334300.1999999881,333667.752,333677.5,333684.558,334318.071,,12,issuing
screen,html.Screen,2_1_1_1_13,2022-02-21T12:48:00.974Z,,,,,,,,,,,,,,,,,54,,,,,,,,,,,,,,496.52899996424094,,response,,,,100,,,,,,,Space,keypress(Space),,,,,,,,-- --- ---- --- ------ ----- ------- ---- -- --- ------- --<br>------- government ------ -- ----- -- ----- -- ---- ------<br>--- ----- --- --- ------ -------- ----- --- ------ ----- --<br>----- ----- ---------- --- --- ------ ------ ---- -- ------<br>------- --- ------ ----- --- ---- ------- -- ---- --- --<br>------- ------,334818.89999997616,334814.59999996424,334300.974,334306.5,334318.071,334834.377,,13,government
screen,html.Screen,2_1_1_1_14,2022-02-21T12:48:01.927Z,,,,,,,,,,,,,,,,,54,,,,,,,,,,,,,,933.2229999642586,,response,,,,100,,,,,,,Space,keypress(Space),,,,,,,,-- --- ---- --- ------ ----- ------- ---- -- --- ------- --<br>------- ---------- bonds. -- ----- -- ----- -- ---- ------<br>--- ----- --- --- ------ -------- ----- --- ------ ----- --<br>----- ----- ---------- --- --- ------ ------ ---- -- ------<br>------- --- ------ ----- --- ---- ------- -- ---- --- --<br>------- ------,335772,335767.59999996424,334818.285,334819.89999997616,334834.377,335784.394,,14,bonds.
screen,html.Screen,2_1_1_1_15,2022-02-21T12:48:02.382Z,,,,,,,,,,,,,,,,,54,,,,,,,,,,,,,,437.9060000119498,,response,,,,100,,,,,,,Space,keypress(Space),,,,,,,,-- --- ---- --- ------ ----- ------- ---- -- --- ------- --<br>------- ---------- ------ In ----- -- ----- -- ---- ------<br>--- ----- --- --- ------ -------- ----- --- ------ ----- --<br>----- ----- ---------- --- --- ------ ------ ---- -- ------<br>------- --- ------ ----- --- ---- ------- -- ---- --- --<br>------- ------,336226.8000000119,336222.3000000119,335767.85,335773.09999996424,335784.394,336234.348,,15,In
screen,html.Screen,2_1_1_1_16,2022-02-21T12:48:03.729Z,,,,,,,,,,,,,,,,,54,,,,,,,,,,,,,,1335.05199997616,,response,,,,100,,,,,,,Space,keypress(Space),,,,,,,,"-- --- ---- --- ------ ----- ------- ---- -- --- ------- --<br>------- ---------- ------ -- 1727, -- ----- -- ---- ------<br>--- ----- --- --- ------ -------- ----- --- ------ ----- --<br>----- ----- ---------- --- --- ------ ------ ---- -- ------<br>------- --- ------ ----- --- ---- ------- -- ---- --- --<br>------- ------",337573.8000000119,337569.39999997616,336217.917,336227.89999997616,336234.348,337584.109,,16,"1727,"
screen,html.Screen,2_1_1_1_17,2022-02-21T12:48:04.162Z,,,,,,,,,,,,,,,,,54,,,,,,,,,,,,,,417.89100000000326,,response,,,,100,,,,,,,Space,keypress(Space),,,,,,,,-- --- ---- --- ------ ----- ------- ---- -- --- ------- --<br>------- ---------- ------ -- ----- in ----- -- ---- ------<br>--- ----- --- --- ------ -------- ----- --- ------ ----- --<br>----- ----- ---------- --- --- ------ ------ ---- -- ------<br>------- --- ------ ----- --- ---- ------- -- ---- --- --<br>------- ------,338006.8000000119,338002,337567.544,337574.89999997616,337584.109,338017.389,,17,in
screen,html.Screen,2_1_1_1_18,2022-02-21T12:48:04.571Z,,,,,,,,,,,,,,,,,54,,,,,,,,,,,,,,394.01099997613346,,response,,,,100,,,,,,,Space,keypress(Space),,,,,,,,-- --- ---- --- ------ ----- ------- ---- -- --- ------- --<br>------- ---------- ------ -- ----- -- order -- ---- ------<br>--- ----- --- --- ------ -------- ----- --- ------ ----- --<br>----- ----- ---------- --- --- ------ ------ ---- -- ------<br>------- --- ------ ----- --- ---- ------- -- ---- --- --<br>------- ------,338415.6999999881,338411.39999997616,338000.949,338007.89999997616,338017.389,338434.653,,18,order
screen,html.Screen,2_1_1_1_19,2022-02-21T12:48:04.965Z,,,,,,,,,,,,,,,,,54,,,,,,,,,,,,,,370.6470000119298,,response,,,,100,,,,,,,Space,keypress(Space),,,,,,,,-- --- ---- --- ------ ----- ------- ---- -- --- ------- --<br>------- ---------- ------ -- ----- -- ----- to ---- ------<br>--- ----- --- --- ------ -------- ----- --- ------ ----- --<br>----- ----- ---------- --- --- ------ ------ ---- -- ------<br>------- --- ------ ----- --- ---- ------- -- ---- --- --<br>------- ------,338809.6999999881,338805.3000000119,338417.604,338417,338434.653,338817.057,,19,to
screen,html.Screen,2_1_1_1_20,2022-02-21T12:48:05.382Z,,,,,,,,,,,,,,,,,54,,,,,,,,,,,,,,405.1429999881075,,response,,,,100,,,,,,,Space,keypress(Space),,,,,,,,-- --- ---- --- ------ ----- ------- ---- -- --- ------- --<br>------- ---------- ------ -- ----- -- ----- -- save ------<br>--- ----- --- --- ------ -------- ----- --- ------ ----- --<br>----- ----- ---------- --- --- ------ ------ ---- -- ------<br>------- --- ------ ----- --- ---- ------- -- ---- --- --<br>------- ------,339226.59999996424,339222.1999999881,338800.745,338810.8000000119,338817.057,339233.937,,20,save
screen,html.Screen,2_1_1_1_21,2022-02-21T12:48:05.837Z,,,,,,,,,,,,,,,,,54,,,,,,,,,,,,,,443.4629999761819,,response,,,,100,,,,,,,Space,keypress(Space),,,,,,,,"-- --- ---- --- ------ ----- ------- ---- -- --- ------- --<br>------- ---------- ------ -- ----- -- ----- -- ---- money,<br>--- ----- --- --- ------ -------- ----- --- ------ ----- --<br>----- ----- ---------- --- --- ------ ------ ---- -- ------<br>------- --- ------ ----- --- ---- ------- -- ---- --- --<br>------- ------",339681.8000000119,339677.39999997616,339217.295,339227.59999996424,339233.937,339700.572,,21,"money,"
screen,html.Screen,2_1_1_1_22,2022-02-21T12:48:06.254Z,,,,,,,,,,,,,,,,,54,,,,,,,,,,,,,,393.8279999761726,,response,,,,100,,,,,,,Space,keypress(Space),,,,,,,,-- --- ---- --- ------ ----- ------- ---- -- --- ------- --<br>------- ---------- ------ -- ----- -- ----- -- ---- ------<br>the ----- --- --- ------ -------- ----- --- ------ ----- --<br>----- ----- ---------- --- --- ------ ------ ---- -- ------<br>------- --- ------ ----- --- ---- ------- -- ---- --- --<br>------- ------,340098.59999996424,340094.39999997616,339683.759,339683.1999999881,339700.572,340116.843,,22,the
screen,html.Screen,2_1_1_1_23,2022-02-21T12:48:06.781Z,,,,,,,,,,,,,,,,,54,,,,,,,,,,,,,,504.3569999880856,,response,,,,100,,,,,,,Space,keypress(Space),,,,,,,,-- --- ---- --- ------ ----- ------- ---- -- --- ------- --<br>------- ---------- ------ -- ----- -- ----- -- ---- ------<br>--- state --- --- ------ -------- ----- --- ------ ----- --<br>----- ----- ---------- --- --- ------ ------ ---- -- ------<br>------- --- ------ ----- --- ---- ------- -- ---- --- --<br>------- ------,340625.5,340621.1999999881,340100.745,340099.8000000119,340116.843,340633.712,,23,state
screen,html.Screen,2_1_1_1_24,2022-02-21T12:48:07.461Z,,,,,,,,,,,,,,,,,54,,,,,,,,,,,,,,666.8879999642377,,response,,,,100,,,,,,,Space,keypress(Space),,,,,,,,-- --- ---- --- ------ ----- ------- ---- -- --- ------- --<br>------- ---------- ------ -- ----- -- ----- -- ---- ------<br>--- ----- cut --- ------ -------- ----- --- ------ ----- --<br>----- ----- ---------- --- --- ------ ------ ---- -- ------<br>------- --- ------ ----- --- ---- ------- -- ---- --- --<br>------- ------,341305.09999996424,341300.59999996424,340617.111,340626.59999996424,340633.712,341316.996,,24,cut
screen,html.Screen,2_1_1_1_25,2022-02-21T12:48:07.896Z,,,,,,,,,,,,,,,,,54,,,,,,,,,,,,,,419.1039999642526,,response,,,,100,,,,,,,Space,keypress(Space),,,,,,,,-- --- ---- --- ------ ----- ------- ---- -- --- ------- --<br>------- ---------- ------ -- ----- -- ----- -- ---- ------<br>--- ----- --- the ------ -------- ----- --- ------ ----- --<br>----- ----- ---------- --- --- ------ ------ ---- -- ------<br>------- --- ------ ----- --- ---- ------- -- ---- --- --<br>------- ------,341740,341736.09999996424,341300.051,341306.09999996424,341316.996,341750.148,,25,the
screen,html.Screen,2_1_1_1_26,2022-02-21T12:48:08.353Z,,,,,,,,,,,,,,,,,54,,,,,,,,,,,,,,443.15200001193443,,response,,,,100,,,,,,,Space,keypress(Space),,,,,,,,-- --- ---- --- ------ ----- ------- ---- -- --- ------- --<br>------- ---------- ------ -- ----- -- ----- -- ---- ------<br>--- ----- --- --- bonds' -------- ----- --- ------ ----- --<br>----- ----- ---------- --- --- ------ ------ ---- -- ------<br>------- --- ------ ----- --- ---- ------- -- ---- --- --<br>------- ------,342197.5,342193.3000000119,341733.833,341741,341750.148,342233.178,,26,bonds'
screen,html.Screen,2_1_1_1_27,2022-02-21T12:48:08.976Z,,,,,,,,,,,,,,,,,54,,,,,,,,,,,,,,583.0219999880646,,response,,,,100,,,,,,,Space,keypress(Space),,,,,,,,-- --- ---- --- ------ ----- ------- ---- -- --- ------- --<br>------- ---------- ------ -- ----- -- ----- -- ---- ------<br>--- ----- --- --- ------ interest ----- --- ------ ----- --<br>----- ----- ---------- --- --- ------ ------ ---- -- ------<br>------- --- ------ ----- --- ---- ------- -- ---- --- --<br>------- ------,342820.6999999881,342816.1999999881,342217.196,342198.5,342233.178,342833.345,,27,interest
screen,html.Screen,2_1_1_1_28,2022-02-21T12:48:09.435Z,,,,,,,,,,,,,,,,,54,,,,,,,,,,,,,,441.854999988107,,response,,,,100,,,,,,,Space,keypress(Space),,,,,,,,-- --- ---- --- ------ ----- ------- ---- -- --- ------- --<br>------- ---------- ------ -- ----- -- ----- -- ---- ------<br>--- ----- --- --- ------ -------- rate. --- ------ ----- --<br>----- ----- ---------- --- --- ------ ------ ---- -- ------<br>------- --- ------ ----- --- ---- ------- -- ---- --- --<br>------- ------,343279.59999996424,343275.1999999881,342816.997,342821.6999999881,342833.345,343299.678,,28,rate.
screen,html.Screen,2_1_1_1_29,2022-02-21T12:48:09.907Z,,,,,,,,,,,,,,,,,54,,,,,,,,,,,,,,447.32199999998556,,response,,,,100,,,,,,,Space,keypress(Space),,,,,,,,-- --- ---- --- ------ ----- ------- ---- -- --- ------- --<br>------- ---------- ------ -- ----- -- ----- -- ---- ------<br>--- ----- --- --- ------ -------- ----- The ------ ----- --<br>----- ----- ---------- --- --- ------ ------ ---- -- ------<br>------- --- ------ ----- --- ---- ------- -- ---- --- --<br>------- ------,343751.6999999881,343747,343266.906,343280.8000000119,343299.678,343766.566,,29,The
screen,html.Screen,2_1_1_1_30,2022-02-21T12:48:10.388Z,,,,,,,,,,,,,,,,,54,,,,,,,,,,,,,,461.4340000000084,,response,,,,100,,,,,,,Space,keypress(Space),,,,,,,,-- --- ---- --- ------ ----- ------- ---- -- --- ------- --<br>------- ---------- ------ -- ----- -- ----- -- ---- ------<br>--- ----- --- --- ------ -------- ----- --- market ----- --<br>----- ----- ---------- --- --- ------ ------ ---- -- ------<br>------- --- ------ ----- --- ---- ------- -- ---- --- --<br>------- ------,344232.5,344228,343750.061,343752.8000000119,343766.566,344249.531,,30,market
screen,html.Screen,2_1_1_1_31,2022-02-21T12:48:10.906Z,,,,,,,,,,,,,,,,,54,,,,,,,,,,,,,,496.66899998806184,,response,,,,100,,,,,,,Space,keypress(Space),,,,,,,,-- --- ---- --- ------ ----- ------- ---- -- --- ------- --<br>------- ---------- ------ -- ----- -- ----- -- ---- ------<br>--- ----- --- --- ------ -------- ----- --- ------ value --<br>----- ----- ---------- --- --- ------ ------ ---- -- ------<br>------- --- ------ ----- --- ---- ------- -- ---- --- --<br>------- ------,344750.89999997616,344746.1999999881,344232.983,344233.59999996424,344249.531,344766.111,,31,value
screen,html.Screen,2_1_1_1_32,2022-02-21T12:48:11.493Z,,,,,,,,,,,,,,,,,54,,,,,,,,,,,,,,566.4889999642619,,response,,,,100,,,,,,,Space,keypress(Space),,,,,,,,-- --- ---- --- ------ ----- ------- ---- -- --- ------- --<br>------- ---------- ------ -- ----- -- ----- -- ---- ------<br>--- ----- --- --- ------ -------- ----- --- ------ ----- of<br>----- ----- ---------- --- --- ------ ------ ---- -- ------<br>------- --- ------ ----- --- ---- ------- -- ---- --- --<br>------- ------,345337.6999999881,345332.59999996424,344750.058,344751.89999997616,344766.111,345349.413,,32,of
screen,html.Screen,2_1_1_1_33,2022-02-21T12:48:11.925Z,,,,,,,,,,,,,,,,,54,,,,,,,,,,,,,,415.18699996423675,,response,,,,100,,,,,,,Space,keypress(Space),,,,,,,,-- --- ---- --- ------ ----- ------- ---- -- --- ------- --<br>------- ---------- ------ -- ----- -- ----- -- ---- ------<br>--- ----- --- --- ------ -------- ----- --- ------ ----- --<br>these ----- ---------- --- --- ------ ------ ---- -- ------<br>------- --- ------ ----- --- ---- ------- -- ---- --- --<br>------- ------,345769.1999999881,345764.59999996424,345333.281,345338.8000000119,345349.413,345782.77,,33,these
screen,html.Screen,2_1_1_1_34,2022-02-21T12:48:12.391Z,,,,,,,,,,,,,,,,,54,,,,,,,,,,,,,,447.5300000119023,,response,,,,100,,,,,,,Space,keypress(Space),,,,,,,,-- --- ---- --- ------ ----- ------- ---- -- --- ------- --<br>------- ---------- ------ -- ----- -- ----- -- ---- ------<br>--- ----- --- --- ------ -------- ----- --- ------ ----- --<br>----- bonds ---------- --- --- ------ ------ ---- -- ------<br>------- --- ------ ----- --- ---- ------- -- ---- --- --<br>------- ------,346235.09999996424,346230.3000000119,345766.683,345770.1999999881,345782.77,346249.223,,34,bonds
screen,html.Screen,2_1_1_1_35,2022-02-21T12:48:12.852Z,,,,,,,,,,,,,,,,,54,,,,,,,,,,,,,,442.67699997616,,response,,,,100,,,,,,,Space,keypress(Space),,,,,,,,"-- --- ---- --- ------ ----- ------- ---- -- --- ------- --<br>------- ---------- ------ -- ----- -- ----- -- ---- ------<br>--- ----- --- --- ------ -------- ----- --- ------ ----- --<br>----- ----- plummeted, --- --- ------ ------ ---- -- ------<br>------- --- ------ ----- --- ---- ------- -- ---- --- --<br>------- ------",346696.1999999881,346691.89999997616,346232.951,346236.09999996424,346249.223,346715.884,,35,"plummeted,"
screen,html.Screen,2_1_1_1_36,2022-02-21T12:48:13.334Z,,,,,,,,,,,,,,,,,54,,,,,,,,,,,,,,457.7159999642172,,response,,,,100,,,,,,,Space,keypress(Space),,,,,,,,-- --- ---- --- ------ ----- ------- ---- -- --- ------- --<br>------- ---------- ------ -- ----- -- ----- -- ---- ------<br>--- ----- --- --- ------ -------- ----- --- ------ ----- --<br>----- ----- ---------- and --- ------ ------ ---- -- ------<br>------- --- ------ ----- --- ---- ------- -- ---- --- --<br>------- ------,347178.09999996424,347173.59999996424,346699.272,346697.1999999881,346715.884,347211.561,,36,and
screen,html.Screen,2_1_1_1_37,2022-02-21T12:48:13.756Z,,,,,,,,,,,,,,,,,54,,,,,,,,,,,,,,384.93900000001304,,response,,,,100,,,,,,,Space,keypress(Space),,,,,,,,-- --- ---- --- ------ ----- ------- ---- -- --- ------- --<br>------- ---------- ------ -- ----- -- ----- -- ---- ------<br>--- ----- --- --- ------ -------- ----- --- ------ ----- --<br>----- ----- ---------- --- the ------ ------ ---- -- ------<br>------- --- ------ ----- --- ---- ------- -- ---- --- --<br>------- ------,347601,347596.5,347166.273,347179.09999996424,347211.561,347615.665,,37,the
screen,html.Screen,2_1_1_1_38,2022-02-21T12:48:14.200Z,,,,,,,,,,,,,,,,,54,,,,,,,,,,,,,,424.1350000119419,,response,,,,100,,,,,,,Space,keypress(Space),,,,,,,,-- --- ---- --- ------ ----- ------- ---- -- --- ------- --<br>------- ---------- ------ -- ----- -- ----- -- ---- ------<br>--- ----- --- --- ------ -------- ----- --- ------ ----- --<br>----- ----- ---------- --- --- market ------ ---- -- ------<br>------- --- ------ ----- --- ---- ------- -- ---- --- --<br>------- ------,348044.3000000119,348039.8000000119,347599.453,347602.09999996424,347615.665,348049.007,,38,market
screen,html.Screen,2_1_1_1_39,2022-02-21T12:48:14.646Z,,,,,,,,,,,,,,,,,54,,,,,,,,,,,,,,437.592999964254,,response,,,,100,,,,,,,Space,keypress(Space),,,,,,,,-- --- ---- --- ------ ----- ------- ---- -- --- ------- --<br>------- ---------- ------ -- ----- -- ----- -- ---- ------<br>--- ----- --- --- ------ -------- ----- --- ------ ----- --<br>----- ----- ---------- --- --- ------ became ---- -- ------<br>------- --- ------ ----- --- ---- ------- -- ---- --- --<br>------- ------,348491,348486.59999996424,348032.808,348045.5,348049.007,348499.096,,39,became
screen,html.Screen,2_1_1_1_40,2022-02-21T12:48:15.027Z,,,,,,,,,,,,,,,,,54,,,,,,,,,,,,,,368.00399996421766,,response,,,,100,,,,,,,Space,keypress(Space),,,,,,,,-- --- ---- --- ------ ----- ------- ---- -- --- ------- --<br>------- ---------- ------ -- ----- -- ----- -- ---- ------<br>--- ----- --- --- ------ -------- ----- --- ------ ----- --<br>----- ----- ---------- --- --- ------ ------ wary -- ------<br>------- --- ------ ----- --- ---- ------- -- ---- --- --<br>------- ------,348871.5,348867.09999996424,348482.541,348492,348499.096,348882.394,,40,wary
screen,html.Screen,2_1_1_1_41,2022-02-21T12:48:15.536Z,,,,,,,,,,,,,,,,,54,,,,,,,,,,,,,,493.60600000002887,,response,,,,100,,,,,,,Space,keypress(Space),,,,,,,,-- --- ---- --- ------ ----- ------- ---- -- --- ------- --<br>------- ---------- ------ -- ----- -- ----- -- ---- ------<br>--- ----- --- --- ------ -------- ----- --- ------ ----- --<br>----- ----- ---------- --- --- ------ ------ ---- of ------<br>------- --- ------ ----- --- ---- ------- -- ---- --- --<br>------- ------,349380.39999997616,349376,348865.575,348872.59999996424,348882.394,349399.999,,41,of
screen,html.Screen,2_1_1_1_42,2022-02-21T12:48:16.009Z,,,,,,,,,,,,,,,,,54,,,,,,,,,,,,,,448.8010000119102,,response,,,,100,,,,,,,Space,keypress(Space),,,,,,,,-- --- ---- --- ------ ----- ------- ---- -- --- ------- --<br>------- ---------- ------ -- ----- -- ----- -- ---- ------<br>--- ----- --- --- ------ -------- ----- --- ------ ----- --<br>----- ----- ---------- --- --- ------ ------ ---- -- French<br>------- --- ------ ----- --- ---- ------- -- ---- --- --<br>------- ------,349853.6999999881,349848.8000000119,349382.729,349381.39999997616,349399.999,349865.581,,42,French
screen,html.Screen,2_1_1_1_43,2022-02-21T12:48:16.579Z,,,,,,,,,,,,,,,,,54,,,,,,,,,,,,,,553.0189999642316,,response,,,,100,,,,,,,Space,keypress(Space),,,,,,,,-- --- ---- --- ------ ----- ------- ---- -- --- ------- --<br>------- ---------- ------ -- ----- -- ----- -- ---- ------<br>--- ----- --- --- ------ -------- ----- --- ------ ----- --<br>----- ----- ---------- --- --- ------ ------ ---- -- ------<br>credit. --- ------ ----- --- ---- ------- -- ---- --- --<br>------- ------,350423.09999996424,350418.59999996424,349849.014,349854.6999999881,349865.581,350432.177,,43,credit.
screen,html.Screen,2_1_1_1_44,2022-02-21T12:48:17.054Z,,,,,,,,,,,,,,,,,54,,,,,,,,,,,,,,461.92299996421207,,response,,,,100,,,,,,,Space,keypress(Space),,,,,,,,-- --- ---- --- ------ ----- ------- ---- -- --- ------- --<br>------- ---------- ------ -- ----- -- ----- -- ---- ------<br>--- ----- --- --- ------ -------- ----- --- ------ ----- --<br>----- ----- ---------- --- --- ------ ------ ---- -- ------<br>------- The ------ ----- --- ---- ------- -- ---- --- --<br>------- ------,350898.59999996424,350894.09999996424,350415.557,350424.09999996424,350432.177,350915.209,,44,The
screen,html.Screen,2_1_1_1_45,2022-02-21T12:48:17.482Z,,,,,,,,,,,,,,,,,54,,,,,,,,,,,,,,406.89099996426376,,response,,,,100,,,,,,,Space,keypress(Space),,,,,,,,-- --- ---- --- ------ ----- ------- ---- -- --- ------- --<br>------- ---------- ------ -- ----- -- ----- -- ---- ------<br>--- ----- --- --- ------ -------- ----- --- ------ ----- --<br>----- ----- ---------- --- --- ------ ------ ---- -- ------<br>------- --- French ----- --- ---- ------- -- ---- --- --<br>------- ------,351326.39999997616,351322.09999996424,350898.856,350899.59999996424,350915.209,351331.732,,45,French
screen,html.Screen,2_1_1_1_46,2022-02-21T12:48:17.988Z,,,,,,,,,,,,,,,,,54,,,,,,,,,,,,,,499.66799997614,,response,,,,100,,,,,,,Space,keypress(Space),,,,,,,,-- --- ---- --- ------ ----- ------- ---- -- --- ------- --<br>------- ---------- ------ -- ----- -- ----- -- ---- ------<br>--- ----- --- --- ------ -------- ----- --- ------ ----- --<br>----- ----- ---------- --- --- ------ ------ ---- -- ------<br>------- --- ------ state --- ---- ------- -- ---- --- --<br>------- ------,351832.89999997616,351831.39999997616,351315.559,351327.89999997616,351331.732,351848.251,,46,state
screen,html.Screen,2_1_1_1_47,2022-02-21T12:48:18.445Z,,,,,,,,,,,,,,,,,54,,,,,,,,,,,,,,439.14899997616885,,response,,,,100,,,,,,,Space,keypress(Space),,,,,,,,-- --- ---- --- ------ ----- ------- ---- -- --- ------- --<br>------- ---------- ------ -- ----- -- ----- -- ---- ------<br>--- ----- --- --- ------ -------- ----- --- ------ ----- --<br>----- ----- ---------- --- --- ------ ------ ---- -- ------<br>------- --- ------ ----- was ---- ------- -- ---- --- --<br>------- ------,352289.6999999881,352287.39999997616,351832.018,351833.09999996424,351848.251,352298.259,,47,was
screen,html.Screen,2_1_1_1_48,2022-02-21T12:48:18.944Z,,,,,,,,,,,,,,,,,54,,,,,,,,,,,,,,487.24099999998,,response,,,,100,,,,,,,Space,keypress(Space),,,,,,,,-- --- ---- --- ------ ----- ------- ---- -- --- ------- --<br>------- ---------- ------ -- ----- -- ----- -- ---- ------<br>--- ----- --- --- ------ -------- ----- --- ------ ----- --<br>----- ----- ---------- --- --- ------ ------ ---- -- ------<br>------- --- ------ ----- --- left ------- -- ---- --- --<br>------- ------,352788.5,352785.5,352281.471,352290.3000000119,352298.259,352798.63,,48,left
screen,html.Screen,2_1_1_1_49,2022-02-21T12:48:19.433Z,,,,,,,,,,,,,,,,,54,,,,,,,,,,,,,,476.96999996423256,,response,,,,100,,,,,,,Space,keypress(Space),,,,,,,,-- --- ---- --- ------ ----- ------- ---- -- --- ------- --<br>------- ---------- ------ -- ----- -- ----- -- ---- ------<br>--- ----- --- --- ------ -------- ----- --- ------ ----- --<br>----- ----- ---------- --- --- ------ ------ ---- -- ------<br>------- --- ------ ----- --- ---- without -- ---- --- --<br>------- ------,353277.8000000119,353275.59999996424,352781.396,352789.1999999881,352798.63,353281.367,,49,without
screen,html.Screen,2_1_1_1_50,2022-02-21T12:48:19.993Z,,,,,,,,,,,,,,,,,54,,,,,,,,,,,,,,551.9330000118935,,response,,,,100,,,,,,,Space,keypress(Space),,,,,,,,-- --- ---- --- ------ ----- ------- ---- -- --- ------- --<br>------- ---------- ------ -- ----- -- ----- -- ---- ------<br>--- ----- --- --- ------ -------- ----- --- ------ ----- --<br>----- ----- ---------- --- --- ------ ------ ---- -- ------<br>------- --- ------ ----- --- ---- ------- an ---- --- --<br>------- ------,353837.09999996424,353833.3000000119,353264.647,353278.1999999881,353281.367,353848.189,,50,an
screen,html.Screen,2_1_1_1_51,2022-02-21T12:48:20.598Z,,,,,,,,,,,,,,,,,54,,,,,,,,,,,,,,589.810999999987,,response,,,,100,,,,,,,Space,keypress(Space),,,,,,,,-- --- ---- --- ------ ----- ------- ---- -- --- ------- --<br>------- ---------- ------ -- ----- -- ----- -- ---- ------<br>--- ----- --- --- ------ -------- ----- --- ------ ----- --<br>----- ----- ---------- --- --- ------ ------ ---- -- ------<br>------- --- ------ ----- --- ---- ------- -- easy --- --<br>------- ------,354442.89999997616,354438,353831.756,353838.09999996424,353848.189,354447.89,,51,easy
screen,html.Screen,2_1_1_1_52,2022-02-21T12:48:21.256Z,,,,,,,,,,,,,,,,,54,,,,,,,,,,,,,,648.2099999642232,,response,,,,100,,,,,,,Space,keypress(Space),,,,,,,,-- --- ---- --- ------ ----- ------- ---- -- --- ------- --<br>------- ---------- ------ -- ----- -- ----- -- ---- ------<br>--- ----- --- --- ------ -------- ----- --- ------ ----- --<br>----- ----- ---------- --- --- ------ ------ ---- -- ------<br>------- --- ------ ----- --- ---- ------- -- ---- way --<br>------- ------,355100.6999999881,355096.09999996424,354431.359,354444,354447.89,355114.703,,52,way
screen,html.Screen,2_1_1_1_53,2022-02-21T12:48:21.853Z,,,,,,,,,,,,,,,,,54,,,,,,,,,,,,,,578.5970000119414,,response,,,,100,,,,,,,Space,keypress(Space),,,,,,,,-- --- ---- --- ------ ----- ------- ---- -- --- ------- --<br>------- ---------- ------ -- ----- -- ----- -- ---- ------<br>--- ----- --- --- ------ -------- ----- --- ------ ----- --<br>----- ----- ---------- --- --- ------ ------ ---- -- ------<br>------- --- ------ ----- --- ---- ------- -- ---- --- of<br>------- ------,355697.5,355693.3000000119,355097.803,355101.8000000119,355114.703,355714.787,,53,of
screen,html.Screen,2_1_1_1_54,2022-02-21T12:48:22.291Z,,,,,,,,,,,,,,,,,54,,,,,,,,,,,,,,416.4129999880679,,response,,,,100,,,,,,,Space,keypress(Space),,,,,,,,-- --- ---- --- ------ ----- ------- ---- -- --- ------- --<br>------- ---------- ------ -- ----- -- ----- -- ---- ------<br>--- ----- --- --- ------ -------- ----- --- ------ ----- --<br>----- ----- ---------- --- --- ------ ------ ---- -- ------<br>------- --- ------ ----- --- ---- ------- -- ---- --- --<br>raising ------,356135.6999999881,356131.1999999881,355697.99,355698.59999996424,355714.787,356147.696,,54,raising
screen,html.Screen,2_1_1_1_55,2022-02-21T12:48:23.608Z,,,,,,,,,,,,,,,,,54,,,,,,,,,,,,,,1299.8040000000037,,response,,,,100,,,,,,,Space,keypress(Space),,,,,,,,-- --- ---- --- ------ ----- ------- ---- -- --- ------- --<br>------- ---------- ------ -- ----- -- ----- -- ---- ------<br>--- ----- --- --- ------ -------- ----- --- ------ ----- --<br>----- ----- ---------- --- --- ------ ------ ---- -- ------<br>------- --- ------ ----- --- ---- ------- -- ---- --- --<br>------- money.,357452.09999996424,357447.5,356131.52,356136.8000000119,356147.696,357497.623,,55,money.
Item 100,flow.Loop,2_1_1_1,2022-02-21T12:48:23.610Z,,,,,,,,,,,,,,,,,,,,,,,,,,,,,,,30445.031000000017,,completion,,,,,C,,,,,,,,,,,silence,,,,,357454.09999996424,357447.5,326986.087,326990.09999996424,327002.469,357497.623,,,
Question 1,html.Screen,2_1_1_2,2022-02-21T12:48:27.616Z,,,,,,,,,,,,,,,,,,,,,,,,,,,,true,TRUE,,3959.7769999761367,,response,,,,100,C,,,,,,TRUE,click #choice-1,,,,silence,,,,,361460.6999999881,361457.39999997616,357447.844,357455.3000000119,357497.623,361463.795,,,
Question 2,html.Screen,2_1_1_3,2022-02-21T12:48:32.446Z,,,,,,,,,,,,,,,,,,,,,,,,,,,,true,FALSE,,4823.205000000016,,response,,,,100,C,,,,,,FALSE,click #choice-2,,,,silence,,,,,366290.1999999881,366287,361447.371,361461.09999996424,361463.795,366296.171,,,
Item 100,flow.Sequence,2_1_1,2022-02-21T12:48:32.446Z,,,,,,,,,,,,,,,,,,,,,,,,,,,,,,,49283.235999999975,,completion,,,,,,,,,,,,,,,,,,,,,366290.89999997616,366287,316970.953,316983.1999999881,317003.764,366296.171,,,
End of Practice,html.Page,2_1_2,2022-02-21T12:48:39.294Z,,,,,,,,,,,,,,,,,,,,,,,,,,,,,,,6841.028999988106,,form submission,,,,,,,,,,,,,,,,,,,,,373138.09999996424,373137.1999999881,366279.613,366291.09999996424,366296.171,373144.896,,,
Practice,flow.Sequence,2_1,2022-02-21T12:48:39.294Z,,,,,,,,,,,,,,,,,,,,,,,,,,,,,,,130155.07699998809,,completion,,,,,,,,,,,,,,,,,,,,,373138.6999999881,373137.1999999881,242965.684,242970.89999997616,242982.123,373144.896,,,
Trap_instruction,html.Page,2_2_0,2022-02-21T12:48:44.440Z,,,,,,,,,,,,,,,,,,,,,,,,,,,,,,,5138.803999988071,,form submission,,,,,,,,,,,,,,,,,,,,,378284.39999997616,378283.6999999881,373128.737,373139.1999999881,373144.896,378360.711,,,
trap_trial,html.Screen,2_2_1,2022-02-21T12:48:49.739Z,,,,,,,,,,,,,,,,,,,,,,,,,,,,true,1,,5220.388999964227,,response,,,,,,,,,,,1,click #choice-1,,,,,,,,,383584,383581.09999996424,378277.648,378284.89999997616,378360.711,383593.25,,,
end of trap trial,html.Page,2_2_2,2022-02-21T12:48:52.658Z,,,,,,,,,,,,,,,,,,,,,,,,,,,,,,,2908.349999964237,,form submission,,,,,,,,,,,,,,,,,,,,,386502.39999997616,386501.59999996424,383576.677,383584.3000000119,383593.25,386510.616,,,
Trap 1,flow.Sequence,2_2,2022-02-21T12:48:52.659Z,,,,,,,,,,,,,,,,,,,,,,,,,,,,,,,13356.70399996423,,completion,,,,,,,,,,,,,,,,,,,,,386503,386501.59999996424,373128.737,373139.09999996424,373144.896,386510.616,,,
Standby,html.Page,2_3_0,2022-02-21T12:49:00.652Z,,,,,,,,,,,,,,,,,,,,,,,,,,,,,,,8014.458000000042,,timeout,,,,,,,,,,,,,,,,,,,,,394496,394491.767,386492.805,386503.5,386510.616,394525.074,,,
Holding screen,html.Screen,2_3_1_0_0,2022-02-21T12:49:07.667Z,,,,,,,,,,,,,,,,,,,,,,,,,,,,,,,6998.65499999997,,timeout,,,,,,,,,,,,,,,,,,,,,401511.39999997616,401507.161,394491.767,394498,394525.074,401523.729,,,
screen,html.Screen,2_3_1_0_1_0,2022-02-21T12:49:08.416Z,,,,,,,,,,,,,,,,,15,,,,,,,,,,,,,,726.3709999642451,,response,,,,7,C,,,,,,Space,keypress(Space),,,,instrumental,,,,Greg --------- ---------- - --- ------- -- --- ------------<br>----- -- -------- ------- ---- ------ - -------- ---- -----<br>--- ------- ---- -- --- -------- --- - ----- ------ ---- --<br>-------- --- -------- -------- --- -------- ---- -- ----- -<br>-------- ---- --- ---------- --------- -- ------- ------ -<br>--------- ----- -----,402260.09999996424,402250.09999996424,401507.161,401512.59999996424,401523.729,402257.022,,0,Greg
screen,html.Screen,2_3_1_0_1_1,2022-02-21T12:49:08.825Z,,,,,,,,,,,,,,,,,15,,,,,,,,,,,,,,407.7780000119237,,response,,,,7,C,,,,,,Space,keypress(Space),,,,instrumental,,,,"---- Anderson, ---------- - --- ------- -- --- ------------<br>----- -- -------- ------- ---- ------ - -------- ---- -----<br>--- ------- ---- -- --- -------- --- - ----- ------ ---- --<br>-------- --- -------- -------- --- -------- ---- -- ----- -<br>-------- ---- --- ---------- --------- -- ------- ------ -<br>--------- ----- -----",402669.3000000119,402664.8000000119,402240.569,402261.3000000119,402257.022,402699.674,,1,"Anderson,"
screen,html.Screen,2_3_1_0_1_2,2022-02-21T12:49:09.340Z,,,,,,,,,,,,,,,,,15,,,,,,,,,,,,,,479.32600000000093,,response,,,,7,C,,,,,,Space,keypress(Space),,,,instrumental,,,,---- --------- considered - --- ------- -- --- ------------<br>----- -- -------- ------- ---- ------ - -------- ---- -----<br>--- ------- ---- -- --- -------- --- - ----- ------ ---- --<br>-------- --- -------- -------- --- -------- ---- -- ----- -<br>-------- ---- --- ---------- --------- -- ------- ------ -<br>--------- ----- -----,403184.5,403179,402657.094,402670.39999997616,402699.674,403190.212,,2,considered
screen,html.Screen,2_3_1_0_1_3,2022-02-21T12:49:09.784Z,,,,,,,,,,,,,,,,,15,,,,,,,,,,,,,,433.98799998807954,,response,,,,7,C,,,,,,Space,keypress(Space),,,,instrumental,,,,---- --------- ---------- a --- ------- -- --- ------------<br>----- -- -------- ------- ---- ------ - -------- ---- -----<br>--- ------- ---- -- --- -------- --- - ----- ------ ---- --<br>-------- --- -------- -------- --- -------- ---- -- ----- -<br>-------- ---- --- ---------- --------- -- ------- ------ -<br>--------- ----- -----,403628.8000000119,403624.1999999881,403173.909,403185.59999996424,403190.212,403640.373,,3,a
screen,html.Screen,2_3_1_0_1_4,2022-02-21T12:49:10.200Z,,,,,,,,,,,,,,,,,15,,,,,,,,,,,,,,398.0269999761367,,response,,,,7,C,,,,,,Space,keypress(Space),,,,instrumental,,,,---- --------- ---------- - key ------- -- --- ------------<br>----- -- -------- ------- ---- ------ - -------- ---- -----<br>--- ------- ---- -- --- -------- --- - ----- ------ ---- --<br>-------- --- -------- -------- --- -------- ---- -- ----- -<br>-------- ---- --- ---------- --------- -- ------- ------ -<br>--------- ----- -----,404044.39999997616,404038.39999997616,403623.815,403629.89999997616,403640.373,404057.034,,4,key
screen,html.Screen,2_3_1_0_1_5,2022-02-21T12:49:10.670Z,,,,,,,,,,,,,,,,,15,,,,,,,,,,,,,,448.9660000000149,,response,,,,7,C,,,,,,Space,keypress(Space),,,,instrumental,,,,---- --------- ---------- - --- witness -- --- ------------<br>----- -- -------- ------- ---- ------ - -------- ---- -----<br>--- ------- ---- -- --- -------- --- - ----- ------ ---- --<br>-------- --- -------- -------- --- -------- ---- -- ----- -<br>-------- ---- --- ---------- --------- -- ------- ------ -<br>--------- ----- -----,404514.39999997616,404506,404040.433,404045.5,404057.034,404523.482,,5,witness
screen,html.Screen,2_3_1_0_1_6,2022-02-21T12:49:11.001Z,,,,,,,,,,,,,,,,,15,,,,,,,,,,,,,,316.91799997614,,response,,,,7,C,,,,,,Space,keypress(Space),,,,instrumental,,,,---- --------- ---------- - --- ------- by --- ------------<br>----- -- -------- ------- ---- ------ - -------- ---- -----<br>--- ------- ---- -- --- -------- --- - ----- ------ ---- --<br>-------- --- -------- -------- --- -------- ---- -- ----- -<br>-------- ---- --- ---------- --------- -- ------- ------ -<br>--------- ----- -----,404845.8000000119,404840.39999997616,404507.234,404515.5,404523.482,404856.82,,6,by
screen,html.Screen,2_3_1_0_1_7,2022-02-21T12:49:11.404Z,,,,,,,,,,,,,,,,,15,,,,,,,,,,,,,,386.8799999880721,,response,,,,7,C,,,,,,Space,keypress(Space),,,,instrumental,,,,---- --------- ---------- - --- ------- -- the ------------<br>----- -- -------- ------- ---- ------ - -------- ---- -----<br>--- ------- ---- -- --- -------- --- - ----- ------ ---- --<br>-------- --- -------- -------- --- -------- ---- -- ----- -<br>-------- ---- --- ---------- --------- -- ------- ------ -<br>--------- ----- -----,405248.09999996424,405243.6999999881,404840.453,404846.8000000119,404856.82,405256.687,,7,the
screen,html.Screen,2_3_1_0_1_8,2022-02-21T12:49:11.845Z,,,,,,,,,,,,,,,,,15,,,,,,,,,,,,,,428.7129999761819,,response,,,,7,C,,,,,,Space,keypress(Space),,,,instrumental,,,,"---- --------- ---------- - --- ------- -- --- prosecution,<br>----- -- -------- ------- ---- ------ - -------- ---- -----<br>--- ------- ---- -- --- -------- --- - ----- ------ ---- --<br>-------- --- -------- -------- --- -------- ---- -- ----- -<br>-------- ---- --- ---------- --------- -- ------- ------ -<br>--------- ----- -----",405689.8000000119,405685.39999997616,405240.435,405249.1999999881,405256.687,405706.795,,8,"prosecution,"
screen,html.Screen,2_3_1_0_1_9,2022-02-21T12:49:12.315Z,,,,,,,,,,,,,,,,,15,,,,,,,,,,,,,,447.90499998809537,,response,,,,7,C,,,,,,Space,keypress(Space),,,,instrumental,,,,---- --------- ---------- - --- ------- -- --- ------------<br>vowed -- -------- ------- ---- ------ - -------- ---- -----<br>--- ------- ---- -- --- -------- --- - ----- ------ ---- --<br>-------- --- -------- -------- --- -------- ---- -- ----- -<br>-------- ---- --- ---------- --------- -- ------- ------ -<br>--------- ----- -----,406159.39999997616,406154.6999999881,405689.835,405690.8000000119,405706.795,406173.102,,9,vowed
screen,html.Screen,2_3_1_0_1_10,2022-02-21T12:49:13.225Z,,,,,,,,,,,,,,,,,15,,,,,,,,,,,,,,891.4979999642237,,response,,,,7,C,,,,,,Space,keypress(Space),,,,instrumental,,,,---- --------- ---------- - --- ------- -- --- ------------<br>----- he -------- ------- ---- ------ - -------- ---- -----<br>--- ------- ---- -- --- -------- --- - ----- ------ ---- --<br>-------- --- -------- -------- --- -------- ---- -- ----- -<br>-------- ---- --- ---------- --------- -- ------- ------ -<br>--------- ----- -----,407069,407064.59999996424,406156.409,406160.5,406173.102,407089.845,,10,he
screen,html.Screen,2_3_1_0_1_11,2022-02-21T12:49:13.700Z,,,,,,,,,,,,,,,,,15,,,,,,,,,,,,,,449.95500001194887,,response,,,,7,C,,,,,,Space,keypress(Space),,,,instrumental,,,,---- --------- ---------- - --- ------- -- --- ------------<br>----- -- wouldn't ------- ---- ------ - -------- ---- -----<br>--- ------- ---- -- --- -------- --- - ----- ------ ---- --<br>-------- --- -------- -------- --- -------- ---- -- ----- -<br>-------- ---- --- ---------- --------- -- ------- ------ -<br>--------- ----- -----,407544.89999997616,407539.8000000119,407056.88,407070.1999999881,407089.845,407556.383,,11,wouldn't
screen,html.Screen,2_3_1_0_1_12,2022-02-21T12:49:14.190Z,,,,,,,,,,,,,,,,,15,,,,,,,,,,,,,,472.31699998810655,,response,,,,7,C,,,,,,Space,keypress(Space),,,,instrumental,,,,---- --------- ---------- - --- ------- -- --- ------------<br>----- -- -------- testify ---- ------ - -------- ---- -----<br>--- ------- ---- -- --- -------- --- - ----- ------ ---- --<br>-------- --- -------- -------- --- -------- ---- -- ----- -<br>-------- ---- --- ---------- --------- -- ------- ------ -<br>--------- ----- -----,408034.6999999881,408028.6999999881,407539.838,407546,407556.383,408039.45,,12,testify
screen,html.Screen,2_3_1_0_1_13,2022-02-21T12:49:14.669Z,,,,,,,,,,,,,,,,,15,,,,,,,,,,,,,,465.3500000119093,,response,,,,7,C,,,,,,Space,keypress(Space),,,,instrumental,,,,---- --------- ---------- - --- ------- -- --- ------------<br>----- -- -------- ------- when ------ - -------- ---- -----<br>--- ------- ---- -- --- -------- --- - ----- ------ ---- --<br>-------- --- -------- -------- --- -------- ---- -- ----- -<br>-------- ---- --- ---------- --------- -- ------- ------ -<br>--------- ----- -----,408513.5,408504.8000000119,408023.531,408035.39999997616,408039.45,408522.966,,13,when
screen,html.Screen,2_3_1_0_1_14,2022-02-21T12:49:15.191Z,,,,,,,,,,,,,,,,,15,,,,,,,,,,,,,,508.1339999642223,,response,,,,7,C,,,,,,Space,keypress(Space),,,,instrumental,,,,---- --------- ---------- - --- ------- -- --- ------------<br>----- -- -------- ------- ---- served - -------- ---- -----<br>--- ------- ---- -- --- -------- --- - ----- ------ ---- --<br>-------- --- -------- -------- --- -------- ---- -- ----- -<br>-------- ---- --- ---------- --------- -- ------- ------ -<br>--------- ----- -----,409035.8000000119,409031.09999996424,408506.369,408514.6999999881,408522.966,409056.182,,14,served
screen,html.Screen,2_3_1_0_1_15,2022-02-21T12:49:15.600Z,,,,,,,,,,,,,,,,,15,,,,,,,,,,,,,,382.8180000000284,,response,,,,7,C,,,,,,Space,keypress(Space),,,,instrumental,,,,---- --------- ---------- - --- ------- -- --- ------------<br>----- -- -------- ------- ---- ------ a -------- ---- -----<br>--- ------- ---- -- --- -------- --- - ----- ------ ---- --<br>-------- --- -------- -------- --- -------- ---- -- ----- -<br>-------- ---- --- ---------- --------- -- ------- ------ -<br>--------- ----- -----,409444.5,409439,409023.158,409036.89999997616,409056.182,409456.209,,15,a
screen,html.Screen,2_3_1_0_1_16,2022-02-21T12:49:16.012Z,,,,,,,,,,,,,,,,,15,,,,,,,,,,,,,,393.9909999881056,,response,,,,7,C,,,,,,Space,keypress(Space),,,,instrumental,,,,---- --------- ---------- - --- ------- -- --- ------------<br>----- -- -------- ------- ---- ------ - subpoena ---- -----<br>--- ------- ---- -- --- -------- --- - ----- ------ ---- --<br>-------- --- -------- -------- --- -------- ---- -- ----- -<br>-------- ---- --- ---------- --------- -- ------- ------ -<br>--------- ----- -----,409856.09999996424,409850.1999999881,409439.699,409445.5,409456.209,409872.492,,16,subpoena
screen,html.Screen,2_3_1_0_1_17,2022-02-21T12:49:16.707Z,,,,,,,,,,,,,,,,,15,,,,,,,,,,,,,,674.4079999761307,,response,,,,7,C,,,,,,Space,keypress(Space),,,,instrumental,,,,---- --------- ---------- - --- ------- -- --- ------------<br>----- -- -------- ------- ---- ------ - -------- last -----<br>--- ------- ---- -- --- -------- --- - ----- ------ ---- --<br>-------- --- -------- -------- --- -------- ---- -- ----- -<br>-------- ---- --- ---------- --------- -- ------- ------ -<br>--------- ----- -----,410551.5,410546.89999997616,409856.486,409857.1999999881,409872.492,410589.087,,17,last
screen,html.Screen,2_3_1_0_1_18,2022-02-21T12:49:17.182Z,,,,,,,,,,,,,,,,,15,,,,,,,,,,,,,,431.2130000119214,,response,,,,7,C,,,,,,Space,keypress(Space),,,,instrumental,,,,---- --------- ---------- - --- ------- -- --- ------------<br>----- -- -------- ------- ---- ------ - -------- ---- week.<br>--- ------- ---- -- --- -------- --- - ----- ------ ---- --<br>-------- --- -------- -------- --- -------- ---- -- ----- -<br>-------- ---- --- ---------- --------- -- ------- ------ -<br>--------- ----- -----,411026.6999999881,411020.3000000119,410572.659,410552.89999997616,410589.087,411039.331,,18,week.
screen,html.Screen,2_3_1_0_1_19,2022-02-21T12:49:17.795Z,,,,,,,,,,,,,,,,,15,,,,,,,,,,,,,,595.5689999761526,,response,,,,7,C,,,,,,Space,keypress(Space),,,,instrumental,,,,---- --------- ---------- - --- ------- -- --- ------------<br>----- -- -------- ------- ---- ------ - -------- ---- -----<br>His ------- ---- -- --- -------- --- - ----- ------ ---- --<br>-------- --- -------- -------- --- -------- ---- -- ----- -<br>-------- ---- --- ---------- --------- -- ------- ------ -<br>--------- ----- -----,411639.6999999881,411634.89999997616,411022.35,411027.8000000119,411039.331,411655.449,,19,His
screen,html.Screen,2_3_1_0_1_20,2022-02-21T12:49:18.190Z,,,,,,,,,,,,,,,,,15,,,,,,,,,,,,,,372.65099996421486,,response,,,,7,C,,,,,,Space,keypress(Space),,,,instrumental,,,,---- --------- ---------- - --- ------- -- --- ------------<br>----- -- -------- ------- ---- ------ - -------- ---- -----<br>--- lawyers ---- -- --- -------- --- - ----- ------ ---- --<br>-------- --- -------- -------- --- -------- ---- -- ----- -<br>-------- ---- --- ---------- --------- -- ------- ------ -<br>--------- ----- -----,412034.6999999881,412028.09999996424,411639.018,411640.8000000119,411655.449,412069.866,,20,lawyers
screen,html.Screen,2_3_1_0_1_21,2022-02-21T12:49:18.583Z,,,,,,,,,,,,,,,,,15,,,,,,,,,,,,,,351.3339999880991,,response,,,,7,C,,,,,,Space,keypress(Space),,,,instrumental,,,,---- --------- ---------- - --- ------- -- --- ------------<br>----- -- -------- ------- ---- ------ - -------- ---- -----<br>--- ------- said -- --- -------- --- - ----- ------ ---- --<br>-------- --- -------- -------- --- -------- ---- -- ----- -<br>-------- ---- --- ---------- --------- -- ------- ------ -<br>--------- ----- -----,412427,412421.1999999881,412022.645,412035.8000000119,412069.866,412438.942,,21,said
screen,html.Screen,2_3_1_0_1_22,2022-02-21T12:49:19.030Z,,,,,,,,,,,,,,,,,15,,,,,,,,,,,,,,429.25799998809816,,response,,,,7,C,,,,,,Space,keypress(Space),,,,instrumental,,,,---- --------- ---------- - --- ------- -- --- ------------<br>----- -- -------- ------- ---- ------ - -------- ---- -----<br>--- ------- ---- he --- -------- --- - ----- ------ ---- --<br>-------- --- -------- -------- --- -------- ---- -- ----- -<br>-------- ---- --- ---------- --------- -- ------- ------ -<br>--------- ----- -----,412874.39999997616,412868.1999999881,412422.441,412428,412438.942,412888.768,,22,he
screen,html.Screen,2_3_1_0_1_23,2022-02-21T12:49:19.492Z,,,,,,,,,,,,,,,,,15,,,,,,,,,,,,,,444.0320000119391,,response,,,,7,C,,,,,,Space,keypress(Space),,,,instrumental,,,,---- --------- ---------- - --- ------- -- --- ------------<br>----- -- -------- ------- ---- ------ - -------- ---- -----<br>--- ------- ---- -- was -------- --- - ----- ------ ---- --<br>-------- --- -------- -------- --- -------- ---- -- ----- -<br>-------- ---- --- ---------- --------- -- ------- ------ -<br>--------- ----- -----,413336.59999996424,413332.8000000119,412872.27,412875.5,412888.768,413355.286,,23,was
screen,html.Screen,2_3_1_0_1_24,2022-02-21T12:49:20.034Z,,,,,,,,,,,,,,,,,15,,,,,,,,,,,,,,518.3139999642153,,response,,,,7,C,,,,,,Space,keypress(Space),,,,instrumental,,,,---- --------- ---------- - --- ------- -- --- ------------<br>----- -- -------- ------- ---- ------ - -------- ---- -----<br>--- ------- ---- -- --- prepared --- - ----- ------ ---- --<br>-------- --- -------- -------- --- -------- ---- -- ----- -<br>-------- ---- --- ---------- --------- -- ------- ------ -<br>--------- ----- -----,413878.09999996424,413873.59999996424,413338.96,413337.6999999881,413355.286,413888.708,,24,prepared
screen,html.Screen,2_3_1_0_1_25,2022-02-21T12:49:20.431Z,,,,,,,,,,,,,,,,,15,,,,,,,,,,,,,,379.9919999880949,,response,,,,7,C,,,,,,Space,keypress(Space),,,,instrumental,,,,---- --------- ---------- - --- ------- -- --- ------------<br>----- -- -------- ------- ---- ------ - -------- ---- -----<br>--- ------- ---- -- --- -------- for - ----- ------ ---- --<br>-------- --- -------- -------- --- -------- ---- -- ----- -<br>-------- ---- --- ---------- --------- -- ------- ------ -<br>--------- ----- -----,414275,414268.6999999881,413872.227,413879.09999996424,413888.708,414288.422,,25,for
screen,html.Screen,2_3_1_0_1_26,2022-02-21T12:49:21.035Z,,,,,,,,,,,,,,,,,15,,,,,,,,,,,,,,586.5779999999795,,response,,,,7,C,,,,,,Space,keypress(Space),,,,instrumental,,,,---- --------- ---------- - --- ------- -- --- ------------<br>----- -- -------- ------- ---- ------ - -------- ---- -----<br>--- ------- ---- -- --- -------- --- a ----- ------ ---- --<br>-------- --- -------- -------- --- -------- ---- -- ----- -<br>-------- ---- --- ---------- --------- -- ------- ------ -<br>--------- ----- -----,414879.3000000119,414875,414272.26,414276,414288.422,414888.598,,26,a
screen,html.Screen,2_3_1_0_1_27,2022-02-21T12:49:21.575Z,,,,,,,,,,,,,,,,,15,,,,,,,,,,,,,,526.5019999642391,,response,,,,7,C,,,,,,Space,keypress(Space),,,,instrumental,,,,---- --------- ---------- - --- ------- -- --- ------------<br>----- -- -------- ------- ---- ------ - -------- ---- -----<br>--- ------- ---- -- --- -------- --- - third ------ ---- --<br>-------- --- -------- -------- --- -------- ---- -- ----- -<br>-------- ---- --- ---------- --------- -- ------- ------ -<br>--------- ----- -----,415419.5,415415.09999996424,414871.942,414880.6999999881,414888.598,415438.979,,27,third
screen,html.Screen,2_3_1_0_1_28,2022-02-21T12:49:22.125Z,,,,,,,,,,,,,,,,,15,,,,,,,,,,,,,,526.1209999642451,,response,,,,7,C,,,,,,Space,keypress(Space),,,,instrumental,,,,---- --------- ---------- - --- ------- -- --- ------------<br>----- -- -------- ------- ---- ------ - -------- ---- -----<br>--- ------- ---- -- --- -------- --- - ----- prison ---- --<br>-------- --- -------- -------- --- -------- ---- -- ----- -<br>-------- ---- --- ---------- --------- -- ------- ------ -<br>--------- ----- -----,415969.39999997616,415965.09999996424,415421.536,415421.3000000119,415438.979,415988.163,,28,prison
screen,html.Screen,2_3_1_0_1_29,2022-02-21T12:49:22.753Z,,,,,,,,,,,,,,,,,15,,,,,,,,,,,,,,604.4369999642367,,response,,,,7,C,,,,,,Space,keypress(Space),,,,instrumental,,,,---- --------- ---------- - --- ------- -- --- ------------<br>----- -- -------- ------- ---- ------ - -------- ---- -----<br>--- ------- ---- -- --- -------- --- - ----- ------ stay --<br>-------- --- -------- -------- --- -------- ---- -- ----- -<br>-------- ---- --- ---------- --------- -- ------- ------ -<br>--------- ----- -----,416597.09999996424,416592.59999996424,415971.423,415970.59999996424,415988.163,416604.837,,29,stay
screen,html.Screen,2_3_1_0_1_30,2022-02-21T12:49:23.275Z,,,,,,,,,,,,,,,,,15,,,,,,,,,,,,,,508.9630000119214,,response,,,,7,C,,,,,,Space,keypress(Space),,,,instrumental,,,,---- --------- ---------- - --- ------- -- --- ------------<br>----- -- -------- ------- ---- ------ - -------- ---- -----<br>--- ------- ---- -- --- -------- --- - ----- ------ ---- to<br>-------- --- -------- -------- --- -------- ---- -- ----- -<br>-------- ---- --- ---------- --------- -- ------- ------ -<br>--------- ----- -----,417119.39999997616,417113.8000000119,416588.053,416598.09999996424,416604.837,417138.345,,30,to
screen,html.Screen,2_3_1_0_1_31,2022-02-21T12:49:23.793Z,,,,,,,,,,,,,,,,,15,,,,,,,,,,,,,,494.75499996426515,,response,,,,7,C,,,,,,Space,keypress(Space),,,,instrumental,,,,---- --------- ---------- - --- ------- -- --- ------------<br>----- -- -------- ------- ---- ------ - -------- ---- -----<br>--- ------- ---- -- --- -------- --- - ----- ------ ---- --<br>maintain --- -------- -------- --- -------- ---- -- ----- -<br>-------- ---- --- ---------- --------- -- ------- ------ -<br>--------- ----- -----,417637.5,417633.09999996424,417121.723,417121.6999999881,417138.345,417654.592,,31,maintain
screen,html.Screen,2_3_1_0_1_32,2022-02-21T12:49:24.272Z,,,,,,,,,,,,,,,,,15,,,,,,,,,,,,,,456.1079999880749,,response,,,,7,C,,,,,,Space,keypress(Space),,,,instrumental,,,,---- --------- ---------- - --- ------- -- --- ------------<br>----- -- -------- ------- ---- ------ - -------- ---- -----<br>--- ------- ---- -- --- -------- --- - ----- ------ ---- --<br>-------- his -------- -------- --- -------- ---- -- ----- -<br>-------- ---- --- ---------- --------- -- ------- ------ -<br>--------- ----- -----,418116.39999997616,418110.6999999881,417637.987,417638.59999996424,417654.592,418137.811,,32,his
screen,html.Screen,2_3_1_0_1_33,2022-02-21T12:49:24.745Z,,,,,,,,,,,,,,,,,15,,,,,,,,,,,,,,447.3889999880921,,response,,,,7,C,,,,,,Space,keypress(Space),,,,instrumental,,,,---- --------- ---------- - --- ------- -- --- ------------<br>----- -- -------- ------- ---- ------ - -------- ---- -----<br>--- ------- ---- -- --- -------- --- - ----- ------ ---- --<br>-------- --- silence. -------- --- -------- ---- -- ----- -<br>-------- ---- --- ---------- --------- -- ------- ------ -<br>--------- ----- -----,418589.6999999881,418585.1999999881,418121.197,418117.5,418137.811,418604.808,,33,silence.
screen,html.Screen,2_3_1_0_1_34,2022-02-21T12:49:25.202Z,,,,,,,,,,,,,,,,,15,,,,,,,,,,,,,,435.89199998806,,response,,,,7,C,,,,,,Space,keypress(Space),,,,instrumental,,,,---- --------- ---------- - --- ------- -- --- ------------<br>----- -- -------- ------- ---- ------ - -------- ---- -----<br>--- ------- ---- -- --- -------- --- - ----- ------ ---- --<br>-------- --- -------- Anderson --- -------- ---- -- ----- -<br>-------- ---- --- ---------- --------- -- ------- ------ -<br>--------- ----- -----,419046.3000000119,419040.6999999881,418587.895,418590.8000000119,418604.808,419054.393,,34,Anderson
screen,html.Screen,2_3_1_0_1_35,2022-02-21T12:49:25.599Z,,,,,,,,,,,,,,,,,15,,,,,,,,,,,,,,383.5069999761763,,response,,,,7,C,,,,,,Space,keypress(Space),,,,instrumental,,,,---- --------- ---------- - --- ------- -- --- ------------<br>----- -- -------- ------- ---- ------ - -------- ---- -----<br>--- ------- ---- -- --- -------- --- - ----- ------ ---- --<br>-------- --- -------- -------- was -------- ---- -- ----- -<br>-------- ---- --- ---------- --------- -- ------- ------ -<br>--------- ----- -----,419443.39999997616,419437.89999997616,419038.193,419047.39999997616,419054.393,419454.489,,35,was
screen,html.Screen,2_3_1_0_1_36,2022-02-21T12:49:26.128Z,,,,,,,,,,,,,,,,,15,,,,,,,,,,,,,,512.8110000119195,,response,,,,7,C,,,,,,Space,keypress(Space),,,,instrumental,,,,---- --------- ---------- - --- ------- -- --- ------------<br>----- -- -------- ------- ---- ------ - -------- ---- -----<br>--- ------- ---- -- --- -------- --- - ----- ------ ---- --<br>-------- --- -------- -------- --- released ---- -- ----- -<br>-------- ---- --- ---------- --------- -- ------- ------ -<br>--------- ----- -----,419971.89999997616,419967.3000000119,419437.771,419444.6999999881,419454.489,419987.944,,36,released
screen,html.Screen,2_3_1_0_1_37,2022-02-21T12:49:26.690Z,,,,,,,,,,,,,,,,,15,,,,,,,,,,,,,,540.5559999999823,,response,,,,7,C,,,,,,Space,keypress(Space),,,,instrumental,,,,---- --------- ---------- - --- ------- -- --- ------------<br>----- -- -------- ------- ---- ------ - -------- ---- -----<br>--- ------- ---- -- --- -------- --- - ----- ------ ---- --<br>-------- --- -------- -------- --- -------- July -- ----- -<br>-------- ---- --- ---------- --------- -- ------- ------ -<br>--------- ----- -----,420534.8000000119,420528.5,419971.159,419973.1999999881,419987.944,420554.887,,37,July
screen,html.Screen,2_3_1_0_1_38,2022-02-21T12:49:27.335Z,,,,,,,,,,,,,,,,,15,,,,,,,,,,,,,,620.413000011933,,response,,,,7,C,,,,,,Space,keypress(Space),,,,instrumental,,,,---- --------- ---------- - --- ------- -- --- ------------<br>----- -- -------- ------- ---- ------ - -------- ---- -----<br>--- ------- ---- -- --- -------- --- - ----- ------ ---- --<br>-------- --- -------- -------- --- -------- ---- 20 ----- -<br>-------- ---- --- ---------- --------- -- ------- ------ -<br>--------- ----- -----,421179.8000000119,421175.3000000119,420537.717,420536,420554.887,421187.366,,38,20
screen,html.Screen,2_3_1_0_1_39,2022-02-21T12:49:28.642Z,,,,,,,,,,,,,,,,,15,,,,,,,,,,,,,,1293.434000011941,,response,,,,7,C,,,,,,Space,keypress(Space),,,,instrumental,,,,---- --------- ---------- - --- ------- -- --- ------------<br>----- -- -------- ------- ---- ------ - -------- ---- -----<br>--- ------- ---- -- --- -------- --- - ----- ------ ---- --<br>-------- --- -------- -------- --- -------- ---- -- after -<br>-------- ---- --- ---------- --------- -- ------- ------ -<br>--------- ----- -----,422486.59999996424,422480.8000000119,421171.152,421181.09999996424,421187.366,422504.217,,39,after
screen,html.Screen,2_3_1_0_1_40,2022-02-21T12:49:29.047Z,,,,,,,,,,,,,,,,,15,,,,,,,,,,,,,,382.882999964233,,response,,,,7,C,,,,,,Space,keypress(Space),,,,instrumental,,,,---- --------- ---------- - --- ------- -- --- ------------<br>----- -- -------- ------- ---- ------ - -------- ---- -----<br>--- ------- ---- -- --- -------- --- - ----- ------ ---- --<br>-------- --- -------- -------- --- -------- ---- -- ----- a<br>-------- ---- --- ---------- --------- -- ------- ------ -<br>--------- ----- -----,422891.59999996424,422887.09999996424,422487.607,422487.6999999881,422504.217,422903.772,,40,a
