sender,sender_type,sender_id,timestamp,meta,,Blues,Classical,Country,Dance,Electronic,Folk,Gospel,Hip-Hop,Jazz,Latin,Musical/Film,New-age,Pop,Prolific_id,Provo_ID,R&B,Rap,Reggae,Religious,Rock,Soul,Swing,Traditional,age,artist_name,correct,correctResponse,distraction,duration,education,ended_on,familiarity,gender,headphone_check_performance,item,list,music_frequency,offensiveness,pleasantness,position_correct,preference,response,response_action,snippet_file,song_name,song_rating,sound,stimulus_1,stimulus_2,stimulus_3,text,time_commit,time_end,time_render,time_run,time_show,time_switch,url,word,word_ID
Prolific ID,html.Form,0,2022-02-02T14:50:49.879Z,"{""labjs_version"":""20.2.2"",""labjs_build"":{""flavor"":""production"",""commit"":""a25486e0c714a0ae2ce03ff94b7bb6896854dcfa""},""location"":""https://run.pavlovia.org/mvasilev/prolific2_music_c/"",""userAgent"":""Mozilla/5.0 (Windows NT 10.0; Win64; x64) AppleWebKit/537.36 (KHTML, like Gecko) Chrome/97.0.4692.99 Safari/537.36"",""platform"":""Win32"",""language"":""en-GB"",""locale"":""en-GB"",""timeZone"":""Europe/London"",""timezoneOffset"":0,""screen_width"":1920,""screen_height"":1080,""scroll_width"":1920,""scroll_height"":921,""window_innerWidth"":1920,""window_innerHeight"":969,""devicePixelRatio"":1}",,,,,,,,,,,,,,,5c86303fc2ceec001719a6eb,,,,,,,,,,,,,,,119609.24599985695,,form submission,,,,,,,,,,,,,,,,,,,,,126672.09999990463,126671.89999985695,7045.952,7057.200000047684,7062.654,126678.401,{},,
Introduction,html.Screen,1_0,2022-02-02T14:51:00.726Z,,,,,,,,,,,,,,,,,,,,,,,,,,,,,,,10839.599000000002,,response,,,,,,,,,,,continue,click button,,,,,,,,,137519.39999985695,137518,126661.735,126672.29999995232,126678.401,137528.289,,,
Volume calibration,html.Screen,1_1,2022-02-02T14:51:15.310Z,,,,,,,,,,,,,,,,,,,,,,,,,,,,,,,14573.510999952327,,response,,,,,,,,,,,continue,click button,,,,,,,,,152103.5,152101.79999995232,137511.667,137519.5,137528.289,152111.507,,,
Task instructions,html.Screen,1_2,2022-02-02T15:04:50.566Z,,,,,,,,,,,,,,,,,,,,,,,,,,,,,,,815246.6930000477,,response,,,,,,,,,,,continue,click button,,,,,,,,,967358.7000000477,967358.2000000477,152094.834,152103.5,152111.507,967371.597,,,
Sounds,html.Screen,1_3_0_0,2022-02-02T15:04:54.814Z,,,,,,,,,,,,,,,,,,,,,,,,,,,,,,,4250.11400000006,,timeout,,,,,,,,,3,,,,,,,,O,I,S,,971606.5999999046,971604.882,967354.922,967358.7999999523,967371.597,971621.711,,,
Judgement,html.Screen,1_3_0_1,2022-02-02T15:04:57.182Z,,,,,,,,,,,,,,,,,,,,,,,,,,,,true,3,,2352.3889999046223,,response,,,,,,,,,3,,3,click #choice-3,,,,,O,I,S,,973974.5,973974.0999999046,971604.882,971606.5999999046,971621.711,973988.207,,,
Trial,flow.Sequence,1_3_0,2022-02-02T15:04:57.182Z,,,,,,,,,,,,,,,,,,,,,,,,,,,,,,,6602.502999904682,,completion,,,,,,,,,3,,,,,,,,O,I,S,,973974.5999999046,973974.0999999046,967354.922,967358.7000000477,967371.597,973988.207,,,
Sounds,html.Screen,1_3_1_0,2022-02-02T15:05:01.430Z,,,,,,,,,,,,,,,,,,,,,,,,,,,,,,,4249.979999999981,,timeout,,,,,,,,,2,,,,,,,,I,S,O,,978221.899999857,978221.511,973971.547,973974.7999999523,973988.207,978238.187,,,
Judgement,html.Screen,1_3_1_1,2022-02-02T15:05:01.830Z,,,,,,,,,,,,,,,,,,,,,,,,,,,,true,2,,383.9129999045981,,response,,,,,,,,,2,,2,click #choice-2,,,,,I,S,O,,978622.5,978622.0999999046,978221.511,978222,978238.187,978638.169,,,
Trial,flow.Sequence,1_3_1,2022-02-02T15:05:01.830Z,,,,,,,,,,,,,,,,,,,,,,,,,,,,,,,4633.8929999045795,,completion,,,,,,,,,2,,,,,,,,I,S,O,,978622.7000000477,978622.0999999046,973971.547,973974.7999999523,973988.207,978638.169,,,
Sounds,html.Screen,1_3_2_0,2022-02-02T15:05:06.079Z,,,,,,,,,,,,,,,,,,,,,,,,,,,,,,,4249.962000000058,,timeout,,,,,,,,,1,,,,,,,,S,O,I,,982871.899999857,982871.484,978621.537,978622.7999999523,978638.169,982888.131,,,
Judgement,html.Screen,1_3_2_1,2022-02-02T15:05:06.583Z,,,,,,,,,,,,,,,,,,,,,,,,,,,,true,1,,486.36899999994785,,response,,,,,,,,,1,,1,click #choice-1,,,,,S,O,I,,983375,983374.5,982871.484,982871.899999857,982888.131,983388.132,,,
Trial,flow.Sequence,1_3_2,2022-02-02T15:05:06.583Z,,,,,,,,,,,,,,,,,,,,,,,,,,,,,,,4736.331000000006,,completion,,,,,,,,,1,,,,,,,,S,O,I,,983375.2000000477,983374.5,978621.537,978622.7999999523,978638.169,983388.132,,,
Sounds,html.Screen,1_3_3_0,2022-02-02T15:05:10.830Z,,,,,,,,,,,,,,,,,,,,,,,,,,,,,,,4249.957000000053,,timeout,,,,,,,,,1,,,,,,,,S,I,O,,987622.0999999046,987621.582,983371.508,983375.2000000477,983388.132,987638.089,,,
Judgement,html.Screen,1_3_3_1,2022-02-02T15:05:11.262Z,,,,,,,,,,,,,,,,,,,,,,,,,,,,true,1,,416.1110000476474,,response,,,,,,,,,1,,1,click #choice-1,,,,,S,I,O,,988054.5999999046,988054.2000000477,987621.582,987622.0999999046,987638.089,988071.453,,,
Trial,flow.Sequence,1_3_3,2022-02-02T15:05:11.262Z,,,,,,,,,,,,,,,,,,,,,,,,,,,,,,,4666.0680000477005,,completion,,,,,,,,,1,,,,,,,,S,I,O,,988054.7000000477,988054.2000000477,983371.508,983375.2000000477,983388.132,988071.453,,,
Sounds,html.Screen,1_3_4_0,2022-02-02T15:05:15.513Z,,,,,,,,,,,,,,,,,,,,,,,,,,,,,,,4250.074000000022,,timeout,,,,,,,,,3,,,,,,,,I,O,S,,992305.2000000477,992304.841,988054.759,988054.899999857,988071.453,992321.527,,,
Judgement,html.Screen,1_3_4_1,2022-02-02T15:05:15.966Z,,,,,,,,,,,,,,,,,,,,,,,,,,,,true,3,,436.5729999046307,,response,,,,,,,,,3,,3,click #choice-3,,,,,I,O,S,,992758.5,992758.0999999046,992304.841,992305.2999999523,992321.527,992771.533,,,
Trial,flow.Sequence,1_3_4,2022-02-02T15:05:15.966Z,,,,,,,,,,,,,,,,,,,,,,,,,,,,,,,4686.646999904653,,completion,,,,,,,,,3,,,,,,,,I,O,S,,992758.7000000477,992758.0999999046,988054.759,988054.7999999523,988071.453,992771.533,,,
Sounds,html.Screen,1_3_5_0,2022-02-02T15:05:20.213Z,,,,,,,,,,,,,,,,,,,,,,,,,,,,,,,4249.820999999996,,timeout,,,,,,,,,2,,,,,,,,O,S,I,,997005.5,997005.03,992754.937,992758.7000000477,992771.533,997021.354,,,
Judgement,html.Screen,1_3_5_1,2022-02-02T15:05:20.606Z,,,,,,,,,,,,,,,,,,,,,,,,,,,,true,2,,376.8460000476334,,response,,,,,,,,,2,,2,click #choice-2,,,,,O,S,I,,997398.7999999523,997398.2000000477,997005.03,997005.5999999046,997021.354,997404.7,,,
Trial,flow.Sequence,1_3_5,2022-02-02T15:05:20.606Z,,,,,,,,,,,,,,,,,,,,,,,,,,,,,,,4626.66700004763,,completion,,,,,,,,,2,,,,,,,,O,S,I,,997398.7999999523,997398.2000000477,992754.937,992758.7000000477,992771.533,997404.7,,,
Task,flow.Loop,1_3,2022-02-02T15:05:20.609Z,,,,,,,,,,,,,,,,,,,,,,,,,,,,,,,30026.603000047733,,completion,,,1,,,,,,,,,,,,,,,,,,997401.2000000477,997398.2000000477,967354.922,967358.7000000477,967371.597,997404.7,,,
Trap,html.Screen,1_4,2022-02-02T15:05:20.609Z,,,,,,,,,,,,,,,,,,,,,,,,,,,,,,,NaN,,skipped,,,,,,,,,,,,,,,,,,,,,997401.7999999523,997398.2000000477,,997401.7000000477,,997404.7,,,
Thanks,html.Screen,1_5,2022-02-02T15:05:24.007Z,,,,,,,,,,,,,,,,,,,,,,,,,,,,,,,3393.6999998569954,,response,,,,,,,,,,,continue,click button,,,,,,,,,1000799,1000798.399999857,997388.18,997401.7999999523,997404.7,1002938.569,,,
Headphone screening,flow.Sequence,1,2022-02-02T15:05:24.007Z,,,,,,,,,,,,,,,,,,,,,,,,,,,,,,,874119.998999857,,completion,,,,,,,,,,,,,,,,,,,,,1000799.0999999046,1000798.399999857,126661.735,126672.29999995232,126678.401,1002938.569,,,
Instructions,html.Page,2_0,2022-02-02T15:05:48.519Z,,,,,,,,,,,,,,,,,,,,,,,,,,,,,,,22372.530999904615,,form submission,,,,,,,,,,,,,,,,,,,,,1025311.2000000477,1025311.0999999046,1002921.342,1002930.2999999523,1002938.569,1025321.128,,,
Holding screen,html.Screen,2_1_0_0,2022-02-02T15:05:58.512Z,,,,,,,,,,,,,,,,,,,,,,,,,,,,,,,9999.946999999927,,timeout,,,,,,,,,,,,,,,,,,,,,1035304.899999857,1035304.551,1025304.826,1025311.2999999523,1025321.128,1035321.075,,,
screen,html.Screen,2_1_0_1_0,2022-02-02T15:06:00.008Z,,,,,,,,,,,,,,,,,53,,,,,,,,,,,,,,1478.1250000477303,,response,,,,99,,,,,,,Space,keypress(Space),,,,,,,,When -- ----- -- ------ - ------- --- ----------<br>------------- ------ ------ ---- ---- ------- ----- -- ----<br>-------- ------- -- ---------- --- - --- ----- ----- ----<br>---- --- --- ----- --- ---- ---- ------- ----- ---- -------<br>--- --- -- ----- -- --- ---- -- --- ---- -- ------ ------<br>--- ----- -- ----,1036800.7000000477,1036799.2000000477,1035304.551,1035305.0999999046,1035321.075,1036804.37,,0,When
screen,html.Screen,2_1_0_1_1,2022-02-02T15:06:00.590Z,,,,,,,,,,,,,,,,,53,,,,,,,,,,,,,,578.1300000000047,,response,,,,99,,,,,,,Space,keypress(Space),,,,,,,,---- it ----- -- ------ - ------- --- ----------<br>------------- ------ ------ ---- ---- ------- ----- -- ----<br>-------- ------- -- ---------- --- - --- ----- ----- ----<br>---- --- --- ----- --- ---- ---- ------- ----- ---- -------<br>--- --- -- ----- -- --- ---- -- --- ---- -- ------ ------<br>--- ----- -- ----,1037382.899999857,1037382.5,1036787.95,1036800.7000000477,1036804.37,1037387.699,,1,it
screen,html.Screen,2_1_0_1_2,2022-02-02T15:06:00.934Z,,,,,,,,,,,,,,,,,53,,,,,,,,,,,,,,338.7009998569265,,response,,,,99,,,,,,,Space,keypress(Space),,,,,,,,---- -- comes -- ------ - ------- --- ----------<br>------------- ------ ------ ---- ---- ------- ----- -- ----<br>-------- ------- -- ---------- --- - --- ----- ----- ----<br>---- --- --- ----- --- ---- ---- ------- ----- ---- -------<br>--- --- -- ----- -- --- ---- -- --- ---- -- ------ ------<br>--- ----- -- ----,1037726.899999857,1037726.399999857,1037371.06,1037382.899999857,1037387.699,1037737.764,,2,comes
screen,html.Screen,2_1_0_1_3,2022-02-02T15:06:01.302Z,,,,,,,,,,,,,,,,,53,,,,,,,,,,,,,,356.6359998569824,,response,,,,99,,,,,,,Space,keypress(Space),,,,,,,,---- -- ----- to ------ - ------- --- ----------<br>------------- ------ ------ ---- ---- ------- ----- -- ----<br>-------- ------- -- ---------- --- - --- ----- ----- ----<br>---- --- --- ----- --- ---- ---- ------- ----- ---- -------<br>--- --- -- ----- -- --- ---- -- --- ---- -- ------ ------<br>--- ----- -- ----,1038094.7999999523,1038094.399999857,1037721.446,1037726.899999857,1037737.764,1038104.389,,3,to
screen,html.Screen,2_1_0_1_4,2022-02-02T15:06:01.686Z,,,,,,,,,,,,,,,,,53,,,,,,,,,,,,,,374.1110000000335,,response,,,,99,,,,,,,Space,keypress(Space),,,,,,,,---- -- ----- -- having - ------- --- ----------<br>------------- ------ ------ ---- ---- ------- ----- -- ----<br>-------- ------- -- ---------- --- - --- ----- ----- ----<br>---- --- --- ----- --- ---- ---- ------- ----- ---- -------<br>--- --- -- ----- -- --- ---- -- --- ---- -- ------ ------<br>--- ----- -- ----,1038478.7999999523,1038478.5,1038088.066,1038094.7999999523,1038104.389,1038487.697,,4,having
screen,html.Screen,2_1_0_1_5,2022-02-02T15:06:02.038Z,,,,,,,,,,,,,,,,,53,,,,,,,,,,,,,,342.6029999522725,,response,,,,99,,,,,,,Space,keypress(Space),,,,,,,,---- -- ----- -- ------ a ------- --- ----------<br>------------- ------ ------ ---- ---- ------- ----- -- ----<br>-------- ------- -- ---------- --- - --- ----- ----- ----<br>---- --- --- ----- --- ---- ---- ------- ----- ---- -------<br>--- --- -- ----- -- --- ---- -- --- ---- -- ------ ------<br>--- ----- -- ----,1038830.5999999046,1038830.2999999523,1038471.051,1038478.899999857,1038487.697,1038837.693,,5,a
screen,html.Screen,2_1_0_1_6,2022-02-02T15:06:02.462Z,,,,,,,,,,,,,,,,,53,,,,,,,,,,,,,,416.8070000000298,,response,,,,99,,,,,,,Space,keypress(Space),,,,,,,,---- -- ----- -- ------ - lasting --- ----------<br>------------- ------ ------ ---- ---- ------- ----- -- ----<br>-------- ------- -- ---------- --- - --- ----- ----- ----<br>---- --- --- ----- --- ---- ---- ------- ----- ---- -------<br>--- --- -- ----- -- --- ---- -- --- ---- -- ------ ------<br>--- ----- -- ----,1039254.899999857,1039254.5,1038821.46,1038830.5999999046,1038837.693,1039271.194,,6,lasting
screen,html.Screen,2_1_0_1_7,2022-02-02T15:06:02.870Z,,,,,,,,,,,,,,,,,53,,,,,,,,,,,,,,391.506000047666,,response,,,,99,,,,,,,Space,keypress(Space),,,,,,,,---- -- ----- -- ------ - ------- and ----------<br>------------- ------ ------ ---- ---- ------- ----- -- ----<br>-------- ------- -- ---------- --- - --- ----- ----- ----<br>---- --- --- ----- --- ---- ---- ------- ----- ---- -------<br>--- --- -- ----- -- --- ---- -- --- ---- -- ------ ------<br>--- ----- -- ----,1039663,1039662.7000000477,1039254.345,1039254.899999857,1039271.194,1039671.015,,7,and
screen,html.Screen,2_1_0_1_8,2022-02-02T15:06:03.358Z,,,,,,,,,,,,,,,,,53,,,,,,,,,,,,,,479.2849999523023,,response,,,,99,,,,,,,Space,keypress(Space),,,,,,,,---- -- ----- -- ------ - ------- --- fulfilling<br>------------- ------ ------ ---- ---- ------- ----- -- ----<br>-------- ------- -- ---------- --- - --- ----- ----- ----<br>---- --- --- ----- --- ---- ---- ------- ----- ---- -------<br>--- --- -- ----- -- --- ---- -- --- ---- -- ------ ------<br>--- ----- -- ----,1040150.5999999046,1040150.2999999523,1039654.762,1039663.0999999046,1039671.015,1040154.35,,8,fulfilling
screen,html.Screen,2_1_0_1_9,2022-02-02T15:06:03.862Z,,,,,,,,,,,,,,,,,53,,,,,,,,,,,,,,500.04999985697214,,response,,,,99,,,,,,,Space,keypress(Space),,,,,,,,"---- -- ----- -- ------ - ------- --- ----------<br>relationship, ------ ------ ---- ---- ------- ----- -- ----<br>-------- ------- -- ---------- --- - --- ----- ----- ----<br>---- --- --- ----- --- ---- ---- ------- ----- ---- -------<br>--- --- -- ----- -- --- ---- -- --- ---- -- ------ ------<br>--- ----- -- ----",1040654.7000000477,1040654.399999857,1040137.713,1040150.7000000477,1040154.35,1040671.015,,9,"relationship,"
screen,html.Screen,2_1_0_1_10,2022-02-02T15:06:04.646Z,,,,,,,,,,,,,,,,,53,,,,,,,,,,,,,,767.2849999523023,,response,,,,99,,,,,,,Space,keypress(Space),,,,,,,,---- -- ----- -- ------ - ------- --- ----------<br>------------- common ------ ---- ---- ------- ----- -- ----<br>-------- ------- -- ---------- --- - --- ----- ----- ----<br>---- --- --- ----- --- ---- ---- ------- ----- ---- -------<br>--- --- -- ----- -- --- ---- -- --- ---- -- ------ ------<br>--- ----- -- ----,1041438.5999999046,1041438.2999999523,1040654.37,1040654.7999999523,1040671.015,1041454.499,,10,common
screen,html.Screen,2_1_0_1_11,2022-02-02T15:06:05.430Z,,,,,,,,,,,,,,,,,53,,,,,,,,,,,,,,767.9009998569963,,response,,,,99,,,,,,,Space,keypress(Space),,,,,,,,---- -- ----- -- ------ - ------- --- ----------<br>------------- ------ wisdom ---- ---- ------- ----- -- ----<br>-------- ------- -- ---------- --- - --- ----- ----- ----<br>---- --- --- ----- --- ---- ---- ------- ----- ---- -------<br>--- --- -- ----- -- --- ---- -- --- ---- -- ------ ------<br>--- ----- -- ----,1042222.7000000477,1042222.399999857,1041437.846,1041438.5999999046,1041454.499,1042237.787,,11,wisdom
screen,html.Screen,2_1_0_1_12,2022-02-02T15:06:05.806Z,,,,,,,,,,,,,,,,,53,,,,,,,,,,,,,,361.0129999523051,,response,,,,99,,,,,,,Space,keypress(Space),,,,,,,,---- -- ----- -- ------ - ------- --- ----------<br>------------- ------ ------ says ---- ------- ----- -- ----<br>-------- ------- -- ---------- --- - --- ----- ----- ----<br>---- --- --- ----- --- ---- ---- ------- ----- ---- -------<br>--- --- -- ----- -- --- ---- -- --- ---- -- ------ ------<br>--- ----- -- ----,1042599.0999999046,1042598.7999999523,1042221.41,1042222.7000000477,1042237.787,1042604.482,,12,says
screen,html.Screen,2_1_0_1_13,2022-02-02T15:06:06.142Z,,,,,,,,,,,,,,,,,53,,,,,,,,,,,,,,330.01800000004005,,response,,,,99,,,,,,,Space,keypress(Space),,,,,,,,---- -- ----- -- ------ - ------- --- ----------<br>------------- ------ ------ ---- that ------- ----- -- ----<br>-------- ------- -- ---------- --- - --- ----- ----- ----<br>---- --- --- ----- --- ---- ---- ------- ----- ---- -------<br>--- --- -- ----- -- --- ---- -- --- ---- -- ------ ------<br>--- ----- -- ----,1042934.7999999523,1042934.5,1042587.866,1042599.2000000477,1042604.482,1042937.653,,13,that
screen,html.Screen,2_1_0_1_14,2022-02-02T15:06:06.534Z,,,,,,,,,,,,,,,,,53,,,,,,,,,,,,,,388.7469998568995,,response,,,,99,,,,,,,Space,keypress(Space),,,,,,,,---- -- ----- -- ------ - ------- --- ----------<br>------------- ------ ------ ---- ---- feeling ----- -- ----<br>-------- ------- -- ---------- --- - --- ----- ----- ----<br>---- --- --- ----- --- ---- ---- ------- ----- ---- -------<br>--- --- -- ----- -- --- ---- -- --- ---- -- ------ ------<br>--- ----- -- ----,1043326.7000000477,1043326.399999857,1042921.41,1042934.899999857,1042937.653,1043337.839,,14,feeling
screen,html.Screen,2_1_0_1_15,2022-02-02T15:06:06.926Z,,,,,,,,,,,,,,,,,53,,,,,,,,,,,,,,380.56099985691253,,response,,,,99,,,,,,,Space,keypress(Space),,,,,,,,---- -- ----- -- ------ - ------- --- ----------<br>------------- ------ ------ ---- ---- ------- close -- ----<br>-------- ------- -- ---------- --- - --- ----- ----- ----<br>---- --- --- ----- --- ---- ---- ------- ----- ---- -------<br>--- --- -- ----- -- --- ---- -- --- ---- -- ------ ------<br>--- ----- -- ----,1043718.7999999523,1043718.399999857,1043321.415,1043326.7000000477,1043337.839,1043720.978,,15,close
screen,html.Screen,2_1_0_1_16,2022-02-02T15:06:07.310Z,,,,,,,,,,,,,,,,,53,,,,,,,,,,,,,,381.7220000476809,,response,,,,99,,,,,,,Space,keypress(Space),,,,,,,,---- -- ----- -- ------ - ------- --- ----------<br>------------- ------ ------ ---- ---- ------- ----- to ----<br>-------- ------- -- ---------- --- - --- ----- ----- ----<br>---- --- --- ----- --- ---- ---- ------- ----- ---- -------<br>--- --- -- ----- -- --- ---- -- --- ---- -- ------ ------<br>--- ----- -- ----,1044103,1044102.7000000477,1043704.711,1043718.899999857,1043720.978,1044104.335,,16,to
screen,html.Screen,2_1_0_1_17,2022-02-02T15:06:07.886Z,,,,,,,,,,,,,,,,,53,,,,,,,,,,,,,,574.1650000000373,,response,,,,99,,,,,,,Space,keypress(Space),,,,,,,,---- -- ----- -- ------ - ------- --- ----------<br>------------- ------ ------ ---- ---- ------- ----- -- your<br>-------- ------- -- ---------- --- - --- ----- ----- ----<br>---- --- --- ----- --- ---- ---- ------- ----- ---- -------<br>--- --- -- ----- -- --- ---- -- --- ---- -- ------ ------<br>--- ----- -- ----,1044678.899999857,1044678.5,1044088.036,1044103.0999999046,1044104.335,1044687.877,,17,your
screen,html.Screen,2_1_0_1_18,2022-02-02T15:06:08.422Z,,,,,,,,,,,,,,,,,53,,,,,,,,,,,,,,526.5229998569703,,response,,,,99,,,,,,,Space,keypress(Space),,,,,,,,---- -- ----- -- ------ - ------- --- ----------<br>------------- ------ ------ ---- ---- ------- ----- -- ----<br>romantic ------- -- ---------- --- - --- ----- ----- ----<br>---- --- --- ----- --- ---- ---- ------- ----- ---- -------<br>--- --- -- ----- -- --- ---- -- --- ---- -- ------ ------<br>--- ----- -- ----,1045214.7999999523,1045214.399999857,1044671.404,1044678.899999857,1044687.877,1045221.134,,18,romantic
screen,html.Screen,2_1_0_1_19,2022-02-02T15:06:08.902Z,,,,,,,,,,,,,,,,,53,,,,,,,,,,,,,,473.3660000000382,,response,,,,99,,,,,,,Space,keypress(Space),,,,,,,,---- -- ----- -- ------ - ------- --- ----------<br>------------- ------ ------ ---- ---- ------- ----- -- ----<br>-------- partner -- ---------- --- - --- ----- ----- ----<br>---- --- --- ----- --- ---- ---- ------- ----- ---- -------<br>--- --- -- ----- -- --- ---- -- --- ---- -- ------ ------<br>--- ----- -- ----,1045694.899999857,1045694.5,1045204.517,1045214.7999999523,1045221.134,1045704.44,,19,partner
screen,html.Screen,2_1_0_1_20,2022-02-02T15:06:09.286Z,,,,,,,,,,,,,,,,,53,,,,,,,,,,,,,,373.95999985700473,,response,,,,99,,,,,,,Space,keypress(Space),,,,,,,,---- -- ----- -- ------ - ------- --- ----------<br>------------- ------ ------ ---- ---- ------- ----- -- ----<br>-------- ------- is ---------- --- - --- ----- ----- ----<br>---- --- --- ----- --- ---- ---- ------- ----- ---- -------<br>--- --- -- ----- -- --- ---- -- --- ---- -- ------ ------<br>--- ----- -- ----,1046078.7999999523,1046078.399999857,1045687.679,1045694.899999857,1045704.44,1046087.643,,20,is
screen,html.Screen,2_1_0_1_21,2022-02-02T15:06:09.638Z,,,,,,,,,,,,,,,,,53,,,,,,,,,,,,,,342.85699999995995,,response,,,,99,,,,,,,Space,keypress(Space),,,,,,,,---- -- ----- -- ------ - ------- --- ----------<br>------------- ------ ------ ---- ---- ------- ----- -- ----<br>-------- ------- -- paramount. --- - --- ----- ----- ----<br>---- --- --- ----- --- ---- ---- ------- ----- ---- -------<br>--- --- -- ----- -- --- ---- -- --- ---- -- ------ ------<br>--- ----- -- ----,1046430.7000000477,1046430.5,1046071.393,1046078.899999857,1046087.643,1046437.768,,21,paramount.
screen,html.Screen,2_1_0_1_22,2022-02-02T15:06:10.142Z,,,,,,,,,,,,,,,,,53,,,,,,,,,,,,,,497.1319998569088,,response,,,,99,,,,,,,Space,keypress(Space),,,,,,,,---- -- ----- -- ------ - ------- --- ----------<br>------------- ------ ------ ---- ---- ------- ----- -- ----<br>-------- ------- -- ---------- But - --- ----- ----- ----<br>---- --- --- ----- --- ---- ---- ------- ----- ---- -------<br>--- --- -- ----- -- --- ---- -- --- ---- -- ------ ------<br>--- ----- -- ----,1046935.2000000477,1046934.899999857,1046421.349,1046430.7999999523,1046437.768,1046937.621,,22,But
screen,html.Screen,2_1_0_1_23,2022-02-02T15:06:10.542Z,,,,,,,,,,,,,,,,,53,,,,,,,,,,,,,,397.0790000476409,,response,,,,99,,,,,,,Space,keypress(Space),,,,,,,,---- -- ----- -- ------ - ------- --- ----------<br>------------- ------ ------ ---- ---- ------- ----- -- ----<br>-------- ------- -- ---------- --- a --- ----- ----- ----<br>---- --- --- ----- --- ---- ---- ------- ----- ---- -------<br>--- --- -- ----- -- --- ---- -- --- ---- -- ------ ------<br>--- ----- -- ----,1047335,1047334.7000000477,1046920.99,1046935.2999999523,1046937.621,1047337.617,,23,a
screen,html.Screen,2_1_0_1_24,2022-02-02T15:06:10.902Z,,,,,,,,,,,,,,,,,53,,,,,,,,,,,,,,356.682999952347,,response,,,,99,,,,,,,Space,keypress(Space),,,,,,,,---- -- ----- -- ------ - ------- --- ----------<br>------------- ------ ------ ---- ---- ------- ----- -- ----<br>-------- ------- -- ---------- --- - new ----- ----- ----<br>---- --- --- ----- --- ---- ---- ------- ----- ---- -------<br>--- --- -- ----- -- --- ---- -- --- ---- -- ------ ------<br>--- ----- -- ----,1047694.5999999046,1047694.2999999523,1047321.319,1047335.0999999046,1047337.617,1047704.426,,24,new
screen,html.Screen,2_1_0_1_25,2022-02-02T15:06:11.294Z,,,,,,,,,,,,,,,,,53,,,,,,,,,,,,,,382.07400000002235,,response,,,,99,,,,,,,Space,keypress(Space),,,,,,,,---- -- ----- -- ------ - ------- --- ----------<br>------------- ------ ------ ---- ---- ------- ----- -- ----<br>-------- ------- -- ---------- --- - --- study ----- ----<br>---- --- --- ----- --- ---- ---- ------- ----- ---- -------<br>--- --- -- ----- -- --- ---- -- --- ---- -- ------ ------<br>--- ----- -- ----,1048086.7999999523,1048086.5,1047688.012,1047694.7000000477,1047704.426,1048087.637,,25,study
screen,html.Screen,2_1_0_1_26,2022-02-02T15:06:11.670Z,,,,,,,,,,,,,,,,,53,,,,,,,,,,,,,,374.8630000000121,,response,,,,99,,,,,,,Space,keypress(Space),,,,,,,,---- -- ----- -- ------ - ------- --- ----------<br>------------- ------ ------ ---- ---- ------- ----- -- ----<br>-------- ------- -- ---------- --- - --- ----- finds ----<br>---- --- --- ----- --- ---- ---- ------- ----- ---- -------<br>--- --- -- ----- -- --- ---- -- --- ---- -- ------ ------<br>--- ----- -- ----,1048462.899999857,1048462.5,1048070.992,1048086.7999999523,1048087.637,1048470.961,,26,finds
screen,html.Screen,2_1_0_1_27,2022-02-02T15:06:12.086Z,,,,,,,,,,,,,,,,,53,,,,,,,,,,,,,,407.33899995230604,,response,,,,99,,,,,,,Space,keypress(Space),,,,,,,,---- -- ----- -- ------ - ------- --- ----------<br>------------- ------ ------ ---- ---- ------- ----- -- ----<br>-------- ------- -- ---------- --- - --- ----- ----- that<br>---- --- --- ----- --- ---- ---- ------- ----- ---- -------<br>--- --- -- ----- -- --- ---- -- --- ---- -- ------ ------<br>--- ----- -- ----,1048878.5999999046,1048878.2999999523,1048454.67,1048463,1048470.961,1048887.775,,27,that
screen,html.Screen,2_1_0_1_28,2022-02-02T15:06:12.462Z,,,,,,,,,,,,,,,,,53,,,,,,,,,,,,,,366.92500004777685,,response,,,,99,,,,,,,Space,keypress(Space),,,,,,,,---- -- ----- -- ------ - ------- --- ----------<br>------------- ------ ------ ---- ---- ------- ----- -- ----<br>-------- ------- -- ---------- --- - --- ----- ----- ----<br>it's --- --- ----- --- ---- ---- ------- ----- ---- -------<br>--- --- -- ----- -- --- ---- -- --- ---- -- ------ ------<br>--- ----- -- ----,1049255,1049254.7000000477,1048871.366,1048878.7000000477,1048887.775,1049270.954,,28,it's
screen,html.Screen,2_1_0_1_29,2022-02-02T15:06:12.790Z,,,,,,,,,,,,,,,,,53,,,,,,,,,,,,,,311.44599985703826,,response,,,,99,,,,,,,Space,keypress(Space),,,,,,,,---- -- ----- -- ------ - ------- --- ----------<br>------------- ------ ------ ---- ---- ------- ----- -- ----<br>-------- ------- -- ---------- --- - --- ----- ----- ----<br>---- not --- ----- --- ---- ---- ------- ----- ---- -------<br>--- --- -- ----- -- --- ---- -- --- ---- -- ------ ------<br>--- ----- -- ----,1049582.7999999523,1049582.399999857,1049254.347,1049255.0999999046,1049270.954,1049587.744,,29,not
screen,html.Screen,2_1_0_1_30,2022-02-02T15:06:13.126Z,,,,,,,,,,,,,,,,,53,,,,,,,,,,,,,,330.8559999046847,,response,,,,99,,,,,,,Space,keypress(Space),,,,,,,,---- -- ----- -- ------ - ------- --- ----------<br>------------- ------ ------ ---- ---- ------- ----- -- ----<br>-------- ------- -- ---------- --- - --- ----- ----- ----<br>---- --- how ----- --- ---- ---- ------- ----- ---- -------<br>--- --- -- ----- -- --- ---- -- --- ---- -- ------ ------<br>--- ----- -- ----,1049919,1049918.5999999046,1049571.31,1049582.7999999523,1049587.744,1049920.95,,30,how
screen,html.Screen,2_1_0_1_31,2022-02-02T15:06:13.518Z,,,,,,,,,,,,,,,,,53,,,,,,,,,,,,,,389.4499998569954,,response,,,,99,,,,,,,Space,keypress(Space),,,,,,,,---- -- ----- -- ------ - ------- --- ----------<br>------------- ------ ------ ---- ---- ------- ----- -- ----<br>-------- ------- -- ---------- --- - --- ----- ----- ----<br>---- --- --- close --- ---- ---- ------- ----- ---- -------<br>--- --- -- ----- -- --- ---- -- --- ---- -- ------ ------<br>--- ----- -- ----,1050310.7000000477,1050310.399999857,1049904.312,1049919,1049920.95,1050320.946,,31,close
screen,html.Screen,2_1_0_1_32,2022-02-02T15:06:13.902Z,,,,,,,,,,,,,,,,,53,,,,,,,,,,,,,,373.35399995232,,response,,,,99,,,,,,,Space,keypress(Space),,,,,,,,---- -- ----- -- ------ - ------- --- ----------<br>------------- ------ ------ ---- ---- ------- ----- -- ----<br>-------- ------- -- ---------- --- - --- ----- ----- ----<br>---- --- --- ----- you ---- ---- ------- ----- ---- -------<br>--- --- -- ----- -- --- ---- -- --- ---- -- ------ ------<br>--- ----- -- ----,1050694.7000000477,1050694.2999999523,1050304.634,1050310.7999999523,1050320.946,1050704.275,,32,you
screen,html.Screen,2_1_0_1_33,2022-02-02T15:06:14.286Z,,,,,,,,,,,,,,,,,53,,,,,,,,,,,,,,374.22500000009313,,response,,,,99,,,,,,,Space,keypress(Space),,,,,,,,---- -- ----- -- ------ - ------- --- ----------<br>------------- ------ ------ ---- ---- ------- ----- -- ----<br>-------- ------- -- ---------- --- - --- ----- ----- ----<br>---- --- --- ----- --- feel ---- ------- ----- ---- -------<br>--- --- -- ----- -- --- ---- -- --- ---- -- ------ ------<br>--- ----- -- ----,1051078.899999857,1051078.5,1050687.971,1050694.7999999523,1050704.275,1051087.599,,33,feel
screen,html.Screen,2_1_0_1_34,2022-02-02T15:06:14.598Z,,,,,,,,,,,,,,,,,53,,,,,,,,,,,,,,302.70099995238706,,response,,,,99,,,,,,,Space,keypress(Space),,,,,,,,---- -- ----- -- ------ - ------- --- ----------<br>------------- ------ ------ ---- ---- ------- ----- -- ----<br>-------- ------- -- ---------- --- - --- ----- ----- ----<br>---- --- --- ----- --- ---- that ------- ----- ---- -------<br>--- --- -- ----- -- --- ---- -- --- ---- -- ------ ------<br>--- ----- -- ----,1051390.7000000477,1051390.2999999523,1051070.949,1051078.899999857,1051087.599,1051404.423,,34,that
screen,html.Screen,2_1_0_1_35,2022-02-02T15:06:14.950Z,,,,,,,,,,,,,,,,,53,,,,,,,,,,,,,,338.07700000004843,,response,,,,99,,,,,,,Space,keypress(Space),,,,,,,,---- -- ----- -- ------ - ------- --- ----------<br>------------- ------ ------ ---- ---- ------- ----- -- ----<br>-------- ------- -- ---------- --- - --- ----- ----- ----<br>---- --- --- ----- --- ---- ---- matters ----- ---- -------<br>--- --- -- ----- -- --- ---- -- --- ---- -- ------ ------<br>--- ----- -- ----,1051742.899999857,1051742.5,1051387.776,1051390.7000000477,1051404.423,1051754.279,,35,matters
screen,html.Screen,2_1_0_1_36,2022-02-02T15:06:15.294Z,,,,,,,,,,,,,,,,,53,,,,,,,,,,,,,,332.120999856852,,response,,,,99,,,,,,,Space,keypress(Space),,,,,,,,"---- -- ----- -- ------ - ------- --- ----------<br>------------- ------ ------ ---- ---- ------- ----- -- ----<br>-------- ------- -- ---------- --- - --- ----- ----- ----<br>---- --- --- ----- --- ---- ---- ------- most, ---- -------<br>--- --- -- ----- -- --- ---- -- --- ---- -- ------ ------<br>--- ----- -- ----",1052086.7999999523,1052086.399999857,1051737.979,1051743,1051754.279,1052087.588,,36,"most,"
screen,html.Screen,2_1_0_1_37,2022-02-02T15:06:15.694Z,,,,,,,,,,,,,,,,,53,,,,,,,,,,,,,,398.9120000000112,,response,,,,99,,,,,,,Space,keypress(Space),,,,,,,,---- -- ----- -- ------ - ------- --- ----------<br>------------- ------ ------ ---- ---- ------- ----- -- ----<br>-------- ------- -- ---------- --- - --- ----- ----- ----<br>---- --- --- ----- --- ---- ---- ------- ----- it's -------<br>--- --- -- ----- -- --- ---- -- --- ---- -- ------ ------<br>--- ----- -- ----,1052486.7999999523,1052486.5,1052071.251,1052086.7999999523,1052087.588,1052487.585,,37,it's
screen,html.Screen,2_1_0_1_38,2022-02-02T15:06:16.070Z,,,,,,,,,,,,,,,,,53,,,,,,,,,,,,,,375.11500004772097,,response,,,,99,,,,,,,Space,keypress(Space),,,,,,,,---- -- ----- -- ------ - ------- --- ----------<br>------------- ------ ------ ---- ---- ------- ----- -- ----<br>-------- ------- -- ---------- --- - --- ----- ----- ----<br>---- --- --- ----- --- ---- ---- ------- ----- ---- whether<br>--- --- -- ----- -- --- ---- -- --- ---- -- ------ ------<br>--- ----- -- ----,1052863.0999999046,1052862.7000000477,1052471.331,1052486.899999857,1052487.585,1052870.927,,38,whether
screen,html.Screen,2_1_0_1_39,2022-02-02T15:06:16.390Z,,,,,,,,,,,,,,,,,53,,,,,,,,,,,,,,311.37299995240755,,response,,,,99,,,,,,,Space,keypress(Space),,,,,,,,---- -- ----- -- ------ - ------- --- ----------<br>------------- ------ ------ ---- ---- ------- ----- -- ----<br>-------- ------- -- ---------- --- - --- ----- ----- ----<br>---- --- --- ----- --- ---- ---- ------- ----- ---- -------<br>you --- -- ----- -- --- ---- -- --- ---- -- ------ ------<br>--- ----- -- ----,1053182.5999999046,1053182.2999999523,1052854.602,1052863.0999999046,1052870.927,1053187.752,,39,you
screen,html.Screen,2_1_0_1_40,2022-02-02T15:06:16.718Z,,,,,,,,,,,,,,,,,53,,,,,,,,,,,,,,322.5479999522213,,response,,,,99,,,,,,,Space,keypress(Space),,,,,,,,---- -- ----- -- ------ - ------- --- ----------<br>------------- ------ ------ ---- ---- ------- ----- -- ----<br>-------- ------- -- ---------- --- - --- ----- ----- ----<br>---- --- --- ----- --- ---- ---- ------- ----- ---- -------<br>--- are -- ----- -- --- ---- -- --- ---- -- ------ ------<br>--- ----- -- ----,1053510.5999999046,1053510.2999999523,1053171.359,1053182.7000000477,1053187.752,1053520.912,,40,are
screen,html.Screen,2_1_0_1_41,2022-02-02T15:06:17.038Z,,,,,,,,,,,,,,,,,53,,,,,,,,,,,,,,309.3879999523051,,response,,,,99,,,,,,,Space,keypress(Space),,,,,,,,---- -- ----- -- ------ - ------- --- ----------<br>------------- ------ ------ ---- ---- ------- ----- -- ----<br>-------- ------- -- ---------- --- - --- ----- ----- ----<br>---- --- --- ----- --- ---- ---- ------- ----- ---- -------<br>--- --- as ----- -- --- ---- -- --- ---- -- ------ ------<br>--- ----- -- ----,1053830.5999999046,1053830.2999999523,1053504.52,1053510.7000000477,1053520.912,1053837.975,,41,as
screen,html.Screen,2_1_0_1_42,2022-02-02T15:06:17.398Z,,,,,,,,,,,,,,,,,53,,,,,,,,,,,,,,352.32499995222315,,response,,,,99,,,,,,,Space,keypress(Space),,,,,,,,---- -- ----- -- ------ - ------- --- ----------<br>------------- ------ ------ ---- ---- ------- ----- -- ----<br>-------- ------- -- ---------- --- - --- ----- ----- ----<br>---- --- --- ----- --- ---- ---- ------- ----- ---- -------<br>--- --- -- close -- --- ---- -- --- ---- -- ------ ------<br>--- ----- -- ----,1054190.7000000477,1054190.2999999523,1053820.956,1053830.7000000477,1053837.975,1054204.621,,42,close
screen,html.Screen,2_1_0_1_43,2022-02-02T15:06:17.750Z,,,,,,,,,,,,,,,,,53,,,,,,,,,,,,,,337.67899995227344,,response,,,,99,,,,,,,Space,keypress(Space),,,,,,,,---- -- ----- -- ------ - ------- --- ----------<br>------------- ------ ------ ---- ---- ------- ----- -- ----<br>-------- ------- -- ---------- --- - --- ----- ----- ----<br>---- --- --- ----- --- ---- ---- ------- ----- ---- -------<br>--- --- -- ----- as --- ---- -- --- ---- -- ------ ------<br>--- ----- -- ----,1054542.5999999046,1054542.2999999523,1054187.59,1054190.7000000477,1054204.621,1054554.258,,43,as
screen,html.Screen,2_1_0_1_44,2022-02-02T15:06:18.086Z,,,,,,,,,,,,,,,,,53,,,,,,,,,,,,,,324.2420000000857,,response,,,,99,,,,,,,Space,keypress(Space),,,,,,,,---- -- ----- -- ------ - ------- --- ----------<br>------------- ------ ------ ---- ---- ------- ----- -- ----<br>-------- ------- -- ---------- --- - --- ----- ----- ----<br>---- --- --- ----- --- ---- ---- ------- ----- ---- -------<br>--- --- -- ----- -- you ---- -- --- ---- -- ------ ------<br>--- ----- -- ----,1054878.899999857,1054878.5,1054537.941,1054542.7000000477,1054554.258,1054887.56,,44,you
screen,html.Screen,2_1_0_1_45,2022-02-02T15:06:18.494Z,,,,,,,,,,,,,,,,,53,,,,,,,,,,,,,,398.9399999999441,,response,,,,99,,,,,,,Space,keypress(Space),,,,,,,,---- -- ----- -- ------ - ------- --- ----------<br>------------- ------ ------ ---- ---- ------- ----- -- ----<br>-------- ------- -- ---------- --- - --- ----- ----- ----<br>---- --- --- ----- --- ---- ---- ------- ----- ---- -------<br>--- --- -- ----- -- --- want -- --- ---- -- ------ ------<br>--- ----- -- ----,1055286.7999999523,1055286.5,1054870.92,1054878.899999857,1054887.56,1055287.569,,45,want
screen,html.Screen,2_1_0_1_46,2022-02-02T15:06:18.910Z,,,,,,,,,,,,,,,,,53,,,,,,,,,,,,,,414.8309998570476,,response,,,,99,,,,,,,Space,keypress(Space),,,,,,,,---- -- ----- -- ------ - ------- --- ----------<br>------------- ------ ------ ---- ---- ------- ----- -- ----<br>-------- ------- -- ---------- --- - --- ----- ----- ----<br>---- --- --- ----- --- ---- ---- ------- ----- ---- -------<br>--- --- -- ----- -- --- ---- to --- ---- -- ------ ------<br>--- ----- -- ----,1055702.7999999523,1055702.399999857,1055270.947,1055286.899999857,1055287.569,1055704.246,,46,to
screen,html.Screen,2_1_0_1_47,2022-02-02T15:06:19.358Z,,,,,,,,,,,,,,,,,53,,,,,,,,,,,,,,446.153999856906,,response,,,,99,,,,,,,Space,keypress(Space),,,,,,,,"---- -- ----- -- ------ - ------- --- ----------<br>------------- ------ ------ ---- ---- ------- ----- -- ----<br>-------- ------- -- ---------- --- - --- ----- ----- ----<br>---- --- --- ----- --- ---- ---- ------- ----- ---- -------<br>--- --- -- ----- -- --- ---- -- be, ---- -- ------ ------<br>--- ----- -- ----",1056150.7999999523,1056150.399999857,1055687.708,1055702.7999999523,1055704.246,1056154.23,,47,"be,"
screen,html.Screen,2_1_0_1_48,2022-02-02T15:06:21.598Z,,,,,,,,,,,,,,,,,53,,,,,,,,,,,,,,2236.4700000477023,,response,,,,99,,,,,,,Space,keypress(Space),,,,,,,,---- -- ----- -- ------ - ------- --- ----------<br>------------- ------ ------ ---- ---- ------- ----- -- ----<br>-------- ------- -- ---------- --- - --- ----- ----- ----<br>---- --- --- ----- --- ---- ---- ------- ----- ---- -------<br>--- --- -- ----- -- --- ---- -- --- even -- ------ ------<br>--- ----- -- ----,1058391,1058390.7000000477,1056137.939,1056150.7999999523,1056154.23,1058404.201,,48,even
screen,html.Screen,2_1_0_1_49,2022-02-02T15:06:21.926Z,,,,,,,,,,,,,,,,,53,,,,,,,,,,,,,,314.4990000477992,,response,,,,99,,,,,,,Space,keypress(Space),,,,,,,,---- -- ----- -- ------ - ------- --- ----------<br>------------- ------ ------ ---- ---- ------- ----- -- ----<br>-------- ------- -- ---------- --- - --- ----- ----- ----<br>---- --- --- ----- --- ---- ---- ------- ----- ---- -------<br>--- --- -- ----- -- --- ---- -- --- ---- if ------ ------<br>--- ----- -- ----,1058719.0999999046,1058718.7000000477,1058387.905,1058391,1058404.201,1058720.872,,49,if
screen,html.Screen,2_1_0_1_50,2022-02-02T15:06:22.334Z,,,,,,,,,,,,,,,,,53,,,,,,,,,,,,,,405.72799990465865,,response,,,,99,,,,,,,Space,keypress(Space),,,,,,,,---- -- ----- -- ------ - ------- --- ----------<br>------------- ------ ------ ---- ---- ------- ----- -- ----<br>-------- ------- -- ---------- --- - --- ----- ----- ----<br>---- --- --- ----- --- ---- ---- ------- ----- ---- -------<br>--- --- -- ----- -- --- ---- -- --- ---- -- that's ------<br>--- ----- -- ----,1059126.899999857,1059126.5999999046,1058704.4,1058719.2000000477,1058720.872,1059137.528,,50,that's
screen,html.Screen,2_1_0_1_51,2022-02-02T15:06:22.742Z,,,,,,,,,,,,,,,,,53,,,,,,,,,,,,,,396.8719998570159,,response,,,,99,,,,,,,Space,keypress(Space),,,,,,,,---- -- ----- -- ------ - ------- --- ----------<br>------------- ------ ------ ---- ---- ------- ----- -- ----<br>-------- ------- -- ---------- --- - --- ----- ----- ----<br>---- --- --- ----- --- ---- ---- ------- ----- ---- -------<br>--- --- -- ----- -- --- ---- -- --- ---- -- ------ really<br>--- ----- -- ----,1059534.899999857,1059534.399999857,1059120.896,1059127,1059137.528,1059537.521,,51,really
screen,html.Screen,2_1_0_1_52,2022-02-02T15:06:23.102Z,,,,,,,,,,,,,,,,,53,,,,,,,,,,,,,,356.9790000000503,,response,,,,99,,,,,,,Space,keypress(Space),,,,,,,,---- -- ----- -- ------ - ------- --- ----------<br>------------- ------ ------ ---- ---- ------- ----- -- ----<br>-------- ------- -- ---------- --- - --- ----- ----- ----<br>---- --- --- ----- --- ---- ---- ------- ----- ---- -------<br>--- --- -- ----- -- --- ---- -- --- ---- -- ------ ------<br>not ----- -- ----,1059894.899999857,1059894.5,1059521.248,1059534.899999857,1059537.521,1059904.209,,52,not
screen,html.Screen,2_1_0_1_53,2022-02-02T15:06:23.438Z,,,,,,,,,,,,,,,,,53,,,,,,,,,,,,,,326.29099999996834,,response,,,,99,,,,,,,Space,keypress(Space),,,,,,,,---- -- ----- -- ------ - ------- --- ----------<br>------------- ------ ------ ---- ---- ------- ----- -- ----<br>-------- ------- -- ---------- --- - --- ----- ----- ----<br>---- --- --- ----- --- ---- ---- ------- ----- ---- -------<br>--- --- -- ----- -- --- ---- -- --- ---- -- ------ ------<br>--- close -- ----,1060231,1060230.5,1059887.911,1059894.899999857,1059904.209,1060237.515,,53,close
screen,html.Screen,2_1_0_1_54,2022-02-02T15:06:23.782Z,,,,,,,,,,,,,,,,,53,,,,,,,,,,,,,,336.78499995241873,,response,,,,99,,,,,,,Space,keypress(Space),,,,,,,,---- -- ----- -- ------ - ------- --- ----------<br>------------- ------ ------ ---- ---- ------- ----- -- ----<br>-------- ------- -- ---------- --- - --- ----- ----- ----<br>---- --- --- ----- --- ---- ---- ------- ----- ---- -------<br>--- --- -- ----- -- --- ---- -- --- ---- -- ------ ------<br>--- ----- at ----,1060574.5999999046,1060574.2999999523,1060221.281,1060231,1060237.515,1060587.526,,54,at
screen,html.Screen,2_1_0_1_55,2022-02-02T15:06:24.838Z,,,,,,,,,,,,,,,,,53,,,,,,,,,,,,,,1042.7739999522455,,response,,,,99,,,,,,,Space,keypress(Space),,,,,,,,---- -- ----- -- ------ - ------- --- ----------<br>------------- ------ ------ ---- ---- ------- ----- -- ----<br>-------- ------- -- ---------- --- - --- ----- ----- ----<br>---- --- --- ----- --- ---- ---- ------- ----- ---- -------<br>--- --- -- ----- -- --- ---- -- --- ---- -- ------ ------<br>--- ----- -- all.,1061630.7999999523,1061630.2999999523,1060570.871,1060574.7000000477,1060587.526,1061637.499,,55,all.
Item 99,flow.Loop,2_1_0_1,2022-02-02T15:06:24.838Z,,,,,,,,,,,,,,,,,,,,,,,,,,,,,,,26309.224999952363,,completion,,,,,C,,,,,,,,,,,silence,,,,,1061630.7999999523,1061630.2999999523,1035304.551,1035305.0999999046,1035321.075,1061637.499,,,
Question 1,html.Screen,2_1_0_2,2022-02-02T15:06:32.078Z,,,,,,,,,,,,,,,,,,,,,,,,,,,,false,FALSE,,7232.600999904564,,response,,,,99,C,,,,,,TRUE,click #choice-1,,,,silence,,,,,1068870.5999999046,1068870.0999999046,1061620.884,1061630.7999999523,1061637.499,1068870.804,,,
Question 2,html.Screen,2_1_0_3,2022-02-02T15:06:39.374Z,,,,,,,,,,,,,,,,,,,,,,,,,,,,true,TRUE,,7295.295999904629,,response,,,,99,C,,,,,,TRUE,click #choice-1,,,,silence,,,,,1076166.5999999046,1076166.0999999046,1068854.416,1068870.5999999046,1068870.804,1076170.728,,,
Item 99,flow.Sequence,2_1_0,2022-02-02T15:06:39.374Z,,,,,,,,,,,,,,,,,,,,,,,,,,,,,,,50844.97199990461,,completion,,,,,,,,,,,,,,,,,,,,,1076166.7999999523,1076166.0999999046,1025304.826,1025311.2999999523,1025321.128,1076170.728,,,
Holding screen,html.Screen,2_1_1_0,2022-02-02T15:06:49.362Z,,,,,,,,,,,,,,,,,,,,,,,,,,,,,,,9999.94700000016,,timeout,,,,,,,,,,,,,,,,,,,,,1086154.5,1086154.162,1076154.236,1076166.7999999523,1076170.728,1086170.675,,,
screen,html.Screen,2_1_1_1_0,2022-02-02T15:06:50.790Z,,,,,,,,,,,,,,,,,54,,,,,,,,,,,,,,1412.1249999522697,,response,,,,100,,,,,,,Space,keypress(Space),,,,,,,,At --- ---- --- ------ ----- ------- ---- -- --- ------- --<br>------- ---------- ------ -- ----- -- ----- -- ---- ------<br>--- ----- --- --- ------ -------- ----- --- ------ ----- --<br>----- ----- ---------- --- --- ------ ------ ---- -- ------<br>------- --- ------ ----- --- ---- ------- -- ---- --- --<br>------- ------,1087583.2000000477,1087582.7999999523,1086154.162,1086154.7000000477,1086170.675,1087587.298,,0,At
screen,html.Screen,2_1_1_1_1,2022-02-02T15:06:51.086Z,,,,,,,,,,,,,,,,,54,,,,,,,,,,,,,,291.40200004773214,,response,,,,100,,,,,,,Space,keypress(Space),,,,,,,,-- the ---- --- ------ ----- ------- ---- -- --- ------- --<br>------- ---------- ------ -- ----- -- ----- -- ---- ------<br>--- ----- --- --- ------ -------- ----- --- ------ ----- --<br>----- ----- ---------- --- --- ------ ------ ---- -- ------<br>------- --- ------ ----- --- ---- ------- -- ---- --- --<br>------- ------,1087879,1087878.7000000477,1087570.67,1087583.2999999523,1087587.298,1087887.327,,1,the
screen,html.Screen,2_1_1_1_2,2022-02-02T15:06:51.406Z,,,,,,,,,,,,,,,,,54,,,,,,,,,,,,,,311.27299990458414,,response,,,,100,,,,,,,Space,keypress(Space),,,,,,,,-- --- time --- ------ ----- ------- ---- -- --- ------- --<br>------- ---------- ------ -- ----- -- ----- -- ---- ------<br>--- ----- --- --- ------ -------- ----- --- ------ ----- --<br>----- ----- ---------- --- --- ------ ------ ---- -- ------<br>------- --- ------ ----- --- ---- ------- -- ---- --- --<br>------- ------,1088198.899999857,1088198.5999999046,1087870.658,1087879.0999999046,1087887.327,1088203.98,,2,time
screen,html.Screen,2_1_1_1_3,2022-02-02T15:06:51.734Z,,,,,,,,,,,,,,,,,54,,,,,,,,,,,,,,322.6199999046512,,response,,,,100,,,,,,,Space,keypress(Space),,,,,,,,-- --- ---- the ------ ----- ------- ---- -- --- ------- --<br>------- ---------- ------ -- ----- -- ----- -- ---- ------<br>--- ----- --- --- ------ -------- ----- --- ------ ----- --<br>----- ----- ---------- --- --- ------ ------ ---- -- ------<br>------- --- ------ ----- --- ---- ------- -- ---- --- --<br>------- ------,1088527,1088526.5999999046,1088187.698,1088199,1088203.98,1088537.295,,3,the
screen,html.Screen,2_1_1_1_4,2022-02-02T15:06:52.006Z,,,,,,,,,,,,,,,,,54,,,,,,,,,,,,,,261.3049999047071,,response,,,,100,,,,,,,Space,keypress(Space),,,,,,,,-- --- ---- --- French ----- ------- ---- -- --- ------- --<br>------- ---------- ------ -- ----- -- ----- -- ---- ------<br>--- ----- --- --- ------ -------- ----- --- ------ ----- --<br>----- ----- ---------- --- --- ------ ------ ---- -- ------<br>------- --- ------ ----- --- ---- ------- -- ---- --- --<br>------- ------,1088798.899999857,1088798.5999999046,1088520.664,1088527.0999999046,1088537.295,1088803.99,,4,French
screen,html.Screen,2_1_1_1_5,2022-02-02T15:06:52.374Z,,,,,,,,,,,,,,,,,54,,,,,,,,,,,,,,362.5100000000093,,response,,,,100,,,,,,,Space,keypress(Space),,,,,,,,-- --- ---- --- ------ crown ------- ---- -- --- ------- --<br>------- ---------- ------ -- ----- -- ----- -- ---- ------<br>--- ----- --- --- ------ -------- ----- --- ------ ----- --<br>----- ----- ---------- --- --- ------ ------ ---- -- ------<br>------- --- ------ ----- --- ---- ------- -- ---- --- --<br>------- ------,1089166.7999999523,1089166.5,1088787.665,1088798.899999857,1088803.99,1089170.636,,5,crown
screen,html.Screen,2_1_1_1_6,2022-02-02T15:06:52.694Z,,,,,,,,,,,,,,,,,54,,,,,,,,,,,,,,315.8640000000596,,response,,,,100,,,,,,,Space,keypress(Space),,,,,,,,-- --- ---- --- ------ ----- secured ---- -- --- ------- --<br>------- ---------- ------ -- ----- -- ----- -- ---- ------<br>--- ----- --- --- ------ -------- ----- --- ------ ----- --<br>----- ----- ---------- --- --- ------ ------ ---- -- ------<br>------- --- ------ ----- --- ---- ------- -- ---- --- --<br>------- ------,1089486.7999999523,1089486.5,1089154.355,1089166.899999857,1089170.636,1089487.304,,6,secured
screen,html.Screen,2_1_1_1_7,2022-02-02T15:06:53.014Z,,,,,,,,,,,,,,,,,54,,,,,,,,,,,,,,318.99599995231256,,response,,,,100,,,,,,,Space,keypress(Space),,,,,,,,-- --- ---- --- ------ ----- ------- much -- --- ------- --<br>------- ---------- ------ -- ----- -- ----- -- ---- ------<br>--- ----- --- --- ------ -------- ----- --- ------ ----- --<br>----- ----- ---------- --- --- ------ ------ ---- -- ------<br>------- --- ------ ----- --- ---- ------- -- ---- --- --<br>------- ------,1089806.5999999046,1089806.2999999523,1089470.664,1089486.7999999523,1089487.304,1089820.644,,7,much
screen,html.Screen,2_1_1_1_8,2022-02-02T15:06:53.358Z,,,,,,,,,,,,,,,,,54,,,,,,,,,,,,,,329.85599999991246,,response,,,,100,,,,,,,Space,keypress(Space),,,,,,,,-- --- ---- --- ------ ----- ------- ---- of --- ------- --<br>------- ---------- ------ -- ----- -- ----- -- ---- ------<br>--- ----- --- --- ------ -------- ----- --- ------ ----- --<br>----- ----- ---------- --- --- ------ ------ ---- -- ------<br>------- --- ------ ----- --- ---- ------- -- ---- --- --<br>------- ------,1090150.7999999523,1090150.5,1089804.13,1089806.7000000477,1089820.644,1090153.968,,8,of
screen,html.Screen,2_1_1_1_9,2022-02-02T15:06:53.590Z,,,,,,,,,,,,,,,,,54,,,,,,,,,,,,,,228.3319999522064,,response,,,,100,,,,,,,Space,keypress(Space),,,,,,,,-- --- ---- --- ------ ----- ------- ---- -- its ------- --<br>------- ---------- ------ -- ----- -- ----- -- ---- ------<br>--- ----- --- --- ------ -------- ----- --- ------ ----- --<br>----- ----- ---------- --- --- ------ ------ ---- -- ------<br>------- --- ------ ----- --- ---- ------- -- ---- --- --<br>------- ------,1090382.5999999046,1090382.2999999523,1090137.516,1090150.7999999523,1090153.968,1090387.439,,9,its
screen,html.Screen,2_1_1_1_10,2022-02-02T15:06:53.894Z,,,,,,,,,,,,,,,,,54,,,,,,,,,,,,,,298.86099995230325,,response,,,,100,,,,,,,Space,keypress(Space),,,,,,,,-- --- ---- --- ------ ----- ------- ---- -- --- revenue --<br>------- ---------- ------ -- ----- -- ----- -- ---- ------<br>--- ----- --- --- ------ -------- ----- --- ------ ----- --<br>----- ----- ---------- --- --- ------ ------ ---- -- ------<br>------- --- ------ ----- --- ---- ------- -- ---- --- --<br>------- ------,1090686.7000000477,1090686.2999999523,1090370.643,1090382.5999999046,1090387.439,1090687.296,,10,revenue
screen,html.Screen,2_1_1_1_11,2022-02-02T15:06:54.238Z,,,,,,,,,,,,,,,,,54,,,,,,,,,,,,,,343.10399985685945,,response,,,,100,,,,,,,Space,keypress(Space),,,,,,,,-- --- ---- --- ------ ----- ------- ---- -- --- ------- by<br>------- ---------- ------ -- ----- -- ----- -- ---- ------<br>--- ----- --- --- ------ -------- ----- --- ------ ----- --<br>----- ----- ---------- --- --- ------ ------ ---- -- ------<br>------- --- ------ ----- --- ---- ------- -- ---- --- --<br>------- ------,1091030.5999999046,1091030.399999857,1090670.624,1090686.7000000477,1090687.296,1091037.3,,11,by
screen,html.Screen,2_1_1_1_12,2022-02-02T15:06:54.566Z,,,,,,,,,,,,,,,,,54,,,,,,,,,,,,,,321.0999998569023,,response,,,,100,,,,,,,Space,keypress(Space),,,,,,,,-- --- ---- --- ------ ----- ------- ---- -- --- ------- --<br>issuing ---------- ------ -- ----- -- ----- -- ---- ------<br>--- ----- --- --- ------ -------- ----- --- ------ ----- --<br>----- ----- ---------- --- --- ------ ------ ---- -- ------<br>------- --- ------ ----- --- ---- ------- -- ---- --- --<br>------- ------,1091358.7999999523,1091358.399999857,1091020.632,1091030.7000000477,1091037.3,1091370.624,,12,issuing
screen,html.Screen,2_1_1_1_13,2022-02-02T15:06:54.854Z,,,,,,,,,,,,,,,,,54,,,,,,,,,,,,,,275.77599985687993,,response,,,,100,,,,,,,Space,keypress(Space),,,,,,,,-- --- ---- --- ------ ----- ------- ---- -- --- ------- --<br>------- government ------ -- ----- -- ----- -- ---- ------<br>--- ----- --- --- ------ -------- ----- --- ------ ----- --<br>----- ----- ---------- --- --- ------ ------ ---- -- ------<br>------- --- ------ ----- --- ---- ------- -- ---- --- --<br>------- ------,1091646.5999999046,1091646.399999857,1091354.138,1091358.899999857,1091370.624,1091653.961,,13,government
screen,html.Screen,2_1_1_1_14,2022-02-02T15:06:55.206Z,,,,,,,,,,,,,,,,,54,,,,,,,,,,,,,,344.7390000477899,,response,,,,100,,,,,,,Space,keypress(Space),,,,,,,,-- --- ---- --- ------ ----- ------- ---- -- --- ------- --<br>------- ---------- bonds. -- ----- -- ----- -- ---- ------<br>--- ----- --- --- ------ -------- ----- --- ------ ----- --<br>----- ----- ---------- --- --- ------ ------ ---- -- ------<br>------- --- ------ ----- --- ---- ------- -- ---- --- --<br>------- ------,1091999.0999999046,1091998.7000000477,1091637.441,1091646.5999999046,1091653.961,1092003.939,,14,bonds.
screen,html.Screen,2_1_1_1_15,2022-02-02T15:06:55.622Z,,,,,,,,,,,,,,,,,54,,,,,,,,,,,,,,410.4609998569358,,response,,,,100,,,,,,,Space,keypress(Space),,,,,,,,-- --- ---- --- ------ ----- ------- ---- -- --- ------- --<br>------- ---------- ------ In ----- -- ----- -- ---- ------<br>--- ----- --- --- ------ -------- ----- --- ------ ----- --<br>----- ----- ---------- --- --- ------ ------ ---- -- ------<br>------- --- ------ ----- --- ---- ------- -- ---- --- --<br>------- ------,1092414.7999999523,1092414.399999857,1091987.649,1091999.2000000477,1092003.939,1092420.61,,15,In
screen,html.Screen,2_1_1_1_16,2022-02-02T15:06:55.894Z,,,,,,,,,,,,,,,,,54,,,,,,,,,,,,,,265.9899999045301,,response,,,,100,,,,,,,Space,keypress(Space),,,,,,,,"-- --- ---- --- ------ ----- ------- ---- -- --- ------- --<br>------- ---------- ------ -- 1727, -- ----- -- ---- ------<br>--- ----- --- --- ------ -------- ----- --- ------ ----- --<br>----- ----- ---------- --- --- ------ ------ ---- -- ------<br>------- --- ------ ----- --- ---- ------- -- ---- --- --<br>------- ------",1092686.7999999523,1092686.5999999046,1092403.991,1092414.899999857,1092420.61,1092687.252,,16,"1727,"
screen,html.Screen,2_1_1_1_17,2022-02-02T15:06:56.245Z,,,,,,,,,,,,,,,,,54,,,,,,,,,,,,,,351.0479999522213,,response,,,,100,,,,,,,Space,keypress(Space),,,,,,,,-- --- ---- --- ------ ----- ------- ---- -- --- ------- --<br>------- ---------- ------ -- ----- in ----- -- ---- ------<br>--- ----- --- --- ------ -------- ----- --- ------ ----- --<br>----- ----- ---------- --- --- ------ ------ ---- -- ------<br>------- --- ------ ----- --- ---- ------- -- ---- --- --<br>------- ------,1093038.5999999046,1093038.2999999523,1092671.012,1092686.899999857,1092687.252,1093054.324,,17,in
screen,html.Screen,2_1_1_1_18,2022-02-02T15:06:56.533Z,,,,,,,,,,,,,,,,,54,,,,,,,,,,,,,,271.97599995229393,,response,,,,100,,,,,,,Space,keypress(Space),,,,,,,,-- --- ---- --- ------ ----- ------- ---- -- --- ------- --<br>------- ---------- ------ -- ----- -- order -- ---- ------<br>--- ----- --- --- ------ -------- ----- --- ------ ----- --<br>----- ----- ---------- --- --- ------ ------ ---- -- ------<br>------- --- ------ ----- --- ---- ------- -- ---- --- --<br>------- ------,1093326.5999999046,1093326.2999999523,1093037.648,1093038.7000000477,1093054.324,1093337.254,,18,order
screen,html.Screen,2_1_1_1_19,2022-02-02T15:06:56.845Z,,,,,,,,,,,,,,,,,54,,,,,,,,,,,,,,300.94600004772656,,response,,,,100,,,,,,,Space,keypress(Space),,,,,,,,-- --- ---- --- ------ ----- ------- ---- -- --- ------- --<br>------- ---------- ------ -- ----- -- ----- to ---- ------<br>--- ----- --- --- ------ -------- ----- --- ------ ----- --<br>----- ----- ---------- --- --- ------ ------ ---- -- ------<br>------- --- ------ ----- --- ---- ------- -- ---- --- --<br>------- ------,1093638.5999999046,1093638.2000000477,1093320.632,1093326.5999999046,1093337.254,1093654.091,,19,to
screen,html.Screen,2_1_1_1_20,2022-02-02T15:06:57.134Z,,,,,,,,,,,,,,,,,54,,,,,,,,,,,,,,272.6090000476688,,response,,,,100,,,,,,,Space,keypress(Space),,,,,,,,-- --- ---- --- ------ ----- ------- ---- -- --- ------- --<br>------- ---------- ------ -- ----- -- ----- -- save ------<br>--- ----- --- --- ------ -------- ----- --- ------ ----- --<br>----- ----- ---------- --- --- ------ ------ ---- -- ------<br>------- --- ------ ----- --- ---- ------- -- ---- --- --<br>------- ------,1093927.0999999046,1093926.7000000477,1093637.294,1093638.5999999046,1093654.091,1093937.266,,20,save
screen,html.Screen,2_1_1_1_21,2022-02-02T15:06:57.446Z,,,,,,,,,,,,,,,,,54,,,,,,,,,,,,,,301.0339999522548,,response,,,,100,,,,,,,Space,keypress(Space),,,,,,,,"-- --- ---- --- ------ ----- ------- ---- -- --- ------- --<br>------- ---------- ------ -- ----- -- ----- -- ---- money,<br>--- ----- --- --- ------ -------- ----- --- ------ ----- --<br>----- ----- ---------- --- --- ------ ------ ---- -- ------<br>------- --- ------ ----- --- ---- ------- -- ---- --- --<br>------- ------",1094238.5999999046,1094238.2999999523,1093920.637,1093927.0999999046,1093937.266,1094254.147,,21,"money,"
screen,html.Screen,2_1_1_1_22,2022-02-02T15:06:57.766Z,,,,,,,,,,,,,,,,,54,,,,,,,,,,,,,,304.25299985683523,,response,,,,100,,,,,,,Space,keypress(Space),,,,,,,,-- --- ---- --- ------ ----- ------- ---- -- --- ------- --<br>------- ---------- ------ -- ----- -- ----- -- ---- ------<br>the ----- --- --- ------ -------- ----- --- ------ ----- --<br>----- ----- ---------- --- --- ------ ------ ---- -- ------<br>------- --- ------ ----- --- ---- ------- -- ---- --- --<br>------- ------,1094558.7999999523,1094558.399999857,1094237.647,1094238.7000000477,1094254.147,1094570.582,,22,the
screen,html.Screen,2_1_1_1_23,2022-02-02T15:06:58.030Z,,,,,,,,,,,,,,,,,54,,,,,,,,,,,,,,252.11800004774705,,response,,,,100,,,,,,,Space,keypress(Space),,,,,,,,-- --- ---- --- ------ ----- ------- ---- -- --- ------- --<br>------- ---------- ------ -- ----- -- ----- -- ---- ------<br>--- state --- --- ------ -------- ----- --- ------ ----- --<br>----- ----- ---------- --- --- ------ ------ ---- -- ------<br>------- --- ------ ----- --- ---- ------- -- ---- --- --<br>------- ------,1094823,1094822.7000000477,1094554.305,1094558.7999999523,1094570.582,1094837.406,,23,state
screen,html.Screen,2_1_1_1_24,2022-02-02T15:06:58.317Z,,,,,,,,,,,,,,,,,54,,,,,,,,,,,,,,272.99399985698983,,response,,,,100,,,,,,,Space,keypress(Space),,,,,,,,-- --- ---- --- ------ ----- ------- ---- -- --- ------- --<br>------- ---------- ------ -- ----- -- ----- -- ---- ------<br>--- ----- cut --- ------ -------- ----- --- ------ ----- --<br>----- ----- ---------- --- --- ------ ------ ---- -- ------<br>------- --- ------ ----- --- ---- ------- -- ---- --- --<br>------- ------,1095110.5999999046,1095110.399999857,1094820.599,1094823.2000000477,1094837.406,1095120.576,,24,cut
screen,html.Screen,2_1_1_1_25,2022-02-02T15:06:58.734Z,,,,,,,,,,,,,,,,,54,,,,,,,,,,,,,,405.9240000001155,,response,,,,100,,,,,,,Space,keypress(Space),,,,,,,,-- --- ---- --- ------ ----- ------- ---- -- --- ------- --<br>------- ---------- ------ -- ----- -- ----- -- ---- ------<br>--- ----- --- the ------ -------- ----- --- ------ ----- --<br>----- ----- ---------- --- --- ------ ------ ---- -- ------<br>------- --- ------ ----- --- ---- ------- -- ---- --- --<br>------- ------,1095526.7000000477,1095526.5,1095104.066,1095110.7000000477,1095120.576,1095537.259,,25,the
screen,html.Screen,2_1_1_1_26,2022-02-02T15:06:59.110Z,,,,,,,,,,,,,,,,,54,,,,,,,,,,,,,,365.54099995223805,,response,,,,100,,,,,,,Space,keypress(Space),,,,,,,,-- --- ---- --- ------ ----- ------- ---- -- --- ------- --<br>------- ---------- ------ -- ----- -- ----- -- ---- ------<br>--- ----- --- --- bonds' -------- ----- --- ------ ----- --<br>----- ----- ---------- --- --- ------ ------ ---- -- ------<br>------- --- ------ ----- --- ---- ------- -- ---- --- --<br>------- ------,1095903.0999999046,1095902.7999999523,1095520.595,1095526.7999999523,1095537.259,1095903.924,,26,bonds'
screen,html.Screen,2_1_1_1_27,2022-02-02T15:06:59.454Z,,,,,,,,,,,,,,,,,54,,,,,,,,,,,,,,342.77600004756823,,response,,,,100,,,,,,,Space,keypress(Space),,,,,,,,-- --- ---- --- ------ ----- ------- ---- -- --- ------- --<br>------- ---------- ------ -- ----- -- ----- -- ---- ------<br>--- ----- --- --- ------ interest ----- --- ------ ----- --<br>----- ----- ---------- --- --- ------ ------ ---- -- ------<br>------- --- ------ ----- --- ---- ------- -- ---- --- --<br>------- ------,1096247.0999999046,1096246.7000000477,1095887.625,1095903.2000000477,1095903.924,1096253.926,,27,interest
screen,html.Screen,2_1_1_1_28,2022-02-02T15:06:59.790Z,,,,,,,,,,,,,,,,,54,,,,,,,,,,,,,,328.57400000002235,,response,,,,100,,,,,,,Space,keypress(Space),,,,,,,,-- --- ---- --- ------ ----- ------- ---- -- --- ------- --<br>------- ---------- ------ -- ----- -- ----- -- ---- ------<br>--- ----- --- --- ------ -------- rate. --- ------ ----- --<br>----- ----- ---------- --- --- ------ ------ ---- -- ------<br>------- --- ------ ----- --- ---- ------- -- ---- --- --<br>------- ------,1096582.899999857,1096582.5,1096237.255,1096247.2000000477,1096253.926,1096587.25,,28,rate.
screen,html.Screen,2_1_1_1_29,2022-02-02T15:07:00.134Z,,,,,,,,,,,,,,,,,54,,,,,,,,,,,,,,339.25,,response,,,,100,,,,,,,Space,keypress(Space),,,,,,,,-- --- ---- --- ------ ----- ------- ---- -- --- ------- --<br>------- ---------- ------ -- ----- -- ----- -- ---- ------<br>--- ----- --- --- ------ -------- ----- The ------ ----- --<br>----- ----- ---------- --- --- ------ ------ ---- -- ------<br>------- --- ------ ----- --- ---- ------- -- ---- --- --<br>------- ------,1096926.7999999523,1096926.5,1096570.599,1096582.899999857,1096587.25,1096937.261,,29,The
screen,html.Screen,2_1_1_1_30,2022-02-02T15:07:00.566Z,,,,,,,,,,,,,,,,,54,,,,,,,,,,,,,,421.2390000000596,,response,,,,100,,,,,,,Space,keypress(Space),,,,,,,,-- --- ---- --- ------ ----- ------- ---- -- --- ------- --<br>------- ---------- ------ -- ----- -- ----- -- ---- ------<br>--- ----- --- --- ------ -------- ----- --- market ----- --<br>----- ----- ---------- --- --- ------ ------ ---- -- ------<br>------- --- ------ ----- --- ---- ------- -- ---- --- --<br>------- ------,1097358.7999999523,1097358.5,1096920.55,1096926.7999999523,1096937.261,1097370.576,,30,market
screen,html.Screen,2_1_1_1_31,2022-02-02T15:07:00.894Z,,,,,,,,,,,,,,,,,54,,,,,,,,,,,,,,316.32399985706434,,response,,,,100,,,,,,,Space,keypress(Space),,,,,,,,-- --- ---- --- ------ ----- ------- ---- -- --- ------- --<br>------- ---------- ------ -- ----- -- ----- -- ---- ------<br>--- ----- --- --- ------ -------- ----- --- ------ value --<br>----- ----- ---------- --- --- ------ ------ ---- -- ------<br>------- --- ------ ----- --- ---- ------- -- ---- --- --<br>------- ------,1097687.2000000477,1097686.899999857,1097354.139,1097358.899999857,1097370.576,1097703.913,,31,value
screen,html.Screen,2_1_1_1_32,2022-02-02T15:07:01.278Z,,,,,,,,,,,,,,,,,54,,,,,,,,,,,,,,367.28700004774146,,response,,,,100,,,,,,,Space,keypress(Space),,,,,,,,-- --- ---- --- ------ ----- ------- ---- -- --- ------- --<br>------- ---------- ------ -- ----- -- ----- -- ---- ------<br>--- ----- --- --- ------ -------- ----- --- ------ ----- of<br>----- ----- ---------- --- --- ------ ------ ---- -- ------<br>------- --- ------ ----- --- ---- ------- -- ---- --- --<br>------- ------,1098071.5,1098071.2000000477,1097687.242,1097687.2999999523,1097703.913,1098087.356,,32,of
screen,html.Screen,2_1_1_1_33,2022-02-02T15:07:01.550Z,,,,,,,,,,,,,,,,,54,,,,,,,,,,,,,,255.44399995240383,,response,,,,100,,,,,,,Space,keypress(Space),,,,,,,,-- --- ---- --- ------ ----- ------- ---- -- --- ------- --<br>------- ---------- ------ -- ----- -- ----- -- ---- ------<br>--- ----- --- --- ------ -------- ----- --- ------ ----- --<br>these ----- ---------- --- --- ------ ------ ---- -- ------<br>------- --- ------ ----- --- ---- ------- -- ---- --- --<br>------- ------,1098343.0999999046,1098342.7999999523,1098070.877,1098071.5999999046,1098087.356,1098354.04,,33,these
screen,html.Screen,2_1_1_1_34,2022-02-02T15:07:01.862Z,,,,,,,,,,,,,,,,,54,,,,,,,,,,,,,,300.5599999045953,,response,,,,100,,,,,,,Space,keypress(Space),,,,,,,,-- --- ---- --- ------ ----- ------- ---- -- --- ------- --<br>------- ---------- ------ -- ----- -- ----- -- ---- ------<br>--- ----- --- --- ------ -------- ----- --- ------ ----- --<br>----- bonds ---------- --- --- ------ ------ ---- -- ------<br>------- --- ------ ----- --- ---- ------- -- ---- --- --<br>------- ------,1098654.899999857,1098654.5999999046,1098337.256,1098343.2000000477,1098354.04,1098670.578,,34,bonds
screen,html.Screen,2_1_1_1_35,2022-02-02T15:07:02.190Z,,,,,,,,,,,,,,,,,54,,,,,,,,,,,,,,312.2219999523368,,response,,,,100,,,,,,,Space,keypress(Space),,,,,,,,"-- --- ---- --- ------ ----- ------- ---- -- --- ------- --<br>------- ---------- ------ -- ----- -- ----- -- ---- ------<br>--- ----- --- --- ------ -------- ----- --- ------ ----- --<br>----- ----- plummeted, --- --- ------ ------ ---- -- ------<br>------- --- ------ ----- --- ---- ------- -- ---- --- --<br>------- ------",1098983.0999999046,1098982.7999999523,1098654.041,1098655,1098670.578,1098987.21,,35,"plummeted,"
screen,html.Screen,2_1_1_1_36,2022-02-02T15:07:02.510Z,,,,,,,,,,,,,,,,,54,,,,,,,,,,,,,,315.49000004772097,,response,,,,100,,,,,,,Space,keypress(Space),,,,,,,,-- --- ---- --- ------ ----- ------- ---- -- --- ------- --<br>------- ---------- ------ -- ----- -- ----- -- ---- ------<br>--- ----- --- --- ------ -------- ----- --- ------ ----- --<br>----- ----- ---------- and --- ------ ------ ---- -- ------<br>------- --- ------ ----- --- ---- ------- -- ---- --- --<br>------- ------,1099303.0999999046,1099302.7000000477,1098971.016,1098983.2000000477,1098987.21,1099303.896,,36,and
screen,html.Screen,2_1_1_1_37,2022-02-02T15:07:02.797Z,,,,,,,,,,,,,,,,,54,,,,,,,,,,,,,,286.4039999523666,,response,,,,100,,,,,,,Space,keypress(Space),,,,,,,,-- --- ---- --- ------ ----- ------- ---- -- --- ------- --<br>------- ---------- ------ -- ----- -- ----- -- ---- ------<br>--- ----- --- --- ------ -------- ----- --- ------ ----- --<br>----- ----- ---------- --- the ------ ------ ---- -- ------<br>------- --- ------ ----- --- ---- ------- -- ---- --- --<br>------- ------,1099590.5999999046,1099590.2999999523,1099287.571,1099303.0999999046,1099303.896,1099603.905,,37,the
screen,html.Screen,2_1_1_1_38,2022-02-02T15:07:03.077Z,,,,,,,,,,,,,,,,,54,,,,,,,,,,,,,,266.39499995228834,,response,,,,100,,,,,,,Space,keypress(Space),,,,,,,,-- --- ---- --- ------ ----- ------- ---- -- --- ------- --<br>------- ---------- ------ -- ----- -- ----- -- ---- ------<br>--- ----- --- --- ------ -------- ----- --- ------ ----- --<br>----- ----- ---------- --- --- market ------ ---- -- ------<br>------- --- ------ ----- --- ---- ------- -- ---- --- --<br>------- ------,1099870.5999999046,1099870.2999999523,1099587.248,1099590.7000000477,1099603.905,1099887.215,,38,market
screen,html.Screen,2_1_1_1_39,2022-02-02T15:07:03.486Z,,,,,,,,,,,,,,,,,54,,,,,,,,,,,,,,391.4850000475999,,response,,,,100,,,,,,,Space,keypress(Space),,,,,,,,-- --- ---- --- ------ ----- ------- ---- -- --- ------- --<br>------- ---------- ------ -- ----- -- ----- -- ---- ------<br>--- ----- --- --- ------ -------- ----- --- ------ ----- --<br>----- ----- ---------- --- --- ------ became ---- -- ------<br>------- --- ------ ----- --- ---- ------- -- ---- --- --<br>------- ------,1100279,1100278.7000000477,1099870.565,1099870.7000000477,1099887.215,1100287.346,,39,became
screen,html.Screen,2_1_1_1_40,2022-02-02T15:07:03.757Z,,,,,,,,,,,,,,,,,54,,,,,,,,,,,,,,262.95399995241314,,response,,,,100,,,,,,,Space,keypress(Space),,,,,,,,-- --- ---- --- ------ ----- ------- ---- -- --- ------- --<br>------- ---------- ------ -- ----- -- ----- -- ---- ------<br>--- ----- --- --- ------ -------- ----- --- ------ ----- --<br>----- ----- ---------- --- --- ------ ------ wary -- ------<br>------- --- ------ ----- --- ---- ------- -- ---- --- --<br>------- ------,1100550.7000000477,1100550.2999999523,1100270.577,1100279.0999999046,1100287.346,1100553.885,,40,wary
screen,html.Screen,2_1_1_1_41,2022-02-02T15:07:04.062Z,,,,,,,,,,,,,,,,,54,,,,,,,,,,,,,,300.6149999999907,,response,,,,100,,,,,,,Space,keypress(Space),,,,,,,,-- --- ---- --- ------ ----- ------- ---- -- --- ------- --<br>------- ---------- ------ -- ----- -- ----- -- ---- ------<br>--- ----- --- --- ------ -------- ----- --- ------ ----- --<br>----- ----- ---------- --- --- ------ ------ ---- of ------<br>------- --- ------ ----- --- ---- ------- -- ---- --- --<br>------- ------,1100854.899999857,1100854.5,1100537.367,1100550.7000000477,1100553.885,1100870.587,,41,of
screen,html.Screen,2_1_1_1_42,2022-02-02T15:07:04.342Z,,,,,,,,,,,,,,,,,54,,,,,,,,,,,,,,263.91299999994226,,response,,,,100,,,,,,,Space,keypress(Space),,,,,,,,-- --- ---- --- ------ ----- ------- ---- -- --- ------- --<br>------- ---------- ------ -- ----- -- ----- -- ---- ------<br>--- ----- --- --- ------ -------- ----- --- ------ ----- --<br>----- ----- ---------- --- --- ------ ------ ---- -- French<br>------- --- ------ ----- --- ---- ------- -- ---- --- --<br>------- ------,1101134.7999999523,1101134.5,1100854.065,1100854.899999857,1100870.587,1101137.188,,42,French
screen,html.Screen,2_1_1_1_43,2022-02-02T15:07:04.662Z,,,,,,,,,,,,,,,,,54,,,,,,,,,,,,,,317.2119998568669,,response,,,,100,,,,,,,Space,keypress(Space),,,,,,,,-- --- ---- --- ------ ----- ------- ---- -- --- ------- --<br>------- ---------- ------ -- ----- -- ----- -- ---- ------<br>--- ----- --- --- ------ -------- ----- --- ------ ----- --<br>----- ----- ---------- --- --- ------ ------ ---- -- ------<br>credit. --- ------ ----- --- ---- ------- -- ---- --- --<br>------- ------,1101454.7000000477,1101454.399999857,1101120.866,1101134.899999857,1101137.188,1101470.527,,43,credit.
screen,html.Screen,2_1_1_1_44,2022-02-02T15:07:05.062Z,,,,,,,,,,,,,,,,,54,,,,,,,,,,,,,,383.872999856947,,response,,,,100,,,,,,,Space,keypress(Space),,,,,,,,-- --- ---- --- ------ ----- ------- ---- -- --- ------- --<br>------- ---------- ------ -- ----- -- ----- -- ---- ------<br>--- ----- --- --- ------ -------- ----- --- ------ ----- --<br>----- ----- ---------- --- --- ------ ------ ---- -- ------<br>------- The ------ ----- --- ---- ------- -- ---- --- --<br>------- ------,1101854.7999999523,1101854.399999857,1101453.909,1101454.7999999523,1101470.527,1101870.542,,44,The
screen,html.Screen,2_1_1_1_45,2022-02-02T15:07:05.326Z,,,,,,,,,,,,,,,,,54,,,,,,,,,,,,,,247.95800000010058,,response,,,,100,,,,,,,Space,keypress(Space),,,,,,,,-- --- ---- --- ------ ----- ------- ---- -- --- ------- --<br>------- ---------- ------ -- ----- -- ----- -- ---- ------<br>--- ----- --- --- ------ -------- ----- --- ------ ----- --<br>----- ----- ---------- --- --- ------ ------ ---- -- ------<br>------- --- French ----- --- ---- ------- -- ---- --- --<br>------- ------,1102118.899999857,1102118.5,1101853.917,1101854.7999999523,1101870.542,1102120.534,,45,French
screen,html.Screen,2_1_1_1_46,2022-02-02T15:07:05.654Z,,,,,,,,,,,,,,,,,54,,,,,,,,,,,,,,326.2659999523312,,response,,,,100,,,,,,,Space,keypress(Space),,,,,,,,-- --- ---- --- ------ ----- ------- ---- -- --- ------- --<br>------- ---------- ------ -- ----- -- ----- -- ---- ------<br>--- ----- --- --- ------ -------- ----- --- ------ ----- --<br>----- ----- ---------- --- --- ------ ------ ---- -- ------<br>------- --- ------ state --- ---- ------- -- ---- --- --<br>------- ------,1102447.0999999046,1102446.7999999523,1102103.88,1102118.899999857,1102120.534,1102453.851,,46,state
screen,html.Screen,2_1_1_1_47,2022-02-02T15:07:05.965Z,,,,,,,,,,,,,,,,,54,,,,,,,,,,,,,,304.44899995229207,,response,,,,100,,,,,,,Space,keypress(Space),,,,,,,,-- --- ---- --- ------ ----- ------- ---- -- --- ------- --<br>------- ---------- ------ -- ----- -- ----- -- ---- ------<br>--- ----- --- --- ------ -------- ----- --- ------ ----- --<br>----- ----- ---------- --- --- ------ ------ ---- -- ------<br>------- --- ------ ----- was ---- ------- -- ---- --- --<br>------- ------,1102758.7000000477,1102758.2999999523,1102437.229,1102447.2000000477,1102453.851,1102770.516,,47,was
screen,html.Screen,2_1_1_1_48,2022-02-02T15:07:06.278Z,,,,,,,,,,,,,,,,,54,,,,,,,,,,,,,,300.18400004762225,,response,,,,100,,,,,,,Space,keypress(Space),,,,,,,,-- --- ---- --- ------ ----- ------- ---- -- --- ------- --<br>------- ---------- ------ -- ----- -- ----- -- ---- ------<br>--- ----- --- --- ------ -------- ----- --- ------ ----- --<br>----- ----- ---------- --- --- ------ ------ ---- -- ------<br>------- --- ------ ----- --- left ------- -- ---- --- --<br>------- ------,1103071.0999999046,1103070.7000000477,1102754.222,1102758.7000000477,1102770.516,1103087.235,,48,left
screen,html.Screen,2_1_1_1_49,2022-02-02T15:07:06.598Z,,,,,,,,,,,,,,,,,54,,,,,,,,,,,,,,303.1649998568464,,response,,,,100,,,,,,,Space,keypress(Space),,,,,,,,-- --- ---- --- ------ ----- ------- ---- -- --- ------- --<br>------- ---------- ------ -- ----- -- ----- -- ---- ------<br>--- ----- --- --- ------ -------- ----- --- ------ ----- --<br>----- ----- ---------- --- --- ------ ------ ---- -- ------<br>------- --- ------ ----- --- ---- without -- ---- --- --<br>------- ------,1103390.5999999046,1103390.399999857,1103070.537,1103071.0999999046,1103087.235,1103403.871,,49,without
screen,html.Screen,2_1_1_1_50,2022-02-02T15:07:06.877Z,,,,,,,,,,,,,,,,,54,,,,,,,,,,,,,,266.42899995227344,,response,,,,100,,,,,,,Space,keypress(Space),,,,,,,,-- --- ---- --- ------ ----- ------- ---- -- --- ------- --<br>------- ---------- ------ -- ----- -- ----- -- ---- ------<br>--- ----- --- --- ------ -------- ----- --- ------ ----- --<br>----- ----- ---------- --- --- ------ ------ ---- -- ------<br>------- --- ------ ----- --- ---- ------- an ---- --- --<br>------- ------,1103670.5,1103670.2999999523,1103387.223,1103390.7000000477,1103403.871,1103687.308,,50,an
screen,html.Screen,2_1_1_1_51,2022-02-02T15:07:07.197Z,,,,,,,,,,,,,,,,,54,,,,,,,,,,,,,,302.9919999523554,,response,,,,100,,,,,,,Space,keypress(Space),,,,,,,,-- --- ---- --- ------ ----- ------- ---- -- --- ------- --<br>------- ---------- ------ -- ----- -- ----- -- ---- ------<br>--- ----- --- --- ------ -------- ----- --- ------ ----- --<br>----- ----- ---------- --- --- ------ ------ ---- -- ------<br>------- --- ------ ----- --- ---- ------- -- easy --- --<br>------- ------,1103990.5999999046,1103990.2999999523,1103670.529,1103670.7000000477,1103687.308,1104003.862,,51,easy
screen,html.Screen,2_1_1_1_52,2022-02-02T15:07:07.526Z,,,,,,,,,,,,,,,,,54,,,,,,,,,,,,,,314.73799990466796,,response,,,,100,,,,,,,Space,keypress(Space),,,,,,,,-- --- ---- --- ------ ----- ------- ---- -- --- ------- --<br>------- ---------- ------ -- ----- -- ----- -- ---- ------<br>--- ----- --- --- ------ -------- ----- --- ------ ----- --<br>----- ----- ---------- --- --- ------ ------ ---- -- ------<br>------- --- ------ ----- --- ---- ------- -- ---- way --<br>------- ------,1104318.899999857,1104318.5999999046,1103987.546,1103990.7000000477,1104003.862,1104320.515,,52,way
screen,html.Screen,2_1_1_1_53,2022-02-02T15:07:07.806Z,,,,,,,,,,,,,,,,,54,,,,,,,,,,,,,,277.8849998570513,,response,,,,100,,,,,,,Space,keypress(Space),,,,,,,,-- --- ---- --- ------ ----- ------- ---- -- --- ------- --<br>------- ---------- ------ -- ----- -- ----- -- ---- ------<br>--- ----- --- --- ------ -------- ----- --- ------ ----- --<br>----- ----- ---------- --- --- ------ ------ ---- -- ------<br>------- --- ------ ----- --- ---- ------- -- ---- --- of<br>------- ------,1104598.7999999523,1104598.399999857,1104304.242,1104318.899999857,1104320.515,1104603.858,,53,of
screen,html.Screen,2_1_1_1_54,2022-02-02T15:07:08.158Z,,,,,,,,,,,,,,,,,54,,,,,,,,,,,,,,346.5419998569414,,response,,,,100,,,,,,,Space,keypress(Space),,,,,,,,-- --- ---- --- ------ ----- ------- ---- -- --- ------- --<br>------- ---------- ------ -- ----- -- ----- -- ---- ------<br>--- ----- --- --- ------ -------- ----- --- ------ ----- --<br>----- ----- ---------- --- --- ------ ------ ---- -- ------<br>------- --- ------ ----- --- ---- ------- -- ---- --- --<br>raising ------,1104950.7000000477,1104950.399999857,1104587.284,1104598.899999857,1104603.858,1104953.844,,54,raising
screen,html.Screen,2_1_1_1_55,2022-02-02T15:07:08.486Z,,,,,,,,,,,,,,,,,54,,,,,,,,,,,,,,324.85600004764274,,response,,,,100,,,,,,,Space,keypress(Space),,,,,,,,-- --- ---- --- ------ ----- ------- ---- -- --- ------- --<br>------- ---------- ------ -- ----- -- ----- -- ---- ------<br>--- ----- --- --- ------ -------- ----- --- ------ ----- --<br>----- ----- ---------- --- --- ------ ------ ---- -- ------<br>------- --- ------ ----- --- ---- ------- -- ---- --- --<br>------- money.,1105279.0999999046,1105278.7000000477,1104937.561,1104950.7999999523,1104953.844,1105287.161,,55,money.
Item 100,flow.Loop,2_1_1_1,2022-02-02T15:07:08.486Z,,,,,,,,,,,,,,,,,,,,,,,,,,,,,,,19108.025000047637,,completion,,,,,C,,,,,,,,,,,silence,,,,,1105279.2000000477,1105278.7000000477,1086154.162,1086154.7000000477,1086170.675,1105287.161,,,
Question 1,html.Screen,2_1_1_2,2022-02-02T15:07:12.174Z,,,,,,,,,,,,,,,,,,,,,,,,,,,,true,TRUE,,3679.33899999992,,response,,,,100,C,,,,,,TRUE,click #choice-1,,,,silence,,,,,1108967,1108966.5,1105270.558,1105279.2999999523,1105287.161,1108970.484,,,
Question 2,html.Screen,2_1_1_3,2022-02-02T15:07:15.965Z,,,,,,,,,,,,,,,,,,,,,,,,,,,,true,FALSE,,3787.716000047745,,response,,,,100,C,,,,,,FALSE,click #choice-2,,,,silence,,,,,1112758.5999999046,1112758.2000000477,1108954.037,1108967.2000000477,1108970.484,1112770.439,,,
Item 100,flow.Sequence,2_1_1,2022-02-02T15:07:15.966Z,,,,,,,,,,,,,,,,,,,,,,,,,,,,,,,36587.4720000478,,completion,,,,,,,,,,,,,,,,,,,,,1112758.7999999523,1112758.2000000477,1076154.236,1076166.7999999523,1076170.728,1112770.439,,,
End of Practice,html.Page,2_1_2,2022-02-02T15:07:21.078Z,,,,,,,,,,,,,,,,,,,,,,,,,,,,,,,5100.261000047671,,form submission,,,,,,,,,,,,,,,,,,,,,1117870.899999857,1117870.7000000477,1112753.79,1112758.899999857,1112770.439,1117887.09,,,
Practice,flow.Sequence,2_1,2022-02-02T15:07:21.078Z,,,,,,,,,,,,,,,,,,,,,,,,,,,,,,,92549.57200004766,,completion,,,,,,,,,,,,,,,,,,,,,1117871,1117870.7000000477,1025304.826,1025311.2999999523,1025321.128,1117887.09,,,
Trap_instruction,html.Page,2_2_0,2022-02-02T15:07:23.814Z,,,,,,,,,,,,,,,,,,,,,,,,,,,,,,,2719.6100000476,,form submission,,,,,,,,,,,,,,,,,,,,,1120606.7999999523,1120606.7000000477,1117870.411,1117871.0999999046,1117887.09,1120620.375,,,
trap_trial,html.Screen,2_2_1,2022-02-02T15:07:26.693Z,,,,,,,,,,,,,,,,,,,,,,,,,,,,true,1,,2865.8250000476837,,response,,,,,,,,,,,1,click #choice-1,,,,,,,,,1123486.5999999046,1123486.2000000477,1120603.709,1120606.899999857,1120620.375,1123487.023,,,
end of trap trial,html.Page,2_2_2,2022-02-02T15:07:28.150Z,,,,,,,,,,,,,,,,,,,,,,,,,,,,,,,1455.5769999045879,,form submission,,,,,,,,,,,,,,,,,,,,,1124942.7999999523,1124942.5999999046,1123470.412,1123486.7000000477,1123487.023,1124953.7,,,
Trap 1,flow.Sequence,2_2,2022-02-02T15:07:28.150Z,,,,,,,,,,,,,,,,,,,,,,,,,,,,,,,7055.509999904549,,completion,,,,,,,,,,,,,,,,,,,,,1124942.899999857,1124942.5999999046,1117870.411,1117871,1117887.09,1124953.7,,,
Standby,html.Page,2_3_0,2022-02-02T15:07:36.145Z,,,,,,,,,,,,,,,,,,,,,,,,,,,,,,,7999.905000000028,,timeout,,,,,,,,,,,,,,,,,,,,,1132937.7000000477,1132937.275,1124937.015,1124943,1124953.7,1132953.605,,,
Holding screen,html.Screen,2_3_1_0_0,2022-02-02T15:07:43.144Z,,,,,,,,,,,,,,,,,,,,,,,,,,,,,,,6999.993999999948,,timeout,,,,,,,,,,,,,,,,,,,,,1139937.399999857,1139937.053,1132937.275,1132937.899999857,1132953.605,1139953.599,,,
screen,html.Screen,2_3_1_0_1_0,2022-02-02T15:07:44.270Z,,,,,,,,,,,,,,,,,48,,,,,,,,,,,,,,1109.200999952387,,response,,,,10,C,,,,,,Space,keypress(Space),,,,instrumental,,,,As -- --- ------ ------- --------- ----------- --------<br>--------- -------- --- ------- -- ------- ---- -- ------<br>-- --- -------- -------- ---------- ---- ---- ---- ------<br>-- --------- -- ---- -- --- -- --- ------- -- - -----<br>---------- -- -- -- ---- ----- -- ------ -- --- ------<br>-------,1141063.2000000477,1141062.7999999523,1139937.053,1139937.5,1139953.599,1141070.21,,0,As
screen,html.Screen,2_3_1_0_1_1,2022-02-02T15:07:44.614Z,,,,,,,,,,,,,,,,,48,,,,,,,,,,,,,,336.08999995235354,,response,,,,10,C,,,,,,Space,keypress(Space),,,,instrumental,,,,-- in --- ------ ------- --------- ----------- --------<br>--------- -------- --- ------- -- ------- ---- -- ------<br>-- --- -------- -------- ---------- ---- ---- ---- ------<br>-- --------- -- ---- -- --- -- --- ------- -- - -----<br>---------- -- -- -- ---- ----- -- ------ -- --- ------<br>-------,1141406.7000000477,1141406.2999999523,1141053.561,1141063.2999999523,1141070.21,1141420.216,,1,in
screen,html.Screen,2_3_1_0_1_2,2022-02-02T15:07:44.982Z,,,,,,,,,,,,,,,,,48,,,,,,,,,,,,,,354.5839999523014,,response,,,,10,C,,,,,,Space,keypress(Space),,,,instrumental,,,,-- -- the ------ ------- --------- ----------- --------<br>--------- -------- --- ------- -- ------- ---- -- ------<br>-- --- -------- -------- ---------- ---- ---- ---- ------<br>-- --------- -- ---- -- --- -- --- ------- -- - -----<br>---------- -- -- -- ---- ----- -- ------ -- --- ------<br>-------,1141775,1141774.7999999523,1141403.921,1141406.7999999523,1141420.216,1141803.559,,2,the
screen,html.Screen,2_3_1_0_1_3,2022-02-02T15:07:45.374Z,,,,,,,,,,,,,,,,,48,,,,,,,,,,,,,,362.8409998570569,,response,,,,10,C,,,,,,Space,keypress(Space),,,,instrumental,,,,-- -- --- United ------- --------- ----------- --------<br>--------- -------- --- ------- -- ------- ---- -- ------<br>-- --- -------- -------- ---------- ---- ---- ---- ------<br>-- --------- -- ---- -- --- -- --- ------- -- - -----<br>---------- -- -- -- ---- ----- -- ------ -- --- ------<br>-------,1142166.7999999523,1142166.399999857,1141787.035,1141775.2000000477,1141803.559,1142170.197,,3,United
screen,html.Screen,2_3_1_0_1_4,2022-02-02T15:07:45.702Z,,,,,,,,,,,,,,,,,48,,,,,,,,,,,,,,324.2029998570215,,response,,,,10,C,,,,,,Space,keypress(Space),,,,instrumental,,,,"-- -- --- ------ States, --------- ----------- --------<br>--------- -------- --- ------- -- ------- ---- -- ------<br>-- --- -------- -------- ---------- ---- ---- ---- ------<br>-- --------- -- ---- -- --- -- --- ------- -- - -----<br>---------- -- -- -- ---- ----- -- ------ -- --- ------<br>-------",1142494.7999999523,1142494.399999857,1142153.913,1142166.899999857,1142170.197,1142503.533,,4,"States,"
screen,html.Screen,2_3_1_0_1_5,2022-02-02T15:07:46.134Z,,,,,,,,,,,,,,,,,48,,,,,,,,,,,,,,422.966999999946,,response,,,,10,C,,,,,,Space,keypress(Space),,,,instrumental,,,,-- -- --- ------ ------- Colombian ----------- --------<br>--------- -------- --- ------- -- ------- ---- -- ------<br>-- --- -------- -------- ---------- ---- ---- ---- ------<br>-- --------- -- ---- -- --- -- --- ------- -- - -----<br>---------- -- -- -- ---- ----- -- ------ -- --- ------<br>-------,1142926.899999857,1142926.5,1142487.222,1142494.899999857,1142503.533,1142936.858,,5,Colombian
screen,html.Screen,2_3_1_0_1_6,2022-02-02T15:07:46.454Z,,,,,,,,,,,,,,,,,48,,,,,,,,,,,,,,309.64199999999255,,response,,,,10,C,,,,,,Space,keypress(Space),,,,instrumental,,,,-- -- --- ------ ------- --------- legislation --------<br>--------- -------- --- ------- -- ------- ---- -- ------<br>-- --- -------- -------- ---------- ---- ---- ---- ------<br>-- --------- -- ---- -- --- -- --- ------- -- - -----<br>---------- -- -- -- ---- ----- -- ------ -- --- ------<br>-------,1143246.7999999523,1143246.5,1142920.217,1142926.899999857,1142936.858,1143253.743,,6,legislation
screen,html.Screen,2_3_1_0_1_7,2022-02-02T15:07:46.910Z,,,,,,,,,,,,,,,,,48,,,,,,,,,,,,,,449.0569999522995,,response,,,,10,C,,,,,,Space,keypress(Space),,,,instrumental,,,,-- -- --- ------ ------- --------- ----------- requires<br>--------- -------- --- ------- -- ------- ---- -- ------<br>-- --- -------- -------- ---------- ---- ---- ---- ------<br>-- --------- -- ---- -- --- -- --- ------- -- - -----<br>---------- -- -- -- ---- ----- -- ------ -- --- ------<br>-------,1143703,1143702.7999999523,1143237.245,1143246.7999999523,1143253.743,1143703.539,,7,requires
screen,html.Screen,2_3_1_0_1_8,2022-02-02T15:07:47.342Z,,,,,,,,,,,,,,,,,48,,,,,,,,,,,,,,431.16100004757755,,response,,,,10,C,,,,,,Space,keypress(Space),,,,instrumental,,,,-- -- --- ------ ------- --------- ----------- --------<br>travelers -------- --- ------- -- ------- ---- -- ------<br>-- --- -------- -------- ---------- ---- ---- ---- ------<br>-- --------- -- ---- -- --- -- --- ------- -- - -----<br>---------- -- -- -- ---- ----- -- ------ -- --- ------<br>-------,1144135,1144134.7000000477,1143687.239,1143703.0999999046,1143703.539,1144136.86,,8,travelers
screen,html.Screen,2_3_1_0_1_9,2022-02-02T15:07:47.702Z,,,,,,,,,,,,,,,,,48,,,,,,,,,,,,,,357.84000004758127,,response,,,,10,C,,,,,,Space,keypress(Space),,,,instrumental,,,,-- -- --- ------ ------- --------- ----------- --------<br>--------- entering --- ------- -- ------- ---- -- ------<br>-- --- -------- -------- ---------- ---- ---- ---- ------<br>-- --------- -- ---- -- --- -- --- ------- -- - -----<br>---------- -- -- -- ---- ----- -- ------ -- --- ------<br>-------,1144495,1144494.7000000477,1144120.215,1144135.0999999046,1144136.86,1144503.538,,9,entering
screen,html.Screen,2_3_1_0_1_10,2022-02-02T15:07:48.038Z,,,,,,,,,,,,,,,,,48,,,,,,,,,,,,,,326.761999952374,,response,,,,10,C,,,,,,Space,keypress(Space),,,,instrumental,,,,-- -- --- ------ ------- --------- ----------- --------<br>--------- -------- the ------- -- ------- ---- -- ------<br>-- --- -------- -------- ---------- ---- ---- ---- ------<br>-- --------- -- ---- -- --- -- --- ------- -- - -----<br>---------- -- -- -- ---- ----- -- ------ -- --- ------<br>-------,1144830.7000000477,1144830.2999999523,1144487.214,1144495.2000000477,1144503.538,1144836.973,,10,the
screen,html.Screen,2_3_1_0_1_11,2022-02-02T15:07:48.390Z,,,,,,,,,,,,,,,,,48,,,,,,,,,,,,,,345.7270000476856,,response,,,,10,C,,,,,,Space,keypress(Space),,,,instrumental,,,,-- -- --- ------ ------- --------- ----------- --------<br>--------- -------- --- country -- ------- ---- -- ------<br>-- --- -------- -------- ---------- ---- ---- ---- ------<br>-- --------- -- ---- -- --- -- --- ------- -- - -----<br>---------- -- -- -- ---- ----- -- ------ -- --- ------<br>-------,1145183.0999999046,1145182.7000000477,1144820.243,1144830.7999999523,1144836.973,1145186.839,,11,country
screen,html.Screen,2_3_1_0_1_12,2022-02-02T15:07:48.774Z,,,,,,,,,,,,,,,,,48,,,,,,,,,,,,,,379.8610000477638,,response,,,,10,C,,,,,,Space,keypress(Space),,,,instrumental,,,,-- -- --- ------ ------- --------- ----------- --------<br>--------- -------- --- ------- to ------- ---- -- ------<br>-- --- -------- -------- ---------- ---- ---- ---- ------<br>-- --------- -- ---- -- --- -- --- ------- -- - -----<br>---------- -- -- -- ---- ----- -- ------ -- --- ------<br>-------,1145567.0999999046,1145566.7000000477,1145170.557,1145183.0999999046,1145186.839,1145570.168,,12,to
screen,html.Screen,2_3_1_0_1_13,2022-02-02T15:07:49.190Z,,,,,,,,,,,,,,,,,48,,,,,,,,,,,,,,412.33199999993667,,response,,,,10,C,,,,,,Space,keypress(Space),,,,instrumental,,,,-- -- --- ------ ------- --------- ----------- --------<br>--------- -------- --- ------- -- declare ---- -- ------<br>-- --- -------- -------- ---------- ---- ---- ---- ------<br>-- --------- -- ---- -- --- -- --- ------- -- - -----<br>---------- -- -- -- ---- ----- -- ------ -- --- ------<br>-------,1145982.7999999523,1145982.5,1145553.538,1145567.2000000477,1145570.168,1145986.865,,13,declare
screen,html.Screen,2_3_1_0_1_14,2022-02-02T15:07:49.614Z,,,,,,,,,,,,,,,,,48,,,,,,,,,,,,,,419.83500004769303,,response,,,,10,C,,,,,,Space,keypress(Space),,,,instrumental,,,,-- -- --- ------ ------- --------- ----------- --------<br>--------- -------- --- ------- -- ------- cash -- ------<br>-- --- -------- -------- ---------- ---- ---- ---- ------<br>-- --------- -- ---- -- --- -- --- ------- -- - -----<br>---------- -- -- -- ---- ----- -- ------ -- --- ------<br>-------,1146407.0999999046,1146406.7000000477,1145970.543,1145983,1145986.865,1146420.179,,14,cash
screen,html.Screen,2_3_1_0_1_15,2022-02-02T15:07:49.982Z,,,,,,,,,,,,,,,,,48,,,,,,,,,,,,,,354.3209999999963,,response,,,,10,C,,,,,,Space,keypress(Space),,,,instrumental,,,,-- -- --- ------ ------- --------- ----------- --------<br>--------- -------- --- ------- -- ------- ---- in ------<br>-- --- -------- -------- ---------- ---- ---- ---- ------<br>-- --------- -- ---- -- --- -- --- ------- -- - -----<br>---------- -- -- -- ---- ----- -- ------ -- --- ------<br>-------,1146774.7999999523,1146774.5,1146403.981,1146407.2000000477,1146420.179,1146786.991,,15,in
screen,html.Screen,2_3_1_0_1_16,2022-02-02T15:07:50.678Z,,,,,,,,,,,,,,,,,48,,,,,,,,,,,,,,683.8089999523945,,response,,,,10,C,,,,,,Space,keypress(Space),,,,instrumental,,,,-- -- --- ------ ------- --------- ----------- --------<br>--------- -------- --- ------- -- ------- ---- -- excess<br>-- --- -------- -------- ---------- ---- ---- ---- ------<br>-- --------- -- ---- -- --- -- --- ------- -- - -----<br>---------- -- -- -- ---- ----- -- ------ -- --- ------<br>-------,1147471.0999999046,1147470.7999999523,1146770.323,1146774.7999999523,1146786.991,1147486.827,,16,excess
screen,html.Screen,2_3_1_0_1_17,2022-02-02T15:07:51.150Z,,,,,,,,,,,,,,,,,48,,,,,,,,,,,,,,455.5729998569004,,response,,,,10,C,,,,,,Space,keypress(Space),,,,instrumental,,,,-- -- --- ------ ------- --------- ----------- --------<br>--------- -------- --- ------- -- ------- ---- -- ------<br>of --- -------- -------- ---------- ---- ---- ---- ------<br>-- --------- -- ---- -- --- -- --- ------- -- - -----<br>---------- -- -- -- ---- ----- -- ------ -- --- ------<br>-------,1147942.7999999523,1147942.399999857,1147470.285,1147471.2000000477,1147486.827,1147953.485,,17,of
screen,html.Screen,2_3_1_0_1_18,2022-02-02T15:07:51.590Z,,,,,,,,,,,,,,,,,48,,,,,,,,,,,,,,429.21500004758127,,response,,,,10,C,,,,,,Space,keypress(Space),,,,instrumental,,,,-- -- --- ------ ------- --------- ----------- --------<br>--------- -------- --- ------- -- ------- ---- -- ------<br>-- ten -------- -------- ---------- ---- ---- ---- ------<br>-- --------- -- ---- -- --- -- --- ------- -- - -----<br>---------- -- -- -- ---- ----- -- ------ -- --- ------<br>-------,1148383,1148382.7000000477,1147937.199,1147942.899999857,1147953.485,1148386.813,,18,ten
screen,html.Screen,2_3_1_0_1_19,2022-02-02T15:07:52.022Z,,,,,,,,,,,,,,,,,48,,,,,,,,,,,,,,427.9869999522343,,response,,,,10,C,,,,,,Space,keypress(Space),,,,instrumental,,,,-- -- --- ------ ------- --------- ----------- --------<br>--------- -------- --- ------- -- ------- ---- -- ------<br>-- --- thousand -------- ---------- ---- ---- ---- ------<br>-- --------- -- ---- -- --- -- --- ------- -- - -----<br>---------- -- -- -- ---- ----- -- ------ -- --- ------<br>-------,1148815.2000000477,1148814.7999999523,1148370.515,1148383.0999999046,1148386.813,1148820.157,,19,thousand
screen,html.Screen,2_3_1_0_1_20,2022-02-02T15:07:52.414Z,,,,,,,,,,,,,,,,,48,,,,,,,,,,,,,,386.3430000001099,,response,,,,10,C,,,,,,Space,keypress(Space),,,,instrumental,,,,-- -- --- ------ ------- --------- ----------- --------<br>--------- -------- --- ------- -- ------- ---- -- ------<br>-- --- -------- dollars. ---------- ---- ---- ---- ------<br>-- --------- -- ---- -- --- -- --- ------- -- - -----<br>---------- -- -- -- ---- ----- -- ------ -- --- ------<br>-------,1149206.7999999523,1149206.5,1148803.853,1148815.2999999523,1148820.157,1149220.147,,20,dollars.
screen,html.Screen,2_3_1_0_1_21,2022-02-02T15:07:53.045Z,,,,,,,,,,,,,,,,,48,,,,,,,,,,,,,,618.0530000475701,,response,,,,10,C,,,,,,Space,keypress(Space),,,,instrumental,,,,-- -- --- ------ ------- --------- ----------- --------<br>--------- -------- --- ------- -- ------- ---- -- ------<br>-- --- -------- -------- Concealing ---- ---- ---- ------<br>-- --------- -- ---- -- --- -- --- ------- -- - -----<br>---------- -- -- -- ---- ----- -- ------ -- --- ------<br>-------,1149838.7000000477,1149838.2000000477,1149203.5,1149206.899999857,1149220.147,1149853.482,,21,Concealing
screen,html.Screen,2_3_1_0_1_22,2022-02-02T15:07:53.438Z,,,,,,,,,,,,,,,,,48,,,,,,,,,,,,,,377.3179999522399,,response,,,,10,C,,,,,,Space,keypress(Space),,,,instrumental,,,,-- -- --- ------ ------- --------- ----------- --------<br>--------- -------- --- ------- -- ------- ---- -- ------<br>-- --- -------- -------- ---------- more ---- ---- ------<br>-- --------- -- ---- -- --- -- --- ------- -- - -----<br>---------- -- -- -- ---- ----- -- ------ -- --- ------<br>-------,1150231.0999999046,1150230.7999999523,1149836.99,1149838.7999999523,1149853.482,1150236.806,,22,more
screen,html.Screen,2_3_1_0_1_23,2022-02-02T15:07:53.757Z,,,,,,,,,,,,,,,,,48,,,,,,,,,,,,,,313.49399995221756,,response,,,,10,C,,,,,,Space,keypress(Space),,,,instrumental,,,,-- -- --- ------ ------- --------- ----------- --------<br>--------- -------- --- ------- -- ------- ---- -- ------<br>-- --- -------- -------- ---------- ---- than ---- ------<br>-- --------- -- ---- -- --- -- --- ------- -- - -----<br>---------- -- -- -- ---- ----- -- ------ -- --- ------<br>-------,1150550.7000000477,1150550.2999999523,1150220.204,1150231.2000000477,1150236.806,1150553.461,,23,than
screen,html.Screen,2_3_1_0_1_24,2022-02-02T15:07:54.062Z,,,,,,,,,,,,,,,,,48,,,,,,,,,,,,,,300.938999857055,,response,,,,10,C,,,,,,Space,keypress(Space),,,,instrumental,,,,-- -- --- ------ ------- --------- ----------- --------<br>--------- -------- --- ------- -- ------- ---- -- ------<br>-- --- -------- -------- ---------- ---- ---- that ------<br>-- --------- -- ---- -- --- -- --- ------- -- - -----<br>---------- -- -- -- ---- ----- -- ------ -- --- ------<br>-------,1150854.7000000477,1150854.399999857,1150536.788,1150550.7000000477,1150553.461,1150870.149,,24,that
screen,html.Screen,2_3_1_0_1_25,2022-02-02T15:07:54.422Z,,,,,,,,,,,,,,,,,48,,,,,,,,,,,,,,345.05100004770793,,response,,,,10,C,,,,,,Space,keypress(Space),,,,instrumental,,,,-- -- --- ------ ------- --------- ----------- --------<br>--------- -------- --- ------- -- ------- ---- -- ------<br>-- --- -------- -------- ---------- ---- ---- ---- amount<br>-- --------- -- ---- -- --- -- --- ------- -- - -----<br>---------- -- -- -- ---- ----- -- ------ -- --- ------<br>-------,1151215.5,1151215.2000000477,1150853.636,1150854.7999999523,1150870.149,1151220.131,,25,amount
screen,html.Screen,2_3_1_0_1_26,2022-02-02T15:07:54.717Z,,,,,,,,,,,,,,,,,48,,,,,,,,,,,,,,290.16899995226413,,response,,,,10,C,,,,,,Space,keypress(Space),,,,instrumental,,,,-- -- --- ------ ------- --------- ----------- --------<br>--------- -------- --- ------- -- ------- ---- -- ------<br>-- --- -------- -------- ---------- ---- ---- ---- ------<br>to --------- -- ---- -- --- -- --- ------- -- - -----<br>---------- -- -- -- ---- ----- -- ------ -- --- ------<br>-------,1151510.5999999046,1151510.2999999523,1151203.852,1151215.5999999046,1151220.131,1151520.127,,26,to
screen,html.Screen,2_3_1_0_1_27,2022-02-02T15:07:55.030Z,,,,,,,,,,,,,,,,,48,,,,,,,,,,,,,,302.27299985685386,,response,,,,10,C,,,,,,Space,keypress(Space),,,,instrumental,,,,-- -- --- ------ ------- --------- ----------- --------<br>--------- -------- --- ------- -- ------- ---- -- ------<br>-- --- -------- -------- ---------- ---- ---- ---- ------<br>-- transport -- ---- -- --- -- --- ------- -- - -----<br>---------- -- -- -- ---- ----- -- ------ -- --- ------<br>-------,1151822.5999999046,1151822.399999857,1151503.479,1151510.7000000477,1151520.127,1151836.972,,27,transport
screen,html.Screen,2_3_1_0_1_28,2022-02-02T15:07:55.374Z,,,,,,,,,,,,,,,,,48,,,,,,,,,,,,,,329.82799995224923,,response,,,,10,C,,,,,,Space,keypress(Space),,,,instrumental,,,,-- -- --- ------ ------- --------- ----------- --------<br>--------- -------- --- ------- -- ------- ---- -- ------<br>-- --- -------- -------- ---------- ---- ---- ---- ------<br>-- --------- it ---- -- --- -- --- ------- -- - -----<br>---------- -- -- -- ---- ----- -- ------ -- --- ------<br>-------,1152167.0999999046,1152166.7999999523,1151820.512,1151822.7000000477,1151836.972,1152170.116,,28,it
screen,html.Screen,2_3_1_0_1_29,2022-02-02T15:07:55.656Z,,,,,,,,,,,,,,,,,48,,,,,,,,,,,,,,284.1839999523945,,response,,,,10,C,,,,,,Space,keypress(Space),,,,instrumental,,,,-- -- --- ------ ------- --------- ----------- --------<br>--------- -------- --- ------- -- ------- ---- -- ------<br>-- --- -------- -------- ---------- ---- ---- ---- ------<br>-- --------- -- into -- --- -- --- ------- -- - -----<br>---------- -- -- -- ---- ----- -- ------ -- --- ------<br>-------,1152454.5999999046,1152454.2999999523,1152153.607,1152167.0999999046,1152170.116,1152470.121,,29,into
screen,html.Screen,2_3_1_0_1_30,2022-02-02T15:07:56.024Z,,,,,,,,,,,,,,,,,48,,,,,,,,,,,,,,352.17899995227344,,response,,,,10,C,,,,,,Space,keypress(Space),,,,instrumental,,,,-- -- --- ------ ------- --------- ----------- --------<br>--------- -------- --- ------- -- ------- ---- -- ------<br>-- --- -------- -------- ---------- ---- ---- ---- ------<br>-- --------- -- ---- or --- -- --- ------- -- - -----<br>---------- -- -- -- ---- ----- -- ------ -- --- ------<br>-------,1152822.7000000477,1152822.2999999523,1152453.851,1152454.7000000477,1152470.121,1152836.962,,30,or
screen,html.Screen,2_3_1_0_1_31,2022-02-02T15:07:56.360Z,,,,,,,,,,,,,,,,,48,,,,,,,,,,,,,,321.53799999994226,,response,,,,10,C,,,,,,Space,keypress(Space),,,,instrumental,,,,-- -- --- ------ ------- --------- ----------- --------<br>--------- -------- --- ------- -- ------- ---- -- ------<br>-- --- -------- -------- ---------- ---- ---- ---- ------<br>-- --------- -- ---- -- out -- --- ------- -- - -----<br>---------- -- -- -- ---- ----- -- ------ -- --- ------<br>-------,1153158.899999857,1153158.5,1152820.488,1152822.7999999523,1152836.962,1153170.126,,31,out
screen,html.Screen,2_3_1_0_1_32,2022-02-02T15:07:56.624Z,,,,,,,,,,,,,,,,,48,,,,,,,,,,,,,,252.27399985701777,,response,,,,10,C,,,,,,Space,keypress(Space),,,,instrumental,,,,-- -- --- ------ ------- --------- ----------- --------<br>--------- -------- --- ------- -- ------- ---- -- ------<br>-- --- -------- -------- ---------- ---- ---- ---- ------<br>-- --------- -- ---- -- --- of --- ------- -- - -----<br>---------- -- -- -- ---- ----- -- ------ -- --- ------<br>-------,1153422.7000000477,1153422.399999857,1153153.791,1153158.899999857,1153170.126,1153436.949,,32,of
screen,html.Screen,2_3_1_0_1_33,2022-02-02T15:07:56.920Z,,,,,,,,,,,,,,,,,48,,,,,,,,,,,,,,281.4509998569265,,response,,,,10,C,,,,,,Space,keypress(Space),,,,instrumental,,,,-- -- --- ------ ------- --------- ----------- --------<br>--------- -------- --- ------- -- ------- ---- -- ------<br>-- --- -------- -------- ---------- ---- ---- ---- ------<br>-- --------- -- ---- -- --- -- the ------- -- - -----<br>---------- -- -- -- ---- ----- -- ------ -- --- ------<br>-------,1153718.7000000477,1153718.399999857,1153420.493,1153422.7000000477,1153436.949,1153720.126,,33,the
screen,html.Screen,2_3_1_0_1_34,2022-02-02T15:07:57.176Z,,,,,,,,,,,,,,,,,48,,,,,,,,,,,,,,254.37400000006892,,response,,,,10,C,,,,,,Space,keypress(Space),,,,instrumental,,,,-- -- --- ------ ------- --------- ----------- --------<br>--------- -------- --- ------- -- ------- ---- -- ------<br>-- --- -------- -------- ---------- ---- ---- ---- ------<br>-- --------- -- ---- -- --- -- --- country -- - -----<br>---------- -- -- -- ---- ----- -- ------ -- --- ------<br>-------,1153974.899999857,1153974.5,1153703.83,1153718.899999857,1153720.126,1153986.983,,34,country
screen,html.Screen,2_3_1_0_1_35,2022-02-02T15:07:57.528Z,,,,,,,,,,,,,,,,,48,,,,,,,,,,,,,,339.51699999999255,,response,,,,10,C,,,,,,Space,keypress(Space),,,,instrumental,,,,-- -- --- ------ ------- --------- ----------- --------<br>--------- -------- --- ------- -- ------- ---- -- ------<br>-- --- -------- -------- ---------- ---- ---- ---- ------<br>-- --------- -- ---- -- --- -- --- ------- is - -----<br>---------- -- -- -- ---- ----- -- ------ -- --- ------<br>-------,1154326.7999999523,1154326.5,1153970.489,1153975,1153986.983,1154336.782,,35,is
screen,html.Screen,2_3_1_0_1_36,2022-02-02T15:07:57.840Z,,,,,,,,,,,,,,,,,48,,,,,,,,,,,,,,301.5179999524262,,response,,,,10,C,,,,,,Space,keypress(Space),,,,instrumental,,,,-- -- --- ------ ------- --------- ----------- --------<br>--------- -------- --- ------- -- ------- ---- -- ------<br>-- --- -------- -------- ---------- ---- ---- ---- ------<br>-- --------- -- ---- -- --- -- --- ------- -- a -----<br>---------- -- -- -- ---- ----- -- ------ -- --- ------<br>-------,1154638.5999999046,1154638.2999999523,1154320.513,1154326.899999857,1154336.782,1154653.5,,36,a
screen,html.Screen,2_3_1_0_1_37,2022-02-02T15:07:58.184Z,,,,,,,,,,,,,,,,,48,,,,,,,,,,,,,,329.2999999523163,,response,,,,10,C,,,,,,Space,keypress(Space),,,,instrumental,,,,-- -- --- ------ ------- --------- ----------- --------<br>--------- -------- --- ------- -- ------- ---- -- ------<br>-- --- -------- -------- ---------- ---- ---- ---- ------<br>-- --------- -- ---- -- --- -- --- ------- -- - crime<br>---------- -- -- -- ---- ----- -- ------ -- --- ------<br>-------,1154983,1154982.7999999523,1154637.131,1154638.7000000477,1154653.5,1154986.765,,37,crime
screen,html.Screen,2_3_1_0_1_38,2022-02-02T15:07:58.496Z,,,,,,,,,,,,,,,,,48,,,,,,,,,,,,,,307.93500004778616,,response,,,,10,C,,,,,,Space,keypress(Space),,,,instrumental,,,,-- -- --- ------ ------- --------- ----------- --------<br>--------- -------- --- ------- -- ------- ---- -- ------<br>-- --- -------- -------- ---------- ---- ---- ---- ------<br>-- --------- -- ---- -- --- -- --- ------- -- - -----<br>punishable -- -- -- ---- ----- -- ------ -- --- ------<br>-------,1155295.0999999046,1155294.7000000477,1154970.457,1154983.0999999046,1154986.765,1155303.434,,38,punishable
screen,html.Screen,2_3_1_0_1_39,2022-02-02T15:07:58.824Z,,,,,,,,,,,,,,,,,48,,,,,,,,,,,,,,318.9659998570569,,response,,,,10,C,,,,,,Space,keypress(Space),,,,instrumental,,,,-- -- --- ------ ------- --------- ----------- --------<br>--------- -------- --- ------- -- ------- ---- -- ------<br>-- --- -------- -------- ---------- ---- ---- ---- ------<br>-- --------- -- ---- -- --- -- --- ------- -- - -----<br>---------- by -- -- ---- ----- -- ------ -- --- ------<br>-------,1155622.7000000477,1155622.399999857,1155287.15,1155295.0999999046,1155303.434,1155636.767,,39,by
screen,html.Screen,2_3_1_0_1_40,2022-02-02T15:07:59.096Z,,,,,,,,,,,,,,,,,48,,,,,,,,,,,,,,257.73300000000745,,response,,,,10,C,,,,,,Space,keypress(Space),,,,instrumental,,,,-- -- --- ------ ------- --------- ----------- --------<br>--------- -------- --- ------- -- ------- ---- -- ------<br>-- --- -------- -------- ---------- ---- ---- ---- ------<br>-- --------- -- ---- -- --- -- --- ------- -- - -----<br>---------- -- up -- ---- ----- -- ------ -- --- ------<br>-------,1155894.7000000477,1155894.5,1155620.14,1155622.7999999523,1155636.767,1155903.426,,40,up
