sender,sender_type,sender_id,timestamp,meta,,Blues,Classical,Country,Dance,Electronic,Folk,Gospel,Hip-Hop,Jazz,Latin,Musical/Film,New-age,Pop,Prolific_id,Provo_ID,R&B,Rap,Reggae,Religious,Rock,Soul,Swing,Traditional,age,artist_name,correct,correctResponse,distraction,duration,education,ended_on,familiarity,gender,headphone_check_performance,item,list,music_frequency,offensiveness,pleasantness,position_correct,preference,response,response_action,snippet_file,song_name,song_rating,sound,stimulus_1,stimulus_2,stimulus_3,text,time_commit,time_end,time_render,time_run,time_show,time_switch,url,word,word_ID
Prolific ID,html.Form,0,2022-02-16T09:56:44.924Z,"{""labjs_version"":""20.2.2"",""labjs_build"":{""flavor"":""production"",""commit"":""a25486e0c714a0ae2ce03ff94b7bb6896854dcfa""},""location"":""https://run.pavlovia.org/mvasilev/prolific2_music_c/"",""userAgent"":""Mozilla/5.0 (Windows NT 10.0; Win64; x64) AppleWebKit/537.36 (KHTML, like Gecko) Chrome/98.0.4758.82 Safari/537.36"",""platform"":""Win32"",""language"":""en-GB"",""locale"":""en-GB"",""timeZone"":""Europe/London"",""timezoneOffset"":0,""screen_width"":1536,""screen_height"":864,""scroll_width"":1536,""scroll_height"":674,""window_innerWidth"":1536,""window_innerHeight"":722,""devicePixelRatio"":1.25}",,,,,,,,,,,,,,,60f19bc58ba2fcd8cc2a59c5,,,,,,,,,,,,,,,14068.35799999404,,form submission,,,,,,,,,,,,,,,,,,,,,30403.30000001192,30402.59999999404,16302.949,16316.59999999404,16334.242,30414.673,{},,
Introduction,html.Screen,1_0,2022-02-16T09:56:50.490Z,,,,,,,,,,,,,,,,,,,,,,,,,,,,,,,5544.02699998808,,response,,,,,,,,,,,continue,click button,,,,,,,,,35962,35958.69999998808,30398.102,30403.80000001192,30414.673,35963.523,,,
Volume calibration,html.Screen,1_1,2022-02-16T09:57:01.402Z,,,,,,,,,,,,,,,,,,,,,,,,,,,,,,,10906.87700000596,,response,,,,,,,,,,,continue,click button,,,,,,,,,46874.40000000596,46870.40000000596,35946.919,35962.30000001192,35963.523,46877.919,,,
Task instructions,html.Screen,1_2,2022-02-16T09:57:06.551Z,,,,,,,,,,,,,,,,,,,,,,,,,,,,,,,5144.580999999998,,response,,,,,,,,,,,continue,click button,,,,,,,,,52023.59999999404,52022.5,46861.294,46874.59999999404,46877.919,52026.858,,,
Sounds,html.Screen,1_3_0_0,2022-02-16T09:57:10.791Z,,,,,,,,,,,,,,,,,,,,,,,,,,,,,,,4249.203999999998,,timeout,,,,,,,,,1,,,,,,,,S,I,O,,56263.19999998808,56259.885,52010.255,52023.80000001192,52026.858,56276.062,,,
Judgement,html.Screen,1_3_0_1,2022-02-16T09:57:11.959Z,,,,,,,,,,,,,,,,,,,,,,,,,,,,true,1,,1154.3380000059624,,response,,,,,,,,,1,,1,click #choice-1,,,,,S,I,O,,57431.69999998808,57430.40000000596,56259.885,56263.5,56276.062,57442.427,,,
Trial,flow.Sequence,1_3_0,2022-02-16T09:57:11.960Z,,,,,,,,,,,,,,,,,,,,,,,,,,,,,,,5403.54200000596,,completion,,,,,,,,,1,,,,,,,,S,I,O,,57432.09999999404,57430.40000000596,52010.255,52023.80000001192,52026.858,57442.427,,,
Sounds,html.Screen,1_3_1_0,2022-02-16T09:57:16.203Z,,,,,,,,,,,,,,,,,,,,,,,,,,,,,,,4249.140999999996,,timeout,,,,,,,,,3,,,,,,,,I,O,S,,61675.80000001192,61674.858,57425.808,57432.30000001192,57442.427,61691.568,,,
Judgement,html.Screen,1_3_1_1,2022-02-16T09:57:16.941Z,,,,,,,,,,,,,,,,,,,,,,,,,,,,true,3,,720.3320000059612,,response,,,,,,,,,3,,3,click #choice-3,,,,,I,O,S,,62413.09999999404,62411.90000000596,61674.858,61675.90000000596,61691.568,62424.727,,,
Trial,flow.Sequence,1_3_1,2022-02-16T09:57:16.941Z,,,,,,,,,,,,,,,,,,,,,,,,,,,,,,,4969.473000005957,,completion,,,,,,,,,3,,,,,,,,I,O,S,,62413.30000001192,62411.90000000596,57425.808,57432.09999999404,57442.427,62424.727,,,
Sounds,html.Screen,1_3_2_0,2022-02-16T09:57:21.186Z,,,,,,,,,,,,,,,,,,,,,,,,,,,,,,,4249.088000000003,,timeout,,,,,,,,,1,,,,,,,,S,O,I,,66658,66657.147,62408.641,62413.59999999404,62424.727,66673.815,,,
Judgement,html.Screen,1_3_2_1,2022-02-16T09:57:22.455Z,,,,,,,,,,,,,,,,,,,,,,,,,,,,true,1,,1252.5850000059581,,response,,,,,,,,,1,,1,click #choice-1,,,,,S,O,I,,67927.5,67926.40000000596,66657.147,66658.19999998808,66673.815,67940.646,,,
Trial,flow.Sequence,1_3_2,2022-02-16T09:57:22.456Z,,,,,,,,,,,,,,,,,,,,,,,,,,,,,,,5501.6730000059615,,completion,,,,,,,,,1,,,,,,,,S,O,I,,67927.90000000596,67926.40000000596,62408.641,62413.5,62424.727,67940.646,,,
Sounds,html.Screen,1_3_3_0,2022-02-16T09:57:26.708Z,,,,,,,,,,,,,,,,,,,,,,,,,,,,,,,4248.648000000001,,timeout,,,,,,,,,2,,,,,,,,I,S,O,,72180.69999998808,72172.719,67924.071,67928.09999999404,67940.646,72189.294,,,
Judgement,html.Screen,1_3_3_1,2022-02-16T09:57:27.458Z,,,,,,,,,,,,,,,,,,,,,,,,,,,,true,2,,739.9059999880847,,response,,,,,,,,,2,,2,click #choice-2,,,,,I,S,O,,72930.30000001192,72929.19999998808,72172.719,72180.90000000596,72189.294,72939.168,,,
Trial,flow.Sequence,1_3_3,2022-02-16T09:57:27.458Z,,,,,,,,,,,,,,,,,,,,,,,,,,,,,,,4988.553999988086,,completion,,,,,,,,,2,,,,,,,,I,S,O,,72930.5,72929.19999998808,67924.071,67928,67940.646,72939.168,,,
Sounds,html.Screen,1_3_4_0,2022-02-16T09:57:31.701Z,,,,,,,,,,,,,,,,,,,,,,,,,,,,,,,4249.190999999992,,timeout,,,,,,,,,2,,,,,,,,O,S,I,,77173,77172.229,72923.115,72930.69999998808,72939.168,77188.359,,,
Judgement,html.Screen,1_3_4_1,2022-02-16T09:57:32.461Z,,,,,,,,,,,,,,,,,,,,,,,,,,,,true,2,,743.6410000000033,,response,,,,,,,,,2,,2,click #choice-2,,,,,O,S,I,,77933,77932,77172.229,77173.19999998808,77188.359,77938.162,,,
Trial,flow.Sequence,1_3_4,2022-02-16T09:57:32.461Z,,,,,,,,,,,,,,,,,,,,,,,,,,,,,,,4992.831999999995,,completion,,,,,,,,,2,,,,,,,,O,S,I,,77933.19999998808,77932,72923.115,72930.69999998808,72939.168,77938.162,,,
Sounds,html.Screen,1_3_5_0,2022-02-16T09:57:36.700Z,,,,,,,,,,,,,,,,,,,,,,,,,,,,,,,4249.070999999996,,timeout,,,,,,,,,3,,,,,,,,O,I,S,,82172,82171.191,77921.564,77933.5,77938.162,82187.233,,,
Judgement,html.Screen,1_3_5_1,2022-02-16T09:57:37.687Z,,,,,,,,,,,,,,,,,,,,,,,,,,,,true,3,,971.1670000059676,,response,,,,,,,,,3,,3,click #choice-3,,,,,O,I,S,,83159.59999999404,83158.40000000596,82171.191,82172.09999999404,82187.233,83170.425,,,
Trial,flow.Sequence,1_3_5,2022-02-16T09:57:37.688Z,,,,,,,,,,,,,,,,,,,,,,,,,,,,,,,5220.238000005964,,completion,,,,,,,,,3,,,,,,,,O,I,S,,83159.90000000596,83158.40000000596,77921.564,77933.30000001192,77938.162,83170.425,,,
Task,flow.Loop,1_3,2022-02-16T09:57:37.694Z,,,,,,,,,,,,,,,,,,,,,,,,,,,,,,,31131.54200000596,,completion,,,1,,,,,,,,,,,,,,,,,,83165.90000000596,83158.40000000596,52010.255,52023.80000001192,52026.858,83170.425,,,
Trap,html.Screen,1_4,2022-02-16T09:57:37.695Z,,,,,,,,,,,,,,,,,,,,,,,,,,,,,,,NaN,,skipped,,,,,,,,,,,,,,,,,,,,,83167.69999998808,83158.40000000596,,83167.5,,83170.425,,,
Thanks,html.Screen,1_5,2022-02-16T09:57:41.506Z,,,,,,,,,,,,,,,,,,,,,,,,,,,,,,,3806.574999999997,,response,,,,,,,,,,,continue,click button,,,,,,,,,86978,86977,83154.36,83167.80000001192,83170.425,90218.95,,,
Headphone screening,flow.Sequence,1,2022-02-16T09:57:41.506Z,,,,,,,,,,,,,,,,,,,,,,,,,,,,,,,56562.327000000005,,completion,,,,,,,,,,,,,,,,,,,,,86978.19999998808,86977,30398.102,30403.69999998808,30414.673,90218.95,,,
Instructions,html.Page,2_0,2022-02-16T09:58:11.816Z,,,,,,,,,,,,,,,,,,,,,,,,,,,,,,,27069.450000005963,,form submission,,,,,,,,,,,,,,,,,,,,,117288.69999998808,117288.40000000596,90202.292,90209.5,90218.95,117296.683,,,
Holding screen,html.Screen,2_1_0_0,2022-02-16T09:58:21.807Z,,,,,,,,,,,,,,,,,,,,,,,,,,,,,,,9997.929999999993,,timeout,,,,,,,,,,,,,,,,,,,,,127279.30000001192,127278.505,117280.63,117289,117296.683,127294.613,,,
screen,html.Screen,2_1_0_1_0,2022-02-16T09:58:24.064Z,,,,,,,,,,,,,,,,,53,,,,,,,,,,,,,,2239.0869999880815,,response,,,,99,,,,,,,Space,keypress(Space),,,,,,,,When -- ----- -- ------ - ------- --- ----------<br>------------- ------ ------ ---- ---- ------- ----- -- ----<br>-------- ------- -- ---------- --- - --- ----- ----- ----<br>---- --- --- ----- --- ---- ---- ------- ----- ---- -------<br>--- --- -- ----- -- --- ---- -- --- ---- -- ------ ------<br>--- ----- -- ----,129536.90000000596,129533.69999998808,127278.505,127279.5,127294.613,129544.144,,0,When
screen,html.Screen,2_1_0_1_1,2022-02-16T09:58:24.656Z,,,,,,,,,,,,,,,,,53,,,,,,,,,,,,,,583.1560000119207,,response,,,,99,,,,,,,Space,keypress(Space),,,,,,,,---- it ----- -- ------ - ------- --- ----------<br>------------- ------ ------ ---- ---- ------- ----- -- ----<br>-------- ------- -- ---------- --- - --- ----- ----- ----<br>---- --- --- ----- --- ---- ---- ------- ----- ---- -------<br>--- --- -- ----- -- --- ---- -- --- ---- -- ------ ------<br>--- ----- -- ----,130128,130127.30000001192,129527.657,129537.09999999404,129544.144,130144.506,,1,it
screen,html.Screen,2_1_0_1_2,2022-02-16T09:58:25.454Z,,,,,,,,,,,,,,,,,53,,,,,,,,,,,,,,781.3940000059665,,response,,,,99,,,,,,,Space,keypress(Space),,,,,,,,---- -- comes -- ------ - ------- --- ----------<br>------------- ------ ------ ---- ---- ------- ----- -- ----<br>-------- ------- -- ---------- --- - --- ----- ----- ----<br>---- --- --- ----- --- ---- ---- ------- ----- ---- -------<br>--- --- -- ----- -- --- ---- -- --- ---- -- ------ ------<br>--- ----- -- ----,130926.69999998808,130925.90000000596,130127.871,130128.30000001192,130144.506,130944.288,,2,comes
screen,html.Screen,2_1_0_1_3,2022-02-16T09:58:25.928Z,,,,,,,,,,,,,,,,,53,,,,,,,,,,,,,,455.51200001192046,,response,,,,99,,,,,,,Space,keypress(Space),,,,,,,,---- -- ----- to ------ - ------- --- ----------<br>------------- ------ ------ ---- ---- ------- ----- -- ----<br>-------- ------- -- ---------- --- - --- ----- ----- ----<br>---- --- --- ----- --- ---- ---- ------- ----- ---- -------<br>--- --- -- ----- -- --- ---- -- --- ---- -- ------ ------<br>--- ----- -- ----,131400.59999999404,131399.80000001192,130927.905,130927.80000001192,130944.288,131410.418,,3,to
screen,html.Screen,2_1_0_1_4,2022-02-16T09:58:26.344Z,,,,,,,,,,,,,,,,,53,,,,,,,,,,,,,,405.6819999940344,,response,,,,99,,,,,,,Space,keypress(Space),,,,,,,,---- -- ----- -- having - ------- --- ----------<br>------------- ------ ------ ---- ---- ------- ----- -- ----<br>-------- ------- -- ---------- --- - --- ----- ----- ----<br>---- --- --- ----- --- ---- ---- ------- ----- ---- -------<br>--- --- -- ----- -- --- ---- -- --- ---- -- ------ ------<br>--- ----- -- ----,131816.80000001192,131816.09999999404,131394.426,131400.69999998808,131410.418,131827.445,,4,having
screen,html.Screen,2_1_0_1_5,2022-02-16T09:58:26.737Z,,,,,,,,,,,,,,,,,53,,,,,,,,,,,,,,381.65499999403255,,response,,,,99,,,,,,,Space,keypress(Space),,,,,,,,---- -- ----- -- ------ a ------- --- ----------<br>------------- ------ ------ ---- ---- ------- ----- -- ----<br>-------- ------- -- ---------- --- - --- ----- ----- ----<br>---- --- --- ----- --- ---- ---- ------- ----- ---- -------<br>--- --- -- ----- -- --- ---- -- --- ---- -- ------ ------<br>--- ----- -- ----,132209.80000001192,132209.09999999404,131810.812,131817,131827.445,132227.522,,5,a
screen,html.Screen,2_1_0_1_6,2022-02-16T09:58:27.180Z,,,,,,,,,,,,,,,,,53,,,,,,,,,,,,,,423.87800000596326,,response,,,,99,,,,,,,Space,keypress(Space),,,,,,,,---- -- ----- -- ------ - lasting --- ----------<br>------------- ------ ------ ---- ---- ------- ----- -- ----<br>-------- ------- -- ---------- --- - --- ----- ----- ----<br>---- --- --- ----- --- ---- ---- ------- ----- ---- -------<br>--- --- -- ----- -- --- ---- -- --- ---- -- ------ ------<br>--- ----- -- ----,132652.09999999404,132651.40000000596,132194.067,132209.90000000596,132227.522,132660.145,,6,lasting
screen,html.Screen,2_1_0_1_7,2022-02-16T09:58:27.543Z,,,,,,,,,,,,,,,,,53,,,,,,,,,,,,,,354.75500000597094,,response,,,,99,,,,,,,Space,keypress(Space),,,,,,,,---- -- ----- -- ------ - ------- and ----------<br>------------- ------ ------ ---- ---- ------- ----- -- ----<br>-------- ------- -- ---------- --- - --- ----- ----- ----<br>---- --- --- ----- --- ---- ---- ------- ----- ---- -------<br>--- --- -- ----- -- --- ---- -- --- ---- -- ------ ------<br>--- ----- -- ----,133015.5,133014.90000000596,132643.609,132652.30000001192,132660.145,133026.814,,7,and
screen,html.Screen,2_1_0_1_8,2022-02-16T09:58:28.015Z,,,,,,,,,,,,,,,,,53,,,,,,,,,,,,,,459.88599998806603,,response,,,,99,,,,,,,Space,keypress(Space),,,,,,,,---- -- ----- -- ------ - ------- --- fulfilling<br>------------- ------ ------ ---- ---- ------- ----- -- ----<br>-------- ------- -- ---------- --- - --- ----- ----- ----<br>---- --- --- ----- --- ---- ---- ------- ----- ---- -------<br>--- --- -- ----- -- --- ---- -- --- ---- -- ------ ------<br>--- ----- -- ----,133487.5,133486.69999998808,133010.555,133015.69999998808,133026.814,133493.326,,8,fulfilling
screen,html.Screen,2_1_0_1_9,2022-02-16T09:58:28.755Z,,,,,,,,,,,,,,,,,53,,,,,,,,,,,,,,733.5740000059595,,response,,,,99,,,,,,,Space,keypress(Space),,,,,,,,"---- -- ----- -- ------ - ------- --- ----------<br>relationship, ------ ------ ---- ---- ------- ----- -- ----<br>-------- ------- -- ---------- --- - --- ----- ----- ----<br>---- --- --- ----- --- ---- ---- ------- ----- ---- -------<br>--- --- -- ----- -- --- ---- -- --- ---- -- ------ ------<br>--- ----- -- ----",134227.59999999404,134226.90000000596,133477.279,133487.5,133493.326,134243.61,,9,"relationship,"
screen,html.Screen,2_1_0_1_10,2022-02-16T09:58:29.165Z,,,,,,,,,,,,,,,,,53,,,,,,,,,,,,,,392.4899999940535,,response,,,,99,,,,,,,Space,keypress(Space),,,,,,,,---- -- ----- -- ------ - ------- --- ----------<br>------------- common ------ ---- ---- ------- ----- -- ----<br>-------- ------- -- ---------- --- - --- ----- ----- ----<br>---- --- --- ----- --- ---- ---- ------- ----- ---- -------<br>--- --- -- ----- -- --- ---- -- --- ---- -- ------ ------<br>--- ----- -- ----,134637,134636.09999999404,134227.197,134227.69999998808,134243.61,134643.063,,10,common
screen,html.Screen,2_1_0_1_11,2022-02-16T09:58:29.589Z,,,,,,,,,,,,,,,,,53,,,,,,,,,,,,,,417.7370000119263,,response,,,,99,,,,,,,Space,keypress(Space),,,,,,,,---- -- ----- -- ------ - ------- --- ----------<br>------------- ------ wisdom ---- ---- ------- ----- -- ----<br>-------- ------- -- ---------- --- - --- ----- ----- ----<br>---- --- --- ----- --- ---- ---- ------- ----- ---- -------<br>--- --- -- ----- -- --- ---- -- --- ---- -- ------ ------<br>--- ----- -- ----,135061.5,135060.80000001192,134626.965,134637.19999998808,134643.063,135076.379,,11,wisdom
screen,html.Screen,2_1_0_1_12,2022-02-16T09:58:29.986Z,,,,,,,,,,,,,,,,,53,,,,,,,,,,,,,,381.5210000059742,,response,,,,99,,,,,,,Space,keypress(Space),,,,,,,,---- -- ----- -- ------ - ------- --- ----------<br>------------- ------ ------ says ---- ------- ----- -- ----<br>-------- ------- -- ---------- --- - --- ----- ----- ----<br>---- --- --- ----- --- ---- ---- ------- ----- ---- -------<br>--- --- -- ----- -- --- ---- -- --- ---- -- ------ ------<br>--- ----- -- ----,135458.69999998808,135457.90000000596,135060.333,135061.59999999404,135076.379,135476.83,,12,says
screen,html.Screen,2_1_0_1_13,2022-02-16T09:58:30.404Z,,,,,,,,,,,,,,,,,53,,,,,,,,,,,,,,399.26999999405234,,response,,,,99,,,,,,,Space,keypress(Space),,,,,,,,---- -- ----- -- ------ - ------- --- ----------<br>------------- ------ ------ ---- that ------- ----- -- ----<br>-------- ------- -- ---------- --- - --- ----- ----- ----<br>---- --- --- ----- --- ---- ---- ------- ----- ---- -------<br>--- --- -- ----- -- --- ---- -- --- ---- -- ------ ------<br>--- ----- -- ----,135876.80000001192,135876.09999999404,135443.416,135458.90000000596,135476.83,135893.271,,13,that
screen,html.Screen,2_1_0_1_14,2022-02-16T09:58:30.810Z,,,,,,,,,,,,,,,,,53,,,,,,,,,,,,,,388.92899998807115,,response,,,,99,,,,,,,Space,keypress(Space),,,,,,,,---- -- ----- -- ------ - ------- --- ----------<br>------------- ------ ------ ---- ---- feeling ----- -- ----<br>-------- ------- -- ---------- --- - --- ----- ----- ----<br>---- --- --- ----- --- ---- ---- ------- ----- ---- -------<br>--- --- -- ----- -- --- ---- -- --- ---- -- ------ ------<br>--- ----- -- ----,136282.90000000596,136282.19999998808,135876.666,135877,135893.271,136293.179,,14,feeling
screen,html.Screen,2_1_0_1_15,2022-02-16T09:58:31.246Z,,,,,,,,,,,,,,,,,53,,,,,,,,,,,,,,424.3209999999963,,response,,,,99,,,,,,,Space,keypress(Space),,,,,,,,---- -- ----- -- ------ - ------- --- ----------<br>------------- ------ ------ ---- ---- ------- close -- ----<br>-------- ------- -- ---------- --- - --- ----- ----- ----<br>---- --- --- ----- --- ---- ---- ------- ----- ---- -------<br>--- --- -- ----- -- --- ---- -- --- ---- -- ------ ------<br>--- ----- -- ----,136718.19999998808,136717.5,136276.743,136283,136293.179,136725.923,,15,close
screen,html.Screen,2_1_0_1_16,2022-02-16T09:58:31.616Z,,,,,,,,,,,,,,,,,53,,,,,,,,,,,,,,361.9770000059507,,response,,,,99,,,,,,,Space,keypress(Space),,,,,,,,---- -- ----- -- ------ - ------- --- ----------<br>------------- ------ ------ ---- ---- ------- ----- to ----<br>-------- ------- -- ---------- --- - --- ----- ----- ----<br>---- --- --- ----- --- ---- ---- ------- ----- ---- -------<br>--- --- -- ----- -- --- ---- -- --- ---- -- ------ ------<br>--- ----- -- ----,137088.59999999404,137087.90000000596,136709.385,136718.30000001192,136725.923,137092.573,,16,to
screen,html.Screen,2_1_0_1_17,2022-02-16T09:58:31.975Z,,,,,,,,,,,,,,,,,53,,,,,,,,,,,,,,354.22700001191697,,response,,,,99,,,,,,,Space,keypress(Space),,,,,,,,---- -- ----- -- ------ - ------- --- ----------<br>------------- ------ ------ ---- ---- ------- ----- -- your<br>-------- ------- -- ---------- --- - --- ----- ----- ----<br>---- --- --- ----- --- ---- ---- ------- ----- ---- -------<br>--- --- -- ----- -- --- ---- -- --- ---- -- ------ ------<br>--- ----- -- ----,137447.40000000596,137446.80000001192,137076.379,137088.80000001192,137092.573,137459.602,,17,your
screen,html.Screen,2_1_0_1_18,2022-02-16T09:58:32.340Z,,,,,,,,,,,,,,,,,53,,,,,,,,,,,,,,351.6980000119074,,response,,,,99,,,,,,,Space,keypress(Space),,,,,,,,---- -- ----- -- ------ - ------- --- ----------<br>------------- ------ ------ ---- ---- ------- ----- -- ----<br>romantic ------- -- ---------- --- - --- ----- ----- ----<br>---- --- --- ----- --- ---- ---- ------- ----- ---- -------<br>--- --- -- ----- -- --- ---- -- --- ---- -- ------ ------<br>--- ----- -- ----,137812,137811.30000001192,137442.973,137447.59999999404,137459.602,137826.204,,18,romantic
screen,html.Screen,2_1_0_1_19,2022-02-16T09:58:32.720Z,,,,,,,,,,,,,,,,,53,,,,,,,,,,,,,,365.69600000596256,,response,,,,99,,,,,,,Space,keypress(Space),,,,,,,,---- -- ----- -- ------ - ------- --- ----------<br>------------- ------ ------ ---- ---- ------- ----- -- ----<br>-------- partner -- ---------- --- - --- ----- ----- ----<br>---- --- --- ----- --- ---- ---- ------- ----- ---- -------<br>--- --- -- ----- -- --- ---- -- --- ---- -- ------ ------<br>--- ----- -- ----,138192.5,138191.90000000596,137809.618,137812.19999998808,137826.204,138209.073,,19,partner
screen,html.Screen,2_1_0_1_20,2022-02-16T09:58:33.094Z,,,,,,,,,,,,,,,,,53,,,,,,,,,,,,,,356.5269999940356,,response,,,,99,,,,,,,Space,keypress(Space),,,,,,,,---- -- ----- -- ------ - ------- --- ----------<br>------------- ------ ------ ---- ---- ------- ----- -- ----<br>-------- ------- is ---------- --- - --- ----- ----- ----<br>---- --- --- ----- --- ---- ---- ------- ----- ---- -------<br>--- --- -- ----- -- --- ---- -- --- ---- -- ------ ------<br>--- ----- -- ----,138566.30000001192,138565.59999999404,138193.001,138192.59999999404,138209.073,138575.621,,20,is
screen,html.Screen,2_1_0_1_21,2022-02-16T09:58:33.547Z,,,,,,,,,,,,,,,,,53,,,,,,,,,,,,,,442.57899998806533,,response,,,,99,,,,,,,Space,keypress(Space),,,,,,,,---- -- ----- -- ------ - ------- --- ----------<br>------------- ------ ------ ---- ---- ------- ----- -- ----<br>-------- ------- -- paramount. --- - --- ----- ----- ----<br>---- --- --- ----- --- ---- ---- ------- ----- ---- -------<br>--- --- -- ----- -- --- ---- -- --- ---- -- ------ ------<br>--- ----- -- ----,139019,139018.19999998808,138559.566,138566.40000000596,138575.621,139025.552,,21,paramount.
screen,html.Screen,2_1_0_1_22,2022-02-16T09:58:34.048Z,,,,,,,,,,,,,,,,,53,,,,,,,,,,,,,,494.2480000119249,,response,,,,99,,,,,,,Space,keypress(Space),,,,,,,,---- -- ----- -- ------ - ------- --- ----------<br>------------- ------ ------ ---- ---- ------- ----- -- ----<br>-------- ------- -- ---------- But - --- ----- ----- ----<br>---- --- --- ----- --- ---- ---- ------- ----- ---- -------<br>--- --- -- ----- -- --- ---- -- --- ---- -- ------ ------<br>--- ----- -- ----,139520.59999999404,139519.80000001192,139009.102,139019.09999999404,139025.552,139525.405,,22,But
screen,html.Screen,2_1_0_1_23,2022-02-16T09:58:34.401Z,,,,,,,,,,,,,,,,,53,,,,,,,,,,,,,,347.09500000000116,,response,,,,99,,,,,,,Space,keypress(Space),,,,,,,,---- -- ----- -- ------ - ------- --- ----------<br>------------- ------ ------ ---- ---- ------- ----- -- ----<br>-------- ------- -- ---------- --- a --- ----- ----- ----<br>---- --- --- ----- --- ---- ---- ------- ----- ---- -------<br>--- --- -- ----- -- --- ---- -- --- ---- -- ------ ------<br>--- ----- -- ----,139873.19999998808,139872.5,139509.241,139520.69999998808,139525.405,139875.334,,23,a
screen,html.Screen,2_1_0_1_24,2022-02-16T09:58:34.715Z,,,,,,,,,,,,,,,,,53,,,,,,,,,,,,,,311.0660000059579,,response,,,,99,,,,,,,Space,keypress(Space),,,,,,,,---- -- ----- -- ------ - ------- --- ----------<br>------------- ------ ------ ---- ---- ------- ----- -- ----<br>-------- ------- -- ---------- --- - new ----- ----- ----<br>---- --- --- ----- --- ---- ---- ------- ----- ---- -------<br>--- --- -- ----- -- --- ---- -- --- ---- -- ------ ------<br>--- ----- -- ----,140187.19999998808,140186.40000000596,139859.151,139873.40000000596,139875.334,140191.947,,24,new
screen,html.Screen,2_1_0_1_25,2022-02-16T09:58:35.119Z,,,,,,,,,,,,,,,,,53,,,,,,,,,,,,,,398.4530000059749,,response,,,,99,,,,,,,Space,keypress(Space),,,,,,,,---- -- ----- -- ------ - ------- --- ----------<br>------------- ------ ------ ---- ---- ------- ----- -- ----<br>-------- ------- -- ---------- --- - --- study ----- ----<br>---- --- --- ----- --- ---- ---- ------- ----- ---- -------<br>--- --- -- ----- -- --- ---- -- --- ---- -- ------ ------<br>--- ----- -- ----,140591,140590.40000000596,140175.745,140187.30000001192,140191.947,140609.108,,25,study
screen,html.Screen,2_1_0_1_26,2022-02-16T09:58:35.494Z,,,,,,,,,,,,,,,,,53,,,,,,,,,,,,,,356.292000005953,,response,,,,99,,,,,,,Space,keypress(Space),,,,,,,,---- -- ----- -- ------ - ------- --- ----------<br>------------- ------ ------ ---- ---- ------- ----- -- ----<br>-------- ------- -- ---------- --- - --- ----- finds ----<br>---- --- --- ----- --- ---- ---- ------- ----- ---- -------<br>--- --- -- ----- -- --- ---- -- --- ---- -- ------ ------<br>--- ----- -- ----,140966.09999999404,140965.40000000596,140575.67,140591.19999998808,140609.108,140975.059,,26,finds
screen,html.Screen,2_1_0_1_27,2022-02-16T09:58:35.926Z,,,,,,,,,,,,,,,,,53,,,,,,,,,,,,,,422.1409999880707,,response,,,,99,,,,,,,Space,keypress(Space),,,,,,,,---- -- ----- -- ------ - ------- --- ----------<br>------------- ------ ------ ---- ---- ------- ----- -- ----<br>-------- ------- -- ---------- --- - --- ----- ----- that<br>---- --- --- ----- --- ---- ---- ------- ----- ---- -------<br>--- --- -- ----- -- --- ---- -- --- ---- -- ------ ------<br>--- ----- -- ----,141398,141397.19999998808,140958.897,140966.40000000596,140975.059,141408.791,,27,that
screen,html.Screen,2_1_0_1_28,2022-02-16T09:58:36.313Z,,,,,,,,,,,,,,,,,53,,,,,,,,,,,,,,375.8089999940421,,response,,,,99,,,,,,,Space,keypress(Space),,,,,,,,---- -- ----- -- ------ - ------- --- ----------<br>------------- ------ ------ ---- ---- ------- ----- -- ----<br>-------- ------- -- ---------- --- - --- ----- ----- ----<br>it's --- --- ----- --- ---- ---- ------- ----- ---- -------<br>--- --- -- ----- -- --- ---- -- --- ---- -- ------ ------<br>--- ----- -- ----,141785.19999998808,141784.59999999404,141392.153,141398.19999998808,141408.791,141791.599,,28,it's
screen,html.Screen,2_1_0_1_29,2022-02-16T09:58:36.650Z,,,,,,,,,,,,,,,,,53,,,,,,,,,,,,,,330.30100000597304,,response,,,,99,,,,,,,Space,keypress(Space),,,,,,,,---- -- ----- -- ------ - ------- --- ----------<br>------------- ------ ------ ---- ---- ------- ----- -- ----<br>-------- ------- -- ---------- --- - --- ----- ----- ----<br>---- not --- ----- --- ---- ---- ------- ----- ---- -------<br>--- --- -- ----- -- --- ---- -- --- ---- -- ------ ------<br>--- ----- -- ----,142122.69999998808,142121.90000000596,141775.456,141785.5,141791.599,142124.879,,29,not
screen,html.Screen,2_1_0_1_30,2022-02-16T09:58:36.953Z,,,,,,,,,,,,,,,,,53,,,,,,,,,,,,,,299.8209999880928,,response,,,,99,,,,,,,Space,keypress(Space),,,,,,,,---- -- ----- -- ------ - ------- --- ----------<br>------------- ------ ------ ---- ---- ------- ----- -- ----<br>-------- ------- -- ---------- --- - --- ----- ----- ----<br>---- --- how ----- --- ---- ---- ------- ----- ---- -------<br>--- --- -- ----- -- --- ---- -- --- ---- -- ------ ------<br>--- ----- -- ----,142425.40000000596,142424.69999998808,142108.879,142122.80000001192,142124.879,142441.986,,30,how
screen,html.Screen,2_1_0_1_31,2022-02-16T09:58:37.334Z,,,,,,,,,,,,,,,,,53,,,,,,,,,,,,,,363.3140000119165,,response,,,,99,,,,,,,Space,keypress(Space),,,,,,,,---- -- ----- -- ------ - ------- --- ----------<br>------------- ------ ------ ---- ---- ------- ----- -- ----<br>-------- ------- -- ---------- --- - --- ----- ----- ----<br>---- --- --- close --- ---- ---- ------- ----- ---- -------<br>--- --- -- ----- -- --- ---- -- --- ---- -- ------ ------<br>--- ----- -- ----,142806.09999999404,142805.30000001192,142425.262,142425.5,142441.986,142808.054,,31,close
screen,html.Screen,2_1_0_1_32,2022-02-16T09:58:37.691Z,,,,,,,,,,,,,,,,,53,,,,,,,,,,,,,,354.84600000595674,,response,,,,99,,,,,,,Space,keypress(Space),,,,,,,,---- -- ----- -- ------ - ------- --- ----------<br>------------- ------ ------ ---- ---- ------- ----- -- ----<br>-------- ------- -- ---------- --- - --- ----- ----- ----<br>---- --- --- ----- you ---- ---- ------- ----- ---- -------<br>--- --- -- ----- -- --- ---- -- --- ---- -- ------ ------<br>--- ----- -- ----,143163.69999998808,143162.90000000596,142792.031,142806.19999998808,142808.054,143175.092,,32,you
screen,html.Screen,2_1_0_1_33,2022-02-16T09:58:38.067Z,,,,,,,,,,,,,,,,,53,,,,,,,,,,,,,,363.4079999999958,,response,,,,99,,,,,,,Space,keypress(Space),,,,,,,,---- -- ----- -- ------ - ------- --- ----------<br>------------- ------ ------ ---- ---- ------- ----- -- ----<br>-------- ------- -- ---------- --- - --- ----- ----- ----<br>---- --- --- ----- --- feel ---- ------- ----- ---- -------<br>--- --- -- ----- -- --- ---- -- --- ---- -- ------ ------<br>--- ----- -- ----,143539.19999998808,143538.5,143158.075,143163.80000001192,143175.092,143541.236,,33,feel
screen,html.Screen,2_1_0_1_34,2022-02-16T09:58:38.427Z,,,,,,,,,,,,,,,,,53,,,,,,,,,,,,,,357.5640000119165,,response,,,,99,,,,,,,Space,keypress(Space),,,,,,,,---- -- ----- -- ------ - ------- --- ----------<br>------------- ------ ------ ---- ---- ------- ----- -- ----<br>-------- ------- -- ---------- --- - --- ----- ----- ----<br>---- --- --- ----- --- ---- that ------- ----- ---- -------<br>--- --- -- ----- -- --- ---- -- --- ---- -- ------ ------<br>--- ----- -- ----,143899.5,143898.80000001192,143525.225,143539.40000000596,143541.236,143908.264,,34,that
screen,html.Screen,2_1_0_1_35,2022-02-16T09:58:38.782Z,,,,,,,,,,,,,,,,,53,,,,,,,,,,,,,,345.83599999404396,,response,,,,99,,,,,,,Space,keypress(Space),,,,,,,,---- -- ----- -- ------ - ------- --- ----------<br>------------- ------ ------ ---- ---- ------- ----- -- ----<br>-------- ------- -- ---------- --- - --- ----- ----- ----<br>---- --- --- ----- --- ---- ---- matters ----- ---- -------<br>--- --- -- ----- -- --- ---- -- --- ---- -- ------ ------<br>--- ----- -- ----,144254.69999998808,144254.09999999404,143891.637,143899.59999999404,143908.264,144257.753,,35,matters
screen,html.Screen,2_1_0_1_36,2022-02-16T09:58:39.230Z,,,,,,,,,,,,,,,,,53,,,,,,,,,,,,,,444.04700001192396,,response,,,,99,,,,,,,Space,keypress(Space),,,,,,,,"---- -- ----- -- ------ - ------- --- ----------<br>------------- ------ ------ ---- ---- ------- ----- -- ----<br>-------- ------- -- ---------- --- - --- ----- ----- ----<br>---- --- --- ----- --- ---- ---- ------- most, ---- -------<br>--- --- -- ----- -- --- ---- -- --- ---- -- ------ ------<br>--- ----- -- ----",144702.80000001192,144701.80000001192,144241.741,144255,144257.753,144707.602,,36,"most,"
screen,html.Screen,2_1_0_1_37,2022-02-16T09:58:39.618Z,,,,,,,,,,,,,,,,,53,,,,,,,,,,,,,,381.6980000119074,,response,,,,99,,,,,,,Space,keypress(Space),,,,,,,,---- -- ----- -- ------ - ------- --- ----------<br>------------- ------ ------ ---- ---- ------- ----- -- ----<br>-------- ------- -- ---------- --- - --- ----- ----- ----<br>---- --- --- ----- --- ---- ---- ------- ----- it's -------<br>--- --- -- ----- -- --- ---- -- --- ---- -- ------ ------<br>--- ----- -- ----,145090.09999999404,145089.30000001192,144691.624,144702.90000000596,144707.602,145108.173,,37,it's
screen,html.Screen,2_1_0_1_38,2022-02-16T09:58:40.051Z,,,,,,,,,,,,,,,,,53,,,,,,,,,,,,,,414.42699999402976,,response,,,,99,,,,,,,Space,keypress(Space),,,,,,,,---- -- ----- -- ------ - ------- --- ----------<br>------------- ------ ------ ---- ---- ------- ----- -- ----<br>-------- ------- -- ---------- --- - --- ----- ----- ----<br>---- --- --- ----- --- ---- ---- ------- ----- ---- whether<br>--- --- -- ----- -- --- ---- -- --- ---- -- ------ ------<br>--- ----- -- ----,145523.30000001192,145522.59999999404,145074.737,145090.19999998808,145108.173,145541.409,,38,whether
screen,html.Screen,2_1_0_1_39,2022-02-16T09:58:40.454Z,,,,,,,,,,,,,,,,,53,,,,,,,,,,,,,,383.99100000594626,,response,,,,99,,,,,,,Space,keypress(Space),,,,,,,,---- -- ----- -- ------ - ------- --- ----------<br>------------- ------ ------ ---- ---- ------- ----- -- ----<br>-------- ------- -- ---------- --- - --- ----- ----- ----<br>---- --- --- ----- --- ---- ---- ------- ----- ---- -------<br>you --- -- ----- -- --- ---- -- --- ---- -- ------ ------<br>--- ----- -- ----,145926.09999999404,145925.40000000596,145507.527,145523.40000000596,145541.409,145941.193,,39,you
screen,html.Screen,2_1_0_1_40,2022-02-16T09:58:40.810Z,,,,,,,,,,,,,,,,,53,,,,,,,,,,,,,,340.90699999404023,,response,,,,99,,,,,,,Space,keypress(Space),,,,,,,,---- -- ----- -- ------ - ------- --- ----------<br>------------- ------ ------ ---- ---- ------- ----- -- ----<br>-------- ------- -- ---------- --- - --- ----- ----- ----<br>---- --- --- ----- --- ---- ---- ------- ----- ---- -------<br>--- are -- ----- -- --- ---- -- --- ---- -- ------ ------<br>--- ----- -- ----,146282.80000001192,146282.09999999404,145924.155,145926.30000001192,145941.193,146290.717,,40,are
screen,html.Screen,2_1_0_1_41,2022-02-16T09:58:41.177Z,,,,,,,,,,,,,,,,,53,,,,,,,,,,,,,,357.7829999999958,,response,,,,99,,,,,,,Space,keypress(Space),,,,,,,,---- -- ----- -- ------ - ------- --- ----------<br>------------- ------ ------ ---- ---- ------- ----- -- ----<br>-------- ------- -- ---------- --- - --- ----- ----- ----<br>---- --- --- ----- --- ---- ---- ------- ----- ---- -------<br>--- --- as ----- -- --- ---- -- --- ---- -- ------ ------<br>--- ----- -- ----,146649.19999998808,146648.5,146274.538,146282.90000000596,146290.717,146657.352,,41,as
screen,html.Screen,2_1_0_1_42,2022-02-16T09:58:41.551Z,,,,,,,,,,,,,,,,,53,,,,,,,,,,,,,,365.1479999999865,,response,,,,99,,,,,,,Space,keypress(Space),,,,,,,,---- -- ----- -- ------ - ------- --- ----------<br>------------- ------ ------ ---- ---- ------- ----- -- ----<br>-------- ------- -- ---------- --- - --- ----- ----- ----<br>---- --- --- ----- --- ---- ---- ------- ----- ---- -------<br>--- --- -- close -- --- ---- -- --- ---- -- ------ ------<br>--- ----- -- ----,147023.09999999404,147022.5,146641.646,146649.30000001192,146657.352,147040.471,,42,close
screen,html.Screen,2_1_0_1_43,2022-02-16T09:58:41.932Z,,,,,,,,,,,,,,,,,53,,,,,,,,,,,,,,363.2289999880886,,response,,,,99,,,,,,,Space,keypress(Space),,,,,,,,---- -- ----- -- ------ - ------- --- ----------<br>------------- ------ ------ ---- ---- ------- ----- -- ----<br>-------- ------- -- ---------- --- - --- ----- ----- ----<br>---- --- --- ----- --- ---- ---- ------- ----- ---- -------<br>--- --- -- ----- as --- ---- -- --- ---- -- ------ ------<br>--- ----- -- ----,147404.40000000596,147403.69999998808,147008.124,147023.30000001192,147040.471,147407.094,,43,as
screen,html.Screen,2_1_0_1_44,2022-02-16T09:58:42.311Z,,,,,,,,,,,,,,,,,53,,,,,,,,,,,,,,375.4059999999881,,response,,,,99,,,,,,,Space,keypress(Space),,,,,,,,---- -- ----- -- ------ - ------- --- ----------<br>------------- ------ ------ ---- ---- ------- ----- -- ----<br>-------- ------- -- ---------- --- - --- ----- ----- ----<br>---- --- --- ----- --- ---- ---- ------- ----- ---- -------<br>--- --- -- ----- -- you ---- -- --- ---- -- ------ ------<br>--- ----- -- ----,147783.30000001192,147782.5,147390.986,147404.59999999404,147407.094,147790.383,,44,you
screen,html.Screen,2_1_0_1_45,2022-02-16T09:58:42.712Z,,,,,,,,,,,,,,,,,53,,,,,,,,,,,,,,393.01700000595883,,response,,,,99,,,,,,,Space,keypress(Space),,,,,,,,---- -- ----- -- ------ - ------- --- ----------<br>------------- ------ ------ ---- ---- ------- ----- -- ----<br>-------- ------- -- ---------- --- - --- ----- ----- ----<br>---- --- --- ----- --- ---- ---- ------- ----- ---- -------<br>--- --- -- ----- -- --- want -- --- ---- -- ------ ------<br>--- ----- -- ----,148184,148183.40000000596,147774.175,147783.40000000596,147790.383,148190.878,,45,want
screen,html.Screen,2_1_0_1_46,2022-02-16T09:58:43.103Z,,,,,,,,,,,,,,,,,53,,,,,,,,,,,,,,384.22199999404256,,response,,,,99,,,,,,,Space,keypress(Space),,,,,,,,---- -- ----- -- ------ - ------- --- ----------<br>------------- ------ ------ ---- ---- ------- ----- -- ----<br>-------- ------- -- ---------- --- - --- ----- ----- ----<br>---- --- --- ----- --- ---- ---- ------- ----- ---- -------<br>--- --- -- ----- -- --- ---- to --- ---- -- ------ ------<br>--- ----- -- ----,148575.80000001192,148575.09999999404,148173.716,148184.19999998808,148190.878,148590.641,,46,to
screen,html.Screen,2_1_0_1_47,2022-02-16T09:58:43.479Z,,,,,,,,,,,,,,,,,53,,,,,,,,,,,,,,359.65900001191767,,response,,,,99,,,,,,,Space,keypress(Space),,,,,,,,"---- -- ----- -- ------ - ------- --- ----------<br>------------- ------ ------ ---- ---- ------- ----- -- ----<br>-------- ------- -- ---------- --- - --- ----- ----- ----<br>---- --- --- ----- --- ---- ---- ------- ----- ---- -------<br>--- --- -- ----- -- --- ---- -- be, ---- -- ------ ------<br>--- ----- -- ----",148951.09999999404,148950.30000001192,148573.629,148576,148590.641,148956.761,,47,"be,"
screen,html.Screen,2_1_0_1_48,2022-02-16T09:58:43.991Z,,,,,,,,,,,,,,,,,53,,,,,,,,,,,,,,505.5390000119223,,response,,,,99,,,,,,,Space,keypress(Space),,,,,,,,---- -- ----- -- ------ - ------- --- ----------<br>------------- ------ ------ ---- ---- ------- ----- -- ----<br>-------- ------- -- ---------- --- - --- ----- ----- ----<br>---- --- --- ----- --- ---- ---- ------- ----- ---- -------<br>--- --- -- ----- -- --- ---- -- --- even -- ------ ------<br>--- ----- -- ----,149463,149462.30000001192,148940.659,148951.30000001192,148956.761,149473.772,,48,even
screen,html.Screen,2_1_0_1_49,2022-02-16T09:58:44.362Z,,,,,,,,,,,,,,,,,53,,,,,,,,,,,,,,359.62800000596326,,response,,,,99,,,,,,,Space,keypress(Space),,,,,,,,---- -- ----- -- ------ - ------- --- ----------<br>------------- ------ ------ ---- ---- ------- ----- -- ----<br>-------- ------- -- ---------- --- - --- ----- ----- ----<br>---- --- --- ----- --- ---- ---- ------- ----- ---- -------<br>--- --- -- ----- -- --- ---- -- --- ---- if ------ ------<br>--- ----- -- ----,149834,149833.40000000596,149457.28,149463.19999998808,149473.772,149839.949,,49,if
screen,html.Screen,2_1_0_1_50,2022-02-16T09:58:44.758Z,,,,,,,,,,,,,,,,,53,,,,,,,,,,,,,,389.9510000059672,,response,,,,99,,,,,,,Space,keypress(Space),,,,,,,,---- -- ----- -- ------ - ------- --- ----------<br>------------- ------ ------ ---- ---- ------- ----- -- ----<br>-------- ------- -- ---------- --- - --- ----- ----- ----<br>---- --- --- ----- --- ---- ---- ------- ----- ---- -------<br>--- --- -- ----- -- --- ---- -- --- ---- -- that's ------<br>--- ----- -- ----,150230.59999999404,150229.90000000596,149823.827,149834.19999998808,149839.949,150240.52,,50,that's
screen,html.Screen,2_1_0_1_51,2022-02-16T09:58:45.180Z,,,,,,,,,,,,,,,,,53,,,,,,,,,,,,,,411.17999998808955,,response,,,,99,,,,,,,Space,keypress(Space),,,,,,,,---- -- ----- -- ------ - ------- --- ----------<br>------------- ------ ------ ---- ---- ------- ----- -- ----<br>-------- ------- -- ---------- --- - --- ----- ----- ----<br>---- --- --- ----- --- ---- ---- ------- ----- ---- -------<br>--- --- -- ----- -- --- ---- -- --- ---- -- ------ really<br>--- ----- -- ----,150652.5,150651.69999998808,150223.506,150230.69999998808,150240.52,150656.432,,51,really
screen,html.Screen,2_1_0_1_52,2022-02-16T09:58:45.592Z,,,,,,,,,,,,,,,,,53,,,,,,,,,,,,,,406.86800001192023,,response,,,,99,,,,,,,Space,keypress(Space),,,,,,,,---- -- ----- -- ------ - ------- --- ----------<br>------------- ------ ------ ---- ---- ------- ----- -- ----<br>-------- ------- -- ---------- --- - --- ----- ----- ----<br>---- --- --- ----- --- ---- ---- ------- ----- ---- -------<br>--- --- -- ----- -- --- ---- -- --- ---- -- ------ ------<br>not ----- -- ----,151064,151063.30000001192,150640.251,150652.69999998808,150656.432,151073.621,,52,not
screen,html.Screen,2_1_0_1_53,2022-02-16T09:58:45.942Z,,,,,,,,,,,,,,,,,53,,,,,,,,,,,,,,339.87899999998626,,response,,,,99,,,,,,,Space,keypress(Space),,,,,,,,---- -- ----- -- ------ - ------- --- ----------<br>------------- ------ ------ ---- ---- ------- ----- -- ----<br>-------- ------- -- ---------- --- - --- ----- ----- ----<br>---- --- --- ----- --- ---- ---- ------- ----- ---- -------<br>--- --- -- ----- -- --- ---- -- --- ---- -- ------ ------<br>--- close -- ----,151414.19999998808,151413.5,151057.08,151064.19999998808,151073.621,151423.383,,53,close
screen,html.Screen,2_1_0_1_54,2022-02-16T09:58:46.312Z,,,,,,,,,,,,,,,,,53,,,,,,,,,,,,,,360.4170000119193,,response,,,,99,,,,,,,Space,keypress(Space),,,,,,,,---- -- ----- -- ------ - ------- --- ----------<br>------------- ------ ------ ---- ---- ------- ----- -- ----<br>-------- ------- -- ---------- --- - --- ----- ----- ----<br>---- --- --- ----- --- ---- ---- ------- ----- ---- -------<br>--- --- -- ----- -- --- ---- -- --- ---- -- ------ ------<br>--- ----- at ----,151784.59999999404,151783.80000001192,151406.841,151414.40000000596,151423.383,151789.52,,54,at
screen,html.Screen,2_1_0_1_55,2022-02-16T09:58:46.728Z,,,,,,,,,,,,,,,,,53,,,,,,,,,,,,,,410.4800000000105,,response,,,,99,,,,,,,Space,keypress(Space),,,,,,,,---- -- ----- -- ------ - ------- --- ----------<br>------------- ------ ------ ---- ---- ------- ----- -- ----<br>-------- ------- -- ---------- --- - --- ----- ----- ----<br>---- --- --- ----- --- ---- ---- ------- ----- ---- -------<br>--- --- -- ----- -- --- ---- -- --- ---- -- ------ ------<br>--- ----- -- all.,152200.69999998808,152200,151773.369,151784.69999998808,151789.52,152206.125,,55,all.
Item 99,flow.Loop,2_1_0_1,2022-02-16T09:58:46.729Z,,,,,,,,,,,,,,,,,,,,,,,,,,,,,,,24905.387000000002,,completion,,,,,C,,,,,,,,,,,silence,,,,,152200.90000000596,152200,127278.505,127279.40000000596,127294.613,152206.125,,,
Question 1,html.Screen,2_1_0_2,2022-02-16T09:58:52.183Z,,,,,,,,,,,,,,,,,,,,,,,,,,,,true,FALSE,,5447.875,,response,,,,99,C,,,,,,FALSE,click #choice-2,,,,silence,,,,,157655.09999999404,157654,152189.561,152201.09999999404,152206.125,157721.396,,,
Question 2,html.Screen,2_1_0_3,2022-02-16T09:58:56.201Z,,,,,,,,,,,,,,,,,,,,,,,,,,,,true,TRUE,,3951.2039999940316,,response,,,,99,C,,,,,,TRUE,click #choice-1,,,,silence,,,,,161673.5,161672.59999999404,157687.997,157655.30000001192,157721.396,161687.481,,,
Item 99,flow.Sequence,2_1_0,2022-02-16T09:58:56.201Z,,,,,,,,,,,,,,,,,,,,,,,,,,,,,,,44375.916999994035,,completion,,,,,,,,,,,,,,,,,,,,,161673.69999998808,161672.59999999404,117280.63,117289,117296.683,161687.481,,,
Holding screen,html.Screen,2_1_1_0,2022-02-16T09:59:06.197Z,,,,,,,,,,,,,,,,,,,,,,,,,,,,,,,9997.921000000002,,timeout,,,,,,,,,,,,,,,,,,,,,171670.09999999404,171669.335,161671.268,161673.90000000596,161687.481,171685.402,,,
screen,html.Screen,2_1_1_1_0,2022-02-16T09:59:07.032Z,,,,,,,,,,,,,,,,,54,,,,,,,,,,,,,,818.2979999880772,,response,,,,100,,,,,,,Space,keypress(Space),,,,,,,,At --- ---- --- ------ ----- ------- ---- -- --- ------- --<br>------- ---------- ------ -- ----- -- ----- -- ---- ------<br>--- ----- --- --- ------ -------- ----- --- ------ ----- --<br>----- ----- ---------- --- --- ------ ------ ---- -- ------<br>------- --- ------ ----- --- ---- ------- -- ---- --- --<br>------- ------,172504.40000000596,172503.69999998808,171669.335,171670.30000001192,171685.402,172518.611,,0,At
screen,html.Screen,2_1_1_1_1,2022-02-16T09:59:07.612Z,,,,,,,,,,,,,,,,,54,,,,,,,,,,,,,,565.289000005956,,response,,,,100,,,,,,,Space,keypress(Space),,,,,,,,-- the ---- --- ------ ----- ------- ---- -- --- ------- --<br>------- ---------- ------ -- ----- -- ----- -- ---- ------<br>--- ----- --- --- ------ -------- ----- --- ------ ----- --<br>----- ----- ---------- --- --- ------ ------ ---- -- ------<br>------- --- ------ ----- --- ---- ------- -- ---- --- --<br>------- ------,173084.59999999404,173083.90000000596,172502.093,172504.59999999404,172518.611,173102.282,,1,the
screen,html.Screen,2_1_1_1_2,2022-02-16T09:59:08.093Z,,,,,,,,,,,,,,,,,54,,,,,,,,,,,,,,462.317999994033,,response,,,,100,,,,,,,Space,keypress(Space),,,,,,,,-- --- time --- ------ ----- ------- ---- -- --- ------- --<br>------- ---------- ------ -- ----- -- ----- -- ---- ------<br>--- ----- --- --- ------ -------- ----- --- ------ ----- --<br>----- ----- ---------- --- --- ------ ------ ---- -- ------<br>------- --- ------ ----- --- ---- ------- -- ---- --- --<br>------- ------,173565.40000000596,173564.59999999404,173069.131,173084.69999998808,173102.282,173568.377,,2,time
screen,html.Screen,2_1_1_1_3,2022-02-16T09:59:08.504Z,,,,,,,,,,,,,,,,,54,,,,,,,,,,,,,,407.22299999403185,,response,,,,100,,,,,,,Space,keypress(Space),,,,,,,,-- --- ---- the ------ ----- ------- ---- -- --- ------- --<br>------- ---------- ------ -- ----- -- ----- -- ---- ------<br>--- ----- --- --- ------ -------- ----- --- ------ ----- --<br>----- ----- ---------- --- --- ------ ------ ---- -- ------<br>------- --- ------ ----- --- ---- ------- -- ---- --- --<br>------- ------,173976.30000001192,173975.59999999404,173552.218,173565.5,173568.377,173984.94,,3,the
screen,html.Screen,2_1_1_1_4,2022-02-16T09:59:08.933Z,,,,,,,,,,,,,,,,,54,,,,,,,,,,,,,,419.96000000595814,,response,,,,100,,,,,,,Space,keypress(Space),,,,,,,,-- --- ---- --- French ----- ------- ---- -- --- ------- --<br>------- ---------- ------ -- ----- -- ----- -- ---- ------<br>--- ----- --- --- ------ -------- ----- --- ------ ----- --<br>----- ----- ---------- --- --- ------ ------ ---- -- ------<br>------- --- ------ ----- --- ---- ------- -- ---- --- --<br>------- ------,174405.59999999404,174404.90000000596,173968.846,173976.5,173984.94,174418.616,,4,French
screen,html.Screen,2_1_1_1_5,2022-02-16T09:59:09.379Z,,,,,,,,,,,,,,,,,54,,,,,,,,,,,,,,432.18400001191185,,response,,,,100,,,,,,,Space,keypress(Space),,,,,,,,-- --- ---- --- ------ crown ------- ---- -- --- ------- --<br>------- ---------- ------ -- ----- -- ----- -- ---- ------<br>--- ----- --- --- ------ -------- ----- --- ------ ----- --<br>----- ----- ---------- --- --- ------ ------ ---- -- ------<br>------- --- ------ ----- --- ---- ------- -- ---- --- --<br>------- ------,174851.40000000596,174850.80000001192,174401.616,174405.80000001192,174418.616,174868.142,,5,crown
screen,html.Screen,2_1_1_1_6,2022-02-16T09:59:09.808Z,,,,,,,,,,,,,,,,,54,,,,,,,,,,,,,,411.457999994047,,response,,,,100,,,,,,,Space,keypress(Space),,,,,,,,-- --- ---- --- ------ ----- secured ---- -- --- ------- --<br>------- ---------- ------ -- ----- -- ----- -- ---- ------<br>--- ----- --- --- ------ -------- ----- --- ------ ----- --<br>----- ----- ---------- --- --- ------ ------ ---- -- ------<br>------- --- ------ ----- --- ---- ------- -- ---- --- --<br>------- ------,175280.30000001192,175279.59999999404,174851.531,174851.5,174868.142,175284.668,,6,secured
screen,html.Screen,2_1_1_1_7,2022-02-16T09:59:10.270Z,,,,,,,,,,,,,,,,,54,,,,,,,,,,,,,,457.6320000119158,,response,,,,100,,,,,,,Space,keypress(Space),,,,,,,,-- --- ---- --- ------ ----- ------- much -- --- ------- --<br>------- ---------- ------ -- ----- -- ----- -- ---- ------<br>--- ----- --- --- ------ -------- ----- --- ------ ----- --<br>----- ----- ---------- --- --- ------ ------ ---- -- ------<br>------- --- ------ ----- --- ---- ------- -- ---- --- --<br>------- ------,175743.09999999404,175742.30000001192,175268.654,175280.40000000596,175284.668,175751.236,,7,much
screen,html.Screen,2_1_1_1_8,2022-02-16T09:59:10.684Z,,,,,,,,,,,,,,,,,54,,,,,,,,,,,,,,404.96399998807465,,response,,,,100,,,,,,,Space,keypress(Space),,,,,,,,-- --- ---- --- ------ ----- ------- ---- of --- ------- --<br>------- ---------- ------ -- ----- -- ----- -- ---- ------<br>--- ----- --- --- ------ -------- ----- --- ------ ----- --<br>----- ----- ---------- --- --- ------ ------ ---- -- ------<br>------- --- ------ ----- --- ---- ------- -- ---- --- --<br>------- ------,176156.90000000596,176156.19999998808,175735.065,175743.30000001192,175751.236,176168.287,,8,of
screen,html.Screen,2_1_1_1_9,2022-02-16T09:59:11.053Z,,,,,,,,,,,,,,,,,54,,,,,,,,,,,,,,356.51300001190975,,response,,,,100,,,,,,,Space,keypress(Space),,,,,,,,-- --- ---- --- ------ ----- ------- ---- -- its ------- --<br>------- ---------- ------ -- ----- -- ----- -- ---- ------<br>--- ----- --- --- ------ -------- ----- --- ------ ----- --<br>----- ----- ---------- --- --- ------ ------ ---- -- ------<br>------- --- ------ ----- --- ---- ------- -- ---- --- --<br>------- ------,176525.5,176524.80000001192,176151.864,176157.09999999404,176168.287,176534.847,,9,its
screen,html.Screen,2_1_1_1_10,2022-02-16T09:59:11.464Z,,,,,,,,,,,,,,,,,54,,,,,,,,,,,,,,401.0530000059516,,response,,,,100,,,,,,,Space,keypress(Space),,,,,,,,-- --- ---- --- ------ ----- ------- ---- -- --- revenue --<br>------- ---------- ------ -- ----- -- ----- -- ---- ------<br>--- ----- --- --- ------ -------- ----- --- ------ ----- --<br>----- ----- ---------- --- --- ------ ------ ---- -- ------<br>------- --- ------ ----- --- ---- ------- -- ---- --- --<br>------- ------,176936.59999999404,176935.90000000596,176518.208,176525.69999998808,176534.847,176951.438,,10,revenue
screen,html.Screen,2_1_1_1_11,2022-02-16T09:59:11.886Z,,,,,,,,,,,,,,,,,54,,,,,,,,,,,,,,406.6619999940449,,response,,,,100,,,,,,,Space,keypress(Space),,,,,,,,-- --- ---- --- ------ ----- ------- ---- -- --- ------- by<br>------- ---------- ------ -- ----- -- ----- -- ---- ------<br>--- ----- --- --- ------ -------- ----- --- ------ ----- --<br>----- ----- ---------- --- --- ------ ------ ---- -- ------<br>------- --- ------ ----- --- ---- ------- -- ---- --- --<br>------- ------,177358.80000001192,177358.09999999404,176934.963,176936.80000001192,176951.438,177368.208,,11,by
screen,html.Screen,2_1_1_1_12,2022-02-16T09:59:12.296Z,,,,,,,,,,,,,,,,,54,,,,,,,,,,,,,,399.9919999880658,,response,,,,100,,,,,,,Space,keypress(Space),,,,,,,,-- --- ---- --- ------ ----- ------- ---- -- --- ------- --<br>issuing ---------- ------ -- ----- -- ----- -- ---- ------<br>--- ----- --- --- ------ -------- ----- --- ------ ----- --<br>----- ----- ---------- --- --- ------ ------ ---- -- ------<br>------- --- ------ ----- --- ---- ------- -- ---- --- --<br>------- ------,177768.90000000596,177768.19999998808,177351.008,177358.90000000596,177368.208,177784.764,,12,issuing
screen,html.Screen,2_1_1_1_13,2022-02-16T09:59:12.743Z,,,,,,,,,,,,,,,,,54,,,,,,,,,,,,,,429.9359999880835,,response,,,,100,,,,,,,Space,keypress(Space),,,,,,,,-- --- ---- --- ------ ----- ------- ---- -- --- ------- --<br>------- government ------ -- ----- -- ----- -- ---- ------<br>--- ----- --- --- ------ -------- ----- --- ------ ----- --<br>----- ----- ---------- --- --- ------ ------ ---- -- ------<br>------- --- ------ ----- --- ---- ------- -- ---- --- --<br>------- ------,178215.30000001192,178214.69999998808,177767.978,177769,177784.764,178217.364,,13,government
screen,html.Screen,2_1_1_1_14,2022-02-16T09:59:13.192Z,,,,,,,,,,,,,,,,,54,,,,,,,,,,,,,,446.8359999880777,,response,,,,100,,,,,,,Space,keypress(Space),,,,,,,,-- --- ---- --- ------ ----- ------- ---- -- --- ------- --<br>------- ---------- bonds. -- ----- -- ----- -- ---- ------<br>--- ----- --- --- ------ -------- ----- --- ------ ----- --<br>----- ----- ---------- --- --- ------ ------ ---- -- ------<br>------- --- ------ ----- --- ---- ------- -- ---- --- --<br>------- ------,178664.90000000596,178664.19999998808,178200.822,178215.5,178217.364,178667.27,,14,bonds.
screen,html.Screen,2_1_1_1_15,2022-02-16T09:59:15.530Z,,,,,,,,,,,,,,,,,54,,,,,,,,,,,,,,2334.7300000000105,,response,,,,100,,,,,,,Space,keypress(Space),,,,,,,,-- --- ---- --- ------ ----- ------- ---- -- --- ------- --<br>------- ---------- ------ In ----- -- ----- -- ---- ------<br>--- ----- --- --- ------ -------- ----- --- ------ ----- --<br>----- ----- ---------- --- --- ------ ------ ---- -- ------<br>------- --- ------ ----- --- ---- ------- -- ---- --- --<br>------- ------,181002.69999998808,181002,178651.128,178665.09999999404,178667.27,181017.301,,15,In
screen,html.Screen,2_1_1_1_16,2022-02-16T09:59:15.887Z,,,,,,,,,,,,,,,,,54,,,,,,,,,,,,,,341.8989999880723,,response,,,,100,,,,,,,Space,keypress(Space),,,,,,,,"-- --- ---- --- ------ ----- ------- ---- -- --- ------- --<br>------- ---------- ------ -- 1727, -- ----- -- ---- ------<br>--- ----- --- --- ------ -------- ----- --- ------ ----- --<br>----- ----- ---------- --- --- ------ ------ ---- -- ------<br>------- --- ------ ----- --- ---- ------- -- ---- --- --<br>------- ------",181359.80000001192,181359.19999998808,181000.584,181002.80000001192,181017.301,181366.709,,16,"1727,"
screen,html.Screen,2_1_1_1_17,2022-02-16T09:59:16.900Z,,,,,,,,,,,,,,,,,54,,,,,,,,,,,,,,1004.890999994037,,response,,,,100,,,,,,,Space,keypress(Space),,,,,,,,-- --- ---- --- ------ ----- ------- ---- -- --- ------- --<br>------- ---------- ------ -- ----- in ----- -- ---- ------<br>--- ----- --- --- ------ -------- ----- --- ------ ----- --<br>----- ----- ---------- --- --- ------ ------ ---- -- ------<br>------- --- ------ ----- --- ---- ------- -- ---- --- --<br>------- ------,182372.40000000596,182371.59999999404,181350.712,181360,181366.709,182383.655,,17,in
screen,html.Screen,2_1_1_1_18,2022-02-16T09:59:17.280Z,,,,,,,,,,,,,,,,,54,,,,,,,,,,,,,,367.74500000596163,,response,,,,100,,,,,,,Space,keypress(Space),,,,,,,,-- --- ---- --- ------ ----- ------- ---- -- --- ------- --<br>------- ---------- ------ -- ----- -- order -- ---- ------<br>--- ----- --- --- ------ -------- ----- --- ------ ----- --<br>----- ----- ---------- --- --- ------ ------ ---- -- ------<br>------- --- ------ ----- --- ---- ------- -- ---- --- --<br>------- ------,182752.19999998808,182751.40000000596,182367.119,182372.5,182383.655,182766.897,,18,order
screen,html.Screen,2_1_1_1_19,2022-02-16T09:59:17.739Z,,,,,,,,,,,,,,,,,54,,,,,,,,,,,,,,444.1030000000028,,response,,,,100,,,,,,,Space,keypress(Space),,,,,,,,-- --- ---- --- ------ ----- ------- ---- -- --- ------- --<br>------- ---------- ------ -- ----- -- ----- to ---- ------<br>--- ----- --- --- ------ -------- ----- --- ------ ----- --<br>----- ----- ---------- --- --- ------ ------ ---- -- ------<br>------- --- ------ ----- --- ---- ------- -- ---- --- --<br>------- ------,183211.69999998808,183211,182750.433,182752.40000000596,182766.897,183216.359,,19,to
screen,html.Screen,2_1_1_1_20,2022-02-16T09:59:18.166Z,,,,,,,,,,,,,,,,,54,,,,,,,,,,,,,,420.9410000119242,,response,,,,100,,,,,,,Space,keypress(Space),,,,,,,,-- --- ---- --- ------ ----- ------- ---- -- --- ------- --<br>------- ---------- ------ -- ----- -- ----- -- save ------<br>--- ----- --- --- ------ -------- ----- --- ------ ----- --<br>----- ----- ---------- --- --- ------ ------ ---- -- ------<br>------- --- ------ ----- --- ---- ------- -- ---- --- --<br>------- ------,183638.19999998808,183637.30000001192,183200.345,183211.90000000596,183216.359,183650.044,,20,save
screen,html.Screen,2_1_1_1_21,2022-02-16T09:59:18.661Z,,,,,,,,,,,,,,,,,54,,,,,,,,,,,,,,483.15599998808466,,response,,,,100,,,,,,,Space,keypress(Space),,,,,,,,"-- --- ---- --- ------ ----- ------- ---- -- --- ------- --<br>------- ---------- ------ -- ----- -- ----- -- ---- money,<br>--- ----- --- --- ------ -------- ----- --- ------ ----- --<br>----- ----- ---------- --- --- ------ ------ ---- -- ------<br>------- --- ------ ----- --- ---- ------- -- ---- --- --<br>------- ------",184134,184133.19999998808,183633.444,183638.30000001192,183650.044,184149.944,,21,"money,"
screen,html.Screen,2_1_1_1_22,2022-02-16T09:59:19.099Z,,,,,,,,,,,,,,,,,54,,,,,,,,,,,,,,420.9560000059719,,response,,,,100,,,,,,,Space,keypress(Space),,,,,,,,-- --- ---- --- ------ ----- ------- ---- -- --- ------- --<br>------- ---------- ------ -- ----- -- ----- -- ---- ------<br>the ----- --- --- ------ -------- ----- --- ------ ----- --<br>----- ----- ---------- --- --- ------ ------ ---- -- ------<br>------- --- ------ ----- --- ---- ------- -- ---- --- --<br>------- ------,184571.69999998808,184570.90000000596,184132.946,184134.09999999404,184149.944,184583.181,,22,the
screen,html.Screen,2_1_1_1_23,2022-02-16T09:59:19.476Z,,,,,,,,,,,,,,,,,54,,,,,,,,,,,,,,365.21900000594906,,response,,,,100,,,,,,,Space,keypress(Space),,,,,,,,-- --- ---- --- ------ ----- ------- ---- -- --- ------- --<br>------- ---------- ------ -- ----- -- ----- -- ---- ------<br>--- state --- --- ------ -------- ----- --- ------ ----- --<br>----- ----- ---------- --- --- ------ ------ ---- -- ------<br>------- --- ------ ----- --- ---- ------- -- ---- --- --<br>------- ------,184949.09999999404,184948.40000000596,184566.381,184571.80000001192,184583.181,184966.587,,23,state
screen,html.Screen,2_1_1_1_24,2022-02-16T09:59:19.828Z,,,,,,,,,,,,,,,,,54,,,,,,,,,,,,,,333.11299998807954,,response,,,,100,,,,,,,Space,keypress(Space),,,,,,,,-- --- ---- --- ------ ----- ------- ---- -- --- ------- --<br>------- ---------- ------ -- ----- -- ----- -- ---- ------<br>--- ----- cut --- ------ -------- ----- --- ------ ----- --<br>----- ----- ---------- --- --- ------ ------ ---- -- ------<br>------- --- ------ ----- --- ---- ------- -- ---- --- --<br>------- ------,185300.40000000596,185299.69999998808,184933.406,184949.30000001192,184966.587,185316.36,,24,cut
screen,html.Screen,2_1_1_1_25,2022-02-16T09:59:20.169Z,,,,,,,,,,,,,,,,,54,,,,,,,,,,,,,,324.64000000001397,,response,,,,100,,,,,,,Space,keypress(Space),,,,,,,,-- --- ---- --- ------ ----- ------- ---- -- --- ------- --<br>------- ---------- ------ -- ----- -- ----- -- ---- ------<br>--- ----- --- the ------ -------- ----- --- ------ ----- --<br>----- ----- ---------- --- --- ------ ------ ---- -- ------<br>------- --- ------ ----- --- ---- ------- -- ---- --- --<br>------- ------,185641.69999998808,185641,185299.351,185300.5,185316.36,185649.23,,25,the
screen,html.Screen,2_1_1_1_26,2022-02-16T09:59:20.499Z,,,,,,,,,,,,,,,,,54,,,,,,,,,,,,,,321.2699999999895,,response,,,,100,,,,,,,Space,keypress(Space),,,,,,,,-- --- ---- --- ------ ----- ------- ---- -- --- ------- --<br>------- ---------- ------ -- ----- -- ----- -- ---- ------<br>--- ----- --- --- bonds' -------- ----- --- ------ ----- --<br>----- ----- ---------- --- --- ------ ------ ---- -- ------<br>------- --- ------ ----- --- ---- ------- -- ---- --- --<br>------- ------,185971.19999998808,185970.5,185632.952,185641.90000000596,185649.23,185982.481,,26,bonds'
screen,html.Screen,2_1_1_1_27,2022-02-16T09:59:20.863Z,,,,,,,,,,,,,,,,,54,,,,,,,,,,,,,,352.4190000059607,,response,,,,100,,,,,,,Space,keypress(Space),,,,,,,,-- --- ---- --- ------ ----- ------- ---- -- --- ------- --<br>------- ---------- ------ -- ----- -- ----- -- ---- ------<br>--- ----- --- --- ------ interest ----- --- ------ ----- --<br>----- ----- ---------- --- --- ------ ------ ---- -- ------<br>------- --- ------ ----- --- ---- ------- -- ---- --- --<br>------- ------,186335.69999998808,186334.90000000596,185966.247,185971.40000000596,185982.481,186349.473,,27,interest
screen,html.Screen,2_1_1_1_28,2022-02-16T09:59:21.269Z,,,,,,,,,,,,,,,,,54,,,,,,,,,,,,,,391.1269999940414,,response,,,,100,,,,,,,Space,keypress(Space),,,,,,,,-- --- ---- --- ------ ----- ------- ---- -- --- ------- --<br>------- ---------- ------ -- ----- -- ----- -- ---- ------<br>--- ----- --- --- ------ -------- rate. --- ------ ----- --<br>----- ----- ---------- --- --- ------ ------ ---- -- ------<br>------- --- ------ ----- --- ---- ------- -- ---- --- --<br>------- ------,186741.30000001192,186740.59999999404,186333.013,186335.80000001192,186349.473,186748.941,,28,rate.
screen,html.Screen,2_1_1_1_29,2022-02-16T09:59:21.722Z,,,,,,,,,,,,,,,,,54,,,,,,,,,,,,,,444.95900000596885,,response,,,,100,,,,,,,Space,keypress(Space),,,,,,,,-- --- ---- --- ------ ----- ------- ---- -- --- ------- --<br>------- ---------- ------ -- ----- -- ----- -- ---- ------<br>--- ----- --- --- ------ -------- ----- The ------ ----- --<br>----- ----- ---------- --- --- ------ ------ ---- -- ------<br>------- --- ------ ----- --- ---- ------- -- ---- --- --<br>------- ------,187194.59999999404,187193.90000000596,186732.384,186741.40000000596,186748.941,187198.865,,29,The
screen,html.Screen,2_1_1_1_30,2022-02-16T09:59:22.297Z,,,,,,,,,,,,,,,,,54,,,,,,,,,,,,,,569.9350000119302,,response,,,,100,,,,,,,Space,keypress(Space),,,,,,,,-- --- ---- --- ------ ----- ------- ---- -- --- ------- --<br>------- ---------- ------ -- ----- -- ----- -- ---- ------<br>--- ----- --- --- ------ -------- ----- --- market ----- --<br>----- ----- ---------- --- --- ------ ------ ---- -- ------<br>------- --- ------ ----- --- ---- ------- -- ---- --- --<br>------- ------,187769.59999999404,187768.80000001192,187182.894,187194.80000001192,187198.865,187782.182,,30,market
screen,html.Screen,2_1_1_1_31,2022-02-16T09:59:22.693Z,,,,,,,,,,,,,,,,,54,,,,,,,,,,,,,,382.91799999403884,,response,,,,100,,,,,,,Space,keypress(Space),,,,,,,,-- --- ---- --- ------ ----- ------- ---- -- --- ------- --<br>------- ---------- ------ -- ----- -- ----- -- ---- ------<br>--- ----- --- --- ------ -------- ----- --- ------ value --<br>----- ----- ---------- --- --- ------ ------ ---- -- ------<br>------- --- ------ ----- --- ---- ------- -- ---- --- --<br>------- ------,188165.80000001192,188165.09999999404,187765.925,187769.69999998808,187782.182,188182.443,,31,value
screen,html.Screen,2_1_1_1_32,2022-02-16T09:59:23.150Z,,,,,,,,,,,,,,,,,54,,,,,,,,,,,,,,439.15699999404023,,response,,,,100,,,,,,,Space,keypress(Space),,,,,,,,-- --- ---- --- ------ ----- ------- ---- -- --- ------- --<br>------- ---------- ------ -- ----- -- ----- -- ---- ------<br>--- ----- --- --- ------ -------- ----- --- ------ ----- of<br>----- ----- ---------- --- --- ------ ------ ---- -- ------<br>------- --- ------ ----- --- ---- ------- -- ---- --- --<br>------- ------,188622.40000000596,188621.59999999404,188165.426,188165.90000000596,188182.443,188632.344,,32,of
screen,html.Screen,2_1_1_1_33,2022-02-16T09:59:23.556Z,,,,,,,,,,,,,,,,,54,,,,,,,,,,,,,,395.95600001190905,,response,,,,100,,,,,,,Space,keypress(Space),,,,,,,,-- --- ---- --- ------ ----- ------- ---- -- --- ------- --<br>------- ---------- ------ -- ----- -- ----- -- ---- ------<br>--- ----- --- --- ------ -------- ----- --- ------ ----- --<br>these ----- ---------- --- --- ------ ------ ---- -- ------<br>------- --- ------ ----- --- ---- ------- -- ---- --- --<br>------- ------,189029,189028.30000001192,188615.878,188622.5,188632.344,189031.805,,33,these
screen,html.Screen,2_1_1_1_34,2022-02-16T09:59:23.993Z,,,,,,,,,,,,,,,,,54,,,,,,,,,,,,,,432.695000000007,,response,,,,100,,,,,,,Space,keypress(Space),,,,,,,,-- --- ---- --- ------ ----- ------- ---- -- --- ------- --<br>------- ---------- ------ -- ----- -- ----- -- ---- ------<br>--- ----- --- --- ------ -------- ----- --- ------ ----- --<br>----- bonds ---------- --- --- ------ ------ ---- -- ------<br>------- --- ------ ----- --- ---- ------- -- ---- --- --<br>------- ------,189465.19999998808,189464.5,189015.68,189029.09999999404,189031.805,189482.168,,34,bonds
screen,html.Screen,2_1_1_1_35,2022-02-16T09:59:24.515Z,,,,,,,,,,,,,,,,,54,,,,,,,,,,,,,,504.6320000119158,,response,,,,100,,,,,,,Space,keypress(Space),,,,,,,,"-- --- ---- --- ------ ----- ------- ---- -- --- ------- --<br>------- ---------- ------ -- ----- -- ----- -- ---- ------<br>--- ----- --- --- ------ -------- ----- --- ------ ----- --<br>----- ----- plummeted, --- --- ------ ------ ---- -- ------<br>------- --- ------ ----- --- ---- ------- -- ---- --- --<br>------- ------",189987.59999999404,189986.80000001192,189465.552,189465.30000001192,189482.168,189998.979,,35,"plummeted,"
screen,html.Screen,2_1_1_1_36,2022-02-16T09:59:25.004Z,,,,,,,,,,,,,,,,,54,,,,,,,,,,,,,,477.32100001192885,,response,,,,100,,,,,,,Space,keypress(Space),,,,,,,,-- --- ---- --- ------ ----- ------- ---- -- --- ------- --<br>------- ---------- ------ -- ----- -- ----- -- ---- ------<br>--- ----- --- --- ------ -------- ----- --- ------ ----- --<br>----- ----- ---------- and --- ------ ------ ---- -- ------<br>------- --- ------ ----- --- ---- ------- -- ---- --- --<br>------- ------,190477,190476.30000001192,189982.191,189987.69999998808,189998.979,190481.522,,36,and
screen,html.Screen,2_1_1_1_37,2022-02-16T09:59:25.443Z,,,,,,,,,,,,,,,,,54,,,,,,,,,,,,,,433.7780000119237,,response,,,,100,,,,,,,Space,keypress(Space),,,,,,,,-- --- ---- --- ------ ----- ------- ---- -- --- ------- --<br>------- ---------- ------ -- ----- -- ----- -- ---- ------<br>--- ----- --- --- ------ -------- ----- --- ------ ----- --<br>----- ----- ---------- --- the ------ ------ ---- -- ------<br>------- --- ------ ----- --- ---- ------- -- ---- --- --<br>------- ------,190915.90000000596,190915.30000001192,190465.408,190477.09999999404,190481.522,190931.472,,37,the
screen,html.Screen,2_1_1_1_38,2022-02-16T09:59:25.872Z,,,,,,,,,,,,,,,,,54,,,,,,,,,,,,,,412.2279999880702,,response,,,,100,,,,,,,Space,keypress(Space),,,,,,,,-- --- ---- --- ------ ----- ------- ---- -- --- ------- --<br>------- ---------- ------ -- ----- -- ----- -- ---- ------<br>--- ----- --- --- ------ -------- ----- --- ------ ----- --<br>----- ----- ---------- --- --- market ------ ---- -- ------<br>------- --- ------ ----- --- ---- ------- -- ---- --- --<br>------- ------,191344.40000000596,191343.69999998808,190915.34,190916.09999999404,190931.472,191347.969,,38,market
screen,html.Screen,2_1_1_1_39,2022-02-16T09:59:26.279Z,,,,,,,,,,,,,,,,,54,,,,,,,,,,,,,,402.63099999402766,,response,,,,100,,,,,,,Space,keypress(Space),,,,,,,,-- --- ---- --- ------ ----- ------- ---- -- --- ------- --<br>------- ---------- ------ -- ----- -- ----- -- ---- ------<br>--- ----- --- --- ------ -------- ----- --- ------ ----- --<br>----- ----- ---------- --- --- ------ became ---- -- ------<br>------- --- ------ ----- --- ---- ------- -- ---- --- --<br>------- ------,191751.40000000596,191750.59999999404,191331.986,191344.5,191347.969,191765.039,,39,became
screen,html.Screen,2_1_1_1_40,2022-02-16T09:59:26.711Z,,,,,,,,,,,,,,,,,54,,,,,,,,,,,,,,418.0609999940498,,response,,,,100,,,,,,,Space,keypress(Space),,,,,,,,-- --- ---- --- ------ ----- ------- ---- -- --- ------- --<br>------- ---------- ------ -- ----- -- ----- -- ---- ------<br>--- ----- --- --- ------ -------- ----- --- ------ ----- --<br>----- ----- ---------- --- --- ------ ------ wary -- ------<br>------- --- ------ ----- --- ---- ------- -- ---- --- --<br>------- ------,192183.80000001192,192183.09999999404,191748.419,191751.69999998808,191765.039,192198.021,,40,wary
screen,html.Screen,2_1_1_1_41,2022-02-16T09:59:27.105Z,,,,,,,,,,,,,,,,,54,,,,,,,,,,,,,,378.37900000595255,,response,,,,100,,,,,,,Space,keypress(Space),,,,,,,,-- --- ---- --- ------ ----- ------- ---- -- --- ------- --<br>------- ---------- ------ -- ----- -- ----- -- ---- ------<br>--- ----- --- --- ------ -------- ----- --- ------ ----- --<br>----- ----- ---------- --- --- ------ ------ ---- of ------<br>------- --- ------ ----- --- ---- ------- -- ---- --- --<br>------- ------,192577.09999999404,192576.40000000596,192181.712,192183.90000000596,192198.021,192581.09,,41,of
screen,html.Screen,2_1_1_1_42,2022-02-16T09:59:27.551Z,,,,,,,,,,,,,,,,,54,,,,,,,,,,,,,,441.60999998808256,,response,,,,100,,,,,,,Space,keypress(Space),,,,,,,,-- --- ---- --- ------ ----- ------- ---- -- --- ------- --<br>------- ---------- ------ -- ----- -- ----- -- ---- ------<br>--- ----- --- --- ------ -------- ----- --- ------ ----- --<br>----- ----- ---------- --- --- ------ ------ ---- -- French<br>------- --- ------ ----- --- ---- ------- -- ---- --- --<br>------- ------,193023.40000000596,193022.69999998808,192564.957,192577.40000000596,192581.09,193031.032,,42,French
screen,html.Screen,2_1_1_1_43,2022-02-16T09:59:27.991Z,,,,,,,,,,,,,,,,,54,,,,,,,,,,,,,,431.7680000119144,,response,,,,100,,,,,,,Space,keypress(Space),,,,,,,,-- --- ---- --- ------ ----- ------- ---- -- --- ------- --<br>------- ---------- ------ -- ----- -- ----- -- ---- ------<br>--- ----- --- --- ------ -------- ----- --- ------ ----- --<br>----- ----- ---------- --- --- ------ ------ ---- -- ------<br>credit. --- ------ ----- --- ---- ------- -- ---- --- --<br>------- ------,193463.40000000596,193462.80000001192,193014.941,193023.5,193031.032,193481.48,,43,credit.
screen,html.Screen,2_1_1_1_44,2022-02-16T09:59:28.374Z,,,,,,,,,,,,,,,,,54,,,,,,,,,,,,,,364.7199999880686,,response,,,,100,,,,,,,Space,keypress(Space),,,,,,,,-- --- ---- --- ------ ----- ------- ---- -- --- ------- --<br>------- ---------- ------ -- ----- -- ----- -- ---- ------<br>--- ----- --- --- ------ -------- ----- --- ------ ----- --<br>----- ----- ---------- --- --- ------ ------ ---- -- ------<br>------- The ------ ----- --- ---- ------- -- ---- --- --<br>------- ------,193847,193846.19999998808,193448.056,193463.59999999404,193481.48,193864.728,,44,The
screen,html.Screen,2_1_1_1_45,2022-02-16T09:59:28.734Z,,,,,,,,,,,,,,,,,54,,,,,,,,,,,,,,341.37199999403674,,response,,,,100,,,,,,,Space,keypress(Space),,,,,,,,-- --- ---- --- ------ ----- ------- ---- -- --- ------- --<br>------- ---------- ------ -- ----- -- ----- -- ---- ------<br>--- ----- --- --- ------ -------- ----- --- ------ ----- --<br>----- ----- ---------- --- --- ------ ------ ---- -- ------<br>------- --- French ----- --- ---- ------- -- ---- --- --<br>------- ------,194206.69999998808,194206.09999999404,193831.309,193847.09999999404,193864.728,194214.089,,45,French
screen,html.Screen,2_1_1_1_46,2022-02-16T09:59:29.125Z,,,,,,,,,,,,,,,,,54,,,,,,,,,,,,,,382.61099998807185,,response,,,,100,,,,,,,Space,keypress(Space),,,,,,,,-- --- ---- --- ------ ----- ------- ---- -- --- ------- --<br>------- ---------- ------ -- ----- -- ----- -- ---- ------<br>--- ----- --- --- ------ -------- ----- --- ------ ----- --<br>----- ----- ---------- --- --- ------ ------ ---- -- ------<br>------- --- ------ state --- ---- ------- -- ---- --- --<br>------- ------,194597.40000000596,194596.69999998808,194197.487,194206.90000000596,194214.089,194614.437,,46,state
screen,html.Screen,2_1_1_1_47,2022-02-16T09:59:29.489Z,,,,,,,,,,,,,,,,,54,,,,,,,,,,,,,,346.3630000119156,,response,,,,100,,,,,,,Space,keypress(Space),,,,,,,,-- --- ---- --- ------ ----- ------- ---- -- --- ------- --<br>------- ---------- ------ -- ----- -- ----- -- ---- ------<br>--- ----- --- --- ------ -------- ----- --- ------ ----- --<br>----- ----- ---------- --- --- ------ ------ ---- -- ------<br>------- --- ------ ----- was ---- ------- -- ---- --- --<br>------- ------,194961.40000000596,194960.80000001192,194597.813,194597.5,194614.437,194963.917,,47,was
screen,html.Screen,2_1_1_1_48,2022-02-16T09:59:29.876Z,,,,,,,,,,,,,,,,,54,,,,,,,,,,,,,,384.1829999940528,,response,,,,100,,,,,,,Space,keypress(Space),,,,,,,,-- --- ---- --- ------ ----- ------- ---- -- --- ------- --<br>------- ---------- ------ -- ----- -- ----- -- ---- ------<br>--- ----- --- --- ------ -------- ----- --- ------ ----- --<br>----- ----- ---------- --- --- ------ ------ ---- -- ------<br>------- --- ------ ----- --- left ------- -- ---- --- --<br>------- ------,195348.80000001192,195348.09999999404,194947.291,194961.59999999404,194963.917,195364.289,,48,left
screen,html.Screen,2_1_1_1_49,2022-02-16T09:59:30.268Z,,,,,,,,,,,,,,,,,54,,,,,,,,,,,,,,375.3109999940498,,response,,,,100,,,,,,,Space,keypress(Space),,,,,,,,-- --- ---- --- ------ ----- ------- ---- -- --- ------- --<br>------- ---------- ------ -- ----- -- ----- -- ---- ------<br>--- ----- --- --- ------ -------- ----- --- ------ ----- --<br>----- ----- ---------- --- --- ------ ------ ---- -- ------<br>------- --- ------ ----- --- ---- without -- ---- --- --<br>------- ------,195740.19999998808,195739.59999999404,195347.651,195349,195364.289,195747.099,,49,without
screen,html.Screen,2_1_1_1_50,2022-02-16T09:59:30.620Z,,,,,,,,,,,,,,,,,54,,,,,,,,,,,,,,344.80100000597304,,response,,,,100,,,,,,,Space,keypress(Space),,,,,,,,-- --- ---- --- ------ ----- ------- ---- -- --- ------- --<br>------- ---------- ------ -- ----- -- ----- -- ---- ------<br>--- ----- --- --- ------ -------- ----- --- ------ ----- --<br>----- ----- ---------- --- --- ------ ------ ---- -- ------<br>------- --- ------ ----- --- ---- ------- an ---- --- --<br>------- ------,196092.59999999404,196091.90000000596,195730.522,195740.40000000596,195747.099,196097.024,,50,an
screen,html.Screen,2_1_1_1_51,2022-02-16T09:59:30.974Z,,,,,,,,,,,,,,,,,54,,,,,,,,,,,,,,348.3760000059556,,response,,,,100,,,,,,,Space,keypress(Space),,,,,,,,-- --- ---- --- ------ ----- ------- ---- -- --- ------- --<br>------- ---------- ------ -- ----- -- ----- -- ---- ------<br>--- ----- --- --- ------ -------- ----- --- ------ ----- --<br>----- ----- ---------- --- --- ------ ------ ---- -- ------<br>------- --- ------ ----- --- ---- ------- -- easy --- --<br>------- ------,196446.09999999404,196445.40000000596,196080.454,196092.69999998808,196097.024,196464.143,,51,easy
screen,html.Screen,2_1_1_1_52,2022-02-16T09:59:31.364Z,,,,,,,,,,,,,,,,,54,,,,,,,,,,,,,,372.2570000059495,,response,,,,100,,,,,,,Space,keypress(Space),,,,,,,,-- --- ---- --- ------ ----- ------- ---- -- --- ------- --<br>------- ---------- ------ -- ----- -- ----- -- ---- ------<br>--- ----- --- --- ------ -------- ----- --- ------ ----- --<br>----- ----- ---------- --- --- ------ ------ ---- -- ------<br>------- --- ------ ----- --- ---- ------- -- ---- way --<br>------- ------,196837.09999999404,196836.40000000596,196430.927,196446.30000001192,196464.143,196847.326,,52,way
screen,html.Screen,2_1_1_1_53,2022-02-16T09:59:31.720Z,,,,,,,,,,,,,,,,,54,,,,,,,,,,,,,,344.57400000595953,,response,,,,100,,,,,,,Space,keypress(Space),,,,,,,,-- --- ---- --- ------ ----- ------- ---- -- --- ------- --<br>------- ---------- ------ -- ----- -- ----- -- ---- ------<br>--- ----- --- --- ------ -------- ----- --- ------ ----- --<br>----- ----- ---------- --- --- ------ ------ ---- -- ------<br>------- --- ------ ----- --- ---- ------- -- ---- --- of<br>------- ------,197192.69999998808,197191.90000000596,196830.84,196837.19999998808,196847.326,197196.821,,53,of
screen,html.Screen,2_1_1_1_54,2022-02-16T09:59:32.116Z,,,,,,,,,,,,,,,,,54,,,,,,,,,,,,,,391.0790000059642,,response,,,,100,,,,,,,Space,keypress(Space),,,,,,,,-- --- ---- --- ------ ----- ------- ---- -- --- ------- --<br>------- ---------- ------ -- ----- -- ----- -- ---- ------<br>--- ----- --- --- ------ -------- ----- --- ------ ----- --<br>----- ----- ---------- --- --- ------ ------ ---- -- ------<br>------- --- ------ ----- --- ---- ------- -- ---- --- --<br>raising ------,197588.5,197587.90000000596,197180.606,197192.80000001192,197196.821,197596.721,,54,raising
screen,html.Screen,2_1_1_1_55,2022-02-16T09:59:32.530Z,,,,,,,,,,,,,,,,,54,,,,,,,,,,,,,,405.27900000000955,,response,,,,100,,,,,,,Space,keypress(Space),,,,,,,,-- --- ---- --- ------ ----- ------- ---- -- --- ------- --<br>------- ---------- ------ -- ----- -- ----- -- ---- ------<br>--- ----- --- --- ------ -------- ----- --- ------ ----- --<br>----- ----- ---------- --- --- ------ ------ ---- -- ------<br>------- --- ------ ----- --- ---- ------- -- ---- --- --<br>------- money.,198002.69999998808,198002,197580.534,197588.69999998808,197596.721,198013.251,,55,money.
Item 100,flow.Loop,2_1_1_1,2022-02-16T09:59:32.530Z,,,,,,,,,,,,,,,,,,,,,,,,,,,,,,,26316.597999999998,,completion,,,,,C,,,,,,,,,,,silence,,,,,198003,198002,171669.335,171670.30000001192,171685.402,198013.251,,,
Question 1,html.Screen,2_1_1_2,2022-02-16T09:59:38.513Z,,,,,,,,,,,,,,,,,,,,,,,,,,,,true,TRUE,,5971.149000005971,,response,,,,100,C,,,,,,TRUE,click #choice-1,,,,silence,,,,,203985.69999998808,203984.40000000596,197996.663,198003.09999999404,198013.251,203995.391,,,
Question 2,html.Screen,2_1_1_3,2022-02-16T09:59:40.923Z,,,,,,,,,,,,,,,,,,,,,,,,,,,,true,FALSE,,2399.4090000119177,,response,,,,100,C,,,,,,FALSE,click #choice-2,,,,silence,,,,,206395.80000001192,206394.80000001192,203979.328,203985.90000000596,203995.391,206412.14,,,
Item 100,flow.Sequence,2_1_1,2022-02-16T09:59:40.923Z,,,,,,,,,,,,,,,,,,,,,,,,,,,,,,,44707.31900001192,,completion,,,,,,,,,,,,,,,,,,,,,206396.09999999404,206394.80000001192,161671.268,161673.80000001192,161687.481,206412.14,,,
End of Practice,html.Page,2_1_2,2022-02-16T09:59:45.128Z,,,,,,,,,,,,,,,,,,,,,,,,,,,,,,,4188.2600000059465,,form submission,,,,,,,,,,,,,,,,,,,,,210600.69999998808,210600.40000000596,206379.031,206396.19999998808,206412.14,210610.684,,,
Practice,flow.Sequence,2_1,2022-02-16T09:59:45.128Z,,,,,,,,,,,,,,,,,,,,,,,,,,,,,,,93303.71700000596,,completion,,,,,,,,,,,,,,,,,,,,,210600.90000000596,210600.40000000596,117280.63,117289,117296.683,210610.684,,,
Trap_instruction,html.Page,2_2_0,2022-02-16T09:59:48.969Z,,,,,,,,,,,,,,,,,,,,,,,,,,,,,,,3830.8159999999916,,form submission,,,,,,,,,,,,,,,,,,,,,214441.80000001192,214441.5,210594.64,210601.09999999404,210610.684,214460.088,,,
trap_trial,html.Screen,2_2_1,2022-02-16T09:59:56.170Z,,,,,,,,,,,,,,,,,,,,,,,,,,,,true,1,,7181.412000000011,,response,,,,,,,,,,,1,click #choice-1,,,,,,,,,221642.5,221641.5,214426.628,214441.90000000596,214460.088,221658.36,,,
end of trap trial,html.Page,2_2_2,2022-02-16T09:59:59.956Z,,,,,,,,,,,,,,,,,,,,,,,,,,,,,,,3770.2399999940535,,form submission,,,,,,,,,,,,,,,,,,,,,225429,225428.59999999404,221641.796,221642.69999998808,221658.36,225441.581,,,
Trap 1,flow.Sequence,2_2,2022-02-16T09:59:59.956Z,,,,,,,,,,,,,,,,,,,,,,,,,,,,,,,14817.915999994031,,completion,,,,,,,,,,,,,,,,,,,,,225429.19999998808,225428.59999999404,210594.64,210601.09999999404,210610.684,225441.581,,,
Standby,html.Page,2_3_0,2022-02-16T10:00:07.952Z,,,,,,,,,,,,,,,,,,,,,,,,,,,,,,,7997.666999999987,,timeout,,,,,,,,,,,,,,,,,,,,,233423.90000000596,233423.2,225424.434,225429.30000001192,225441.581,233439.248,,,
Holding screen,html.Screen,2_3_1_0_0,2022-02-16T10:00:14.950Z,,,,,,,,,,,,,,,,,,,,,,,,,,,,,,,6999.020000000019,,timeout,,,,,,,,,,,,,,,,,,,,,240422.5,240421.755,233423.2,233424.19999998808,233439.248,240438.268,,,
screen,html.Screen,2_3_1_0_1_0,2022-02-16T10:00:16.022Z,,,,,,,,,,,,,,,,,48,,,,,,,,,,,,,,1055.53200001191,,response,,,,10,C,,,,,,Space,keypress(Space),,,,instrumental,,,,As -- --- ------ ------- --------- ----------- --------<br>--------- -------- --- ------- -- ------- ---- -- ------<br>-- --- -------- -------- ---------- ---- ---- ---- ------<br>-- --------- -- ---- -- --- -- --- ------- -- - -----<br>---------- -- -- -- ---- ----- -- ------ -- --- ------<br>-------,241494.59999999404,241493.80000001192,240421.755,240422.69999998808,240438.268,241504.295,,0,As
screen,html.Screen,2_3_1_0_1_1,2022-02-16T10:00:16.399Z,,,,,,,,,,,,,,,,,48,,,,,,,,,,,,,,366.7049999999872,,response,,,,10,C,,,,,,Space,keypress(Space),,,,instrumental,,,,-- in --- ------ ------- --------- ----------- --------<br>--------- -------- --- ------- -- ------- ---- -- ------<br>-- --- -------- -------- ---------- ---- ---- ---- ------<br>-- --------- -- ---- -- --- -- --- ------- -- - -----<br>---------- -- -- -- ---- ----- -- ------ -- --- ------<br>-------,241871.69999998808,241871,241488.287,241494.69999998808,241504.295,241887.542,,1,in
screen,html.Screen,2_3_1_0_1_2,2022-02-16T10:00:16.793Z,,,,,,,,,,,,,,,,,48,,,,,,,,,,,,,,377.0579999940528,,response,,,,10,C,,,,,,Space,keypress(Space),,,,instrumental,,,,-- -- the ------ ------- --------- ----------- --------<br>--------- -------- --- ------- -- ------- ---- -- ------<br>-- --- -------- -------- ---------- ---- ---- ---- ------<br>-- --------- -- ---- -- --- -- --- ------- -- - -----<br>---------- -- -- -- ---- ----- -- ------ -- --- ------<br>-------,242265.40000000596,242264.59999999404,241870.96,241871.80000001192,241887.542,242270.748,,2,the
screen,html.Screen,2_3_1_0_1_3,2022-02-16T10:00:17.126Z,,,,,,,,,,,,,,,,,48,,,,,,,,,,,,,,326.7520000000077,,response,,,,10,C,,,,,,Space,keypress(Space),,,,instrumental,,,,-- -- --- United ------- --------- ----------- --------<br>--------- -------- --- ------- -- ------- ---- -- ------<br>-- --- -------- -------- ---------- ---- ---- ---- ------<br>-- --------- -- ---- -- --- -- --- ------- -- - -----<br>---------- -- -- -- ---- ----- -- ------ -- --- ------<br>-------,242598.30000001192,242597.5,242254.213,242265.40000000596,242270.748,242604.043,,3,United
screen,html.Screen,2_3_1_0_1_4,2022-02-16T10:00:17.472Z,,,,,,,,,,,,,,,,,48,,,,,,,,,,,,,,339.7570000119158,,response,,,,10,C,,,,,,Space,keypress(Space),,,,instrumental,,,,"-- -- --- ------ States, --------- ----------- --------<br>--------- -------- --- ------- -- ------- ---- -- ------<br>-- --- -------- -------- ---------- ---- ---- ---- ------<br>-- --------- -- ---- -- --- -- --- ------- -- - -----<br>---------- -- -- -- ---- ----- -- ------ -- --- ------<br>-------",242944.59999999404,242943.80000001192,242587.484,242598.40000000596,242604.043,242953.932,,4,"States,"
screen,html.Screen,2_3_1_0_1_5,2022-02-16T10:00:17.823Z,,,,,,,,,,,,,,,,,48,,,,,,,,,,,,,,341.16799999403884,,response,,,,10,C,,,,,,Space,keypress(Space),,,,instrumental,,,,-- -- --- ------ ------- Colombian ----------- --------<br>--------- -------- --- ------- -- ------- ---- -- ------<br>-- --- -------- -------- ---------- ---- ---- ---- ------<br>-- --------- -- ---- -- --- -- --- ------- -- - -----<br>---------- -- -- -- ---- ----- -- ------ -- --- ------<br>-------,243295.80000001192,243295.09999999404,242937.335,242944.69999998808,242953.932,243304.352,,5,Colombian
screen,html.Screen,2_3_1_0_1_6,2022-02-16T10:00:18.176Z,,,,,,,,,,,,,,,,,48,,,,,,,,,,,,,,343.1479999999865,,response,,,,10,C,,,,,,Space,keypress(Space),,,,instrumental,,,,-- -- --- ------ ------- --------- legislation --------<br>--------- -------- --- ------- -- ------- ---- -- ------<br>-- --- -------- -------- ---------- ---- ---- ---- ------<br>-- --------- -- ---- -- --- -- --- ------- -- - -----<br>---------- -- -- -- ---- ----- -- ------ -- --- ------<br>-------,243648.19999998808,243647.5,243287.335,243296,243304.352,243653.818,,6,legislation
screen,html.Screen,2_3_1_0_1_7,2022-02-16T10:00:18.590Z,,,,,,,,,,,,,,,,,48,,,,,,,,,,,,,,408.08200000596116,,response,,,,10,C,,,,,,Space,keypress(Space),,,,instrumental,,,,-- -- --- ------ ------- --------- ----------- requires<br>--------- -------- --- ------- -- ------- ---- -- ------<br>-- --- -------- -------- ---------- ---- ---- ---- ------<br>-- --------- -- ---- -- --- -- --- ------- -- - -----<br>---------- -- -- -- ---- ----- -- ------ -- --- ------<br>-------,244062.59999999404,244061.90000000596,243637.316,243648.40000000596,243653.818,244070.428,,7,requires
screen,html.Screen,2_3_1_0_1_8,2022-02-16T10:00:19.221Z,,,,,,,,,,,,,,,,,48,,,,,,,,,,,,,,622.5719999999856,,response,,,,10,C,,,,,,Space,keypress(Space),,,,instrumental,,,,-- -- --- ------ ------- --------- ----------- --------<br>travelers -------- --- ------- -- ------- ---- -- ------<br>-- --- -------- -------- ---------- ---- ---- ---- ------<br>-- --------- -- ---- -- --- -- --- ------- -- - -----<br>---------- -- -- -- ---- ----- -- ------ -- --- ------<br>-------,244693.69999998808,244693,244054.246,244062.69999998808,244070.428,244703.648,,8,travelers
screen,html.Screen,2_3_1_0_1_9,2022-02-16T10:00:19.551Z,,,,,,,,,,,,,,,,,48,,,,,,,,,,,,,,318.8520000000135,,response,,,,10,C,,,,,,Space,keypress(Space),,,,instrumental,,,,-- -- --- ------ ------- --------- ----------- --------<br>--------- entering --- ------- -- ------- ---- -- ------<br>-- --- -------- -------- ---------- ---- ---- ---- ------<br>-- --------- -- ---- -- --- -- --- ------- -- - -----<br>---------- -- -- -- ---- ----- -- ------ -- --- ------<br>-------,245023.30000001192,245022.5,244687.46,244693.90000000596,244703.648,245037.327,,9,entering
screen,html.Screen,2_3_1_0_1_10,2022-02-16T10:00:19.893Z,,,,,,,,,,,,,,,,,48,,,,,,,,,,,,,,327.2729999940493,,response,,,,10,C,,,,,,Space,keypress(Space),,,,instrumental,,,,-- -- --- ------ ------- --------- ----------- --------<br>--------- -------- the ------- -- ------- ---- -- ------<br>-- --- -------- -------- ---------- ---- ---- ---- ------<br>-- --------- -- ---- -- --- -- --- ------- -- - -----<br>---------- -- -- -- ---- ----- -- ------ -- --- ------<br>-------,245365.30000001192,245364.59999999404,245020.302,245023.5,245037.327,245370.153,,10,the
screen,html.Screen,2_3_1_0_1_11,2022-02-16T10:00:20.219Z,,,,,,,,,,,,,,,,,48,,,,,,,,,,,,,,320.2470000059693,,response,,,,10,C,,,,,,Space,keypress(Space),,,,instrumental,,,,-- -- --- ------ ------- --------- ----------- --------<br>--------- -------- --- country -- ------- ---- -- ------<br>-- --- -------- -------- ---------- ---- ---- ---- ------<br>-- --------- -- ---- -- --- -- --- ------- -- - -----<br>---------- -- -- -- ---- ----- -- ------ -- --- ------<br>-------,245691,245690.40000000596,245353.992,245365.5,245370.153,245703.863,,11,country
screen,html.Screen,2_3_1_0_1_12,2022-02-16T10:00:20.542Z,,,,,,,,,,,,,,,,,48,,,,,,,,,,,,,,309.83699998806696,,response,,,,10,C,,,,,,Space,keypress(Space),,,,instrumental,,,,-- -- --- ------ ------- --------- ----------- --------<br>--------- -------- --- ------- to ------- ---- -- ------<br>-- --- -------- -------- ---------- ---- ---- ---- ------<br>-- --------- -- ---- -- --- -- --- ------- -- - -----<br>---------- -- -- -- ---- ----- -- ------ -- --- ------<br>-------,246014.40000000596,246013.69999998808,245687,245691.19999998808,245703.863,246020.017,,12,to
screen,html.Screen,2_3_1_0_1_13,2022-02-16T10:00:20.835Z,,,,,,,,,,,,,,,,,48,,,,,,,,,,,,,,286.98300000000745,,response,,,,10,C,,,,,,Space,keypress(Space),,,,instrumental,,,,-- -- --- ------ ------- --------- ----------- --------<br>--------- -------- --- ------- -- declare ---- -- ------<br>-- --- -------- -------- ---------- ---- ---- ---- ------<br>-- --------- -- ---- -- --- -- --- ------- -- - -----<br>---------- -- -- -- ---- ----- -- ------ -- --- ------<br>-------,246307.69999998808,246307,246003.996,246014.59999999404,246020.017,246320.553,,13,declare
screen,html.Screen,2_3_1_0_1_14,2022-02-16T10:00:21.120Z,,,,,,,,,,,,,,,,,48,,,,,,,,,,,,,,270.94699999998556,,response,,,,10,C,,,,,,Space,keypress(Space),,,,instrumental,,,,-- -- --- ------ ------- --------- ----------- --------<br>--------- -------- --- ------- -- ------- cash -- ------<br>-- --- -------- -------- ---------- ---- ---- ---- ------<br>-- --------- -- ---- -- --- -- --- ------- -- - -----<br>---------- -- -- -- ---- ----- -- ------ -- --- ------<br>-------,246592.19999998808,246591.5,246303.766,246307.90000000596,246320.553,246603.285,,14,cash
screen,html.Screen,2_3_1_0_1_15,2022-02-16T10:00:21.404Z,,,,,,,,,,,,,,,,,48,,,,,,,,,,,,,,272.01500001191744,,response,,,,10,C,,,,,,Space,keypress(Space),,,,instrumental,,,,-- -- --- ------ ------- --------- ----------- --------<br>--------- -------- --- ------- -- ------- ---- in ------<br>-- --- -------- -------- ---------- ---- ---- ---- ------<br>-- --------- -- ---- -- --- -- --- ------- -- - -----<br>---------- -- -- -- ---- ----- -- ------ -- --- ------<br>-------,246875.90000000596,246875.30000001192,246587.029,246592.40000000596,246603.285,246886.937,,15,in
screen,html.Screen,2_3_1_0_1_16,2022-02-16T10:00:21.679Z,,,,,,,,,,,,,,,,,48,,,,,,,,,,,,,,263.3630000119156,,response,,,,10,C,,,,,,Space,keypress(Space),,,,instrumental,,,,-- -- --- ------ ------- --------- ----------- --------<br>--------- -------- --- ------- -- ------- ---- -- excess<br>-- --- -------- -------- ---------- ---- ---- ---- ------<br>-- --------- -- ---- -- --- -- --- ------- -- - -----<br>---------- -- -- -- ---- ----- -- ------ -- --- ------<br>-------,247151,247150.30000001192,246870.737,246876.09999999404,246886.937,247153.16,,16,excess
screen,html.Screen,2_3_1_0_1_17,2022-02-16T10:00:22.069Z,,,,,,,,,,,,,,,,,48,,,,,,,,,,,,,,387.93999999403604,,response,,,,10,C,,,,,,Space,keypress(Space),,,,instrumental,,,,-- -- --- ------ ------- --------- ----------- --------<br>--------- -------- --- ------- -- ------- ---- -- ------<br>of --- -------- -------- ---------- ---- ---- ---- ------<br>-- --------- -- ---- -- --- -- --- ------- -- - -----<br>---------- -- -- -- ---- ----- -- ------ -- --- ------<br>-------,247541.80000001192,247541.09999999404,247136.942,247151.19999998808,247153.16,247553.084,,17,of
screen,html.Screen,2_3_1_0_1_18,2022-02-16T10:00:22.442Z,,,,,,,,,,,,,,,,,48,,,,,,,,,,,,,,360.71600001191837,,response,,,,10,C,,,,,,Space,keypress(Space),,,,instrumental,,,,-- -- --- ------ ------- --------- ----------- --------<br>--------- -------- --- ------- -- ------- ---- -- ------<br>-- ten -------- -------- ---------- ---- ---- ---- ------<br>-- --------- -- ---- -- --- -- --- ------- -- - -----<br>---------- -- -- -- ---- ----- -- ------ -- --- ------<br>-------,247914.69999998808,247913.80000001192,247536.851,247541.90000000596,247553.084,247919.563,,18,ten
screen,html.Screen,2_3_1_0_1_19,2022-02-16T10:00:22.794Z,,,,,,,,,,,,,,,,,48,,,,,,,,,,,,,,345.6369999880844,,response,,,,10,C,,,,,,Space,keypress(Space),,,,instrumental,,,,-- -- --- ------ ------- --------- ----------- --------<br>--------- -------- --- ------- -- ------- ---- -- ------<br>-- --- thousand -------- ---------- ---- ---- ---- ------<br>-- --------- -- ---- -- --- -- --- ------- -- - -----<br>---------- -- -- -- ---- ----- -- ------ -- --- ------<br>-------,248266,248265.19999998808,247903.002,247914.80000001192,247919.563,248269.552,,19,thousand
screen,html.Screen,2_3_1_0_1_20,2022-02-16T10:00:23.147Z,,,,,,,,,,,,,,,,,48,,,,,,,,,,,,,,349.14799998808303,,response,,,,10,C,,,,,,Space,keypress(Space),,,,instrumental,,,,-- -- --- ------ ------- --------- ----------- --------<br>--------- -------- --- ------- -- ------- ---- -- ------<br>-- --- -------- dollars. ---------- ---- ---- ---- ------<br>-- --------- -- ---- -- --- -- --- ------- -- - -----<br>---------- -- -- -- ---- ----- -- ------ -- --- ------<br>-------,248619.40000000596,248618.69999998808,248252.984,248266.09999999404,248269.552,248636.589,,20,dollars.
screen,html.Screen,2_3_1_0_1_21,2022-02-16T10:00:23.562Z,,,,,,,,,,,,,,,,,48,,,,,,,,,,,,,,396.81100000595325,,response,,,,10,C,,,,,,Space,keypress(Space),,,,instrumental,,,,-- -- --- ------ ------- --------- ----------- --------<br>--------- -------- --- ------- -- ------- ---- -- ------<br>-- --- -------- -------- Concealing ---- ---- ---- ------<br>-- --------- -- ---- -- --- -- --- ------- -- - -----<br>---------- -- -- -- ---- ----- -- ------ -- --- ------<br>-------,249034.19999998808,249033.40000000596,248619.581,248619.59999999404,248636.589,249036.012,,21,Concealing
screen,html.Screen,2_3_1_0_1_22,2022-02-16T10:00:23.982Z,,,,,,,,,,,,,,,,,48,,,,,,,,,,,,,,417.3880000059726,,response,,,,10,C,,,,,,Space,keypress(Space),,,,instrumental,,,,-- -- --- ------ ------- --------- ----------- --------<br>--------- -------- --- ------- -- ------- ---- -- ------<br>-- --- -------- -------- ---------- more ---- ---- ------<br>-- --------- -- ---- -- --- -- --- ------- -- - -----<br>---------- -- -- -- ---- ----- -- ------ -- --- ------<br>-------,249454.09999999404,249453.40000000596,249020.031,249034.40000000596,249036.012,249469.567,,22,more
screen,html.Screen,2_3_1_0_1_23,2022-02-16T10:00:24.376Z,,,,,,,,,,,,,,,,,48,,,,,,,,,,,,,,378.13299998806906,,response,,,,10,C,,,,,,Space,keypress(Space),,,,instrumental,,,,-- -- --- ------ ------- --------- ----------- --------<br>--------- -------- --- ------- -- ------- ---- -- ------<br>-- --- -------- -------- ---------- ---- than ---- ------<br>-- --------- -- ---- -- --- -- --- ------- -- - -----<br>---------- -- -- -- ---- ----- -- ------ -- --- ------<br>-------,249848.5,249847.69999998808,249453.13,249454.19999998808,249469.567,249852.563,,23,than
screen,html.Screen,2_3_1_0_1_24,2022-02-16T10:00:24.703Z,,,,,,,,,,,,,,,,,48,,,,,,,,,,,,,,321.8370000059658,,response,,,,10,C,,,,,,Space,keypress(Space),,,,instrumental,,,,-- -- --- ------ ------- --------- ----------- --------<br>--------- -------- --- ------- -- ------- ---- -- ------<br>-- --- -------- -------- ---------- ---- ---- that ------<br>-- --------- -- ---- -- --- -- --- ------- -- - -----<br>---------- -- -- -- ---- ----- -- ------ -- --- ------<br>-------,250175.19999998808,250174.40000000596,249836.132,249848.59999999404,249852.563,250185.832,,24,that
screen,html.Screen,2_3_1_0_1_25,2022-02-16T10:00:25.039Z,,,,,,,,,,,,,,,,,48,,,,,,,,,,,,,,324.76799999404466,,response,,,,10,C,,,,,,Space,keypress(Space),,,,instrumental,,,,-- -- --- ------ ------- --------- ----------- --------<br>--------- -------- --- ------- -- ------- ---- -- ------<br>-- --- -------- -------- ---------- ---- ---- ---- amount<br>-- --------- -- ---- -- --- -- --- ------- -- - -----<br>---------- -- -- -- ---- ----- -- ------ -- --- ------<br>-------,250511.19999998808,250510.59999999404,250169.621,250175.30000001192,250185.832,250519.547,,25,amount
screen,html.Screen,2_3_1_0_1_26,2022-02-16T10:00:25.442Z,,,,,,,,,,,,,,,,,48,,,,,,,,,,,,,,394.05299999404815,,response,,,,10,C,,,,,,Space,keypress(Space),,,,instrumental,,,,-- -- --- ------ ------- --------- ----------- --------<br>--------- -------- --- ------- -- ------- ---- -- ------<br>-- --- -------- -------- ---------- ---- ---- ---- ------<br>to --------- -- ---- -- --- -- --- ------- -- - -----<br>---------- -- -- -- ---- ----- -- ------ -- --- ------<br>-------,250914.30000001192,250913.59999999404,250502.494,250511.40000000596,250519.547,250919.023,,26,to
screen,html.Screen,2_3_1_0_1_27,2022-02-16T10:00:25.771Z,,,,,,,,,,,,,,,,,48,,,,,,,,,,,,,,323.77700001193443,,response,,,,10,C,,,,,,Space,keypress(Space),,,,instrumental,,,,-- -- --- ------ ------- --------- ----------- --------<br>--------- -------- --- ------- -- ------- ---- -- ------<br>-- --- -------- -------- ---------- ---- ---- ---- ------<br>-- transport -- ---- -- --- -- --- ------- -- - -----<br>---------- -- -- -- ---- ----- -- ------ -- --- ------<br>-------,251243.59999999404,251242.80000001192,250902.56,250914.5,250919.023,251252.276,,27,transport
screen,html.Screen,2_3_1_0_1_28,2022-02-16T10:00:26.125Z,,,,,,,,,,,,,,,,,48,,,,,,,,,,,,,,344.52400001190836,,response,,,,10,C,,,,,,Space,keypress(Space),,,,instrumental,,,,-- -- --- ------ ------- --------- ----------- --------<br>--------- -------- --- ------- -- ------- ---- -- ------<br>-- --- -------- -------- ---------- ---- ---- ---- ------<br>-- --------- it ---- -- --- -- --- ------- -- - -----<br>---------- -- -- -- ---- ----- -- ------ -- --- ------<br>-------,251597.5,251596.80000001192,251235.693,251243.69999998808,251252.276,251602.2,,28,it
screen,html.Screen,2_3_1_0_1_29,2022-02-16T10:00:26.421Z,,,,,,,,,,,,,,,,,48,,,,,,,,,,,,,,290.3999999940279,,response,,,,10,C,,,,,,Space,keypress(Space),,,,instrumental,,,,-- -- --- ------ ------- --------- ----------- --------<br>--------- -------- --- ------- -- ------- ---- -- ------<br>-- --- -------- -------- ---------- ---- ---- ---- ------<br>-- --------- -- into -- --- -- --- ------- -- - -----<br>---------- -- -- -- ---- ----- -- ------ -- --- ------<br>-------,251893.30000001192,251892.59999999404,251585.988,251597.59999999404,251602.2,251902.34,,29,into
screen,html.Screen,2_3_1_0_1_30,2022-02-16T10:00:26.763Z,,,,,,,,,,,,,,,,,48,,,,,,,,,,,,,,332.6600000000035,,response,,,,10,C,,,,,,Space,keypress(Space),,,,instrumental,,,,-- -- --- ------ ------- --------- ----------- --------<br>--------- -------- --- ------- -- ------- ---- -- ------<br>-- --- -------- -------- ---------- ---- ---- ---- ------<br>-- --------- -- ---- or --- -- --- ------- -- - -----<br>---------- -- -- -- ---- ----- -- ------ -- --- ------<br>-------,252235.69999998808,252235,251885.485,251893.40000000596,251902.34,252252.5,,30,or
screen,html.Screen,2_3_1_0_1_31,2022-02-16T10:00:27.108Z,,,,,,,,,,,,,,,,,48,,,,,,,,,,,,,,327,,response,,,,10,C,,,,,,Space,keypress(Space),,,,instrumental,,,,-- -- --- ------ ------- --------- ----------- --------<br>--------- -------- --- ------- -- ------- ---- -- ------<br>-- --- -------- -------- ---------- ---- ---- ---- ------<br>-- --------- -- ---- -- out -- --- ------- -- - -----<br>---------- -- -- -- ---- ----- -- ------ -- --- ------<br>-------,252580.19999998808,252579.5,252235.43,252235.80000001192,252252.5,252585.314,,31,out
screen,html.Screen,2_3_1_0_1_32,2022-02-16T10:00:27.435Z,,,,,,,,,,,,,,,,,48,,,,,,,,,,,,,,321.68599999998696,,response,,,,10,C,,,,,,Space,keypress(Space),,,,instrumental,,,,-- -- --- ------ ------- --------- ----------- --------<br>--------- -------- --- ------- -- ------- ---- -- ------<br>-- --- -------- -------- ---------- ---- ---- ---- ------<br>-- --------- -- ---- -- --- of --- ------- -- - -----<br>---------- -- -- -- ---- ----- -- ------ -- --- ------<br>-------,252907.69999998808,252907,252568.745,252580.30000001192,252585.314,252918.594,,32,of
screen,html.Screen,2_3_1_0_1_33,2022-02-16T10:00:27.791Z,,,,,,,,,,,,,,,,,48,,,,,,,,,,,,,,343.8060000059486,,response,,,,10,C,,,,,,Space,keypress(Space),,,,instrumental,,,,-- -- --- ------ ------- --------- ----------- --------<br>--------- -------- --- ------- -- ------- ---- -- ------<br>-- --- -------- -------- ---------- ---- ---- ---- ------<br>-- --------- -- ---- -- --- -- the ------- -- - -----<br>---------- -- -- -- ---- ----- -- ------ -- --- ------<br>-------,253263.09999999404,253262.40000000596,252901.983,252907.90000000596,252918.594,253268.454,,33,the
screen,html.Screen,2_3_1_0_1_34,2022-02-16T10:00:28.178Z,,,,,,,,,,,,,,,,,48,,,,,,,,,,,,,,381.5460000000021,,response,,,,10,C,,,,,,Space,keypress(Space),,,,instrumental,,,,-- -- --- ------ ------- --------- ----------- --------<br>--------- -------- --- ------- -- ------- ---- -- ------<br>-- --- -------- -------- ---------- ---- ---- ---- ------<br>-- --------- -- ---- -- --- -- --- country -- - -----<br>---------- -- -- -- ---- ----- -- ------ -- --- ------<br>-------,253650.69999998808,253650,253252.376,253263.19999998808,253268.454,253673.693,,34,country
screen,html.Screen,2_3_1_0_1_35,2022-02-16T10:00:28.570Z,,,,,,,,,,,,,,,,,48,,,,,,,,,,,,,,368.20700000596116,,response,,,,10,C,,,,,,Space,keypress(Space),,,,instrumental,,,,-- -- --- ------ ------- --------- ----------- --------<br>--------- -------- --- ------- -- ------- ---- -- ------<br>-- --- -------- -------- ---------- ---- ---- ---- ------<br>-- --------- -- ---- -- --- -- --- ------- is - -----<br>---------- -- -- -- ---- ----- -- ------ -- --- ------<br>-------,254042.5,254041.90000000596,253635.202,253650.80000001192,253673.693,254051.686,,35,is
screen,html.Screen,2_3_1_0_1_36,2022-02-16T10:00:28.894Z,,,,,,,,,,,,,,,,,48,,,,,,,,,,,,,,314.11400001193397,,response,,,,10,C,,,,,,Space,keypress(Space),,,,instrumental,,,,-- -- --- ------ ------- --------- ----------- --------<br>--------- -------- --- ------- -- ------- ---- -- ------<br>-- --- -------- -------- ---------- ---- ---- ---- ------<br>-- --------- -- ---- -- --- -- --- ------- -- a -----<br>---------- -- -- -- ---- ----- -- ------ -- --- ------<br>-------,254366.5,254365.80000001192,254035.18,254042.59999999404,254051.686,254368.289,,36,a
screen,html.Screen,2_3_1_0_1_37,2022-02-16T10:00:29.239Z,,,,,,,,,,,,,,,,,48,,,,,,,,,,,,,,342.5110000119312,,response,,,,10,C,,,,,,Space,keypress(Space),,,,instrumental,,,,-- -- --- ------ ------- --------- ----------- --------<br>--------- -------- --- ------- -- ------- ---- -- ------<br>-- --- -------- -------- ---------- ---- ---- ---- ------<br>-- --------- -- ---- -- --- -- --- ------- -- - crime<br>---------- -- -- -- ---- ----- -- ------ -- --- ------<br>-------,254711.40000000596,254710.80000001192,254352.25,254366.69999998808,254368.289,254718.207,,37,crime
screen,html.Screen,2_3_1_0_1_38,2022-02-16T10:00:29.578Z,,,,,,,,,,,,,,,,,48,,,,,,,,,,,,,,331.1930000059656,,response,,,,10,C,,,,,,Space,keypress(Space),,,,instrumental,,,,-- -- --- ------ ------- --------- ----------- --------<br>--------- -------- --- ------- -- ------- ---- -- ------<br>-- --- -------- -------- ---------- ---- ---- ---- ------<br>-- --------- -- ---- -- --- -- --- ------- -- - -----<br>punishable -- -- -- ---- ----- -- ------ -- --- ------<br>-------,255050.09999999404,255049.40000000596,254701.64,254711.59999999404,254718.207,255071.222,,38,punishable
screen,html.Screen,2_3_1_0_1_39,2022-02-16T10:00:29.919Z,,,,,,,,,,,,,,,,,48,,,,,,,,,,,,,,319.9779999880702,,response,,,,10,C,,,,,,Space,keypress(Space),,,,instrumental,,,,-- -- --- ------ ------- --------- ----------- --------<br>--------- -------- --- ------- -- ------- ---- -- ------<br>-- --- -------- -------- ---------- ---- ---- ---- ------<br>-- --------- -- ---- -- --- -- --- ------- -- - -----<br>---------- by -- -- ---- ----- -- ------ -- --- ------<br>-------,255391.90000000596,255391.19999998808,255034.848,255050.19999998808,255071.222,255401.472,,39,by
screen,html.Screen,2_3_1_0_1_40,2022-02-16T10:00:30.292Z,,,,,,,,,,,,,,,,,48,,,,,,,,,,,,,,362.2279999880702,,response,,,,10,C,,,,,,Space,keypress(Space),,,,instrumental,,,,-- -- --- ------ ------- --------- ----------- --------<br>--------- -------- --- ------- -- ------- ---- -- ------<br>-- --- -------- -------- ---------- ---- ---- ---- ------<br>-- --------- -- ---- -- --- -- --- ------- -- - -----<br>---------- -- up -- ---- ----- -- ------ -- --- ------<br>-------,255764.69999998808,255763.69999998808,255384.883,255392,255401.472,255767.978,,40,up
screen,html.Screen,2_3_1_0_1_41,2022-02-16T10:00:30.617Z,,,,,,,,,,,,,,,,,48,,,,,,,,,,,,,,320.82200001191813,,response,,,,10,C,,,,,,Space,keypress(Space),,,,instrumental,,,,-- -- --- ------ ------- --------- ----------- --------<br>--------- -------- --- ------- -- ------- ---- -- ------<br>-- --- -------- -------- ---------- ---- ---- ---- ------<br>-- --------- -- ---- -- --- -- --- ------- -- - -----<br>---------- -- -- to ---- ----- -- ------ -- --- ------<br>-------,256089.5,256088.80000001192,255751.786,255764.80000001192,255767.978,256101.702,,41,to
screen,html.Screen,2_3_1_0_1_42,2022-02-16T10:00:30.958Z,,,,,,,,,,,,,,,,,48,,,,,,,,,,,,,,328.49799998808885,,response,,,,10,C,,,,,,Space,keypress(Space),,,,instrumental,,,,-- -- --- ------ ------- --------- ----------- --------<br>--------- -------- --- ------- -- ------- ---- -- ------<br>-- --- -------- -------- ---------- ---- ---- ---- ------<br>-- --------- -- ---- -- --- -- --- ------- -- - -----<br>---------- -- -- -- five ----- -- ------ -- --- ------<br>-------,256430.90000000596,256430.19999998808,256085.066,256089.59999999404,256101.702,256434.533,,42,five
