sender,sender_type,sender_id,timestamp,meta,,Blues,Classical,Country,Dance,Electronic,Folk,Gospel,Hip-Hop,Jazz,Latin,Musical/Film,New-age,Pop,Prolific_id,Provo_ID,R&B,Rap,Reggae,Religious,Rock,Soul,Swing,Traditional,age,artist_name,correct,correctResponse,distraction,duration,education,ended_on,familiarity,gender,headphone_check_performance,item,list,music_frequency,offensiveness,pleasantness,position_correct,preference,response,response_action,snippet_file,song_name,song_rating,sound,stimulus_1,stimulus_2,stimulus_3,text,time_commit,time_end,time_render,time_run,time_show,time_switch,url,word,word_ID
Prolific ID,html.Form,0,2022-02-03T14:24:41.140Z,"{""labjs_version"":""20.2.2"",""labjs_build"":{""flavor"":""production"",""commit"":""a25486e0c714a0ae2ce03ff94b7bb6896854dcfa""},""location"":""https://run.pavlovia.org/mvasilev/prolific2_music_a/"",""userAgent"":""Mozilla/5.0 (Windows NT 10.0; Win64; x64) AppleWebKit/537.36 (KHTML, like Gecko) Chrome/97.0.4692.99 Safari/537.36"",""platform"":""Win32"",""language"":""en-GB"",""locale"":""en-GB"",""timeZone"":""Europe/London"",""timezoneOffset"":0,""screen_width"":1280,""screen_height"":1024,""scroll_width"":1280,""scroll_height"":833,""window_innerWidth"":1280,""window_innerHeight"":881,""devicePixelRatio"":1}",,,,,,,,,,,,,,,577d1216b425c40001434b2f,,,,,,,,,,,,,,,11553.040999856948,,form submission,,,,,,,,,,,,,,,,,,,,,35253.200000047684,35252.89999985695,23682.986,23683.5,23699.859,35262.599,{},,
Introduction,html.Screen,1_0,2022-02-03T14:24:47.780Z,,,,,,,,,,,,,,,,,,,,,,,,,,,,,,,6629.200999952314,,response,,,,,,,,,,,continue,click button,,,,,,,,,41893.5,41891.799999952316,35246.061,35253.5,35262.599,41893.842,,,
Volume calibration,html.Screen,1_1,2022-02-03T14:25:14.709Z,,,,,,,,,,,,,,,,,,,,,,,,,,,,,,,26926.057999856952,,response,,,,,,,,,,,continue,click button,,,,,,,,,68821.79999995232,68819.89999985695,41877.226,41893.59999990463,41893.842,68835.039,,,
Task instructions,html.Screen,1_2,2022-02-03T14:25:46.051Z,,,,,,,,,,,,,,,,,,,,,,,,,,,,,,,31328.760999952312,,response,,,,,,,,,,,continue,click button,,,,,,,,,100164.20000004768,100163.79999995232,68818.349,68821.89999985695,68835.039,100174.756,,,
Sounds,html.Screen,1_3_0_0,2022-02-03T14:25:50.299Z,,,,,,,,,,,,,,,,,,,,,,,,,,,,,,,4248.636000000013,,timeout,,,,,,,,,3,,,,,,,,O,I,S,,104411.79999995232,104406.718,100158.079,100164.39999985695,100174.756,104423.392,,,
Judgement,html.Screen,1_3_0_1,2022-02-03T14:25:51.379Z,,,,,,,,,,,,,,,,,,,,,,,,,,,,true,3,,1068.4079999523092,,response,,,,,,,,,3,,3,click #choice-3,,,,,O,I,S,,105492.29999995232,105491.79999995232,104406.718,104412.09999990463,104423.392,105506.342,,,
Trial,flow.Sequence,1_3_0,2022-02-03T14:25:51.380Z,,,,,,,,,,,,,,,,,,,,,,,,,,,,,,,5317.043999952322,,completion,,,,,,,,,3,,,,,,,,O,I,S,,105492.5,105491.79999995232,100158.079,100164.39999985695,100174.756,105506.342,,,
Sounds,html.Screen,1_3_1_0,2022-02-03T14:25:55.626Z,,,,,,,,,,,,,,,,,,,,,,,,,,,,,,,4248.625999999989,,timeout,,,,,,,,,3,,,,,,,,I,O,S,,109739.20000004768,109738.309,105489.673,105492.5,105506.342,109754.968,,,
Judgement,html.Screen,1_3_1_1,2022-02-03T14:25:56.307Z,,,,,,,,,,,,,,,,,,,,,,,,,,,,true,3,,664.8319999523228,,response,,,,,,,,,3,,3,click #choice-3,,,,,I,O,S,,110420.29999995232,110419.79999995232,109738.309,109739.39999985695,109754.968,110421.356,,,
Trial,flow.Sequence,1_3_1,2022-02-03T14:25:56.308Z,,,,,,,,,,,,,,,,,,,,,,,,,,,,,,,4913.457999952312,,completion,,,,,,,,,3,,,,,,,,I,O,S,,110420.39999985695,110419.79999995232,105489.673,105492.5,105506.342,110421.356,,,
Sounds,html.Screen,1_3_2_0,2022-02-03T14:26:00.542Z,,,,,,,,,,,,,,,,,,,,,,,,,,,,,,,4248.668999999994,,timeout,,,,,,,,,1,,,,,,,,S,I,O,,114654.59999990463,114653.368,110404.73,110420.5,110421.356,114670.025,,,
Judgement,html.Screen,1_3_2_1,2022-02-03T14:26:01.403Z,,,,,,,,,,,,,,,,,,,,,,,,,,,,true,1,,845.7749999523221,,response,,,,,,,,,1,,1,click #choice-1,,,,,S,I,O,,115516.29999995232,115515.79999995232,114653.368,114654.79999995232,114670.025,115519.714,,,
Trial,flow.Sequence,1_3_2,2022-02-03T14:26:01.404Z,,,,,,,,,,,,,,,,,,,,,,,,,,,,,,,5094.4439999523165,,completion,,,,,,,,,1,,,,,,,,S,I,O,,115516.39999985695,115515.79999995232,110404.73,110420.5,110421.356,115519.714,,,
Sounds,html.Screen,1_3_3_0,2022-02-03T14:26:05.640Z,,,,,,,,,,,,,,,,,,,,,,,,,,,,,,,4248.600999999995,,timeout,,,,,,,,,1,,,,,,,,S,O,I,,119752.70000004768,119751.697,115503.073,115516.5,115519.714,119768.315,,,
Judgement,html.Screen,1_3_3_1,2022-02-03T14:26:06.099Z,,,,,,,,,,,,,,,,,,,,,,,,,,,,true,1,,443.3850000476814,,response,,,,,,,,,1,,1,click #choice-1,,,,,S,O,I,,120212.29999995232,120211.70000004768,119751.697,119752.89999985695,119768.315,120218.18,,,
Trial,flow.Sequence,1_3_3,2022-02-03T14:26:06.099Z,,,,,,,,,,,,,,,,,,,,,,,,,,,,,,,4691.9860000476765,,completion,,,,,,,,,1,,,,,,,,S,O,I,,120212.39999985695,120211.70000004768,115503.073,115516.5,115519.714,120218.18,,,
Sounds,html.Screen,1_3_4_0,2022-02-03T14:26:10.338Z,,,,,,,,,,,,,,,,,,,,,,,,,,,,,,,4248.630000000005,,timeout,,,,,,,,,2,,,,,,,,O,S,I,,124451.29999995232,124450.165,120201.521,120212.5,120218.18,124466.81,,,
Judgement,html.Screen,1_3_4_1,2022-02-03T14:26:10.755Z,,,,,,,,,,,,,,,,,,,,,,,,,,,,true,2,,400.9899999523186,,response,,,,,,,,,2,,2,click #choice-2,,,,,O,S,I,,124868.29999995232,124867.79999995232,124450.165,124451.5,124466.81,124883.281,,,
Trial,flow.Sequence,1_3_4,2022-02-03T14:26:10.755Z,,,,,,,,,,,,,,,,,,,,,,,,,,,,,,,4649.619999952323,,completion,,,,,,,,,2,,,,,,,,O,S,I,,124868.39999985695,124867.79999995232,120201.521,120212.39999985695,120218.18,124883.281,,,
Sounds,html.Screen,1_3_5_0,2022-02-03T14:26:15.003Z,,,,,,,,,,,,,,,,,,,,,,,,,,,,,,,4248.687999999995,,timeout,,,,,,,,,2,,,,,,,,I,S,O,,129116.09999990463,129115.279,124866.645,124868.5,124883.281,129131.969,,,
Judgement,html.Screen,1_3_5_1,2022-02-03T14:26:15.507Z,,,,,,,,,,,,,,,,,,,,,,,,,,,,true,2,,487.83099995231896,,response,,,,,,,,,2,,2,click #choice-2,,,,,I,S,O,,129620.29999995232,129619.79999995232,129115.279,129116.39999985695,129131.969,129631.774,,,
Trial,flow.Sequence,1_3_5,2022-02-03T14:26:15.507Z,,,,,,,,,,,,,,,,,,,,,,,,,,,,,,,4736.518999952314,,completion,,,,,,,,,2,,,,,,,,I,S,O,,129620.39999985695,129619.79999995232,124866.645,124868.5,124883.281,129631.774,,,
Task,flow.Loop,1_3,2022-02-03T14:26:15.510Z,,,,,,,,,,,,,,,,,,,,,,,,,,,,,,,29445.043999952322,,completion,,,1,,,,,,,,,,,,,,,,,,129623.39999985695,129619.79999995232,100158.079,100164.39999985695,100174.756,129631.774,,,
Trap,html.Screen,1_4,2022-02-03T14:26:15.511Z,,,,,,,,,,,,,,,,,,,,,,,,,,,,,,,NaN,,skipped,,,,,,,,,,,,,,,,,,,,,129624.20000004768,129619.79999995232,,129624.09999990463,,129631.774,,,
Thanks,html.Screen,1_5,2022-02-03T14:26:21.707Z,,,,,,,,,,,,,,,,,,,,,,,,,,,,,,,6188.025999952311,,response,,,,,,,,,,,continue,click button,,,,,,,,,135820.20000004768,135819.79999995232,129615.133,129624.29999995232,129631.774,138062.921,,,
Headphone screening,flow.Sequence,1,2022-02-03T14:26:21.707Z,,,,,,,,,,,,,,,,,,,,,,,,,,,,,,,100557.20099995231,,completion,,,,,,,,,,,,,,,,,,,,,135820.39999985695,135819.79999995232,35246.061,35253.5,35262.599,138062.921,,,
Instructions,html.Page,2_0,2022-02-03T14:26:45.052Z,,,,,,,,,,,,,,,,,,,,,,,,,,,,,,,21101.67899990463,,form submission,,,,,,,,,,,,,,,,,,,,,159164.70000004768,159164.59999990463,138045.688,138053,138062.921,159171.97,,,
Holding screen,html.Screen,2_1_0_0,2022-02-03T14:26:55.040Z,,,,,,,,,,,,,,,,,,,,,,,,,,,,,,,9996.812000000005,,timeout,,,,,,,,,,,,,,,,,,,,,169153,169152.151,159155.392,159164.79999995232,159171.97,169168.782,,,
screen,html.Screen,2_1_0_1_0,2022-02-03T14:26:56.521Z,,,,,,,,,,,,,,,,,53,,,,,,,,,,,,,,1460.2179999999935,,response,,,,99,,,,,,,Space,keypress(Space),,,,,,,,When -- ----- -- ------ - ------- --- ----------<br>------------- ------ ------ ---- ---- ------- ----- -- ----<br>-------- ------- -- ---------- --- - --- ----- ----- ----<br>---- --- --- ----- --- ---- ---- ------- ----- ---- -------<br>--- --- -- ----- -- --- ---- -- --- ---- -- ------ ------<br>--- ----- -- ----,170634.09999990463,170629,169152.151,169153.39999985695,169168.782,170634.935,,0,When
screen,html.Screen,2_1_0_1_1,2022-02-03T14:26:57.076Z,,,,,,,,,,,,,,,,,53,,,,,,,,,,,,,,553.4649998569512,,response,,,,99,,,,,,,Space,keypress(Space),,,,,,,,---- it ----- -- ------ - ------- --- ----------<br>------------- ------ ------ ---- ---- ------- ----- -- ----<br>-------- ------- -- ---------- --- - --- ----- ----- ----<br>---- --- --- ----- --- ---- ---- ------- ----- ---- -------<br>--- --- -- ----- -- --- ---- -- --- ---- -- ------ ------<br>--- ----- -- ----,171189.20000004768,171188.39999985695,170618.3,170634.20000004768,170634.935,171201.496,,1,it
screen,html.Screen,2_1_0_1_2,2022-02-03T14:26:57.556Z,,,,,,,,,,,,,,,,,53,,,,,,,,,,,,,,467.00399999998626,,response,,,,99,,,,,,,Space,keypress(Space),,,,,,,,---- -- comes -- ------ - ------- --- ----------<br>------------- ------ ------ ---- ---- ------- ----- -- ----<br>-------- ------- -- ---------- --- - --- ----- ----- ----<br>---- --- --- ----- --- ---- ---- ------- ----- ---- -------<br>--- --- -- ----- -- --- ---- -- --- ---- -- ------ ------<br>--- ----- -- ----,171669.29999995232,171668.5,171184.768,171189.5,171201.496,171684.628,,2,comes
screen,html.Screen,2_1_0_1_3,2022-02-03T14:26:58.020Z,,,,,,,,,,,,,,,,,53,,,,,,,,,,,,,,447.872000000003,,response,,,,99,,,,,,,Space,keypress(Space),,,,,,,,---- -- ----- to ------ - ------- --- ----------<br>------------- ------ ------ ---- ---- ------- ----- -- ----<br>-------- ------- -- ---------- --- - --- ----- ----- ----<br>---- --- --- ----- --- ---- ---- ------- ----- ---- -------<br>--- --- -- ----- -- --- ---- -- --- ---- -- ------ ------<br>--- ----- -- ----,172133.29999995232,172132.5,171667.982,171669.5,171684.628,172154.24,,3,to
screen,html.Screen,2_1_0_1_4,2022-02-03T14:26:58.460Z,,,,,,,,,,,,,,,,,53,,,,,,,,,,,,,,418.15999985695817,,response,,,,99,,,,,,,Space,keypress(Space),,,,,,,,---- -- ----- -- having - ------- --- ----------<br>------------- ------ ------ ---- ---- ------- ----- -- ----<br>-------- ------- -- ---------- --- - --- ----- ----- ----<br>---- --- --- ----- --- ---- ---- ------- ----- ---- -------<br>--- --- -- ----- -- --- ---- -- --- ---- -- ------ ------<br>--- ----- -- ----,172573.20000004768,172572.39999985695,172117.812,172133.5,172154.24,172584.356,,4,having
screen,html.Screen,2_1_0_1_5,2022-02-03T14:26:58.852Z,,,,,,,,,,,,,,,,,53,,,,,,,,,,,,,,380.0439998569491,,response,,,,99,,,,,,,Space,keypress(Space),,,,,,,,---- -- ----- -- ------ a ------- --- ----------<br>------------- ------ ------ ---- ---- ------- ----- -- ----<br>-------- ------- -- ---------- --- - --- ----- ----- ----<br>---- --- --- ----- --- ---- ---- ------- ----- ---- -------<br>--- --- -- ----- -- --- ---- -- --- ---- -- ------ ------<br>--- ----- -- ----,172965.20000004768,172964.39999985695,172567.69,172573.5,172584.356,172967.587,,5,a
screen,html.Screen,2_1_0_1_6,2022-02-03T14:26:59.300Z,,,,,,,,,,,,,,,,,53,,,,,,,,,,,,,,444.91300000000047,,response,,,,99,,,,,,,Space,keypress(Space),,,,,,,,---- -- ----- -- ------ - lasting --- ----------<br>------------- ------ ------ ---- ---- ------- ----- -- ----<br>-------- ------- -- ---------- --- - --- ----- ----- ----<br>---- --- --- ----- --- ---- ---- ------- ----- ---- -------<br>--- --- -- ----- -- --- ---- -- --- ---- -- ------ ------<br>--- ----- -- ----,173413.20000004768,173412.5,172950.898,172965.39999985695,172967.587,173417.376,,6,lasting
screen,html.Screen,2_1_0_1_7,2022-02-03T14:26:59.972Z,,,,,,,,,,,,,,,,,53,,,,,,,,,,,,,,667.1240000000107,,response,,,,99,,,,,,,Space,keypress(Space),,,,,,,,---- -- ----- -- ------ - ------- and ----------<br>------------- ------ ------ ---- ---- ------- ----- -- ----<br>-------- ------- -- ---------- --- - --- ----- ----- ----<br>---- --- --- ----- --- ---- ---- ------- ----- ---- -------<br>--- --- -- ----- -- --- ---- -- --- ---- -- ------ ------<br>--- ----- -- ----,174085.29999995232,174084.5,173400.769,173413.5,173417.376,174100.501,,7,and
screen,html.Screen,2_1_0_1_8,2022-02-03T14:27:00.556Z,,,,,,,,,,,,,,,,,53,,,,,,,,,,,,,,567.9990000000107,,response,,,,99,,,,,,,Space,keypress(Space),,,,,,,,---- -- ----- -- ------ - ------- --- fulfilling<br>------------- ------ ------ ---- ---- ------- ----- -- ----<br>-------- ------- -- ---------- --- - --- ----- ----- ----<br>---- --- --- ----- --- ---- ---- ------- ----- ---- -------<br>--- --- -- ----- -- --- ---- -- --- ---- -- ------ ------<br>--- ----- -- ----,174669.29999995232,174668.5,174083.85,174085.5,174100.501,174683.636,,8,fulfilling
screen,html.Screen,2_1_0_1_9,2022-02-03T14:27:01.188Z,,,,,,,,,,,,,,,,,53,,,,,,,,,,,,,,616.8640000000014,,response,,,,99,,,,,,,Space,keypress(Space),,,,,,,,"---- -- ----- -- ------ - ------- --- ----------<br>relationship, ------ ------ ---- ---- ------- ----- -- ----<br>-------- ------- -- ---------- --- - --- ----- ----- ----<br>---- --- --- ----- --- ---- ---- ------- ----- ---- -------<br>--- --- -- ----- -- --- ---- -- --- ---- -- ------ ------<br>--- ----- -- ----",175301.20000004768,175300.5,174666.901,174669.5,174683.636,175316.801,,9,"relationship,"
screen,html.Screen,2_1_0_1_10,2022-02-03T14:27:01.996Z,,,,,,,,,,,,,,,,,53,,,,,,,,,,,,,,791.6989999999932,,response,,,,99,,,,,,,Space,keypress(Space),,,,,,,,---- -- ----- -- ------ - ------- --- ----------<br>------------- common ------ ---- ---- ------- ----- -- ----<br>-------- ------- -- ---------- --- - --- ----- ----- ----<br>---- --- --- ----- --- ---- ---- ------- ----- ---- -------<br>--- --- -- ----- -- --- ---- -- --- ---- -- ------ ------<br>--- ----- -- ----,176109.29999995232,176108.5,175300.092,175301.5,175316.801,176116.535,,10,common
screen,html.Screen,2_1_0_1_11,2022-02-03T14:27:03.036Z,,,,,,,,,,,,,,,,,53,,,,,,,,,,,,,,1031.9649999999965,,response,,,,99,,,,,,,Space,keypress(Space),,,,,,,,---- -- ----- -- ------ - ------- --- ----------<br>------------- ------ wisdom ---- ---- ------- ----- -- ----<br>-------- ------- -- ---------- --- - --- ----- ----- ----<br>---- --- --- ----- --- ---- ---- ------- ----- ---- -------<br>--- --- -- ----- -- --- ---- -- --- ---- -- ------ ------<br>--- ----- -- ----,177149.5,177148.5,176099.868,176109.5,176116.535,177166.199,,11,wisdom
screen,html.Screen,2_1_0_1_12,2022-02-03T14:27:03.580Z,,,,,,,,,,,,,,,,,53,,,,,,,,,,,,,,526.2009998569556,,response,,,,99,,,,,,,Space,keypress(Space),,,,,,,,---- -- ----- -- ------ - ------- --- ----------<br>------------- ------ ------ says ---- ------- ----- -- ----<br>-------- ------- -- ---------- --- - --- ----- ----- ----<br>---- --- --- ----- --- ---- ---- ------- ----- ---- -------<br>--- --- -- ----- -- --- ---- -- --- ---- -- ------ ------<br>--- ----- -- ----,177693.20000004768,177692.39999985695,177149.51,177149.70000004768,177166.199,177699.368,,12,says
screen,html.Screen,2_1_0_1_13,2022-02-03T14:27:04.044Z,,,,,,,,,,,,,,,,,53,,,,,,,,,,,,,,457.0319998569612,,response,,,,99,,,,,,,Space,keypress(Space),,,,,,,,---- -- ----- -- ------ - ------- --- ----------<br>------------- ------ ------ ---- that ------- ----- -- ----<br>-------- ------- -- ---------- --- - --- ----- ----- ----<br>---- --- --- ----- --- ---- ---- ------- ----- ---- -------<br>--- --- -- ----- -- --- ---- -- --- ---- -- ------ ------<br>--- ----- -- ----,178157.29999995232,178156.39999985695,177682.668,177693.5,177699.368,178165.863,,13,that
screen,html.Screen,2_1_0_1_14,2022-02-03T14:27:04.764Z,,,,,,,,,,,,,,,,,53,,,,,,,,,,,,,,710.5369998569367,,response,,,,99,,,,,,,Space,keypress(Space),,,,,,,,---- -- ----- -- ------ - ------- --- ----------<br>------------- ------ ------ ---- ---- feeling ----- -- ----<br>-------- ------- -- ---------- --- - --- ----- ----- ----<br>---- --- --- ----- --- ---- ---- ------- ----- ---- -------<br>--- --- -- ----- -- --- ---- -- --- ---- -- ------ ------<br>--- ----- -- ----,178877.20000004768,178876.39999985695,178149.207,178157.5,178165.863,178882.274,,14,feeling
screen,html.Screen,2_1_0_1_15,2022-02-03T14:27:05.628Z,,,,,,,,,,,,,,,,,53,,,,,,,,,,,,,,858.2259999999951,,response,,,,99,,,,,,,Space,keypress(Space),,,,,,,,---- -- ----- -- ------ - ------- --- ----------<br>------------- ------ ------ ---- ---- ------- close -- ----<br>-------- ------- -- ---------- --- - --- ----- ----- ----<br>---- --- --- ----- --- ---- ---- ------- ----- ---- -------<br>--- --- -- ----- -- --- ---- -- --- ---- -- ------ ------<br>--- ----- -- ----,179741.29999995232,179740.5,178865.62,178877.39999985695,178882.274,179748.705,,15,close
screen,html.Screen,2_1_0_1_16,2022-02-03T14:27:06.228Z,,,,,,,,,,,,,,,,,53,,,,,,,,,,,,,,591.7950000000128,,response,,,,99,,,,,,,Space,keypress(Space),,,,,,,,---- -- ----- -- ------ - ------- --- ----------<br>------------- ------ ------ ---- ---- ------- ----- to ----<br>-------- ------- -- ---------- --- - --- ----- ----- ----<br>---- --- --- ----- --- ---- ---- ------- ----- ---- -------<br>--- --- -- ----- -- --- ---- -- --- ---- -- ------ ------<br>--- ----- -- ----,180341.29999995232,180340.5,179732.013,179741.59999990463,179748.705,180348.484,,16,to
screen,html.Screen,2_1_0_1_17,2022-02-03T14:27:06.724Z,,,,,,,,,,,,,,,,,53,,,,,,,,,,,,,,488.4159998569521,,response,,,,99,,,,,,,Space,keypress(Space),,,,,,,,---- -- ----- -- ------ - ------- --- ----------<br>------------- ------ ------ ---- ---- ------- ----- -- your<br>-------- ------- -- ---------- --- - --- ----- ----- ----<br>---- --- --- ----- --- ---- ---- ------- ----- ---- -------<br>--- --- -- ----- -- --- ---- -- --- ---- -- ------ ------<br>--- ----- -- ----,180837.70000004768,180836.89999985695,180331.805,180341.5,180348.484,180848.313,,17,your
screen,html.Screen,2_1_0_1_18,2022-02-03T14:27:07.268Z,,,,,,,,,,,,,,,,,53,,,,,,,,,,,,,,532.0869998569542,,response,,,,99,,,,,,,Space,keypress(Space),,,,,,,,---- -- ----- -- ------ - ------- --- ----------<br>------------- ------ ------ ---- ---- ------- ----- -- ----<br>romantic ------- -- ---------- --- - --- ----- ----- ----<br>---- --- --- ----- --- ---- ---- ------- ----- ---- -------<br>--- --- -- ----- -- --- ---- -- --- ---- -- ------ ------<br>--- ----- -- ----,181381.20000004768,181380.39999985695,180831.644,180837.89999985695,180848.313,181398.136,,18,romantic
screen,html.Screen,2_1_0_1_19,2022-02-03T14:27:07.755Z,,,,,,,,,,,,,,,,,53,,,,,,,,,,,,,,469.8640000000014,,response,,,,99,,,,,,,Space,keypress(Space),,,,,,,,---- -- ----- -- ------ - ------- --- ----------<br>------------- ------ ------ ---- ---- ------- ----- -- ----<br>-------- partner -- ---------- --- - --- ----- ----- ----<br>---- --- --- ----- --- ---- ---- ------- ----- ---- -------<br>--- --- -- ----- -- --- ---- -- --- ---- -- ------ ------<br>--- ----- -- ----,181868.29999995232,181868,181381.466,181381.5,181398.136,181881.309,,19,partner
screen,html.Screen,2_1_0_1_20,2022-02-03T14:27:08.219Z,,,,,,,,,,,,,,,,,53,,,,,,,,,,,,,,450.59099985694047,,response,,,,99,,,,,,,Space,keypress(Space),,,,,,,,---- -- ----- -- ------ - ------- --- ----------<br>------------- ------ ------ ---- ---- ------- ----- -- ----<br>-------- ------- is ---------- --- - --- ----- ----- ----<br>---- --- --- ----- --- ---- ---- ------- ----- ---- -------<br>--- --- -- ----- -- --- ---- -- --- ---- -- ------ ------<br>--- ----- -- ----,182332.20000004768,182331.89999985695,181864.636,181868.39999985695,181881.309,182347.794,,20,is
screen,html.Screen,2_1_0_1_21,2022-02-03T14:27:08.980Z,,,,,,,,,,,,,,,,,53,,,,,,,,,,,,,,744.8059999046382,,response,,,,99,,,,,,,Space,keypress(Space),,,,,,,,---- -- ----- -- ------ - ------- --- ----------<br>------------- ------ ------ ---- ---- ------- ----- -- ----<br>-------- ------- -- paramount. --- - --- ----- ----- ----<br>---- --- --- ----- --- ---- ---- ------- ----- ---- -------<br>--- --- -- ----- -- --- ---- -- --- ---- -- ------ ------<br>--- ----- -- ----,183093.29999995232,183092.59999990463,182331.166,182332.29999995232,182347.794,183097.552,,21,paramount.
screen,html.Screen,2_1_0_1_22,2022-02-03T14:27:09.500Z,,,,,,,,,,,,,,,,,53,,,,,,,,,,,,,,514.8479998569528,,response,,,,99,,,,,,,Space,keypress(Space),,,,,,,,---- -- ----- -- ------ - ------- --- ----------<br>------------- ------ ------ ---- ---- ------- ----- -- ----<br>-------- ------- -- ---------- But - --- ----- ----- ----<br>---- --- --- ----- --- ---- ---- ------- ----- ---- -------<br>--- --- -- ----- -- --- ---- -- --- ---- -- ------ ------<br>--- ----- -- ----,183613.20000004768,183612.39999985695,183080.9,183093.59999990463,183097.552,183630.721,,22,But
screen,html.Screen,2_1_0_1_23,2022-02-03T14:27:09.932Z,,,,,,,,,,,,,,,,,53,,,,,,,,,,,,,,413.77900000000955,,response,,,,99,,,,,,,Space,keypress(Space),,,,,,,,---- -- ----- -- ------ - ------- --- ----------<br>------------- ------ ------ ---- ---- ------- ----- -- ----<br>-------- ------- -- ---------- --- a --- ----- ----- ----<br>---- --- --- ----- --- ---- ---- ------- ----- ---- -------<br>--- --- -- ----- -- --- ---- -- --- ---- -- ------ ------<br>--- ----- -- ----,184045.20000004768,184044.5,183614.075,183613.39999985695,183630.721,184047.273,,23,a
screen,html.Screen,2_1_0_1_24,2022-02-03T14:27:10.412Z,,,,,,,,,,,,,,,,,53,,,,,,,,,,,,,,477.12699985696236,,response,,,,99,,,,,,,Space,keypress(Space),,,,,,,,---- -- ----- -- ------ - ------- --- ----------<br>------------- ------ ------ ---- ---- ------- ----- -- ----<br>-------- ------- -- ---------- --- - new ----- ----- ----<br>---- --- --- ----- --- ---- ---- ------- ----- ---- -------<br>--- --- -- ----- -- --- ---- -- --- ---- -- ------ ------<br>--- ----- -- ----,184525.20000004768,184524.39999985695,184030.594,184045.5,184047.273,184530.429,,24,new
screen,html.Screen,2_1_0_1_25,2022-02-03T14:27:11.077Z,,,,,,,,,,,,,,,,,53,,,,,,,,,,,,,,659.27100004768,,response,,,,99,,,,,,,Space,keypress(Space),,,,,,,,---- -- ----- -- ------ - ------- --- ----------<br>------------- ------ ------ ---- ---- ------- ----- -- ----<br>-------- ------- -- ---------- --- - --- study ----- ----<br>---- --- --- ----- --- ---- ---- ------- ----- ---- -------<br>--- --- -- ----- -- --- ---- -- --- ---- -- ------ ------<br>--- ----- -- ----,185190.59999990463,185189.70000004768,184513.781,184525.5,184530.429,185213.529,,25,study
screen,html.Screen,2_1_0_1_26,2022-02-03T14:27:11.531Z,,,,,,,,,,,,,,,,,53,,,,,,,,,,,,,,430.77099995230674,,response,,,,99,,,,,,,Space,keypress(Space),,,,,,,,---- -- ----- -- ------ - ------- --- ----------<br>------------- ------ ------ ---- ---- ------- ----- -- ----<br>-------- ------- -- ---------- --- - --- ----- finds ----<br>---- --- --- ----- --- ---- ---- ------- ----- ---- -------<br>--- --- -- ----- -- --- ---- -- --- ---- -- ------ ------<br>--- ----- -- ----,185645.09999990463,185644.29999995232,185196.9,185190.79999995232,185213.529,185664.659,,26,finds
screen,html.Screen,2_1_0_1_27,2022-02-03T14:27:12.028Z,,,,,,,,,,,,,,,,,53,,,,,,,,,,,,,,475.8409999999858,,response,,,,99,,,,,,,Space,keypress(Space),,,,,,,,---- -- ----- -- ------ - ------- --- ----------<br>------------- ------ ------ ---- ---- ------- ----- -- ----<br>-------- ------- -- ---------- --- - --- ----- ----- that<br>---- --- --- ----- --- ---- ---- ------- ----- ---- -------<br>--- --- -- ----- -- --- ---- -- --- ---- -- ------ ------<br>--- ----- -- ----,186141.29999995232,186140.5,185630.1,185645.5,185664.659,186146.543,,27,that
screen,html.Screen,2_1_0_1_28,2022-02-03T14:27:12.596Z,,,,,,,,,,,,,,,,,53,,,,,,,,,,,,,,561.8569998569437,,response,,,,99,,,,,,,Space,keypress(Space),,,,,,,,---- -- ----- -- ------ - ------- --- ----------<br>------------- ------ ------ ---- ---- ------- ----- -- ----<br>-------- ------- -- ---------- --- - --- ----- ----- ----<br>it's --- --- ----- --- ---- ---- ------- ----- ---- -------<br>--- --- -- ----- -- --- ---- -- --- ---- -- ------ ------<br>--- ----- -- ----,186709.09999990463,186708.39999985695,186129.886,186141.5,186146.543,186713.072,,28,it's
screen,html.Screen,2_1_0_1_29,2022-02-03T14:27:13.084Z,,,,,,,,,,,,,,,,,53,,,,,,,,,,,,,,483.42800000001444,,response,,,,99,,,,,,,Space,keypress(Space),,,,,,,,---- -- ----- -- ------ - ------- --- ----------<br>------------- ------ ------ ---- ---- ------- ----- -- ----<br>-------- ------- -- ---------- --- - --- ----- ----- ----<br>---- not --- ----- --- ---- ---- ------- ----- ---- -------<br>--- --- -- ----- -- --- ---- -- --- ---- -- ------ ------<br>--- ----- -- ----,187197.29999995232,187196.5,186696.397,186709.39999985695,186713.072,187212.908,,29,not
screen,html.Screen,2_1_0_1_30,2022-02-03T14:27:13.579Z,,,,,,,,,,,,,,,,,53,,,,,,,,,,,,,,479.49199985695304,,response,,,,99,,,,,,,Space,keypress(Space),,,,,,,,---- -- ----- -- ------ - ------- --- ----------<br>------------- ------ ------ ---- ---- ------- ----- -- ----<br>-------- ------- -- ---------- --- - --- ----- ----- ----<br>---- --- how ----- --- ---- ---- ------- ----- ---- -------<br>--- --- -- ----- -- --- ---- -- --- ---- -- ------ ------<br>--- ----- -- ----,187693.09999990463,187692.39999985695,187196.233,187197.5,187212.908,187696.034,,30,how
screen,html.Screen,2_1_0_1_31,2022-02-03T14:27:14.092Z,,,,,,,,,,,,,,,,,53,,,,,,,,,,,,,,508.4659999999858,,response,,,,99,,,,,,,Space,keypress(Space),,,,,,,,---- -- ----- -- ------ - ------- --- ----------<br>------------- ------ ------ ---- ---- ------- ----- -- ----<br>-------- ------- -- ---------- --- - --- ----- ----- ----<br>---- --- --- close --- ---- ---- ------- ----- ---- -------<br>--- --- -- ----- -- --- ---- -- --- ---- -- ------ ------<br>--- ----- -- ----,188205.29999995232,188204.5,187679.398,187693.29999995232,187696.034,188212.562,,31,close
screen,html.Screen,2_1_0_1_32,2022-02-03T14:27:14.612Z,,,,,,,,,,,,,,,,,53,,,,,,,,,,,,,,511.8379998569435,,response,,,,99,,,,,,,Space,keypress(Space),,,,,,,,---- -- ----- -- ------ - ------- --- ----------<br>------------- ------ ------ ---- ---- ------- ----- -- ----<br>-------- ------- -- ---------- --- - --- ----- ----- ----<br>---- --- --- ----- you ---- ---- ------- ----- ---- -------<br>--- --- -- ----- -- --- ---- -- --- ---- -- ------ ------<br>--- ----- -- ----,188725.20000004768,188724.39999985695,188195.904,188205.5,188212.562,188729.055,,32,you
screen,html.Screen,2_1_0_1_33,2022-02-03T14:27:15.092Z,,,,,,,,,,,,,,,,,53,,,,,,,,,,,,,,475.445000000007,,response,,,,99,,,,,,,Space,keypress(Space),,,,,,,,---- -- ----- -- ------ - ------- --- ----------<br>------------- ------ ------ ---- ---- ------- ----- -- ----<br>-------- ------- -- ---------- --- - --- ----- ----- ----<br>---- --- --- ----- --- feel ---- ------- ----- ---- -------<br>--- --- -- ----- -- --- ---- -- --- ---- -- ------ ------<br>--- ----- -- ----,189205.29999995232,189204.5,188712.391,188725.39999985695,188729.055,189212.256,,33,feel
screen,html.Screen,2_1_0_1_34,2022-02-03T14:27:15.516Z,,,,,,,,,,,,,,,,,53,,,,,,,,,,,,,,416.24400000000605,,response,,,,99,,,,,,,Space,keypress(Space),,,,,,,,---- -- ----- -- ------ - ------- --- ----------<br>------------- ------ ------ ---- ---- ------- ----- -- ----<br>-------- ------- -- ---------- --- - --- ----- ----- ----<br>---- --- --- ----- --- ---- that ------- ----- ---- -------<br>--- --- -- ----- -- --- ---- -- --- ---- -- ------ ------<br>--- ----- -- ----,189629.29999995232,189628.5,189195.577,189205.39999985695,189212.256,189645.455,,34,that
screen,html.Screen,2_1_0_1_35,2022-02-03T14:27:15.916Z,,,,,,,,,,,,,,,,,53,,,,,,,,,,,,,,383.1449999046454,,response,,,,99,,,,,,,Space,keypress(Space),,,,,,,,---- -- ----- -- ------ - ------- --- ----------<br>------------- ------ ------ ---- ---- ------- ----- -- ----<br>-------- ------- -- ---------- --- - --- ----- ----- ----<br>---- --- --- ----- --- ---- ---- matters ----- ---- -------<br>--- --- -- ----- -- --- ---- -- --- ---- -- ------ ------<br>--- ----- -- ----,190029.39999985695,190028.59999990463,189628.757,189629.5,189645.455,190045.266,,35,matters
screen,html.Screen,2_1_0_1_36,2022-02-03T14:27:16.492Z,,,,,,,,,,,,,,,,,53,,,,,,,,,,,,,,559.1339998569456,,response,,,,99,,,,,,,Space,keypress(Space),,,,,,,,"---- -- ----- -- ------ - ------- --- ----------<br>------------- ------ ------ ---- ---- ------- ----- -- ----<br>-------- ------- -- ---------- --- - --- ----- ----- ----<br>---- --- --- ----- --- ---- ---- ------- most, ---- -------<br>--- --- -- ----- -- --- ---- -- --- ---- -- ------ ------<br>--- ----- -- ----",190605.09999990463,190604.39999985695,190028.644,190029.70000004768,190045.266,190611.779,,36,"most,"
screen,html.Screen,2_1_0_1_37,2022-02-03T14:27:16.995Z,,,,,,,,,,,,,,,,,53,,,,,,,,,,,,,,496.320999904623,,response,,,,99,,,,,,,Space,keypress(Space),,,,,,,,---- -- ----- -- ------ - ------- --- ----------<br>------------- ------ ------ ---- ---- ------- ----- -- ----<br>-------- ------- -- ---------- --- - --- ----- ----- ----<br>---- --- --- ----- --- ---- ---- ------- ----- it's -------<br>--- --- -- ----- -- --- ---- -- --- ---- -- ------ ------<br>--- ----- -- ----,191108.39999985695,191108.09999990463,190594.995,190605.39999985695,190611.779,191111.608,,37,it's
screen,html.Screen,2_1_0_1_38,2022-02-03T14:27:17.572Z,,,,,,,,,,,,,,,,,53,,,,,,,,,,,,,,572.8919999999925,,response,,,,99,,,,,,,Space,keypress(Space),,,,,,,,---- -- ----- -- ------ - ------- --- ----------<br>------------- ------ ------ ---- ---- ------- ----- -- ----<br>-------- ------- -- ---------- --- - --- ----- ----- ----<br>---- --- --- ----- --- ---- ---- ------- ----- ---- whether<br>--- --- -- ----- -- --- ---- -- --- ---- -- ------ ------<br>--- ----- -- ----,191685.29999995232,191684.5,191094.975,191108.39999985695,191111.608,191694.762,,38,whether
screen,html.Screen,2_1_0_1_39,2022-02-03T14:27:18.124Z,,,,,,,,,,,,,,,,,53,,,,,,,,,,,,,,541.8379999046447,,response,,,,99,,,,,,,Space,keypress(Space),,,,,,,,---- -- ----- -- ------ - ------- --- ----------<br>------------- ------ ------ ---- ---- ------- ----- -- ----<br>-------- ------- -- ---------- --- - --- ----- ----- ----<br>---- --- --- ----- --- ---- ---- ------- ----- ---- -------<br>you --- -- ----- -- --- ---- -- --- ---- -- ------ ------<br>--- ----- -- ----,192237.29999995232,192236.59999990463,191678.079,191685.59999990463,191694.762,192244.558,,39,you
screen,html.Screen,2_1_0_1_40,2022-02-03T14:27:18.708Z,,,,,,,,,,,,,,,,,53,,,,,,,,,,,,,,575.8419998569589,,response,,,,99,,,,,,,Space,keypress(Space),,,,,,,,---- -- ----- -- ------ - ------- --- ----------<br>------------- ------ ------ ---- ---- ------- ----- -- ----<br>-------- ------- -- ---------- --- - --- ----- ----- ----<br>---- --- --- ----- --- ---- ---- ------- ----- ---- -------<br>--- are -- ----- -- --- ---- -- --- ---- -- ------ ------<br>--- ----- -- ----,192821.09999990463,192820.39999985695,192227.903,192237.5,192244.558,192827.67,,40,are
screen,html.Screen,2_1_0_1_41,2022-02-03T14:27:19.164Z,,,,,,,,,,,,,,,,,53,,,,,,,,,,,,,,448.92999990461976,,response,,,,99,,,,,,,Space,keypress(Space),,,,,,,,---- -- ----- -- ------ - ------- --- ----------<br>------------- ------ ------ ---- ---- ------- ----- -- ----<br>-------- ------- -- ---------- --- - --- ----- ----- ----<br>---- --- --- ----- --- ---- ---- ------- ----- ---- -------<br>--- --- as ----- -- --- ---- -- --- ---- -- ------ ------<br>--- ----- -- ----,193277.39999985695,193276.59999990463,192811.048,192821.39999985695,192827.67,193294.232,,41,as
screen,html.Screen,2_1_0_1_42,2022-02-03T14:27:19.780Z,,,,,,,,,,,,,,,,,53,,,,,,,,,,,,,,598.1679998569598,,response,,,,99,,,,,,,Space,keypress(Space),,,,,,,,---- -- ----- -- ------ - ------- --- ----------<br>------------- ------ ------ ---- ---- ------- ----- -- ----<br>-------- ------- -- ---------- --- - --- ----- ----- ----<br>---- --- --- ----- --- ---- ---- ------- ----- ---- -------<br>--- --- -- close -- --- ---- -- --- ---- -- ------ ------<br>--- ----- -- ----,193893.20000004768,193892.39999985695,193277.539,193277.59999990463,193294.232,193927.352,,42,close
screen,html.Screen,2_1_0_1_43,2022-02-03T14:27:20.316Z,,,,,,,,,,,,,,,,,53,,,,,,,,,,,,,,501.1479999999865,,response,,,,99,,,,,,,Space,keypress(Space),,,,,,,,---- -- ----- -- ------ - ------- --- ----------<br>------------- ------ ------ ---- ---- ------- ----- -- ----<br>-------- ------- -- ---------- --- - --- ----- ----- ----<br>---- --- --- ----- --- ---- ---- ------- ----- ---- -------<br>--- --- -- ----- as --- ---- -- --- ---- -- ------ ------<br>--- ----- -- ----,194429.29999995232,194428.5,193910.718,193893.29999995232,193927.352,194443.853,,43,as
screen,html.Screen,2_1_0_1_44,2022-02-03T14:27:20.788Z,,,,,,,,,,,,,,,,,53,,,,,,,,,,,,,,456.54699985694606,,response,,,,99,,,,,,,Space,keypress(Space),,,,,,,,---- -- ----- -- ------ - ------- --- ----------<br>------------- ------ ------ ---- ---- ------- ----- -- ----<br>-------- ------- -- ---------- --- - --- ----- ----- ----<br>---- --- --- ----- --- ---- ---- ------- ----- ---- -------<br>--- --- -- ----- -- you ---- -- --- ---- -- ------ ------<br>--- ----- -- ----,194901.20000004768,194900.39999985695,194427.181,194429.5,194443.853,194910.37,,44,you
screen,html.Screen,2_1_0_1_45,2022-02-03T14:27:21.276Z,,,,,,,,,,,,,,,,,53,,,,,,,,,,,,,,478.13000000000466,,response,,,,99,,,,,,,Space,keypress(Space),,,,,,,,---- -- ----- -- ------ - ------- --- ----------<br>------------- ------ ------ ---- ---- ------- ----- -- ----<br>-------- ------- -- ---------- --- - --- ----- ----- ----<br>---- --- --- ----- --- ---- ---- ------- ----- ---- -------<br>--- --- -- ----- -- --- want -- --- ---- -- ------ ------<br>--- ----- -- ----,195389.20000004768,195388.5,194893.696,194901.29999995232,194910.37,195393.538,,45,want
screen,html.Screen,2_1_0_1_46,2022-02-03T14:27:21.748Z,,,,,,,,,,,,,,,,,53,,,,,,,,,,,,,,466.8619998569484,,response,,,,99,,,,,,,Space,keypress(Space),,,,,,,,---- -- ----- -- ------ - ------- --- ----------<br>------------- ------ ------ ---- ---- ------- ----- -- ----<br>-------- ------- -- ---------- --- - --- ----- ----- ----<br>---- --- --- ----- --- ---- ---- ------- ----- ---- -------<br>--- --- -- ----- -- --- ---- to --- ---- -- ------ ------<br>--- ----- -- ----,195861.09999990463,195860.39999985695,195376.87,195389.5,195393.538,195876.686,,46,to
screen,html.Screen,2_1_0_1_47,2022-02-03T14:27:22.364Z,,,,,,,,,,,,,,,,,53,,,,,,,,,,,,,,599.814000000013,,response,,,,99,,,,,,,Space,keypress(Space),,,,,,,,"---- -- ----- -- ------ - ------- --- ----------<br>------------- ------ ------ ---- ---- ------- ----- -- ----<br>-------- ------- -- ---------- --- - --- ----- ----- ----<br>---- --- --- ----- --- ---- ---- ------- ----- ---- -------<br>--- --- -- ----- -- --- ---- -- be, ---- -- ------ ------<br>--- ----- -- ----",196477.39999985695,196476.5,195860.058,195861.39999985695,195876.686,196493.185,,47,"be,"
screen,html.Screen,2_1_0_1_48,2022-02-03T14:27:22.812Z,,,,,,,,,,,,,,,,,53,,,,,,,,,,,,,,431.1149999523186,,response,,,,99,,,,,,,Space,keypress(Space),,,,,,,,---- -- ----- -- ------ - ------- --- ----------<br>------------- ------ ------ ---- ---- ------- ----- -- ----<br>-------- ------- -- ---------- --- - --- ----- ----- ----<br>---- --- --- ----- --- ---- ---- ------- ----- ---- -------<br>--- --- -- ----- -- --- ---- -- --- even -- ------ ------<br>--- ----- -- ----,196925.20000004768,196924.29999995232,196476.508,196477.59999990463,196493.185,196955.893,,48,even
screen,html.Screen,2_1_0_1_49,2022-02-03T14:27:23.316Z,,,,,,,,,,,,,,,,,53,,,,,,,,,,,,,,472.60699999998906,,response,,,,99,,,,,,,Space,keypress(Space),,,,,,,,---- -- ----- -- ------ - ------- --- ----------<br>------------- ------ ------ ---- ---- ------- ----- -- ----<br>-------- ------- -- ---------- --- - --- ----- ----- ----<br>---- --- --- ----- --- ---- ---- ------- ----- ---- -------<br>--- --- -- ----- -- --- ---- -- --- ---- if ------ ------<br>--- ----- -- ----,197429.29999995232,197428.5,196909.725,196925.39999985695,196955.893,197442.881,,49,if
screen,html.Screen,2_1_0_1_50,2022-02-03T14:27:23.876Z,,,,,,,,,,,,,,,,,53,,,,,,,,,,,,,,545.5189998569549,,response,,,,99,,,,,,,Space,keypress(Space),,,,,,,,---- -- ----- -- ------ - ------- --- ----------<br>------------- ------ ------ ---- ---- ------- ----- -- ----<br>-------- ------- -- ---------- --- - --- ----- ----- ----<br>---- --- --- ----- --- ---- ---- ------- ----- ---- -------<br>--- --- -- ----- -- --- ---- -- --- ---- -- that's ------<br>--- ----- -- ----,197989.29999995232,197988.39999985695,197426.214,197429.5,197442.881,197992.678,,50,that's
screen,html.Screen,2_1_0_1_51,2022-02-03T14:27:24.476Z,,,,,,,,,,,,,,,,,53,,,,,,,,,,,,,,595.8219999999856,,response,,,,99,,,,,,,Space,keypress(Space),,,,,,,,---- -- ----- -- ------ - ------- --- ----------<br>------------- ------ ------ ---- ---- ------- ----- -- ----<br>-------- ------- -- ---------- --- - --- ----- ----- ----<br>---- --- --- ----- --- ---- ---- ------- ----- ---- -------<br>--- --- -- ----- -- --- ---- -- --- ---- -- ------ really<br>--- ----- -- ----,198589.29999995232,198588.5,197976.018,197989.39999985695,197992.678,198592.481,,51,really
screen,html.Screen,2_1_0_1_52,2022-02-03T14:27:24.980Z,,,,,,,,,,,,,,,,,53,,,,,,,,,,,,,,499.9189998569491,,response,,,,99,,,,,,,Space,keypress(Space),,,,,,,,---- -- ----- -- ------ - ------- --- ----------<br>------------- ------ ------ ---- ---- ------- ----- -- ----<br>-------- ------- -- ---------- --- - --- ----- ----- ----<br>---- --- --- ----- --- ---- ---- ------- ----- ---- -------<br>--- --- -- ----- -- --- ---- -- --- ---- -- ------ ------<br>not ----- -- ----,199093.20000004768,199092.39999985695,198575.805,198589.5,198592.481,199109.016,,52,not
screen,html.Screen,2_1_0_1_53,2022-02-03T14:27:25.492Z,,,,,,,,,,,,,,,,,53,,,,,,,,,,,,,,495.3839998569456,,response,,,,99,,,,,,,Space,keypress(Space),,,,,,,,---- -- ----- -- ------ - ------- --- ----------<br>------------- ------ ------ ---- ---- ------- ----- -- ----<br>-------- ------- -- ---------- --- - --- ----- ----- ----<br>---- --- --- ----- --- ---- ---- ------- ----- ---- -------<br>--- --- -- ----- -- --- ---- -- --- ---- -- ------ ------<br>--- close -- ----,199605.20000004768,199604.39999985695,199092.383,199093.39999985695,199109.016,199608.788,,53,close
screen,html.Screen,2_1_0_1_54,2022-02-03T14:27:26.092Z,,,,,,,,,,,,,,,,,53,,,,,,,,,,,,,,595.8119999046321,,response,,,,99,,,,,,,Space,keypress(Space),,,,,,,,---- -- ----- -- ------ - ------- --- ----------<br>------------- ------ ------ ---- ---- ------- ----- -- ----<br>-------- ------- -- ---------- --- - --- ----- ----- ----<br>---- --- --- ----- --- ---- ---- ------- ----- ---- -------<br>--- --- -- ----- -- --- ---- -- --- ---- -- ------ ------<br>--- ----- at ----,200205.39999985695,200204.59999990463,199592.17,199605.5,199608.788,200208.605,,54,at
screen,html.Screen,2_1_0_1_55,2022-02-03T14:27:29.524Z,,,,,,,,,,,,,,,,,53,,,,,,,,,,,,,,3428.2949998569384,,response,,,,99,,,,,,,Space,keypress(Space),,,,,,,,---- -- ----- -- ------ - ------- --- ----------<br>------------- ------ ------ ---- ---- ------- ----- -- ----<br>-------- ------- -- ---------- --- - --- ----- ----- ----<br>---- --- --- ----- --- ---- ---- ------- ----- ---- -------<br>--- --- -- ----- -- --- ---- -- --- ---- -- ------ ------<br>--- ----- -- all.,203637.79999995232,203636.89999985695,200191.974,200205.5,200208.605,203640.837,,55,all.
Item 99,flow.Loop,2_1_0_1,2022-02-03T14:27:29.525Z,,,,,,,,,,,,,,,,,,,,,,,,,,,,,,,34468.11799985694,,completion,,,,,A,,,,,,,,,,,silence,,,,,203638.20000004768,203636.89999985695,169152.151,169153.29999995232,169168.782,203640.837,,,
Question 1,html.Screen,2_1_0_2,2022-02-03T14:27:36.027Z,,,,,,,,,,,,,,,,,,,,,,,,,,,,true,FALSE,,6498.962999952317,,response,,,,99,A,,,,,,FALSE,click #choice-2,,,,silence,,,,,210140.29999995232,210139.79999995232,203624.163,203638.39999985695,203640.837,210155.344,,,
Question 2,html.Screen,2_1_0_3,2022-02-03T14:27:47.715Z,,,,,,,,,,,,,,,,,,,,,,,,,,,,false,TRUE,,11672.455999952304,,response,,,,99,A,,,,,,FALSE,click #choice-2,,,,silence,,,,,221828.20000004768,221827.79999995232,210138.678,210140.29999995232,210155.344,221834.784,,,
Item 99,flow.Sequence,2_1_0,2022-02-03T14:27:47.715Z,,,,,,,,,,,,,,,,,,,,,,,,,,,,,,,62655.829999952315,,completion,,,,,,,,,,,,,,,,,,,,,221828.29999995232,221827.79999995232,159155.392,159164.79999995232,159171.97,221834.784,,,
Holding screen,html.Screen,2_1_1_0,2022-02-03T14:27:57.702Z,,,,,,,,,,,,,,,,,,,,,,,,,,,,,,,9996.820999999996,,timeout,,,,,,,,,,,,,,,,,,,,,231815.70000004768,231814.925,221818.207,221828.39999985695,221834.784,231831.605,,,
screen,html.Screen,2_1_1_1_0,2022-02-03T14:27:58.588Z,,,,,,,,,,,,,,,,,54,,,,,,,,,,,,,,869.2949998569384,,response,,,,100,,,,,,,Space,keypress(Space),,,,,,,,At --- ---- --- ------ ----- ------- ---- -- --- ------- --<br>------- ---------- ------ -- ----- -- ----- -- ---- ------<br>--- ----- --- --- ------ -------- ----- --- ------ ----- --<br>----- ----- ---------- --- --- ------ ------ ---- -- ------<br>------- --- ------ ----- --- ---- ------- -- ---- --- --<br>------- ------,232701.59999990463,232700.89999985695,231814.925,231816,231831.605,232714.597,,0,At
screen,html.Screen,2_1_1_1_1,2022-02-03T14:27:58.932Z,,,,,,,,,,,,,,,,,54,,,,,,,,,,,,,,329.90299999999115,,response,,,,100,,,,,,,Space,keypress(Space),,,,,,,,-- the ---- --- ------ ----- ------- ---- -- --- ------- --<br>------- ---------- ------ -- ----- -- ----- -- ---- ------<br>--- ----- --- --- ------ -------- ----- --- ------ ----- --<br>----- ----- ---------- --- --- ------ ------ ---- -- ------<br>------- --- ------ ----- --- ---- ------- -- ---- --- --<br>------- ------,233045.20000004768,233044.5,232697.956,232701.79999995232,232714.597,233047.864,,1,the
screen,html.Screen,2_1_1_1_2,2022-02-03T14:27:59.236Z,,,,,,,,,,,,,,,,,54,,,,,,,,,,,,,,300.6359999999986,,response,,,,100,,,,,,,Space,keypress(Space),,,,,,,,-- --- time --- ------ ----- ------- ---- -- --- ------- --<br>------- ---------- ------ -- ----- -- ----- -- ---- ------<br>--- ----- --- --- ------ -------- ----- --- ------ ----- --<br>----- ----- ---------- --- --- ------ ------ ---- -- ------<br>------- --- ------ ----- --- ---- ------- -- ---- --- --<br>------- ------,233349.20000004768,233348.5,233031.192,233045.39999985695,233047.864,233364.439,,2,time
screen,html.Screen,2_1_1_1_3,2022-02-03T14:27:59.612Z,,,,,,,,,,,,,,,,,54,,,,,,,,,,,,,,359.9609998569358,,response,,,,100,,,,,,,Space,keypress(Space),,,,,,,,-- --- ---- the ------ ----- ------- ---- -- --- ------- --<br>------- ---------- ------ -- ----- -- ----- -- ---- ------<br>--- ----- --- --- ------ -------- ----- --- ------ ----- --<br>----- ----- ---------- --- --- ------ ------ ---- -- ------<br>------- --- ------ ----- --- ---- ------- -- ---- --- --<br>------- ------,233725.20000004768,233724.39999985695,233347.794,233349.39999985695,233364.439,233730.989,,3,the
screen,html.Screen,2_1_1_1_4,2022-02-03T14:28:00.124Z,,,,,,,,,,,,,,,,,54,,,,,,,,,,,,,,505.5109999999986,,response,,,,100,,,,,,,Space,keypress(Space),,,,,,,,-- --- ---- --- French ----- ------- ---- -- --- ------- --<br>------- ---------- ------ -- ----- -- ----- -- ---- ------<br>--- ----- --- --- ------ -------- ----- --- ------ ----- --<br>----- ----- ---------- --- --- ------ ------ ---- -- ------<br>------- --- ------ ----- --- ---- ------- -- ---- --- --<br>------- ------,234237.20000004768,234236.5,233714.301,233725.39999985695,233730.989,234247.464,,4,French
screen,html.Screen,2_1_1_1_5,2022-02-03T14:28:00.588Z,,,,,,,,,,,,,,,,,54,,,,,,,,,,,,,,453.0359999999928,,response,,,,100,,,,,,,Space,keypress(Space),,,,,,,,-- --- ---- --- ------ crown ------- ---- -- --- ------- --<br>------- ---------- ------ -- ----- -- ----- -- ---- ------<br>--- ----- --- --- ------ -------- ----- --- ------ ----- --<br>----- ----- ---------- --- --- ------ ------ ---- -- ------<br>------- --- ------ ----- --- ---- ------- -- ---- --- --<br>------- ------,234701.29999995232,234700.5,234230.831,234237.5,234247.464,234713.977,,5,crown
screen,html.Screen,2_1_1_1_6,2022-02-03T14:28:01.268Z,,,,,,,,,,,,,,,,,54,,,,,,,,,,,,,,666.4229998569353,,response,,,,100,,,,,,,Space,keypress(Space),,,,,,,,-- --- ---- --- ------ ----- secured ---- -- --- ------- --<br>------- ---------- ------ -- ----- -- ----- -- ---- ------<br>--- ----- --- --- ------ -------- ----- --- ------ ----- --<br>----- ----- ---------- --- --- ------ ------ ---- -- ------<br>------- --- ------ ----- --- ---- ------- -- ---- --- --<br>------- ------,235381.20000004768,235380.39999985695,234697.311,234701.39999985695,234713.977,235397.091,,6,secured
screen,html.Screen,2_1_1_1_7,2022-02-03T14:28:01.812Z,,,,,,,,,,,,,,,,,54,,,,,,,,,,,,,,527.308999856963,,response,,,,100,,,,,,,Space,keypress(Space),,,,,,,,-- --- ---- --- ------ ----- ------- much -- --- ------- --<br>------- ---------- ------ -- ----- -- ----- -- ---- ------<br>--- ----- --- --- ------ -------- ----- --- ------ ----- --<br>----- ----- ---------- --- --- ------ ------ ---- -- ------<br>------- --- ------ ----- --- ---- ------- -- ---- --- --<br>------- ------,235925.20000004768,235924.39999985695,235380.412,235381.39999985695,235397.091,235930.194,,7,much
screen,html.Screen,2_1_1_1_8,2022-02-03T14:28:02.283Z,,,,,,,,,,,,,,,,,54,,,,,,,,,,,,,,466.20599985696026,,response,,,,100,,,,,,,Space,keypress(Space),,,,,,,,-- --- ---- --- ------ ----- ------- ---- of --- ------- --<br>------- ---------- ------ -- ----- -- ----- -- ---- ------<br>--- ----- --- --- ------ -------- ----- --- ------ ----- --<br>----- ----- ---------- --- --- ------ ------ ---- -- ------<br>------- --- ------ ----- --- ---- ------- -- ---- --- --<br>------- ------,236397.09999990463,236396.39999985695,235913.597,235925.5,235930.194,236413.422,,8,of
screen,html.Screen,2_1_1_1_9,2022-02-03T14:28:02.596Z,,,,,,,,,,,,,,,,,54,,,,,,,,,,,,,,294.97799985695747,,response,,,,100,,,,,,,Space,keypress(Space),,,,,,,,-- --- ---- --- ------ ----- ------- ---- -- its ------- --<br>------- ---------- ------ -- ----- -- ----- -- ---- ------<br>--- ----- --- --- ------ -------- ----- --- ------ ----- --<br>----- ----- ---------- --- --- ------ ------ ---- -- ------<br>------- --- ------ ----- --- ---- ------- -- ---- --- --<br>------- ------,236709.20000004768,236708.39999985695,236396.721,236397.29999995232,236413.422,236713.318,,9,its
screen,html.Screen,2_1_1_1_10,2022-02-03T14:28:02.988Z,,,,,,,,,,,,,,,,,54,,,,,,,,,,,,,,387.3820000476844,,response,,,,100,,,,,,,Space,keypress(Space),,,,,,,,-- --- ---- --- ------ ----- ------- ---- -- --- revenue --<br>------- ---------- ------ -- ----- -- ----- -- ---- ------<br>--- ----- --- --- ------ -------- ----- --- ------ ----- --<br>----- ----- ---------- --- --- ------ ------ ---- -- ------<br>------- --- ------ ----- --- ---- ------- -- ---- --- --<br>------- ------,237101.70000004768,237100.70000004768,236696.655,236709.39999985695,236713.318,237113.187,,10,revenue
screen,html.Screen,2_1_1_1_11,2022-02-03T14:28:03.566Z,,,,,,,,,,,,,,,,,54,,,,,,,,,,,,,,563.4129999046272,,response,,,,100,,,,,,,Space,keypress(Space),,,,,,,,-- --- ---- --- ------ ----- ------- ---- -- --- ------- by<br>------- ---------- ------ -- ----- -- ----- -- ---- ------<br>--- ----- --- --- ------ -------- ----- --- ------ ----- --<br>----- ----- ---------- --- --- ------ ------ ---- -- ------<br>------- --- ------ ----- --- ---- ------- -- ---- --- --<br>------- ------,237679.39999985695,237676.59999990463,237096.532,237101.79999995232,237113.187,237696.31,,11,by
screen,html.Screen,2_1_1_1_12,2022-02-03T14:28:04.036Z,,,,,,,,,,,,,,,,,54,,,,,,,,,,,,,,452.0899998569512,,response,,,,100,,,,,,,Space,keypress(Space),,,,,,,,-- --- ---- --- ------ ----- ------- ---- -- --- ------- --<br>issuing ---------- ------ -- ----- -- ----- -- ---- ------<br>--- ----- --- --- ------ -------- ----- --- ------ ----- --<br>----- ----- ---------- --- --- ------ ------ ---- -- ------<br>------- --- ------ ----- --- ---- ------- -- ---- --- --<br>------- ------,238149.09999990463,238148.39999985695,237679.657,237679.59999990463,237696.31,238162.847,,12,issuing
screen,html.Screen,2_1_1_1_13,2022-02-03T14:28:04.459Z,,,,,,,,,,,,,,,,,54,,,,,,,,,,,,,,409.55299985694,,response,,,,100,,,,,,,Space,keypress(Space),,,,,,,,-- --- ---- --- ------ ----- ------- ---- -- --- ------- --<br>------- government ------ -- ----- -- ----- -- ---- ------<br>--- ----- --- --- ------ -------- ----- --- ------ ----- --<br>----- ----- ---------- --- --- ------ ------ ---- -- ------<br>------- --- ------ ----- --- ---- ------- -- ---- --- --<br>------- ------,238573.09999990463,238572.39999985695,238146.164,238149.39999985695,238162.847,238579.301,,13,government
screen,html.Screen,2_1_1_1_14,2022-02-03T14:28:05.972Z,,,,,,,,,,,,,,,,,54,,,,,,,,,,,,,,1505.2989999046258,,response,,,,100,,,,,,,Space,keypress(Space),,,,,,,,-- --- ---- --- ------ ----- ------- ---- -- --- ------- --<br>------- ---------- bonds. -- ----- -- ----- -- ---- ------<br>--- ----- --- --- ------ -------- ----- --- ------ ----- --<br>----- ----- ---------- --- --- ------ ------ ---- -- ------<br>------- --- ------ ----- --- ---- ------- -- ---- --- --<br>------- ------,240085.29999995232,240084.59999990463,238562.711,238573.29999995232,238579.301,240095.549,,14,bonds.
screen,html.Screen,2_1_1_1_15,2022-02-03T14:28:06.508Z,,,,,,,,,,,,,,,,,54,,,,,,,,,,,,,,524.9510000000009,,response,,,,100,,,,,,,Space,keypress(Space),,,,,,,,-- --- ---- --- ------ ----- ------- ---- -- --- ------- --<br>------- ---------- ------ In ----- -- ----- -- ---- ------<br>--- ----- --- --- ------ -------- ----- --- ------ ----- --<br>----- ----- ---------- --- --- ------ ------ ---- -- ------<br>------- --- ------ ----- --- ---- ------- -- ---- --- --<br>------- ------,240621.20000004768,240620.5,240078.88,240085.59999990463,240095.549,240628.738,,15,In
screen,html.Screen,2_1_1_1_16,2022-02-03T14:28:07.516Z,,,,,,,,,,,,,,,,,54,,,,,,,,,,,,,,999.7619999999879,,response,,,,100,,,,,,,Space,keypress(Space),,,,,,,,"-- --- ---- --- ------ ----- ------- ---- -- --- ------- --<br>------- ---------- ------ -- 1727, -- ----- -- ---- ------<br>--- ----- --- --- ------ -------- ----- --- ------ ----- --<br>----- ----- ---------- --- --- ------ ------ ---- -- ------<br>------- --- ------ ----- --- ---- ------- -- ---- --- --<br>------- ------",241629.20000004768,241628.5,240612.031,240621.5,240628.738,241645.039,,16,"1727,"
screen,html.Screen,2_1_1_1_17,2022-02-03T14:28:08.100Z,,,,,,,,,,,,,,,,,54,,,,,,,,,,,,,,567.4610000000102,,response,,,,100,,,,,,,Space,keypress(Space),,,,,,,,-- --- ---- --- ------ ----- ------- ---- -- --- ------- --<br>------- ---------- ------ -- ----- in ----- -- ---- ------<br>--- ----- --- --- ------ -------- ----- --- ------ ----- --<br>----- ----- ---------- --- --- ------ ------ ---- -- ------<br>------- --- ------ ----- --- ---- ------- -- ---- --- --<br>------- ------,242213.20000004768,242212.5,241628.336,241629.39999985695,241645.039,242228.179,,17,in
screen,html.Screen,2_1_1_1_18,2022-02-03T14:28:08.588Z,,,,,,,,,,,,,,,,,54,,,,,,,,,,,,,,472.3209999999963,,response,,,,100,,,,,,,Space,keypress(Space),,,,,,,,-- --- ---- --- ------ ----- ------- ---- -- --- ------- --<br>------- ---------- ------ -- ----- -- order -- ---- ------<br>--- ----- --- --- ------ -------- ----- --- ------ ----- --<br>----- ----- ---------- --- --- ------ ------ ---- -- ------<br>------- --- ------ ----- --- ---- ------- -- ---- --- --<br>------- ------,242701.39999985695,242700.5,242211.521,242213.39999985695,242228.179,242711.38,,18,order
screen,html.Screen,2_1_1_1_19,2022-02-03T14:28:09.068Z,,,,,,,,,,,,,,,,,54,,,,,,,,,,,,,,469.5199998569442,,response,,,,100,,,,,,,Space,keypress(Space),,,,,,,,-- --- ---- --- ------ ----- ------- ---- -- --- ------- --<br>------- ---------- ------ -- ----- -- ----- to ---- ------<br>--- ----- --- --- ------ -------- ----- --- ------ ----- --<br>----- ----- ---------- --- --- ------ ------ ---- -- ------<br>------- --- ------ ----- --- ---- ------- -- ---- --- --<br>------- ------,243181.59999990463,243180.89999985695,242694.686,242701.5,242711.38,243194.538,,19,to
screen,html.Screen,2_1_1_1_20,2022-02-03T14:28:09.572Z,,,,,,,,,,,,,,,,,54,,,,,,,,,,,,,,490.0619999046321,,response,,,,100,,,,,,,Space,keypress(Space),,,,,,,,-- --- ---- --- ------ ----- ------- ---- -- --- ------- --<br>------- ---------- ------ -- ----- -- ----- -- save ------<br>--- ----- --- --- ------ -------- ----- --- ------ ----- --<br>----- ----- ---------- --- --- ------ ------ ---- -- ------<br>------- --- ------ ----- --- ---- ------- -- ---- --- --<br>------- ------,243685.39999985695,243684.59999990463,243177.866,243181.89999985695,243194.538,243694.407,,20,save
screen,html.Screen,2_1_1_1_21,2022-02-03T14:28:10.292Z,,,,,,,,,,,,,,,,,54,,,,,,,,,,,,,,709.9929998569423,,response,,,,100,,,,,,,Space,keypress(Space),,,,,,,,"-- --- ---- --- ------ ----- ------- ---- -- --- ------- --<br>------- ---------- ------ -- ----- -- ----- -- ---- money,<br>--- ----- --- --- ------ -------- ----- --- ------ ----- --<br>----- ----- ---------- --- --- ------ ------ ---- -- ------<br>------- --- ------ ----- --- ---- ------- -- ---- --- --<br>------- ------",244405.20000004768,244404.39999985695,243677.7,243685.59999990463,243694.407,244410.835,,21,"money,"
screen,html.Screen,2_1_1_1_22,2022-02-03T14:28:10.748Z,,,,,,,,,,,,,,,,,54,,,,,,,,,,,,,,449.564999856957,,response,,,,100,,,,,,,Space,keypress(Space),,,,,,,,-- --- ---- --- ------ ----- ------- ---- -- --- ------- --<br>------- ---------- ------ -- ----- -- ----- -- ---- ------<br>the ----- --- --- ------ -------- ----- --- ------ ----- --<br>----- ----- ---------- --- --- ------ ------ ---- -- ------<br>------- --- ------ ----- --- ---- ------- -- ---- --- --<br>------- ------,244861.20000004768,244860.39999985695,244394.123,244405.39999985695,244410.835,244877.342,,22,the
screen,html.Screen,2_1_1_1_23,2022-02-03T14:28:11.212Z,,,,,,,,,,,,,,,,,54,,,,,,,,,,,,,,447.1579999999958,,response,,,,100,,,,,,,Space,keypress(Space),,,,,,,,-- --- ---- --- ------ ----- ------- ---- -- --- ------- --<br>------- ---------- ------ -- ----- -- ----- -- ---- ------<br>--- state --- --- ------ -------- ----- --- ------ ----- --<br>----- ----- ---------- --- --- ------ ------ ---- -- ------<br>------- --- ------ ----- --- ---- ------- -- ---- --- --<br>------- ------,245325.29999995232,245324.5,244860.626,244861.29999995232,244877.342,245346.037,,23,state
screen,html.Screen,2_1_1_1_24,2022-02-03T14:28:11.620Z,,,,,,,,,,,,,,,,,54,,,,,,,,,,,,,,386.3629998569377,,response,,,,100,,,,,,,Space,keypress(Space),,,,,,,,-- --- ---- --- ------ ----- ------- ---- -- --- ------- --<br>------- ---------- ------ -- ----- -- ----- -- ---- ------<br>--- ----- cut --- ------ -------- ----- --- ------ ----- --<br>----- ----- ---------- --- --- ------ ------ ---- -- ------<br>------- --- ------ ----- --- ---- ------- -- ---- --- --<br>------- ------,245733.29999995232,245732.39999985695,245310.506,245325.5,245346.037,245743.675,,24,cut
screen,html.Screen,2_1_1_1_25,2022-02-03T14:28:11.980Z,,,,,,,,,,,,,,,,,54,,,,,,,,,,,,,,348.7249998569605,,response,,,,100,,,,,,,Space,keypress(Space),,,,,,,,-- --- ---- --- ------ ----- ------- ---- -- --- ------- --<br>------- ---------- ------ -- ----- -- ----- -- ---- ------<br>--- ----- --- the ------ -------- ----- --- ------ ----- --<br>----- ----- ---------- --- --- ------ ------ ---- -- ------<br>------- --- ------ ----- --- ---- ------- -- ---- --- --<br>------- ------,246093.20000004768,246092.39999985695,245727.032,245733.5,245743.675,246110.269,,25,the
screen,html.Screen,2_1_1_1_26,2022-02-03T14:28:12.380Z,,,,,,,,,,,,,,,,,54,,,,,,,,,,,,,,382.23099999999977,,response,,,,100,,,,,,,Space,keypress(Space),,,,,,,,-- --- ---- --- ------ ----- ------- ---- -- --- ------- --<br>------- ---------- ------ -- ----- -- ----- -- ---- ------<br>--- ----- --- --- bonds' -------- ----- --- ------ ----- --<br>----- ----- ---------- --- --- ------ ------ ---- -- ------<br>------- --- ------ ----- --- ---- ------- -- ---- --- --<br>------- ------,246493.20000004768,246492.5,246093.537,246093.39999985695,246110.269,246510.109,,26,bonds'
screen,html.Screen,2_1_1_1_27,2022-02-03T14:28:13.004Z,,,,,,,,,,,,,,,,,54,,,,,,,,,,,,,,606.2909998569521,,response,,,,100,,,,,,,Space,keypress(Space),,,,,,,,-- --- ---- --- ------ ----- ------- ---- -- --- ------- --<br>------- ---------- ------ -- ----- -- ----- -- ---- ------<br>--- ----- --- --- ------ interest ----- --- ------ ----- --<br>----- ----- ---------- --- --- ------ ------ ---- -- ------<br>------- --- ------ ----- --- ---- ------- -- ---- --- --<br>------- ------,247117.20000004768,247116.39999985695,246493.437,246493.5,246510.109,247126.606,,27,interest
screen,html.Screen,2_1_1_1_28,2022-02-03T14:28:13.900Z,,,,,,,,,,,,,,,,,54,,,,,,,,,,,,,,885.7939998569491,,response,,,,100,,,,,,,Space,keypress(Space),,,,,,,,-- --- ---- --- ------ ----- ------- ---- -- --- ------- --<br>------- ---------- ------ -- ----- -- ----- -- ---- ------<br>--- ----- --- --- ------ -------- rate. --- ------ ----- --<br>----- ----- ---------- --- --- ------ ------ ---- -- ------<br>------- --- ------ ----- --- ---- ------- -- ---- --- --<br>------- ------,248013.20000004768,248012.39999985695,247109.898,247117.39999985695,247126.606,248026.273,,28,rate.
screen,html.Screen,2_1_1_1_29,2022-02-03T14:28:14.444Z,,,,,,,,,,,,,,,,,54,,,,,,,,,,,,,,530.1269998569624,,response,,,,100,,,,,,,Space,keypress(Space),,,,,,,,-- --- ---- --- ------ ----- ------- ---- -- --- ------- --<br>------- ---------- ------ -- ----- -- ----- -- ---- ------<br>--- ----- --- --- ------ -------- ----- The ------ ----- --<br>----- ----- ---------- --- --- ------ ------ ---- -- ------<br>------- --- ------ ----- --- ---- ------- -- ---- --- --<br>------- ------,248557.29999995232,248556.39999985695,248009.6,248013.39999985695,248026.273,248559.47,,29,The
screen,html.Screen,2_1_1_1_30,2022-02-03T14:28:14.924Z,,,,,,,,,,,,,,,,,54,,,,,,,,,,,,,,476.9299998569477,,response,,,,100,,,,,,,Space,keypress(Space),,,,,,,,-- --- ---- --- ------ ----- ------- ---- -- --- ------- --<br>------- ---------- ------ -- ----- -- ----- -- ---- ------<br>--- ----- --- --- ------ -------- ----- --- market ----- --<br>----- ----- ---------- --- --- ------ ------ ---- -- ------<br>------- --- ------ ----- --- ---- ------- -- ---- --- --<br>------- ------,249037.09999990463,249036.39999985695,248542.734,248557.5,248559.47,249042.639,,30,market
screen,html.Screen,2_1_1_1_31,2022-02-03T14:28:15.356Z,,,,,,,,,,,,,,,,,54,,,,,,,,,,,,,,425.7609998569533,,response,,,,100,,,,,,,Space,keypress(Space),,,,,,,,-- --- ---- --- ------ ----- ------- ---- -- --- ------- --<br>------- ---------- ------ -- ----- -- ----- -- ---- ------<br>--- ----- --- --- ------ -------- ----- --- ------ value --<br>----- ----- ---------- --- --- ------ ------ ---- -- ------<br>------- --- ------ ----- --- ---- ------- -- ---- --- --<br>------- ------,249469.20000004768,249468.39999985695,249025.952,249037.29999995232,249042.639,249475.759,,31,value
screen,html.Screen,2_1_1_1_32,2022-02-03T14:28:15.845Z,,,,,,,,,,,,,,,,,54,,,,,,,,,,,,,,482.54099995232536,,response,,,,100,,,,,,,Space,keypress(Space),,,,,,,,-- --- ---- --- ------ ----- ------- ---- -- --- ------- --<br>------- ---------- ------ -- ----- -- ----- -- ---- ------<br>--- ----- --- --- ------ -------- ----- --- ------ ----- of<br>----- ----- ---------- --- --- ------ ------ ---- -- ------<br>------- --- ------ ----- --- ---- ------- -- ---- --- --<br>------- ------,249958.70000004768,249958.29999995232,249459.141,249469.5,249475.759,249975.658,,32,of
screen,html.Screen,2_1_1_1_33,2022-02-03T14:28:16.307Z,,,,,,,,,,,,,,,,,54,,,,,,,,,,,,,,444.24199985695304,,response,,,,100,,,,,,,Space,keypress(Space),,,,,,,,-- --- ---- --- ------ ----- ------- ---- -- --- ------- --<br>------- ---------- ------ -- ----- -- ----- -- ---- ------<br>--- ----- --- --- ------ -------- ----- --- ------ ----- --<br>these ----- ---------- --- --- ------ ------ ---- -- ------<br>------- --- ------ ----- --- ---- ------- -- ---- --- --<br>------- ------,250420.29999995232,250419.89999985695,249959.007,249958.79999995232,249975.658,250425.459,,33,these
screen,html.Screen,2_1_1_1_34,2022-02-03T14:28:16.988Z,,,,,,,,,,,,,,,,,54,,,,,,,,,,,,,,674.9409998569463,,response,,,,100,,,,,,,Space,keypress(Space),,,,,,,,-- --- ---- --- ------ ----- ------- ---- -- --- ------- --<br>------- ---------- ------ -- ----- -- ----- -- ---- ------<br>--- ----- --- --- ------ -------- ----- --- ------ ----- --<br>----- bonds ---------- --- --- ------ ------ ---- -- ------<br>------- --- ------ ----- --- ---- ------- -- ---- --- --<br>------- ------,251101.29999995232,251100.39999985695,250408.799,250420.39999985695,250425.459,251108.601,,34,bonds
screen,html.Screen,2_1_1_1_35,2022-02-03T14:28:17.500Z,,,,,,,,,,,,,,,,,54,,,,,,,,,,,,,,503.79899985695374,,response,,,,100,,,,,,,Space,keypress(Space),,,,,,,,"-- --- ---- --- ------ ----- ------- ---- -- --- ------- --<br>------- ---------- ------ -- ----- -- ----- -- ---- ------<br>--- ----- --- --- ------ -------- ----- --- ------ ----- --<br>----- ----- plummeted, --- --- ------ ------ ---- -- ------<br>------- --- ------ ----- --- ---- ------- -- ---- --- --<br>------- ------",251613.29999995232,251612.39999985695,251091.924,251101.39999985695,251108.601,251625.094,,35,"plummeted,"
screen,html.Screen,2_1_1_1_36,2022-02-03T14:28:18.084Z,,,,,,,,,,,,,,,,,54,,,,,,,,,,,,,,571.4059999999881,,response,,,,100,,,,,,,Space,keypress(Space),,,,,,,,-- --- ---- --- ------ ----- ------- ---- -- --- ------- --<br>------- ---------- ------ -- ----- -- ----- -- ---- ------<br>--- ----- --- --- ------ -------- ----- --- ------ ----- --<br>----- ----- ---------- and --- ------ ------ ---- -- ------<br>------- --- ------ ----- --- ---- ------- -- ---- --- --<br>------- ------,252197.20000004768,252196.5,251608.428,251613.39999985695,251625.094,252208.241,,36,and
screen,html.Screen,2_1_1_1_37,2022-02-03T14:28:18.652Z,,,,,,,,,,,,,,,,,54,,,,,,,,,,,,,,556.1589998569398,,response,,,,100,,,,,,,Space,keypress(Space),,,,,,,,-- --- ---- --- ------ ----- ------- ---- -- --- ------- --<br>------- ---------- ------ -- ----- -- ----- -- ---- ------<br>--- ----- --- --- ------ -------- ----- --- ------ ----- --<br>----- ----- ---------- --- the ------ ------ ---- -- ------<br>------- --- ------ ----- --- ---- ------- -- ---- --- --<br>------- ------,252765.20000004768,252764.39999985695,252191.572,252197.5,252208.241,252774.722,,37,the
screen,html.Screen,2_1_1_1_38,2022-02-03T14:28:19.324Z,,,,,,,,,,,,,,,,,54,,,,,,,,,,,,,,662.0779999523074,,response,,,,100,,,,,,,Space,keypress(Space),,,,,,,,-- --- ---- --- ------ ----- ------- ---- -- --- ------- --<br>------- ---------- ------ -- ----- -- ----- -- ---- ------<br>--- ----- --- --- ------ -------- ----- --- ------ ----- --<br>----- ----- ---------- --- --- market ------ ---- -- ------<br>------- --- ------ ----- --- ---- ------- -- ---- --- --<br>------- ------,253437.70000004768,253436.79999995232,252758.061,252765.39999985695,252774.722,253441.18,,38,market
screen,html.Screen,2_1_1_1_39,2022-02-03T14:28:19.860Z,,,,,,,,,,,,,,,,,54,,,,,,,,,,,,,,531.320000000007,,response,,,,100,,,,,,,Space,keypress(Space),,,,,,,,-- --- ---- --- ------ ----- ------- ---- -- --- ------- --<br>------- ---------- ------ -- ----- -- ----- -- ---- ------<br>--- ----- --- --- ------ -------- ----- --- ------ ----- --<br>----- ----- ---------- --- --- ------ became ---- -- ------<br>------- --- ------ ----- --- ---- ------- -- ---- --- --<br>------- ------,253973.29999995232,253972.5,253424.512,253437.79999995232,253441.18,254007.645,,39,became
screen,html.Screen,2_1_1_1_40,2022-02-03T14:28:20.556Z,,,,,,,,,,,,,,,,,54,,,,,,,,,,,,,,660.8550000000105,,response,,,,100,,,,,,,Space,keypress(Space),,,,,,,,-- --- ---- --- ------ ----- ------- ---- -- --- ------- --<br>------- ---------- ------ -- ----- -- ----- -- ---- ------<br>--- ----- --- --- ------ -------- ----- --- ------ ----- --<br>----- ----- ---------- --- --- ------ ------ wary -- ------<br>------- --- ------ ----- --- ---- ------- -- ---- --- --<br>------- ------,254669.20000004768,254668.5,253990.996,253973.5,254007.645,254674.067,,40,wary
screen,html.Screen,2_1_1_1_41,2022-02-03T14:28:21.060Z,,,,,,,,,,,,,,,,,54,,,,,,,,,,,,,,498.43299999999,,response,,,,100,,,,,,,Space,keypress(Space),,,,,,,,-- --- ---- --- ------ ----- ------- ---- -- --- ------- --<br>------- ---------- ------ -- ----- -- ----- -- ---- ------<br>--- ----- --- --- ------ -------- ----- --- ------ ----- --<br>----- ----- ---------- --- --- ------ ------ ---- of ------<br>------- --- ------ ----- --- ---- ------- -- ---- --- --<br>------- ------,255173.20000004768,255172.5,254657.422,254669.5,254674.067,255190.593,,41,of
screen,html.Screen,2_1_1_1_42,2022-02-03T14:28:21.556Z,,,,,,,,,,,,,,,,,54,,,,,,,,,,,,,,477.8069998569554,,response,,,,100,,,,,,,Space,keypress(Space),,,,,,,,-- --- ---- --- ------ ----- ------- ---- -- --- ------- --<br>------- ---------- ------ -- ----- -- ----- -- ---- ------<br>--- ----- --- --- ------ -------- ----- --- ------ ----- --<br>----- ----- ---------- --- --- ------ ------ ---- -- French<br>------- --- ------ ----- --- ---- ------- -- ---- --- --<br>------- ------,255669.20000004768,255668.39999985695,255173.933,255173.39999985695,255190.593,255673.756,,42,French
screen,html.Screen,2_1_1_1_43,2022-02-03T14:28:22.396Z,,,,,,,,,,,,,,,,,54,,,,,,,,,,,,,,834.744000000006,,response,,,,100,,,,,,,Space,keypress(Space),,,,,,,,-- --- ---- --- ------ ----- ------- ---- -- --- ------- --<br>------- ---------- ------ -- ----- -- ----- -- ---- ------<br>--- ----- --- --- ------ -------- ----- --- ------ ----- --<br>----- ----- ---------- --- --- ------ ------ ---- -- ------<br>credit. --- ------ ----- --- ---- ------- -- ---- --- --<br>------- ------,256509.29999995232,256508.5,255657.095,255669.39999985695,255673.756,256523.517,,43,credit.
screen,html.Screen,2_1_1_1_44,2022-02-03T14:28:22.692Z,,,,,,,,,,,,,,,,,54,,,,,,,,,,,,,,280.8829998569563,,response,,,,100,,,,,,,Space,keypress(Space),,,,,,,,-- --- ---- --- ------ ----- ------- ---- -- --- ------- --<br>------- ---------- ------ -- ----- -- ----- -- ---- ------<br>--- ----- --- --- ------ -------- ----- --- ------ ----- --<br>----- ----- ---------- --- --- ------ ------ ---- -- ------<br>------- The ------ ----- --- ---- ------- -- ---- --- --<br>------- ------,256805.20000004768,256804.39999985695,256506.83,256509.5,256523.517,256838.887,,44,The
screen,html.Screen,2_1_1_1_45,2022-02-03T14:28:23.060Z,,,,,,,,,,,,,,,,,54,,,,,,,,,,,,,,333.6130000000121,,response,,,,100,,,,,,,Space,keypress(Space),,,,,,,,-- --- ---- --- ------ ----- ------- ---- -- --- ------- --<br>------- ---------- ------ -- ----- -- ----- -- ---- ------<br>--- ----- --- --- ------ -------- ----- --- ------ ----- --<br>----- ----- ---------- --- --- ------ ------ ---- -- ------<br>------- --- French ----- --- ---- ------- -- ---- --- --<br>------- ------,257173.29999995232,257172.5,256790.063,256805.39999985695,256838.887,257189.938,,45,French
screen,html.Screen,2_1_1_1_46,2022-02-03T14:28:23.428Z,,,,,,,,,,,,,,,,,54,,,,,,,,,,,,,,350.4619998569542,,response,,,,100,,,,,,,Space,keypress(Space),,,,,,,,-- --- ---- --- ------ ----- ------- ---- -- --- ------- --<br>------- ---------- ------ -- ----- -- ----- -- ---- ------<br>--- ----- --- --- ------ -------- ----- --- ------ ----- --<br>----- ----- ---------- --- --- ------ ------ ---- -- ------<br>------- --- ------ state --- ---- ------- -- ---- --- --<br>------- ------,257541.20000004768,257540.39999985695,257173.28,257173.39999985695,257189.938,257556.484,,46,state
screen,html.Screen,2_1_1_1_47,2022-02-03T14:28:24.004Z,,,,,,,,,,,,,,,,,54,,,,,,,,,,,,,,559.9159998569521,,response,,,,100,,,,,,,Space,keypress(Space),,,,,,,,-- --- ---- --- ------ ----- ------- ---- -- --- ------- --<br>------- ---------- ------ -- ----- -- ----- -- ---- ------<br>--- ----- --- --- ------ -------- ----- --- ------ ----- --<br>----- ----- ---------- --- --- ------ ------ ---- -- ------<br>------- --- ------ ----- was ---- ------- -- ---- --- --<br>------- ------,258117.20000004768,258116.39999985695,257539.821,257541.39999985695,257556.484,258122.936,,47,was
screen,html.Screen,2_1_1_1_48,2022-02-03T14:28:24.316Z,,,,,,,,,,,,,,,,,54,,,,,,,,,,,,,,305.4639998569619,,response,,,,100,,,,,,,Space,keypress(Space),,,,,,,,-- --- ---- --- ------ ----- ------- ---- -- --- ------- --<br>------- ---------- ------ -- ----- -- ----- -- ---- ------<br>--- ----- --- --- ------ -------- ----- --- ------ ----- --<br>----- ----- ---------- --- --- ------ ------ ---- -- ------<br>------- --- ------ ----- --- left ------- -- ---- --- --<br>------- ------,258429.20000004768,258428.39999985695,258106.314,258117.5,258122.936,258439.509,,48,left
screen,html.Screen,2_1_1_1_49,2022-02-03T14:28:24.788Z,,,,,,,,,,,,,,,,,54,,,,,,,,,,,,,,460.9910000000091,,response,,,,100,,,,,,,Space,keypress(Space),,,,,,,,-- --- ---- --- ------ ----- ------- ---- -- --- ------- --<br>------- ---------- ------ -- ----- -- ----- -- ---- ------<br>--- ----- --- --- ------ -------- ----- --- ------ ----- --<br>----- ----- ---------- --- --- ------ ------ ---- -- ------<br>------- --- ------ ----- --- ---- without -- ---- --- --<br>------- ------,258901.20000004768,258900.5,258422.842,258429.39999985695,258439.509,258906.057,,49,without
screen,html.Screen,2_1_1_1_50,2022-02-03T14:28:25.163Z,,,,,,,,,,,,,,,,,54,,,,,,,,,,,,,,369.7429999523156,,response,,,,100,,,,,,,Space,keypress(Space),,,,,,,,-- --- ---- --- ------ ----- ------- ---- -- --- ------- --<br>------- ---------- ------ -- ----- -- ----- -- ---- ------<br>--- ----- --- --- ------ -------- ----- --- ------ ----- --<br>----- ----- ---------- --- --- ------ ------ ---- -- ------<br>------- --- ------ ----- --- ---- ------- an ---- --- --<br>------- ------,259276.09999990463,259275.79999995232,258889.368,258901.39999985695,258906.057,259289.175,,50,an
screen,html.Screen,2_1_1_1_51,2022-02-03T14:28:25.636Z,,,,,,,,,,,,,,,,,54,,,,,,,,,,,,,,459.32500000001164,,response,,,,100,,,,,,,Space,keypress(Space),,,,,,,,-- --- ---- --- ------ ----- ------- ---- -- --- ------- --<br>------- ---------- ------ -- ----- -- ----- -- ---- ------<br>--- ----- --- --- ------ -------- ----- --- ------ ----- --<br>----- ----- ---------- --- --- ------ ------ ---- -- ------<br>------- --- ------ ----- --- ---- ------- -- easy --- --<br>------- ------,259749.29999995232,259748.5,259272.589,259276.20000004768,259289.175,259755.684,,51,easy
screen,html.Screen,2_1_1_1_52,2022-02-03T14:28:26.044Z,,,,,,,,,,,,,,,,,54,,,,,,,,,,,,,,400.71599985694047,,response,,,,100,,,,,,,Space,keypress(Space),,,,,,,,-- --- ---- --- ------ ----- ------- ---- -- --- ------- --<br>------- ---------- ------ -- ----- -- ----- -- ---- ------<br>--- ----- --- --- ------ -------- ----- --- ------ ----- --<br>----- ----- ---------- --- --- ------ ------ ---- -- ------<br>------- --- ------ ----- --- ---- ------- -- ---- way --<br>------- ------,260157.29999995232,260156.39999985695,259739.017,259749.5,259755.684,260172.286,,52,way
screen,html.Screen,2_1_1_1_53,2022-02-03T14:28:26.484Z,,,,,,,,,,,,,,,,,54,,,,,,,,,,,,,,424.11399985695607,,response,,,,100,,,,,,,Space,keypress(Space),,,,,,,,-- --- ---- --- ------ ----- ------- ---- -- --- ------- --<br>------- ---------- ------ -- ----- -- ----- -- ---- ------<br>--- ----- --- --- ------ -------- ----- --- ------ ----- --<br>----- ----- ---------- --- --- ------ ------ ---- -- ------<br>------- --- ------ ----- --- ---- ------- -- ---- --- of<br>------- ------,260597.20000004768,260596.39999985695,260155.632,260157.5,260172.286,260605.508,,53,of
screen,html.Screen,2_1_1_1_54,2022-02-03T14:28:26.932Z,,,,,,,,,,,,,,,,,54,,,,,,,,,,,,,,438.8919998569472,,response,,,,100,,,,,,,Space,keypress(Space),,,,,,,,-- --- ---- --- ------ ----- ------- ---- -- --- ------- --<br>------- ---------- ------ -- ----- -- ----- -- ---- ------<br>--- ----- --- --- ------ -------- ----- --- ------ ----- --<br>----- ----- ---------- --- --- ------ ------ ---- -- ------<br>------- --- ------ ----- --- ---- ------- -- ---- --- --<br>raising ------,261045.20000004768,261044.39999985695,260588.785,260597.39999985695,260605.508,261055.32,,54,raising
screen,html.Screen,2_1_1_1_55,2022-02-03T14:28:27.708Z,,,,,,,,,,,,,,,,,54,,,,,,,,,,,,,,765.179999999993,,response,,,,100,,,,,,,Space,keypress(Space),,,,,,,,-- --- ---- --- ------ ----- ------- ---- -- --- ------- --<br>------- ---------- ------ -- ----- -- ----- -- ---- ------<br>--- ----- --- --- ------ -------- ----- --- ------ ----- --<br>----- ----- ---------- --- --- ------ ------ ---- -- ------<br>------- --- ------ ----- --- ---- ------- -- ---- --- --<br>------- money.,261821.29999995232,261820.5,261038.664,261045.39999985695,261055.32,261838.409,,55,money.
Item 100,flow.Loop,2_1_1_1,2022-02-03T14:28:27.708Z,,,,,,,,,,,,,,,,,,,,,,,,,,,,,,,29988.89499999999,,completion,,,,,A,,,,,,,,,,,silence,,,,,261821.70000004768,261820.5,231814.925,231815.89999985695,231831.605,261838.409,,,
Question 1,html.Screen,2_1_1_2,2022-02-03T14:28:29.947Z,,,,,,,,,,,,,,,,,,,,,,,,,,,,true,TRUE,,2221.4909998569346,,response,,,,100,A,,,,,,TRUE,click #choice-1,,,,silence,,,,,264060.39999985695,264059.89999985695,261821.744,261821.79999995232,261838.409,264070.99,,,
Question 2,html.Screen,2_1_1_3,2022-02-03T14:28:32.059Z,,,,,,,,,,,,,,,,,,,,,,,,,,,,true,FALSE,,2100.8099999523256,,response,,,,100,A,,,,,,FALSE,click #choice-2,,,,silence,,,,,266172.2000000477,266171.7999999523,264054.348,264060.39999985695,264070.99,266186.963,,,
Item 100,flow.Sequence,2_1_1,2022-02-03T14:28:32.059Z,,,,,,,,,,,,,,,,,,,,,,,,,,,,,,,44337.0159999523,,completion,,,,,,,,,,,,,,,,,,,,,266172.39999985695,266171.7999999523,221818.207,221828.39999985695,221834.784,266186.963,,,
End of Practice,html.Page,2_1_2,2022-02-03T14:28:38.171Z,,,,,,,,,,,,,,,,,,,,,,,,,,,,,,,6097.43699985696,,form submission,,,,,,,,,,,,,,,,,,,,,272284.5,272284.39999985695,266170.329,266172.39999985695,266186.963,272302.538,,,
Practice,flow.Sequence,2_1,2022-02-03T14:28:38.171Z,,,,,,,,,,,,,,,,,,,,,,,,,,,,,,,113112.42999985695,,completion,,,,,,,,,,,,,,,,,,,,,272284.59999990463,272284.39999985695,159155.392,159164.79999995232,159171.97,272302.538,,,
Trap_instruction,html.Page,2_2_0,2022-02-03T14:28:41.643Z,,,,,,,,,,,,,,,,,,,,,,,,,,,,,,,3453.761999952316,,form submission,,,,,,,,,,,,,,,,,,,,,275756.5,275756.2999999523,272268.312,272284.7000000477,272302.538,275767.068,,,
trap_trial,html.Screen,2_2_1,2022-02-03T14:28:45.739Z,,,,,,,,,,,,,,,,,,,,,,,,,,,,true,1,,4084.731999952288,,response,,,,,,,,,,,1,click #choice-1,,,,,,,,,279852.39999985695,279851.7999999523,275750.441,275756.59999990463,275767.068,279865.81,,,
end of trap trial,html.Page,2_2_2,2022-02-03T14:28:47.443Z,,,,,,,,,,,,,,,,,,,,,,,,,,,,,,,1690.5899998569512,,form submission,,,,,,,,,,,,,,,,,,,,,281556.59999990463,281556.39999985695,279849.245,279852.39999985695,279865.81,281565.25,,,
Trap 1,flow.Sequence,2_2,2022-02-03T14:28:47.443Z,,,,,,,,,,,,,,,,,,,,,,,,,,,,,,,9253.861999856948,,completion,,,,,,,,,,,,,,,,,,,,,281556.7000000477,281556.39999985695,272268.312,272284.7000000477,272302.538,281565.25,,,
Standby,html.Page,2_3_0,2022-02-03T14:28:55.433Z,,,,,,,,,,,,,,,,,,,,,,,,,,,,,,,7997.4070000000065,,timeout,,,,,,,,,,,,,,,,,,,,,289546.7999999523,289545.99,281548.593,281556.7000000477,281565.25,289562.657,,,
Holding screen,html.Screen,2_3_1_0_0,2022-02-03T14:29:02.431Z,,,,,,,,,,,,,,,,,,,,,,,,,,,,,,,6997.675999999978,,timeout,,,,,,,,,,,,,,,,,,,,,296544.39999985695,296543.691,289545.99,289547.2999999523,289562.657,296560.333,,,
screen,html.Screen,2_3_1_0_1_0,2022-02-03T14:29:03.284Z,,,,,,,,,,,,,,,,,51,,,,,,,,,,,,,,836.5669998569647,,response,,,,13,A,,,,,,Space,keypress(Space),,,,silence,,,,American -------- --- --- ---- --- --- ------ -- --------<br>---- --------- --- ------- ------------ ---------- ---------<br>--- ---------- ------- ---------- ------- -- -------- ----<br>---- --- ------ ----- ------ -- ---- --- ----- -- - -------<br>-------- -- --- --- -- ----- ----------- ----- -----------<br>---- --- ---------- --- ---- --- -- ----------,297398,297396.89999985695,296543.691,296544.7999999523,296560.333,297410.077,,0,American
screen,html.Screen,2_3_1_0_1_1,2022-02-03T14:29:03.740Z,,,,,,,,,,,,,,,,,51,,,,,,,,,,,,,,442.4230000000098,,response,,,,13,A,,,,,,Space,keypress(Space),,,,silence,,,,-------- industry --- --- ---- --- --- ------ -- --------<br>---- --------- --- ------- ------------ ---------- ---------<br>--- ---------- ------- ---------- ------- -- -------- ----<br>---- --- ------ ----- ------ -- ---- --- ----- -- - -------<br>-------- -- --- --- -- ----- ----------- ----- -----------<br>---- --- ---------- --- ---- --- -- ----------,297853.2999999523,297852.5,297393.409,297398.2000000477,297410.077,297859.874,,1,industry
screen,html.Screen,2_3_1_0_1_2,2022-02-03T14:29:04.204Z,,,,,,,,,,,,,,,,,51,,,,,,,,,,,,,,456.6259999999893,,response,,,,13,A,,,,,,Space,keypress(Space),,,,silence,,,,-------- -------- may --- ---- --- --- ------ -- --------<br>---- --------- --- ------- ------------ ---------- ---------<br>--- ---------- ------- ---------- ------- -- -------- ----<br>---- --- ------ ----- ------ -- ---- --- ----- -- - -------<br>-------- -- --- --- -- ----- ----------- ----- -----------<br>---- --- ---------- --- ---- --- -- ----------,298317.2999999523,298316.5,297843.26,297853.5,297859.874,298326.443,,2,may
screen,html.Screen,2_3_1_0_1_3,2022-02-03T14:29:04.596Z,,,,,,,,,,,,,,,,,51,,,,,,,,,,,,,,381.95699985692045,,response,,,,13,A,,,,,,Space,keypress(Space),,,,silence,,,,-------- -------- --- not ---- --- --- ------ -- --------<br>---- --------- --- ------- ------------ ---------- ---------<br>--- ---------- ------- ---------- ------- -- -------- ----<br>---- --- ------ ----- ------ -- ---- --- ----- -- - -------<br>-------- -- --- --- -- ----- ----------- ----- -----------<br>---- --- ---------- --- ---- --- -- ----------,298709.2000000477,298708.39999985695,298309.782,298317.5,298326.443,298726.313,,3,not
screen,html.Screen,2_3_1_0_1_4,2022-02-03T14:29:04.868Z,,,,,,,,,,,,,,,,,51,,,,,,,,,,,,,,254.0869998569251,,response,,,,13,A,,,,,,Space,keypress(Space),,,,silence,,,,-------- -------- --- --- know --- --- ------ -- --------<br>---- --------- --- ------- ------------ ---------- ---------<br>--- ---------- ------- ---------- ------- -- -------- ----<br>---- --- ------ ----- ------ -- ---- --- ----- -- - -------<br>-------- -- --- --- -- ----- ----------- ----- -----------<br>---- --- ---------- --- ---- --- -- ----------,298981.39999985695,298980.39999985695,298709.641,298709.39999985695,298726.313,298992.915,,4,know
screen,html.Screen,2_3_1_0_1_5,2022-02-03T14:29:05.268Z,,,,,,,,,,,,,,,,,51,,,,,,,,,,,,,,387.4849998569698,,response,,,,13,A,,,,,,Space,keypress(Space),,,,silence,,,,"-------- -------- --- --- ---- it, --- ------ -- --------<br>---- --------- --- ------- ------------ ---------- ---------<br>--- ---------- ------- ---------- ------- -- -------- ----<br>---- --- ------ ----- ------ -- ---- --- ----- -- - -------<br>-------- -- --- --- -- ----- ----------- ----- -----------<br>---- --- ---------- --- ---- --- -- ----------",299381.2000000477,299380.39999985695,298976.237,298981.7000000477,298992.915,299392.74,,5,"it,"
screen,html.Screen,2_3_1_0_1_6,2022-02-03T14:29:05.652Z,,,,,,,,,,,,,,,,,51,,,,,,,,,,,,,,371.65999985695817,,response,,,,13,A,,,,,,Space,keypress(Space),,,,silence,,,,-------- -------- --- --- ---- --- but ------ -- --------<br>---- --------- --- ------- ------------ ---------- ---------<br>--- ---------- ------- ---------- ------- -- -------- ----<br>---- --- ------ ----- ------ -- ---- --- ----- -- - -------<br>-------- -- --- --- -- ----- ----------- ----- -----------<br>---- --- ---------- --- ---- --- -- ----------,299765.2000000477,299764.39999985695,299376.091,299381.39999985695,299392.74,299775.968,,6,but
screen,html.Screen,2_3_1_0_1_7,2022-02-03T14:29:06.020Z,,,,,,,,,,,,,,,,,51,,,,,,,,,,,,,,356.5320000000065,,response,,,,13,A,,,,,,Space,keypress(Space),,,,silence,,,,-------- -------- --- --- ---- --- --- debate -- --------<br>---- --------- --- ------- ------------ ---------- ---------<br>--- ---------- ------- ---------- ------- -- -------- ----<br>---- --- ------ ----- ------ -- ---- --- ----- -- - -------<br>-------- -- --- --- -- ----- ----------- ----- -----------<br>---- --- ---------- --- ---- --- -- ----------,300133.2999999523,300132.5,299759.297,299765.39999985695,299775.968,300142.514,,7,debate
screen,html.Screen,2_3_1_0_1_8,2022-02-03T14:29:06.539Z,,,,,,,,,,,,,,,,,51,,,,,,,,,,,,,,509.5859999046079,,response,,,,13,A,,,,,,Space,keypress(Space),,,,silence,,,,-------- -------- --- --- ---- --- --- ------ in --------<br>---- --------- --- ------- ------------ ---------- ---------<br>--- ---------- ------- ---------- ------- -- -------- ----<br>---- --- ------ ----- ------ -- ---- --- ----- -- - -------<br>-------- -- --- --- -- ----- ----------- ----- -----------<br>---- --- ---------- --- ---- --- -- ----------,300652.5,300652.09999990463,300125.842,300133.5,300142.514,300659,,8,in
screen,html.Screen,2_3_1_0_1_9,2022-02-03T14:29:07.603Z,,,,,,,,,,,,,,,,,51,,,,,,,,,,,,,,1057.5,,response,,,,13,A,,,,,,Space,keypress(Space),,,,silence,,,,-------- -------- --- --- ---- --- --- ------ -- Congress<br>---- --------- --- ------- ------------ ---------- ---------<br>--- ---------- ------- ---------- ------- -- -------- ----<br>---- --- ------ ----- ------ -- ---- --- ----- -- - -------<br>-------- -- --- --- -- ----- ----------- ----- -----------<br>---- --- ---------- --- ---- --- -- ----------,301717.2999999523,301716.5,300642.345,300652.7000000477,300659,301725.331,,9,Congress
screen,html.Screen,2_3_1_0_1_10,2022-02-03T14:29:08.178Z,,,,,,,,,,,,,,,,,51,,,,,,,,,,,,,,566.5689998569433,,response,,,,13,A,,,,,,Space,keypress(Space),,,,silence,,,,-------- -------- --- --- ---- --- --- ------ -- --------<br>over --------- --- ------- ------------ ---------- ---------<br>--- ---------- ------- ---------- ------- -- -------- ----<br>---- --- ------ ----- ------ -- ---- --- ----- -- - -------<br>-------- -- --- --- -- ----- ----------- ----- -----------<br>---- --- ---------- --- ---- --- -- ----------,302292.2000000477,302291.89999985695,301708.647,301717.5,301725.331,302308.442,,10,over
screen,html.Screen,2_3_1_0_1_11,2022-02-03T14:29:08.515Z,,,,,,,,,,,,,,,,,51,,,,,,,,,,,,,,319.95799985696794,,response,,,,13,A,,,,,,Space,keypress(Space),,,,silence,,,,-------- -------- --- --- ---- --- --- ------ -- --------<br>---- reforming --- ------- ------------ ---------- ---------<br>--- ---------- ------- ---------- ------- -- -------- ----<br>---- --- ------ ----- ------ -- ---- --- ----- -- - -------<br>-------- -- --- --- -- ----- ----------- ----- -----------<br>---- --- ---------- --- ---- --- -- ----------,302629.2999999523,302628.39999985695,302291.817,302292.2999999523,302308.442,302641.718,,11,reforming
screen,html.Screen,2_3_1_0_1_12,2022-02-03T14:29:08.940Z,,,,,,,,,,,,,,,,,51,,,,,,,,,,,,,,410.7820000000065,,response,,,,13,A,,,,,,Space,keypress(Space),,,,silence,,,,-------- -------- --- --- ---- --- --- ------ -- --------<br>---- --------- the ------- ------------ ---------- ---------<br>--- ---------- ------- ---------- ------- -- -------- ----<br>---- --- ------ ----- ------ -- ---- --- ----- -- - -------<br>-------- -- --- --- -- ----- ----------- ----- -----------<br>---- --- ---------- --- ---- --- -- ----------,303053.2999999523,303052.5,302625.03,302629.5,302641.718,303058.214,,12,the
screen,html.Screen,2_3_1_0_1_13,2022-02-03T14:29:09.459Z,,,,,,,,,,,,,,,,,51,,,,,,,,,,,,,,514.1859998569707,,response,,,,13,A,,,,,,Space,keypress(Space),,,,silence,,,,-------- -------- --- --- ---- --- --- ------ -- --------<br>---- --------- --- federal ------------ ---------- ---------<br>--- ---------- ------- ---------- ------- -- -------- ----<br>---- --- ------ ----- ------ -- ---- --- ----- -- - -------<br>-------- -- --- --- -- ----- ----------- ----- -----------<br>---- --- ---------- --- ---- --- -- ----------,303573.2000000477,303572.39999985695,303041.554,303053.59999990463,303058.214,303595.213,,13,federal
screen,html.Screen,2_3_1_0_1_14,2022-02-03T14:29:09.963Z,,,,,,,,,,,,,,,,,51,,,,,,,,,,,,,,481.18699985696,,response,,,,13,A,,,,,,Space,keypress(Space),,,,silence,,,,-------- -------- --- --- ---- --- --- ------ -- --------<br>---- --------- --- ------- government's ---------- ---------<br>--- ---------- ------- ---------- ------- -- -------- ----<br>---- --- ------ ----- ------ -- ---- --- ----- -- - -------<br>-------- -- --- --- -- ----- ----------- ----- -----------<br>---- --- ---------- --- ---- --- -- ----------,304077.2000000477,304076.39999985695,303558.061,303573.39999985695,303595.213,304091.219,,14,government's
screen,html.Screen,2_3_1_0_1_15,2022-02-03T14:29:10.563Z,,,,,,,,,,,,,,,,,51,,,,,,,,,,,,,,585.2810000000172,,response,,,,13,A,,,,,,Space,keypress(Space),,,,silence,,,,-------- -------- --- --- ---- --- --- ------ -- --------<br>---- --------- --- ------- ------------ regulatory ---------<br>--- ---------- ------- ---------- ------- -- -------- ----<br>---- --- ------ ----- ------ -- ---- --- ----- -- - -------<br>-------- -- --- --- -- ----- ----------- ----- -----------<br>---- --- ---------- --- ---- --- -- ----------,304677.2999999523,304676.5,304074.533,304077.5,304091.219,304691.024,,15,regulatory
screen,html.Screen,2_3_1_0_1_16,2022-02-03T14:29:11.156Z,,,,,,,,,,,,,,,,,51,,,,,,,,,,,,,,577.5759999046568,,response,,,,13,A,,,,,,Space,keypress(Space),,,,silence,,,,-------- -------- --- --- ---- --- --- ------ -- --------<br>---- --------- --- ------- ------------ ---------- apparatus<br>--- ---------- ------- ---------- ------- -- -------- ----<br>---- --- ------ ----- ------ -- ---- --- ----- -- - -------<br>-------- -- --- --- -- ----- ----------- ----- -----------<br>---- --- ---------- --- ---- --- -- ----------,305269.2999999523,305268.59999990463,304674.337,304677.5,304691.024,305274.158,,16,apparatus
screen,html.Screen,2_3_1_0_1_17,2022-02-03T14:29:11.683Z,,,,,,,,,,,,,,,,,51,,,,,,,,,,,,,,522.241999856953,,response,,,,13,A,,,,,,Space,keypress(Space),,,,silence,,,,-------- -------- --- --- ---- --- --- ------ -- --------<br>---- --------- --- ------- ------------ ---------- ---------<br>may ---------- ------- ---------- ------- -- -------- ----<br>---- --- ------ ----- ------ -- ---- --- ----- -- - -------<br>-------- -- --- --- -- ----- ----------- ----- -----------<br>---- --- ---------- --- ---- --- -- ----------,305797.2000000477,305796.39999985695,305257.502,305269.5,305274.158,305807.324,,17,may
screen,html.Screen,2_3_1_0_1_18,2022-02-03T14:29:12.148Z,,,,,,,,,,,,,,,,,51,,,,,,,,,,,,,,453.17599999997765,,response,,,,13,A,,,,,,Space,keypress(Space),,,,silence,,,,-------- -------- --- --- ---- --- --- ------ -- --------<br>---- --------- --- ------- ------------ ---------- ---------<br>--- profoundly ------- ---------- ------- -- -------- ----<br>---- --- ------ ----- ------ -- ---- --- ----- -- - -------<br>-------- -- --- --- -- ----- ----------- ----- -----------<br>---- --- ---------- --- ---- --- -- ----------,306261.2999999523,306260.5,305790.661,305797.5,305807.324,306273.836,,18,profoundly
screen,html.Screen,2_3_1_0_1_19,2022-02-03T14:29:12.667Z,,,,,,,,,,,,,,,,,51,,,,,,,,,,,,,,506.66399999998976,,response,,,,13,A,,,,,,Space,keypress(Space),,,,silence,,,,-------- -------- --- --- ---- --- --- ------ -- --------<br>---- --------- --- ------- ------------ ---------- ---------<br>--- ---------- improve ---------- ------- -- -------- ----<br>---- --- ------ ----- ------ -- ---- --- ----- -- - -------<br>-------- -- --- --- -- ----- ----------- ----- -----------<br>---- --- ---------- --- ---- --- -- ----------,306781.2999999523,306780.5,306257.186,306261.59999990463,306273.836,306790.333,,19,improve
screen,html.Screen,2_3_1_0_1_20,2022-02-03T14:29:13.420Z,,,,,,,,,,,,,,,,,51,,,,,,,,,,,,,,742.5669998569647,,response,,,,13,A,,,,,,Space,keypress(Space),,,,silence,,,,-------- -------- --- --- ---- --- --- ------ -- --------<br>---- --------- --- ------- ------------ ---------- ---------<br>--- ---------- ------- companies' ------- -- -------- ----<br>---- --- ------ ----- ------ -- ---- --- ----- -- - -------<br>-------- -- --- --- -- ----- ----------- ----- -----------<br>---- --- ---------- --- ---- --- -- ----------,307533.59999990463,307532.89999985695,306773.645,306781.5,306790.333,307540.128,,20,companies'
screen,html.Screen,2_3_1_0_1_21,2022-02-03T14:29:13.955Z,,,,,,,,,,,,,,,,,51,,,,,,,,,,,,,,528.2719998569228,,response,,,,13,A,,,,,,Space,keypress(Space),,,,silence,,,,-------- -------- --- --- ---- --- --- ------ -- --------<br>---- --------- --- ------- ------------ ---------- ---------<br>--- ---------- ------- ---------- ability -- -------- ----<br>---- --- ------ ----- ------ -- ---- --- ----- -- - -------<br>-------- -- --- --- -- ----- ----------- ----- -----------<br>---- --- ---------- --- ---- --- -- ----------,308069.09999990463,308068.39999985695,307523.412,307533.89999985695,307540.128,308073.291,,21,ability
screen,html.Screen,2_3_1_0_1_22,2022-02-03T14:29:14.363Z,,,,,,,,,,,,,,,,,51,,,,,,,,,,,,,,403.1089998569223,,response,,,,13,A,,,,,,Space,keypress(Space),,,,silence,,,,-------- -------- --- --- ---- --- --- ------ -- --------<br>---- --------- --- ------- ------------ ---------- ---------<br>--- ---------- ------- ---------- ------- to -------- ----<br>---- --- ------ ----- ------ -- ---- --- ----- -- - -------<br>-------- -- --- --- -- ----- ----------- ----- -----------<br>---- --- ---------- --- ---- --- -- ----------,308477.2000000477,308476.39999985695,308056.575,308069.39999985695,308073.291,308489.766,,22,to
screen,html.Screen,2_3_1_0_1_23,2022-02-03T14:29:15.219Z,,,,,,,,,,,,,,,,,51,,,,,,,,,,,,,,842.6339998569456,,response,,,,13,A,,,,,,Space,keypress(Space),,,,silence,,,,-------- -------- --- --- ---- --- --- ------ -- --------<br>---- --------- --- ------- ------------ ---------- ---------<br>--- ---------- ------- ---------- ------- -- survive. ----<br>---- --- ------ ----- ------ -- ---- --- ----- -- - -------<br>-------- -- --- --- -- ----- ----------- ----- -----------<br>---- --- ---------- --- ---- --- -- ----------,309333.2000000477,309332.39999985695,308473.115,308477.5,308489.766,309339.526,,23,survive.
screen,html.Screen,2_3_1_0_1_24,2022-02-03T14:29:15.643Z,,,,,,,,,,,,,,,,,51,,,,,,,,,,,,,,416.9739999999874,,response,,,,13,A,,,,,,Space,keypress(Space),,,,silence,,,,-------- -------- --- --- ---- --- --- ------ -- --------<br>---- --------- --- ------- ------------ ---------- ---------<br>--- ---------- ------- ---------- ------- -- -------- This<br>---- --- ------ ----- ------ -- ---- --- ----- -- - -------<br>-------- -- --- --- -- ----- ----------- ----- -----------<br>---- --- ---------- --- ---- --- -- ----------,309757.2999999523,309756.5,309322.846,309333.39999985695,309339.526,309772.72,,24,This
screen,html.Screen,2_3_1_0_1_25,2022-02-03T14:29:16.067Z,,,,,,,,,,,,,,,,,51,,,,,,,,,,,,,,407.6799998569768,,response,,,,13,A,,,,,,Space,keypress(Space),,,,silence,,,,-------- -------- --- --- ---- --- --- ------ -- --------<br>---- --------- --- ------- ------------ ---------- ---------<br>--- ---------- ------- ---------- ------- -- -------- ----<br>week --- ------ ----- ------ -- ---- --- ----- -- - -------<br>-------- -- --- --- -- ----- ----------- ----- -----------<br>---- --- ---------- --- ---- --- -- ----------,310181.2000000477,310180.39999985695,309756.028,309757.5,309772.72,310189.217,,25,week
screen,html.Screen,2_3_1_0_1_26,2022-02-03T14:29:16.506Z,,,,,,,,,,,,,,,,,51,,,,,,,,,,,,,,430.68299985694466,,response,,,,13,A,,,,,,Space,keypress(Space),,,,silence,,,,-------- -------- --- --- ---- --- --- ------ -- --------<br>---- --------- --- ------- ------------ ---------- ---------<br>--- ---------- ------- ---------- ------- -- -------- ----<br>---- the ------ ----- ------ -- ---- --- ----- -- - -------<br>-------- -- --- --- -- ----- ----------- ----- -----------<br>---- --- ---------- --- ---- --- -- ----------,310620.2000000477,310619.89999985695,310172.562,310181.39999985695,310189.217,310622.331,,26,the
screen,html.Screen,2_3_1_0_1_27,2022-02-03T14:29:16.987Z,,,,,,,,,,,,,,,,,51,,,,,,,,,,,,,,478.1689999999944,,response,,,,13,A,,,,,,Space,keypress(Space),,,,silence,,,,-------- -------- --- --- ---- --- --- ------ -- --------<br>---- --------- --- ------- ------------ ---------- ---------<br>--- ---------- ------- ---------- ------- -- -------- ----<br>---- --- Senate ----- ------ -- ---- --- ----- -- - -------<br>-------- -- --- --- -- ----- ----------- ----- -----------<br>---- --- ---------- --- ---- --- -- ----------,311101.2000000477,311100.5,310605.742,310620.2999999523,310622.331,311105.573,,27,Senate
screen,html.Screen,2_3_1_0_1_28,2022-02-03T14:29:17.499Z,,,,,,,,,,,,,,,,,51,,,,,,,,,,,,,,506.826999856974,,response,,,,13,A,,,,,,Space,keypress(Space),,,,silence,,,,-------- -------- --- --- ---- --- --- ------ -- --------<br>---- --------- --- ------- ------------ ---------- ---------<br>--- ---------- ------- ---------- ------- -- -------- ----<br>---- --- ------ seems ------ -- ---- --- ----- -- - -------<br>-------- -- --- --- -- ----- ----------- ----- -----------<br>---- --- ---------- --- ---- --- -- ----------,311613.2000000477,311612.39999985695,311088.912,311101.39999985695,311105.573,311622.084,,28,seems
screen,html.Screen,2_3_1_0_1_29,2022-02-03T14:29:18.235Z,,,,,,,,,,,,,,,,,51,,,,,,,,,,,,,,726.3159998569754,,response,,,,13,A,,,,,,Space,keypress(Space),,,,silence,,,,-------- -------- --- --- ---- --- --- ------ -- --------<br>---- --------- --- ------- ------------ ---------- ---------<br>--- ---------- ------- ---------- ------- -- -------- ----<br>---- --- ------ ----- poised -- ---- --- ----- -- - -------<br>-------- -- --- --- -- ----- ----------- ----- -----------<br>---- --- ---------- --- ---- --- -- ----------,312348.89999985695,312348.39999985695,311605.421,311613.39999985695,311622.084,312355.174,,29,poised
screen,html.Screen,2_3_1_0_1_30,2022-02-03T14:29:18.683Z,,,,,,,,,,,,,,,,,51,,,,,,,,,,,,,,441.2259998569498,,response,,,,13,A,,,,,,Space,keypress(Space),,,,silence,,,,-------- -------- --- --- ---- --- --- ------ -- --------<br>---- --------- --- ------- ------------ ---------- ---------<br>--- ---------- ------- ---------- ------- -- -------- ----<br>---- --- ------ ----- ------ to ---- --- ----- -- - -------<br>-------- -- --- --- -- ----- ----------- ----- -----------<br>---- --- ---------- --- ---- --- -- ----------,312797.2000000477,312796.39999985695,312338.499,312349,312355.174,312805.025,,30,to
screen,html.Screen,2_3_1_0_1_31,2022-02-03T14:29:19.156Z,,,,,,,,,,,,,,,,,51,,,,,,,,,,,,,,463.4749999999767,,response,,,,13,A,,,,,,Space,keypress(Space),,,,silence,,,,-------- -------- --- --- ---- --- --- ------ -- --------<br>---- --------- --- ------- ------------ ---------- ---------<br>--- ---------- ------- ---------- ------- -- -------- ----<br>---- --- ------ ----- ------ -- join --- ----- -- - -------<br>-------- -- --- --- -- ----- ----------- ----- -----------<br>---- --- ---------- --- ---- --- -- ----------,313269.2999999523,313268.5,312788.332,312797.39999985695,312805.025,313271.539,,31,join
screen,html.Screen,2_3_1_0_1_32,2022-02-03T14:29:19.812Z,,,,,,,,,,,,,,,,,51,,,,,,,,,,,,,,652.9610000000102,,response,,,,13,A,,,,,,Space,keypress(Space),,,,silence,,,,-------- -------- --- --- ---- --- --- ------ -- --------<br>---- --------- --- ------- ------------ ---------- ---------<br>--- ---------- ------- ---------- ------- -- -------- ----<br>---- --- ------ ----- ------ -- ---- the ----- -- - -------<br>-------- -- --- --- -- ----- ----------- ----- -----------<br>---- --- ---------- --- ---- --- -- ----------,313925.2999999523,313924.5,313254.866,313269.5,313271.539,313937.988,,32,the
screen,html.Screen,2_3_1_0_1_33,2022-02-03T14:29:20.307Z,,,,,,,,,,,,,,,,,51,,,,,,,,,,,,,,482.41199985693675,,response,,,,13,A,,,,,,Space,keypress(Space),,,,silence,,,,-------- -------- --- --- ---- --- --- ------ -- --------<br>---- --------- --- ------- ------------ ---------- ---------<br>--- ---------- ------- ---------- ------- -- -------- ----<br>---- --- ------ ----- ------ -- ---- --- House -- - -------<br>-------- -- --- --- -- ----- ----------- ----- -----------<br>---- --- ---------- --- ---- --- -- ----------,314421.2000000477,314420.39999985695,313921.327,313925.5,313937.988,314437.821,,33,House
screen,html.Screen,2_3_1_0_1_34,2022-02-03T14:29:20.595Z,,,,,,,,,,,,,,,,,51,,,,,,,,,,,,,,270.5789998569526,,response,,,,13,A,,,,,,Space,keypress(Space),,,,silence,,,,-------- -------- --- --- ---- --- --- ------ -- --------<br>---- --------- --- ------- ------------ ---------- ---------<br>--- ---------- ------- ---------- ------- -- -------- ----<br>---- --- ------ ----- ------ -- ---- --- ----- in - -------<br>-------- -- --- --- -- ----- ----------- ----- -----------<br>---- --- ---------- --- ---- --- -- ----------,314709.2000000477,314708.39999985695,314421.151,314421.39999985695,314437.821,314721.07,,34,in
screen,html.Screen,2_3_1_0_1_35,2022-02-03T14:29:21.013Z,,,,,,,,,,,,,,,,,51,,,,,,,,,,,,,,403.5299999046256,,response,,,,13,A,,,,,,Space,keypress(Space),,,,silence,,,,-------- -------- --- --- ---- --- --- ------ -- --------<br>---- --------- --- ------- ------------ ---------- ---------<br>--- ---------- ------- ---------- ------- -- -------- ----<br>---- --- ------ ----- ------ -- ---- --- ----- -- a -------<br>-------- -- --- --- -- ----- ----------- ----- -----------<br>---- --- ---------- --- ---- --- -- ----------,315126.59999990463,315124.59999990463,314704.395,314709.39999985695,314721.07,315137.615,,35,a
screen,html.Screen,2_3_1_0_1_36,2022-02-03T14:29:21.499Z,,,,,,,,,,,,,,,,,51,,,,,,,,,,,,,,474.8850000000093,,response,,,,13,A,,,,,,Space,keypress(Space),,,,silence,,,,-------- -------- --- --- ---- --- --- ------ -- --------<br>---- --------- --- ------- ------------ ---------- ---------<br>--- ---------- ------- ---------- ------- -- -------- ----<br>---- --- ------ ----- ------ -- ---- --- ----- -- - massive<br>-------- -- --- --- -- ----- ----------- ----- -----------<br>---- --- ---------- --- ---- --- -- ----------,315613.2000000477,315612.5,315120.955,315126.7000000477,315137.615,315620.736,,36,massive
screen,html.Screen,2_3_1_0_1_37,2022-02-03T14:29:22.043Z,,,,,,,,,,,,,,,,,51,,,,,,,,,,,,,,535.7640000000247,,response,,,,13,A,,,,,,Space,keypress(Space),,,,silence,,,,-------- -------- --- --- ---- --- --- ------ -- --------<br>---- --------- --- ------- ------------ ---------- ---------<br>--- ---------- ------- ---------- ------- -- -------- ----<br>---- --- ------ ----- ------ -- ---- --- ----- -- - -------<br>overhaul -- --- --- -- ----- ----------- ----- -----------<br>---- --- ---------- --- ---- --- -- ----------,316157.2000000477,316156.5,315604.097,315613.39999985695,315620.736,316170.589,,37,overhaul
screen,html.Screen,2_3_1_0_1_38,2022-02-03T14:29:22.491Z,,,,,,,,,,,,,,,,,51,,,,,,,,,,,,,,433.9110000000219,,response,,,,13,A,,,,,,Space,keypress(Space),,,,silence,,,,-------- -------- --- --- ---- --- --- ------ -- --------<br>---- --------- --- ------- ------------ ---------- ---------<br>--- ---------- ------- ---------- ------- -- -------- ----<br>---- --- ------ ----- ------ -- ---- --- ----- -- - -------<br>-------- of --- --- -- ----- ----------- ----- -----------<br>---- --- ---------- --- ---- --- -- ----------,316605.2000000477,316604.5,316153.933,316157.39999985695,316170.589,316620.461,,38,of
screen,html.Screen,2_3_1_0_1_39,2022-02-03T14:29:22.891Z,,,,,,,,,,,,,,,,,51,,,,,,,,,,,,,,384.03899999998976,,response,,,,13,A,,,,,,Space,keypress(Space),,,,silence,,,,-------- -------- --- --- ---- --- --- ------ -- --------<br>---- --------- --- ------- ------------ ---------- ---------<br>--- ---------- ------- ---------- ------- -- -------- ----<br>---- --- ------ ----- ------ -- ---- --- ----- -- - -------<br>-------- -- the --- -- ----- ----------- ----- -----------<br>---- --- ---------- --- ---- --- -- ----------,317005.2000000477,317004.5,316603.769,316605.5,316620.461,317020.336,,39,the
