sender,sender_type,sender_id,timestamp,meta,,Blues,Classical,Country,Dance,Electronic,Folk,Gospel,Hip-Hop,Jazz,Latin,Musical/Film,New-age,Pop,Prolific_id,Provo_ID,R&B,Rap,Reggae,Religious,Rock,Soul,Swing,Traditional,age,artist_name,correct,correctResponse,distraction,duration,education,ended_on,familiarity,gender,headphone_check_performance,item,list,music_frequency,offensiveness,pleasantness,position_correct,preference,response,response_action,snippet_file,song_name,song_rating,sound,stimulus_1,stimulus_2,stimulus_3,text,time_commit,time_end,time_render,time_run,time_show,time_switch,url,word,word_ID
Prolific ID,html.Form,0,2022-02-16T09:14:48.468Z,"{""labjs_version"":""20.2.2"",""labjs_build"":{""flavor"":""production"",""commit"":""a25486e0c714a0ae2ce03ff94b7bb6896854dcfa""},""location"":""https://run.pavlovia.org/mvasilev/prolific2_music_c/"",""userAgent"":""Mozilla/5.0 (Macintosh; Intel Mac OS X 10_15_7) AppleWebKit/537.36 (KHTML, like Gecko) Chrome/98.0.4758.80 Safari/537.36"",""platform"":""MacIntel"",""language"":""en-GB"",""locale"":""en-GB"",""timeZone"":""Europe/London"",""timezoneOffset"":0,""screen_width"":2560,""screen_height"":1440,""scroll_width"":1811,""scroll_height"":903,""window_innerWidth"":1811,""window_innerHeight"":951,""devicePixelRatio"":1}",,,,,,,,,,,,,,,60659fa1c158d333d9ec89b8,,,,,,,,,,,,,,,3474.9890000001396,,form submission,,,,,,,,,,,,,,,,,,,,,9880.200000000186,9879.90000000014,6388.231,6403,6404.911,9891.031,{},,
Introduction,html.Screen,1_0,2022-02-16T09:14:55.106Z,,,,,,,,,,,,,,,,,,,,,,,,,,,,,,,6624.869000000139,,response,,,,,,,,,,,continue,click button,,,,,,,,,16518.300000000047,16515.90000000014,9874.351,9880.300000000047,9891.031,16529.671,,,
Volume calibration,html.Screen,1_1,2022-02-16T09:15:07.401Z,,,,,,,,,,,,,,,,,,,,,,,,,,,,,,,12283.029000000188,,response,,,,,,,,,,,continue,click button,,,,,,,,,28814.200000000186,28812.700000000186,16512.991,16518.40000000014,16529.671,28822.831,,,
Task instructions,html.Screen,1_2,2022-02-16T09:15:15.265Z,,,,,,,,,,,,,,,,,,,,,,,,,,,,,,,7853.969000000048,,response,,,,,,,,,,,continue,click button,,,,,,,,,36678.10000000009,36676.80000000005,28806.151,28814.300000000047,28822.831,36679.111,,,
Sounds,html.Screen,1_3_0_0,2022-02-16T09:15:19.506Z,,,,,,,,,,,,,,,,,,,,,,,,,,,,,,,4253.4000000000015,,timeout,,,,,,,,,2,,,,,,,,O,S,I,,40918.90000000014,40915.831,36662.431,36678.30000000005,36679.111,40932.511,,,
Judgement,html.Screen,1_3_0_1,2022-02-16T09:15:22.004Z,,,,,,,,,,,,,,,,,,,,,,,,,,,,true,2,,2483.4890000000014,,response,,,,,,,,,2,,2,click #choice-2,,,,,O,S,I,,43417.40000000014,43416,40915.831,40919.10000000009,40932.511,43417.831,,,
Trial,flow.Sequence,1_3_0,2022-02-16T09:15:22.004Z,,,,,,,,,,,,,,,,,,,,,,,,,,,,,,,6736.889000000003,,completion,,,,,,,,,2,,,,,,,,O,S,I,,43417.60000000009,43416,36662.431,36678.30000000005,36679.111,43417.831,,,
Sounds,html.Screen,1_3_1_0,2022-02-16T09:15:26.243Z,,,,,,,,,,,,,,,,,,,,,,,,,,,,,,,4253.4000000000015,,timeout,,,,,,,,,1,,,,,,,,S,O,I,,47657,47654.551,43401.151,43417.60000000009,43417.831,47671.231,,,
Judgement,html.Screen,1_3_1_1,2022-02-16T09:15:27.055Z,,,,,,,,,,,,,,,,,,,,,,,,,,,,true,1,,796.1690000001399,,response,,,,,,,,,1,,1,click #choice-1,,,,,S,O,I,,48468.80000000005,48467.40000000014,47654.551,47657.10000000009,47671.231,48471.871,,,
Trial,flow.Sequence,1_3_1,2022-02-16T09:15:27.055Z,,,,,,,,,,,,,,,,,,,,,,,,,,,,,,,5049.569000000141,,completion,,,,,,,,,1,,,,,,,,S,O,I,,48468.90000000014,48467.40000000014,43401.151,43417.60000000009,43417.831,48471.871,,,
Sounds,html.Screen,1_3_2_0,2022-02-16T09:15:31.297Z,,,,,,,,,,,,,,,,,,,,,,,,,,,,,,,4253.4000000000015,,timeout,,,,,,,,,2,,,,,,,,I,S,O,,52711,52708.591,48455.191,48469,48471.871,52725.271,,,
Judgement,html.Screen,1_3_2_1,2022-02-16T09:15:33.029Z,,,,,,,,,,,,,,,,,,,,,,,,,,,,true,2,,1716.2289999999994,,response,,,,,,,,,2,,2,click #choice-2,,,,,I,S,O,,54442.700000000186,54441.5,52708.591,52711.10000000009,52725.271,54443.311,,,
Trial,flow.Sequence,1_3_2,2022-02-16T09:15:33.029Z,,,,,,,,,,,,,,,,,,,,,,,,,,,,,,,5969.629000000001,,completion,,,,,,,,,2,,,,,,,,I,S,O,,54442.90000000014,54441.5,48455.191,48469,48471.871,54443.311,,,
Sounds,html.Screen,1_3_3_0,2022-02-16T09:15:37.267Z,,,,,,,,,,,,,,,,,,,,,,,,,,,,,,,4253.4000000000015,,timeout,,,,,,,,,3,,,,,,,,I,O,S,,58681.30000000005,58680.031,54426.631,54443,54443.311,58696.711,,,
Judgement,html.Screen,1_3_3_1,2022-02-16T09:15:37.810Z,,,,,,,,,,,,,,,,,,,,,,,,,,,,true,3,,526.0890000000436,,response,,,,,,,,,3,,3,click #choice-3,,,,,I,O,S,,59224.10000000009,59222.80000000005,58680.031,58681.40000000014,58696.711,59230.471,,,
Trial,flow.Sequence,1_3_3,2022-02-16T09:15:37.810Z,,,,,,,,,,,,,,,,,,,,,,,,,,,,,,,4779.489000000045,,completion,,,,,,,,,3,,,,,,,,I,O,S,,59224.200000000186,59222.80000000005,54426.631,54442.90000000014,54443.311,59230.471,,,
Sounds,html.Screen,1_3_4_0,2022-02-16T09:15:42.056Z,,,,,,,,,,,,,,,,,,,,,,,,,,,,,,,4253.4000000000015,,timeout,,,,,,,,,1,,,,,,,,S,I,O,,63470,63467.191,59213.791,59224.30000000005,59230.471,63483.871,,,
Judgement,html.Screen,1_3_4_1,2022-02-16T09:15:42.636Z,,,,,,,,,,,,,,,,,,,,,,,,,,,,true,1,,565.4290000000474,,response,,,,,,,,,1,,1,click #choice-1,,,,,S,I,O,,64050.60000000009,64049.30000000005,63467.191,63470,63483.871,64050.991,,,
Trial,flow.Sequence,1_3_4,2022-02-16T09:15:42.636Z,,,,,,,,,,,,,,,,,,,,,,,,,,,,,,,4818.829000000049,,completion,,,,,,,,,1,,,,,,,,S,I,O,,64050.80000000005,64049.30000000005,59213.791,59224.30000000005,59230.471,64050.991,,,
Sounds,html.Screen,1_3_5_0,2022-02-16T09:15:46.875Z,,,,,,,,,,,,,,,,,,,,,,,,,,,,,,,4253.4000000000015,,timeout,,,,,,,,,3,,,,,,,,O,I,S,,68289.30000000005,68287.711,64034.311,64050.80000000005,64050.991,68304.391,,,
Judgement,html.Screen,1_3_5_1,2022-02-16T09:15:47.316Z,,,,,,,,,,,,,,,,,,,,,,,,,,,,true,3,,424.50900000013644,,response,,,,,,,,,3,,3,click #choice-3,,,,,O,I,S,,68730.30000000005,68728.90000000014,68287.711,68289.40000000014,68304.391,68738.071,,,
Trial,flow.Sequence,1_3_5,2022-02-16T09:15:47.316Z,,,,,,,,,,,,,,,,,,,,,,,,,,,,,,,4677.909000000138,,completion,,,,,,,,,3,,,,,,,,O,I,S,,68730.40000000014,68728.90000000014,64034.311,64050.80000000005,64050.991,68738.071,,,
Task,flow.Loop,1_3,2022-02-16T09:15:47.318Z,,,,,,,,,,,,,,,,,,,,,,,,,,,,,,,32049.789000000143,,completion,,,1,,,,,,,,,,,,,,,,,,68732.90000000014,68728.90000000014,36662.431,36678.200000000186,36679.111,68738.071,,,
Trap,html.Screen,1_4,2022-02-16T09:15:47.319Z,,,,,,,,,,,,,,,,,,,,,,,,,,,,,,,NaN,,skipped,,,,,,,,,,,,,,,,,,,,,68733.5,68728.90000000014,,68733.40000000014,,68738.071,,,
Thanks,html.Screen,1_5,2022-02-16T09:19:18.581Z,,,,,,,,,,,,,,,,,,,,,,,,,,,,,,,211264.22900000005,,response,,,,,,,,,,,continue,click button,,,,,,,,,280003.5,280002.30000000005,68721.391,68733.5,68738.071,283626.511,,,
Headphone screening,flow.Sequence,1,2022-02-16T09:19:18.581Z,,,,,,,,,,,,,,,,,,,,,,,,,,,,,,,270111.26900000003,,completion,,,,,,,,,,,,,,,,,,,,,280003.7000000002,280002.30000000005,9874.351,9880.300000000047,9891.031,283626.511,,,
Instructions,html.Page,2_0,2022-02-16T09:19:41.273Z,,,,,,,,,,,,,,,,,,,,,,,,,,,,,,,19070.089000000095,,form submission,,,,,,,,,,,,,,,,,,,,,302696.8000000003,302696.6000000001,283609.831,283612.6000000001,283626.511,302706.426,,,
Holding screen,html.Screen,2_1_0_0,2022-02-16T09:19:51.276Z,,,,,,,,,,,,,,,,,,,,,,,,,,,,,,,10008,,timeout,,,,,,,,,,,,,,,,,,,,,312700.2000000002,312697.746,302689.746,302696.8000000003,302706.426,312714.426,,,
screen,html.Screen,2_1_0_1_0,2022-02-16T09:19:53.087Z,,,,,,,,,,,,,,,,,53,,,,,,,,,,,,,,1791.8740000003017,,response,,,,99,,,,,,,Space,keypress(Space),,,,,,,,When -- ----- -- ------ - ------- --- ----------<br>------------- ------ ------ ---- ---- ------- ----- -- ----<br>-------- ------- -- ---------- --- - --- ----- ----- ----<br>---- --- --- ----- --- ---- ---- ------- ----- ---- -------<br>--- --- -- ----- -- --- ---- -- --- ---- -- ------ ------<br>--- ----- -- ----,314510.5,314506.3000000003,312697.746,312700.2000000002,312714.426,314515.866,,0,When
screen,html.Screen,2_1_0_1_1,2022-02-16T09:19:53.928Z,,,,,,,,,,,,,,,,,53,,,,,,,,,,,,,,834.2340000001132,,response,,,,99,,,,,,,Space,keypress(Space),,,,,,,,---- it ----- -- ------ - ------- --- ----------<br>------------- ------ ------ ---- ---- ------- ----- -- ----<br>-------- ------- -- ---------- --- - --- ----- ----- ----<br>---- --- --- ----- --- ---- ---- ------- ----- ---- -------<br>--- --- -- ----- -- --- ---- -- --- ---- -- ------ ------<br>--- ----- -- ----,315351.8000000003,315350.1000000001,314499.186,314510.5,314515.866,315366.546,,1,it
screen,html.Screen,2_1_0_1_2,2022-02-16T09:19:54.739Z,,,,,,,,,,,,,,,,,53,,,,,,,,,,,,,,793.5540000001201,,response,,,,99,,,,,,,Space,keypress(Space),,,,,,,,---- -- comes -- ------ - ------- --- ----------<br>------------- ------ ------ ---- ---- ------- ----- -- ----<br>-------- ------- -- ---------- --- - --- ----- ----- ----<br>---- --- --- ----- --- ---- ---- ------- ----- ---- -------<br>--- --- -- ----- -- --- ---- -- --- ---- -- ------ ------<br>--- ----- -- ----,316163.2000000002,316160.1000000001,315349.866,315351.8000000003,315366.546,316167.186,,2,comes
screen,html.Screen,2_1_0_1_3,2022-02-16T09:19:55.244Z,,,,,,,,,,,,,,,,,53,,,,,,,,,,,,,,499.31400000001304,,response,,,,99,,,,,,,Space,keypress(Space),,,,,,,,---- -- ----- to ------ - ------- --- ----------<br>------------- ------ ------ ---- ---- ------- ----- -- ----<br>-------- ------- -- ---------- --- - --- ----- ----- ----<br>---- --- --- ----- --- ---- ---- ------- ----- ---- -------<br>--- --- -- ----- -- --- ---- -- --- ---- -- ------ ------<br>--- ----- -- ----,316668.1000000001,316666.5,316150.506,316163.3999999999,316167.186,316684.266,,3,to
screen,html.Screen,2_1_0_1_4,2022-02-16T09:19:55.673Z,,,,,,,,,,,,,,,,,53,,,,,,,,,,,,,,409.53400000027614,,response,,,,99,,,,,,,Space,keypress(Space),,,,,,,,---- -- ----- -- having - ------- --- ----------<br>------------- ------ ------ ---- ---- ------- ----- -- ----<br>-------- ------- -- ---------- --- - --- ----- ----- ----<br>---- --- --- ----- --- ---- ---- ------- ----- ---- -------<br>--- --- -- ----- -- --- ---- -- --- ---- -- ------ ------<br>--- ----- -- ----,317097,317093.8000000003,316667.586,316668.1000000001,316684.266,317101.266,,4,having
screen,html.Screen,2_1_0_1_5,2022-02-16T09:19:56.099Z,,,,,,,,,,,,,,,,,53,,,,,,,,,,,,,,420.3340000000899,,response,,,,99,,,,,,,Space,keypress(Space),,,,,,,,---- -- ----- -- ------ a ------- --- ----------<br>------------- ------ ------ ---- ---- ------- ----- -- ----<br>-------- ------- -- ---------- --- - --- ----- ----- ----<br>---- --- --- ----- --- ---- ---- ------- ----- ---- -------<br>--- --- -- ----- -- --- ---- -- --- ---- -- ------ ------<br>--- ----- -- ----,317523.2000000002,317521.6000000001,317084.586,317097,317101.266,317534.946,,5,a
screen,html.Screen,2_1_0_1_6,2022-02-16T09:19:56.708Z,,,,,,,,,,,,,,,,,53,,,,,,,,,,,,,,594.0540000000037,,response,,,,99,,,,,,,Space,keypress(Space),,,,,,,,---- -- ----- -- ------ - lasting --- ----------<br>------------- ------ ------ ---- ---- ------- ----- -- ----<br>-------- ------- -- ---------- --- - --- ----- ----- ----<br>---- --- --- ----- --- ---- ---- ------- ----- ---- -------<br>--- --- -- ----- -- --- ---- -- --- ---- -- ------ ------<br>--- ----- -- ----,318132.2000000002,318129,317518.266,317523.2000000002,317534.946,318135.426,,6,lasting
screen,html.Screen,2_1_0_1_7,2022-02-16T09:19:57.112Z,,,,,,,,,,,,,,,,,53,,,,,,,,,,,,,,398.57400000002235,,response,,,,99,,,,,,,Space,keypress(Space),,,,,,,,---- -- ----- -- ------ - ------- and ----------<br>------------- ------ ------ ---- ---- ------- ----- -- ----<br>-------- ------- -- ---------- --- - --- ----- ----- ----<br>---- --- --- ----- --- ---- ---- ------- ----- ---- -------<br>--- --- -- ----- -- --- ---- -- --- ---- -- ------ ------<br>--- ----- -- ----,318535.7000000002,318534,318118.746,318132.2000000002,318135.426,318552.426,,7,and
screen,html.Screen,2_1_0_1_8,2022-02-16T09:19:57.664Z,,,,,,,,,,,,,,,,,53,,,,,,,,,,,,,,532.8740000003017,,response,,,,99,,,,,,,Space,keypress(Space),,,,,,,,---- -- ----- -- ------ - ------- --- fulfilling<br>------------- ------ ------ ---- ---- ------- ----- -- ----<br>-------- ------- -- ---------- --- - --- ----- ----- ----<br>---- --- --- ----- --- ---- ---- ------- ----- ---- -------<br>--- --- -- ----- -- --- ---- -- --- ---- -- ------ ------<br>--- ----- -- ----,319088.3000000003,319085.3000000003,318535.746,318535.7000000002,318552.426,319102.866,,8,fulfilling
screen,html.Screen,2_1_0_1_9,2022-02-16T09:19:58.124Z,,,,,,,,,,,,,,,,,53,,,,,,,,,,,,,,443.63400000002,,response,,,,99,,,,,,,Space,keypress(Space),,,,,,,,"---- -- ----- -- ------ - ------- --- ----------<br>relationship, ------ ------ ---- ---- ------- ----- -- ----<br>-------- ------- -- ---------- --- - --- ----- ----- ----<br>---- --- --- ----- --- ---- ---- ------- ----- ---- -------<br>--- --- -- ----- -- --- ---- -- --- ---- -- ------ ------<br>--- ----- -- ----",319548,319546.5,319086.186,319088.3000000003,319102.866,319553.226,,9,"relationship,"
screen,html.Screen,2_1_0_1_10,2022-02-16T09:19:58.744Z,,,,,,,,,,,,,,,,,53,,,,,,,,,,,,,,612.1739999998827,,response,,,,99,,,,,,,Space,keypress(Space),,,,,,,,---- -- ----- -- ------ - ------- --- ----------<br>------------- common ------ ---- ---- ------- ----- -- ----<br>-------- ------- -- ---------- --- - --- ----- ----- ----<br>---- --- --- ----- --- ---- ---- ------- ----- ---- -------<br>--- --- -- ----- -- --- ---- -- --- ---- -- ------ ------<br>--- ----- -- ----,320168.3999999999,320165.3999999999,319536.546,319548.1000000001,319553.226,320170.386,,10,common
screen,html.Screen,2_1_0_1_11,2022-02-16T09:19:59.227Z,,,,,,,,,,,,,,,,,53,,,,,,,,,,,,,,478.71400000009453,,response,,,,99,,,,,,,Space,keypress(Space),,,,,,,,---- -- ----- -- ------ - ------- --- ----------<br>------------- ------ wisdom ---- ---- ------- ----- -- ----<br>-------- ------- -- ---------- --- - --- ----- ----- ----<br>---- --- --- ----- --- ---- ---- ------- ----- ---- -------<br>--- --- -- ----- -- --- ---- -- --- ---- -- ------ ------<br>--- ----- -- ----,320650.8000000003,320649.1000000001,320153.706,320168.3999999999,320170.386,320654.106,,11,wisdom
screen,html.Screen,2_1_0_1_12,2022-02-16T09:19:59.701Z,,,,,,,,,,,,,,,,,53,,,,,,,,,,,,,,467.5940000001574,,response,,,,99,,,,,,,Space,keypress(Space),,,,,,,,---- -- ----- -- ------ - ------- --- ----------<br>------------- ------ ------ says ---- ------- ----- -- ----<br>-------- ------- -- ---------- --- - --- ----- ----- ----<br>---- --- --- ----- --- ---- ---- ------- ----- ---- -------<br>--- --- -- ----- -- --- ---- -- --- ---- -- ------ ------<br>--- ----- -- ----,321124.8000000003,321121.7000000002,320637.426,320650.8000000003,320654.106,321137.826,,12,says
screen,html.Screen,2_1_0_1_13,2022-02-16T09:20:00.059Z,,,,,,,,,,,,,,,,,53,,,,,,,,,,,,,,343.87400000018533,,response,,,,99,,,,,,,Space,keypress(Space),,,,,,,,---- -- ----- -- ------ - ------- --- ----------<br>------------- ------ ------ ---- that ------- ----- -- ----<br>-------- ------- -- ---------- --- - --- ----- ----- ----<br>---- --- --- ----- --- ---- ---- ------- ----- ---- -------<br>--- --- -- ----- -- --- ---- -- --- ---- -- ------ ------<br>--- ----- -- ----,321483.3000000003,321481.7000000002,321121.146,321124.8000000003,321137.826,321488.106,,13,that
screen,html.Screen,2_1_0_1_14,2022-02-16T09:20:00.533Z,,,,,,,,,,,,,,,,,53,,,,,,,,,,,,,,466.0940000001574,,response,,,,99,,,,,,,Space,keypress(Space),,,,,,,,---- -- ----- -- ------ - ------- --- ----------<br>------------- ------ ------ ---- ---- feeling ----- -- ----<br>-------- ------- -- ---------- --- - --- ----- ----- ----<br>---- --- --- ----- --- ---- ---- ------- ----- ---- -------<br>--- --- -- ----- -- --- ---- -- --- ---- -- ------ ------<br>--- ----- -- ----,321957.3999999999,321954.2000000002,321471.426,321483.3000000003,321488.106,321971.826,,14,feeling
screen,html.Screen,2_1_0_1_15,2022-02-16T09:20:01.060Z,,,,,,,,,,,,,,,,,53,,,,,,,,,,,,,,511.17399999999907,,response,,,,99,,,,,,,Space,keypress(Space),,,,,,,,---- -- ----- -- ------ - ------- --- ----------<br>------------- ------ ------ ---- ---- ------- close -- ----<br>-------- ------- -- ---------- --- - --- ----- ----- ----<br>---- --- --- ----- --- ---- ---- ------- ----- ---- -------<br>--- --- -- ----- -- --- ---- -- --- ---- -- ------ ------<br>--- ----- -- ----,322484.5,322483,321955.146,321957.5,321971.826,322488.906,,15,close
screen,html.Screen,2_1_0_1_16,2022-02-16T09:20:01.478Z,,,,,,,,,,,,,,,,,53,,,,,,,,,,,,,,410.29400000016904,,response,,,,99,,,,,,,Space,keypress(Space),,,,,,,,---- -- ----- -- ------ - ------- --- ----------<br>------------- ------ ------ ---- ---- ------- ----- to ----<br>-------- ------- -- ---------- --- - --- ----- ----- ----<br>---- --- --- ----- --- ---- ---- ------- ----- ---- -------<br>--- --- -- ----- -- --- ---- -- --- ---- -- ------ ------<br>--- ----- -- ----,322902.2000000002,322899.2000000002,322472.226,322484.6000000001,322488.906,322905.906,,16,to
screen,html.Screen,2_1_0_1_17,2022-02-16T09:20:01.837Z,,,,,,,,,,,,,,,,,53,,,,,,,,,,,,,,353.29400000016904,,response,,,,99,,,,,,,Space,keypress(Space),,,,,,,,---- -- ----- -- ------ - ------- --- ----------<br>------------- ------ ------ ---- ---- ------- ----- -- your<br>-------- ------- -- ---------- --- - --- ----- ----- ----<br>---- --- --- ----- --- ---- ---- ------- ----- ---- -------<br>--- --- -- ----- -- --- ---- -- --- ---- -- ------ ------<br>--- ----- -- ----,323260.8000000003,323259.2000000002,322889.226,322902.3000000003,322905.906,323272.866,,17,your
screen,html.Screen,2_1_0_1_18,2022-02-16T09:20:02.333Z,,,,,,,,,,,,,,,,,53,,,,,,,,,,,,,,481.4340000002994,,response,,,,99,,,,,,,Space,keypress(Space),,,,,,,,---- -- ----- -- ------ - ------- --- ----------<br>------------- ------ ------ ---- ---- ------- ----- -- ----<br>romantic ------- -- ---------- --- - --- ----- ----- ----<br>---- --- --- ----- --- ---- ---- ------- ----- ---- -------<br>--- --- -- ----- -- --- ---- -- --- ---- -- ------ ------<br>--- ----- -- ----,323757.3000000003,323754.3000000003,323256.186,323260.8999999999,323272.866,323773.266,,18,romantic
screen,html.Screen,2_1_0_1_19,2022-02-16T09:20:02.737Z,,,,,,,,,,,,,,,,,53,,,,,,,,,,,,,,386.03400000027614,,response,,,,99,,,,,,,Space,keypress(Space),,,,,,,,---- -- ----- -- ------ - ------- --- ----------<br>------------- ------ ------ ---- ---- ------- ----- -- ----<br>-------- partner -- ---------- --- - --- ----- ----- ----<br>---- --- --- ----- --- ---- ---- ------- ----- ---- -------<br>--- --- -- ----- -- --- ---- -- --- ---- -- ------ ------<br>--- ----- -- ----,324160.8999999999,324159.3000000003,323756.586,323757.5,323773.266,324173.586,,19,partner
screen,html.Screen,2_1_0_1_20,2022-02-16T09:20:03.166Z,,,,,,,,,,,,,,,,,53,,,,,,,,,,,,,,413.21400000026915,,response,,,,99,,,,,,,Space,keypress(Space),,,,,,,,---- -- ----- -- ------ - ------- --- ----------<br>------------- ------ ------ ---- ---- ------- ----- -- ----<br>-------- ------- is ---------- --- - --- ----- ----- ----<br>---- --- --- ----- --- ---- ---- ------- ----- ---- -------<br>--- --- -- ----- -- --- ---- -- --- ---- -- ------ ------<br>--- ----- -- ----,324590.1000000001,324586.8000000003,324156.906,324161,324173.586,324590.586,,20,is
screen,html.Screen,2_1_0_1_21,2022-02-16T09:20:04.795Z,,,,,,,,,,,,,,,,,53,,,,,,,,,,,,,,1627.4139999999898,,response,,,,99,,,,,,,Space,keypress(Space),,,,,,,,---- -- ----- -- ------ - ------- --- ----------<br>------------- ------ ------ ---- ---- ------- ----- -- ----<br>-------- ------- -- paramount. --- - --- ----- ----- ----<br>---- --- --- ----- --- ---- ---- ------- ----- ---- -------<br>--- --- -- ----- -- --- ---- -- --- ---- -- ------ ------<br>--- ----- -- ----,326219.7000000002,326218,324573.906,324590.1000000001,324590.586,326225.226,,21,paramount.
screen,html.Screen,2_1_0_1_22,2022-02-16T09:20:05.314Z,,,,,,,,,,,,,,,,,53,,,,,,,,,,,,,,510.3740000000689,,response,,,,99,,,,,,,Space,keypress(Space),,,,,,,,---- -- ----- -- ------ - ------- --- ----------<br>------------- ------ ------ ---- ---- ------- ----- -- ----<br>-------- ------- -- ---------- But - --- ----- ----- ----<br>---- --- --- ----- --- ---- ---- ------- ----- ---- -------<br>--- --- -- ----- -- --- ---- -- --- ---- -- ------ ------<br>--- ----- -- ----,326738.7000000002,326735.6000000001,326208.546,326219.7000000002,326225.226,326742.306,,22,But
screen,html.Screen,2_1_0_1_23,2022-02-16T09:20:05.740Z,,,,,,,,,,,,,,,,,53,,,,,,,,,,,,,,420.6940000000177,,response,,,,99,,,,,,,Space,keypress(Space),,,,,,,,---- -- ----- -- ------ - ------- --- ----------<br>------------- ------ ------ ---- ---- ------- ----- -- ----<br>-------- ------- -- ---------- --- a --- ----- ----- ----<br>---- --- --- ----- --- ---- ---- ------- ----- ---- -------<br>--- --- -- ----- -- --- ---- -- --- ---- -- ------ ------<br>--- ----- -- ----,327164.8000000003,327163,326725.626,326738.7000000002,326742.306,327175.986,,23,a
screen,html.Screen,2_1_0_1_24,2022-02-16T09:20:06.124Z,,,,,,,,,,,,,,,,,53,,,,,,,,,,,,,,369.71400000021094,,response,,,,99,,,,,,,Space,keypress(Space),,,,,,,,---- -- ----- -- ------ - ------- --- ----------<br>------------- ------ ------ ---- ---- ------- ----- -- ----<br>-------- ------- -- ---------- --- - new ----- ----- ----<br>---- --- --- ----- --- ---- ---- ------- ----- ---- -------<br>--- --- -- ----- -- --- ---- -- --- ---- -- ------ ------<br>--- ----- -- ----,327548.8000000003,327545.7000000002,327159.306,327164.8000000003,327175.986,327559.626,,24,new
screen,html.Screen,2_1_0_1_25,2022-02-16T09:20:06.528Z,,,,,,,,,,,,,,,,,53,,,,,,,,,,,,,,391.074000000197,,response,,,,99,,,,,,,Space,keypress(Space),,,,,,,,---- -- ----- -- ------ - ------- --- ----------<br>------------- ------ ------ ---- ---- ------- ----- -- ----<br>-------- ------- -- ---------- --- - --- study ----- ----<br>---- --- --- ----- --- ---- ---- ------- ----- ---- -------<br>--- --- -- ----- -- --- ---- -- --- ---- -- ------ ------<br>--- ----- -- ----,327952.3000000003,327950.7000000002,327542.946,327548.8999999999,327559.626,327959.946,,25,study
screen,html.Screen,2_1_0_1_26,2022-02-16T09:20:06.901Z,,,,,,,,,,,,,,,,,53,,,,,,,,,,,,,,362.0540000000037,,response,,,,99,,,,,,,Space,keypress(Space),,,,,,,,---- -- ----- -- ------ - ------- --- ----------<br>------------- ------ ------ ---- ---- ------- ----- -- ----<br>-------- ------- -- ---------- --- - --- ----- finds ----<br>---- --- --- ----- --- ---- ---- ------- ----- ---- -------<br>--- --- -- ----- -- --- ---- -- --- ---- -- ------ ------<br>--- ----- -- ----,328325.2000000002,328322,327943.266,327952.3000000003,327959.946,328326.906,,26,finds
screen,html.Screen,2_1_0_1_27,2022-02-16T09:20:07.338Z,,,,,,,,,,,,,,,,,53,,,,,,,,,,,,,,433.79400000016904,,response,,,,99,,,,,,,Space,keypress(Space),,,,,,,,---- -- ----- -- ------ - ------- --- ----------<br>------------- ------ ------ ---- ---- ------- ----- -- ----<br>-------- ------- -- ---------- --- - --- ----- ----- that<br>---- --- --- ----- --- ---- ---- ------- ----- ---- -------<br>--- --- -- ----- -- --- ---- -- --- ---- -- ------ ------<br>--- ----- -- ----,328762.3999999999,328760.7000000002,328310.226,328325.2000000002,328326.906,328777.266,,27,that
screen,html.Screen,2_1_0_1_28,2022-02-16T09:20:07.801Z,,,,,,,,,,,,,,,,,53,,,,,,,,,,,,,,444.73399999999674,,response,,,,99,,,,,,,Space,keypress(Space),,,,,,,,---- -- ----- -- ------ - ------- --- ----------<br>------------- ------ ------ ---- ---- ------- ----- -- ----<br>-------- ------- -- ---------- --- - --- ----- ----- ----<br>it's --- --- ----- --- ---- ---- ------- ----- ---- -------<br>--- --- -- ----- -- --- ---- -- --- ---- -- ------ ------<br>--- ----- -- ----,329225.1000000001,329222,328760.586,328762.3999999999,328777.266,329227.626,,28,it's
screen,html.Screen,2_1_0_1_29,2022-02-16T09:20:08.272Z,,,,,,,,,,,,,,,,,53,,,,,,,,,,,,,,466.7739999999176,,response,,,,99,,,,,,,Space,keypress(Space),,,,,,,,---- -- ----- -- ------ - ------- --- ----------<br>------------- ------ ------ ---- ---- ------- ----- -- ----<br>-------- ------- -- ---------- --- - --- ----- ----- ----<br>---- not --- ----- --- ---- ---- ------- ----- ---- -------<br>--- --- -- ----- -- --- ---- -- --- ---- -- ------ ------<br>--- ----- -- ----,329696.1000000001,329694.3999999999,329210.946,329225.2000000002,329227.626,329711.346,,29,not
screen,html.Screen,2_1_0_1_30,2022-02-16T09:20:08.746Z,,,,,,,,,,,,,,,,,53,,,,,,,,,,,,,,455.65399999998044,,response,,,,99,,,,,,,Space,keypress(Space),,,,,,,,---- -- ----- -- ------ - ------- --- ----------<br>------------- ------ ------ ---- ---- ------- ----- -- ----<br>-------- ------- -- ---------- --- - --- ----- ----- ----<br>---- --- how ----- --- ---- ---- ------- ----- ---- -------<br>--- --- -- ----- -- --- ---- -- --- ---- -- ------ ------<br>--- ----- -- ----,330170,330167,329694.666,329696.2000000002,329711.346,330178.386,,30,how
screen,html.Screen,2_1_0_1_31,2022-02-16T09:20:09.149Z,,,,,,,,,,,,,,,,,53,,,,,,,,,,,,,,393.51399999990826,,response,,,,99,,,,,,,Space,keypress(Space),,,,,,,,---- -- ----- -- ------ - ------- --- ----------<br>------------- ------ ------ ---- ---- ------- ----- -- ----<br>-------- ------- -- ---------- --- - --- ----- ----- ----<br>---- --- --- close --- ---- ---- ------- ----- ---- -------<br>--- --- -- ----- -- --- ---- -- --- ---- -- ------ ------<br>--- ----- -- ----,330573.6000000001,330571.8999999999,330161.706,330170.1000000001,330178.386,330578.706,,31,close
screen,html.Screen,2_1_0_1_32,2022-02-16T09:20:09.623Z,,,,,,,,,,,,,,,,,53,,,,,,,,,,,,,,465.89400000008754,,response,,,,99,,,,,,,Space,keypress(Space),,,,,,,,---- -- ----- -- ------ - ------- --- ----------<br>------------- ------ ------ ---- ---- ------- ----- -- ----<br>-------- ------- -- ---------- --- - --- ----- ----- ----<br>---- --- --- ----- you ---- ---- ------- ----- ---- -------<br>--- --- -- ----- -- --- ---- -- --- ---- -- ------ ------<br>--- ----- -- ----,331047.6000000001,331044.6000000001,330562.026,330573.6000000001,330578.706,331062.426,,32,you
screen,html.Screen,2_1_0_1_33,2022-02-16T09:20:10.027Z,,,,,,,,,,,,,,,,,53,,,,,,,,,,,,,,387.1740000001155,,response,,,,99,,,,,,,Space,keypress(Space),,,,,,,,---- -- ----- -- ------ - ------- --- ----------<br>------------- ------ ------ ---- ---- ------- ----- -- ----<br>-------- ------- -- ---------- --- - --- ----- ----- ----<br>---- --- --- ----- --- feel ---- ------- ----- ---- -------<br>--- --- -- ----- -- --- ---- -- --- ---- -- ------ ------<br>--- ----- -- ----,331451.2000000002,331449.6000000001,331045.746,331047.8000000003,331062.426,331462.746,,33,feel
screen,html.Screen,2_1_0_1_34,2022-02-16T09:20:10.422Z,,,,,,,,,,,,,,,,,53,,,,,,,,,,,,,,380.55400000029476,,response,,,,99,,,,,,,Space,keypress(Space),,,,,,,,---- -- ----- -- ------ - ------- --- ----------<br>------------- ------ ------ ---- ---- ------- ----- -- ----<br>-------- ------- -- ---------- --- - --- ----- ----- ----<br>---- --- --- ----- --- ---- that ------- ----- ---- -------<br>--- --- -- ----- -- --- ---- -- --- ---- -- ------ ------<br>--- ----- -- ----,331846.3999999999,331843.3000000003,331446.066,331451.3000000003,331462.746,331863.066,,34,that
screen,html.Screen,2_1_0_1_35,2022-02-16T09:20:10.859Z,,,,,,,,,,,,,,,,,53,,,,,,,,,,,,,,419.13400000019465,,response,,,,99,,,,,,,Space,keypress(Space),,,,,,,,---- -- ----- -- ------ - ------- --- ----------<br>------------- ------ ------ ---- ---- ------- ----- -- ----<br>-------- ------- -- ---------- --- - --- ----- ----- ----<br>---- --- --- ----- --- ---- ---- matters ----- ---- -------<br>--- --- -- ----- -- --- ---- -- --- ---- -- ------ ------<br>--- ----- -- ----,332283.8000000003,332282.2000000002,331846.386,331846.5,331863.066,332296.746,,35,matters
screen,html.Screen,2_1_0_1_36,2022-02-16T09:20:11.592Z,,,,,,,,,,,,,,,,,53,,,,,,,,,,,,,,716.7540000000154,,response,,,,99,,,,,,,Space,keypress(Space),,,,,,,,"---- -- ----- -- ------ - ------- --- ----------<br>------------- ------ ------ ---- ---- ------- ----- -- ----<br>-------- ------- -- ---------- --- - --- ----- ----- ----<br>---- --- --- ----- --- ---- ---- ------- most, ---- -------<br>--- --- -- ----- -- --- ---- -- --- ---- -- ------ ------<br>--- ----- -- ----",333016.6000000001,333013.5,332280.066,332283.8999999999,332296.746,333030.666,,36,"most,"
screen,html.Screen,2_1_0_1_37,2022-02-16T09:20:12.041Z,,,,,,,,,,,,,,,,,53,,,,,,,,,,,,,,432.83399999997346,,response,,,,99,,,,,,,Space,keypress(Space),,,,,,,,---- -- ----- -- ------ - ------- --- ----------<br>------------- ------ ------ ---- ---- ------- ----- -- ----<br>-------- ------- -- ---------- --- - --- ----- ----- ----<br>---- --- --- ----- --- ---- ---- ------- ----- it's -------<br>--- --- -- ----- -- --- ---- -- --- ---- -- ------ ------<br>--- ----- -- ----,333465.1000000001,333463.5,333013.986,333016.7000000002,333030.666,333481.026,,37,it's
screen,html.Screen,2_1_0_1_38,2022-02-16T09:20:12.627Z,,,,,,,,,,,,,,,,,53,,,,,,,,,,,,,,567.3739999998943,,response,,,,99,,,,,,,Space,keypress(Space),,,,,,,,---- -- ----- -- ------ - ------- --- ----------<br>------------- ------ ------ ---- ---- ------- ----- -- ----<br>-------- ------- -- ---------- --- - --- ----- ----- ----<br>---- --- --- ----- --- ---- ---- ------- ----- ---- whether<br>--- --- -- ----- -- --- ---- -- --- ---- -- ------ ------<br>--- ----- -- ----,334051.6000000001,334048.3999999999,333464.346,333465.2000000002,333481.026,334064.826,,38,whether
screen,html.Screen,2_1_0_1_39,2022-02-16T09:20:13.042Z,,,,,,,,,,,,,,,,,53,,,,,,,,,,,,,,400.07399999990594,,response,,,,99,,,,,,,Space,keypress(Space),,,,,,,,---- -- ----- -- ------ - ------- --- ----------<br>------------- ------ ------ ---- ---- ------- ----- -- ----<br>-------- ------- -- ---------- --- - --- ----- ----- ----<br>---- --- --- ----- --- ---- ---- ------- ----- ---- -------<br>you --- -- ----- -- --- ---- -- --- ---- -- ------ ------<br>--- ----- -- ----,334466.3999999999,334464.8999999999,334048.146,334051.7000000002,334064.826,334481.826,,39,you
screen,html.Screen,2_1_0_1_40,2022-02-16T09:20:13.437Z,,,,,,,,,,,,,,,,,53,,,,,,,,,,,,,,376.57399999990594,,response,,,,99,,,,,,,Space,keypress(Space),,,,,,,,---- -- ----- -- ------ - ------- --- ----------<br>------------- ------ ------ ---- ---- ------- ----- -- ----<br>-------- ------- -- ---------- --- - --- ----- ----- ----<br>---- --- --- ----- --- ---- ---- ------- ----- ---- -------<br>--- are -- ----- -- --- ---- -- --- ---- -- ------ ------<br>--- ----- -- ----,334861.8999999999,334858.3999999999,334465.146,334466.5,334481.826,334865.466,,40,are
screen,html.Screen,2_1_0_1_41,2022-02-16T09:20:13.852Z,,,,,,,,,,,,,,,,,53,,,,,,,,,,,,,,409.3340000002645,,response,,,,99,,,,,,,Space,keypress(Space),,,,,,,,---- -- ----- -- ------ - ------- --- ----------<br>------------- ------ ------ ---- ---- ------- ----- -- ----<br>-------- ------- -- ---------- --- - --- ----- ----- ----<br>---- --- --- ----- --- ---- ---- ------- ----- ---- -------<br>--- --- as ----- -- --- ---- -- --- ---- -- ------ ------<br>--- ----- -- ----,335276.3999999999,335274.8000000003,334848.786,334862,334865.466,335282.466,,41,as
screen,html.Screen,2_1_0_1_42,2022-02-16T09:20:14.303Z,,,,,,,,,,,,,,,,,53,,,,,,,,,,,,,,442.43399999989197,,response,,,,99,,,,,,,Space,keypress(Space),,,,,,,,---- -- ----- -- ------ - ------- --- ----------<br>------------- ------ ------ ---- ---- ------- ----- -- ----<br>-------- ------- -- ---------- --- - --- ----- ----- ----<br>---- --- --- ----- --- ---- ---- ------- ----- ---- -------<br>--- --- -- close -- --- ---- -- --- ---- -- ------ ------<br>--- ----- -- ----,335728,335724.8999999999,335265.786,335276.5,335282.466,335732.826,,42,close
screen,html.Screen,2_1_0_1_43,2022-02-16T09:20:14.718Z,,,,,,,,,,,,,,,,,53,,,,,,,,,,,,,,408.2740000000922,,response,,,,99,,,,,,,Space,keypress(Space),,,,,,,,---- -- ----- -- ------ - ------- --- ----------<br>------------- ------ ------ ---- ---- ------- ----- -- ----<br>-------- ------- -- ---------- --- - --- ----- ----- ----<br>---- --- --- ----- --- ---- ---- ------- ----- ---- -------<br>--- --- -- ----- as --- ---- -- --- ---- -- ------ ------<br>--- ----- -- ----,336142.7000000002,336141.1000000001,335716.146,335728,335732.826,336149.826,,43,as
screen,html.Screen,2_1_0_1_44,2022-02-16T09:20:15.147Z,,,,,,,,,,,,,,,,,53,,,,,,,,,,,,,,418.67399999999907,,response,,,,99,,,,,,,Space,keypress(Space),,,,,,,,---- -- ----- -- ------ - ------- --- ----------<br>------------- ------ ------ ---- ---- ------- ----- -- ----<br>-------- ------- -- ---------- --- - --- ----- ----- ----<br>---- --- --- ----- --- ---- ---- ------- ----- ---- -------<br>--- --- -- ----- -- you ---- -- --- ---- -- ------ ------<br>--- ----- -- ----,336571.7000000002,336568.5,336133.146,336142.7000000002,336149.826,336583.506,,44,you
screen,html.Screen,2_1_0_1_45,2022-02-16T09:20:15.573Z,,,,,,,,,,,,,,,,,53,,,,,,,,,,,,,,412.5940000000992,,response,,,,99,,,,,,,Space,keypress(Space),,,,,,,,---- -- ----- -- ------ - ------- --- ----------<br>------------- ------ ------ ---- ---- ------- ----- -- ----<br>-------- ------- -- ---------- --- - --- ----- ----- ----<br>---- --- --- ----- --- ---- ---- ------- ----- ---- -------<br>--- --- -- ----- -- --- want -- --- ---- -- ------ ------<br>--- ----- -- ----,336997.7000000002,336996.1000000001,336566.826,336571.7000000002,336583.506,337000.506,,45,want
screen,html.Screen,2_1_0_1_46,2022-02-16T09:20:16.002Z,,,,,,,,,,,,,,,,,53,,,,,,,,,,,,,,423.1940000001923,,response,,,,99,,,,,,,Space,keypress(Space),,,,,,,,---- -- ----- -- ------ - ------- --- ----------<br>------------- ------ ------ ---- ---- ------- ----- -- ----<br>-------- ------- -- ---------- --- - --- ----- ----- ----<br>---- --- --- ----- --- ---- ---- ------- ----- ---- -------<br>--- --- -- ----- -- --- ---- to --- ---- -- ------ ------<br>--- ----- -- ----,337426.8000000003,337423.7000000002,336983.826,336997.8000000003,337000.506,337434.186,,46,to
screen,html.Screen,2_1_0_1_47,2022-02-16T09:20:16.597Z,,,,,,,,,,,,,,,,,53,,,,,,,,,,,,,,585.7139999999199,,response,,,,99,,,,,,,Space,keypress(Space),,,,,,,,"---- -- ----- -- ------ - ------- --- ----------<br>------------- ------ ------ ---- ---- ------- ----- -- ----<br>-------- ------- -- ---------- --- - --- ----- ----- ----<br>---- --- --- ----- --- ---- ---- ------- ----- ---- -------<br>--- --- -- ----- -- --- ---- -- be, ---- -- ------ ------<br>--- ----- -- ----",338021.5,338019.8999999999,337417.506,337426.8999999999,337434.186,338034.666,,47,"be,"
screen,html.Screen,2_1_0_1_48,2022-02-16T09:20:17.183Z,,,,,,,,,,,,,,,,,53,,,,,,,,,,,,,,570.2339999998803,,response,,,,99,,,,,,,Space,keypress(Space),,,,,,,,---- -- ----- -- ------ - ------- --- ----------<br>------------- ------ ------ ---- ---- ------- ----- -- ----<br>-------- ------- -- ---------- --- - --- ----- ----- ----<br>---- --- --- ----- --- ---- ---- ------- ----- ---- -------<br>--- --- -- ----- -- --- ---- -- --- even -- ------ ------<br>--- ----- -- ----,338608.1000000001,338604.8999999999,338017.986,338021.5,338034.666,338618.466,,48,even
screen,html.Screen,2_1_0_1_49,2022-02-16T09:20:17.553Z,,,,,,,,,,,,,,,,,53,,,,,,,,,,,,,,357.63400000007823,,response,,,,99,,,,,,,Space,keypress(Space),,,,,,,,---- -- ----- -- ------ - ------- --- ----------<br>------------- ------ ------ ---- ---- ------- ----- -- ----<br>-------- ------- -- ---------- --- - --- ----- ----- ----<br>---- --- --- ----- --- ---- ---- ------- ----- ---- -------<br>--- --- -- ----- -- --- ---- -- --- ---- if ------ ------<br>--- ----- -- ----,338977.7000000002,338976.1000000001,338601.786,338608.2000000002,338618.466,338985.426,,49,if
screen,html.Screen,2_1_0_1_50,2022-02-16T09:20:18.038Z,,,,,,,,,,,,,,,,,53,,,,,,,,,,,,,,474.4739999999292,,response,,,,99,,,,,,,Space,keypress(Space),,,,,,,,---- -- ----- -- ------ - ------- --- ----------<br>------------- ------ ------ ---- ---- ------- ----- -- ----<br>-------- ------- -- ---------- --- - --- ----- ----- ----<br>---- --- --- ----- --- ---- ---- ------- ----- ---- -------<br>--- --- -- ----- -- --- ---- -- --- ---- -- that's ------<br>--- ----- -- ----,339463,339459.8999999999,338968.746,338977.8999999999,338985.426,339469.146,,50,that's
screen,html.Screen,2_1_0_1_51,2022-02-16T09:20:18.554Z,,,,,,,,,,,,,,,,,53,,,,,,,,,,,,,,508.3539999999921,,response,,,,99,,,,,,,Space,keypress(Space),,,,,,,,---- -- ----- -- ------ - ------- --- ----------<br>------------- ------ ------ ---- ---- ------- ----- -- ----<br>-------- ------- -- ---------- --- - --- ----- ----- ----<br>---- --- --- ----- --- ---- ---- ------- ----- ---- -------<br>--- --- -- ----- -- --- ---- -- --- ---- -- ------ really<br>--- ----- -- ----,339979.1000000001,339977.5,339452.466,339463.1000000001,339469.146,339986.226,,51,really
screen,html.Screen,2_1_0_1_52,2022-02-16T09:20:19.017Z,,,,,,,,,,,,,,,,,53,,,,,,,,,,,,,,452.47400000016205,,response,,,,99,,,,,,,Space,keypress(Space),,,,,,,,---- -- ----- -- ------ - ------- --- ----------<br>------------- ------ ------ ---- ---- ------- ----- -- ----<br>-------- ------- -- ---------- --- - --- ----- ----- ----<br>---- --- --- ----- --- ---- ---- ------- ----- ---- -------<br>--- --- -- ----- -- --- ---- -- --- ---- -- ------ ------<br>not ----- -- ----,340441.7000000002,340438.7000000002,339969.546,339979.1000000001,339986.226,340453.266,,52,not
screen,html.Screen,2_1_0_1_53,2022-02-16T09:20:19.409Z,,,,,,,,,,,,,,,,,53,,,,,,,,,,,,,,379.3340000000899,,response,,,,99,,,,,,,Space,keypress(Space),,,,,,,,---- -- ----- -- ------ - ------- --- ----------<br>------------- ------ ------ ---- ---- ------- ----- -- ----<br>-------- ------- -- ---------- --- - --- ----- ----- ----<br>---- --- --- ----- --- ---- ---- ------- ----- ---- -------<br>--- --- -- ----- -- --- ---- -- --- ---- -- ------ ------<br>--- close -- ----,340834.1000000001,340832.6000000001,340436.586,340441.8000000003,340453.266,340836.906,,53,close
screen,html.Screen,2_1_0_1_54,2022-02-16T09:20:19.793Z,,,,,,,,,,,,,,,,,53,,,,,,,,,,,,,,378.1940000000759,,response,,,,99,,,,,,,Space,keypress(Space),,,,,,,,---- -- ----- -- ------ - ------- --- ----------<br>------------- ------ ------ ---- ---- ------- ----- -- ----<br>-------- ------- -- ---------- --- - --- ----- ----- ----<br>---- --- --- ----- --- ---- ---- ------- ----- ---- -------<br>--- --- -- ----- -- --- ---- -- --- ---- -- ------ ------<br>--- ----- at ----,341218.3000000003,341215.1000000001,340820.226,340834.2000000002,340836.906,341220.546,,54,at
screen,html.Screen,2_1_0_1_55,2022-02-16T09:20:20.253Z,,,,,,,,,,,,,,,,,53,,,,,,,,,,,,,,455.7540000003064,,response,,,,99,,,,,,,Space,keypress(Space),,,,,,,,---- -- ----- -- ------ - ------- --- ----------<br>------------- ------ ------ ---- ---- ------- ----- -- ----<br>-------- ------- -- ---------- --- - --- ----- ----- ----<br>---- --- --- ----- --- ---- ---- ------- ----- ---- -------<br>--- --- -- ----- -- --- ---- -- --- ---- -- ------ ------<br>--- ----- -- all.,341678,341676.3000000003,341203.866,341218.3999999999,341220.546,341687.586,,55,all.
Item 99,flow.Loop,2_1_0_1,2022-02-16T09:20:20.253Z,,,,,,,,,,,,,,,,,,,,,,,,,,,,,,,28961.8740000003,,completion,,,,,C,,,,,,,,,,,silence,,,,,341678.1000000001,341676.3000000003,312697.746,312700.2000000002,312714.426,341687.586,,,
Question 1,html.Screen,2_1_0_2,2022-02-16T09:20:28.715Z,,,,,,,,,,,,,,,,,,,,,,,,,,,,true,FALSE,,8451.014000000083,,response,,,,99,C,,,,,,FALSE,click #choice-2,,,,silence,,,,,350139.8999999999,350138.6000000001,341670.906,341678.1000000001,341687.586,350144.346,,,
Question 2,html.Screen,2_1_0_3,2022-02-16T09:20:37.985Z,,,,,,,,,,,,,,,,,,,,,,,,,,,,true,TRUE,,9264.65399999998,,response,,,,99,C,,,,,,TRUE,click #choice-1,,,,silence,,,,,359410.3000000003,359409,350127.666,350139.8999999999,350144.346,359418.426,,,
Item 99,flow.Sequence,2_1_0,2022-02-16T09:20:37.985Z,,,,,,,,,,,,,,,,,,,,,,,,,,,,,,,56702.57400000002,,completion,,,,,,,,,,,,,,,,,,,,,359410.3999999999,359409,302689.746,302696.8000000003,302706.426,359418.426,,,
Holding screen,html.Screen,2_1_1_0,2022-02-16T09:20:47.986Z,,,,,,,,,,,,,,,,,,,,,,,,,,,,,,,10008,,timeout,,,,,,,,,,,,,,,,,,,,,369411.6000000001,369409.746,359401.746,359410.5,359418.426,369426.426,,,
screen,html.Screen,2_1_1_1_0,2022-02-16T09:20:49.865Z,,,,,,,,,,,,,,,,,54,,,,,,,,,,,,,,1861.0740000000224,,response,,,,100,,,,,,,Space,keypress(Space),,,,,,,,At --- ---- --- ------ ----- ------- ---- -- --- ------- --<br>------- ---------- ------ -- ----- -- ----- -- ---- ------<br>--- ----- --- --- ------ -------- ----- --- ------ ----- --<br>----- ----- ---------- --- --- ------ ------ ---- -- ------<br>------- --- ------ ----- --- ---- ------- -- ---- --- --<br>------- ------,371290.8999999999,371287.5,369409.746,369411.7000000002,369426.426,371294.586,,0,At
screen,html.Screen,2_1_1_1_1,2022-02-16T09:20:50.246Z,,,,,,,,,,,,,,,,,54,,,,,,,,,,,,,,375.5140000000829,,response,,,,100,,,,,,,Space,keypress(Space),,,,,,,,-- the ---- --- ------ ----- ------- ---- -- --- ------- --<br>------- ---------- ------ -- ----- -- ----- -- ---- ------<br>--- ----- --- --- ------ -------- ----- --- ------ ----- --<br>----- ----- ---------- --- --- ------ ------ ---- -- ------<br>------- --- ------ ----- --- ---- ------- -- ---- --- --<br>------- ------,371671.8000000003,371670.1000000001,371277.906,371291,371294.586,371678.226,,1,the
screen,html.Screen,2_1_1_1_2,2022-02-16T09:20:50.641Z,,,,,,,,,,,,,,,,,54,,,,,,,,,,,,,,385.7739999999758,,response,,,,100,,,,,,,Space,keypress(Space),,,,,,,,-- --- time --- ------ ----- ------- ---- -- --- ------- --<br>------- ---------- ------ -- ----- -- ----- -- ---- ------<br>--- ----- --- --- ------ -------- ----- --- ------ ----- --<br>----- ----- ---------- --- --- ------ ------ ---- -- ------<br>------- --- ------ ----- --- ---- ------- -- ---- --- --<br>------- ------,372067.1000000001,372064,371661.546,371671.8000000003,371678.226,372078.546,,2,time
screen,html.Screen,2_1_1_1_3,2022-02-16T09:20:51.112Z,,,,,,,,,,,,,,,,,54,,,,,,,,,,,,,,457.954000000027,,response,,,,100,,,,,,,Space,keypress(Space),,,,,,,,-- --- ---- the ------ ----- ------- ---- -- --- ------- --<br>------- ---------- ------ -- ----- -- ----- -- ---- ------<br>--- ----- --- --- ------ -------- ----- --- ------ ----- --<br>----- ----- ---------- --- --- ------ ------ ---- -- ------<br>------- --- ------ ----- --- ---- ------- -- ---- --- --<br>------- ------,372538.1000000001,372536.5,372061.866,372067.2000000002,372078.546,372545.586,,3,the
screen,html.Screen,2_1_1_1_4,2022-02-16T09:20:51.586Z,,,,,,,,,,,,,,,,,54,,,,,,,,,,,,,,463.5140000000829,,response,,,,100,,,,,,,Space,keypress(Space),,,,,,,,-- --- ---- --- French ----- ------- ---- -- --- ------- --<br>------- ---------- ------ -- ----- -- ----- -- ---- ------<br>--- ----- --- --- ------ -------- ----- --- ------ ----- --<br>----- ----- ---------- --- --- ------ ------ ---- -- ------<br>------- --- ------ ----- --- ---- ------- -- ---- --- --<br>------- ------,373012.2000000002,373009.1000000001,372528.906,372538.1000000001,372545.586,373029.306,,4,French
screen,html.Screen,2_1_1_1_5,2022-02-16T09:20:52.034Z,,,,,,,,,,,,,,,,,54,,,,,,,,,,,,,,429.59399999992456,,response,,,,100,,,,,,,Space,keypress(Space),,,,,,,,-- --- ---- --- ------ crown ------- ---- -- --- ------- --<br>------- ---------- ------ -- ----- -- ----- -- ---- ------<br>--- ----- --- --- ------ -------- ----- --- ------ ----- --<br>----- ----- ---------- --- --- ------ ------ ---- -- ------<br>------- --- ------ ----- --- ---- ------- -- ---- --- --<br>------- ------,373460.5,373458.8999999999,373012.626,373012.3000000003,373029.306,373462.986,,5,crown
screen,html.Screen,2_1_1_1_6,2022-02-16T09:20:52.643Z,,,,,,,,,,,,,,,,,54,,,,,,,,,,,,,,603.5140000000247,,response,,,,100,,,,,,,Space,keypress(Space),,,,,,,,-- --- ---- --- ------ ----- secured ---- -- --- ------- --<br>------- ---------- ------ -- ----- -- ----- -- ---- ------<br>--- ----- --- --- ------ -------- ----- --- ------ ----- --<br>----- ----- ---------- --- --- ------ ------ ---- -- ------<br>------- --- ------ ----- --- ---- ------- -- ---- --- --<br>------- ------,374069.6000000001,374066.5,373446.306,373460.6000000001,373462.986,374080.146,,6,secured
screen,html.Screen,2_1_1_1_7,2022-02-16T09:20:53.171Z,,,,,,,,,,,,,,,,,54,,,,,,,,,,,,,,514.9540000000852,,response,,,,100,,,,,,,Space,keypress(Space),,,,,,,,-- --- ---- --- ------ ----- ------- much -- --- ------- --<br>------- ---------- ------ -- ----- -- ----- -- ---- ------<br>--- ----- --- --- ------ -------- ----- --- ------ ----- --<br>----- ----- ---------- --- --- ------ ------ ---- -- ------<br>------- --- ------ ----- --- ---- ------- -- ---- --- --<br>------- ------,374596.7000000002,374595.1000000001,374063.466,374069.6000000001,374080.146,374597.226,,7,much
screen,html.Screen,2_1_1_1_8,2022-02-16T09:20:53.633Z,,,,,,,,,,,,,,,,,54,,,,,,,,,,,,,,459.3740000000689,,response,,,,100,,,,,,,Space,keypress(Space),,,,,,,,-- --- ---- --- ------ ----- ------- ---- of --- ------- --<br>------- ---------- ------ -- ----- -- ----- -- ---- ------<br>--- ----- --- --- ------ -------- ----- --- ------ ----- --<br>----- ----- ---------- --- --- ------ ------ ---- -- ------<br>------- --- ------ ----- --- ---- ------- -- ---- --- --<br>------- ------,375059.6000000001,375056.6000000001,374580.546,374596.7000000002,374597.226,375064.266,,8,of
screen,html.Screen,2_1_1_1_9,2022-02-16T09:20:54.093Z,,,,,,,,,,,,,,,,,54,,,,,,,,,,,,,,453.73399999999674,,response,,,,100,,,,,,,Space,keypress(Space),,,,,,,,-- --- ---- --- ------ ----- ------- ---- -- its ------- --<br>------- ---------- ------ -- ----- -- ----- -- ---- ------<br>--- ----- --- --- ------ -------- ----- --- ------ ----- --<br>----- ----- ---------- --- --- ------ ------ ---- -- ------<br>------- --- ------ ----- --- ---- ------- -- ---- --- --<br>------- ------,375519.5,375518,375047.586,375059.6000000001,375064.266,375531.306,,9,its
screen,html.Screen,2_1_1_1_10,2022-02-16T09:20:54.691Z,,,,,,,,,,,,,,,,,54,,,,,,,,,,,,,,582.6940000000177,,response,,,,100,,,,,,,Space,keypress(Space),,,,,,,,-- --- ---- --- ------ ----- ------- ---- -- --- revenue --<br>------- ---------- ------ -- ----- -- ----- -- ---- ------<br>--- ----- --- --- ------ -------- ----- --- ------ ----- --<br>----- ----- ---------- --- --- ------ ------ ---- -- ------<br>------- --- ------ ----- --- ---- ------- -- ---- --- --<br>------- ------,376117.2000000002,376114,375514.626,375519.6000000001,375531.306,376131.786,,10,revenue
screen,html.Screen,2_1_1_1_11,2022-02-16T09:20:55.747Z,,,,,,,,,,,,,,,,,54,,,,,,,,,,,,,,1039.8140000000712,,response,,,,100,,,,,,,Space,keypress(Space),,,,,,,,-- --- ---- --- ------ ----- ------- ---- -- --- ------- by<br>------- ---------- ------ -- ----- -- ----- -- ---- ------<br>--- ----- --- --- ------ -------- ----- --- ------ ----- --<br>----- ----- ---------- --- --- ------ ------ ---- -- ------<br>------- --- ------ ----- --- ---- ------- -- ---- --- --<br>------- ------,377173.3000000003,377171.6000000001,376115.106,376117.2000000002,376131.786,377182.626,,11,by
screen,html.Screen,2_1_1_1_12,2022-02-16T09:20:56.266Z,,,,,,,,,,,,,,,,,54,,,,,,,,,,,,,,506.574000000197,,response,,,,100,,,,,,,Space,keypress(Space),,,,,,,,-- --- ---- --- ------ ----- ------- ---- -- --- ------- --<br>issuing ---------- ------ -- ----- -- ----- -- ---- ------<br>--- ----- --- --- ------ -------- ----- --- ------ ----- --<br>----- ----- ---------- --- --- ------ ------ ---- -- ------<br>------- --- ------ ----- --- ---- ------- -- ---- --- --<br>------- ------,377692.3000000003,377689.2000000002,377165.946,377174,377182.626,377699.706,,12,issuing
screen,html.Screen,2_1_1_1_13,2022-02-16T09:20:56.793Z,,,,,,,,,,,,,,,,,54,,,,,,,,,,,,,,518.1939999999013,,response,,,,100,,,,,,,Space,keypress(Space),,,,,,,,-- --- ---- --- ------ ----- ------- ---- -- --- ------- --<br>------- government ------ -- ----- -- ----- -- ---- ------<br>--- ----- --- --- ------ -------- ----- --- ------ ----- --<br>----- ----- ---------- --- --- ------ ------ ---- -- ------<br>------- --- ------ ----- --- ---- ------- -- ---- --- --<br>------- ------,378219.6000000001,378217.8999999999,377683.026,377692.3000000003,377699.706,378233.466,,13,government
screen,html.Screen,2_1_1_1_14,2022-02-16T09:20:58.595Z,,,,,,,,,,,,,,,,,54,,,,,,,,,,,,,,1784.433999999892,,response,,,,100,,,,,,,Space,keypress(Space),,,,,,,,-- --- ---- --- ------ ----- ------- ---- -- --- ------- --<br>------- ---------- bonds. -- ----- -- ----- -- ---- ------<br>--- ----- --- --- ------ -------- ----- --- ------ ----- --<br>----- ----- ---------- --- --- ------ ------ ---- -- ------<br>------- --- ------ ----- --- ---- ------- -- ---- --- --<br>------- ------,380021.1000000001,380017.8999999999,378216.786,378219.6000000001,378233.466,380034.906,,14,bonds.
screen,html.Screen,2_1_1_1_15,2022-02-16T09:20:59.167Z,,,,,,,,,,,,,,,,,54,,,,,,,,,,,,,,556.794000000169,,response,,,,100,,,,,,,Space,keypress(Space),,,,,,,,-- --- ---- --- ------ ----- ------- ---- -- --- ------- --<br>------- ---------- ------ In ----- -- ----- -- ---- ------<br>--- ----- --- --- ------ -------- ----- --- ------ ----- --<br>----- ----- ---------- --- --- ------ ------ ---- -- ------<br>------- --- ------ ----- --- ---- ------- -- ---- --- --<br>------- ------,380593.3999999999,380591.7000000002,380018.226,380021.1000000001,380034.906,380602.026,,15,In
screen,html.Screen,2_1_1_1_16,2022-02-16T09:21:00.710Z,,,,,,,,,,,,,,,,,54,,,,,,,,,,,,,,1531.0740000000806,,response,,,,100,,,,,,,Space,keypress(Space),,,,,,,,"-- --- ---- --- ------ ----- ------- ---- -- --- ------- --<br>------- ---------- ------ -- 1727, -- ----- -- ---- ------<br>--- ----- --- --- ------ -------- ----- --- ------ ----- --<br>----- ----- ---------- --- --- ------ ------ ---- -- ------<br>------- --- ------ ----- --- ---- ------- -- ---- --- --<br>------- ------",382136.2000000002,382133.1000000001,380585.346,380593.3999999999,380602.026,382153.266,,16,"1727,"
screen,html.Screen,2_1_1_1_17,2022-02-16T09:21:01.170Z,,,,,,,,,,,,,,,,,54,,,,,,,,,,,,,,441.1339999999036,,response,,,,100,,,,,,,Space,keypress(Space),,,,,,,,-- --- ---- --- ------ ----- ------- ---- -- --- ------- --<br>------- ---------- ------ -- ----- in ----- -- ---- ------<br>--- ----- --- --- ------ -------- ----- --- ------ ----- --<br>----- ----- ---------- --- --- ------ ------ ---- -- ------<br>------- --- ------ ----- --- ---- ------- -- ---- --- --<br>------- ------,382595.8999999999,382594.3999999999,382136.586,382136.3000000003,382153.266,382603.626,,17,in
screen,html.Screen,2_1_1_1_18,2022-02-16T09:21:01.689Z,,,,,,,,,,,,,,,,,54,,,,,,,,,,,,,,508.2739999999176,,response,,,,100,,,,,,,Space,keypress(Space),,,,,,,,-- --- ---- --- ------ ----- ------- ---- -- --- ------- --<br>------- ---------- ------ -- ----- -- order -- ---- ------<br>--- ----- --- --- ------ -------- ----- --- ------ ----- --<br>----- ----- ---------- --- --- ------ ------ ---- -- ------<br>------- --- ------ ----- --- ---- ------- -- ---- --- --<br>------- ------,383114.8999999999,383111.8999999999,382586.946,382596.1000000001,382603.626,383120.706,,18,order
screen,html.Screen,2_1_1_1_19,2022-02-16T09:21:02.148Z,,,,,,,,,,,,,,,,,54,,,,,,,,,,,,,,452.4940000001807,,response,,,,100,,,,,,,Space,keypress(Space),,,,,,,,-- --- ---- --- ------ ----- ------- ---- -- --- ------- --<br>------- ---------- ------ -- ----- -- ----- to ---- ------<br>--- ----- --- --- ------ -------- ----- --- ------ ----- --<br>----- ----- ---------- --- --- ------ ------ ---- -- ------<br>------- --- ------ ----- --- ---- ------- -- ---- --- --<br>------- ------,383574.8000000003,383573.2000000002,383104.026,383115.1000000001,383120.706,383587.746,,19,to
screen,html.Screen,2_1_1_1_20,2022-02-16T09:21:02.622Z,,,,,,,,,,,,,,,,,54,,,,,,,,,,,,,,457.8540000001085,,response,,,,100,,,,,,,Space,keypress(Space),,,,,,,,-- --- ---- --- ------ ----- ------- ---- -- --- ------- --<br>------- ---------- ------ -- ----- -- ----- -- save ------<br>--- ----- --- --- ------ -------- ----- --- ------ ----- --<br>----- ----- ---------- --- --- ------ ------ ---- -- ------<br>------- --- ------ ----- --- ---- ------- -- ---- --- --<br>------- ------,384048.8000000003,384045.6000000001,383571.066,383574.8999999999,383587.746,384054.786,,20,save
screen,html.Screen,2_1_1_1_21,2022-02-16T09:21:03.172Z,,,,,,,,,,,,,,,,,54,,,,,,,,,,,,,,542.2139999999781,,response,,,,100,,,,,,,Space,keypress(Space),,,,,,,,"-- --- ---- --- ------ ----- ------- ---- -- --- ------- --<br>------- ---------- ------ -- ----- -- ----- -- ---- money,<br>--- ----- --- --- ------ -------- ----- --- ------ ----- --<br>----- ----- ---------- --- --- ------ ------ ---- -- ------<br>------- --- ------ ----- --- ---- ------- -- ---- --- --<br>------- ------",384598.7000000002,384597,384038.106,384048.8999999999,384054.786,384605.226,,21,"money,"
screen,html.Screen,2_1_1_1_22,2022-02-16T09:21:03.624Z,,,,,,,,,,,,,,,,,54,,,,,,,,,,,,,,441.8740000000689,,response,,,,100,,,,,,,Space,keypress(Space),,,,,,,,-- --- ---- --- ------ ----- ------- ---- -- --- ------- --<br>------- ---------- ------ -- ----- -- ----- -- ---- ------<br>the ----- --- --- ------ -------- ----- --- ------ ----- --<br>----- ----- ---------- --- --- ------ ------ ---- -- ------<br>------- --- ------ ----- --- ---- ------- -- ---- --- --<br>------- ------,385050.1000000001,385047.1000000001,384588.546,384598.7000000002,384605.226,385055.586,,22,the
screen,html.Screen,2_1_1_1_23,2022-02-16T09:21:04.038Z,,,,,,,,,,,,,,,,,54,,,,,,,,,,,,,,407.614000000176,,response,,,,100,,,,,,,Space,keypress(Space),,,,,,,,-- --- ---- --- ------ ----- ------- ---- -- --- ------- --<br>------- ---------- ------ -- ----- -- ----- -- ---- ------<br>--- state --- --- ------ -------- ----- --- ------ ----- --<br>----- ----- ---------- --- --- ------ ------ ---- -- ------<br>------- --- ------ ----- --- ---- ------- -- ---- --- --<br>------- ------,385464.8000000003,385463.2000000002,385038.906,385050.2000000002,385055.586,385472.586,,23,state
screen,html.Screen,2_1_1_1_24,2022-02-16T09:21:04.501Z,,,,,,,,,,,,,,,,,54,,,,,,,,,,,,,,451.91399999998976,,response,,,,100,,,,,,,Space,keypress(Space),,,,,,,,-- --- ---- --- ------ ----- ------- ---- -- --- ------- --<br>------- ---------- ------ -- ----- -- ----- -- ---- ------<br>--- ----- cut --- ------ -------- ----- --- ------ ----- --<br>----- ----- ---------- --- --- ------ ------ ---- -- ------<br>------- --- ------ ----- --- ---- ------- -- ---- --- --<br>------- ------,385927.6000000001,385924.5,385455.906,385464.8999999999,385472.586,385939.626,,24,cut
screen,html.Screen,2_1_1_1_25,2022-02-16T09:21:04.893Z,,,,,,,,,,,,,,,,,54,,,,,,,,,,,,,,378.7739999999176,,response,,,,100,,,,,,,Space,keypress(Space),,,,,,,,-- --- ---- --- ------ ----- ------- ---- -- --- ------- --<br>------- ---------- ------ -- ----- -- ----- -- ---- ------<br>--- ----- --- the ------ -------- ----- --- ------ ----- --<br>----- ----- ---------- --- --- ------ ------ ---- -- ------<br>------- --- ------ ----- --- ---- ------- -- ---- --- --<br>------- ------,386320,386318.3999999999,385922.946,385927.7000000002,385939.626,386323.266,,25,the
screen,html.Screen,2_1_1_1_26,2022-02-16T09:21:05.311Z,,,,,,,,,,,,,,,,,54,,,,,,,,,,,,,,411.3340000000899,,response,,,,100,,,,,,,Space,keypress(Space),,,,,,,,-- --- ---- --- ------ ----- ------- ---- -- --- ------- --<br>------- ---------- ------ -- ----- -- ----- -- ---- ------<br>--- ----- --- --- bonds' -------- ----- --- ------ ----- --<br>----- ----- ---------- --- --- ------ ------ ---- -- ------<br>------- --- ------ ----- --- ---- ------- -- ---- --- --<br>------- ------,386737.7000000002,386734.6000000001,386306.586,386320.1000000001,386323.266,386740.266,,26,bonds'
screen,html.Screen,2_1_1_1_27,2022-02-16T09:21:05.748Z,,,,,,,,,,,,,,,,,54,,,,,,,,,,,,,,433.1339999999036,,response,,,,100,,,,,,,Space,keypress(Space),,,,,,,,-- --- ---- --- ------ ----- ------- ---- -- --- ------- --<br>------- ---------- ------ -- ----- -- ----- -- ---- ------<br>--- ----- --- --- ------ interest ----- --- ------ ----- --<br>----- ----- ---------- --- --- ------ ------ ---- -- ------<br>------- --- ------ ----- --- ---- ------- -- ---- --- --<br>------- ------,387174.8999999999,387173.3999999999,386723.586,386737.8000000003,386740.266,387190.626,,27,interest
screen,html.Screen,2_1_1_1_28,2022-02-16T09:21:06.234Z,,,,,,,,,,,,,,,,,54,,,,,,,,,,,,,,466.47400000010384,,response,,,,100,,,,,,,Space,keypress(Space),,,,,,,,-- --- ---- --- ------ ----- ------- ---- -- --- ------- --<br>------- ---------- ------ -- ----- -- ----- -- ---- ------<br>--- ----- --- --- ------ -------- rate. --- ------ ----- --<br>----- ----- ---------- --- --- ------ ------ ---- -- ------<br>------- --- ------ ----- --- ---- ------- -- ---- --- --<br>------- ------,387660.3999999999,387657.1000000001,387173.946,387175.1000000001,387190.626,387674.346,,28,rate.
screen,html.Screen,2_1_1_1_29,2022-02-16T09:21:06.851Z,,,,,,,,,,,,,,,,,54,,,,,,,,,,,,,,601.5539999998873,,response,,,,100,,,,,,,Space,keypress(Space),,,,,,,,-- --- ---- --- ------ ----- ------- ---- -- --- ------- --<br>------- ---------- ------ -- ----- -- ----- -- ---- ------<br>--- ----- --- --- ------ -------- ----- The ------ ----- --<br>----- ----- ---------- --- --- ------ ------ ---- -- ------<br>------- --- ------ ----- --- ---- ------- -- ---- --- --<br>------- ------,388277.6000000001,388275.8999999999,387657.666,387660.3999999999,387674.346,388291.506,,29,The
screen,html.Screen,2_1_1_1_30,2022-02-16T09:21:07.291Z,,,,,,,,,,,,,,,,,54,,,,,,,,,,,,,,423.0940000000992,,response,,,,100,,,,,,,Space,keypress(Space),,,,,,,,-- --- ---- --- ------ ----- ------- ---- -- --- ------- --<br>------- ---------- ------ -- ----- -- ----- -- ---- ------<br>--- ----- --- --- ------ -------- ----- --- market ----- --<br>----- ----- ---------- --- --- ------ ------ ---- -- ------<br>------- --- ------ ----- --- ---- ------- -- ---- --- --<br>------- ------,388717.8000000003,388714.6000000001,388274.826,388277.7000000002,388291.506,388725.186,,30,market
screen,html.Screen,2_1_1_1_31,2022-02-16T09:21:07.875Z,,,,,,,,,,,,,,,,,54,,,,,,,,,,,,,,574.5140000001993,,response,,,,100,,,,,,,Space,keypress(Space),,,,,,,,-- --- ---- --- ------ ----- ------- ---- -- --- ------- --<br>------- ---------- ------ -- ----- -- ----- -- ---- ------<br>--- ----- --- --- ------ -------- ----- --- ------ value --<br>----- ----- ---------- --- --- ------ ------ ---- -- ------<br>------- --- ------ ----- --- ---- ------- -- ---- --- --<br>------- ------,389301.3000000003,389299.7000000002,388708.506,388717.8999999999,388725.186,389308.986,,31,value
screen,html.Screen,2_1_1_1_32,2022-02-16T09:21:08.337Z,,,,,,,,,,,,,,,,,54,,,,,,,,,,,,,,452.0140000000247,,response,,,,100,,,,,,,Space,keypress(Space),,,,,,,,-- --- ---- --- ------ ----- ------- ---- -- --- ------- --<br>------- ---------- ------ -- ----- -- ----- -- ---- ------<br>--- ----- --- --- ------ -------- ----- --- ------ ----- of<br>----- ----- ---------- --- --- ------ ------ ---- -- ------<br>------- --- ------ ----- --- ---- ------- -- ---- --- --<br>------- ------,389764,389761,389292.306,389301.3999999999,389308.986,389776.026,,32,of
screen,html.Screen,2_1_1_1_33,2022-02-16T09:21:08.763Z,,,,,,,,,,,,,,,,,54,,,,,,,,,,,,,,412.3739999998943,,response,,,,100,,,,,,,Space,keypress(Space),,,,,,,,-- --- ---- --- ------ ----- ------- ---- -- --- ------- --<br>------- ---------- ------ -- ----- -- ----- -- ---- ------<br>--- ----- --- --- ------ -------- ----- --- ------ ----- --<br>these ----- ---------- --- --- ------ ------ ---- -- ------<br>------- --- ------ ----- --- ---- ------- -- ---- --- --<br>------- ------,390190.1000000001,390188.3999999999,389759.346,389764,389776.026,390193.026,,33,these
screen,html.Screen,2_1_1_1_34,2022-02-16T09:21:09.204Z,,,,,,,,,,,,,,,,,54,,,,,,,,,,,,,,434.2740000002668,,response,,,,100,,,,,,,Space,keypress(Space),,,,,,,,-- --- ---- --- ------ ----- ------- ---- -- --- ------- --<br>------- ---------- ------ -- ----- -- ----- -- ---- ------<br>--- ----- --- --- ------ -------- ----- --- ------ ----- --<br>----- bonds ---------- --- --- ------ ------ ---- -- ------<br>------- --- ------ ----- --- ---- ------- -- ---- --- --<br>------- ------,390630.3999999999,390627.3000000003,390176.346,390190.2000000002,390193.026,390643.386,,34,bonds
screen,html.Screen,2_1_1_1_35,2022-02-16T09:21:09.697Z,,,,,,,,,,,,,,,,,54,,,,,,,,,,,,,,478.81400000018766,,response,,,,100,,,,,,,Space,keypress(Space),,,,,,,,"-- --- ---- --- ------ ----- ------- ---- -- --- ------- --<br>------- ---------- ------ -- ----- -- ----- -- ---- ------<br>--- ----- --- --- ------ -------- ----- --- ------ ----- --<br>----- ----- plummeted, --- --- ------ ------ ---- -- ------<br>------- --- ------ ----- --- ---- ------- -- ---- --- --<br>------- ------",391123.8999999999,391122.2000000002,390626.706,390630.5,390643.386,391127.106,,35,"plummeted,"
screen,html.Screen,2_1_1_1_36,2022-02-16T09:21:10.272Z,,,,,,,,,,,,,,,,,54,,,,,,,,,,,,,,569.0940000001574,,response,,,,100,,,,,,,Space,keypress(Space),,,,,,,,-- --- ---- --- ------ ----- ------- ---- -- --- ------- --<br>------- ---------- ------ -- ----- -- ----- -- ---- ------<br>--- ----- --- --- ------ -------- ----- --- ------ ----- --<br>----- ----- ---------- and --- ------ ------ ---- -- ------<br>------- --- ------ ----- --- ---- ------- -- ---- --- --<br>------- ------,391699.3000000003,391696.2000000002,391110.426,391124,391127.106,391710.906,,36,and
screen,html.Screen,2_1_1_1_37,2022-02-16T09:21:10.665Z,,,,,,,,,,,,,,,,,54,,,,,,,,,,,,,,378.99399999988964,,response,,,,100,,,,,,,Space,keypress(Space),,,,,,,,-- --- ---- --- ------ ----- ------- ---- -- --- ------- --<br>------- ---------- ------ -- ----- -- ----- -- ---- ------<br>--- ----- --- --- ------ -------- ----- --- ------ ----- --<br>----- ----- ---------- --- the ------ ------ ---- -- ------<br>------- --- ------ ----- --- ---- ------- -- ---- --- --<br>------- ------,392091.3999999999,392089.8999999999,391694.226,391699.3000000003,391710.906,392094.546,,37,the
screen,html.Screen,2_1_1_1_38,2022-02-16T09:21:11.038Z,,,,,,,,,,,,,,,,,54,,,,,,,,,,,,,,366.55400000012014,,response,,,,100,,,,,,,Space,keypress(Space),,,,,,,,-- --- ---- --- ------ ----- ------- ---- -- --- ------- --<br>------- ---------- ------ -- ----- -- ----- -- ---- ------<br>--- ----- --- --- ------ -------- ----- --- ------ ----- --<br>----- ----- ---------- --- --- market ------ ---- -- ------<br>------- --- ------ ----- --- ---- ------- -- ---- --- --<br>------- ------,392464.3000000003,392461.1000000001,392077.866,392091.6000000001,392094.546,392478.186,,38,market
screen,html.Screen,2_1_1_1_39,2022-02-16T09:21:11.418Z,,,,,,,,,,,,,,,,,54,,,,,,,,,,,,,,365.5140000001993,,response,,,,100,,,,,,,Space,keypress(Space),,,,,,,,-- --- ---- --- ------ ----- ------- ---- -- --- ------- --<br>------- ---------- ------ -- ----- -- ----- -- ---- ------<br>--- ----- --- --- ------ -------- ----- --- ------ ----- --<br>----- ----- ---------- --- --- ------ became ---- -- ------<br>------- --- ------ ----- --- ---- ------- -- ---- --- --<br>------- ------,392845.2000000002,392843.7000000002,392461.506,392464.3999999999,392478.186,392861.826,,39,became
screen,html.Screen,2_1_1_1_40,2022-02-16T09:21:11.814Z,,,,,,,,,,,,,,,,,54,,,,,,,,,,,,,,375.67399999999907,,response,,,,100,,,,,,,Space,keypress(Space),,,,,,,,-- --- ---- --- ------ ----- ------- ---- -- --- ------- --<br>------- ---------- ------ -- ----- -- ----- -- ---- ------<br>--- ----- --- --- ------ -------- ----- --- ------ ----- --<br>----- ----- ---------- --- --- ------ ------ wary -- ------<br>------- --- ------ ----- --- ---- ------- -- ---- --- --<br>------- ------,393240.5,393237.5,392845.146,392845.3000000003,392861.826,393245.466,,40,wary
screen,html.Screen,2_1_1_1_41,2022-02-16T09:21:12.195Z,,,,,,,,,,,,,,,,,54,,,,,,,,,,,,,,374.43399999989197,,response,,,,100,,,,,,,Space,keypress(Space),,,,,,,,-- --- ---- --- ------ ----- ------- ---- -- --- ------- --<br>------- ---------- ------ -- ----- -- ----- -- ---- ------<br>--- ----- --- --- ------ -------- ----- --- ------ ----- --<br>----- ----- ---------- --- --- ------ ------ ---- of ------<br>------- --- ------ ----- --- ---- ------- -- ---- --- --<br>------- ------,393621.5,393619.8999999999,393228.786,393240.6000000001,393245.466,393629.106,,41,of
screen,html.Screen,2_1_1_1_42,2022-02-16T09:21:12.601Z,,,,,,,,,,,,,,,,,54,,,,,,,,,,,,,,395.793999999878,,response,,,,100,,,,,,,Space,keypress(Space),,,,,,,,-- --- ---- --- ------ ----- ------- ---- -- --- ------- --<br>------- ---------- ------ -- ----- -- ----- -- ---- ------<br>--- ----- --- --- ------ -------- ----- --- ------ ----- --<br>----- ----- ---------- --- --- ------ ------ ---- -- French<br>------- --- ------ ----- --- ---- ------- -- ---- --- --<br>------- ------,394028,394024.8999999999,393612.426,393621.6000000001,393629.106,394029.426,,42,French
screen,html.Screen,2_1_1_1_43,2022-02-16T09:21:13.421Z,,,,,,,,,,,,,,,,,54,,,,,,,,,,,,,,816.7740000002086,,response,,,,100,,,,,,,Space,keypress(Space),,,,,,,,-- --- ---- --- ------ ----- ------- ---- -- --- ------- --<br>------- ---------- ------ -- ----- -- ----- -- ---- ------<br>--- ----- --- --- ------ -------- ----- --- ------ ----- --<br>----- ----- ---------- --- --- ------ ------ ---- -- ------<br>credit. --- ------ ----- --- ---- ------- -- ---- --- --<br>------- ------,394848,394846.2000000002,394012.746,394028.1000000001,394029.426,394863.426,,43,credit.
screen,html.Screen,2_1_1_1_44,2022-02-16T09:21:13.828Z,,,,,,,,,,,,,,,,,54,,,,,,,,,,,,,,387.6740000001155,,response,,,,100,,,,,,,Space,keypress(Space),,,,,,,,-- --- ---- --- ------ ----- ------- ---- -- --- ------- --<br>------- ---------- ------ -- ----- -- ----- -- ---- ------<br>--- ----- --- --- ------ -------- ----- --- ------ ----- --<br>----- ----- ---------- --- --- ------ ------ ---- -- ------<br>------- The ------ ----- --- ---- ------- -- ---- --- --<br>------- ------,395254.3999999999,395251.1000000001,394846.746,394848,394863.426,395263.746,,44,The
screen,html.Screen,2_1_1_1_45,2022-02-16T09:21:14.456Z,,,,,,,,,,,,,,,,,54,,,,,,,,,,,,,,617.5540000002948,,response,,,,100,,,,,,,Space,keypress(Space),,,,,,,,-- --- ---- --- ------ ----- ------- ---- -- --- ------- --<br>------- ---------- ------ -- ----- -- ----- -- ---- ------<br>--- ----- --- --- ------ -------- ----- --- ------ ----- --<br>----- ----- ---------- --- --- ------ ------ ---- -- ------<br>------- --- French ----- --- ---- ------- -- ---- --- --<br>------- ------,395882.8999999999,395881.3000000003,395247.066,395254.5,395263.746,395897.586,,45,French
screen,html.Screen,2_1_1_1_46,2022-02-16T09:21:14.896Z,,,,,,,,,,,,,,,,,54,,,,,,,,,,,,,,422.41399999998976,,response,,,,100,,,,,,,Space,keypress(Space),,,,,,,,-- --- ---- --- ------ ----- ------- ---- -- --- ------- --<br>------- ---------- ------ -- ----- -- ----- -- ---- ------<br>--- ----- --- --- ------ -------- ----- --- ------ ----- --<br>----- ----- ---------- --- --- ------ ------ ---- -- ------<br>------- --- ------ state --- ---- ------- -- ---- --- --<br>------- ------,396323,396320,395880.906,395883,395897.586,396331.266,,46,state
screen,html.Screen,2_1_1_1_47,2022-02-16T09:21:15.333Z,,,,,,,,,,,,,,,,,54,,,,,,,,,,,,,,427.434000000183,,response,,,,100,,,,,,,Space,keypress(Space),,,,,,,,-- --- ---- --- ------ ----- ------- ---- -- --- ------- --<br>------- ---------- ------ -- ----- -- ----- -- ---- ------<br>--- ----- --- --- ------ -------- ----- --- ------ ----- --<br>----- ----- ---------- --- --- ------ ------ ---- -- ------<br>------- --- ------ ----- was ---- ------- -- ---- --- --<br>------- ------,396760.3000000003,396758.7000000002,396314.586,396323,396331.266,396764.946,,47,was
screen,html.Screen,2_1_1_1_48,2022-02-16T09:21:15.740Z,,,,,,,,,,,,,,,,,54,,,,,,,,,,,,,,398.8540000002831,,response,,,,100,,,,,,,Space,keypress(Space),,,,,,,,-- --- ---- --- ------ ----- ------- ---- -- --- ------- --<br>------- ---------- ------ -- ----- -- ----- -- ---- ------<br>--- ----- --- --- ------ -------- ----- --- ------ ----- --<br>----- ----- ---------- --- --- ------ ------ ---- -- ------<br>------- --- ------ ----- --- left ------- -- ---- --- --<br>------- ------,397166.8999999999,397163.8000000003,396748.266,396761.1000000001,396764.946,397181.946,,48,left
screen,html.Screen,2_1_1_1_49,2022-02-16T09:21:16.278Z,,,,,,,,,,,,,,,,,54,,,,,,,,,,,,,,521.8540000002831,,response,,,,100,,,,,,,Space,keypress(Space),,,,,,,,-- --- ---- --- ------ ----- ------- ---- -- --- ------- --<br>------- ---------- ------ -- ----- -- ----- -- ---- ------<br>--- ----- --- --- ------ -------- ----- --- ------ ----- --<br>----- ----- ---------- --- --- ------ ------ ---- -- ------<br>------- --- ------ ----- --- ---- without -- ---- --- --<br>------- ------,397705.5,397703.8000000003,397165.266,397167,397181.946,397715.706,,49,without
screen,html.Screen,2_1_1_1_50,2022-02-16T09:21:16.651Z,,,,,,,,,,,,,,,,,54,,,,,,,,,,,,,,359.39400000008754,,response,,,,100,,,,,,,Space,keypress(Space),,,,,,,,-- --- ---- --- ------ ----- ------- ---- -- --- ------- --<br>------- ---------- ------ -- ----- -- ----- -- ---- ------<br>--- ----- --- --- ------ -------- ----- --- ------ ----- --<br>----- ----- ---------- --- --- ------ ------ ---- -- ------<br>------- --- ------ ----- --- ---- ------- an ---- --- --<br>------- ------,398078.2000000002,398075.1000000001,397699.026,397705.5,397715.706,398082.666,,50,an
screen,html.Screen,2_1_1_1_51,2022-02-16T09:21:17.066Z,,,,,,,,,,,,,,,,,54,,,,,,,,,,,,,,408.63400000025285,,response,,,,100,,,,,,,Space,keypress(Space),,,,,,,,-- --- ---- --- ------ ----- ------- ---- -- --- ------- --<br>------- ---------- ------ -- ----- -- ----- -- ---- ------<br>--- ----- --- --- ------ -------- ----- --- ------ ----- --<br>----- ----- ---------- --- --- ------ ------ ---- -- ------<br>------- --- ------ ----- --- ---- ------- -- easy --- --<br>------- ------,398492.8999999999,398491.3000000003,398065.986,398078.2000000002,398082.666,398499.666,,51,easy
screen,html.Screen,2_1_1_1_52,2022-02-16T09:21:17.461Z,,,,,,,,,,,,,,,,,54,,,,,,,,,,,,,,385.5340000001597,,response,,,,100,,,,,,,Space,keypress(Space),,,,,,,,-- --- ---- --- ------ ----- ------- ---- -- --- ------- --<br>------- ---------- ------ -- ----- -- ----- -- ---- ------<br>--- ----- --- --- ------ -------- ----- --- ------ ----- --<br>----- ----- ---------- --- --- ------ ------ ---- -- ------<br>------- --- ------ ----- --- ---- ------- -- ---- way --<br>------- ------,398888.3000000003,398885.2000000002,398482.986,398492.8999999999,398499.666,398899.986,,52,way
screen,html.Screen,2_1_1_1_53,2022-02-16T09:21:17.842Z,,,,,,,,,,,,,,,,,54,,,,,,,,,,,,,,367.71400000021094,,response,,,,100,,,,,,,Space,keypress(Space),,,,,,,,-- --- ---- --- ------ ----- ------- ---- -- --- ------- --<br>------- ---------- ------ -- ----- -- ----- -- ---- ------<br>--- ----- --- --- ------ -------- ----- --- ------ ----- --<br>----- ----- ---------- --- --- ------ ------ ---- -- ------<br>------- --- ------ ----- --- ---- ------- -- ---- --- of<br>------- ------,399269.2000000002,399267.7000000002,398883.306,398888.3999999999,398899.986,399283.626,,53,of
screen,html.Screen,2_1_1_1_54,2022-02-16T09:21:18.226Z,,,,,,,,,,,,,,,,,54,,,,,,,,,,,,,,366.574000000197,,response,,,,100,,,,,,,Space,keypress(Space),,,,,,,,-- --- ---- --- ------ ----- ------- ---- -- --- ------- --<br>------- ---------- ------ -- ----- -- ----- -- ---- ------<br>--- ----- --- --- ------ -------- ----- --- ------ ----- --<br>----- ----- ---------- --- --- ------ ------ ---- -- ------<br>------- --- ------ ----- --- ---- ------- -- ---- --- --<br>raising ------,399653.2000000002,399650.2000000002,399266.946,399269.3000000003,399283.626,399667.266,,54,raising
screen,html.Screen,2_1_1_1_55,2022-02-16T09:21:19.102Z,,,,,,,,,,,,,,,,,54,,,,,,,,,,,,,,860.434000000183,,response,,,,100,,,,,,,Space,keypress(Space),,,,,,,,-- --- ---- --- ------ ----- ------- ---- -- --- ------- --<br>------- ---------- ------ -- ----- -- ----- -- ---- ------<br>--- ----- --- --- ------ -------- ----- --- ------ ----- --<br>----- ----- ---------- --- --- ------ ------ ---- -- ------<br>------- --- ------ ----- --- ---- ------- -- ---- --- --<br>------- money.,400529.3000000003,400527.7000000002,399650.586,399653.3999999999,399667.266,400534.626,,55,money.
Item 100,flow.Loop,2_1_1_1,2022-02-16T09:21:19.102Z,,,,,,,,,,,,,,,,,,,,,,,,,,,,,,,31101.27400000021,,completion,,,,,C,,,,,,,,,,,silence,,,,,400529.5,400527.7000000002,369409.746,369411.6000000001,369426.426,400534.626,,,
Question 1,html.Screen,2_1_1_2,2022-02-16T09:21:21.837Z,,,,,,,,,,,,,,,,,,,,,,,,,,,,true,TRUE,,2728.7739999999176,,response,,,,100,C,,,,,,TRUE,click #choice-1,,,,silence,,,,,403264.7000000002,403263.3999999999,400517.946,400529.5,400534.626,403270.146,,,
Question 2,html.Screen,2_1_1_3,2022-02-16T09:21:25.111Z,,,,,,,,,,,,,,,,,,,,,,,,,,,,false,FALSE,,3267.1540000002715,,response,,,,100,C,,,,,,TRUE,click #choice-1,,,,silence,,,,,406538.6000000001,406537.3000000003,403253.466,403264.8000000003,403270.146,406539.426,,,
Item 100,flow.Sequence,2_1_1,2022-02-16T09:21:25.111Z,,,,,,,,,,,,,,,,,,,,,,,,,,,,,,,47118.8740000003,,completion,,,,,,,,,,,,,,,,,,,,,406538.7000000002,406537.3000000003,359401.746,359410.3999999999,359418.426,406539.426,,,
End of Practice,html.Page,2_1_2,2022-02-16T09:21:30.253Z,,,,,,,,,,,,,,,,,,,,,,,,,,,,,,,5140.874000000302,,form submission,,,,,,,,,,,,,,,,,,,,,411680.5,411680.3000000003,406522.746,406538.7000000002,406539.426,411693.546,,,
Practice,flow.Sequence,2_1,2022-02-16T09:21:30.253Z,,,,,,,,,,,,,,,,,,,,,,,,,,,,,,,108973.8740000003,,completion,,,,,,,,,,,,,,,,,,,,,411680.6000000001,411680.3000000003,302689.746,302696.8000000003,302706.426,411693.546,,,
Trap_instruction,html.Page,2_2_0,2022-02-16T09:21:34.798Z,,,,,,,,,,,,,,,,,,,,,,,,,,,,,,,4531.954000000027,,form submission,,,,,,,,,,,,,,,,,,,,,416225.7000000002,416225.5,411676.866,411680.6000000001,411693.546,416230.506,,,
trap_trial,html.Screen,2_2_1,2022-02-16T09:21:38.071Z,,,,,,,,,,,,,,,,,,,,,,,,,,,,true,1,,3267.494000000006,,response,,,,,,,,,,,1,click #choice-1,,,,,,,,,419499.2000000002,419498,416213.826,416225.8000000003,416230.506,419499.786,,,
end of trap trial,html.Page,2_2_2,2022-02-16T09:21:39.872Z,,,,,,,,,,,,,,,,,,,,,,,,,,,,,,,1799.8140000000712,,form submission,,,,,,,,,,,,,,,,,,,,,421299.7000000002,421299.6000000001,419483.106,419499.2000000002,419499.786,421301.226,,,
Trap 1,flow.Sequence,2_2,2022-02-16T09:21:39.872Z,,,,,,,,,,,,,,,,,,,,,,,,,,,,,,,9606.05400000012,,completion,,,,,,,,,,,,,,,,,,,,,421299.8999999999,421299.6000000001,411676.866,411680.6000000001,411693.546,421301.226,,,
Standby,html.Page,2_3_0,2022-02-16T09:21:47.865Z,,,,,,,,,,,,,,,,,,,,,,,,,,,,,,,8006.399999999965,,timeout,,,,,,,,,,,,,,,,,,,,,429292.8999999999,429290.946,421284.546,421299.8999999999,421301.226,429307.626,,,
Holding screen,html.Screen,2_3_1_0_0,2022-02-16T09:21:54.870Z,,,,,,,,,,,,,,,,,,,,,,,,,,,,,,,7005.600000000035,,timeout,,,,,,,,,,,,,,,,,,,,,436298.5,436296.546,429290.946,429293.1000000001,429307.626,436313.226,,,
screen,html.Screen,2_3_1_0_1_0,2022-02-16T09:21:55.701Z,,,,,,,,,,,,,,,,,15,,,,,,,,,,,,,,812.474000000162,,response,,,,7,C,,,,,,Space,keypress(Space),,,,instrumental,,,,Greg --------- ---------- - --- ------- -- --- ------------<br>----- -- -------- ------- ---- ------ - -------- ---- -----<br>--- ------- ---- -- --- -------- --- - ----- ------ ---- --<br>-------- --- -------- -------- --- -------- ---- -- ----- -<br>-------- ---- --- ---------- --------- -- ------- ------ -<br>--------- ----- -----,437129.1000000001,437125.7000000002,436296.546,436298.6000000001,436313.226,437130.546,,0,Greg
screen,html.Screen,2_3_1_0_1_1,2022-02-16T09:21:56.273Z,,,,,,,,,,,,,,,,,15,,,,,,,,,,,,,,568.954000000027,,response,,,,7,C,,,,,,Space,keypress(Space),,,,instrumental,,,,"---- Anderson, ---------- - --- ------- -- --- ------------<br>----- -- -------- ------- ---- ------ - -------- ---- -----<br>--- ------- ---- -- --- -------- --- - ----- ------ ---- --<br>-------- --- -------- -------- --- -------- ---- -- ----- -<br>-------- ---- --- ---------- --------- -- ------- ------ -<br>--------- ----- -----",437701.1000000001,437699.5,437113.866,437129.2000000002,437130.546,437714.346,,1,"Anderson,"
screen,html.Screen,2_3_1_0_1_2,2022-02-16T09:21:56.792Z,,,,,,,,,,,,,,,,,15,,,,,,,,,,,,,,502.65399999998044,,response,,,,7,C,,,,,,Space,keypress(Space),,,,instrumental,,,,---- --------- considered - --- ------- -- --- ------------<br>----- -- -------- ------- ---- ------ - -------- ---- -----<br>--- ------- ---- -- --- -------- --- - ----- ------ ---- --<br>-------- --- -------- -------- --- -------- ---- -- ----- -<br>-------- ---- --- ---------- --------- -- ------- ------ -<br>--------- ----- -----,438220.1000000001,438217,437697.666,437701.2000000002,437714.346,438231.426,,2,considered
screen,html.Screen,2_3_1_0_1_3,2022-02-16T09:21:57.206Z,,,,,,,,,,,,,,,,,15,,,,,,,,,,,,,,401.7740000002086,,response,,,,7,C,,,,,,Space,keypress(Space),,,,instrumental,,,,---- --------- ---------- a --- ------- -- --- ------------<br>----- -- -------- ------- ---- ------ - -------- ---- -----<br>--- ------- ---- -- --- -------- --- - ----- ------ ---- --<br>-------- --- -------- -------- --- -------- ---- -- ----- -<br>-------- ---- --- ---------- --------- -- ------- ------ -<br>--------- ----- -----,438634.8999999999,438633.2000000002,438214.746,438220.1000000001,438231.426,438648.426,,3,a
screen,html.Screen,2_3_1_0_1_4,2022-02-16T09:21:57.568Z,,,,,,,,,,,,,,,,,15,,,,,,,,,,,,,,344.7740000002086,,response,,,,7,C,,,,,,Space,keypress(Space),,,,instrumental,,,,---- --------- ---------- - key ------- -- --- ------------<br>----- -- -------- ------- ---- ------ - -------- ---- -----<br>--- ------- ---- -- --- -------- --- - ----- ------ ---- --<br>-------- --- -------- -------- --- -------- ---- -- ----- -<br>-------- ---- --- ---------- --------- -- ------- ------ -<br>--------- ----- -----,438996.2000000002,438993.2000000002,438631.746,438635,438648.426,438998.706,,4,key
screen,html.Screen,2_3_1_0_1_5,2022-02-16T09:21:58.039Z,,,,,,,,,,,,,,,,,15,,,,,,,,,,,,,,466.89400000008754,,response,,,,7,C,,,,,,Space,keypress(Space),,,,instrumental,,,,---- --------- ---------- - --- witness -- --- ------------<br>----- -- -------- ------- ---- ------ - -------- ---- -----<br>--- ------- ---- -- --- -------- --- - ----- ------ ---- --<br>-------- --- -------- -------- --- -------- ---- -- ----- -<br>-------- ---- --- ---------- --------- -- ------- ------ -<br>--------- ----- -----,439467.2000000002,439465.6000000001,438982.026,438996.3999999999,438998.706,439482.426,,5,witness
screen,html.Screen,2_3_1_0_1_6,2022-02-16T09:21:58.490Z,,,,,,,,,,,,,,,,,15,,,,,,,,,,,,,,433.37400000030175,,response,,,,7,C,,,,,,Space,keypress(Space),,,,instrumental,,,,---- --------- ---------- - --- ------- by --- ------------<br>----- -- -------- ------- ---- ------ - -------- ---- -----<br>--- ------- ---- -- --- -------- --- - ----- ------ ---- --<br>-------- --- -------- -------- --- -------- ---- -- ----- -<br>-------- ---- --- ---------- --------- -- ------- ------ -<br>--------- ----- -----,439918.8999999999,439915.8000000003,439465.746,439467.3000000003,439482.426,439932.786,,6,by
screen,html.Screen,2_3_1_0_1_7,2022-02-16T09:21:58.860Z,,,,,,,,,,,,,,,,,15,,,,,,,,,,,,,,354.2139999999781,,response,,,,7,C,,,,,,Space,keypress(Space),,,,instrumental,,,,---- --------- ---------- - --- ------- -- the ------------<br>----- -- -------- ------- ---- ------ - -------- ---- -----<br>--- ------- ---- -- --- -------- --- - ----- ------ ---- --<br>-------- --- -------- -------- --- -------- ---- -- ----- -<br>-------- ---- --- ---------- --------- -- ------- ------ -<br>--------- ----- -----,440288.6000000001,440287,439916.106,439919,439932.786,440299.746,,7,the
screen,html.Screen,2_3_1_0_1_8,2022-02-16T09:22:00.099Z,,,,,,,,,,,,,,,,,15,,,,,,,,,,,,,,1224.8540000001085,,response,,,,7,C,,,,,,Space,keypress(Space),,,,instrumental,,,,"---- --------- ---------- - --- ------- -- --- prosecution,<br>----- -- -------- ------- ---- ------ - -------- ---- -----<br>--- ------- ---- -- --- -------- --- - ----- ------ ---- --<br>-------- --- -------- -------- --- -------- ---- -- ----- -<br>-------- ---- --- ---------- --------- -- ------- ------ -<br>--------- ----- -----",441527.7000000002,441524.6000000001,440283.066,440288.7000000002,440299.746,441534.066,,8,"prosecution,"
screen,html.Screen,2_3_1_0_1_9,2022-02-16T09:22:00.604Z,,,,,,,,,,,,,,,,,15,,,,,,,,,,,,,,496.7340000002878,,response,,,,7,C,,,,,,Space,keypress(Space),,,,instrumental,,,,---- --------- ---------- - --- ------- -- --- ------------<br>vowed -- -------- ------- ---- ------ - -------- ---- -----<br>--- ------- ---- -- --- -------- --- - ----- ------ ---- --<br>-------- --- -------- -------- --- -------- ---- -- ----- -<br>-------- ---- --- ---------- --------- -- ------- ------ -<br>--------- ----- -----,442032.3999999999,442030.8000000003,441517.386,441527.8000000003,441534.066,442034.466,,9,vowed
screen,html.Screen,2_3_1_0_1_10,2022-02-16T09:22:00.988Z,,,,,,,,,,,,,,,,,15,,,,,,,,,,,,,,378.8340000002645,,response,,,,7,C,,,,,,Space,keypress(Space),,,,instrumental,,,,---- --------- ---------- - --- ------- -- --- ------------<br>----- he -------- ------- ---- ------ - -------- ---- -----<br>--- ------- ---- -- --- -------- --- - ----- ------ ---- --<br>-------- --- -------- -------- --- -------- ---- -- ----- -<br>-------- ---- --- ---------- --------- -- ------- ------ -<br>--------- ----- -----,442416.6000000001,442413.3000000003,442017.786,442032.5,442034.466,442418.106,,10,he
screen,html.Screen,2_3_1_0_1_11,2022-02-16T09:22:01.436Z,,,,,,,,,,,,,,,,,15,,,,,,,,,,,,,,445.39399999997113,,response,,,,7,C,,,,,,Space,keypress(Space),,,,instrumental,,,,---- --------- ---------- - --- ------- -- --- ------------<br>----- -- wouldn't ------- ---- ------ - -------- ---- -----<br>--- ------- ---- -- --- -------- --- - ----- ------ ---- --<br>-------- --- -------- -------- --- -------- ---- -- ----- -<br>-------- ---- --- ---------- --------- -- ------- ------ -<br>--------- ----- -----,442865,442863.5,442401.426,442416.6000000001,442418.106,442868.466,,11,wouldn't
screen,html.Screen,2_3_1_0_1_12,2022-02-16T09:22:01.944Z,,,,,,,,,,,,,,,,,15,,,,,,,,,,,,,,501.13400000007823,,response,,,,7,C,,,,,,Space,keypress(Space),,,,instrumental,,,,---- --------- ---------- - --- ------- -- --- ------------<br>----- -- -------- testify ---- ------ - -------- ---- -----<br>--- ------- ---- -- --- -------- --- - ----- ------ ---- --<br>-------- --- -------- -------- --- -------- ---- -- ----- -<br>-------- ---- --- ---------- --------- -- ------- ------ -<br>--------- ----- -----,443372.7000000002,443369.6000000001,442851.786,442865.1000000001,442868.466,443385.546,,12,testify
screen,html.Screen,2_3_1_0_1_13,2022-02-16T09:22:02.595Z,,,,,,,,,,,,,,,,,15,,,,,,,,,,,,,,636.6540000002133,,response,,,,7,C,,,,,,Space,keypress(Space),,,,instrumental,,,,---- --------- ---------- - --- ------- -- --- ------------<br>----- -- -------- ------- when ------ - -------- ---- -----<br>--- ------- ---- -- --- -------- --- - ----- ------ ---- --<br>-------- --- -------- -------- --- -------- ---- -- ----- -<br>-------- ---- --- ---------- --------- -- ------- ------ -<br>--------- ----- -----,444023.8999999999,444022.2000000002,443368.866,443372.8000000003,443385.546,444036.066,,13,when
screen,html.Screen,2_3_1_0_1_14,2022-02-16T09:22:02.979Z,,,,,,,,,,,,,,,,,15,,,,,,,,,,,,,,368.63400000019465,,response,,,,7,C,,,,,,Space,keypress(Space),,,,instrumental,,,,---- --------- ---------- - --- ------- -- --- ------------<br>----- -- -------- ------- ---- served - -------- ---- -----<br>--- ------- ---- -- --- -------- --- - ----- ------ ---- --<br>-------- --- -------- -------- --- -------- ---- -- ----- -<br>-------- ---- --- ---------- --------- -- ------- ------ -<br>--------- ----- -----,444407.8999999999,444404.7000000002,444019.386,444024.7000000002,444036.066,444419.706,,14,served
screen,html.Screen,2_3_1_0_1_15,2022-02-16T09:22:03.360Z,,,,,,,,,,,,,,,,,15,,,,,,,,,,,,,,367.5940000002738,,response,,,,7,C,,,,,,Space,keypress(Space),,,,instrumental,,,,---- --------- ---------- - --- ------- -- --- ------------<br>----- -- -------- ------- ---- ------ a -------- ---- -----<br>--- ------- ---- -- --- -------- --- - ----- ------ ---- --<br>-------- --- -------- -------- --- -------- ---- -- ----- -<br>-------- ---- --- ---------- --------- -- ------- ------ -<br>--------- ----- -----,444789,444787.3000000003,444403.026,444408,444419.706,444803.346,,15,a
screen,html.Screen,2_3_1_0_1_16,2022-02-16T09:22:03.755Z,,,,,,,,,,,,,,,,,15,,,,,,,,,,,,,,377.5539999998873,,response,,,,7,C,,,,,,Space,keypress(Space),,,,instrumental,,,,---- --------- ---------- - --- ------- -- --- ------------<br>----- -- -------- ------- ---- ------ - subpoena ---- -----<br>--- ------- ---- -- --- -------- --- - ----- ------ ---- --<br>-------- --- -------- -------- --- -------- ---- -- ----- -<br>-------- ---- --- ---------- --------- -- ------- ------ -<br>--------- ----- -----,445184.1000000001,445180.8999999999,444786.666,444789.1000000001,444803.346,445186.986,,16,subpoena
screen,html.Screen,2_3_1_0_1_17,2022-02-16T09:22:04.204Z,,,,,,,,,,,,,,,,,15,,,,,,,,,,,,,,444.1140000001178,,response,,,,7,C,,,,,,Space,keypress(Space),,,,instrumental,,,,---- --------- ---------- - --- ------- -- --- ------------<br>----- -- -------- ------- ---- ------ - -------- last -----<br>--- ------- ---- -- --- -------- --- - ----- ------ ---- --<br>-------- --- -------- -------- --- -------- ---- -- ----- -<br>-------- ---- --- ---------- --------- -- ------- ------ -<br>--------- ----- -----,445632.6000000001,445631.1000000001,445170.306,445184.2000000002,445186.986,445637.346,,17,last
screen,html.Screen,2_3_1_0_1_18,2022-02-16T09:22:04.667Z,,,,,,,,,,,,,,,,,15,,,,,,,,,,,,,,454.95400000025984,,response,,,,7,C,,,,,,Space,keypress(Space),,,,instrumental,,,,---- --------- ---------- - --- ------- -- --- ------------<br>----- -- -------- ------- ---- ------ - -------- ---- week.<br>--- ------- ---- -- --- -------- --- - ----- ------ ---- --<br>-------- --- -------- -------- --- -------- ---- -- ----- -<br>-------- ---- --- ---------- --------- -- ------- ------ -<br>--------- ----- -----,446095.3000000003,446092.3000000003,445620.666,445632.7000000002,445637.346,446104.386,,18,week.
screen,html.Screen,2_3_1_0_1_19,2022-02-16T09:22:05.712Z,,,,,,,,,,,,,,,,,15,,,,,,,,,,,,,,1034.2140000000945,,response,,,,7,C,,,,,,Space,keypress(Space),,,,instrumental,,,,---- --------- ---------- - --- ------- -- --- ------------<br>----- -- -------- ------- ---- ------ - -------- ---- -----<br>His ------- ---- -- --- -------- --- - ----- ------ ---- --<br>-------- --- -------- -------- --- -------- ---- -- ----- -<br>-------- ---- --- ---------- --------- -- ------- ------ -<br>--------- ----- -----,447140.5,447138.6000000001,446087.706,446095.3999999999,446104.386,447155.226,,19,His
screen,html.Screen,2_3_1_0_1_20,2022-02-16T09:22:06.455Z,,,,,,,,,,,,,,,,,15,,,,,,,,,,,,,,725.8740000000689,,response,,,,7,C,,,,,,Space,keypress(Space),,,,instrumental,,,,---- --------- ---------- - --- ------- -- --- ------------<br>----- -- -------- ------- ---- ------ - -------- ---- -----<br>--- lawyers ---- -- --- -------- --- - ----- ------ ---- --<br>-------- --- -------- -------- --- -------- ---- -- ----- -<br>-------- ---- --- ---------- --------- -- ------- ------ -<br>--------- ----- -----,447884.3000000003,447881.1000000001,447138.546,447140.5,447155.226,447889.146,,20,lawyers
screen,html.Screen,2_3_1_0_1_21,2022-02-16T09:22:07.039Z,,,,,,,,,,,,,,,,,15,,,,,,,,,,,,,,577.0540000001783,,response,,,,7,C,,,,,,Space,keypress(Space),,,,instrumental,,,,---- --------- ---------- - --- ------- -- --- ------------<br>----- -- -------- ------- ---- ------ - -------- ---- -----<br>--- ------- said -- --- -------- --- - ----- ------ ---- --<br>-------- --- -------- -------- --- -------- ---- -- ----- -<br>-------- ---- --- ---------- --------- -- ------- ------ -<br>--------- ----- -----,448467.7000000002,448466.2000000002,447872.466,447884.3000000003,447889.146,448472.946,,21,said
screen,html.Screen,2_3_1_0_1_22,2022-02-16T09:22:07.558Z,,,,,,,,,,,,,,,,,15,,,,,,,,,,,,,,510.75400000019,,response,,,,7,C,,,,,,Space,keypress(Space),,,,instrumental,,,,---- --------- ---------- - --- ------- -- --- ------------<br>----- -- -------- ------- ---- ------ - -------- ---- -----<br>--- ------- ---- he --- -------- --- - ----- ------ ---- --<br>-------- --- -------- -------- --- -------- ---- -- ----- -<br>-------- ---- --- ---------- --------- -- ------- ------ -<br>--------- ----- -----,448986.7000000002,448983.7000000002,448456.266,448467.8000000003,448472.946,448990.026,,22,he
screen,html.Screen,2_3_1_0_1_23,2022-02-16T09:22:08.209Z,,,,,,,,,,,,,,,,,15,,,,,,,,,,,,,,646.0740000000806,,response,,,,7,C,,,,,,Space,keypress(Space),,,,instrumental,,,,---- --------- ---------- - --- ------- -- --- ------------<br>----- -- -------- ------- ---- ------ - -------- ---- -----<br>--- ------- ---- -- was -------- --- - ----- ------ ---- --<br>-------- --- -------- -------- --- -------- ---- -- ----- -<br>-------- ---- --- ---------- --------- -- ------- ------ -<br>--------- ----- -----,449637.7000000002,449636.1000000001,448973.346,448986.8000000003,448990.026,449640.546,,23,was
screen,html.Screen,2_3_1_0_1_24,2022-02-16T09:22:09.144Z,,,,,,,,,,,,,,,,,15,,,,,,,,,,,,,,929.454000000027,,response,,,,7,C,,,,,,Space,keypress(Space),,,,instrumental,,,,---- --------- ---------- - --- ------- -- --- ------------<br>----- -- -------- ------- ---- ------ - -------- ---- -----<br>--- ------- ---- -- --- prepared --- - ----- ------ ---- --<br>-------- --- -------- -------- --- -------- ---- -- ----- -<br>-------- ---- --- ---------- --------- -- ------- ------ -<br>--------- ----- -----,450573.2000000002,450570,449623.866,449637.8000000003,449640.546,450574.626,,24,prepared
screen,html.Screen,2_3_1_0_1_25,2022-02-16T09:22:10.414Z,,,,,,,,,,,,,,,,,15,,,,,,,,,,,,,,1266.67400000029,,response,,,,7,C,,,,,,Space,keypress(Space),,,,instrumental,,,,---- --------- ---------- - --- ------- -- --- ------------<br>----- -- -------- ------- ---- ------ - -------- ---- -----<br>--- ------- ---- -- --- -------- for - ----- ------ ---- --<br>-------- --- -------- -------- --- -------- ---- -- ----- -<br>-------- ---- --- ---------- --------- -- ------- ------ -<br>--------- ----- -----,451842.8999999999,451841.3000000003,450557.946,450573.2000000002,450574.626,451858.986,,25,for
screen,html.Screen,2_3_1_0_1_26,2022-02-16T09:22:10.832Z,,,,,,,,,,,,,,,,,15,,,,,,,,,,,,,,398.6140000001178,,response,,,,7,C,,,,,,Space,keypress(Space),,,,instrumental,,,,---- --------- ---------- - --- ------- -- --- ------------<br>----- -- -------- ------- ---- ------ - -------- ---- -----<br>--- ------- ---- -- --- -------- --- a ----- ------ ---- --<br>-------- --- -------- -------- --- -------- ---- -- ----- -<br>-------- ---- --- ---------- --------- -- ------- ------ -<br>--------- ----- -----,452260.6000000001,452257.6000000001,451842.306,451843,451858.986,452275.986,,26,a
screen,html.Screen,2_3_1_0_1_27,2022-02-16T09:22:11.224Z,,,,,,,,,,,,,,,,,15,,,,,,,,,,,,,,375.3140000003041,,response,,,,7,C,,,,,,Space,keypress(Space),,,,instrumental,,,,---- --------- ---------- - --- ------- -- --- ------------<br>----- -- -------- ------- ---- ------ - -------- ---- -----<br>--- ------- ---- -- --- -------- --- - third ------ ---- --<br>-------- --- -------- -------- --- -------- ---- -- ----- -<br>-------- ---- --- ---------- --------- -- ------- ------ -<br>--------- ----- -----,452652.8999999999,452651.3000000003,452259.306,452260.7000000002,452275.986,452659.626,,27,third
screen,html.Screen,2_3_1_0_1_28,2022-02-16T09:22:11.630Z,,,,,,,,,,,,,,,,,15,,,,,,,,,,,,,,396.6740000002901,,response,,,,7,C,,,,,,Space,keypress(Space),,,,instrumental,,,,---- --------- ---------- - --- ------- -- --- ------------<br>----- -- -------- ------- ---- ------ - -------- ---- -----<br>--- ------- ---- -- --- -------- --- - ----- prison ---- --<br>-------- --- -------- -------- --- -------- ---- -- ----- -<br>-------- ---- --- ---------- --------- -- ------- ------ -<br>--------- ----- -----,453059.5,453056.3000000003,452642.946,452653.1000000001,452659.626,453076.626,,28,prison
screen,html.Screen,2_3_1_0_1_29,2022-02-16T09:22:12.034Z,,,,,,,,,,,,,,,,,15,,,,,,,,,,,,,,384.6740000002901,,response,,,,7,C,,,,,,Space,keypress(Space),,,,instrumental,,,,---- --------- ---------- - --- ------- -- --- ------------<br>----- -- -------- ------- ---- ------ - -------- ---- -----<br>--- ------- ---- -- --- -------- --- - ----- ------ stay --<br>-------- --- -------- -------- --- -------- ---- -- ----- -<br>-------- ---- --- ---------- --------- -- ------- ------ -<br>--------- ----- -----,453463,453461.3000000003,453059.946,453059.6000000001,453076.626,453476.946,,29,stay
screen,html.Screen,2_3_1_0_1_30,2022-02-16T09:22:12.418Z,,,,,,,,,,,,,,,,,15,,,,,,,,,,,,,,366.9539999999106,,response,,,,7,C,,,,,,Space,keypress(Space),,,,instrumental,,,,---- --------- ---------- - --- ------- -- --- ------------<br>----- -- -------- ------- ---- ------ - -------- ---- -----<br>--- ------- ---- -- --- -------- --- - ----- ------ ---- to<br>-------- --- -------- -------- --- -------- ---- -- ----- -<br>-------- ---- --- ---------- --------- -- ------- ------ -<br>--------- ----- -----,453847.1000000001,453843.8999999999,453460.266,453463,453476.946,453860.586,,30,to
screen,html.Screen,2_3_1_0_1_31,2022-02-16T09:22:12.821Z,,,,,,,,,,,,,,,,,15,,,,,,,,,,,,,,388.3139999998966,,response,,,,7,C,,,,,,Space,keypress(Space),,,,instrumental,,,,---- --------- ---------- - --- ------- -- --- ------------<br>----- -- -------- ------- ---- ------ - -------- ---- -----<br>--- ------- ---- -- --- -------- --- - ----- ------ ---- --<br>maintain --- -------- -------- --- -------- ---- -- ----- -<br>-------- ---- --- ---------- --------- -- ------- ------ -<br>--------- ----- -----,454250.6000000001,454248.8999999999,453843.906,453847.1000000001,453860.586,454260.906,,31,maintain
screen,html.Screen,2_3_1_0_1_32,2022-02-16T09:22:13.205Z,,,,,,,,,,,,,,,,,15,,,,,,,,,,,,,,370.59399999998277,,response,,,,7,C,,,,,,Space,keypress(Space),,,,instrumental,,,,---- --------- ---------- - --- ------- -- --- ------------<br>----- -- -------- ------- ---- ------ - -------- ---- -----<br>--- ------- ---- -- --- -------- --- - ----- ------ ---- --<br>-------- his -------- -------- --- -------- ---- -- ----- -<br>-------- ---- --- ---------- --------- -- ------- ------ -<br>--------- ----- -----,454634.6000000001,454631.5,454244.226,454250.7000000002,454260.906,454644.546,,32,his
screen,html.Screen,2_3_1_0_1_33,2022-02-16T09:22:13.733Z,,,,,,,,,,,,,,,,,15,,,,,,,,,,,,,,515.6540000002133,,response,,,,7,C,,,,,,Space,keypress(Space),,,,instrumental,,,,---- --------- ---------- - --- ------- -- --- ------------<br>----- -- -------- ------- ---- ------ - -------- ---- -----<br>--- ------- ---- -- --- -------- --- - ----- ------ ---- --<br>-------- --- silence. -------- --- -------- ---- -- ----- -<br>-------- ---- --- ---------- --------- -- ------- ------ -<br>--------- ----- -----,455161.8000000003,455160.2000000002,454627.866,454634.7000000002,454644.546,455178.306,,33,silence.
screen,html.Screen,2_3_1_0_1_34,2022-02-16T09:22:14.218Z,,,,,,,,,,,,,,,,,15,,,,,,,,,,,,,,465.59399999992456,,response,,,,7,C,,,,,,Space,keypress(Space),,,,instrumental,,,,---- --------- ---------- - --- ------- -- --- ------------<br>----- -- -------- ------- ---- ------ - -------- ---- -----<br>--- ------- ---- -- --- -------- --- - ----- ------ ---- --<br>-------- --- -------- Anderson --- -------- ---- -- ----- -<br>-------- ---- --- ---------- --------- -- ------- ------ -<br>--------- ----- -----,455647,455643.8999999999,455161.626,455161.8000000003,455178.306,455662.026,,34,Anderson
screen,html.Screen,2_3_1_0_1_35,2022-02-16T09:22:14.678Z,,,,,,,,,,,,,,,,,15,,,,,,,,,,,,,,443.2740000002668,,response,,,,7,C,,,,,,Space,keypress(Space),,,,instrumental,,,,---- --------- ---------- - --- ------- -- --- ------------<br>----- -- -------- ------- ---- ------ - -------- ---- -----<br>--- ------- ---- -- --- -------- --- - ----- ------ ---- --<br>-------- --- -------- -------- was -------- ---- -- ----- -<br>-------- ---- --- ---------- --------- -- ------- ------ -<br>--------- ----- -----,456106.8999999999,456105.3000000003,455645.346,455647.1000000001,455662.026,456112.386,,35,was
screen,html.Screen,2_3_1_0_1_36,2022-02-16T09:22:15.073Z,,,,,,,,,,,,,,,,,15,,,,,,,,,,,,,,386.6140000000014,,response,,,,7,C,,,,,,Space,keypress(Space),,,,instrumental,,,,---- --------- ---------- - --- ------- -- --- ------------<br>----- -- -------- ------- ---- ------ - -------- ---- -----<br>--- ------- ---- -- --- -------- --- - ----- ------ ---- --<br>-------- --- -------- -------- --- released ---- -- ----- -<br>-------- ---- --- ---------- --------- -- ------- ------ -<br>--------- ----- -----,456502.2000000002,456499,456095.706,456107,456112.386,456512.706,,36,released
screen,html.Screen,2_3_1_0_1_37,2022-02-16T09:22:15.443Z,,,,,,,,,,,,,,,,,15,,,,,,,,,,,,,,357.4940000001807,,response,,,,7,C,,,,,,Space,keypress(Space),,,,instrumental,,,,---- --------- ---------- - --- ------- -- --- ------------<br>----- -- -------- ------- ---- ------ - -------- ---- -----<br>--- ------- ---- -- --- -------- --- - ----- ------ ---- --<br>-------- --- -------- -------- --- -------- July -- ----- -<br>-------- ---- --- ---------- --------- -- ------- ------ -<br>--------- ----- -----,456871.8999999999,456870.2000000002,456496.026,456502.3000000003,456512.706,456879.666,,37,July
screen,html.Screen,2_3_1_0_1_38,2022-02-16T09:22:15.838Z,,,,,,,,,,,,,,,,,15,,,,,,,,,,,,,,384.33399999997346,,response,,,,7,C,,,,,,Space,keypress(Space),,,,instrumental,,,,---- --------- ---------- - --- ------- -- --- ------------<br>----- -- -------- ------- ---- ------ - -------- ---- -----<br>--- ------- ---- -- --- -------- --- - ----- ------ ---- --<br>-------- --- -------- -------- --- -------- ---- 20 ----- -<br>-------- ---- --- ---------- --------- -- ------- ------ -<br>--------- ----- -----,457267.2000000002,457264,456862.986,456871.8999999999,456879.666,457279.986,,38,20
screen,html.Screen,2_3_1_0_1_39,2022-02-16T09:22:16.219Z,,,,,,,,,,,,,,,,,15,,,,,,,,,,,,,,366.6140000001178,,response,,,,7,C,,,,,,Space,keypress(Space),,,,instrumental,,,,---- --------- ---------- - --- ------- -- --- ------------<br>----- -- -------- ------- ---- ------ - -------- ---- -----<br>--- ------- ---- -- --- -------- --- - ----- ------ ---- --<br>-------- --- -------- -------- --- -------- ---- -- after -<br>-------- ---- --- ---------- --------- -- ------- ------ -<br>--------- ----- -----,457648.3000000003,457646.6000000001,457263.306,457267.3000000003,457279.986,457663.626,,39,after
screen,html.Screen,2_3_1_0_1_40,2022-02-16T09:22:16.715Z,,,,,,,,,,,,,,,,,15,,,,,,,,,,,,,,477.97400000010384,,response,,,,7,C,,,,,,Space,keypress(Space),,,,instrumental,,,,---- --------- ---------- - --- ------- -- --- ------------<br>----- -- -------- ------- ---- ------ - -------- ---- -----<br>--- ------- ---- -- --- -------- --- - ----- ------ ---- --<br>-------- --- -------- -------- --- -------- ---- -- ----- a<br>-------- ---- --- ---------- --------- -- ------- ------ -<br>--------- ----- -----,458144.7000000002,458141.6000000001,457646.946,457648.3000000003,457663.626,458147.346,,40,a
