sender,sender_type,sender_id,timestamp,meta,,Blues,Classical,Country,Dance,Electronic,Folk,Gospel,Hip-Hop,Jazz,Latin,Musical/Film,New-age,Pop,Prolific_id,Provo_ID,R&B,Rap,Reggae,Religious,Rock,Soul,Swing,Traditional,age,artist_name,correct,correctResponse,distraction,duration,education,ended_on,familiarity,gender,headphone_check_performance,item,list,music_frequency,offensiveness,pleasantness,position_correct,preference,response,response_action,snippet_file,song_name,song_rating,sound,stimulus_1,stimulus_2,stimulus_3,text,time_commit,time_end,time_render,time_run,time_show,time_switch,url,word,word_ID
Prolific ID,html.Form,0,2022-02-15T12:58:17.841Z,"{""labjs_version"":""20.2.2"",""labjs_build"":{""flavor"":""production"",""commit"":""a25486e0c714a0ae2ce03ff94b7bb6896854dcfa""},""location"":""https://run.pavlovia.org/mvasilev/prolific2_music_e/"",""userAgent"":""Mozilla/5.0 (Windows NT 10.0; Win64; x64; rv:97.0) Gecko/20100101 Firefox/97.0"",""platform"":""Win32"",""language"":""en-GB"",""locale"":""en-GB"",""timeZone"":""Europe/London"",""timezoneOffset"":0,""screen_width"":1536,""screen_height"":864,""scroll_width"":1536,""scroll_height"":691,""window_innerWidth"":1536,""window_innerHeight"":739,""devicePixelRatio"":1.25}",,,,,,,,,,,,,,,5b0c6579d282ff00015b8c7f,,,,,,,,,,,,,,,6988.5,,form submission,,,,,,,,,,,,,,,,,,,,,13390,13389,6392.8,6393,6400.5,13398.82,{},,
Introduction,html.Screen,1_0,2022-02-15T12:58:25.353Z,,,,,,,,,,,,,,,,,,,,,,,,,,,,,,,7487.18,,response,,,,,,,,,,,continue,click button,,,,,,,,,20902,20886,13391.06,13391,13398.82,20913.66,,,
Volume calibration,html.Screen,1_1,2022-02-15T12:58:35.894Z,,,,,,,,,,,,,,,,,,,,,,,,,,,,,,,10519.34,,response,,,,,,,,,,,continue,click button,,,,,,,,,31442,31433,20901.32,20902,20913.66,31444.46,,,
Task instructions,html.Screen,1_2,2022-02-15T12:58:37.919Z,,,,,,,,,,,,,,,,,,,,,,,,,,,,,,,2019.5400000000009,,response,,,,,,,,,,,continue,click button,,,,,,,,,33467,33464,31441.22,31442,31444.46,33477.3,,,
Sounds,html.Screen,1_3_0_0,2022-02-15T12:58:42.162Z,,,,,,,,,,,,,,,,,,,,,,,,,,,,,,,4248.979999999996,,timeout,,,,,,,,,3,,,,,,,,I,O,S,,37711,37709.62,33466.92,33468,33477.3,37726.28,,,
Judgement,html.Screen,1_3_0_1,2022-02-15T12:58:46.633Z,,,,,,,,,,,,,,,,,,,,,,,,,,,,false,3,,4439.720000000001,,response,,,,,,,,,3,,1,click #choice-1,,,,,I,O,S,,42182,42166,37709.62,37712,37726.28,42191.86,,,
Trial,flow.Sequence,1_3_0,2022-02-15T12:58:46.634Z,,,,,,,,,,,,,,,,,,,,,,,,,,,,,,,8688.699999999997,,completion,,,,,,,,,3,,,,,,,,I,O,S,,42183,42166,33466.92,33468,33477.3,42191.86,,,
Sounds,html.Screen,1_3_1_0,2022-02-15T12:58:50.878Z,,,,,,,,,,,,,,,,,,,,,,,,,,,,,,,4248.979999999996,,timeout,,,,,,,,,3,,,,,,,,O,I,S,,46426,46424.18,42181.36,42184,42191.86,46440.84,,,
Judgement,html.Screen,1_3_1_1,2022-02-15T12:58:51.809Z,,,,,,,,,,,,,,,,,,,,,,,,,,,,true,3,,914.1600000000035,,response,,,,,,,,,3,,3,click #choice-3,,,,,O,I,S,,47358,47355,46424.18,46426,46440.84,47357.28,,,
Trial,flow.Sequence,1_3_1,2022-02-15T12:58:51.810Z,,,,,,,,,,,,,,,,,,,,,,,,,,,,,,,5163.139999999999,,completion,,,,,,,,,3,,,,,,,,O,I,S,,47359,47355,42181.36,42183,42191.86,47357.28,,,
Sounds,html.Screen,1_3_2_0,2022-02-15T12:58:56.043Z,,,,,,,,,,,,,,,,,,,,,,,,,,,,,,,4248.980000000003,,timeout,,,,,,,,,2,,,,,,,,O,S,I,,51592,51589.6,47357.24,47359,47357.28,51606.26,,,
Judgement,html.Screen,1_3_2_1,2022-02-15T12:58:56.760Z,,,,,,,,,,,,,,,,,,,,,,,,,,,,true,2,,685.739999999998,,response,,,,,,,,,2,,2,click #choice-2,,,,,O,S,I,,52308,52292,51589.6,51592,51606.26,52322.76,,,
Trial,flow.Sequence,1_3_2,2022-02-15T12:58:56.760Z,,,,,,,,,,,,,,,,,,,,,,,,,,,,,,,4934.720000000001,,completion,,,,,,,,,2,,,,,,,,O,S,I,,52309,52292,47357.24,47359,47357.28,52322.76,,,
Sounds,html.Screen,1_3_3_0,2022-02-15T12:59:01.008Z,,,,,,,,,,,,,,,,,,,,,,,,,,,,,,,4248.979999999996,,timeout,,,,,,,,,2,,,,,,,,I,S,O,,56556,56555.08,52307.06,52309,52322.76,56571.74,,,
Judgement,html.Screen,1_3_3_1,2022-02-15T12:59:01.598Z,,,,,,,,,,,,,,,,,,,,,,,,,,,,true,2,,564.260000000002,,response,,,,,,,,,2,,2,click #choice-2,,,,,I,S,O,,57148,57136,56555.08,56557,56571.74,57154.92,,,
Trial,flow.Sequence,1_3_3,2022-02-15T12:59:01.598Z,,,,,,,,,,,,,,,,,,,,,,,,,,,,,,,4813.239999999998,,completion,,,,,,,,,2,,,,,,,,I,S,O,,57148,57136,52307.06,52309,52322.76,57154.92,,,
Sounds,html.Screen,1_3_4_0,2022-02-15T12:59:05.840Z,,,,,,,,,,,,,,,,,,,,,,,,,,,,,,,4248.980000000003,,timeout,,,,,,,,,1,,,,,,,,S,O,I,,61389,61387.24,57146.26,57148,57154.92,61403.9,,,
Judgement,html.Screen,1_3_4_1,2022-02-15T12:59:06.659Z,,,,,,,,,,,,,,,,,,,,,,,,,,,,true,1,,794.0999999999985,,response,,,,,,,,,1,,1,click #choice-1,,,,,S,O,I,,62207,62198,61387.24,61389,61403.9,62220.38,,,
Trial,flow.Sequence,1_3_4,2022-02-15T12:59:06.659Z,,,,,,,,,,,,,,,,,,,,,,,,,,,,,,,5043.080000000002,,completion,,,,,,,,,1,,,,,,,,S,O,I,,62207,62198,57146.26,57148,57154.92,62220.38,,,
Sounds,html.Screen,1_3_5_0,2022-02-15T12:59:10.906Z,,,,,,,,,,,,,,,,,,,,,,,,,,,,,,,4248.959999999999,,timeout,,,,,,,,,1,,,,,,,,S,I,O,,66455,66452.68,62206.26,62207,62220.38,66469.34,,,
Judgement,html.Screen,1_3_5_1,2022-02-15T12:59:11.454Z,,,,,,,,,,,,,,,,,,,,,,,,,,,,true,1,,524.6600000000035,,response,,,,,,,,,1,,1,click #choice-1,,,,,S,I,O,,67002,66994,66452.68,66455,66469.34,67002.56,,,
Trial,flow.Sequence,1_3_5,2022-02-15T12:59:11.454Z,,,,,,,,,,,,,,,,,,,,,,,,,,,,,,,4773.620000000003,,completion,,,,,,,,,1,,,,,,,,S,I,O,,67002,66994,62206.26,62207,62220.38,67002.56,,,
Task,flow.Loop,1_3,2022-02-15T12:59:11.454Z,,,,,,,,,,,,,,,,,,,,,,,,,,,,,,,33516.7,,completion,,,0.8333333333333334,,,,,,,,,,,,,,,,,,67003,66994,33466.92,33468,33477.3,67002.56,,,
Trap,html.Screen,1_4,2022-02-15T12:59:11.458Z,,,,,,,,,,,,,,,,,,,,,,,,,,,,,,,NaN,,skipped,,,,,,,,,,,,,,,,,,,,,67006,66994,,67006,,67002.56,,,
Thanks,html.Screen,1_5,2022-02-15T12:59:15.993Z,,,,,,,,,,,,,,,,,,,,,,,,,,,,,,,4523.440000000002,,response,,,,,,,,,,,continue,click button,,,,,,,,,71542,71526,67001.24,67006,67002.56,78549.76,,,
Headphone screening,flow.Sequence,1,2022-02-15T12:59:15.993Z,,,,,,,,,,,,,,,,,,,,,,,,,,,,,,,58127.18,,completion,,,,,,,,,,,,,,,,,,,,,71542,71526,13391.06,13391,13398.82,78549.76,,,
Instructions,html.Page,2_0,2022-02-15T12:59:30.230Z,,,,,,,,,,,,,,,,,,,,,,,,,,,,,,,7228.240000000005,,form submission,,,,,,,,,,,,,,,,,,,,,85779,85778,78533.1,78529,78549.76,85781.36,,,
Holding screen,html.Screen,2_1_0_0,2022-02-15T12:59:40.216Z,,,,,,,,,,,,,,,,,,,,,,,,,,,,,,,9997.580000000002,,timeout,,,,,,,,,,,,,,,,,,,,,95765,95762.28,85775.28,85779,85781.36,95778.94,,,
screen,html.Screen,2_1_0_1_0,2022-02-15T12:59:41.082Z,,,,,,,,,,,,,,,,,53,,,,,,,,,,,,,,841.0599999999977,,response,,,,99,,,,,,,Space,keypress(Space),,,,,,,,When -- ----- -- ------ - ------- --- ----------<br>------------- ------ ------ ---- ---- ------- ----- -- ----<br>-------- ------- -- ---------- --- - --- ----- ----- ----<br>---- --- --- ----- --- ---- ---- ------- ----- ---- -------<br>--- --- -- ----- -- --- ---- -- --- ---- -- ------ ------<br>--- ----- -- ----,96631,96620,95762.28,95765,95778.94,96645.4,,0,When
screen,html.Screen,2_1_0_1_1,2022-02-15T12:59:41.451Z,,,,,,,,,,,,,,,,,53,,,,,,,,,,,,,,349.6000000000058,,response,,,,99,,,,,,,Space,keypress(Space),,,,,,,,---- it ----- -- ------ - ------- --- ----------<br>------------- ------ ------ ---- ---- ------- ----- -- ----<br>-------- ------- -- ---------- --- - --- ----- ----- ----<br>---- --- --- ----- --- ---- ---- ------- ----- ---- -------<br>--- --- -- ----- -- --- ---- -- --- ---- -- ------ ------<br>--- ----- -- ----,97000,96995,96630.92,96631,96645.4,97011.98,,1,it
screen,html.Screen,2_1_0_1_2,2022-02-15T12:59:41.868Z,,,,,,,,,,,,,,,,,53,,,,,,,,,,,,,,390.0200000000041,,response,,,,99,,,,,,,Space,keypress(Space),,,,,,,,---- -- comes -- ------ - ------- --- ----------<br>------------- ------ ------ ---- ---- ------- ----- -- ----<br>-------- ------- -- ---------- --- - --- ----- ----- ----<br>---- --- --- ----- --- ---- ---- ------- ----- ---- -------<br>--- --- -- ----- -- --- ---- -- --- ---- -- ------ ------<br>--- ----- -- ----,97417,97402,97000.42,97000,97011.98,97428.54,,2,comes
screen,html.Screen,2_1_0_1_3,2022-02-15T12:59:42.310Z,,,,,,,,,,,,,,,,,53,,,,,,,,,,,,,,425.4600000000064,,response,,,,99,,,,,,,Space,keypress(Space),,,,,,,,---- -- ----- to ------ - ------- --- ----------<br>------------- ------ ------ ---- ---- ------- ----- -- ----<br>-------- ------- -- ---------- --- - --- ----- ----- ----<br>---- --- --- ----- --- ---- ---- ------- ----- ---- -------<br>--- --- -- ----- -- --- ---- -- --- ---- -- ------ ------<br>--- ----- -- ----,97858,97854,97416.52,97417,97428.54,97861.78,,3,to
screen,html.Screen,2_1_0_1_4,2022-02-15T12:59:42.616Z,,,,,,,,,,,,,,,,,53,,,,,,,,,,,,,,289.22000000000116,,response,,,,99,,,,,,,Space,keypress(Space),,,,,,,,---- -- ----- -- having - ------- --- ----------<br>------------- ------ ------ ---- ---- ------- ----- -- ----<br>-------- ------- -- ---------- --- - --- ----- ----- ----<br>---- --- --- ----- --- ---- ---- ------- ----- ---- -------<br>--- --- -- ----- -- --- ---- -- --- ---- -- ------ ------<br>--- ----- -- ----,98164,98151,97859.28,97860,97861.78,98178.36,,4,having
screen,html.Screen,2_1_0_1_5,2022-02-15T12:59:42.941Z,,,,,,,,,,,,,,,,,53,,,,,,,,,,,,,,300.6399999999994,,response,,,,99,,,,,,,Space,keypress(Space),,,,,,,,---- -- ----- -- ------ a ------- --- ----------<br>------------- ------ ------ ---- ---- ------- ----- -- ----<br>-------- ------- -- ---------- --- - --- ----- ----- ----<br>---- --- --- ----- --- ---- ---- ------- ----- ---- -------<br>--- --- -- ----- -- --- ---- -- --- ---- -- ------ ------<br>--- ----- -- ----,98490,98479,98164.82,98164,98178.36,98494.96,,5,a
screen,html.Screen,2_1_0_1_6,2022-02-15T12:59:43.275Z,,,,,,,,,,,,,,,,,53,,,,,,,,,,,,,,312.0399999999936,,response,,,,99,,,,,,,Space,keypress(Space),,,,,,,,---- -- ----- -- ------ - lasting --- ----------<br>------------- ------ ------ ---- ---- ------- ----- -- ----<br>-------- ------- -- ---------- --- - --- ----- ----- ----<br>---- --- --- ----- --- ---- ---- ------- ----- ---- -------<br>--- --- -- ----- -- --- ---- -- --- ---- -- ------ ------<br>--- ----- -- ----,98824,98807,98490.42,98490,98494.96,98828.2,,6,lasting
screen,html.Screen,2_1_0_1_7,2022-02-15T12:59:43.649Z,,,,,,,,,,,,,,,,,53,,,,,,,,,,,,,,354.8000000000029,,response,,,,99,,,,,,,Space,keypress(Space),,,,,,,,---- -- ----- -- ------ - ------- and ----------<br>------------- ------ ------ ---- ---- ------- ----- -- ----<br>-------- ------- -- ---------- --- - --- ----- ----- ----<br>---- --- --- ----- --- ---- ---- ------- ----- ---- -------<br>--- --- -- ----- -- --- ---- -- --- ---- -- ------ ------<br>--- ----- -- ----,99198,99183,98823.58,98824,98828.2,99211.44,,7,and
screen,html.Screen,2_1_0_1_8,2022-02-15T12:59:44.049Z,,,,,,,,,,,,,,,,,53,,,,,,,,,,,,,,377.5599999999977,,response,,,,99,,,,,,,Space,keypress(Space),,,,,,,,---- -- ----- -- ------ - ------- --- fulfilling<br>------------- ------ ------ ---- ---- ------- ----- -- ----<br>-------- ------- -- ---------- --- - --- ----- ----- ----<br>---- --- --- ----- --- ---- ---- ------- ----- ---- -------<br>--- --- -- ----- -- --- ---- -- --- ---- -- ------ ------<br>--- ----- -- ----,99598,99589,99198.38,99198,99211.44,99611.36,,8,fulfilling
screen,html.Screen,2_1_0_1_9,2022-02-15T12:59:44.523Z,,,,,,,,,,,,,,,,,53,,,,,,,,,,,,,,446.6399999999994,,response,,,,99,,,,,,,Space,keypress(Space),,,,,,,,"---- -- ----- -- ------ - ------- --- ----------<br>relationship, ------ ------ ---- ---- ------- ----- -- ----<br>-------- ------- -- ---------- --- - --- ----- ----- ----<br>---- --- --- ----- --- ---- ---- ------- ----- ---- -------<br>--- --- -- ----- -- --- ---- -- --- ---- -- ------ ------<br>--- ----- -- ----",100072,100058,99597.64,99598,99611.36,100077.9,,9,"relationship,"
screen,html.Screen,2_1_0_1_10,2022-02-15T12:59:45.350Z,,,,,,,,,,,,,,,,,53,,,,,,,,,,,,,,808.1000000000058,,response,,,,99,,,,,,,Space,keypress(Space),,,,,,,,---- -- ----- -- ------ - ------- --- ----------<br>------------- common ------ ---- ---- ------- ----- -- ----<br>-------- ------- -- ---------- --- - --- ----- ----- ----<br>---- --- --- ----- --- ---- ---- ------- ----- ---- -------<br>--- --- -- ----- -- --- ---- -- --- ---- -- ------ ------<br>--- ----- -- ----,100899,100886,100072.42,100073,100077.9,100911.04,,10,common
screen,html.Screen,2_1_0_1_11,2022-02-15T12:59:45.795Z,,,,,,,,,,,,,,,,,53,,,,,,,,,,,,,,427.9600000000064,,response,,,,99,,,,,,,Space,keypress(Space),,,,,,,,---- -- ----- -- ------ - ------- --- ----------<br>------------- ------ wisdom ---- ---- ------- ----- -- ----<br>-------- ------- -- ---------- --- - --- ----- ----- ----<br>---- --- --- ----- --- ---- ---- ------- ----- ---- -------<br>--- --- -- ----- -- --- ---- -- --- ---- -- ------ ------<br>--- ----- -- ----,101343,101339,100899.62,100900,100911.04,101344.26,,11,wisdom
screen,html.Screen,2_1_0_1_12,2022-02-15T12:59:46.553Z,,,,,,,,,,,,,,,,,53,,,,,,,,,,,,,,744.7400000000052,,response,,,,99,,,,,,,Space,keypress(Space),,,,,,,,---- -- ----- -- ------ - ------- --- ----------<br>------------- ------ ------ says ---- ------- ----- -- ----<br>-------- ------- -- ---------- --- - --- ----- ----- ----<br>---- --- --- ----- --- ---- ---- ------- ----- ---- -------<br>--- --- -- ----- -- --- ---- -- --- ---- -- ------ ------<br>--- ----- -- ----,102101,102089,101343.44,101343,101344.26,102110.74,,12,says
screen,html.Screen,2_1_0_1_13,2022-02-15T12:59:47.486Z,,,,,,,,,,,,,,,,,53,,,,,,,,,,,,,,916.2599999999948,,response,,,,99,,,,,,,Space,keypress(Space),,,,,,,,---- -- ----- -- ------ - ------- --- ----------<br>------------- ------ ------ ---- that ------- ----- -- ----<br>-------- ------- -- ---------- --- - --- ----- ----- ----<br>---- --- --- ----- --- ---- ---- ------- ----- ---- -------<br>--- --- -- ----- -- --- ---- -- --- ---- -- ------ ------<br>--- ----- -- ----,103035,103027,102101.7,102101,102110.74,103043.86,,13,that
screen,html.Screen,2_1_0_1_14,2022-02-15T12:59:47.887Z,,,,,,,,,,,,,,,,,53,,,,,,,,,,,,,,389.1399999999994,,response,,,,99,,,,,,,Space,keypress(Space),,,,,,,,---- -- ----- -- ------ - ------- --- ----------<br>------------- ------ ------ ---- ---- feeling ----- -- ----<br>-------- ------- -- ---------- --- - --- ----- ----- ----<br>---- --- --- ----- --- ---- ---- ------- ----- ---- -------<br>--- --- -- ----- -- --- ---- -- --- ---- -- ------ ------<br>--- ----- -- ----,103436,103433,103034.86,103035,103043.86,103443.76,,14,feeling
screen,html.Screen,2_1_0_1_15,2022-02-15T12:59:48.163Z,,,,,,,,,,,,,,,,,53,,,,,,,,,,,,,,254.24000000000524,,response,,,,99,,,,,,,Space,keypress(Space),,,,,,,,---- -- ----- -- ------ - ------- --- ----------<br>------------- ------ ------ ---- ---- ------- close -- ----<br>-------- ------- -- ---------- --- - --- ----- ----- ----<br>---- --- --- ----- --- ---- ---- ------- ----- ---- -------<br>--- --- -- ----- -- --- ---- -- --- ---- -- ------ ------<br>--- ----- -- ----,103711,103698,103435.68,103436,103443.76,103727.02,,15,close
screen,html.Screen,2_1_0_1_16,2022-02-15T12:59:48.510Z,,,,,,,,,,,,,,,,,53,,,,,,,,,,,,,,314.9799999999959,,response,,,,99,,,,,,,Space,keypress(Space),,,,,,,,---- -- ----- -- ------ - ------- --- ----------<br>------------- ------ ------ ---- ---- ------- ----- to ----<br>-------- ------- -- ---------- --- - --- ----- ----- ----<br>---- --- --- ----- --- ---- ---- ------- ----- ---- -------<br>--- --- -- ----- -- --- ---- -- --- ---- -- ------ ------<br>--- ----- -- ----,104059,104042,103712,103712,103727.02,104060.28,,16,to
screen,html.Screen,2_1_0_1_17,2022-02-15T12:59:48.840Z,,,,,,,,,,,,,,,,,53,,,,,,,,,,,,,,325.72000000000116,,response,,,,99,,,,,,,Space,keypress(Space),,,,,,,,---- -- ----- -- ------ - ------- --- ----------<br>------------- ------ ------ ---- ---- ------- ----- -- your<br>-------- ------- -- ---------- --- - --- ----- ----- ----<br>---- --- --- ----- --- ---- ---- ------- ----- ---- -------<br>--- --- -- ----- -- --- ---- -- --- ---- -- ------ ------<br>--- ----- -- ----,104389,104386,104059.1,104059,104060.28,104393.54,,17,your
screen,html.Screen,2_1_0_1_18,2022-02-15T12:59:50.043Z,,,,,,,,,,,,,,,,,53,,,,,,,,,,,,,,1179.4600000000064,,response,,,,99,,,,,,,Space,keypress(Space),,,,,,,,---- -- ----- -- ------ - ------- --- ----------<br>------------- ------ ------ ---- ---- ------- ----- -- ----<br>romantic ------- -- ---------- --- - --- ----- ----- ----<br>---- --- --- ----- --- ---- ---- ------- ----- ---- -------<br>--- --- -- ----- -- --- ---- -- --- ---- -- ------ ------<br>--- ----- -- ----,105591,105573,104389.56,104390,104393.54,105593.24,,18,romantic
screen,html.Screen,2_1_0_1_19,2022-02-15T12:59:50.441Z,,,,,,,,,,,,,,,,,53,,,,,,,,,,,,,,386.75999999999476,,response,,,,99,,,,,,,Space,keypress(Space),,,,,,,,---- -- ----- -- ------ - ------- --- ----------<br>------------- ------ ------ ---- ---- ------- ----- -- ----<br>-------- partner -- ---------- --- - --- ----- ----- ----<br>---- --- --- ----- --- ---- ---- ------- ----- ---- -------<br>--- --- -- ----- -- --- ---- -- --- ---- -- ------ ------<br>--- ----- -- ----,105990,105980,105591.22,105591,105593.24,105993.14,,19,partner
screen,html.Screen,2_1_0_1_20,2022-02-15T12:59:50.800Z,,,,,,,,,,,,,,,,,53,,,,,,,,,,,,,,345.8600000000006,,response,,,,99,,,,,,,Space,keypress(Space),,,,,,,,---- -- ----- -- ------ - ------- --- ----------<br>------------- ------ ------ ---- ---- ------- ----- -- ----<br>-------- ------- is ---------- --- - --- ----- ----- ----<br>---- --- --- ----- --- ---- ---- ------- ----- ---- -------<br>--- --- -- ----- -- --- ---- -- --- ---- -- ------ ------<br>--- ----- -- ----,106349,106339,105990.2,105990,105993.14,106359.72,,20,is
screen,html.Screen,2_1_0_1_21,2022-02-15T12:59:51.070Z,,,,,,,,,,,,,,,,,53,,,,,,,,,,,,,,245.27999999999884,,response,,,,99,,,,,,,Space,keypress(Space),,,,,,,,---- -- ----- -- ------ - ------- --- ----------<br>------------- ------ ------ ---- ---- ------- ----- -- ----<br>-------- ------- -- paramount. --- - --- ----- ----- ----<br>---- --- --- ----- --- ---- ---- ------- ----- ---- -------<br>--- --- -- ----- -- --- ---- -- --- ---- -- ------ ------<br>--- ----- -- ----,106619,106605,106349.04,106349,106359.72,106626.32,,21,paramount.
screen,html.Screen,2_1_0_1_22,2022-02-15T12:59:52.012Z,,,,,,,,,,,,,,,,,53,,,,,,,,,,,,,,931.679999999993,,response,,,,99,,,,,,,Space,keypress(Space),,,,,,,,---- -- ----- -- ------ - ------- --- ----------<br>------------- ------ ------ ---- ---- ------- ----- -- ----<br>-------- ------- -- ---------- But - --- ----- ----- ----<br>---- --- --- ----- --- ---- ---- ------- ----- ---- -------<br>--- --- -- ----- -- --- ---- -- --- ---- -- ------ ------<br>--- ----- -- ----,107561,107558,106619.22,106619,106626.32,107576.1,,22,But
screen,html.Screen,2_1_0_1_23,2022-02-15T12:59:52.448Z,,,,,,,,,,,,,,,,,53,,,,,,,,,,,,,,403.8999999999942,,response,,,,99,,,,,,,Space,keypress(Space),,,,,,,,---- -- ----- -- ------ - ------- --- ----------<br>------------- ------ ------ ---- ---- ------- ----- -- ----<br>-------- ------- -- ---------- --- a --- ----- ----- ----<br>---- --- --- ----- --- ---- ---- ------- ----- ---- -------<br>--- --- -- ----- -- --- ---- -- --- ---- -- ------ ------<br>--- ----- -- ----,107997,107980,107561.22,107561,107576.1,108009.32,,23,a
screen,html.Screen,2_1_0_1_24,2022-02-15T12:59:53.031Z,,,,,,,,,,,,,,,,,53,,,,,,,,,,,,,,563.679999999993,,response,,,,99,,,,,,,Space,keypress(Space),,,,,,,,---- -- ----- -- ------ - ------- --- ----------<br>------------- ------ ------ ---- ---- ------- ----- -- ----<br>-------- ------- -- ---------- --- - new ----- ----- ----<br>---- --- --- ----- --- ---- ---- ------- ----- ---- -------<br>--- --- -- ----- -- --- ---- -- --- ---- -- ------ ------<br>--- ----- -- ----,108581,108573,107997.4,107997,108009.32,108592.52,,24,new
screen,html.Screen,2_1_0_1_25,2022-02-15T12:59:53.607Z,,,,,,,,,,,,,,,,,53,,,,,,,,,,,,,,559.4799999999959,,response,,,,99,,,,,,,Space,keypress(Space),,,,,,,,---- -- ----- -- ------ - ------- --- ----------<br>------------- ------ ------ ---- ---- ------- ----- -- ----<br>-------- ------- -- ---------- --- - --- study ----- ----<br>---- --- --- ----- --- ---- ---- ------- ----- ---- -------<br>--- --- -- ----- -- --- ---- -- --- ---- -- ------ ------<br>--- ----- -- ----,109156,109152,108580.76,108581,108592.52,109159.04,,25,study
screen,html.Screen,2_1_0_1_26,2022-02-15T12:59:54.061Z,,,,,,,,,,,,,,,,,53,,,,,,,,,,,,,,444.9600000000064,,response,,,,99,,,,,,,Space,keypress(Space),,,,,,,,---- -- ----- -- ------ - ------- --- ----------<br>------------- ------ ------ ---- ---- ------- ----- -- ----<br>-------- ------- -- ---------- --- - --- ----- finds ----<br>---- --- --- ----- --- ---- ---- ------- ----- ---- -------<br>--- --- -- ----- -- --- ---- -- --- ---- -- ------ ------<br>--- ----- -- ----,109611,109604,109156.1,109156,109159.04,109625.6,,26,finds
screen,html.Screen,2_1_0_1_27,2022-02-15T12:59:54.422Z,,,,,,,,,,,,,,,,,53,,,,,,,,,,,,,,337.3999999999942,,response,,,,99,,,,,,,Space,keypress(Space),,,,,,,,---- -- ----- -- ------ - ------- --- ----------<br>------------- ------ ------ ---- ---- ------- ----- -- ----<br>-------- ------- -- ---------- --- - --- ----- ----- that<br>---- --- --- ----- --- ---- ---- ------- ----- ---- -------<br>--- --- -- ----- -- --- ---- -- --- ---- -- ------ ------<br>--- ----- -- ----,109971,109963,109610.84,109611,109625.6,109975.52,,27,that
screen,html.Screen,2_1_0_1_28,2022-02-15T12:59:54.786Z,,,,,,,,,,,,,,,,,53,,,,,,,,,,,,,,346.4799999999959,,response,,,,99,,,,,,,Space,keypress(Space),,,,,,,,---- -- ----- -- ------ - ------- --- ----------<br>------------- ------ ------ ---- ---- ------- ----- -- ----<br>-------- ------- -- ---------- --- - --- ----- ----- ----<br>it's --- --- ----- --- ---- ---- ------- ----- ---- -------<br>--- --- -- ----- -- --- ---- -- --- ---- -- ------ ------<br>--- ----- -- ----,110335,110322,109970.9,109971,109975.52,110342.1,,28,it's
screen,html.Screen,2_1_0_1_29,2022-02-15T12:59:55.030Z,,,,,,,,,,,,,,,,,53,,,,,,,,,,,,,,229.89999999999418,,response,,,,99,,,,,,,Space,keypress(Space),,,,,,,,---- -- ----- -- ------ - ------- --- ----------<br>------------- ------ ------ ---- ---- ------- ----- -- ----<br>-------- ------- -- ---------- --- - --- ----- ----- ----<br>---- not --- ----- --- ---- ---- ------- ----- ---- -------<br>--- --- -- ----- -- --- ---- -- --- ---- -- ------ ------<br>--- ----- -- ----,110578,110572,110334.96,110335,110342.1,110592.04,,29,not
screen,html.Screen,2_1_0_1_30,2022-02-15T12:59:55.399Z,,,,,,,,,,,,,,,,,53,,,,,,,,,,,,,,339.9600000000064,,response,,,,99,,,,,,,Space,keypress(Space),,,,,,,,---- -- ----- -- ------ - ------- --- ----------<br>------------- ------ ------ ---- ---- ------- ----- -- ----<br>-------- ------- -- ---------- --- - --- ----- ----- ----<br>---- --- how ----- --- ---- ---- ------- ----- ---- -------<br>--- --- -- ----- -- --- ---- -- --- ---- -- ------ ------<br>--- ----- -- ----,110948,110932,110578.14,110578,110592.04,110958.62,,30,how
screen,html.Screen,2_1_0_1_31,2022-02-15T12:59:55.666Z,,,,,,,,,,,,,,,,,53,,,,,,,,,,,,,,238.38000000000466,,response,,,,99,,,,,,,Space,keypress(Space),,,,,,,,---- -- ----- -- ------ - ------- --- ----------<br>------------- ------ ------ ---- ---- ------- ----- -- ----<br>-------- ------- -- ---------- --- - --- ----- ----- ----<br>---- --- --- close --- ---- ---- ------- ----- ---- -------<br>--- --- -- ----- -- --- ---- -- --- ---- -- ------ ------<br>--- ----- -- ----,111215,111197,110948.66,110948,110958.62,111225.22,,31,close
screen,html.Screen,2_1_0_1_32,2022-02-15T12:59:56.161Z,,,,,,,,,,,,,,,,,53,,,,,,,,,,,,,,471.77999999999884,,response,,,,99,,,,,,,Space,keypress(Space),,,,,,,,---- -- ----- -- ------ - ------- --- ----------<br>------------- ------ ------ ---- ---- ------- ----- -- ----<br>-------- ------- -- ---------- --- - --- ----- ----- ----<br>---- --- --- ----- you ---- ---- ------- ----- ---- -------<br>--- --- -- ----- -- --- ---- -- --- ---- -- ------ ------<br>--- ----- -- ----,111710,111697,111215,111215,111225.22,111725.1,,32,you
screen,html.Screen,2_1_0_1_33,2022-02-15T12:59:56.490Z,,,,,,,,,,,,,,,,,53,,,,,,,,,,,,,,300.8999999999942,,response,,,,99,,,,,,,Space,keypress(Space),,,,,,,,---- -- ----- -- ------ - ------- --- ----------<br>------------- ------ ------ ---- ---- ------- ----- -- ----<br>-------- ------- -- ---------- --- - --- ----- ----- ----<br>---- --- --- ----- --- feel ---- ------- ----- ---- -------<br>--- --- -- ----- -- --- ---- -- --- ---- -- ------ ------<br>--- ----- -- ----,112039,112026,111709.88,111710,111725.1,112041.68,,33,feel
screen,html.Screen,2_1_0_1_34,2022-02-15T12:59:56.984Z,,,,,,,,,,,,,,,,,53,,,,,,,,,,,,,,485.320000000007,,response,,,,99,,,,,,,Space,keypress(Space),,,,,,,,---- -- ----- -- ------ - ------- --- ----------<br>------------- ------ ------ ---- ---- ------- ----- -- ----<br>-------- ------- -- ---------- --- - --- ----- ----- ----<br>---- --- --- ----- --- ---- that ------- ----- ---- -------<br>--- --- -- ----- -- --- ---- -- --- ---- -- ------ ------<br>--- ----- -- ----,112533,112527,112039.6,112040,112041.68,112541.56,,34,that
screen,html.Screen,2_1_0_1_35,2022-02-15T12:59:57.296Z,,,,,,,,,,,,,,,,,53,,,,,,,,,,,,,,297.4400000000023,,response,,,,99,,,,,,,Space,keypress(Space),,,,,,,,---- -- ----- -- ------ - ------- --- ----------<br>------------- ------ ------ ---- ---- ------- ----- -- ----<br>-------- ------- -- ---------- --- - --- ----- ----- ----<br>---- --- --- ----- --- ---- ---- matters ----- ---- -------<br>--- --- -- ----- -- --- ---- -- --- ---- -- ------ ------<br>--- ----- -- ----,112845,112839,112533.2,112533,112541.56,112858.16,,35,matters
screen,html.Screen,2_1_0_1_36,2022-02-15T12:59:58.042Z,,,,,,,,,,,,,,,,,53,,,,,,,,,,,,,,714.8399999999965,,response,,,,99,,,,,,,Space,keypress(Space),,,,,,,,"---- -- ----- -- ------ - ------- --- ----------<br>------------- ------ ------ ---- ---- ------- ----- -- ----<br>-------- ------- -- ---------- --- - --- ----- ----- ----<br>---- --- --- ----- --- ---- ---- ------- most, ---- -------<br>--- --- -- ----- -- --- ---- -- --- ---- -- ------ ------<br>--- ----- -- ----",113591,113573,112845.48,112845,112858.16,113591.32,,36,"most,"
screen,html.Screen,2_1_0_1_37,2022-02-15T12:59:58.478Z,,,,,,,,,,,,,,,,,53,,,,,,,,,,,,,,419.679999999993,,response,,,,99,,,,,,,Space,keypress(Space),,,,,,,,---- -- ----- -- ------ - ------- --- ----------<br>------------- ------ ------ ---- ---- ------- ----- -- ----<br>-------- ------- -- ---------- --- - --- ----- ----- ----<br>---- --- --- ----- --- ---- ---- ------- ----- it's -------<br>--- --- -- ----- -- --- ---- -- --- ---- -- ------ ------<br>--- ----- -- ----,114026,114011,113590.96,113591,113591.32,114041.2,,37,it's
screen,html.Screen,2_1_0_1_38,2022-02-15T12:59:58.894Z,,,,,,,,,,,,,,,,,53,,,,,,,,,,,,,,391.8000000000029,,response,,,,99,,,,,,,Space,keypress(Space),,,,,,,,---- -- ----- -- ------ - ------- --- ----------<br>------------- ------ ------ ---- ---- ------- ----- -- ----<br>-------- ------- -- ---------- --- - --- ----- ----- ----<br>---- --- --- ----- --- ---- ---- ------- ----- ---- whether<br>--- --- -- ----- -- --- ---- -- --- ---- -- ------ ------<br>--- ----- -- ----,114443,114433,114026.28,114026,114041.2,114457.76,,38,whether
screen,html.Screen,2_1_0_1_39,2022-02-15T12:59:59.540Z,,,,,,,,,,,,,,,,,53,,,,,,,,,,,,,,614.2400000000052,,response,,,,99,,,,,,,Space,keypress(Space),,,,,,,,---- -- ----- -- ------ - ------- --- ----------<br>------------- ------ ------ ---- ---- ------- ----- -- ----<br>-------- ------- -- ---------- --- - --- ----- ----- ----<br>---- --- --- ----- --- ---- ---- ------- ----- ---- -------<br>you --- -- ----- -- --- ---- -- --- ---- -- ------ ------<br>--- ----- -- ----,115089,115072,114443.22,114443,114457.76,115090.94,,39,you
screen,html.Screen,2_1_0_1_40,2022-02-15T12:59:59.931Z,,,,,,,,,,,,,,,,,53,,,,,,,,,,,,,,373.0599999999977,,response,,,,99,,,,,,,Space,keypress(Space),,,,,,,,---- -- ----- -- ------ - ------- --- ----------<br>------------- ------ ------ ---- ---- ------- ----- -- ----<br>-------- ------- -- ---------- --- - --- ----- ----- ----<br>---- --- --- ----- --- ---- ---- ------- ----- ---- -------<br>--- are -- ----- -- --- ---- -- --- ---- -- ------ ------<br>--- ----- -- ----,115480,115464,115089.68,115090,115090.94,115490.86,,40,are
screen,html.Screen,2_1_0_1_41,2022-02-15T13:00:00.363Z,,,,,,,,,,,,,,,,,53,,,,,,,,,,,,,,411.1399999999994,,response,,,,99,,,,,,,Space,keypress(Space),,,,,,,,---- -- ----- -- ------ - ------- --- ----------<br>------------- ------ ------ ---- ---- ------- ----- -- ----<br>-------- ------- -- ---------- --- - --- ----- ----- ----<br>---- --- --- ----- --- ---- ---- ------- ----- ---- -------<br>--- --- as ----- -- --- ---- -- --- ---- -- ------ ------<br>--- ----- -- ----,115912,115902,115480.04,115480,115490.86,115924.08,,41,as
screen,html.Screen,2_1_0_1_42,2022-02-15T13:00:00.755Z,,,,,,,,,,,,,,,,,53,,,,,,,,,,,,,,367.91999999999825,,response,,,,99,,,,,,,Space,keypress(Space),,,,,,,,---- -- ----- -- ------ - ------- --- ----------<br>------------- ------ ------ ---- ---- ------- ----- -- ----<br>-------- ------- -- ---------- --- - --- ----- ----- ----<br>---- --- --- ----- --- ---- ---- ------- ----- ---- -------<br>--- --- -- close -- --- ---- -- --- ---- -- ------ ------<br>--- ----- -- ----,116303,116292,115912.9,115913,115924.08,116307.32,,42,close
screen,html.Screen,2_1_0_1_43,2022-02-15T13:00:01.419Z,,,,,,,,,,,,,,,,,53,,,,,,,,,,,,,,655.679999999993,,response,,,,99,,,,,,,Space,keypress(Space),,,,,,,,---- -- ----- -- ------ - ------- --- ----------<br>------------- ------ ------ ---- ---- ------- ----- -- ----<br>-------- ------- -- ---------- --- - --- ----- ----- ----<br>---- --- --- ----- --- ---- ---- ------- ----- ---- -------<br>--- --- -- ----- as --- ---- -- --- ---- -- ------ ------<br>--- ----- -- ----,116968,116963,116303.84,116304,116307.32,116973.82,,43,as
screen,html.Screen,2_1_0_1_44,2022-02-15T13:00:01.816Z,,,,,,,,,,,,,,,,,53,,,,,,,,,,,,,,381.179999999993,,response,,,,99,,,,,,,Space,keypress(Space),,,,,,,,---- -- ----- -- ------ - ------- --- ----------<br>------------- ------ ------ ---- ---- ------- ----- -- ----<br>-------- ------- -- ---------- --- - --- ----- ----- ----<br>---- --- --- ----- --- ---- ---- ------- ----- ---- -------<br>--- --- -- ----- -- you ---- -- --- ---- -- ------ ------<br>--- ----- -- ----,117364,117355,116968.02,116968,116973.82,117373.74,,44,you
screen,html.Screen,2_1_0_1_45,2022-02-15T13:00:02.173Z,,,,,,,,,,,,,,,,,53,,,,,,,,,,,,,,340.25999999999476,,response,,,,99,,,,,,,Space,keypress(Space),,,,,,,,---- -- ----- -- ------ - ------- --- ----------<br>------------- ------ ------ ---- ---- ------- ----- -- ----<br>-------- ------- -- ---------- --- - --- ----- ----- ----<br>---- --- --- ----- --- ---- ---- ------- ----- ---- -------<br>--- --- -- ----- -- --- want -- --- ---- -- ------ ------<br>--- ----- -- ----,117721,117714,117364.58,117364,117373.74,117723.64,,45,want
screen,html.Screen,2_1_0_1_46,2022-02-15T13:00:02.577Z,,,,,,,,,,,,,,,,,53,,,,,,,,,,,,,,396.3600000000006,,response,,,,99,,,,,,,Space,keypress(Space),,,,,,,,---- -- ----- -- ------ - ------- --- ----------<br>------------- ------ ------ ---- ---- ------- ----- -- ----<br>-------- ------- -- ---------- --- - --- ----- ----- ----<br>---- --- --- ----- --- ---- ---- ------- ----- ---- -------<br>--- --- -- ----- -- --- ---- to --- ---- -- ------ ------<br>--- ----- -- ----,118126,118120,117721.3,117721,117723.64,118140.22,,46,to
screen,html.Screen,2_1_0_1_47,2022-02-15T13:00:03.000Z,,,,,,,,,,,,,,,,,53,,,,,,,,,,,,,,401.77999999999884,,response,,,,99,,,,,,,Space,keypress(Space),,,,,,,,"---- -- ----- -- ------ - ------- --- ----------<br>------------- ------ ------ ---- ---- ------- ----- -- ----<br>-------- ------- -- ---------- --- - --- ----- ----- ----<br>---- --- --- ----- --- ---- ---- ------- ----- ---- -------<br>--- --- -- ----- -- --- ---- -- be, ---- -- ------ ------<br>--- ----- -- ----",118549,118542,118126.54,118126,118140.22,118556.78,,47,"be,"
screen,html.Screen,2_1_0_1_48,2022-02-15T13:00:03.677Z,,,,,,,,,,,,,,,,,53,,,,,,,,,,,,,,657.2200000000012,,response,,,,99,,,,,,,Space,keypress(Space),,,,,,,,---- -- ----- -- ------ - ------- --- ----------<br>------------- ------ ------ ---- ---- ------- ----- -- ----<br>-------- ------- -- ---------- --- - --- ----- ----- ----<br>---- --- --- ----- --- ---- ---- ------- ----- ---- -------<br>--- --- -- ----- -- --- ---- -- --- even -- ------ ------<br>--- ----- -- ----,119225,119214,118549.52,118549,118556.78,119239.94,,48,even
screen,html.Screen,2_1_0_1_49,2022-02-15T13:00:04.026Z,,,,,,,,,,,,,,,,,53,,,,,,,,,,,,,,318.0599999999977,,response,,,,99,,,,,,,Space,keypress(Space),,,,,,,,---- -- ----- -- ------ - ------- --- ----------<br>------------- ------ ------ ---- ---- ------- ----- -- ----<br>-------- ------- -- ---------- --- - --- ----- ----- ----<br>---- --- --- ----- --- ---- ---- ------- ----- ---- -------<br>--- --- -- ----- -- --- ---- -- --- ---- if ------ ------<br>--- ----- -- ----,119575,119558,119225.84,119226,119239.94,119589.86,,49,if
screen,html.Screen,2_1_0_1_50,2022-02-15T13:00:04.426Z,,,,,,,,,,,,,,,,,53,,,,,,,,,,,,,,373.1399999999994,,response,,,,99,,,,,,,Space,keypress(Space),,,,,,,,---- -- ----- -- ------ - ------- --- ----------<br>------------- ------ ------ ---- ---- ------- ----- -- ----<br>-------- ------- -- ---------- --- - --- ----- ----- ----<br>---- --- --- ----- --- ---- ---- ------- ----- ---- -------<br>--- --- -- ----- -- --- ---- -- --- ---- -- that's ------<br>--- ----- -- ----,119974,119963,119575.22,119576,119589.86,119989.76,,50,that's
screen,html.Screen,2_1_0_1_51,2022-02-15T13:00:04.825Z,,,,,,,,,,,,,,,,,53,,,,,,,,,,,,,,380.24000000000524,,response,,,,99,,,,,,,Space,keypress(Space),,,,,,,,---- -- ----- -- ------ - ------- --- ----------<br>------------- ------ ------ ---- ---- ------- ----- -- ----<br>-------- ------- -- ---------- --- - --- ----- ----- ----<br>---- --- --- ----- --- ---- ---- ------- ----- ---- -------<br>--- --- -- ----- -- --- ---- -- --- ---- -- ------ really<br>--- ----- -- ----,120373,120370,119974.32,119974,119989.76,120389.68,,51,really
screen,html.Screen,2_1_0_1_52,2022-02-15T13:00:05.252Z,,,,,,,,,,,,,,,,,53,,,,,,,,,,,,,,402.320000000007,,response,,,,99,,,,,,,Space,keypress(Space),,,,,,,,---- -- ----- -- ------ - ------- --- ----------<br>------------- ------ ------ ---- ---- ------- ----- -- ----<br>-------- ------- -- ---------- --- - --- ----- ----- ----<br>---- --- --- ----- --- ---- ---- ------- ----- ---- -------<br>--- --- -- ----- -- --- ---- -- --- ---- -- ------ ------<br>not ----- -- ----,120801,120792,120373.92,120374,120389.68,120806.24,,52,not
screen,html.Screen,2_1_0_1_53,2022-02-15T13:00:05.616Z,,,,,,,,,,,,,,,,,53,,,,,,,,,,,,,,345.75999999999476,,response,,,,99,,,,,,,Space,keypress(Space),,,,,,,,---- -- ----- -- ------ - ------- --- ----------<br>------------- ------ ------ ---- ---- ------- ----- -- ----<br>-------- ------- -- ---------- --- - --- ----- ----- ----<br>---- --- --- ----- --- ---- ---- ------- ----- ---- -------<br>--- --- -- ----- -- --- ---- -- --- ---- -- ------ ------<br>--- close -- ----,121165,121152,120800.94,120801,120806.24,121172.82,,53,close
screen,html.Screen,2_1_0_1_54,2022-02-15T13:00:05.999Z,,,,,,,,,,,,,,,,,53,,,,,,,,,,,,,,369.179999999993,,response,,,,99,,,,,,,Space,keypress(Space),,,,,,,,---- -- ----- -- ------ - ------- --- ----------<br>------------- ------ ------ ---- ---- ------- ----- -- ----<br>-------- ------- -- ---------- --- - --- ----- ----- ----<br>---- --- --- ----- --- ---- ---- ------- ----- ---- -------<br>--- --- -- ----- -- --- ---- -- --- ---- -- ------ ------<br>--- ----- at ----,121548,121542,121164.98,121165,121172.82,121556.06,,54,at
screen,html.Screen,2_1_0_1_55,2022-02-15T13:00:06.470Z,,,,,,,,,,,,,,,,,53,,,,,,,,,,,,,,454.9400000000023,,response,,,,99,,,,,,,Space,keypress(Space),,,,,,,,---- -- ----- -- ------ - ------- --- ----------<br>------------- ------ ------ ---- ---- ------- ----- -- ----<br>-------- ------- -- ---------- --- - --- ----- ----- ----<br>---- --- --- ----- --- ---- ---- ------- ----- ---- -------<br>--- --- -- ----- -- --- ---- -- --- ---- -- ------ ------<br>--- ----- -- all.,122018,122011,121547.92,121548,121556.06,122022.62,,55,all.
Item 99,flow.Loop,2_1_0_1,2022-02-15T13:00:06.470Z,,,,,,,,,,,,,,,,,,,,,,,,,,,,,,,26232.059999999998,,completion,,,,,E,,,,,,,,,,,silence,,,,,122019,122011,95762.28,95765,95778.94,122022.62,,,
Question 1,html.Screen,2_1_0_2,2022-02-15T13:00:09.587Z,,,,,,,,,,,,,,,,,,,,,,,,,,,,true,FALSE,,3097.3800000000047,,response,,,,99,E,,,,,,FALSE,click #choice-2,,,,silence,,,,,125135,125120,122018.98,122019,122022.62,125138.52,,,
Question 2,html.Screen,2_1_0_3,2022-02-15T13:00:15.254Z,,,,,,,,,,,,,,,,,,,,,,,,,,,,true,TRUE,,5652.479999999996,,response,,,,99,E,,,,,,TRUE,click #choice-1,,,,silence,,,,,130802,130791,125134.3,125135,125138.52,130803.82,,,
Item 99,flow.Sequence,2_1_0,2022-02-15T13:00:15.254Z,,,,,,,,,,,,,,,,,,,,,,,,,,,,,,,45009.64,,completion,,,,,,,,,,,,,,,,,,,,,130802,130791,85775.28,85779,85781.36,130803.82,,,
Holding screen,html.Screen,2_1_1_0,2022-02-15T13:00:25.238Z,,,,,,,,,,,,,,,,,,,,,,,,,,,,,,,9997.600000000006,,timeout,,,,,,,,,,,,,,,,,,,,,140786,140784.76,130801.38,130803,130803.82,140801.42,,,
screen,html.Screen,2_1_1_1_0,2022-02-15T13:00:25.888Z,,,,,,,,,,,,,,,,,54,,,,,,,,,,,,,,631.5799999999872,,response,,,,100,,,,,,,Space,keypress(Space),,,,,,,,At --- ---- --- ------ ----- ------- ---- -- --- ------- --<br>------- ---------- ------ -- ----- -- ----- -- ---- ------<br>--- ----- --- --- ------ -------- ----- --- ------ ----- --<br>----- ----- ---------- --- --- ------ ------ ---- -- ------<br>------- --- ------ ----- --- ---- ------- -- ---- --- --<br>------- ------,141437,141433,140784.76,140787,140801.42,141451.26,,0,At
screen,html.Screen,2_1_1_1_1,2022-02-15T13:00:26.250Z,,,,,,,,,,,,,,,,,54,,,,,,,,,,,,,,340.7399999999907,,response,,,,100,,,,,,,Space,keypress(Space),,,,,,,,-- the ---- --- ------ ----- ------- ---- -- --- ------- --<br>------- ---------- ------ -- ----- -- ----- -- ---- ------<br>--- ----- --- --- ------ -------- ----- --- ------ ----- --<br>----- ----- ---------- --- --- ------ ------ ---- -- ------<br>------- --- ------ ----- --- ---- ------- -- ---- --- --<br>------- ------,141798,141792,141437.84,141438,141451.26,141801.18,,1,the
screen,html.Screen,2_1_1_1_2,2022-02-15T13:00:26.558Z,,,,,,,,,,,,,,,,,54,,,,,,,,,,,,,,303.820000000007,,response,,,,100,,,,,,,Space,keypress(Space),,,,,,,,-- --- time --- ------ ----- ------- ---- -- --- ------- --<br>------- ---------- ------ -- ----- -- ----- -- ---- ------<br>--- ----- --- --- ------ -------- ----- --- ------ ----- --<br>----- ----- ---------- --- --- ------ ------ ---- -- ------<br>------- --- ------ ----- --- ---- ------- -- ---- --- --<br>------- ------,142107,142105,141798.38,141798,141801.18,142117.76,,2,time
screen,html.Screen,2_1_1_1_3,2022-02-15T13:00:26.947Z,,,,,,,,,,,,,,,,,54,,,,,,,,,,,,,,362.2399999999907,,response,,,,100,,,,,,,Space,keypress(Space),,,,,,,,-- --- ---- the ------ ----- ------- ---- -- --- ------- --<br>------- ---------- ------ -- ----- -- ----- -- ---- ------<br>--- ----- --- --- ------ -------- ----- --- ------ ----- --<br>----- ----- ---------- --- --- ------ ------ ---- -- ------<br>------- --- ------ ----- --- ---- ------- -- ---- --- --<br>------- ------,142496,142480,142107.18,142107,142117.76,142501,,3,the
screen,html.Screen,2_1_1_1_4,2022-02-15T13:00:27.248Z,,,,,,,,,,,,,,,,,54,,,,,,,,,,,,,,291,,response,,,,100,,,,,,,Space,keypress(Space),,,,,,,,-- --- ---- --- French ----- ------- ---- -- --- ------- --<br>------- ---------- ------ -- ----- -- ----- -- ---- ------<br>--- ----- --- --- ------ -------- ----- --- ------ ----- --<br>----- ----- ---------- --- --- ------ ------ ---- -- ------<br>------- --- ------ ----- --- ---- ------- -- ---- --- --<br>------- ------,142797,142792,142496.18,142496,142501,142800.94,,4,French
screen,html.Screen,2_1_1_1_5,2022-02-15T13:00:27.686Z,,,,,,,,,,,,,,,,,54,,,,,,,,,,,,,,429.0599999999977,,response,,,,100,,,,,,,Space,keypress(Space),,,,,,,,-- --- ---- --- ------ crown ------- ---- -- --- ------- --<br>------- ---------- ------ -- ----- -- ----- -- ---- ------<br>--- ----- --- --- ------ -------- ----- --- ------ ----- --<br>----- ----- ---------- --- --- ------ ------ ---- -- ------<br>------- --- ------ ----- --- ---- ------- -- ---- --- --<br>------- ------,143235,143230,142796.3,142797,142800.94,143250.82,,5,crown
screen,html.Screen,2_1_1_1_6,2022-02-15T13:00:28.157Z,,,,,,,,,,,,,,,,,54,,,,,,,,,,,,,,446.179999999993,,response,,,,100,,,,,,,Space,keypress(Space),,,,,,,,-- --- ---- --- ------ ----- secured ---- -- --- ------- --<br>------- ---------- ------ -- ----- -- ----- -- ---- ------<br>--- ----- --- --- ------ -------- ----- --- ------ ----- --<br>----- ----- ---------- --- --- ------ ------ ---- -- ------<br>------- --- ------ ----- --- ---- ------- -- ---- --- --<br>------- ------,143705,143697,143235.42,143235,143250.82,143717.38,,6,secured
screen,html.Screen,2_1_1_1_7,2022-02-15T13:00:28.603Z,,,,,,,,,,,,,,,,,54,,,,,,,,,,,,,,417.61999999999534,,response,,,,100,,,,,,,Space,keypress(Space),,,,,,,,-- --- ---- --- ------ ----- ------- much -- --- ------- --<br>------- ---------- ------ -- ----- -- ----- -- ---- ------<br>--- ----- --- --- ------ -------- ----- --- ------ ----- --<br>----- ----- ---------- --- --- ------ ------ ---- -- ------<br>------- --- ------ ----- --- ---- ------- -- ---- --- --<br>------- ------,144152,144135,143705.6,143705,143717.38,144167.26,,7,much
screen,html.Screen,2_1_1_1_8,2022-02-15T13:00:29.221Z,,,,,,,,,,,,,,,,,54,,,,,,,,,,,,,,592.7399999999907,,response,,,,100,,,,,,,Space,keypress(Space),,,,,,,,-- --- ---- --- ------ ----- ------- ---- of --- ------- --<br>------- ---------- ------ -- ----- -- ----- -- ---- ------<br>--- ----- --- --- ------ -------- ----- --- ------ ----- --<br>----- ----- ---------- --- --- ------ ------ ---- -- ------<br>------- --- ------ ----- --- ---- ------- -- ---- --- --<br>------- ------,144770,144760,144152.5,144152,144167.26,144783.78,,8,of
screen,html.Screen,2_1_1_1_9,2022-02-15T13:00:29.553Z,,,,,,,,,,,,,,,,,54,,,,,,,,,,,,,,304.22000000000116,,response,,,,100,,,,,,,Space,keypress(Space),,,,,,,,-- --- ---- --- ------ ----- ------- ---- -- its ------- --<br>------- ---------- ------ -- ----- -- ----- -- ---- ------<br>--- ----- --- --- ------ -------- ----- --- ------ ----- --<br>----- ----- ---------- --- --- ------ ------ ---- -- ------<br>------- --- ------ ----- --- ---- ------- -- ---- --- --<br>------- ------,145101,145088,144770.26,144770,144783.78,145117.04,,9,its
screen,html.Screen,2_1_1_1_10,2022-02-15T13:00:30.031Z,,,,,,,,,,,,,,,,,54,,,,,,,,,,,,,,455.95999999999185,,response,,,,100,,,,,,,Space,keypress(Space),,,,,,,,-- --- ---- --- ------ ----- ------- ---- -- --- revenue --<br>------- ---------- ------ -- ----- -- ----- -- ---- ------<br>--- ----- --- --- ------ -------- ----- --- ------ ----- --<br>----- ----- ---------- --- --- ------ ------ ---- -- ------<br>------- --- ------ ----- --- ---- ------- -- ---- --- --<br>------- ------,145581,145573,145101.14,145101,145117.04,145583.6,,10,revenue
screen,html.Screen,2_1_1_1_11,2022-02-15T13:00:30.449Z,,,,,,,,,,,,,,,,,54,,,,,,,,,,,,,,410.3999999999942,,response,,,,100,,,,,,,Space,keypress(Space),,,,,,,,-- --- ---- --- ------ ----- ------- ---- -- --- ------- by<br>------- ---------- ------ -- ----- -- ----- -- ---- ------<br>--- ----- --- --- ------ -------- ----- --- ------ ----- --<br>----- ----- ---------- --- --- ------ ------ ---- -- ------<br>------- --- ------ ----- --- ---- ------- -- ---- --- --<br>------- ------,145998,145994,145580.42,145581,145583.6,146000.16,,11,by
screen,html.Screen,2_1_1_1_12,2022-02-15T13:00:30.937Z,,,,,,,,,,,,,,,,,54,,,,,,,,,,,,,,479.8399999999965,,response,,,,100,,,,,,,Space,keypress(Space),,,,,,,,-- --- ---- --- ------ ----- ------- ---- -- --- ------- --<br>issuing ---------- ------ -- ----- -- ----- -- ---- ------<br>--- ----- --- --- ------ -------- ----- --- ------ ----- --<br>----- ----- ---------- --- --- ------ ------ ---- -- ------<br>------- --- ------ ----- --- ---- ------- -- ---- --- --<br>------- ------,146487,146480,145998.66,145998,146000.16,146500.04,,12,issuing
screen,html.Screen,2_1_1_1_13,2022-02-15T13:00:31.328Z,,,,,,,,,,,,,,,,,54,,,,,,,,,,,,,,369.95999999999185,,response,,,,100,,,,,,,Space,keypress(Space),,,,,,,,-- --- ---- --- ------ ----- ------- ---- -- --- ------- --<br>------- government ------ -- ----- -- ----- -- ---- ------<br>--- ----- --- --- ------ -------- ----- --- ------ ----- --<br>----- ----- ---------- --- --- ------ ------ ---- -- ------<br>------- --- ------ ----- --- ---- ------- -- ---- --- --<br>------- ------,146876,146870,146486.8,146487,146500.04,146883.28,,13,government
screen,html.Screen,2_1_1_1_14,2022-02-15T13:00:31.764Z,,,,,,,,,,,,,,,,,54,,,,,,,,,,,,,,424.72000000000116,,response,,,,100,,,,,,,Space,keypress(Space),,,,,,,,-- --- ---- --- ------ ----- ------- ---- -- --- ------- --<br>------- ---------- bonds. -- ----- -- ----- -- ---- ------<br>--- ----- --- --- ------ -------- ----- --- ------ ----- --<br>----- ----- ---------- --- --- ------ ------ ---- -- ------<br>------- --- ------ ----- --- ---- ------- -- ---- --- --<br>------- ------,147313,147308,146876.68,146876,146883.28,147316.5,,14,bonds.
screen,html.Screen,2_1_1_1_15,2022-02-15T13:00:32.249Z,,,,,,,,,,,,,,,,,54,,,,,,,,,,,,,,475.5,,response,,,,100,,,,,,,Space,keypress(Space),,,,,,,,-- --- ---- --- ------ ----- ------- ---- -- --- ------- --<br>------- ---------- ------ In ----- -- ----- -- ---- ------<br>--- ----- --- --- ------ -------- ----- --- ------ ----- --<br>----- ----- ---------- --- --- ------ ------ ---- -- ------<br>------- --- ------ ----- --- ---- ------- -- ---- --- --<br>------- ------,147797,147792,147313.24,147313,147316.5,147799.72,,15,In
screen,html.Screen,2_1_1_1_16,2022-02-15T13:00:32.603Z,,,,,,,,,,,,,,,,,54,,,,,,,,,,,,,,335.27999999999884,,response,,,,100,,,,,,,Space,keypress(Space),,,,,,,,"-- --- ---- --- ------ ----- ------- ---- -- --- ------- --<br>------- ---------- ------ -- 1727, -- ----- -- ---- ------<br>--- ----- --- --- ------ -------- ----- --- ------ ----- --<br>----- ----- ---------- --- --- ------ ------ ---- -- ------<br>------- --- ------ ----- --- ---- ------- -- ---- --- --<br>------- ------",148151,148135,147797.74,147797,147799.72,148166.3,,16,"1727,"
screen,html.Screen,2_1_1_1_17,2022-02-15T13:00:33.467Z,,,,,,,,,,,,,,,,,54,,,,,,,,,,,,,,843.7000000000116,,response,,,,100,,,,,,,Space,keypress(Space),,,,,,,,-- --- ---- --- ------ ----- ------- ---- -- --- ------- --<br>------- ---------- ------ -- ----- in ----- -- ---- ------<br>--- ----- --- --- ------ -------- ----- --- ------ ----- --<br>----- ----- ---------- --- --- ------ ------ ---- -- ------<br>------- --- ------ ----- --- ---- ------- -- ---- --- --<br>------- ------,149015,149010,148151.72,148152,148166.3,149016.1,,17,in
screen,html.Screen,2_1_1_1_18,2022-02-15T13:00:33.853Z,,,,,,,,,,,,,,,,,54,,,,,,,,,,,,,,369.8999999999942,,response,,,,100,,,,,,,Space,keypress(Space),,,,,,,,-- --- ---- --- ------ ----- ------- ---- -- --- ------- --<br>------- ---------- ------ -- ----- -- order -- ---- ------<br>--- ----- --- --- ------ -------- ----- --- ------ ----- --<br>----- ----- ---------- --- --- ------ ------ ---- -- ------<br>------- --- ------ ----- --- ---- ------- -- ---- --- --<br>------- ------,149402,149386,149015.54,149015,149016.1,149416,,18,order
screen,html.Screen,2_1_1_1_19,2022-02-15T13:00:34.233Z,,,,,,,,,,,,,,,,,54,,,,,,,,,,,,,,344,,response,,,,100,,,,,,,Space,keypress(Space),,,,,,,,-- --- ---- --- ------ ----- ------- ---- -- --- ------- --<br>------- ---------- ------ -- ----- -- ----- to ---- ------<br>--- ----- --- --- ------ -------- ----- --- ------ ----- --<br>----- ----- ---------- --- --- ------ ------ ---- -- ------<br>------- --- ------ ----- --- ---- ------- -- ---- --- --<br>------- ------,149782,149760,149402.4,149402,149416,149782.58,,19,to
screen,html.Screen,2_1_1_1_20,2022-02-15T13:00:34.550Z,,,,,,,,,,,,,,,,,54,,,,,,,,,,,,,,306.4200000000128,,response,,,,100,,,,,,,Space,keypress(Space),,,,,,,,-- --- ---- --- ------ ----- ------- ---- -- --- ------- --<br>------- ---------- ------ -- ----- -- ----- -- save ------<br>--- ----- --- --- ------ -------- ----- --- ------ ----- --<br>----- ----- ---------- --- --- ------ ------ ---- -- ------<br>------- --- ------ ----- --- ---- ------- -- ---- --- --<br>------- ------,150099,150089,149781.7,149782,149782.58,150115.84,,20,save
screen,html.Screen,2_1_1_1_21,2022-02-15T13:00:34.989Z,,,,,,,,,,,,,,,,,54,,,,,,,,,,,,,,410.1600000000035,,response,,,,100,,,,,,,Space,keypress(Space),,,,,,,,"-- --- ---- --- ------ ----- ------- ---- -- --- ------- --<br>------- ---------- ------ -- ----- -- ----- -- ---- money,<br>--- ----- --- --- ------ -------- ----- --- ------ ----- --<br>----- ----- ---------- --- --- ------ ------ ---- -- ------<br>------- --- ------ ----- --- ---- ------- -- ---- --- --<br>------- ------",150537,150526,150099.38,150099,150115.84,150549.06,,21,"money,"
screen,html.Screen,2_1_1_1_22,2022-02-15T13:00:35.485Z,,,,,,,,,,,,,,,,,54,,,,,,,,,,,,,,476.9400000000023,,response,,,,100,,,,,,,Space,keypress(Space),,,,,,,,-- --- ---- --- ------ ----- ------- ---- -- --- ------- --<br>------- ---------- ------ -- ----- -- ----- -- ---- ------<br>the ----- --- --- ------ -------- ----- --- ------ ----- --<br>----- ----- ---------- --- --- ------ ------ ---- -- ------<br>------- --- ------ ----- --- ---- ------- -- ---- --- --<br>------- ------,151034,151026,150537.34,150537,150549.06,151048.94,,22,the
screen,html.Screen,2_1_1_1_23,2022-02-15T13:00:35.794Z,,,,,,,,,,,,,,,,,54,,,,,,,,,,,,,,289.0599999999977,,response,,,,100,,,,,,,Space,keypress(Space),,,,,,,,-- --- ---- --- ------ ----- ------- ---- -- --- ------- --<br>------- ---------- ------ -- ----- -- ----- -- ---- ------<br>--- state --- --- ------ -------- ----- --- ------ ----- --<br>----- ----- ---------- --- --- ------ ------ ---- -- ------<br>------- --- ------ ----- --- ---- ------- -- ---- --- --<br>------- ------,151343,151338,151033.86,151034,151048.94,151348.88,,23,state
screen,html.Screen,2_1_1_1_24,2022-02-15T13:00:36.142Z,,,,,,,,,,,,,,,,,54,,,,,,,,,,,,,,333.11999999999534,,response,,,,100,,,,,,,Space,keypress(Space),,,,,,,,-- --- ---- --- ------ ----- ------- ---- -- --- ------- --<br>------- ---------- ------ -- ----- -- ----- -- ---- ------<br>--- ----- cut --- ------ -------- ----- --- ------ ----- --<br>----- ----- ---------- --- --- ------ ------ ---- -- ------<br>------- --- ------ ----- --- ---- ------- -- ---- --- --<br>------- ------,151691,151682,151343.66,151344,151348.88,151698.78,,24,cut
screen,html.Screen,2_1_1_1_25,2022-02-15T13:00:36.443Z,,,,,,,,,,,,,,,,,54,,,,,,,,,,,,,,281.22000000000116,,response,,,,100,,,,,,,Space,keypress(Space),,,,,,,,-- --- ---- --- ------ ----- ------- ---- -- --- ------- --<br>------- ---------- ------ -- ----- -- ----- -- ---- ------<br>--- ----- --- the ------ -------- ----- --- ------ ----- --<br>----- ----- ---------- --- --- ------ ------ ---- -- ------<br>------- --- ------ ----- --- ---- ------- -- ---- --- --<br>------- ------,151991,151980,151690.66,151691,151698.78,151998.72,,25,the
screen,html.Screen,2_1_1_1_26,2022-02-15T13:00:36.808Z,,,,,,,,,,,,,,,,,54,,,,,,,,,,,,,,355.27999999999884,,response,,,,100,,,,,,,Space,keypress(Space),,,,,,,,-- --- ---- --- ------ ----- ------- ---- -- --- ------- --<br>------- ---------- ------ -- ----- -- ----- -- ---- ------<br>--- ----- --- --- bonds' -------- ----- --- ------ ----- --<br>----- ----- ---------- --- --- ------ ------ ---- -- ------<br>------- --- ------ ----- --- ---- ------- -- ---- --- --<br>------- ------,152357,152354,151991.7,151991,151998.72,152365.3,,26,bonds'
screen,html.Screen,2_1_1_1_27,2022-02-15T13:00:37.308Z,,,,,,,,,,,,,,,,,54,,,,,,,,,,,,,,473.70000000001164,,response,,,,100,,,,,,,Space,keypress(Space),,,,,,,,-- --- ---- --- ------ ----- ------- ---- -- --- ------- --<br>------- ---------- ------ -- ----- -- ----- -- ---- ------<br>--- ----- --- --- ------ interest ----- --- ------ ----- --<br>----- ----- ---------- --- --- ------ ------ ---- -- ------<br>------- --- ------ ----- --- ---- ------- -- ---- --- --<br>------- ------,152856,152839,152357.52,152358,152365.3,152865.18,,27,interest
screen,html.Screen,2_1_1_1_28,2022-02-15T13:00:37.829Z,,,,,,,,,,,,,,,,,54,,,,,,,,,,,,,,503.820000000007,,response,,,,100,,,,,,,Space,keypress(Space),,,,,,,,-- --- ---- --- ------ ----- ------- ---- -- --- ------- --<br>------- ---------- ------ -- ----- -- ----- -- ---- ------<br>--- ----- --- --- ------ -------- rate. --- ------ ----- --<br>----- ----- ---------- --- --- ------ ------ ---- -- ------<br>------- --- ------ ----- --- ---- ------- -- ---- --- --<br>------- ------,153377,153369,152856.88,152857,152865.18,153381.72,,28,rate.
screen,html.Screen,2_1_1_1_29,2022-02-15T13:00:38.518Z,,,,,,,,,,,,,,,,,54,,,,,,,,,,,,,,675.2799999999988,,response,,,,100,,,,,,,Space,keypress(Space),,,,,,,,-- --- ---- --- ------ ----- ------- ---- -- --- ------- --<br>------- ---------- ------ -- ----- -- ----- -- ---- ------<br>--- ----- --- --- ------ -------- ----- The ------ ----- --<br>----- ----- ---------- --- --- ------ ------ ---- -- ------<br>------- --- ------ ----- --- ---- ------- -- ---- --- --<br>------- ------,154067,154057,153377.62,153377,153381.72,154081.54,,29,The
screen,html.Screen,2_1_1_1_30,2022-02-15T13:00:38.972Z,,,,,,,,,,,,,,,,,54,,,,,,,,,,,,,,429.45999999999185,,response,,,,100,,,,,,,Space,keypress(Space),,,,,,,,-- --- ---- --- ------ ----- ------- ---- -- --- ------- --<br>------- ---------- ------ -- ----- -- ----- -- ---- ------<br>--- ----- --- --- ------ -------- ----- --- market ----- --<br>----- ----- ---------- --- --- ------ ------ ---- -- ------<br>------- --- ------ ----- --- ---- ------- -- ---- --- --<br>------- ------,154521,154511,154067.22,154067,154081.54,154531.44,,30,market
screen,html.Screen,2_1_1_1_31,2022-02-15T13:00:39.565Z,,,,,,,,,,,,,,,,,54,,,,,,,,,,,,,,573.5599999999977,,response,,,,100,,,,,,,Space,keypress(Space),,,,,,,,-- --- ---- --- ------ ----- ------- ---- -- --- ------- --<br>------- ---------- ------ -- ----- -- ----- -- ---- ------<br>--- ----- --- --- ------ -------- ----- --- ------ value --<br>----- ----- ---------- --- --- ------ ------ ---- -- ------<br>------- --- ------ ----- --- ---- ------- -- ---- --- --<br>------- ------,155114,155105,154520.84,154521,154531.44,155114.62,,31,value
screen,html.Screen,2_1_1_1_32,2022-02-15T13:00:39.971Z,,,,,,,,,,,,,,,,,54,,,,,,,,,,,,,,395.38000000000466,,response,,,,100,,,,,,,Space,keypress(Space),,,,,,,,-- --- ---- --- ------ ----- ------- ---- -- --- ------- --<br>------- ---------- ------ -- ----- -- ----- -- ---- ------<br>--- ----- --- --- ------ -------- ----- --- ------ ----- of<br>----- ----- ---------- --- --- ------ ------ ---- -- ------<br>------- --- ------ ----- --- ---- ------- -- ---- --- --<br>------- ------,155519,155510,155114.14,155114,155114.62,155531.2,,32,of
screen,html.Screen,2_1_1_1_33,2022-02-15T13:00:40.391Z,,,,,,,,,,,,,,,,,54,,,,,,,,,,,,,,401.79999999998836,,response,,,,100,,,,,,,Space,keypress(Space),,,,,,,,-- --- ---- --- ------ ----- ------- ---- -- --- ------- --<br>------- ---------- ------ -- ----- -- ----- -- ---- ------<br>--- ----- --- --- ------ -------- ----- --- ------ ----- --<br>these ----- ---------- --- --- ------ ------ ---- -- ------<br>------- --- ------ ----- --- ---- ------- -- ---- --- --<br>------- ------,155940,155933,155519.22,155519,155531.2,155947.76,,33,these
screen,html.Screen,2_1_1_1_34,2022-02-15T13:00:40.822Z,,,,,,,,,,,,,,,,,54,,,,,,,,,,,,,,407.2399999999907,,response,,,,100,,,,,,,Space,keypress(Space),,,,,,,,-- --- ---- --- ------ ----- ------- ---- -- --- ------- --<br>------- ---------- ------ -- ----- -- ----- -- ---- ------<br>--- ----- --- --- ------ -------- ----- --- ------ ----- --<br>----- bonds ---------- --- --- ------ ------ ---- -- ------<br>------- --- ------ ----- --- ---- ------- -- ---- --- --<br>------- ------,156371,156355,155939.8,155940,155947.76,156380.98,,34,bonds
screen,html.Screen,2_1_1_1_35,2022-02-15T13:00:41.966Z,,,,,,,,,,,,,,,,,54,,,,,,,,,,,,,,1129.0199999999895,,response,,,,100,,,,,,,Space,keypress(Space),,,,,,,,"-- --- ---- --- ------ ----- ------- ---- -- --- ------- --<br>------- ---------- ------ -- ----- -- ----- -- ---- ------<br>--- ----- --- --- ------ -------- ----- --- ------ ----- --<br>----- ----- plummeted, --- --- ------ ------ ---- -- ------<br>------- --- ------ ----- --- ---- ------- -- ---- --- --<br>------- ------",157515,157510,156370.5,156371,156380.98,157530.72,,35,"plummeted,"
screen,html.Screen,2_1_1_1_36,2022-02-15T13:00:42.749Z,,,,,,,,,,,,,,,,,54,,,,,,,,,,,,,,761.2799999999988,,response,,,,100,,,,,,,Space,keypress(Space),,,,,,,,-- --- ---- --- ------ ----- ------- ---- -- --- ------- --<br>------- ---------- ------ -- ----- -- ----- -- ---- ------<br>--- ----- --- --- ------ -------- ----- --- ------ ----- --<br>----- ----- ---------- and --- ------ ------ ---- -- ------<br>------- --- ------ ----- --- ---- ------- -- ---- --- --<br>------- ------,158297,158292,157514.84,157515,157530.72,158313.86,,36,and
screen,html.Screen,2_1_1_1_37,2022-02-15T13:00:43.153Z,,,,,,,,,,,,,,,,,54,,,,,,,,,,,,,,384.14000000001397,,response,,,,100,,,,,,,Space,keypress(Space),,,,,,,,-- --- ---- --- ------ ----- ------- ---- -- --- ------- --<br>------- ---------- ------ -- ----- -- ----- -- ---- ------<br>--- ----- --- --- ------ -------- ----- --- ------ ----- --<br>----- ----- ---------- --- the ------ ------ ---- -- ------<br>------- --- ------ ----- --- ---- ------- -- ---- --- --<br>------- ------,158702,158698,158298.12,158298,158313.86,158713.76,,37,the
screen,html.Screen,2_1_1_1_38,2022-02-15T13:00:43.489Z,,,,,,,,,,,,,,,,,54,,,,,,,,,,,,,,313.2399999999907,,response,,,,100,,,,,,,Space,keypress(Space),,,,,,,,-- --- ---- --- ------ ----- ------- ---- -- --- ------- --<br>------- ---------- ------ -- ----- -- ----- -- ---- ------<br>--- ----- --- --- ------ -------- ----- --- ------ ----- --<br>----- ----- ---------- --- --- market ------ ---- -- ------<br>------- --- ------ ----- --- ---- ------- -- ---- --- --<br>------- ------,159038,159027,158701.84,158702,158713.76,159047.02,,38,market
screen,html.Screen,2_1_1_1_39,2022-02-15T13:00:43.832Z,,,,,,,,,,,,,,,,,54,,,,,,,,,,,,,,322.9800000000105,,response,,,,100,,,,,,,Space,keypress(Space),,,,,,,,-- --- ---- --- ------ ----- ------- ---- -- --- ------- --<br>------- ---------- ------ -- ----- -- ----- -- ---- ------<br>--- ----- --- --- ------ -------- ----- --- ------ ----- --<br>----- ----- ---------- --- --- ------ became ---- -- ------<br>------- --- ------ ----- --- ---- ------- -- ---- --- --<br>------- ------,159381,159370,159038.28,159038,159047.02,159396.92,,39,became
screen,html.Screen,2_1_1_1_40,2022-02-15T13:00:44.156Z,,,,,,,,,,,,,,,,,54,,,,,,,,,,,,,,301.0799999999872,,response,,,,100,,,,,,,Space,keypress(Space),,,,,,,,-- --- ---- --- ------ ----- ------- ---- -- --- ------- --<br>------- ---------- ------ -- ----- -- ----- -- ---- ------<br>--- ----- --- --- ------ -------- ----- --- ------ ----- --<br>----- ----- ---------- --- --- ------ ------ wary -- ------<br>------- --- ------ ----- --- ---- ------- -- ---- --- --<br>------- ------,159705,159698,159380.62,159381,159396.92,159713.52,,40,wary
screen,html.Screen,2_1_1_1_41,2022-02-15T13:00:44.478Z,,,,,,,,,,,,,,,,,54,,,,,,,,,,,,,,297.4800000000105,,response,,,,100,,,,,,,Space,keypress(Space),,,,,,,,-- --- ---- --- ------ ----- ------- ---- -- --- ------- --<br>------- ---------- ------ -- ----- -- ----- -- ---- ------<br>--- ----- --- --- ------ -------- ----- --- ------ ----- --<br>----- ----- ---------- --- --- ------ ------ ---- of ------<br>------- --- ------ ----- --- ---- ------- -- ---- --- --<br>------- ------,160027,160011,159705.24,159706,159713.52,160030.1,,41,of
screen,html.Screen,2_1_1_1_42,2022-02-15T13:00:44.782Z,,,,,,,,,,,,,,,,,54,,,,,,,,,,,,,,292.8999999999942,,response,,,,100,,,,,,,Space,keypress(Space),,,,,,,,-- --- ---- --- ------ ----- ------- ---- -- --- ------- --<br>------- ---------- ------ -- ----- -- ----- -- ---- ------<br>--- ----- --- --- ------ -------- ----- --- ------ ----- --<br>----- ----- ---------- --- --- ------ ------ ---- -- French<br>------- --- ------ ----- --- ---- ------- -- ---- --- --<br>------- ------,160331,160323,160027.34,160027,160030.1,160346.7,,42,French
screen,html.Screen,2_1_1_1_43,2022-02-15T13:00:45.112Z,,,,,,,,,,,,,,,,,54,,,,,,,,,,,,,,304.29999999998836,,response,,,,100,,,,,,,Space,keypress(Space),,,,,,,,-- --- ---- --- ------ ----- ------- ---- -- --- ------- --<br>------- ---------- ------ -- ----- -- ----- -- ---- ------<br>--- ----- --- --- ------ -------- ----- --- ------ ----- --<br>----- ----- ---------- --- --- ------ ------ ---- -- ------<br>credit. --- ------ ----- --- ---- ------- -- ---- --- --<br>------- ------,160661,160651,160331.54,160332,160346.7,160663.28,,43,credit.
screen,html.Screen,2_1_1_1_44,2022-02-15T13:00:45.463Z,,,,,,,,,,,,,,,,,54,,,,,,,,,,,,,,331.72000000000116,,response,,,,100,,,,,,,Space,keypress(Space),,,,,,,,-- --- ---- --- ------ ----- ------- ---- -- --- ------- --<br>------- ---------- ------ -- ----- -- ----- -- ---- ------<br>--- ----- --- --- ------ -------- ----- --- ------ ----- --<br>----- ----- ---------- --- --- ------ ------ ---- -- ------<br>------- The ------ ----- --- ---- ------- -- ---- --- --<br>------- ------,161012,160995,160661.04,160661,160663.28,161013.2,,44,The
screen,html.Screen,2_1_1_1_45,2022-02-15T13:00:45.891Z,,,,,,,,,,,,,,,,,54,,,,,,,,,,,,,,419.79999999998836,,response,,,,100,,,,,,,Space,keypress(Space),,,,,,,,-- --- ---- --- ------ ----- ------- ---- -- --- ------- --<br>------- ---------- ------ -- ----- -- ----- -- ---- ------<br>--- ----- --- --- ------ -------- ----- --- ------ ----- --<br>----- ----- ---------- --- --- ------ ------ ---- -- ------<br>------- --- French ----- --- ---- ------- -- ---- --- --<br>------- ------,161439,161433,161012.74,161012,161013.2,161446.44,,45,French
screen,html.Screen,2_1_1_1_46,2022-02-15T13:00:46.255Z,,,,,,,,,,,,,,,,,54,,,,,,,,,,,,,,345.5599999999977,,response,,,,100,,,,,,,Space,keypress(Space),,,,,,,,-- --- ---- --- ------ ----- ------- ---- -- --- ------- --<br>------- ---------- ------ -- ----- -- ----- -- ---- ------<br>--- ----- --- --- ------ -------- ----- --- ------ ----- --<br>----- ----- ---------- --- --- ------ ------ ---- -- ------<br>------- --- ------ state --- ---- ------- -- ---- --- --<br>------- ------,161804,161792,161440.16,161440,161446.44,161813.02,,46,state
screen,html.Screen,2_1_1_1_47,2022-02-15T13:00:46.617Z,,,,,,,,,,,,,,,,,54,,,,,,,,,,,,,,337.9800000000105,,response,,,,100,,,,,,,Space,keypress(Space),,,,,,,,-- --- ---- --- ------ ----- ------- ---- -- --- ------- --<br>------- ---------- ------ -- ----- -- ----- -- ---- ------<br>--- ----- --- --- ------ -------- ----- --- ------ ----- --<br>----- ----- ---------- --- --- ------ ------ ---- -- ------<br>------- --- ------ ----- was ---- ------- -- ---- --- --<br>------- ------,162166,162151,161804.26,161805,161813.02,162179.6,,47,was
screen,html.Screen,2_1_1_1_48,2022-02-15T13:00:47.301Z,,,,,,,,,,,,,,,,,54,,,,,,,,,,,,,,658.3999999999942,,response,,,,100,,,,,,,Space,keypress(Space),,,,,,,,-- --- ---- --- ------ ----- ------- ---- -- --- ------- --<br>------- ---------- ------ -- ----- -- ----- -- ---- ------<br>--- ----- --- --- ------ -------- ----- --- ------ ----- --<br>----- ----- ---------- --- --- ------ ------ ---- -- ------<br>------- --- ------ ----- --- left ------- -- ---- --- --<br>------- ------,162849,162838,162165.64,162166,162179.6,162862.76,,48,left
screen,html.Screen,2_1_1_1_49,2022-02-15T13:00:47.624Z,,,,,,,,,,,,,,,,,54,,,,,,,,,,,,,,304.2399999999907,,response,,,,100,,,,,,,Space,keypress(Space),,,,,,,,-- --- ---- --- ------ ----- ------- ---- -- --- ------- --<br>------- ---------- ------ -- ----- -- ----- -- ---- ------<br>--- ----- --- --- ------ -------- ----- --- ------ ----- --<br>----- ----- ---------- --- --- ------ ------ ---- -- ------<br>------- --- ------ ----- --- ---- without -- ---- --- --<br>------- ------,163172,163167,162849.52,162849,162862.76,163179.34,,49,without
screen,html.Screen,2_1_1_1_50,2022-02-15T13:00:47.885Z,,,,,,,,,,,,,,,,,54,,,,,,,,,,,,,,237.6600000000035,,response,,,,100,,,,,,,Space,keypress(Space),,,,,,,,-- --- ---- --- ------ ----- ------- ---- -- --- ------- --<br>------- ---------- ------ -- ----- -- ----- -- ---- ------<br>--- ----- --- --- ------ -------- ----- --- ------ ----- --<br>----- ----- ---------- --- --- ------ ------ ---- -- ------<br>------- --- ------ ----- --- ---- ------- an ---- --- --<br>------- ------,163434,163417,163172.46,163172,163179.34,163445.96,,50,an
screen,html.Screen,2_1_1_1_51,2022-02-15T13:00:48.263Z,,,,,,,,,,,,,,,,,54,,,,,,,,,,,,,,362.04000000000815,,response,,,,100,,,,,,,Space,keypress(Space),,,,,,,,-- --- ---- --- ------ ----- ------- ---- -- --- ------- --<br>------- ---------- ------ -- ----- -- ----- -- ---- ------<br>--- ----- --- --- ------ -------- ----- --- ------ ----- --<br>----- ----- ---------- --- --- ------ ------ ---- -- ------<br>------- --- ------ ----- --- ---- ------- -- easy --- --<br>------- ------,163812,163808,163434.14,163434,163445.96,163812.54,,51,easy
screen,html.Screen,2_1_1_1_52,2022-02-15T13:00:48.563Z,,,,,,,,,,,,,,,,,54,,,,,,,,,,,,,,292.45999999999185,,response,,,,100,,,,,,,Space,keypress(Space),,,,,,,,-- --- ---- --- ------ ----- ------- ---- -- --- ------- --<br>------- ---------- ------ -- ----- -- ----- -- ---- ------<br>--- ----- --- --- ------ -------- ----- --- ------ ----- --<br>----- ----- ---------- --- --- ------ ------ ---- -- ------<br>------- --- ------ ----- --- ---- ------- -- ---- way --<br>------- ------,164111,164105,163812.14,163812,163812.54,164112.46,,52,way
screen,html.Screen,2_1_1_1_53,2022-02-15T13:00:48.915Z,,,,,,,,,,,,,,,,,54,,,,,,,,,,,,,,335.54000000000815,,response,,,,100,,,,,,,Space,keypress(Space),,,,,,,,-- --- ---- --- ------ ----- ------- ---- -- --- ------- --<br>------- ---------- ------ -- ----- -- ----- -- ---- ------<br>--- ----- --- --- ------ -------- ----- --- ------ ----- --<br>----- ----- ---------- --- --- ------ ------ ---- -- ------<br>------- --- ------ ----- --- ---- ------- -- ---- --- of<br>------- ------,164464,164448,164111.7,164111,164112.46,164479.04,,53,of
screen,html.Screen,2_1_1_1_54,2022-02-15T13:00:49.339Z,,,,,,,,,,,,,,,,,54,,,,,,,,,,,,,,406.95999999999185,,response,,,,100,,,,,,,Space,keypress(Space),,,,,,,,-- --- ---- --- ------ ----- ------- ---- -- --- ------- --<br>------- ---------- ------ -- ----- -- ----- -- ---- ------<br>--- ----- --- --- ------ -------- ----- --- ------ ----- --<br>----- ----- ---------- --- --- ------ ------ ---- -- ------<br>------- --- ------ ----- --- ---- ------- -- ---- --- --<br>raising ------,164888,164886,164464.08,164464,164479.04,164895.6,,54,raising
screen,html.Screen,2_1_1_1_55,2022-02-15T13:00:49.954Z,,,,,,,,,,,,,,,,,54,,,,,,,,,,,,,,599.3999999999942,,response,,,,100,,,,,,,Space,keypress(Space),,,,,,,,-- --- ---- --- ------ ----- ------- ---- -- --- ------- --<br>------- ---------- ------ -- ----- -- ----- -- ---- ------<br>--- ----- --- --- ------ -------- ----- --- ------ ----- --<br>----- ----- ---------- --- --- ------ ------ ---- -- ------<br>------- --- ------ ----- --- ---- ------- -- ---- --- --<br>------- money.,165503,165495,164888.18,164888,164895.6,165512.12,,55,money.
Item 100,flow.Loop,2_1_1_1,2022-02-15T13:00:49.955Z,,,,,,,,,,,,,,,,,,,,,,,,,,,,,,,24693.579999999987,,completion,,,,,E,,,,,,,,,,,silence,,,,,165503,165495,140784.76,140787,140801.42,165512.12,,,
Question 1,html.Screen,2_1_1_2,2022-02-15T13:00:52.278Z,,,,,,,,,,,,,,,,,,,,,,,,,,,,true,TRUE,,2310.8800000000047,,response,,,,100,E,,,,,,TRUE,click #choice-1,,,,silence,,,,,167827,167823,165504.06,165504,165512.12,167828.22,,,
Question 2,html.Screen,2_1_1_3,2022-02-15T13:00:56.008Z,,,,,,,,,,,,,,,,,,,,,,,,,,,,true,FALSE,,3713.779999999999,,response,,,,100,E,,,,,,FALSE,click #choice-2,,,,silence,,,,,171557,171542,167826.38,167827,167828.22,171560.66,,,
Item 100,flow.Sequence,2_1_1,2022-02-15T13:00:56.009Z,,,,,,,,,,,,,,,,,,,,,,,,,,,,,,,40738.17999999999,,completion,,,,,,,,,,,,,,,,,,,,,171558,171542,130801.38,130802,130803.82,171560.66,,,
End of Practice,html.Page,2_1_2,2022-02-15T13:00:59.185Z,,,,,,,,,,,,,,,,,,,,,,,,,,,,,,,3172.3399999999965,,form submission,,,,,,,,,,,,,,,,,,,,,174733,174733,171556.38,171558,171560.66,174743.22,,,
Practice,flow.Sequence,2_1,2022-02-15T13:00:59.185Z,,,,,,,,,,,,,,,,,,,,,,,,,,,,,,,88951.64,,completion,,,,,,,,,,,,,,,,,,,,,174734,174733,85775.28,85779,85781.36,174743.22,,,
Trap_instruction,html.Page,2_2_0,2022-02-15T13:01:02.965Z,,,,,,,,,,,,,,,,,,,,,,,,,,,,,,,3769.779999999999,,form submission,,,,,,,,,,,,,,,,,,,,,178513,178513,174731.32,174734,174743.22,178525.64,,,
trap_trial,html.Screen,2_2_1,2022-02-15T13:01:06.673Z,,,,,,,,,,,,,,,,,,,,,,,,,,,,true,1,,3688.359999999986,,response,,,,,,,,,,,1,click #choice-1,,,,,,,,,182222,182214,178511.6,178513,178525.64,182224.76,,,
end of trap trial,html.Page,2_2_2,2022-02-15T13:01:09.432Z,,,,,,,,,,,,,,,,,,,,,,,,,,,,,,,2755.2399999999907,,form submission,,,,,,,,,,,,,,,,,,,,,184980,184980,182221.24,182223,182224.76,184990.76,,,
Trap 1,flow.Sequence,2_2,2022-02-15T13:01:09.432Z,,,,,,,,,,,,,,,,,,,,,,,,,,,,,,,10236.779999999999,,completion,,,,,,,,,,,,,,,,,,,,,184981,184980,174731.32,174734,174743.22,184990.76,,,
Standby,html.Page,2_3_0,2022-02-15T13:01:17.426Z,,,,,,,,,,,,,,,,,,,,,,,,,,,,,,,7998.059999999998,,timeout,,,,,,,,,,,,,,,,,,,,,192974,192972.16,184978.24,184981,184990.76,192988.82,,,
Holding screen,html.Screen,2_3_1_0_0,2022-02-15T13:01:24.423Z,,,,,,,,,,,,,,,,,,,,,,,,,,,,,,,6998.320000000007,,timeout,,,,,,,,,,,,,,,,,,,,,199972,199970.48,192972.16,192975,192988.82,199987.14,,,
screen,html.Screen,2_3_1_0_1_0,2022-02-15T13:01:26.846Z,,,,,,,,,,,,,,,,,48,,,,,,,,,,,,,,2398.859999999986,,response,,,,10,E,,,,,,Space,keypress(Space),,,,lyrical,,,,As -- --- ------ ------- --------- ----------- --------<br>--------- -------- --- ------- -- ------- ---- -- ------<br>-- --- -------- -------- ---------- ---- ---- ---- ------<br>-- --------- -- ---- -- --- -- --- ------- -- - -----<br>---------- -- -- -- ---- ----- -- ------ -- --- ------<br>-------,202395,202386,199970.48,199972,199987.14,202403.22,,0,As
screen,html.Screen,2_3_1_0_1_1,2022-02-15T13:01:27.332Z,,,,,,,,,,,,,,,,,48,,,,,,,,,,,,,,466.77999999999884,,response,,,,10,E,,,,,,Space,keypress(Space),,,,lyrical,,,,-- in --- ------ ------- --------- ----------- --------<br>--------- -------- --- ------- -- ------- ---- -- ------<br>-- --- -------- -------- ---------- ---- ---- ---- ------<br>-- --------- -- ---- -- --- -- --- ------- -- - -----<br>---------- -- -- -- ---- ----- -- ------ -- --- ------<br>-------,202880,202870,202394.84,202395,202403.22,202886.44,,1,in
screen,html.Screen,2_3_1_0_1_2,2022-02-15T13:01:27.775Z,,,,,,,,,,,,,,,,,48,,,,,,,,,,,,,,420.5599999999977,,response,,,,10,E,,,,,,Space,keypress(Space),,,,lyrical,,,,-- -- the ------ ------- --------- ----------- --------<br>--------- -------- --- ------- -- ------- ---- -- ------<br>-- --- -------- -------- ---------- ---- ---- ---- ------<br>-- --------- -- ---- -- --- -- --- ------- -- - -----<br>---------- -- -- -- ---- ----- -- ------ -- --- ------<br>-------,203324,203307,202880.9,202881,202886.44,203336.32,,2,the
screen,html.Screen,2_3_1_0_1_3,2022-02-15T13:01:28.453Z,,,,,,,,,,,,,,,,,48,,,,,,,,,,,,,,658.679999999993,,response,,,,10,E,,,,,,Space,keypress(Space),,,,lyrical,,,,-- -- --- United ------- --------- ----------- --------<br>--------- -------- --- ------- -- ------- ---- -- ------<br>-- --- -------- -------- ---------- ---- ---- ---- ------<br>-- --------- -- ---- -- --- -- --- ------- -- - -----<br>---------- -- -- -- ---- ----- -- ------ -- --- ------<br>-------,204002,203995,203324.04,203324,203336.32,204002.84,,3,United
screen,html.Screen,2_3_1_0_1_4,2022-02-15T13:01:28.914Z,,,,,,,,,,,,,,,,,48,,,,,,,,,,,,,,445.1600000000035,,response,,,,10,E,,,,,,Space,keypress(Space),,,,lyrical,,,,"-- -- --- ------ States, --------- ----------- --------<br>--------- -------- --- ------- -- ------- ---- -- ------<br>-- --- -------- -------- ---------- ---- ---- ---- ------<br>-- --------- -- ---- -- --- -- --- ------- -- - -----<br>---------- -- -- -- ---- ----- -- ------ -- --- ------<br>-------",204463,204448,204002.5,204002,204002.84,204469.38,,4,"States,"
screen,html.Screen,2_3_1_0_1_5,2022-02-15T13:01:29.376Z,,,,,,,,,,,,,,,,,48,,,,,,,,,,,,,,447.61999999999534,,response,,,,10,E,,,,,,Space,keypress(Space),,,,lyrical,,,,-- -- --- ------ ------- Colombian ----------- --------<br>--------- -------- --- ------- -- ------- ---- -- ------<br>-- --- -------- -------- ---------- ---- ---- ---- ------<br>-- --------- -- ---- -- --- -- --- ------- -- - -----<br>---------- -- -- -- ---- ----- -- ------ -- --- ------<br>-------,204924,204917,204463.1,204463,204469.38,204935.94,,5,Colombian
screen,html.Screen,2_3_1_0_1_6,2022-02-15T13:01:29.983Z,,,,,,,,,,,,,,,,,48,,,,,,,,,,,,,,591.0599999999977,,response,,,,10,E,,,,,,Space,keypress(Space),,,,lyrical,,,,-- -- --- ------ ------- --------- legislation --------<br>--------- -------- --- ------- -- ------- ---- -- ------<br>-- --- -------- -------- ---------- ---- ---- ---- ------<br>-- --------- -- ---- -- --- -- --- ------- -- - -----<br>---------- -- -- -- ---- ----- -- ------ -- --- ------<br>-------,205531,205527,204924.66,204924,204935.94,205535.8,,6,legislation
screen,html.Screen,2_3_1_0_1_7,2022-02-15T13:01:30.327Z,,,,,,,,,,,,,,,,,48,,,,,,,,,,,,,,334.20000000001164,,response,,,,10,E,,,,,,Space,keypress(Space),,,,lyrical,,,,-- -- --- ------ ------- --------- ----------- requires<br>--------- -------- --- ------- -- ------- ---- -- ------<br>-- --- -------- -------- ---------- ---- ---- ---- ------<br>-- --------- -- ---- -- --- -- --- ------- -- - -----<br>---------- -- -- -- ---- ----- -- ------ -- --- ------<br>-------,205875,205870,205531.42,205531,205535.8,205885.72,,7,requires
screen,html.Screen,2_3_1_0_1_8,2022-02-15T13:01:30.670Z,,,,,,,,,,,,,,,,,48,,,,,,,,,,,,,,328.27999999999884,,response,,,,10,E,,,,,,Space,keypress(Space),,,,lyrical,,,,-- -- --- ------ ------- --------- ----------- --------<br>travelers -------- --- ------- -- ------- ---- -- ------<br>-- --- -------- -------- ---------- ---- ---- ---- ------<br>-- --------- -- ---- -- --- -- --- ------- -- - -----<br>---------- -- -- -- ---- ----- -- ------ -- --- ------<br>-------,206219,206214,205875.96,205876,205885.72,206235.64,,8,travelers
screen,html.Screen,2_3_1_0_1_9,2022-02-15T13:01:31.275Z,,,,,,,,,,,,,,,,,48,,,,,,,,,,,,,,572.359999999986,,response,,,,10,E,,,,,,Space,keypress(Space),,,,lyrical,,,,-- -- --- ------ ------- --------- ----------- --------<br>--------- entering --- ------- -- ------- ---- -- ------<br>-- --- -------- -------- ---------- ---- ---- ---- ------<br>-- --------- -- ---- -- --- -- --- ------- -- - -----<br>---------- -- -- -- ---- ----- -- ------ -- --- ------<br>-------,206823,206808,206219.18,206219,206235.64,206835.48,,9,entering
screen,html.Screen,2_3_1_0_1_10,2022-02-15T13:01:31.629Z,,,,,,,,,,,,,,,,,48,,,,,,,,,,,,,,331.5199999999895,,response,,,,10,E,,,,,,Space,keypress(Space),,,,lyrical,,,,-- -- --- ------ ------- --------- ----------- --------<br>--------- -------- the ------- -- ------- ---- -- ------<br>-- --- -------- -------- ---------- ---- ---- ---- ------<br>-- --------- -- ---- -- --- -- --- ------- -- - -----<br>---------- -- -- -- ---- ----- -- ------ -- --- ------<br>-------,207178,207167,206823.94,206824,206835.48,207185.4,,10,the
screen,html.Screen,2_3_1_0_1_11,2022-02-15T13:01:32.315Z,,,,,,,,,,,,,,,,,48,,,,,,,,,,,,,,669.6000000000058,,response,,,,10,E,,,,,,Space,keypress(Space),,,,lyrical,,,,-- -- --- ------ ------- --------- ----------- --------<br>--------- -------- --- country -- ------- ---- -- ------<br>-- --- -------- -------- ---------- ---- ---- ---- ------<br>-- --------- -- ---- -- --- -- --- ------- -- - -----<br>---------- -- -- -- ---- ----- -- ------ -- --- ------<br>-------,207863,207855,207177.8,207178,207185.4,207868.56,,11,country
screen,html.Screen,2_3_1_0_1_12,2022-02-15T13:01:32.623Z,,,,,,,,,,,,,,,,,48,,,,,,,,,,,,,,298.4400000000023,,response,,,,10,E,,,,,,Space,keypress(Space),,,,lyrical,,,,-- -- --- ------ ------- --------- ----------- --------<br>--------- -------- --- ------- to ------- ---- -- ------<br>-- --- -------- -------- ---------- ---- ---- ---- ------<br>-- --------- -- ---- -- --- -- --- ------- -- - -----<br>---------- -- -- -- ---- ----- -- ------ -- --- ------<br>-------,208171,208167,207864,207864,207868.56,208185.16,,12,to
screen,html.Screen,2_3_1_0_1_13,2022-02-15T13:01:33.069Z,,,,,,,,,,,,,,,,,48,,,,,,,,,,,,,,419.8399999999965,,response,,,,10,E,,,,,,Space,keypress(Space),,,,lyrical,,,,-- -- --- ------ ------- --------- ----------- --------<br>--------- -------- --- ------- -- declare ---- -- ------<br>-- --- -------- -------- ---------- ---- ---- ---- ------<br>-- --------- -- ---- -- --- -- --- ------- -- - -----<br>---------- -- -- -- ---- ----- -- ------ -- --- ------<br>-------,208617,208605,208171.72,208171,208185.16,208618.38,,13,declare
screen,html.Screen,2_3_1_0_1_14,2022-02-15T13:01:33.421Z,,,,,,,,,,,,,,,,,48,,,,,,,,,,,,,,345.61999999999534,,response,,,,10,E,,,,,,Space,keypress(Space),,,,lyrical,,,,-- -- --- ------ ------- --------- ----------- --------<br>--------- -------- --- ------- -- ------- cash -- ------<br>-- --- -------- -------- ---------- ---- ---- ---- ------<br>-- --------- -- ---- -- --- -- --- ------- -- - -----<br>---------- -- -- -- ---- ----- -- ------ -- --- ------<br>-------,208969,208964,208617.7,208617,208618.38,208984.96,,14,cash
screen,html.Screen,2_3_1_0_1_15,2022-02-15T13:01:33.787Z,,,,,,,,,,,,,,,,,48,,,,,,,,,,,,,,338.04000000000815,,response,,,,10,E,,,,,,Space,keypress(Space),,,,lyrical,,,,-- -- --- ------ ------- --------- ----------- --------<br>--------- -------- --- ------- -- ------- ---- in ------<br>-- --- -------- -------- ---------- ---- ---- ---- ------<br>-- --------- -- ---- -- --- -- --- ------- -- - -----<br>---------- -- -- -- ---- ----- -- ------ -- --- ------<br>-------,209336,209323,208969.38,208969,208984.96,209351.54,,15,in
screen,html.Screen,2_3_1_0_1_16,2022-02-15T13:01:34.555Z,,,,,,,,,,,,,,,,,48,,,,,,,,,,,,,,736.4599999999919,,response,,,,10,E,,,,,,Space,keypress(Space),,,,lyrical,,,,-- -- --- ------ ------- --------- ----------- --------<br>--------- -------- --- ------- -- ------- ---- -- excess<br>-- --- -------- -------- ---------- ---- ---- ---- ------<br>-- --------- -- ---- -- --- -- --- ------- -- - -----<br>---------- -- -- -- ---- ----- -- ------ -- --- ------<br>-------,210104,210088,209336.26,209336,209351.54,210118.02,,16,excess
screen,html.Screen,2_3_1_0_1_17,2022-02-15T13:01:34.903Z,,,,,,,,,,,,,,,,,48,,,,,,,,,,,,,,314.9800000000105,,response,,,,10,E,,,,,,Space,keypress(Space),,,,lyrical,,,,-- -- --- ------ ------- --------- ----------- --------<br>--------- -------- --- ------- -- ------- ---- -- ------<br>of --- -------- -------- ---------- ---- ---- ---- ------<br>-- --------- -- ---- -- --- -- --- ------- -- - -----<br>---------- -- -- -- ---- ----- -- ------ -- --- ------<br>-------,210452,210433,210103.58,210104,210118.02,210467.94,,17,of
screen,html.Screen,2_3_1_0_1_18,2022-02-15T13:01:35.257Z,,,,,,,,,,,,,,,,,48,,,,,,,,,,,,,,324.0599999999977,,response,,,,10,E,,,,,,Space,keypress(Space),,,,lyrical,,,,-- -- --- ------ ------- --------- ----------- --------<br>--------- -------- --- ------- -- ------- ---- -- ------<br>-- ten -------- -------- ---------- ---- ---- ---- ------<br>-- --------- -- ---- -- --- -- --- ------- -- - -----<br>---------- -- -- -- ---- ----- -- ------ -- --- ------<br>-------,210806,210792,210452.34,210453,210467.94,210817.86,,18,ten
screen,html.Screen,2_3_1_0_1_19,2022-02-15T13:01:35.666Z,,,,,,,,,,,,,,,,,48,,,,,,,,,,,,,,380.14000000001397,,response,,,,10,E,,,,,,Space,keypress(Space),,,,lyrical,,,,-- -- --- ------ ------- --------- ----------- --------<br>--------- -------- --- ------- -- ------- ---- -- ------<br>-- --- thousand -------- ---------- ---- ---- ---- ------<br>-- --------- -- ---- -- --- -- --- ------- -- - -----<br>---------- -- -- -- ---- ----- -- ------ -- --- ------<br>-------,211214,211198,210806.2,210806,210817.86,211217.76,,19,thousand
screen,html.Screen,2_3_1_0_1_20,2022-02-15T13:01:36.133Z,,,,,,,,,,,,,,,,,48,,,,,,,,,,,,,,449.2399999999907,,response,,,,10,E,,,,,,Space,keypress(Space),,,,lyrical,,,,-- -- --- ------ ------- --------- ----------- --------<br>--------- -------- --- ------- -- ------- ---- -- ------<br>-- --- -------- dollars. ---------- ---- ---- ---- ------<br>-- --------- -- ---- -- --- -- --- ------- -- - -----<br>---------- -- -- -- ---- ----- -- ------ -- --- ------<br>-------,211683,211667,211214.72,211214,211217.76,211684.32,,20,dollars.
screen,html.Screen,2_3_1_0_1_21,2022-02-15T13:01:36.757Z,,,,,,,,,,,,,,,,,48,,,,,,,,,,,,,,606.679999999993,,response,,,,10,E,,,,,,Space,keypress(Space),,,,lyrical,,,,-- -- --- ------ ------- --------- ----------- --------<br>--------- -------- --- ------- -- ------- ---- -- ------<br>-- --- -------- -------- Concealing ---- ---- ---- ------<br>-- --------- -- ---- -- --- -- --- ------- -- - -----<br>---------- -- -- -- ---- ----- -- ------ -- --- ------<br>-------,212306,212291,211682.76,211683,211684.32,212317.5,,21,Concealing
screen,html.Screen,2_3_1_0_1_22,2022-02-15T13:01:37.052Z,,,,,,,,,,,,,,,,,48,,,,,,,,,,,,,,270.5,,response,,,,10,E,,,,,,Space,keypress(Space),,,,lyrical,,,,-- -- --- ------ ------- --------- ----------- --------<br>--------- -------- --- ------- -- ------- ---- -- ------<br>-- --- -------- -------- ---------- more ---- ---- ------<br>-- --------- -- ---- -- --- -- --- ------- -- - -----<br>---------- -- -- -- ---- ----- -- ------ -- --- ------<br>-------,212601,212588,212306.24,212306,212317.5,212600.76,,22,more
screen,html.Screen,2_3_1_0_1_23,2022-02-15T13:01:37.375Z,,,,,,,,,,,,,,,,,48,,,,,,,,,,,,,,315.2399999999907,,response,,,,10,E,,,,,,Space,keypress(Space),,,,lyrical,,,,-- -- --- ------ ------- --------- ----------- --------<br>--------- -------- --- ------- -- ------- ---- -- ------<br>-- --- -------- -------- ---------- ---- than ---- ------<br>-- --------- -- ---- -- --- -- --- ------- -- - -----<br>---------- -- -- -- ---- ----- -- ------ -- --- ------<br>-------,212924,212916,212600.68,212601,212600.76,212934.02,,23,than
screen,html.Screen,2_3_1_0_1_24,2022-02-15T13:01:37.764Z,,,,,,,,,,,,,,,,,48,,,,,,,,,,,,,,373.9800000000105,,response,,,,10,E,,,,,,Space,keypress(Space),,,,lyrical,,,,-- -- --- ------ ------- --------- ----------- --------<br>--------- -------- --- ------- -- ------- ---- -- ------<br>-- --- -------- -------- ---------- ---- ---- that ------<br>-- --------- -- ---- -- --- -- --- ------- -- - -----<br>---------- -- -- -- ---- ----- -- ------ -- --- ------<br>-------,213312,213308,212923.5,212924,212934.02,213317.26,,24,that
screen,html.Screen,2_3_1_0_1_25,2022-02-15T13:01:38.090Z,,,,,,,,,,,,,,,,,48,,,,,,,,,,,,,,302.7399999999907,,response,,,,10,E,,,,,,Space,keypress(Space),,,,lyrical,,,,-- -- --- ------ ------- --------- ----------- --------<br>--------- -------- --- ------- -- ------- ---- -- ------<br>-- --- -------- -------- ---------- ---- ---- ---- amount<br>-- --------- -- ---- -- --- -- --- ------- -- - -----<br>---------- -- -- -- ---- ----- -- ------ -- --- ------<br>-------,213638,213620,213312.34,213312,213317.26,213650.5,,25,amount
screen,html.Screen,2_3_1_0_1_26,2022-02-15T13:01:38.454Z,,,,,,,,,,,,,,,,,48,,,,,,,,,,,,,,344.5,,response,,,,10,E,,,,,,Space,keypress(Space),,,,lyrical,,,,-- -- --- ------ ------- --------- ----------- --------<br>--------- -------- --- ------- -- ------- ---- -- ------<br>-- --- -------- -------- ---------- ---- ---- ---- ------<br>to --------- -- ---- -- --- -- --- ------- -- - -----<br>---------- -- -- -- ---- ----- -- ------ -- --- ------<br>-------,214002,213995,213638.42,213638,213650.5,214017.08,,26,to
screen,html.Screen,2_3_1_0_1_27,2022-02-15T13:01:38.868Z,,,,,,,,,,,,,,,,,48,,,,,,,,,,,,,,384.9200000000128,,response,,,,10,E,,,,,,Space,keypress(Space),,,,lyrical,,,,-- -- --- ------ ------- --------- ----------- --------<br>--------- -------- --- ------- -- ------- ---- -- ------<br>-- --- -------- -------- ---------- ---- ---- ---- ------<br>-- transport -- ---- -- --- -- --- ------- -- - -----<br>---------- -- -- -- ---- ----- -- ------ -- --- ------<br>-------,214417,214402,214002.28,214003,214017.08,214416.98,,27,transport
screen,html.Screen,2_3_1_0_1_28,2022-02-15T13:01:39.202Z,,,,,,,,,,,,,,,,,48,,,,,,,,,,,,,,327.0199999999895,,response,,,,10,E,,,,,,Space,keypress(Space),,,,lyrical,,,,-- -- --- ------ ------- --------- ----------- --------<br>--------- -------- --- ------- -- ------- ---- -- ------<br>-- --- -------- -------- ---------- ---- ---- ---- ------<br>-- --------- it ---- -- --- -- --- ------- -- - -----<br>---------- -- -- -- ---- ----- -- ------ -- --- ------<br>-------,214750,214744,214416.54,214417,214416.98,214766.9,,28,it
screen,html.Screen,2_3_1_0_1_29,2022-02-15T13:01:39.521Z,,,,,,,,,,,,,,,,,48,,,,,,,,,,,,,,291.1000000000058,,response,,,,10,E,,,,,,Space,keypress(Space),,,,lyrical,,,,-- -- --- ------ ------- --------- ----------- --------<br>--------- -------- --- ------- -- ------- ---- -- ------<br>-- --- -------- -------- ---------- ---- ---- ---- ------<br>-- --------- -- into -- --- -- --- ------- -- - -----<br>---------- -- -- -- ---- ----- -- ------ -- --- ------<br>-------,215069,215058,214750.6,214750,214766.9,215083.5,,29,into
screen,html.Screen,2_3_1_0_1_30,2022-02-15T13:01:40.002Z,,,,,,,,,,,,,,,,,48,,,,,,,,,,,,,,457.5,,response,,,,10,E,,,,,,Space,keypress(Space),,,,lyrical,,,,-- -- --- ------ ------- --------- ----------- --------<br>--------- -------- --- ------- -- ------- ---- -- ------<br>-- --- -------- -------- ---------- ---- ---- ---- ------<br>-- --------- -- ---- or --- -- --- ------- -- - -----<br>---------- -- -- -- ---- ----- -- ------ -- --- ------<br>-------,215551,215541,215069.66,215069,215083.5,215566.72,,30,or
screen,html.Screen,2_3_1_0_1_31,2022-02-15T13:01:40.253Z,,,,,,,,,,,,,,,,,48,,,,,,,,,,,,,,224.27999999999884,,response,,,,10,E,,,,,,Space,keypress(Space),,,,lyrical,,,,-- -- --- ------ ------- --------- ----------- --------<br>--------- -------- --- ------- -- ------- ---- -- ------<br>-- --- -------- -------- ---------- ---- ---- ---- ------<br>-- --------- -- ---- -- out -- --- ------- -- - -----<br>---------- -- -- -- ---- ----- -- ------ -- --- ------<br>-------,215801,215791,215551.28,215551,215566.72,215816.66,,31,out
screen,html.Screen,2_3_1_0_1_32,2022-02-15T13:01:40.634Z,,,,,,,,,,,,,,,,,48,,,,,,,,,,,,,,350.3399999999965,,response,,,,10,E,,,,,,Space,keypress(Space),,,,lyrical,,,,-- -- --- ------ ------- --------- ----------- --------<br>--------- -------- --- ------- -- ------- ---- -- ------<br>-- --- -------- -------- ---------- ---- ---- ---- ------<br>-- --------- -- ---- -- --- of --- ------- -- - -----<br>---------- -- -- -- ---- ----- -- ------ -- --- ------<br>-------,216182,216167,215801.96,215801,215816.66,216183.24,,32,of
screen,html.Screen,2_3_1_0_1_33,2022-02-15T13:01:40.930Z,,,,,,,,,,,,,,,,,48,,,,,,,,,,,,,,280.7600000000093,,response,,,,10,E,,,,,,Space,keypress(Space),,,,lyrical,,,,-- -- --- ------ ------- --------- ----------- --------<br>--------- -------- --- ------- -- ------- ---- -- ------<br>-- --- -------- -------- ---------- ---- ---- ---- ------<br>-- --------- -- ---- -- --- -- the ------- -- - -----<br>---------- -- -- -- ---- ----- -- ------ -- --- ------<br>-------,216478,216464,216182.44,216182,216183.24,216483.16,,33,the
screen,html.Screen,2_3_1_0_1_34,2022-02-15T13:01:41.326Z,,,,,,,,,,,,,,,,,48,,,,,,,,,,,,,,385.8399999999965,,response,,,,10,E,,,,,,Space,keypress(Space),,,,lyrical,,,,-- -- --- ------ ------- --------- ----------- --------<br>--------- -------- --- ------- -- ------- ---- -- ------<br>-- --- -------- -------- ---------- ---- ---- ---- ------<br>-- --------- -- ---- -- --- -- --- country -- - -----<br>---------- -- -- -- ---- ----- -- ------ -- --- ------<br>-------,216875,216869,216479.1,216479,216483.16,216883.06,,34,country
screen,html.Screen,2_3_1_0_1_35,2022-02-15T13:01:41.632Z,,,,,,,,,,,,,,,,,48,,,,,,,,,,,,,,282.9400000000023,,response,,,,10,E,,,,,,Space,keypress(Space),,,,lyrical,,,,-- -- --- ------ ------- --------- ----------- --------<br>--------- -------- --- ------- -- ------- ---- -- ------<br>-- --- -------- -------- ---------- ---- ---- ---- ------<br>-- --------- -- ---- -- --- -- --- ------- is - -----<br>---------- -- -- -- ---- ----- -- ------ -- --- ------<br>-------,217181,217166,216874.7,216875,216883.06,217182.98,,35,is
screen,html.Screen,2_3_1_0_1_36,2022-02-15T13:01:41.999Z,,,,,,,,,,,,,,,,,48,,,,,,,,,,,,,,359.0199999999895,,response,,,,10,E,,,,,,Space,keypress(Space),,,,lyrical,,,,-- -- --- ------ ------- --------- ----------- --------<br>--------- -------- --- ------- -- ------- ---- -- ------<br>-- --- -------- -------- ---------- ---- ---- ---- ------<br>-- --------- -- ---- -- --- -- --- ------- -- a -----<br>---------- -- -- -- ---- ----- -- ------ -- --- ------<br>-------,217547,217542,217180.84,217181,217182.98,217549.56,,36,a
screen,html.Screen,2_3_1_0_1_37,2022-02-15T13:01:42.352Z,,,,,,,,,,,,,,,,,48,,,,,,,,,,,,,,336.4400000000023,,response,,,,10,E,,,,,,Space,keypress(Space),,,,lyrical,,,,-- -- --- ------ ------- --------- ----------- --------<br>--------- -------- --- ------- -- ------- ---- -- ------<br>-- --- -------- -------- ---------- ---- ---- ---- ------<br>-- --------- -- ---- -- --- -- --- ------- -- - crime<br>---------- -- -- -- ---- ----- -- ------ -- --- ------<br>-------,217900,217886,217547.3,217547,217549.56,217916.14,,37,crime
screen,html.Screen,2_3_1_0_1_38,2022-02-15T13:01:42.748Z,,,,,,,,,,,,,,,,,48,,,,,,,,,,,,,,375.85999999998603,,response,,,,10,E,,,,,,Space,keypress(Space),,,,lyrical,,,,-- -- --- ------ ------- --------- ----------- --------<br>--------- -------- --- ------- -- ------- ---- -- ------<br>-- --- -------- -------- ---------- ---- ---- ---- ------<br>-- --------- -- ---- -- --- -- --- ------- -- - -----<br>punishable -- -- -- ---- ----- -- ------ -- --- ------<br>-------,218297,218292,217900.66,217900,217916.14,218299.38,,38,punishable
screen,html.Screen,2_3_1_0_1_39,2022-02-15T13:01:43.143Z,,,,,,,,,,,,,,,,,48,,,,,,,,,,,,,,383.61999999999534,,response,,,,10,E,,,,,,Space,keypress(Space),,,,lyrical,,,,-- -- --- ------ ------- --------- ----------- --------<br>--------- -------- --- ------- -- ------- ---- -- ------<br>-- --- -------- -------- ---------- ---- ---- ---- ------<br>-- --------- -- ---- -- --- -- --- ------- -- - -----<br>---------- by -- -- ---- ----- -- ------ -- --- ------<br>-------,218691,218683,218297.24,218297,218299.38,218699.3,,39,by
screen,html.Screen,2_3_1_0_1_40,2022-02-15T13:01:43.553Z,,,,,,,,,,,,,,,,,48,,,,,,,,,,,,,,389.70000000001164,,response,,,,10,E,,,,,,Space,keypress(Space),,,,lyrical,,,,-- -- --- ------ ------- --------- ----------- --------<br>--------- -------- --- ------- -- ------- ---- -- ------<br>-- --- -------- -------- ---------- ---- ---- ---- ------<br>-- --------- -- ---- -- --- -- --- ------- -- - -----<br>---------- -- up -- ---- ----- -- ------ -- --- ------<br>-------,219102,219089,218692,218691,218699.3,219115.86,,40,up
screen,html.Screen,2_3_1_0_1_41,2022-02-15T13:01:43.890Z,,,,,,,,,,,,,,,,,48,,,,,,,,,,,,,,317.14000000001397,,response,,,,10,E,,,,,,Space,keypress(Space),,,,lyrical,,,,-- -- --- ------ ------- --------- ----------- --------<br>--------- -------- --- ------- -- ------- ---- -- ------<br>-- --- -------- -------- ---------- ---- ---- ---- ------<br>-- --------- -- ---- -- --- -- --- ------- -- - -----<br>---------- -- -- to ---- ----- -- ------ -- --- ------<br>-------,219438,219433,219102.16,219102,219115.86,219449.1,,41,to
screen,html.Screen,2_3_1_0_1_42,2022-02-15T13:01:44.237Z,,,,,,,,,,,,,,,,,48,,,,,,,,,,,,,,327.8999999999942,,response,,,,10,E,,,,,,Space,keypress(Space),,,,lyrical,,,,-- -- --- ------ ------- --------- ----------- --------<br>--------- -------- --- ------- -- ------- ---- -- ------<br>-- --- -------- -------- ---------- ---- ---- ---- ------<br>-- --------- -- ---- -- --- -- --- ------- -- - -----<br>---------- -- -- -- five ----- -- ------ -- --- ------<br>-------,219786,219777,219438.6,219438,219449.1,219799.02,,42,five
screen,html.Screen,2_3_1_0_1_43,2022-02-15T13:01:44.596Z,,,,,,,,,,,,,,,,,48,,,,,,,,,,,,,,336.9800000000105,,response,,,,10,E,,,,,,Space,keypress(Space),,,,lyrical,,,,-- -- --- ------ ------- --------- ----------- --------<br>--------- -------- --- ------- -- ------- ---- -- ------<br>-- --- -------- -------- ---------- ---- ---- ---- ------<br>-- --------- -- ---- -- --- -- --- ------- -- - -----<br>---------- -- -- -- ---- years -- ------ -- --- ------<br>-------,220144,220136,219786.64,219786,219799.02,220148.94,,43,years
screen,html.Screen,2_3_1_0_1_44,2022-02-15T13:01:45.077Z,,,,,,,,,,,,,,,,,48,,,,,,,,,,,,,,471.0599999999977,,response,,,,10,E,,,,,,Space,keypress(Space),,,,lyrical,,,,-- -- --- ------ ------- --------- ----------- --------<br>--------- -------- --- ------- -- ------- ---- -- ------<br>-- --- -------- -------- ---------- ---- ---- ---- ------<br>-- --------- -- ---- -- --- -- --- ------- -- - -----<br>---------- -- -- -- ---- ----- in ------ -- --- ------<br>-------,220626,220620,220144.48,220144,220148.94,220632.16,,44,in
screen,html.Screen,2_3_1_0_1_45,2022-02-15T13:01:45.438Z,,,,,,,,,,,,,,,,,48,,,,,,,,,,,,,,346.8399999999965,,response,,,,10,E,,,,,,Space,keypress(Space),,,,lyrical,,,,-- -- --- ------ ------- --------- ----------- --------<br>--------- -------- --- ------- -- ------- ---- -- ------<br>-- --- -------- -------- ---------- ---- ---- ---- ------<br>-- --------- -- ---- -- --- -- --- ------- -- - -----<br>---------- -- -- -- ---- ----- -- prison -- --- ------<br>-------,220987,220979,220626.06,220627,220632.16,220998.74,,45,prison
screen,html.Screen,2_3_1_0_1_46,2022-02-15T13:01:45.807Z,,,,,,,,,,,,,,,,,48,,,,,,,,,,,,,,340.2600000000093,,response,,,,10,E,,,,,,Space,keypress(Space),,,,lyrical,,,,-- -- --- ------ ------- --------- ----------- --------<br>--------- -------- --- ------- -- ------- ---- -- ------<br>-- --- -------- -------- ---------- ---- ---- ---- ------<br>-- --------- -- ---- -- --- -- --- ------- -- - -----<br>---------- -- -- -- ---- ----- -- ------ in --- ------<br>-------,221355,221339,220986.96,220987,220998.74,221365.32,,46,in
screen,html.Screen,2_3_1_0_1_47,2022-02-15T13:01:46.155Z,,,,,,,,,,,,,,,,,48,,,,,,,,,,,,,,332.679999999993,,response,,,,10,E,,,,,,Space,keypress(Space),,,,lyrical,,,,-- -- --- ------ ------- --------- ----------- --------<br>--------- -------- --- ------- -- ------- ---- -- ------<br>-- --- -------- -------- ---------- ---- ---- ---- ------<br>-- --------- -- ---- -- --- -- --- ------- -- - -----<br>---------- -- -- -- ---- ----- -- ------ -- the ------<br>-------,221704,221698,221355.52,221355,221365.32,221715.22,,47,the
screen,html.Screen,2_3_1_0_1_48,2022-02-15T13:01:46.537Z,,,,,,,,,,,,,,,,,48,,,,,,,,,,,,,,357.77999999999884,,response,,,,10,E,,,,,,Space,keypress(Space),,,,lyrical,,,,-- -- --- ------ ------- --------- ----------- --------<br>--------- -------- --- ------- -- ------- ---- -- ------<br>-- --- -------- -------- ---------- ---- ---- ---- ------<br>-- --------- -- ---- -- --- -- --- ------- -- - -----<br>---------- -- -- -- ---- ----- -- ------ -- --- United<br>-------,222086,222073,221704.46,221704,221715.22,222098.48,,48,United
screen,html.Screen,2_3_1_0_1_49,2022-02-15T13:01:46.888Z,,,,,,,,,,,,,,,,,48,,,,,,,,,,,,,,318.5199999999895,,response,,,,10,E,,,,,,Space,keypress(Space),,,,lyrical,,,,-- -- --- ------ ------- --------- ----------- --------<br>--------- -------- --- ------- -- ------- ---- -- ------<br>-- --- -------- -------- ---------- ---- ---- ---- ------<br>-- --------- -- ---- -- --- -- --- ------- -- - -----<br>---------- -- -- -- ---- ----- -- ------ -- --- ------<br>States.,222437,222417,222086.5,222087,222098.48,222448.38,,49,States.
Item 10,flow.Loop,2_3_1_0_1,2022-02-15T13:01:46.888Z,,,,,,,,,,,,,,,,,,,,,,,,,,,,,,,22429.859999999986,,completion,,,,,,,,,,,,,,,,,,,,,222437,222417,199970.48,199972,199987.14,222448.38,,,
Question 1,html.Screen,2_3_1_0_2,2022-02-15T13:01:52.239Z,,,,,,,,,,,,,,,,,,,,,,,,,,,,false,TRUE,,5328.619999999995,,response,,,,10,E,,,,,,FALSE,click #choice-2,,,,lyrical,,,,,227788,227777,222437.68,222438,222448.38,227797.1,,,
Question 2,html.Screen,2_3_1_0_3,2022-02-15T13:01:56.248Z,,,,,,,,,,,,,,,,,,,,,,,,,,,,true,TRUE,,3993.899999999994,,response,,,,10,E,,,,,,TRUE,click #choice-1,,,,lyrical,,,,,231797,231791,227787.18,227788,227797.1,231812.8,,,
Item 10,flow.Sequence,2_3_1_0,2022-02-15T13:01:56.248Z,,,,,,,,,,,,,,,,,,,,,,,,,,,,,,,38802.17999999999,,completion,,,,,,,,,,,,,,,,,,,,,231798,231791,192972.16,192975,192988.82,231812.8,,,
Holding screen,html.Screen,2_3_1_1_0,2022-02-15T13:02:03.248Z,,,,,,,,,,,,,,,,,,,,,,,,,,,,,,,6998.3000000000175,,timeout,,,,,,,,,,,,,,,,,,,,,238796,238794.44,231796.38,231798,231812.8,238811.1,,,
screen,html.Screen,2_3_1_1_1_0,2022-02-15T13:02:03.850Z,,,,,,,,,,,,,,,,,2,,,,,,,,,,,,,,574.8999999999942,,response,,,,1,E,,,,,,Space,keypress(Space),,,,lyrical,,,,Two ---- ------ --- ------- ---------- ------- ----------<br>--- --------- --- ----------- ------- ----- ------- ---<br>--------- ---- -- --- ---- -- --------- -- ---- -------<br>-- --------- ------ --- ----- ------ ---- --- --------- --<br>------ - ---- -- --- ----------- ------- ---- ----- -----<br>--- -------- - ------ ---- -- ----- ---- --- --- -----------<br>-- -------,239399,239386,238794.44,238796,238811.1,239410.96,,0,Two
screen,html.Screen,2_3_1_1_1_1,2022-02-15T13:02:04.083Z,,,,,,,,,,,,,,,,,2,,,,,,,,,,,,,,209.04000000000815,,response,,,,1,E,,,,,,Space,keypress(Space),,,,lyrical,,,,--- days ------ --- ------- ---------- ------- ----------<br>--- --------- --- ----------- ------- ----- ------- ---<br>--------- ---- -- --- ---- -- --------- -- ---- -------<br>-- --------- ------ --- ----- ------ ---- --- --------- --<br>------ - ---- -- --- ----------- ------- ---- ----- -----<br>--- -------- - ------ ---- -- ----- ---- --- --- -----------<br>-- -------,239632,239620,239399.1,239399,239410.96,239644.24,,1,days
screen,html.Screen,2_3_1_1_1_2,2022-02-15T13:02:04.369Z,,,,,,,,,,,,,,,,,2,,,,,,,,,,,,,,257.7600000000093,,response,,,,1,E,,,,,,Space,keypress(Space),,,,lyrical,,,,"--- ---- later, --- ------- ---------- ------- ----------<br>--- --------- --- ----------- ------- ----- ------- ---<br>--------- ---- -- --- ---- -- --------- -- ---- -------<br>-- --------- ------ --- ----- ------ ---- --- --------- --<br>------ - ---- -- --- ----------- ------- ---- ----- -----<br>--- -------- - ------ ---- -- ----- ---- --- --- -----------<br>-- -------",239918,239902,239632.2,239632,239644.24,239927.5,,2,"later,"
screen,html.Screen,2_3_1_1_1_3,2022-02-15T13:02:04.912Z,,,,,,,,,,,,,,,,,2,,,,,,,,,,,,,,520.5,,response,,,,1,E,,,,,,Space,keypress(Space),,,,lyrical,,,,--- ---- ------ the ------- ---------- ------- ----------<br>--- --------- --- ----------- ------- ----- ------- ---<br>--------- ---- -- --- ---- -- --------- -- ---- -------<br>-- --------- ------ --- ----- ------ ---- --- --------- --<br>------ - ---- -- --- ----------- ------- ---- ----- -----<br>--- -------- - ------ ---- -- ----- ---- --- --- -----------<br>-- -------,240460,240448,239918.02,239918,239927.5,240460.7,,3,the
