sender,sender_type,sender_id,timestamp,meta,,Blues,Classical,Country,Dance,Electronic,Folk,Gospel,Hip-Hop,Jazz,Latin,Musical/Film,New-age,Pop,Prolific_id,Provo_ID,R&B,Rap,Reggae,Religious,Rock,Soul,Swing,Traditional,age,artist_name,correct,correctResponse,distraction,duration,education,ended_on,familiarity,gender,headphone_check_performance,item,list,music_frequency,offensiveness,pleasantness,position_correct,preference,response,response_action,snippet_file,song_name,song_rating,sound,stimulus_1,stimulus_2,stimulus_3,text,time_commit,time_end,time_render,time_run,time_show,time_switch,url,word,word_ID
Prolific ID,html.Form,0,2022-02-02T12:16:57.301Z,"{""labjs_version"":""20.2.2"",""labjs_build"":{""flavor"":""production"",""commit"":""a25486e0c714a0ae2ce03ff94b7bb6896854dcfa""},""location"":""https://run.pavlovia.org/mvasilev/prolific2_music_a/"",""userAgent"":""Mozilla/5.0 (Windows NT 10.0; Win64; x64) AppleWebKit/537.36 (KHTML, like Gecko) Chrome/97.0.4692.71 Safari/537.36"",""platform"":""Win32"",""language"":""en-GB"",""locale"":""en-GB"",""timeZone"":""Europe/London"",""timezoneOffset"":0,""screen_width"":1280,""screen_height"":720,""scroll_width"":1280,""scroll_height"":561,""window_innerWidth"":1280,""window_innerHeight"":609,""devicePixelRatio"":1.5}",,,,,,,,,,,,,,,5e93546d421374010958f9b6,,,,,,,,,,,,,,,9767.312000047685,,form submission,,,,,,,,,,,,,,,,,,,,,40509.40000009537,40508.700000047684,30641.221,30638.099999904633,30741.388,40516.731,{},,
Introduction,html.Screen,1_0,2022-02-02T12:17:00.938Z,,,,,,,,,,,,,,,,,,,,,,,,,,,,,,,3625.868999904633,,response,,,,,,,,,,,continue,click button,,,,,,,,,44146.299999952316,44142.59999990463,40483.796,40510.09999990463,40516.731,44163.85,,,
Volume calibration,html.Screen,1_1,2022-02-02T12:17:36.760Z,,,,,,,,,,,,,,,,,,,,,,,,,,,,,,,35788.55000009537,,response,,,,,,,,,,,continue,click button,,,,,,,,,79961.79999995232,79952.40000009537,44130.795,44146.90000009537,44163.85,79967.78,,,
Task instructions,html.Screen,1_2,2022-02-02T12:17:41.972Z,,,,,,,,,,,,,,,,,,,,,,,,,,,,,,,5203.920000047685,,response,,,,,,,,,,,continue,click button,,,,,,,,,85174.09999990463,85171.70000004768,79951.054,79962.09999990463,79967.78,85180.167,,,
Sounds,html.Screen,1_3_0_0,2022-02-02T12:17:46.212Z,,,,,,,,,,,,,,,,,,,,,,,,,,,,,,,4246.779999999999,,timeout,,,,,,,,,1,,,,,,,,S,I,O,,89413.90000009537,89410.183,85163.692,85174.79999995232,85180.167,89426.947,,,
Judgement,html.Screen,1_3_0_1,2022-02-02T12:17:48.472Z,,,,,,,,,,,,,,,,,,,,,,,,,,,,true,1,,2245.6529999046325,,response,,,,,,,,,1,,1,click #choice-1,,,,,S,I,O,,91673.79999995232,91672.59999990463,89410.183,89414,89426.947,91841.272,,,
Trial,flow.Sequence,1_3_0,2022-02-02T12:17:48.473Z,,,,,,,,,,,,,,,,,,,,,,,,,,,,,,,6492.432999904631,,completion,,,,,,,,,1,,,,,,,,S,I,O,,91674.20000004768,91672.59999990463,85163.692,85174.59999990463,85180.167,91841.272,,,
Sounds,html.Screen,1_3_1_0,2022-02-02T12:17:52.870Z,,,,,,,,,,,,,,,,,,,,,,,,,,,,,,,4246.501000000004,,timeout,,,,,,,,,2,,,,,,,,O,S,I,,96071.90000009537,96071.148,91807.964,91674.40000009537,91841.272,96087.773,,,
Judgement,html.Screen,1_3_1_1,2022-02-02T12:17:53.730Z,,,,,,,,,,,,,,,,,,,,,,,,,,,,true,2,,841.3269999046315,,response,,,,,,,,,2,,2,click #choice-2,,,,,O,S,I,,96931.09999990463,96929.09999990463,96071.148,96072.20000004768,96087.773,96937.102,,,
Trial,flow.Sequence,1_3_1,2022-02-02T12:17:53.730Z,,,,,,,,,,,,,,,,,,,,,,,,,,,,,,,5087.827999904635,,completion,,,,,,,,,2,,,,,,,,O,S,I,,96931.70000004768,96929.09999990463,91807.964,91674.29999995232,91841.272,96937.102,,,
Sounds,html.Screen,1_3_2_0,2022-02-02T12:17:57.966Z,,,,,,,,,,,,,,,,,,,,,,,,,,,,,,,4246.521999999997,,timeout,,,,,,,,,2,,,,,,,,I,S,O,,101167.40000009537,101166.972,96920.417,96931.90000009537,96937.102,101183.624,,,
Judgement,html.Screen,1_3_2_1,2022-02-02T12:17:58.821Z,,,,,,,,,,,,,,,,,,,,,,,,,,,,true,2,,837.8760000000038,,response,,,,,,,,,2,,2,click #choice-2,,,,,I,S,O,,102022.70000004768,102021.5,101166.972,101167.40000009537,101183.624,102032.916,,,
Trial,flow.Sequence,1_3_2,2022-02-02T12:17:58.821Z,,,,,,,,,,,,,,,,,,,,,,,,,,,,,,,5084.398000000001,,completion,,,,,,,,,2,,,,,,,,I,S,O,,102022.90000009537,102021.5,96920.417,96931.79999995232,96937.102,102032.916,,,
Sounds,html.Screen,1_3_3_0,2022-02-02T12:18:03.068Z,,,,,,,,,,,,,,,,,,,,,,,,,,,,,,,4246.754000000001,,timeout,,,,,,,,,3,,,,,,,,O,I,S,,106269.29999995232,106262.887,102016.296,102023,102032.916,106279.67,,,
Judgement,html.Screen,1_3_3_1,2022-02-02T12:18:04.364Z,,,,,,,,,,,,,,,,,,,,,,,,,,,,true,3,,1282.8300000000017,,response,,,,,,,,,3,,3,click #choice-3,,,,,O,I,S,,107565.40000009537,107562.5,106262.887,106269.40000009537,106279.67,107578.705,,,
Trial,flow.Sequence,1_3_3,2022-02-02T12:18:04.364Z,,,,,,,,,,,,,,,,,,,,,,,,,,,,,,,5529.584000000003,,completion,,,,,,,,,3,,,,,,,,O,I,S,,107565.90000009537,107562.5,102016.296,102022.90000009537,102032.916,107578.705,,,
Sounds,html.Screen,1_3_4_0,2022-02-02T12:18:08.607Z,,,,,,,,,,,,,,,,,,,,,,,,,,,,,,,4246.474999999991,,timeout,,,,,,,,,3,,,,,,,,I,O,S,,111809.09999990463,111808.44,107562.091,107566.20000004768,107578.705,111825.18,,,
Judgement,html.Screen,1_3_4_1,2022-02-02T12:18:09.552Z,,,,,,,,,,,,,,,,,,,,,,,,,,,,true,3,,926.820000000007,,response,,,,,,,,,3,,3,click #choice-3,,,,,I,O,S,,112754,112752,111808.44,111809.09999990463,111825.18,112757.529,,,
Trial,flow.Sequence,1_3_4,2022-02-02T12:18:09.553Z,,,,,,,,,,,,,,,,,,,,,,,,,,,,,,,5173.294999999998,,completion,,,,,,,,,3,,,,,,,,I,O,S,,112754.5,112752,107562.091,107566.20000004768,107578.705,112757.529,,,
Sounds,html.Screen,1_3_5_0,2022-02-02T12:18:13.786Z,,,,,,,,,,,,,,,,,,,,,,,,,,,,,,,4246.801000000007,,timeout,,,,,,,,,1,,,,,,,,S,O,I,,116988,116987.524,112741.126,112754.79999995232,112757.529,117004.33,,,
Judgement,html.Screen,1_3_5_1,2022-02-02T12:18:14.753Z,,,,,,,,,,,,,,,,,,,,,,,,,,,,true,1,,947.9699999523145,,response,,,,,,,,,1,,1,click #choice-1,,,,,S,O,I,,117955,117952.29999995232,116987.524,116988.20000004768,117004.33,117969.944,,,
Trial,flow.Sequence,1_3_5,2022-02-02T12:18:14.754Z,,,,,,,,,,,,,,,,,,,,,,,,,,,,,,,5194.770999952321,,completion,,,,,,,,,1,,,,,,,,S,O,I,,117955.59999990463,117952.29999995232,112741.126,112754.70000004768,112757.529,117969.944,,,
Task,flow.Loop,1_3,2022-02-02T12:18:14.768Z,,,,,,,,,,,,,,,,,,,,,,,,,,,,,,,32772.132999952315,,completion,,,1,,,,,,,,,,,,,,,,,,117969.90000009537,117952.29999995232,85163.692,85174.29999995232,85180.167,117969.944,,,
Trap,html.Screen,1_4,2022-02-02T12:18:14.775Z,,,,,,,,,,,,,,,,,,,,,,,,,,,,,,,NaN,,skipped,,,,,,,,,,,,,,,,,,,,,117976.79999995232,117952.29999995232,,117976.40000009537,,117969.944,,,
Thanks,html.Screen,1_5,2022-02-02T12:18:17.634Z,,,,,,,,,,,,,,,,,,,,,,,,,,,,,,,2863.055999999997,,response,,,,,,,,,,,continue,click button,,,,,,,,,120835.29999995232,120833,117953.532,117977.09999990463,117969.944,124947.445,,,
Headphone screening,flow.Sequence,1,2022-02-02T12:18:17.634Z,,,,,,,,,,,,,,,,,,,,,,,,,,,,,,,80316.269,,completion,,,,,,,,,,,,,,,,,,,,,120835.79999995232,120833,40483.796,40510.09999990463,40516.731,124947.445,,,
Instructions,html.Page,2_0,2022-02-02T12:18:35.685Z,,,,,,,,,,,,,,,,,,,,,,,,,,,,,,,13939.054999999993,,form submission,,,,,,,,,,,,,,,,,,,,,138886.90000009537,138886.5,124914.123,124938.09999990463,124947.445,138886.009,,,
Holding screen,html.Screen,2_1_0_0,2022-02-02T12:18:45.661Z,,,,,,,,,,,,,,,,,,,,,,,,,,,,,,,10041.795000000013,,timeout,,,,,,,,,,,,,,,,,,,,,148863,148861.463,138869.331,138887.09999990463,138886.009,148927.804,,,
screen,html.Screen,2_1_0_1_0,2022-02-02T12:18:46.780Z,,,,,,,,,,,,,,,,,53,,,,,,,,,,,,,,1046.2959999046288,,response,,,,99,,,,,,,Space,keypress(Space),,,,,,,,When -- ----- -- ------ - ------- --- ----------<br>------------- ------ ------ ---- ---- ------- ----- -- ----<br>-------- ------- -- ---------- --- - --- ----- ----- ----<br>---- --- --- ----- --- ---- ---- ------- ----- ---- -------<br>--- --- -- ----- -- --- ---- -- --- ---- -- ------ ------<br>--- ----- -- ----,149981.79999995232,149974.09999990463,148861.463,148863.5,148927.804,149993.605,,0,When
screen,html.Screen,2_1_0_1_1,2022-02-02T12:18:47.324Z,,,,,,,,,,,,,,,,,53,,,,,,,,,,,,,,530.295000095357,,response,,,,99,,,,,,,Space,keypress(Space),,,,,,,,---- it ----- -- ------ - ------- --- ----------<br>------------- ------ ------ ---- ---- ------- ----- -- ----<br>-------- ------- -- ---------- --- - --- ----- ----- ----<br>---- --- --- ----- --- ---- ---- ------- ----- ---- -------<br>--- --- -- ----- -- --- ---- -- --- ---- -- ------ ------<br>--- ----- -- ----,150525.29999995232,150523.90000009537,149977.134,149982.09999990463,149993.605,150543.361,,1,it
screen,html.Screen,2_1_0_1_2,2022-02-02T12:18:48.198Z,,,,,,,,,,,,,,,,,53,,,,,,,,,,,,,,854.1389999999956,,response,,,,99,,,,,,,Space,keypress(Space),,,,,,,,---- -- comes -- ------ - ------- --- ----------<br>------------- ------ ------ ---- ---- ------- ----- -- ----<br>-------- ------- -- ---------- --- - --- ----- ----- ----<br>---- --- --- ----- --- ---- ---- ------- ----- ---- -------<br>--- --- -- ----- -- --- ---- -- --- ---- -- ------ ------<br>--- ----- -- ----,151399.09999990463,151397.5,150526.508,150530,150543.361,151409.259,,2,comes
screen,html.Screen,2_1_0_1_3,2022-02-02T12:18:49.024Z,,,,,,,,,,,,,,,,,53,,,,,,,,,,,,,,813.8409999046416,,response,,,,99,,,,,,,Space,keypress(Space),,,,,,,,---- -- ----- to ------ - ------- --- ----------<br>------------- ------ ------ ---- ---- ------- ----- -- ----<br>-------- ------- -- ---------- --- - --- ----- ----- ----<br>---- --- --- ----- --- ---- ---- ------- ----- ---- -------<br>--- --- -- ----- -- --- ---- -- --- ---- -- ------ ------<br>--- ----- -- ----,152225.09999990463,152223.09999990463,151392.725,151399.29999995232,151409.259,152241.95,,3,to
screen,html.Screen,2_1_0_1_4,2022-02-02T12:18:50.078Z,,,,,,,,,,,,,,,,,53,,,,,,,,,,,,,,1036.149999904621,,response,,,,99,,,,,,,Space,keypress(Space),,,,,,,,---- -- ----- -- having - ------- --- ----------<br>------------- ------ ------ ---- ---- ------- ----- -- ----<br>-------- ------- -- ---------- --- - --- ----- ----- ----<br>---- --- --- ----- --- ---- ---- ------- ----- ---- -------<br>--- --- -- ----- -- --- ---- -- --- ---- -- ------ ------<br>--- ----- -- ----,153279.29999995232,153278.09999990463,152225.136,152225.40000009537,152241.95,153291.222,,4,having
screen,html.Screen,2_1_0_1_5,2022-02-02T12:18:51.009Z,,,,,,,,,,,,,,,,,53,,,,,,,,,,,,,,917.8779999046237,,response,,,,99,,,,,,,Space,keypress(Space),,,,,,,,---- -- ----- -- ------ a ------- --- ----------<br>------------- ------ ------ ---- ---- ------- ----- -- ----<br>-------- ------- -- ---------- --- - --- ----- ----- ----<br>---- --- --- ----- --- ---- ---- ------- ----- ---- -------<br>--- --- -- ----- -- --- ---- -- --- ---- -- ------ ------<br>--- ----- -- ----,154210.40000009537,154209.09999990463,153274.547,153279.59999990463,153291.222,154223.742,,5,a
screen,html.Screen,2_1_0_1_6,2022-02-02T12:18:51.812Z,,,,,,,,,,,,,,,,,53,,,,,,,,,,,,,,788.7580000000016,,response,,,,99,,,,,,,Space,keypress(Space),,,,,,,,---- -- ----- -- ------ - lasting --- ----------<br>------------- ------ ------ ---- ---- ------- ----- -- ----<br>-------- ------- -- ---------- --- - --- ----- ----- ----<br>---- --- --- ----- --- ---- ---- ------- ----- ---- -------<br>--- --- -- ----- -- --- ---- -- --- ---- -- ------ ------<br>--- ----- -- ----,155013.79999995232,155012.5,154207.149,154210.70000004768,154223.742,155022.81,,6,lasting
screen,html.Screen,2_1_0_1_7,2022-02-02T12:18:52.319Z,,,,,,,,,,,,,,,,,53,,,,,,,,,,,,,,496.6900000000023,,response,,,,99,,,,,,,Space,keypress(Space),,,,,,,,---- -- ----- -- ------ - ------- and ----------<br>------------- ------ ------ ---- ---- ------- ----- -- ----<br>-------- ------- -- ---------- --- - --- ----- ----- ----<br>---- --- --- ----- --- ---- ---- ------- ----- ---- -------<br>--- --- -- ----- -- --- ---- -- --- ---- -- ------ ------<br>--- ----- -- ----,155520.79999995232,155519.5,155006.171,155014.09999990463,155022.81,155543.519,,7,and
screen,html.Screen,2_1_0_1_8,2022-02-02T12:18:52.805Z,,,,,,,,,,,,,,,,,53,,,,,,,,,,,,,,462.08099990463234,,response,,,,99,,,,,,,Space,keypress(Space),,,,,,,,---- -- ----- -- ------ - ------- --- fulfilling<br>------------- ------ ------ ---- ---- ------- ----- -- ----<br>-------- ------- -- ---------- --- - --- ----- ----- ----<br>---- --- --- ----- --- ---- ---- ------- ----- ---- -------<br>--- --- -- ----- -- --- ---- -- --- ---- -- ------ ------<br>--- ----- -- ----,156006.90000009537,156005.59999990463,155506.02,155521,155543.519,156022.345,,8,fulfilling
screen,html.Screen,2_1_0_1_9,2022-02-02T12:18:54.670Z,,,,,,,,,,,,,,,,,53,,,,,,,,,,,,,,1847.4549999523151,,response,,,,99,,,,,,,Space,keypress(Space),,,,,,,,"---- -- ----- -- ------ - ------- --- ----------<br>relationship, ------ ------ ---- ---- ------- ----- -- ----<br>-------- ------- -- ---------- --- - --- ----- ----- ----<br>---- --- --- ----- --- ---- ---- ------- ----- ---- -------<br>--- --- -- ----- -- --- ---- -- --- ---- -- ------ ------<br>--- ----- -- ----",157871.59999990463,157869.79999995232,156005.628,156007.20000004768,156022.345,157887.233,,9,"relationship,"
screen,html.Screen,2_1_0_1_10,2022-02-02T12:18:55.304Z,,,,,,,,,,,,,,,,,53,,,,,,,,,,,,,,616.9670000476763,,response,,,,99,,,,,,,Space,keypress(Space),,,,,,,,---- -- ----- -- ------ - ------- --- ----------<br>------------- common ------ ---- ---- ------- ----- -- ----<br>-------- ------- -- ---------- --- - --- ----- ----- ----<br>---- --- --- ----- --- ---- ---- ------- ----- ---- -------<br>--- --- -- ----- -- --- ---- -- --- ---- -- ------ ------<br>--- ----- -- ----,158505.29999995232,158504.20000004768,157870.726,157871.79999995232,157887.233,158520.023,,10,common
screen,html.Screen,2_1_0_1_11,2022-02-02T12:18:55.999Z,,,,,,,,,,,,,,,,,53,,,,,,,,,,,,,,679.3770000953809,,response,,,,99,,,,,,,Space,keypress(Space),,,,,,,,---- -- ----- -- ------ - ------- --- ----------<br>------------- ------ wisdom ---- ---- ------- ----- -- ----<br>-------- ------- -- ---------- --- - --- ----- ----- ----<br>---- --- --- ----- --- ---- ---- ------- ----- ---- -------<br>--- --- -- ----- -- --- ---- -- --- ---- -- ------ ------<br>--- ----- -- ----,159201,159199.40000009537,158503.456,158505.59999990463,158520.023,159225.466,,11,wisdom
screen,html.Screen,2_1_0_1_12,2022-02-02T12:18:56.884Z,,,,,,,,,,,,,,,,,53,,,,,,,,,,,,,,858.6339999046468,,response,,,,99,,,,,,,Space,keypress(Space),,,,,,,,---- -- ----- -- ------ - ------- --- ----------<br>------------- ------ ------ says ---- ------- ----- -- ----<br>-------- ------- -- ---------- --- - --- ----- ----- ----<br>---- --- --- ----- --- ---- ---- ------- ----- ---- -------<br>--- --- -- ----- -- --- ---- -- --- ---- -- ------ ------<br>--- ----- -- ----,160085.40000009537,160084.09999990463,159186.33,159201.29999995232,159225.466,160102.318,,12,says
screen,html.Screen,2_1_0_1_13,2022-02-02T12:18:57.583Z,,,,,,,,,,,,,,,,,53,,,,,,,,,,,,,,681.0820000953681,,response,,,,99,,,,,,,Space,keypress(Space),,,,,,,,---- -- ----- -- ------ - ------- --- ----------<br>------------- ------ ------ ---- that ------- ----- -- ----<br>-------- ------- -- ---------- --- - --- ----- ----- ----<br>---- --- --- ----- --- ---- ---- ------- ----- ---- -------<br>--- --- -- ----- -- --- ---- -- --- ---- -- ------ ------<br>--- ----- -- ----,160784.79999995232,160783.40000009537,160085.556,160085.70000004768,160102.318,160801.695,,13,that
screen,html.Screen,2_1_0_1_14,2022-02-02T12:18:58.207Z,,,,,,,,,,,,,,,,,53,,,,,,,,,,,,,,605.304999999993,,response,,,,99,,,,,,,Space,keypress(Space),,,,,,,,---- -- ----- -- ------ - ------- --- ----------<br>------------- ------ ------ ---- ---- feeling ----- -- ----<br>-------- ------- -- ---------- --- - --- ----- ----- ----<br>---- --- --- ----- --- ---- ---- ------- ----- ---- -------<br>--- --- -- ----- -- --- ---- -- --- ---- -- ------ ------<br>--- ----- -- ----,161408.59999990463,161407,160784.755,160785.09999990463,160801.695,161417.865,,14,feeling
screen,html.Screen,2_1_0_1_15,2022-02-02T12:18:58.738Z,,,,,,,,,,,,,,,,,53,,,,,,,,,,,,,,520.335000047693,,response,,,,99,,,,,,,Space,keypress(Space),,,,,,,,---- -- ----- -- ------ - ------- --- ----------<br>------------- ------ ------ ---- ---- ------- close -- ----<br>-------- ------- -- ---------- --- - --- ----- ----- ----<br>---- --- --- ----- --- ---- ---- ------- ----- ---- -------<br>--- --- -- ----- -- --- ---- -- --- ---- -- ------ ------<br>--- ----- -- ----,161939.5,161938.20000004768,161401.008,161408.90000009537,161417.865,161950.513,,15,close
screen,html.Screen,2_1_0_1_16,2022-02-02T12:18:59.071Z,,,,,,,,,,,,,,,,,53,,,,,,,,,,,,,,320.5869999046263,,response,,,,99,,,,,,,Space,keypress(Space),,,,,,,,---- -- ----- -- ------ - ------- --- ----------<br>------------- ------ ------ ---- ---- ------- ----- to ----<br>-------- ------- -- ---------- --- - --- ----- ----- ----<br>---- --- --- ----- --- ---- ---- ------- ----- ---- -------<br>--- --- -- ----- -- --- ---- -- --- ---- -- ------ ------<br>--- ----- -- ----,162272.40000009537,162271.09999990463,161934.042,161939.79999995232,161950.513,162283.771,,16,to
screen,html.Screen,2_1_0_1_17,2022-02-02T12:18:59.493Z,,,,,,,,,,,,,,,,,53,,,,,,,,,,,,,,409.6290000953595,,response,,,,99,,,,,,,Space,keypress(Space),,,,,,,,---- -- ----- -- ------ - ------- --- ----------<br>------------- ------ ------ ---- ---- ------- ----- -- your<br>-------- ------- -- ---------- --- - --- ----- ----- ----<br>---- --- --- ----- --- ---- ---- ------- ----- ---- -------<br>--- --- -- ----- -- --- ---- -- --- ---- -- ------ ------<br>--- ----- -- ----,162694.59999990463,162693.40000009537,162267.159,162272.79999995232,162283.771,162699.849,,17,your
screen,html.Screen,2_1_0_1_18,2022-02-02T12:19:00.124Z,,,,,,,,,,,,,,,,,53,,,,,,,,,,,,,,625.1510000000126,,response,,,,99,,,,,,,Space,keypress(Space),,,,,,,,---- -- ----- -- ------ - ------- --- ----------<br>------------- ------ ------ ---- ---- ------- ----- -- ----<br>romantic ------- -- ---------- --- - --- ----- ----- ----<br>---- --- --- ----- --- ---- ---- ------- ----- ---- -------<br>--- --- -- ----- -- --- ---- -- --- ---- -- ------ ------<br>--- ----- -- ----,163325.79999995232,163325,162683.472,162694.79999995232,162699.849,163332.647,,18,romantic
screen,html.Screen,2_1_0_1_19,2022-02-02T12:19:00.761Z,,,,,,,,,,,,,,,,,53,,,,,,,,,,,,,,624.2530000953702,,response,,,,99,,,,,,,Space,keypress(Space),,,,,,,,---- -- ----- -- ------ - ------- --- ----------<br>------------- ------ ------ ---- ---- ------- ----- -- ----<br>-------- partner -- ---------- --- - --- ----- ----- ----<br>---- --- --- ----- --- ---- ---- ------- ----- ---- -------<br>--- --- -- ----- -- --- ---- -- --- ---- -- ------ ------<br>--- ----- -- ----,163962.40000009537,163956.90000009537,163316.262,163326,163332.647,163965.52,,19,partner
screen,html.Screen,2_1_0_1_20,2022-02-02T12:19:01.315Z,,,,,,,,,,,,,,,,,53,,,,,,,,,,,,,,549.6800000476942,,response,,,,99,,,,,,,Space,keypress(Space),,,,,,,,---- -- ----- -- ------ - ------- --- ----------<br>------------- ------ ------ ---- ---- ------- ----- -- ----<br>-------- ------- is ---------- --- - --- ----- ----- ----<br>---- --- --- ----- --- ---- ---- ------- ----- ---- -------<br>--- --- -- ----- -- --- ---- -- --- ---- -- ------ ------<br>--- ----- -- ----,164516.40000009537,164515.20000004768,163949.033,163962.79999995232,163965.52,164531.659,,20,is
screen,html.Screen,2_1_0_1_21,2022-02-02T12:19:01.822Z,,,,,,,,,,,,,,,,,53,,,,,,,,,,,,,,489.6409999523021,,response,,,,99,,,,,,,Space,keypress(Space),,,,,,,,---- -- ----- -- ------ - ------- --- ----------<br>------------- ------ ------ ---- ---- ------- ----- -- ----<br>-------- ------- -- paramount. --- - --- ----- ----- ----<br>---- --- --- ----- --- ---- ---- ------- ----- ---- -------<br>--- --- -- ----- -- --- ---- -- --- ---- -- ------ ------<br>--- ----- -- ----,165023.09999990463,165021.29999995232,164515.299,164516.79999995232,164531.659,165031.226,,21,paramount.
screen,html.Screen,2_1_0_1_22,2022-02-02T12:19:02.400Z,,,,,,,,,,,,,,,,,53,,,,,,,,,,,,,,568.4740000476886,,response,,,,99,,,,,,,Space,keypress(Space),,,,,,,,---- -- ----- -- ------ - ------- --- ----------<br>------------- ------ ------ ---- ---- ------- ----- -- ----<br>-------- ------- -- ---------- But - --- ----- ----- ----<br>---- --- --- ----- --- ---- ---- ------- ----- ---- -------<br>--- --- -- ----- -- --- ---- -- --- ---- -- ------ ------<br>--- ----- -- ----,165601.5,165599.70000004768,165014.723,165023.40000009537,165031.226,165614.235,,22,But
screen,html.Screen,2_1_0_1_23,2022-02-02T12:19:02.979Z,,,,,,,,,,,,,,,,,53,,,,,,,,,,,,,,564.9650000476977,,response,,,,99,,,,,,,Space,keypress(Space),,,,,,,,---- -- ----- -- ------ - ------- --- ----------<br>------------- ------ ------ ---- ---- ------- ----- -- ----<br>-------- ------- -- ---------- --- a --- ----- ----- ----<br>---- --- --- ----- --- ---- ---- ------- ----- ---- -------<br>--- --- -- ----- -- --- ---- -- --- ---- -- ------ ------<br>--- ----- -- ----,166180.40000009537,166179.20000004768,165597.718,165601.90000009537,165614.235,166197.279,,23,a
screen,html.Screen,2_1_0_1_24,2022-02-02T12:19:03.414Z,,,,,,,,,,,,,,,,,53,,,,,,,,,,,,,,416.52099995230674,,response,,,,99,,,,,,,Space,keypress(Space),,,,,,,,---- -- ----- -- ------ - ------- --- ----------<br>------------- ------ ------ ---- ---- ------- ----- -- ----<br>-------- ------- -- ---------- --- - new ----- ----- ----<br>---- --- --- ----- --- ---- ---- ------- ----- ---- -------<br>--- --- -- ----- -- --- ---- -- --- ---- -- ------ ------<br>--- ----- -- ----,166615.09999990463,166613.79999995232,166180.541,166180.70000004768,166197.279,166630.259,,24,new
screen,html.Screen,2_1_0_1_25,2022-02-02T12:19:03.738Z,,,,,,,,,,,,,,,,,53,,,,,,,,,,,,,,308.2410000000091,,response,,,,99,,,,,,,Space,keypress(Space),,,,,,,,---- -- ----- -- ------ - ------- --- ----------<br>------------- ------ ------ ---- ---- ------- ----- -- ----<br>-------- ------- -- ---------- --- - --- study ----- ----<br>---- --- --- ----- --- ---- ---- ------- ----- ---- -------<br>--- --- -- ----- -- --- ---- -- --- ---- -- ------ ------<br>--- ----- -- ----,166939.70000004768,166938.5,166613.634,166615.40000009537,166630.259,166946.409,,25,study
screen,html.Screen,2_1_0_1_26,2022-02-02T12:19:04.116Z,,,,,,,,,,,,,,,,,53,,,,,,,,,,,,,,369.5909999999858,,response,,,,99,,,,,,,Space,keypress(Space),,,,,,,,---- -- ----- -- ------ - ------- --- ----------<br>------------- ------ ------ ---- ---- ------- ----- -- ----<br>-------- ------- -- ---------- --- - --- ----- finds ----<br>---- --- --- ----- --- ---- ---- ------- ----- ---- -------<br>--- --- -- ----- -- --- ---- -- --- ---- -- ------ ------<br>--- ----- -- ----,167317.20000004768,167316,166930.028,166940,166946.409,167329.513,,26,finds
screen,html.Screen,2_1_0_1_27,2022-02-02T12:19:04.757Z,,,,,,,,,,,,,,,,,53,,,,,,,,,,,,,,627.4869999999937,,response,,,,99,,,,,,,Space,keypress(Space),,,,,,,,---- -- ----- -- ------ - ------- --- ----------<br>------------- ------ ------ ---- ---- ------- ----- -- ----<br>-------- ------- -- ---------- --- - --- ----- ----- that<br>---- --- --- ----- --- ---- ---- ------- ----- ---- -------<br>--- --- -- ----- -- --- ---- -- --- ---- -- ------ ------<br>--- ----- -- ----,167958.40000009537,167957,167312.979,167317.59999990463,167329.513,167962.247,,27,that
screen,html.Screen,2_1_0_1_28,2022-02-02T12:19:05.333Z,,,,,,,,,,,,,,,,,53,,,,,,,,,,,,,,570.5529999523133,,response,,,,99,,,,,,,Space,keypress(Space),,,,,,,,---- -- ----- -- ------ - ------- --- ----------<br>------------- ------ ------ ---- ---- ------- ----- -- ----<br>-------- ------- -- ---------- --- - --- ----- ----- ----<br>it's --- --- ----- --- ---- ---- ------- ----- ---- -------<br>--- --- -- ----- -- --- ---- -- --- ---- -- ------ ------<br>--- ----- -- ----,168534.20000004768,168532.79999995232,167945.781,167958.59999990463,167962.247,168545.049,,28,it's
screen,html.Screen,2_1_0_1_29,2022-02-02T12:19:05.826Z,,,,,,,,,,,,,,,,,53,,,,,,,,,,,,,,481.15100004768465,,response,,,,99,,,,,,,Space,keypress(Space),,,,,,,,---- -- ----- -- ------ - ------- --- ----------<br>------------- ------ ------ ---- ---- ------- ----- -- ----<br>-------- ------- -- ---------- --- - --- ----- ----- ----<br>---- not --- ----- --- ---- ---- ------- ----- ---- -------<br>--- --- -- ----- -- --- ---- -- --- ---- -- ------ ------<br>--- ----- -- ----,169027.59999990463,169026.20000004768,168528.66,168534.5,168545.049,169044.775,,29,not
screen,html.Screen,2_1_0_1_30,2022-02-02T12:19:06.257Z,,,,,,,,,,,,,,,,,53,,,,,,,,,,,,,,412.3249999046384,,response,,,,99,,,,,,,Space,keypress(Space),,,,,,,,---- -- ----- -- ------ - ------- --- ----------<br>------------- ------ ------ ---- ---- ------- ----- -- ----<br>-------- ------- -- ---------- --- - --- ----- ----- ----<br>---- --- how ----- --- ---- ---- ------- ----- ---- -------<br>--- --- -- ----- -- --- ---- -- --- ---- -- ------ ------<br>--- ----- -- ----,169458.20000004768,169457.09999990463,169028.236,169027.79999995232,169044.775,169461.012,,30,how
screen,html.Screen,2_1_0_1_31,2022-02-02T12:19:06.796Z,,,,,,,,,,,,,,,,,53,,,,,,,,,,,,,,535.2879999523284,,response,,,,99,,,,,,,Space,keypress(Space),,,,,,,,---- -- ----- -- ------ - ------- --- ----------<br>------------- ------ ------ ---- ---- ------- ----- -- ----<br>-------- ------- -- ---------- --- - --- ----- ----- ----<br>---- --- --- close --- ---- ---- ------- ----- ---- -------<br>--- --- -- ----- -- --- ---- -- --- ---- -- ------ ------<br>--- ----- -- ----,169997.59999990463,169996.29999995232,169444.562,169458.5,169461.012,170010.549,,31,close
screen,html.Screen,2_1_0_1_32,2022-02-02T12:19:07.205Z,,,,,,,,,,,,,,,,,53,,,,,,,,,,,,,,394.35100009536836,,response,,,,99,,,,,,,Space,keypress(Space),,,,,,,,---- -- ----- -- ------ - ------- --- ----------<br>------------- ------ ------ ---- ---- ------- ----- -- ----<br>-------- ------- -- ---------- --- - --- ----- ----- ----<br>---- --- --- ----- you ---- ---- ------- ----- ---- -------<br>--- --- -- ----- -- --- ---- -- --- ---- -- ------ ------<br>--- ----- -- ----,170406.09999990463,170404.90000009537,169994.135,169997.79999995232,170010.549,170410.234,,32,you
screen,html.Screen,2_1_0_1_33,2022-02-02T12:19:07.695Z,,,,,,,,,,,,,,,,,53,,,,,,,,,,,,,,485.56599995231954,,response,,,,99,,,,,,,Space,keypress(Space),,,,,,,,---- -- ----- -- ------ - ------- --- ----------<br>------------- ------ ------ ---- ---- ------- ----- -- ----<br>-------- ------- -- ---------- --- - --- ----- ----- ----<br>---- --- --- ----- --- feel ---- ------- ----- ---- -------<br>--- --- -- ----- -- --- ---- -- --- ---- -- ------ ------<br>--- ----- -- ----,170897,170895.79999995232,170393.802,170406.29999995232,170410.234,170910.057,,33,feel
screen,html.Screen,2_1_0_1_34,2022-02-02T12:19:08.153Z,,,,,,,,,,,,,,,,,53,,,,,,,,,,,,,,443.4429999999993,,response,,,,99,,,,,,,Space,keypress(Space),,,,,,,,---- -- ----- -- ------ - ------- --- ----------<br>------------- ------ ------ ---- ---- ------- ----- -- ----<br>-------- ------- -- ---------- --- - --- ----- ----- ----<br>---- --- --- ----- --- ---- that ------- ----- ---- -------<br>--- --- -- ----- -- --- ---- -- --- ---- -- ------ ------<br>--- ----- -- ----,171354.70000004768,171353.5,170893.386,170897.20000004768,170910.057,171359.441,,34,that
screen,html.Screen,2_1_0_1_35,2022-02-02T12:19:08.554Z,,,,,,,,,,,,,,,,,53,,,,,,,,,,,,,,394.0590000000084,,response,,,,99,,,,,,,Space,keypress(Space),,,,,,,,---- -- ----- -- ------ - ------- --- ----------<br>------------- ------ ------ ---- ---- ------- ----- -- ----<br>-------- ------- -- ---------- --- - --- ----- ----- ----<br>---- --- --- ----- --- ---- ---- matters ----- ---- -------<br>--- --- -- ----- -- --- ---- -- --- ---- -- ------ ------<br>--- ----- -- ----,171755.09999990463,171753.5,171342.979,171355,171359.441,171759.036,,35,matters
screen,html.Screen,2_1_0_1_36,2022-02-02T12:19:08.942Z,,,,,,,,,,,,,,,,,53,,,,,,,,,,,,,,378.4640000000072,,response,,,,99,,,,,,,Space,keypress(Space),,,,,,,,"---- -- ----- -- ------ - ------- --- ----------<br>------------- ------ ------ ---- ---- ------- ----- -- ----<br>-------- ------- -- ---------- --- - --- ----- ----- ----<br>---- --- --- ----- --- ---- ---- ------- most, ---- -------<br>--- --- -- ----- -- --- ---- -- --- ---- -- ------ ------<br>--- ----- -- ----",172143.20000004768,172137.5,171742.623,171755.70000004768,171759.036,172158.87,,36,"most,"
screen,html.Screen,2_1_0_1_37,2022-02-02T12:19:09.342Z,,,,,,,,,,,,,,,,,53,,,,,,,,,,,,,,382.92999995232094,,response,,,,99,,,,,,,Space,keypress(Space),,,,,,,,---- -- ----- -- ------ - ------- --- ----------<br>------------- ------ ------ ---- ---- ------- ----- -- ----<br>-------- ------- -- ---------- --- - --- ----- ----- ----<br>---- --- --- ----- --- ---- ---- ------- ----- it's -------<br>--- --- -- ----- -- --- ---- -- --- ---- -- ------ ------<br>--- ----- -- ----,172543.40000009537,172541.79999995232,172142.333,172143.59999990463,172158.87,172558.692,,37,it's
screen,html.Screen,2_1_0_1_38,2022-02-02T12:19:09.732Z,,,,,,,,,,,,,,,,,53,,,,,,,,,,,,,,373.90799990462256,,response,,,,99,,,,,,,Space,keypress(Space),,,,,,,,---- -- ----- -- ------ - ------- --- ----------<br>------------- ------ ------ ---- ---- ------- ----- -- ----<br>-------- ------- -- ---------- --- - --- ----- ----- ----<br>---- --- --- ----- --- ---- ---- ------- ----- ---- whether<br>--- --- -- ----- -- --- ---- -- --- ---- -- ------ ------<br>--- ----- -- ----,172934,172932.59999990463,172542.021,172543.70000004768,172558.692,172941.582,,38,whether
screen,html.Screen,2_1_0_1_39,2022-02-02T12:19:10.130Z,,,,,,,,,,,,,,,,,53,,,,,,,,,,,,,,389.11800004768884,,response,,,,99,,,,,,,Space,keypress(Space),,,,,,,,---- -- ----- -- ------ - ------- --- ----------<br>------------- ------ ------ ---- ---- ------- ----- -- ----<br>-------- ------- -- ---------- --- - --- ----- ----- ----<br>---- --- --- ----- --- ---- ---- ------- ----- ---- -------<br>you --- -- ----- -- --- ---- -- --- ---- -- ------ ------<br>--- ----- -- ----,173331.40000009537,173330.70000004768,172924.877,172934.20000004768,172941.582,173341.347,,39,you
screen,html.Screen,2_1_0_1_40,2022-02-02T12:19:10.438Z,,,,,,,,,,,,,,,,,53,,,,,,,,,,,,,,296.85300004767487,,response,,,,99,,,,,,,Space,keypress(Space),,,,,,,,---- -- ----- -- ------ - ------- --- ----------<br>------------- ------ ------ ---- ---- ------- ----- -- ----<br>-------- ------- -- ---------- --- - --- ----- ----- ----<br>---- --- --- ----- --- ---- ---- ------- ----- ---- -------<br>--- are -- ----- -- --- ---- -- --- ---- -- ------ ------<br>--- ----- -- ----,173639.59999990463,173638.20000004768,173324.612,173331.5,173341.347,173660.148,,40,are
screen,html.Screen,2_1_0_1_41,2022-02-02T12:19:10.859Z,,,,,,,,,,,,,,,,,53,,,,,,,,,,,,,,399.4519999046461,,response,,,,99,,,,,,,Space,keypress(Space),,,,,,,,---- -- ----- -- ------ - ------- --- ----------<br>------------- ------ ------ ---- ---- ------- ----- -- ----<br>-------- ------- -- ---------- --- - --- ----- ----- ----<br>---- --- --- ----- --- ---- ---- ------- ----- ---- -------<br>--- --- as ----- -- --- ---- -- --- ---- -- ------ ------<br>--- ----- -- ----,174060.79999995232,174059.59999990463,173624.226,173639.90000009537,173660.148,174074.099,,41,as
screen,html.Screen,2_1_0_1_42,2022-02-02T12:19:11.148Z,,,,,,,,,,,,,,,,,53,,,,,,,,,,,,,,274.6010000476963,,response,,,,99,,,,,,,Space,keypress(Space),,,,,,,,---- -- ----- -- ------ - ------- --- ----------<br>------------- ------ ------ ---- ---- ------- ----- -- ----<br>-------- ------- -- ---------- --- - --- ----- ----- ----<br>---- --- --- ----- --- ---- ---- ------- ----- ---- -------<br>--- --- -- close -- --- ---- -- --- ---- -- ------ ------<br>--- ----- -- ----,174349.29999995232,174348.70000004768,174057.469,174061,174074.099,174357.006,,42,close
screen,html.Screen,2_1_0_1_43,2022-02-02T12:19:11.443Z,,,,,,,,,,,,,,,,,53,,,,,,,,,,,,,,286.5939999046386,,response,,,,99,,,,,,,Space,keypress(Space),,,,,,,,---- -- ----- -- ------ - ------- --- ----------<br>------------- ------ ------ ---- ---- ------- ----- -- ----<br>-------- ------- -- ---------- --- - --- ----- ----- ----<br>---- --- --- ----- --- ---- ---- ------- ----- ---- -------<br>--- --- -- ----- as --- ---- -- --- ---- -- ------ ------<br>--- ----- -- ----,174644.79999995232,174643.59999990463,174340.631,174349.40000009537,174357.006,174657.052,,43,as
screen,html.Screen,2_1_0_1_44,2022-02-02T12:19:11.868Z,,,,,,,,,,,,,,,,,53,,,,,,,,,,,,,,411.8480000953714,,response,,,,99,,,,,,,Space,keypress(Space),,,,,,,,---- -- ----- -- ------ - ------- --- ----------<br>------------- ------ ------ ---- ---- ------- ----- -- ----<br>-------- ------- -- ---------- --- - --- ----- ----- ----<br>---- --- --- ----- --- ---- ---- ------- ----- ---- -------<br>--- --- -- ----- -- you ---- -- --- ---- -- ------ ------<br>--- ----- -- ----,175069.59999990463,175068.90000009537,174640.319,174645,174657.052,175073,,44,you
screen,html.Screen,2_1_0_1_45,2022-02-02T12:19:12.257Z,,,,,,,,,,,,,,,,,53,,,,,,,,,,,,,,383.90000009536743,,response,,,,99,,,,,,,Space,keypress(Space),,,,,,,,---- -- ----- -- ------ - ------- --- ----------<br>------------- ------ ------ ---- ---- ------- ----- -- ----<br>-------- ------- -- ---------- --- - --- ----- ----- ----<br>---- --- --- ----- --- ---- ---- ------- ----- ---- -------<br>--- --- -- ----- -- --- want -- --- ---- -- ------ ------<br>--- ----- -- ----,175458.20000004768,175456.90000009537,175056.655,175069.70000004768,175073,175473.056,,45,want
screen,html.Screen,2_1_0_1_46,2022-02-02T12:19:12.802Z,,,,,,,,,,,,,,,,,53,,,,,,,,,,,,,,529.4439999999886,,response,,,,99,,,,,,,Space,keypress(Space),,,,,,,,---- -- ----- -- ------ - ------- --- ----------<br>------------- ------ ------ ---- ---- ------- ----- -- ----<br>-------- ------- -- ---------- --- - --- ----- ----- ----<br>---- --- --- ----- --- ---- ---- ------- ----- ---- -------<br>--- --- -- ----- -- --- ---- to --- ---- -- ------ ------<br>--- ----- -- ----,176003.70000004768,176002.5,175456.127,175458.5,175473.056,176027.817,,46,to
screen,html.Screen,2_1_0_1_47,2022-02-02T12:19:13.217Z,,,,,,,,,,,,,,,,,53,,,,,,,,,,,,,,389.5830000953574,,response,,,,99,,,,,,,Space,keypress(Space),,,,,,,,"---- -- ----- -- ------ - ------- --- ----------<br>------------- ------ ------ ---- ---- ------- ----- -- ----<br>-------- ------- -- ---------- --- - --- ----- ----- ----<br>---- --- --- ----- --- ---- ---- ------- ----- ---- -------<br>--- --- -- ----- -- --- ---- -- be, ---- -- ------ ------<br>--- ----- -- ----",176418.79999995232,176417.40000009537,175989.271,176004,176027.817,176421.992,,47,"be,"
screen,html.Screen,2_1_0_1_48,2022-02-02T12:19:13.597Z,,,,,,,,,,,,,,,,,53,,,,,,,,,,,,,,375.1079999046342,,response,,,,99,,,,,,,Space,keypress(Space),,,,,,,,---- -- ----- -- ------ - ------- --- ----------<br>------------- ------ ------ ---- ---- ------- ----- -- ----<br>-------- ------- -- ---------- --- - --- ----- ----- ----<br>---- --- --- ----- --- ---- ---- ------- ----- ---- -------<br>--- --- -- ----- -- --- ---- -- --- even -- ------ ------<br>--- ----- -- ----,176798.29999995232,176797.09999990463,176405.556,176419,176421.992,176804.976,,48,even
screen,html.Screen,2_1_0_1_49,2022-02-02T12:19:13.980Z,,,,,,,,,,,,,,,,,53,,,,,,,,,,,,,,376.2240000476886,,response,,,,99,,,,,,,Space,keypress(Space),,,,,,,,---- -- ----- -- ------ - ------- --- ----------<br>------------- ------ ------ ---- ---- ------- ----- -- ----<br>-------- ------- -- ---------- --- - --- ----- ----- ----<br>---- --- --- ----- --- ---- ---- ------- ----- ---- -------<br>--- --- -- ----- -- --- ---- -- --- ---- if ------ ------<br>--- ----- -- ----,177181.90000009537,177181.20000004768,176788.527,176798.59999990463,176804.976,177188.045,,49,if
screen,html.Screen,2_1_0_1_50,2022-02-02T12:19:14.395Z,,,,,,,,,,,,,,,,,53,,,,,,,,,,,,,,407.2549999523035,,response,,,,99,,,,,,,Space,keypress(Space),,,,,,,,---- -- ----- -- ------ - ------- --- ----------<br>------------- ------ ------ ---- ---- ------- ----- -- ----<br>-------- ------- -- ---------- --- - --- ----- ----- ----<br>---- --- --- ----- --- ---- ---- ------- ----- ---- -------<br>--- --- -- ----- -- --- ---- -- --- ---- -- that's ------<br>--- ----- -- ----,177596.5,177595.29999995232,177171.58,177182,177188.045,177604.3,,50,that's
screen,html.Screen,2_1_0_1_51,2022-02-02T12:19:14.916Z,,,,,,,,,,,,,,,,,53,,,,,,,,,,,,,,511.90000004769536,,response,,,,99,,,,,,,Space,keypress(Space),,,,,,,,---- -- ----- -- ------ - ------- --- ----------<br>------------- ------ ------ ---- ---- ------- ----- -- ----<br>-------- ------- -- ---------- --- - --- ----- ----- ----<br>---- --- --- ----- --- ---- ---- ------- ----- ---- -------<br>--- --- -- ----- -- --- ---- -- --- ---- -- ------ really<br>--- ----- -- ----,178117.5,178116.20000004768,177587.887,177596.79999995232,177604.3,178120.549,,51,really
screen,html.Screen,2_1_0_1_52,2022-02-02T12:19:15.259Z,,,,,,,,,,,,,,,,,53,,,,,,,,,,,,,,338.45100000000093,,response,,,,99,,,,,,,Space,keypress(Space),,,,,,,,---- -- ----- -- ------ - ------- --- ----------<br>------------- ------ ------ ---- ---- ------- ----- -- ----<br>-------- ------- -- ---------- --- - --- ----- ----- ----<br>---- --- --- ----- --- ---- ---- ------- ----- ---- -------<br>--- --- -- ----- -- --- ---- -- --- ---- -- ------ ------<br>not ----- -- ----,178460,178459,178104.132,178117.70000004768,178120.549,178470.476,,52,not
screen,html.Screen,2_1_0_1_53,2022-02-02T12:19:15.718Z,,,,,,,,,,,,,,,,,53,,,,,,,,,,,,,,448.12399990463746,,response,,,,99,,,,,,,Space,keypress(Space),,,,,,,,---- -- ----- -- ------ - ------- --- ----------<br>------------- ------ ------ ---- ---- ------- ----- -- ----<br>-------- ------- -- ---------- --- - --- ----- ----- ----<br>---- --- --- ----- --- ---- ---- ------- ----- ---- -------<br>--- --- -- ----- -- --- ---- -- --- ---- -- ------ ------<br>--- close -- ----,178920,178918.59999990463,178453.83,178460.29999995232,178470.476,178936.6,,53,close
screen,html.Screen,2_1_0_1_54,2022-02-02T12:19:16.267Z,,,,,,,,,,,,,,,,,53,,,,,,,,,,,,,,530.8000000953616,,response,,,,99,,,,,,,Space,keypress(Space),,,,,,,,---- -- ----- -- ------ - ------- --- ----------<br>------------- ------ ------ ---- ---- ------- ----- -- ----<br>-------- ------- -- ---------- --- - --- ----- ----- ----<br>---- --- --- ----- --- ---- ---- ------- ----- ---- -------<br>--- --- -- ----- -- --- ---- -- --- ---- -- ------ ------<br>--- ----- at ----,179468.70000004768,179467.40000009537,178919.816,178920.20000004768,178936.6,179486.153,,54,at
screen,html.Screen,2_1_0_1_55,2022-02-02T12:19:16.659Z,,,,,,,,,,,,,,,,,53,,,,,,,,,,,,,,372.84700000000885,,response,,,,99,,,,,,,Space,keypress(Space),,,,,,,,---- -- ----- -- ------ - ------- --- ----------<br>------------- ------ ------ ---- ---- ------- ----- -- ----<br>-------- ------- -- ---------- --- - --- ----- ----- ----<br>---- --- --- ----- --- ---- ---- ------- ----- ---- -------<br>--- --- -- ----- -- --- ---- -- --- ---- -- ------ ------<br>--- ----- -- all.,179860.59999990463,179859,179469.694,179469.09999990463,179486.153,179869.122,,55,all.
Item 99,flow.Loop,2_1_0_1,2022-02-02T12:19:16.660Z,,,,,,,,,,,,,,,,,,,,,,,,,,,,,,,30931.195999999996,,completion,,,,,A,,,,,,,,,,,silence,,,,,179861.40000009537,179859,148861.463,148863.40000009537,148927.804,179869.122,,,
Question 1,html.Screen,2_1_0_2,2022-02-02T12:19:20.327Z,,,,,,,,,,,,,,,,,,,,,,,,,,,,true,FALSE,,3659.877999999997,,response,,,,99,A,,,,,,FALSE,click #choice-2,,,,silence,,,,,183531,183529,179852.741,179861.79999995232,179869.122,183532.785,,,
Question 2,html.Screen,2_1_0_3,2022-02-02T12:19:23.833Z,,,,,,,,,,,,,,,,,,,,,,,,,,,,true,TRUE,,3501.514999952313,,response,,,,99,A,,,,,,TRUE,click #choice-1,,,,silence,,,,,187036.40000009537,187034.29999995232,183516.432,183531.40000009537,183532.785,187046.579,,,
Item 99,flow.Sequence,2_1_0,2022-02-02T12:19:23.833Z,,,,,,,,,,,,,,,,,,,,,,,,,,,,,,,48148.290999952325,,completion,,,,,,,,,,,,,,,,,,,,,187036.90000009537,187034.29999995232,138869.331,138887.09999990463,138886.009,187046.579,,,
Holding screen,html.Screen,2_1_1_0,2022-02-02T12:19:33.836Z,,,,,,,,,,,,,,,,,,,,,,,,,,,,,,,10008.45199999999,,timeout,,,,,,,,,,,,,,,,,,,,,197039.79999995232,197038.643,187030.15,187037.20000004768,187046.579,197055.031,,,
screen,html.Screen,2_1_1_1_0,2022-02-02T12:19:34.921Z,,,,,,,,,,,,,,,,,54,,,,,,,,,,,,,,1068.3690000953793,,response,,,,100,,,,,,,Space,keypress(Space),,,,,,,,At --- ---- --- ------ ----- ------- ---- -- --- ------- --<br>------- ---------- ------ -- ----- -- ----- -- ---- ------<br>--- ----- --- --- ------ -------- ----- --- ------ ----- --<br>----- ----- ---------- --- --- ------ ------ ---- -- ------<br>------- --- ------ ----- --- ---- ------- -- ---- --- --<br>------- ------,198125.09999990463,198123.40000009537,197038.643,197040.20000004768,197055.031,198137.453,,0,At
screen,html.Screen,2_1_1_1_1,2022-02-02T12:19:35.579Z,,,,,,,,,,,,,,,,,54,,,,,,,,,,,,,,643.7470000476751,,response,,,,100,,,,,,,Space,keypress(Space),,,,,,,,-- the ---- --- ------ ----- ------- ---- -- --- ------- --<br>------- ---------- ------ -- ----- -- ----- -- ---- ------<br>--- ----- --- --- ------ -------- ----- --- ------ ----- --<br>----- ----- ---------- --- --- ------ ------ ---- -- ------<br>------- --- ------ ----- --- ---- ------- -- ---- --- --<br>------- ------,198782.70000004768,198781.20000004768,198121.021,198125.40000009537,198137.453,198786.893,,1,the
screen,html.Screen,2_1_1_1_2,2022-02-02T12:19:36.274Z,,,,,,,,,,,,,,,,,54,,,,,,,,,,,,,,690.0070000953565,,response,,,,100,,,,,,,Space,keypress(Space),,,,,,,,-- --- time --- ------ ----- ------- ---- -- --- ------- --<br>------- ---------- ------ -- ----- -- ----- -- ---- ------<br>--- ----- --- --- ------ -------- ----- --- ------ ----- --<br>----- ----- ---------- --- --- ------ ------ ---- -- ------<br>------- --- ------ ----- --- ---- ------- -- ---- --- --<br>------- ------,199478.20000004768,199476.90000009537,198770.505,198783.09999990463,198786.893,199486.381,,2,time
screen,html.Screen,2_1_1_1_3,2022-02-02T12:19:36.743Z,,,,,,,,,,,,,,,,,54,,,,,,,,,,,,,,458.81900004768977,,response,,,,100,,,,,,,Space,keypress(Space),,,,,,,,-- --- ---- the ------ ----- ------- ---- -- --- ------- --<br>------- ---------- ------ -- ----- -- ----- -- ---- ------<br>--- ----- --- --- ------ -------- ----- --- ------ ----- --<br>----- ----- ---------- --- --- ------ ------ ---- -- ------<br>------- --- ------ ----- --- ---- ------- -- ---- --- --<br>------- ------,199946.5,199945.20000004768,199469.564,199478.40000009537,199486.381,199952.621,,3,the
screen,html.Screen,2_1_1_1_4,2022-02-02T12:19:37.118Z,,,,,,,,,,,,,,,,,54,,,,,,,,,,,,,,367.87899999998626,,response,,,,100,,,,,,,Space,keypress(Space),,,,,,,,-- --- ---- --- French ----- ------- ---- -- --- ------- --<br>------- ---------- ------ -- ----- -- ----- -- ---- ------<br>--- ----- --- --- ------ -------- ----- --- ------ ----- --<br>----- ----- ---------- --- --- ------ ------ ---- -- ------<br>------- --- ------ ----- --- ---- ------- -- ---- --- --<br>------- ------,200321.59999990463,200320.5,199936.234,199946.70000004768,199952.621,200335.959,,4,French
screen,html.Screen,2_1_1_1_5,2022-02-02T12:19:37.547Z,,,,,,,,,,,,,,,,,54,,,,,,,,,,,,,,413.74100004768115,,response,,,,100,,,,,,,Space,keypress(Space),,,,,,,,-- --- ---- --- ------ crown ------- ---- -- --- ------- --<br>------- ---------- ------ -- ----- -- ----- -- ---- ------<br>--- ----- --- --- ------ -------- ----- --- ------ ----- --<br>----- ----- ---------- --- --- ------ ------ ---- -- ------<br>------- --- ------ ----- --- ---- ------- -- ---- --- --<br>------- ------,200751,200749.70000004768,200319.276,200321.90000009537,200335.959,200785.506,,5,crown
screen,html.Screen,2_1_1_1_6,2022-02-02T12:19:38.029Z,,,,,,,,,,,,,,,,,54,,,,,,,,,,,,,,446.79399995232234,,response,,,,100,,,,,,,Space,keypress(Space),,,,,,,,-- --- ---- --- ------ ----- secured ---- -- --- ------- --<br>------- ---------- ------ -- ----- -- ----- -- ---- ------<br>--- ----- --- --- ------ -------- ----- --- ------ ----- --<br>----- ----- ---------- --- --- ------ ------ ---- -- ------<br>------- --- ------ ----- --- ---- ------- -- ---- --- --<br>------- ------,201233.29999995232,201232.29999995232,200768.834,200751.29999995232,200785.506,201253.502,,6,secured
screen,html.Screen,2_1_1_1_7,2022-02-02T12:19:38.350Z,,,,,,,,,,,,,,,,,54,,,,,,,,,,,,,,299.2979999523086,,response,,,,100,,,,,,,Space,keypress(Space),,,,,,,,-- --- ---- --- ------ ----- ------- much -- --- ------- --<br>------- ---------- ------ -- ----- -- ----- -- ---- ------<br>--- ----- --- --- ------ -------- ----- --- ------ ----- --<br>----- ----- ---------- --- --- ------ ------ ---- -- ------<br>------- --- ------ ----- --- ---- ------- -- ---- --- --<br>------- ------,201553.90000009537,201552.79999995232,201218.29,201233.59999990463,201253.502,201568.282,,7,much
screen,html.Screen,2_1_1_1_8,2022-02-02T12:19:38.736Z,,,,,,,,,,,,,,,,,54,,,,,,,,,,,,,,370.6180000953609,,response,,,,100,,,,,,,Space,keypress(Space),,,,,,,,-- --- ---- --- ------ ----- ------- ---- of --- ------- --<br>------- ---------- ------ -- ----- -- ----- -- ---- ------<br>--- ----- --- --- ------ -------- ----- --- ------ ----- --<br>----- ----- ---------- --- --- ------ ------ ---- -- ------<br>------- --- ------ ----- --- ---- ------- -- ---- --- --<br>------- ------,201940,201938.90000009537,201551.563,201554.20000004768,201568.282,201951.122,,8,of
screen,html.Screen,2_1_1_1_9,2022-02-02T12:19:39.112Z,,,,,,,,,,,,,,,,,54,,,,,,,,,,,,,,363.17799995231326,,response,,,,100,,,,,,,Space,keypress(Space),,,,,,,,-- --- ---- --- ------ ----- ------- ---- -- its ------- --<br>------- ---------- ------ -- ----- -- ----- -- ---- ------<br>--- ----- --- --- ------ -------- ----- --- ------ ----- --<br>----- ----- ---------- --- --- ------ ------ ---- -- ------<br>------- --- ------ ----- --- ---- ------- -- ---- --- --<br>------- ------,202315.79999995232,202314.29999995232,201934.557,201940.20000004768,201951.122,202337.851,,9,its
screen,html.Screen,2_1_1_1_10,2022-02-02T12:19:39.577Z,,,,,,,,,,,,,,,,,54,,,,,,,,,,,,,,441.8490000476886,,response,,,,100,,,,,,,Space,keypress(Space),,,,,,,,-- --- ---- --- ------ ----- ------- ---- -- --- revenue --<br>------- ---------- ------ -- ----- -- ----- -- ---- ------<br>--- ----- --- --- ------ -------- ----- --- ------ ----- --<br>----- ----- ---------- --- --- ------ ------ ---- -- ------<br>------- --- ------ ----- --- ---- ------- -- ---- --- --<br>------- ------,202781,202779.70000004768,202300.993,202316,202337.851,202783.67,,10,revenue
screen,html.Screen,2_1_1_1_11,2022-02-02T12:19:40.174Z,,,,,,,,,,,,,,,,,54,,,,,,,,,,,,,,592.6299999523035,,response,,,,100,,,,,,,Space,keypress(Space),,,,,,,,-- --- ---- --- ------ ----- ------- ---- -- --- ------- by<br>------- ---------- ------ -- ----- -- ----- -- ---- ------<br>--- ----- --- --- ------ -------- ----- --- ------ ----- --<br>----- ----- ---------- --- --- ------ ------ ---- -- ------<br>------- --- ------ ----- --- ---- ------- -- ---- --- --<br>------- ------,203377.5,203376.29999995232,202767.204,202781.29999995232,202783.67,203383.157,,11,by
screen,html.Screen,2_1_1_1_12,2022-02-02T12:19:41.054Z,,,,,,,,,,,,,,,,,54,,,,,,,,,,,,,,873.3429999999935,,response,,,,100,,,,,,,Space,keypress(Space),,,,,,,,-- --- ---- --- ------ ----- ------- ---- -- --- ------- --<br>issuing ---------- ------ -- ----- -- ----- -- ---- ------<br>--- ----- --- --- ------ -------- ----- --- ------ ----- --<br>----- ----- ---------- --- --- ------ ------ ---- -- ------<br>------- --- ------ ----- --- ---- ------- -- ---- --- --<br>------- ------,204257.5,204256.5,203366.794,203377.90000009537,203383.157,204265.731,,12,issuing
screen,html.Screen,2_1_1_1_13,2022-02-02T12:19:41.990Z,,,,,,,,,,,,,,,,,54,,,,,,,,,,,,,,926.6690000953677,,response,,,,100,,,,,,,Space,keypress(Space),,,,,,,,-- --- ---- --- ------ ----- ------- ---- -- --- ------- --<br>------- government ------ -- ----- -- ----- -- ---- ------<br>--- ----- --- --- ------ -------- ----- --- ------ ----- --<br>----- ----- ---------- --- --- ------ ------ ---- -- ------<br>------- --- ------ ----- --- ---- ------- -- ---- --- --<br>------- ------,205193.59999990463,205192.40000009537,204249.34,204257.70000004768,204265.731,205198.307,,13,government
screen,html.Screen,2_1_1_1_14,2022-02-02T12:19:43.260Z,,,,,,,,,,,,,,,,,54,,,,,,,,,,,,,,1264.893000047683,,response,,,,100,,,,,,,Space,keypress(Space),,,,,,,,-- --- ---- --- ------ ----- ------- ---- -- --- ------- --<br>------- ---------- bonds. -- ----- -- ----- -- ---- ------<br>--- ----- --- --- ------ -------- ----- --- ------ ----- --<br>----- ----- ---------- --- --- ------ ------ ---- -- ------<br>------- --- ------ ----- --- ---- ------- -- ---- --- --<br>------- ------,206464.29999995232,206463.20000004768,205181.864,205193.90000009537,205198.307,206480.863,,14,bonds.
screen,html.Screen,2_1_1_1_15,2022-02-02T12:19:43.691Z,,,,,,,,,,,,,,,,,54,,,,,,,,,,,,,,412.6369999999879,,response,,,,100,,,,,,,Space,keypress(Space),,,,,,,,-- --- ---- --- ------ ----- ------- ---- -- --- ------- --<br>------- ---------- ------ In ----- -- ----- -- ---- ------<br>--- ----- --- --- ------ -------- ----- --- ------ ----- --<br>----- ----- ---------- --- --- ------ ------ ---- -- ------<br>------- --- ------ ----- --- ---- ------- -- ---- --- --<br>------- ------,206894.79999995232,206893.5,206464.151,206464.59999990463,206480.863,206896.934,,15,In
screen,html.Screen,2_1_1_1_16,2022-02-02T12:19:44.169Z,,,,,,,,,,,,,,,,,54,,,,,,,,,,,,,,474.5659999999916,,response,,,,100,,,,,,,Space,keypress(Space),,,,,,,,"-- --- ---- --- ------ ----- ------- ---- -- --- ------- --<br>------- ---------- ------ -- 1727, -- ----- -- ---- ------<br>--- ----- --- --- ------ -------- ----- --- ------ ----- --<br>----- ----- ---------- --- --- ------ ------ ---- -- ------<br>------- --- ------ ----- --- ---- ------- -- ---- --- --<br>------- ------",207372.70000004768,207371.5,206880.523,206895,206896.934,207379.805,,16,"1727,"
screen,html.Screen,2_1_1_1_17,2022-02-02T12:19:45.161Z,,,,,,,,,,,,,,,,,54,,,,,,,,,,,,,,983.4949999523233,,response,,,,100,,,,,,,Space,keypress(Space),,,,,,,,-- --- ---- --- ------ ----- ------- ---- -- --- ------- --<br>------- ---------- ------ -- ----- in ----- -- ---- ------<br>--- ----- --- --- ------ -------- ----- --- ------ ----- --<br>----- ----- ---------- --- --- ------ ------ ---- -- ------<br>------- --- ------ ----- --- ---- ------- -- ---- --- --<br>------- ------,208364.70000004768,208363.29999995232,207363.463,207373,207379.805,208379.049,,17,in
screen,html.Screen,2_1_1_1_18,2022-02-02T12:19:45.651Z,,,,,,,,,,,,,,,,,54,,,,,,,,,,,,,,474.95100000000093,,response,,,,100,,,,,,,Space,keypress(Space),,,,,,,,-- --- ---- --- ------ ----- ------- ---- -- --- ------- --<br>------- ---------- ------ -- ----- -- order -- ---- ------<br>--- ----- --- --- ------ -------- ----- --- ------ ----- --<br>----- ----- ---------- --- --- ------ ------ ---- -- ------<br>------- --- ------ ----- --- ---- ------- -- ---- --- --<br>------- ------,208854.70000004768,208854,208362.578,208365,208379.049,208861.946,,18,order
screen,html.Screen,2_1_1_1_19,2022-02-02T12:19:46.216Z,,,,,,,,,,,,,,,,,54,,,,,,,,,,,,,,557.4540000953712,,response,,,,100,,,,,,,Space,keypress(Space),,,,,,,,-- --- ---- --- ------ ----- ------- ---- -- --- ------- --<br>------- ---------- ------ -- ----- -- ----- to ---- ------<br>--- ----- --- --- ------ -------- ----- --- ------ ----- --<br>----- ----- ---------- --- --- ------ ------ ---- -- ------<br>------- --- ------ ----- --- ---- ------- -- ---- --- --<br>------- ------,209420,209419.40000009537,208845.241,208854.79999995232,208861.946,209428.15,,19,to
screen,html.Screen,2_1_1_1_20,2022-02-02T12:19:46.773Z,,,,,,,,,,,,,,,,,54,,,,,,,,,,,,,,548.4499999046384,,response,,,,100,,,,,,,Space,keypress(Space),,,,,,,,-- --- ---- --- ------ ----- ------- ---- -- --- ------- --<br>------- ---------- ------ -- ----- -- ----- -- save ------<br>--- ----- --- --- ------ -------- ----- --- ------ ----- --<br>----- ----- ---------- --- --- ------ ------ ---- -- ------<br>------- --- ------ ----- --- ---- ------- -- ---- --- --<br>------- ------,209977.20000004768,209976.59999990463,209411.457,209420.09999990463,209428.15,210011.042,,20,save
screen,html.Screen,2_1_1_1_21,2022-02-02T12:19:47.294Z,,,,,,,,,,,,,,,,,54,,,,,,,,,,,,,,485.25799995232956,,response,,,,100,,,,,,,Space,keypress(Space),,,,,,,,"-- --- ---- --- ------ ----- ------- ---- -- --- ------- --<br>------- ---------- ------ -- ----- -- ----- -- ---- money,<br>--- ----- --- --- ------ -------- ----- --- ------ ----- --<br>----- ----- ---------- --- --- ------ ------ ---- -- ------<br>------- --- ------ ----- --- ---- ------- -- ---- --- --<br>------- ------",210498.20000004768,210496.29999995232,209994.336,209977.29999995232,210011.042,210510.761,,21,"money,"
screen,html.Screen,2_1_1_1_22,2022-02-02T12:19:47.829Z,,,,,,,,,,,,,,,,,54,,,,,,,,,,,,,,521.4390000476851,,response,,,,100,,,,,,,Space,keypress(Space),,,,,,,,-- --- ---- --- ------ ----- ------- ---- -- --- ------- --<br>------- ---------- ------ -- ----- -- ----- -- ---- ------<br>the ----- --- --- ------ -------- ----- --- ------ ----- --<br>----- ----- ---------- --- --- ------ ------ ---- -- ------<br>------- --- ------ ----- --- ---- ------- -- ---- --- --<br>------- ------,211032.70000004768,211032.20000004768,210493.863,210498.5,210510.761,211043.731,,22,the
screen,html.Screen,2_1_1_1_23,2022-02-02T12:19:48.307Z,,,,,,,,,,,,,,,,,54,,,,,,,,,,,,,,465.96900004768395,,response,,,,100,,,,,,,Space,keypress(Space),,,,,,,,-- --- ---- --- ------ ----- ------- ---- -- --- ------- --<br>------- ---------- ------ -- ----- -- ----- -- ---- ------<br>--- state --- --- ------ -------- ----- --- ------ ----- --<br>----- ----- ---------- --- --- ------ ------ ---- -- ------<br>------- --- ------ ----- --- ---- ------- -- ---- --- --<br>------- ------,211511,211509.70000004768,211027.043,211032.90000009537,211043.731,211526.784,,23,state
screen,html.Screen,2_1_1_1_24,2022-02-02T12:19:48.709Z,,,,,,,,,,,,,,,,,54,,,,,,,,,,,,,,385.31599990461837,,response,,,,100,,,,,,,Space,keypress(Space),,,,,,,,-- --- ---- --- ------ ----- ------- ---- -- --- ------- --<br>------- ---------- ------ -- ----- -- ----- -- ---- ------<br>--- ----- cut --- ------ -------- ----- --- ------ ----- --<br>----- ----- ---------- --- --- ------ ------ ---- -- ------<br>------- --- ------ ----- --- ---- ------- -- ---- --- --<br>------- ------,211913.40000009537,211912.09999990463,211510.032,211511.29999995232,211526.784,211926.424,,24,cut
screen,html.Screen,2_1_1_1_25,2022-02-02T12:19:49.088Z,,,,,,,,,,,,,,,,,54,,,,,,,,,,,,,,364.57600000000093,,response,,,,100,,,,,,,Space,keypress(Space),,,,,,,,-- --- ---- --- ------ ----- ------- ---- -- --- ------- --<br>------- ---------- ------ -- ----- -- ----- -- ---- ------<br>--- ----- --- the ------ -------- ----- --- ------ ----- --<br>----- ----- ---------- --- --- ------ ------ ---- -- ------<br>------- --- ------ ----- --- ---- ------- -- ---- --- --<br>------- ------,212292.29999995232,212291,211909.784,211913.70000004768,211926.424,212309.465,,25,the
screen,html.Screen,2_1_1_1_26,2022-02-02T12:19:49.478Z,,,,,,,,,,,,,,,,,54,,,,,,,,,,,,,,370.63499990463606,,response,,,,100,,,,,,,Space,keypress(Space),,,,,,,,-- --- ---- --- ------ ----- ------- ---- -- --- ------- --<br>------- ---------- ------ -- ----- -- ----- -- ---- ------<br>--- ----- --- --- bonds' -------- ----- --- ------ ----- --<br>----- ----- ---------- --- --- ------ ------ ---- -- ------<br>------- --- ------ ----- --- ---- ------- -- ---- --- --<br>------- ------,212681.5,212680.09999990463,212292.51,212292.59999990463,212309.465,212692.161,,26,bonds'
screen,html.Screen,2_1_1_1_27,2022-02-02T12:19:49.957Z,,,,,,,,,,,,,,,,,54,,,,,,,,,,,,,,467.4389999046398,,response,,,,100,,,,,,,Space,keypress(Space),,,,,,,,-- --- ---- --- ------ ----- ------- ---- -- --- ------- --<br>------- ---------- ------ -- ----- -- ----- -- ---- ------<br>--- ----- --- --- ------ interest ----- --- ------ ----- --<br>----- ----- ---------- --- --- ------ ------ ---- -- ------<br>------- --- ------ ----- --- ---- ------- -- ---- --- --<br>------- ------,213160.90000009537,213159.59999990463,212675.778,212688.79999995232,212692.161,213175.432,,27,interest
screen,html.Screen,2_1_1_1_28,2022-02-02T12:19:50.585Z,,,,,,,,,,,,,,,,,54,,,,,,,,,,,,,,611.4680000953667,,response,,,,100,,,,,,,Space,keypress(Space),,,,,,,,-- --- ---- --- ------ ----- ------- ---- -- --- ------- --<br>------- ---------- ------ -- ----- -- ----- -- ---- ------<br>--- ----- --- --- ------ -------- rate. --- ------ ----- --<br>----- ----- ---------- --- --- ------ ------ ---- -- ------<br>------- --- ------ ----- --- ---- ------- -- ---- --- --<br>------- ------,213788.40000009537,213786.90000009537,213158.759,213161.09999990463,213175.432,213791.302,,28,rate.
screen,html.Screen,2_1_1_1_29,2022-02-02T12:19:51.832Z,,,,,,,,,,,,,,,,,54,,,,,,,,,,,,,,1244.198000000004,,response,,,,100,,,,,,,Space,keypress(Space),,,,,,,,-- --- ---- --- ------ ----- ------- ---- -- --- ------- --<br>------- ---------- ------ -- ----- -- ----- -- ---- ------<br>--- ----- --- --- ------ -------- ----- The ------ ----- --<br>----- ----- ---------- --- --- ------ ------ ---- -- ------<br>------- --- ------ ----- --- ---- ------- -- ---- --- --<br>------- ------,215036.20000004768,215035.5,213774.905,213788.70000004768,213791.302,215040.162,,29,The
screen,html.Screen,2_1_1_1_30,2022-02-02T12:19:52.253Z,,,,,,,,,,,,,,,,,54,,,,,,,,,,,,,,416.03800004767254,,response,,,,100,,,,,,,Space,keypress(Space),,,,,,,,-- --- ---- --- ------ ----- ------- ---- -- --- ------- --<br>------- ---------- ------ -- ----- -- ----- -- ---- ------<br>--- ----- --- --- ------ -------- ----- --- market ----- --<br>----- ----- ---------- --- --- ------ ------ ---- -- ------<br>------- --- ------ ----- --- ---- ------- -- ---- --- --<br>------- ------,215456.90000009537,215456.20000004768,215023.833,215036.20000004768,215040.162,215473.233,,30,market
screen,html.Screen,2_1_1_1_31,2022-02-02T12:19:52.772Z,,,,,,,,,,,,,,,,,54,,,,,,,,,,,,,,501.96700004767627,,response,,,,100,,,,,,,Space,keypress(Space),,,,,,,,-- --- ---- --- ------ ----- ------- ---- -- --- ------- --<br>------- ---------- ------ -- ----- -- ----- -- ---- ------<br>--- ----- --- --- ------ -------- ----- --- ------ value --<br>----- ----- ---------- --- --- ------ ------ ---- -- ------<br>------- --- ------ ----- --- ---- ------- -- ---- --- --<br>------- ------,215975.79999995232,215975.20000004768,215456.479,215457,215473.233,215989.411,,31,value
screen,html.Screen,2_1_1_1_32,2022-02-02T12:19:53.198Z,,,,,,,,,,,,,,,,,54,,,,,,,,,,,,,,411.48900009537465,,response,,,,100,,,,,,,Space,keypress(Space),,,,,,,,-- --- ---- --- ------ ----- ------- ---- -- --- ------- --<br>------- ---------- ------ -- ----- -- ----- -- ---- ------<br>--- ----- --- --- ------ -------- ----- --- ------ ----- of<br>----- ----- ---------- --- --- ------ ------ ---- -- ------<br>------- --- ------ ----- --- ---- ------- -- ---- --- --<br>------- ------,216401.5,216400.90000009537,215972.733,215975.90000009537,215989.411,216406.223,,32,of
screen,html.Screen,2_1_1_1_33,2022-02-02T12:19:53.593Z,,,,,,,,,,,,,,,,,54,,,,,,,,,,,,,,389.77700000000186,,response,,,,100,,,,,,,Space,keypress(Space),,,,,,,,-- --- ---- --- ------ ----- ------- ---- -- --- ------- --<br>------- ---------- ------ -- ----- -- ----- -- ---- ------<br>--- ----- --- --- ------ -------- ----- --- ------ ----- --<br>these ----- ---------- --- --- ------ ------ ---- -- ------<br>------- --- ------ ----- --- ---- ------- -- ---- --- --<br>------- ------,216796.70000004768,216796,216389.047,216401.59999990463,216406.223,216805.431,,33,these
screen,html.Screen,2_1_1_1_34,2022-02-02T12:19:54.021Z,,,,,,,,,,,,,,,,,54,,,,,,,,,,,,,,418.5689999999886,,response,,,,100,,,,,,,Space,keypress(Space),,,,,,,,-- --- ---- --- ------ ----- ------- ---- -- --- ------- --<br>------- ---------- ------ -- ----- -- ----- -- ---- ------<br>--- ----- --- --- ------ -------- ----- --- ------ ----- --<br>----- bonds ---------- --- --- ------ ------ ---- -- ------<br>------- --- ------ ----- --- ---- ------- -- ---- --- --<br>------- ------,217224.59999990463,217224,216788.733,216796.90000009537,216805.431,217238.4,,34,bonds
screen,html.Screen,2_1_1_1_35,2022-02-02T12:19:54.641Z,,,,,,,,,,,,,,,,,54,,,,,,,,,,,,,,606.0000000953733,,response,,,,100,,,,,,,Space,keypress(Space),,,,,,,,"-- --- ---- --- ------ ----- ------- ---- -- --- ------- --<br>------- ---------- ------ -- ----- -- ----- -- ---- ------<br>--- ----- --- --- ------ -------- ----- --- ------ ----- --<br>----- ----- plummeted, --- --- ------ ------ ---- -- ------<br>------- --- ------ ----- --- ---- ------- -- ---- --- --<br>------- ------",217845.20000004768,217844.40000009537,217221.693,217224.70000004768,217238.4,217854.559,,35,"plummeted,"
screen,html.Screen,2_1_1_1_36,2022-02-02T12:19:55.023Z,,,,,,,,,,,,,,,,,54,,,,,,,,,,,,,,370.84100009535905,,response,,,,100,,,,,,,Space,keypress(Space),,,,,,,,-- --- ---- --- ------ ----- ------- ---- -- --- ------- --<br>------- ---------- ------ -- ----- -- ----- -- ---- ------<br>--- ----- --- --- ------ -------- ----- --- ------ ----- --<br>----- ----- ---------- and --- ------ ------ ---- -- ------<br>------- --- ------ ----- --- ---- ------- -- ---- --- --<br>------- ------,218226.70000004768,218225.40000009537,217837.845,217845.29999995232,217854.559,218237.597,,36,and
screen,html.Screen,2_1_1_1_37,2022-02-02T12:19:55.342Z,,,,,,,,,,,,,,,,,54,,,,,,,,,,,,,,307.5029999046237,,response,,,,100,,,,,,,Space,keypress(Space),,,,,,,,-- --- ---- --- ------ ----- ------- ---- -- --- ------- --<br>------- ---------- ------ -- ----- -- ----- -- ---- ------<br>--- ----- --- --- ------ -------- ----- --- ------ ----- --<br>----- ----- ---------- --- the ------ ------ ---- -- ------<br>------- --- ------ ----- --- ---- ------- -- ---- --- --<br>------- ------,218546.40000009537,218545.09999990463,218220.868,218226.90000009537,218237.597,218553.986,,37,the
screen,html.Screen,2_1_1_1_38,2022-02-02T12:19:55.721Z,,,,,,,,,,,,,,,,,54,,,,,,,,,,,,,,370.61399990462814,,response,,,,100,,,,,,,Space,keypress(Space),,,,,,,,-- --- ---- --- ------ ----- ------- ---- -- --- ------- --<br>------- ---------- ------ -- ----- -- ----- -- ---- ------<br>--- ----- --- --- ------ -------- ----- --- ------ ----- --<br>----- ----- ---------- --- --- market ------ ---- -- ------<br>------- --- ------ ----- --- ---- ------- -- ---- --- --<br>------- ------,218925.20000004768,218924.59999990463,218537.297,218546.5,218553.986,218937.001,,38,market
screen,html.Screen,2_1_1_1_39,2022-02-02T12:19:56.113Z,,,,,,,,,,,,,,,,,54,,,,,,,,,,,,,,379.1990000476944,,response,,,,100,,,,,,,Space,keypress(Space),,,,,,,,-- --- ---- --- ------ ----- ------- ---- -- --- ------- --<br>------- ---------- ------ -- ----- -- ----- -- ---- ------<br>--- ----- --- --- ------ -------- ----- --- ------ ----- --<br>----- ----- ---------- --- --- ------ became ---- -- ------<br>------- --- ------ ----- --- ---- ------- -- ---- --- --<br>------- ------,219316.70000004768,219316.20000004768,218920.285,218925.29999995232,218937.001,219319.985,,39,became
screen,html.Screen,2_1_1_1_40,2022-02-02T12:19:56.592Z,,,,,,,,,,,,,,,,,54,,,,,,,,,,,,,,475.11499990464654,,response,,,,100,,,,,,,Space,keypress(Space),,,,,,,,-- --- ---- --- ------ ----- ------- ---- -- --- ------- --<br>------- ---------- ------ -- ----- -- ----- -- ---- ------<br>--- ----- --- --- ------ -------- ----- --- ------ ----- --<br>----- ----- ---------- --- --- ------ ------ wary -- ------<br>------- --- ------ ----- --- ---- ------- -- ---- --- --<br>------- ------,219795.79999995232,219795.09999990463,219303.33,219316.90000009537,219319.985,219802.934,,40,wary
screen,html.Screen,2_1_1_1_41,2022-02-02T12:19:56.950Z,,,,,,,,,,,,,,,,,54,,,,,,,,,,,,,,350.1659999046242,,response,,,,100,,,,,,,Space,keypress(Space),,,,,,,,-- --- ---- --- ------ ----- ------- ---- -- --- ------- --<br>------- ---------- ------ -- ----- -- ----- -- ---- ------<br>--- ----- --- --- ------ -------- ----- --- ------ ----- --<br>----- ----- ---------- --- --- ------ ------ ---- of ------<br>------- --- ------ ----- --- ---- ------- -- ---- --- --<br>------- ------,220153.79999995232,220153.09999990463,219786.251,219795.90000009537,219802.934,220169.34,,41,of
screen,html.Screen,2_1_1_1_42,2022-02-02T12:19:57.357Z,,,,,,,,,,,,,,,,,54,,,,,,,,,,,,,,390.1600000000035,,response,,,,100,,,,,,,Space,keypress(Space),,,,,,,,-- --- ---- --- ------ ----- ------- ---- -- --- ------- --<br>------- ---------- ------ -- ----- -- ----- -- ---- ------<br>--- ----- --- --- ------ -------- ----- --- ------ ----- --<br>----- ----- ---------- --- --- ------ ------ ---- -- French<br>------- --- ------ ----- --- ---- ------- -- ---- --- --<br>------- ------,220560.5,220559.5,220152.617,220153.90000009537,220169.34,220569.002,,42,French
screen,html.Screen,2_1_1_1_43,2022-02-02T12:19:59.144Z,,,,,,,,,,,,,,,,,54,,,,,,,,,,,,,,1778.4979999999923,,response,,,,100,,,,,,,Space,keypress(Space),,,,,,,,-- --- ---- --- ------ ----- ------- ---- -- --- ------- --<br>------- ---------- ------ -- ----- -- ----- -- ---- ------<br>--- ----- --- --- ------ -------- ----- --- ------ ----- --<br>----- ----- ---------- --- --- ------ ------ ---- -- ------<br>credit. --- ------ ----- --- ---- ------- -- ---- --- --<br>------- ------,222348.20000004768,222347.5,220552.289,220560.70000004768,220569.002,222350.823,,43,credit.
screen,html.Screen,2_1_1_1_44,2022-02-02T12:19:59.592Z,,,,,,,,,,,,,,,,,54,,,,,,,,,,,,,,444.4769999523123,,response,,,,100,,,,,,,Space,keypress(Space),,,,,,,,-- --- ---- --- ------ ----- ------- ---- -- --- ------- --<br>------- ---------- ------ -- ----- -- ----- -- ---- ------<br>--- ----- --- --- ------ -------- ----- --- ------ ----- --<br>----- ----- ---------- --- --- ------ ------ ---- -- ------<br>------- The ------ ----- --- ---- ------- -- ---- --- --<br>------- ------,222796,222795.29999995232,222334.07,222348.40000009537,222350.823,222800.755,,44,The
screen,html.Screen,2_1_1_1_45,2022-02-02T12:20:00.024Z,,,,,,,,,,,,,,,,,54,,,,,,,,,,,,,,426.74499999999534,,response,,,,100,,,,,,,Space,keypress(Space),,,,,,,,-- --- ---- --- ------ ----- ------- ---- -- --- ------- --<br>------- ---------- ------ -- ----- -- ----- -- ---- ------<br>--- ----- --- --- ------ -------- ----- --- ------ ----- --<br>----- ----- ---------- --- --- ------ ------ ---- -- ------<br>------- --- French ----- --- ---- ------- -- ---- --- --<br>------- ------,223228.09999990463,223227.5,222783.783,222796.09999990463,222800.755,223233.464,,45,French
screen,html.Screen,2_1_1_1_46,2022-02-02T12:20:00.435Z,,,,,,,,,,,,,,,,,54,,,,,,,,,,,,,,405.0359999999928,,response,,,,100,,,,,,,Space,keypress(Space),,,,,,,,-- --- ---- --- ------ ----- ------- ---- -- --- ------- --<br>------- ---------- ------ -- ----- -- ----- -- ---- ------<br>--- ----- --- --- ------ -------- ----- --- ------ ----- --<br>----- ----- ---------- --- --- ------ ------ ---- -- ------<br>------- --- ------ state --- ---- ------- -- ---- --- --<br>------- ------,223639.09999990463,223638.5,223216.778,223228.20000004768,223233.464,223649.798,,46,state
screen,html.Screen,2_1_1_1_47,2022-02-02T12:20:00.782Z,,,,,,,,,,,,,,,,,54,,,,,,,,,,,,,,335.10200009535765,,response,,,,100,,,,,,,Space,keypress(Space),,,,,,,,-- --- ---- --- ------ ----- ------- ---- -- --- ------- --<br>------- ---------- ------ -- ----- -- ----- -- ---- ------<br>--- ----- --- --- ------ -------- ----- --- ------ ----- --<br>----- ----- ---------- --- --- ------ ------ ---- -- ------<br>------- --- ------ ----- was ---- ------- -- ---- --- --<br>------- ------,223985.70000004768,223984.90000009537,223633.099,223639.20000004768,223649.798,223999.538,,47,was
screen,html.Screen,2_1_1_1_48,2022-02-02T12:20:01.189Z,,,,,,,,,,,,,,,,,54,,,,,,,,,,,,,,392.5619999046321,,response,,,,100,,,,,,,Space,keypress(Space),,,,,,,,-- --- ---- --- ------ ----- ------- ---- -- --- ------- --<br>------- ---------- ------ -- ----- -- ----- -- ---- ------<br>--- ----- --- --- ------ -------- ----- --- ------ ----- --<br>----- ----- ---------- --- --- ------ ------ ---- -- ------<br>------- --- ------ ----- --- left ------- -- ---- --- --<br>------- ------,224392.59999990463,224392.09999990463,223982.825,223985.90000009537,223999.538,224399.17,,48,left
screen,html.Screen,2_1_1_1_49,2022-02-02T12:20:01.659Z,,,,,,,,,,,,,,,,,54,,,,,,,,,,,,,,463.5300000476709,,response,,,,100,,,,,,,Space,keypress(Space),,,,,,,,-- --- ---- --- ------ ----- ------- ---- -- --- ------- --<br>------- ---------- ------ -- ----- -- ----- -- ---- ------<br>--- ----- --- --- ------ -------- ----- --- ------ ----- --<br>----- ----- ---------- --- --- ------ ------ ---- -- ------<br>------- --- ------ ----- --- ---- without -- ---- --- --<br>------- ------,224863.29999995232,224862.70000004768,224382.519,224392.70000004768,224399.17,224865.422,,49,without
screen,html.Screen,2_1_1_1_50,2022-02-02T12:20:02.034Z,,,,,,,,,,,,,,,,,54,,,,,,,,,,,,,,371.77800004769233,,response,,,,100,,,,,,,Space,keypress(Space),,,,,,,,-- --- ---- --- ------ ----- ------- ---- -- --- ------- --<br>------- ---------- ------ -- ----- -- ----- -- ---- ------<br>--- ----- --- --- ------ -------- ----- --- ------ ----- --<br>----- ----- ---------- --- --- ------ ------ ---- -- ------<br>------- --- ------ ----- --- ---- ------- an ---- --- --<br>------- ------,225237.70000004768,225237.20000004768,224848.795,224863.40000009537,224865.422,225248.515,,50,an
screen,html.Screen,2_1_1_1_51,2022-02-02T12:20:02.629Z,,,,,,,,,,,,,,,,,54,,,,,,,,,,,,,,584.0849999046186,,response,,,,100,,,,,,,Space,keypress(Space),,,,,,,,-- --- ---- --- ------ ----- ------- ---- -- --- ------- --<br>------- ---------- ------ -- ----- -- ----- -- ---- ------<br>--- ----- --- --- ------ -------- ----- --- ------ ----- --<br>----- ----- ---------- --- --- ------ ------ ---- -- ------<br>------- --- ------ ----- --- ---- ------- -- easy --- --<br>------- ------,225833.20000004768,225832.59999990463,225231.795,225237.79999995232,225248.515,225848.038,,51,easy
screen,html.Screen,2_1_1_1_52,2022-02-02T12:20:02.916Z,,,,,,,,,,,,,,,,,54,,,,,,,,,,,,,,271.7619999523158,,response,,,,100,,,,,,,Space,keypress(Space),,,,,,,,-- --- ---- --- ------ ----- ------- ---- -- --- ------- --<br>------- ---------- ------ -- ----- -- ----- -- ---- ------<br>--- ----- --- --- ------ -------- ----- --- ------ ----- --<br>----- ----- ---------- --- --- ------ ------ ---- -- ------<br>------- --- ------ ----- --- ---- ------- -- ---- way --<br>------- ------,226120.40000009537,226119.79999995232,225831.268,225833.20000004768,225848.038,226131.091,,52,way
screen,html.Screen,2_1_1_1_53,2022-02-02T12:20:03.341Z,,,,,,,,,,,,,,,,,54,,,,,,,,,,,,,,413.50899990464677,,response,,,,100,,,,,,,Space,keypress(Space),,,,,,,,-- --- ---- --- ------ ----- ------- ---- -- --- ------- --<br>------- ---------- ------ -- ----- -- ----- -- ---- ------<br>--- ----- --- --- ------ -------- ----- --- ------ ----- --<br>----- ----- ---------- --- --- ------ ------ ---- -- ------<br>------- --- ------ ----- --- ---- ------- -- ---- --- of<br>------- ------,226545.29999995232,226544.59999990463,226114.41,226120.40000009537,226131.091,226547.39,,53,of
screen,html.Screen,2_1_1_1_54,2022-02-02T12:20:03.716Z,,,,,,,,,,,,,,,,,54,,,,,,,,,,,,,,371.60999999998603,,response,,,,100,,,,,,,Space,keypress(Space),,,,,,,,-- --- ---- --- ------ ----- ------- ---- -- --- ------- --<br>------- ---------- ------ -- ----- -- ----- -- ---- ------<br>--- ----- --- --- ------ -------- ----- --- ------ ----- --<br>----- ----- ---------- --- --- ------ ------ ---- -- ------<br>------- --- ------ ----- --- ---- ------- -- ---- --- --<br>raising ------,226919.5,226919,226530.719,226545.5,226547.39,226930.441,,54,raising
screen,html.Screen,2_1_1_1_55,2022-02-02T12:20:04.181Z,,,,,,,,,,,,,,,,,54,,,,,,,,,,,,,,454.2590000476921,,response,,,,100,,,,,,,Space,keypress(Space),,,,,,,,-- --- ---- --- ------ ----- ------- ---- -- --- ------- --<br>------- ---------- ------ -- ----- -- ----- -- ---- ------<br>--- ----- --- --- ------ -------- ----- --- ------ ----- --<br>----- ----- ---------- --- --- ------ ------ ---- -- ------<br>------- --- ------ ----- --- ---- ------- -- ---- --- --<br>------- money.,227385.29999995232,227384.70000004768,226913.779,226919.5,226930.441,227396.703,,55,money.
Item 100,flow.Loop,2_1_1_1,2022-02-02T12:20:04.182Z,,,,,,,,,,,,,,,,,,,,,,,,,,,,,,,30329.669000047696,,completion,,,,,A,,,,,,,,,,,silence,,,,,227385.40000009537,227384.70000004768,197038.643,197040.09999990463,197055.031,227396.703,,,
Question 1,html.Screen,2_1_1_2,2022-02-02T12:20:06.795Z,,,,,,,,,,,,,,,,,,,,,,,,,,,,true,TRUE,,2601.197000095359,,response,,,,100,A,,,,,,TRUE,click #choice-1,,,,silence,,,,,229998.70000004768,229997.90000009537,227380.054,227385.5,227396.703,230011.228,,,
Question 2,html.Screen,2_1_1_3,2022-02-02T12:20:09.009Z,,,,,,,,,,,,,,,,,,,,,,,,,,,,true,FALSE,,2200.37199990463,,response,,,,100,A,,,,,,FALSE,click #choice-2,,,,silence,,,,,232212.40000009537,232211.59999990463,229994.567,229998.79999995232,230011.228,232226.1,,,
Item 100,flow.Sequence,2_1_1,2022-02-02T12:20:09.009Z,,,,,,,,,,,,,,,,,,,,,,,,,,,,,,,45165.020999904635,,completion,,,,,,,,,,,,,,,,,,,,,232212.59999990463,232211.59999990463,187030.15,187037.20000004768,187046.579,232226.1,,,
End of Practice,html.Page,2_1_2,2022-02-02T12:20:12.771Z,,,,,,,,,,,,,,,,,,,,,,,,,,,,,,,3748.399999999994,,form submission,,,,,,,,,,,,,,,,,,,,,235974.70000004768,235974.5,232209.421,232212.59999990463,232226.1,235989.673,,,
Practice,flow.Sequence,2_1,2022-02-02T12:20:12.772Z,,,,,,,,,,,,,,,,,,,,,,,,,,,,,,,97088.49100000001,,completion,,,,,,,,,,,,,,,,,,,,,235975.79999995232,235974.5,138869.331,138887.09999990463,138886.009,235989.673,,,
Trap_instruction,html.Page,2_2_0,2022-02-02T12:20:15.895Z,,,,,,,,,,,,,,,,,,,,,,,,,,,,,,,3109.32699999999,,form submission,,,,,,,,,,,,,,,,,,,,,239099.29999995232,239099,235973.01,235976.09999990463,235989.673,239137.061,,,
trap_trial,html.Screen,2_2_1,2022-02-02T12:20:20.566Z,,,,,,,,,,,,,,,,,,,,,,,,,,,,true,1,,4628.939000000013,,response,,,,,,,,,,,1,click #choice-1,,,,,,,,,243767.29999995232,243766,239087.127,239099.5,239137.061,243783.534,,,
end of trap trial,html.Page,2_2_2,2022-02-02T12:20:22.838Z,,,,,,,,,,,,,,,,,,,,,,,,,,,,,,,2255.0659999046184,,form submission,,,,,,,,,,,,,,,,,,,,,246039.20000004768,246038.59999990463,243750.27,243767.40000009537,243783.534,246048.172,,,
Trap 1,flow.Sequence,2_2,2022-02-02T12:20:22.838Z,,,,,,,,,,,,,,,,,,,,,,,,,,,,,,,10048.926999904623,,completion,,,,,,,,,,,,,,,,,,,,,246039.5,246038.59999990463,235973.01,235976,235989.673,246048.172,,,
Standby,html.Page,2_3_0,2022-02-02T12:20:30.824Z,,,,,,,,,,,,,,,,,,,,,,,,,,,,,,,7993.6750000000175,,timeout,,,,,,,,,,,,,,,,,,,,,254025.79999995232,254025.248,246031.747,246039.79999995232,246048.172,254041.847,,,
Holding screen,html.Screen,2_3_1_0_0,2022-02-02T12:20:37.819Z,,,,,,,,,,,,,,,,,,,,,,,,,,,,,,,6993.967000000004,,timeout,,,,,,,,,,,,,,,,,,,,,261020.70000004768,261019.485,254025.248,254026.20000004768,254041.847,261035.814,,,
screen,html.Screen,2_3_1_0_1_0,2022-02-02T12:20:39.264Z,,,,,,,,,,,,,,,,,11,,,,,,,,,,,,,,1427.7859999046195,,response,,,,4,A,,,,,,Space,keypress(Space),,,,silence,,,,Known -- ---- --- -- --- -------- ------------ ---------- --<br>- ------- ------ --------- -- ------------ -- --- ---- -----<br>------ ---- ---- ------ ------ ------- --- ----- ---------<br>---- --- -------- -------- --- --- -- ------- --- --- -----<br>-- --- ------ ------- --- --- -------- ---- --------- --<br>---------- -- -------- ----------------,262465.2999999523,262463.59999990463,261019.485,261021,261035.814,262467.992,,0,Known
screen,html.Screen,2_3_1_0_1_1,2022-02-02T12:20:39.730Z,,,,,,,,,,,,,,,,,11,,,,,,,,,,,,,,461.6079999046051,,response,,,,4,A,,,,,,Space,keypress(Space),,,,silence,,,,----- as ---- --- -- --- -------- ------------ ---------- --<br>- ------- ------ --------- -- ------------ -- --- ---- -----<br>------ ---- ---- ------ ------ ------- --- ----- ---------<br>---- --- -------- -------- --- --- -- ------- --- --- -----<br>-- --- ------ ------- --- --- -------- ---- --------- --<br>---------- -- -------- ----------------,262930.90000009537,262929.59999990463,262451.646,262465.59999990463,262467.992,262934.329,,1,as
screen,html.Screen,2_3_1_0_1_2,2022-02-02T12:20:40.575Z,,,,,,,,,,,,,,,,,11,,,,,,,,,,,,,,841.2709999046056,,response,,,,4,A,,,,,,Space,keypress(Space),,,,silence,,,,----- -- Rapa --- -- --- -------- ------------ ---------- --<br>- ------- ------ --------- -- ------------ -- --- ---- -----<br>------ ---- ---- ------ ------ ------- --- ----- ---------<br>---- --- -------- -------- --- --- -- ------- --- --- -----<br>-- --- ------ ------- --- --- -------- ---- --------- --<br>---------- -- -------- ----------------,263776.7000000477,263775.59999990463,262917.602,262931.2000000477,262934.329,263783.575,,2,Rapa
screen,html.Screen,2_3_1_0_1_3,2022-02-02T12:20:41.030Z,,,,,,,,,,,,,,,,,11,,,,,,,,,,,,,,446.8250000953558,,response,,,,4,A,,,,,,Space,keypress(Space),,,,silence,,,,----- -- ---- Nui -- --- -------- ------------ ---------- --<br>- ------- ------ --------- -- ------------ -- --- ---- -----<br>------ ---- ---- ------ ------ ------- --- ----- ---------<br>---- --- -------- -------- --- --- -- ------- --- --- -----<br>-- --- ------ ------- --- --- -------- ---- --------- --<br>---------- -- -------- ----------------,264231.59999990463,264230.40000009537,263767.173,263777,263783.575,264233.141,,3,Nui
screen,html.Screen,2_3_1_0_1_4,2022-02-02T12:20:41.484Z,,,,,,,,,,,,,,,,,11,,,,,,,,,,,,,,450.2590000953642,,response,,,,4,A,,,,,,Space,keypress(Space),,,,silence,,,,----- -- ---- --- to --- -------- ------------ ---------- --<br>- ------- ------ --------- -- ------------ -- --- ---- -----<br>------ ---- ---- ------ ------ ------- --- ----- ---------<br>---- --- -------- -------- --- --- -- ------- --- --- -----<br>-- --- ------ ------- --- --- -------- ---- --------- --<br>---------- -- -------- ----------------,264684.90000009537,264683.40000009537,264216.575,264231.59999990463,264233.141,264699.693,,4,to
screen,html.Screen,2_3_1_0_1_5,2022-02-02T12:20:41.892Z,,,,,,,,,,,,,,,,,11,,,,,,,,,,,,,,392.90699990460416,,response,,,,4,A,,,,,,Space,keypress(Space),,,,silence,,,,----- -- ---- --- -- the -------- ------------ ---------- --<br>- ------- ------ --------- -- ------------ -- --- ---- -----<br>------ ---- ---- ------ ------ ------- --- ----- ---------<br>---- --- -------- -------- --- --- -- ------- --- --- -----<br>-- --- ------ ------- --- --- -------- ---- --------- --<br>---------- -- -------- ----------------,265093.59999990463,265092.59999990463,264682.96,264685.09999990463,264699.693,265099.124,,5,the
screen,html.Screen,2_3_1_0_1_6,2022-02-02T12:20:42.375Z,,,,,,,,,,,,,,,,,11,,,,,,,,,,,,,,476.3759999999893,,response,,,,4,A,,,,,,Space,keypress(Space),,,,silence,,,,----- -- ---- --- -- --- island's ------------ ---------- --<br>- ------- ------ --------- -- ------------ -- --- ---- -----<br>------ ---- ---- ------ ------ ------- --- ----- ---------<br>---- --- -------- -------- --- --- -- ------- --- --- -----<br>-- --- ------ ------- --- --- -------- ---- --------- --<br>---------- -- -------- ----------------,265576,265575.5,265082.758,265093.90000009537,265099.124,265582.233,,6,island's
screen,html.Screen,2_3_1_0_1_7,2022-02-02T12:20:42.974Z,,,,,,,,,,,,,,,,,11,,,,,,,,,,,,,,591.66700009536,,response,,,,4,A,,,,,,Space,keypress(Space),,,,silence,,,,"----- -- ---- --- -- --- -------- inhabitants, ---------- --<br>- ------- ------ --------- -- ------------ -- --- ---- -----<br>------ ---- ---- ------ ------ ------- --- ----- ---------<br>---- --- -------- -------- --- --- -- ------- --- --- -----<br>-- --- ------ ------- --- --- -------- ---- --------- --<br>---------- -- -------- ----------------",266175.40000009537,266173.90000009537,265565.689,265576.09999990463,265582.233,266181.6,,7,"inhabitants,"
screen,html.Screen,2_3_1_0_1_8,2022-02-02T12:20:44.402Z,,,,,,,,,,,,,,,,,11,,,,,,,,,,,,,,1420.6999999523396,,response,,,,4,A,,,,,,Space,keypress(Space),,,,silence,,,,----- -- ---- --- -- --- -------- ------------ Rongorongo --<br>- ------- ------ --------- -- ------------ -- --- ---- -----<br>------ ---- ---- ------ ------ ------- --- ----- ---------<br>---- --- -------- -------- --- --- -- ------- --- --- -----<br>-- --- ------ ------- --- --- -------- ---- --------- --<br>---------- -- -------- ----------------,267603.5,267602.2999999523,266165.173,266175.7000000477,266181.6,267613.792,,8,Rongorongo
screen,html.Screen,2_3_1_0_1_9,2022-02-02T12:20:44.872Z,,,,,,,,,,,,,,,,,11,,,,,,,,,,,,,,458.1080000953516,,response,,,,4,A,,,,,,Space,keypress(Space),,,,silence,,,,----- -- ---- --- -- --- -------- ------------ ---------- is<br>- ------- ------ --------- -- ------------ -- --- ---- -----<br>------ ---- ---- ------ ------ ------- --- ----- ---------<br>---- --- -------- -------- --- --- -- ------- --- --- -----<br>-- --- ------ ------- --- --- -------- ---- --------- --<br>---------- -- -------- ----------------,268073.09999990463,268071.90000009537,267597.054,267603.7000000477,267613.792,268080.134,,9,is
screen,html.Screen,2_3_1_0_1_10,2022-02-02T12:20:45.223Z,,,,,,,,,,,,,,,,,11,,,,,,,,,,,,,,343.16599995229626,,response,,,,4,A,,,,,,Space,keypress(Space),,,,silence,,,,----- -- ---- --- -- --- -------- ------------ ---------- --<br>a ------- ------ --------- -- ------------ -- --- ---- -----<br>------ ---- ---- ------ ------ ------- --- ----- ---------<br>---- --- -------- -------- --- --- -- ------- --- --- -----<br>-- --- ------ ------- --- --- -------- ---- --------- --<br>---------- -- -------- ----------------,268424.5,268423.2999999523,268063.595,268073.2999999523,268080.134,268429.758,,10,a
screen,html.Screen,2_3_1_0_1_11,2022-02-02T12:20:45.680Z,,,,,,,,,,,,,,,,,11,,,,,,,,,,,,,,449.04199995234376,,response,,,,4,A,,,,,,Space,keypress(Space),,,,silence,,,,----- -- ---- --- -- --- -------- ------------ ---------- --<br>- writing ------ --------- -- ------------ -- --- ---- -----<br>------ ---- ---- ------ ------ ------- --- ----- ---------<br>---- --- -------- -------- --- --- -- ------- --- --- -----<br>-- --- ------ ------- --- --- -------- ---- --------- --<br>---------- -- -------- ----------------,268880.90000009537,268878.7999999523,268413.381,268424.7000000477,268429.758,268896.303,,11,writing
screen,html.Screen,2_3_1_0_1_12,2022-02-02T12:20:46.303Z,,,,,,,,,,,,,,,,,11,,,,,,,,,,,,,,606.8970000476693,,response,,,,4,A,,,,,,Space,keypress(Space),,,,silence,,,,----- -- ---- --- -- --- -------- ------------ ---------- --<br>- ------- system --------- -- ------------ -- --- ---- -----<br>------ ---- ---- ------ ------ ------- --- ----- ---------<br>---- --- -------- -------- --- --- -- ------- --- --- -----<br>-- --- ------ ------- --- --- -------- ---- --------- --<br>---------- -- -------- ----------------,269504.2000000477,269503.2000000477,268879.64,268881.2000000477,268896.303,269512.23,,12,system
screen,html.Screen,2_3_1_0_1_13,2022-02-02T12:20:46.955Z,,,,,,,,,,,,,,,,,11,,,,,,,,,,,,,,643.1700000953861,,response,,,,4,A,,,,,,Space,keypress(Space),,,,silence,,,,----- -- ---- --- -- --- -------- ------------ ---------- --<br>- ------- ------ comprised -- ------------ -- --- ---- -----<br>------ ---- ---- ------ ------ ------- --- ----- ---------<br>---- --- -------- -------- --- --- -- ------- --- --- -----<br>-- --- ------ ------- --- --- -------- ---- --------- --<br>---------- -- -------- ----------------,270156.5,270155.40000009537,269495.787,269504.2999999523,269512.23,270161.661,,13,comprised
screen,html.Screen,2_3_1_0_1_14,2022-02-02T12:20:47.436Z,,,,,,,,,,,,,,,,,11,,,,,,,,,,,,,,474.53900004766183,,response,,,,4,A,,,,,,Space,keypress(Space),,,,silence,,,,----- -- ---- --- -- --- -------- ------------ ---------- --<br>- ------- ------ --------- of ------------ -- --- ---- -----<br>------ ---- ---- ------ ------ ------- --- ----- ---------<br>---- --- -------- -------- --- --- -- ------- --- --- -----<br>-- --- ------ ------- --- --- -------- ---- --------- --<br>---------- -- -------- ----------------,270637.40000009537,270636.2000000477,270145.31,270156.7000000477,270161.661,270644.613,,14,of
screen,html.Screen,2_3_1_0_1_15,2022-02-02T12:20:48.716Z,,,,,,,,,,,,,,,,,11,,,,,,,,,,,,,,1271.9869999046205,,response,,,,4,A,,,,,,Space,keypress(Space),,,,silence,,,,----- -- ---- --- -- --- -------- ------------ ---------- --<br>- ------- ------ --------- -- pictographs. -- --- ---- -----<br>------ ---- ---- ------ ------ ------- --- ----- ---------<br>---- --- -------- -------- --- --- -- ------- --- --- -----<br>-- --- ------ ------- --- --- -------- ---- --------- --<br>---------- -- -------- ----------------,271917.7999999523,271916.59999990463,270628.201,270637.7000000477,270644.613,271927.178,,15,pictographs.
screen,html.Screen,2_3_1_0_1_16,2022-02-02T12:20:49.206Z,,,,,,,,,,,,,,,,,11,,,,,,,,,,,,,,478.5220000476693,,response,,,,4,A,,,,,,Space,keypress(Space),,,,silence,,,,----- -- ---- --- -- --- -------- ------------ ---------- --<br>- ------- ------ --------- -- ------------ It --- ---- -----<br>------ ---- ---- ------ ------ ------- --- ----- ---------<br>---- --- -------- -------- --- --- -- ------- --- --- -----<br>-- --- ------ ------- --- --- -------- ---- --------- --<br>---------- -- -------- ----------------,272406.90000009537,272405.7000000477,271910.439,271918.09999990463,271927.178,272409.833,,16,It
screen,html.Screen,2_3_1_0_1_17,2022-02-02T12:20:49.653Z,,,,,,,,,,,,,,,,,11,,,,,,,,,,,,,,444.16700000001583,,response,,,,4,A,,,,,,Space,keypress(Space),,,,silence,,,,----- -- ---- --- -- --- -------- ------------ ---------- --<br>- ------- ------ --------- -- ------------ -- has ---- -----<br>------ ---- ---- ------ ------ ------- --- ----- ---------<br>---- --- -------- -------- --- --- -- ------- --- --- -----<br>-- --- ------ ------- --- --- -------- ---- --------- --<br>---------- -- -------- ----------------,272854.59999990463,272854,272393.444,272407.09999990463,272409.833,272859.647,,17,has
screen,html.Screen,2_3_1_0_1_18,2022-02-02T12:20:50.021Z,,,,,,,,,,,,,,,,,11,,,,,,,,,,,,,,361.8530000000028,,response,,,,4,A,,,,,,Space,keypress(Space),,,,silence,,,,----- -- ---- --- -- --- -------- ------------ ---------- --<br>- ------- ------ --------- -- ------------ -- --- been -----<br>------ ---- ---- ------ ------ ------- --- ----- ---------<br>---- --- -------- -------- --- --- -- ------- --- --- -----<br>-- --- ------ ------- --- --- -------- ---- --------- --<br>---------- -- -------- ----------------,273222.59999990463,273221.5,272843.087,272854.7000000477,272859.647,273225.835,,18,been
screen,html.Screen,2_3_1_0_1_19,2022-02-02T12:20:50.401Z,,,,,,,,,,,,,,,,,11,,,,,,,,,,,,,,375.86500004766276,,response,,,,4,A,,,,,,Space,keypress(Space),,,,silence,,,,----- -- ---- --- -- --- -------- ------------ ---------- --<br>- ------- ------ --------- -- ------------ -- --- ---- found<br>------ ---- ---- ------ ------ ------- --- ----- ---------<br>---- --- -------- -------- --- --- -- ------- --- --- -----<br>-- --- ------ ------- --- --- -------- ---- --------- --<br>---------- -- -------- ----------------,273602.40000009537,273601.7000000477,273209.44,273222.7999999523,273225.835,273608.896,,19,found
screen,html.Screen,2_3_1_0_1_20,2022-02-02T12:20:50.822Z,,,,,,,,,,,,,,,,,11,,,,,,,,,,,,,,413.3040000476758,,response,,,,4,A,,,,,,Space,keypress(Space),,,,silence,,,,----- -- ---- --- -- --- -------- ------------ ---------- --<br>- ------- ------ --------- -- ------------ -- --- ---- -----<br>carved ---- ---- ------ ------ ------- --- ----- ---------<br>---- --- -------- -------- --- --- -- ------- --- --- -----<br>-- --- ------ ------- --- --- -------- ---- --------- --<br>---------- -- -------- ----------------,274023.40000009537,274022.2000000477,273592.364,273602.5,273608.896,274044.483,,20,carved
screen,html.Screen,2_3_1_0_1_21,2022-02-02T12:20:51.279Z,,,,,,,,,,,,,,,,,11,,,,,,,,,,,,,,434.1169999046251,,response,,,,4,A,,,,,,Space,keypress(Space),,,,silence,,,,----- -- ---- --- -- --- -------- ------------ ---------- --<br>- ------- ------ --------- -- ------------ -- --- ---- -----<br>------ into ---- ------ ------ ------- --- ----- ---------<br>---- --- -------- -------- --- --- -- ------- --- --- -----<br>-- --- ------ ------- --- --- -------- ---- --------- --<br>---------- -- -------- ----------------,274479.90000009537,274478.59999990463,274008.759,274023.7000000477,274044.483,274491.454,,21,into
screen,html.Screen,2_3_1_0_1_22,2022-02-02T12:20:51.725Z,,,,,,,,,,,,,,,,,11,,,,,,,,,,,,,,433.545999999973,,response,,,,4,A,,,,,,Space,keypress(Space),,,,silence,,,,----- -- ---- --- -- --- -------- ------------ ---------- --<br>- ------- ------ --------- -- ------------ -- --- ---- -----<br>------ ---- many ------ ------ ------- --- ----- ---------<br>---- --- -------- -------- --- --- -- ------- --- --- -----<br>-- --- ------ ------- --- --- -------- ---- --------- --<br>---------- -- -------- ----------------,274926.2999999523,274925,274475.037,274480.09999990463,274491.454,274941.204,,22,many
screen,html.Screen,2_3_1_0_1_23,2022-02-02T12:20:52.467Z,,,,,,,,,,,,,,,,,11,,,,,,,,,,,,,,725.795999999973,,response,,,,4,A,,,,,,Space,keypress(Space),,,,silence,,,,----- -- ---- --- -- --- -------- ------------ ---------- --<br>- ------- ------ --------- -- ------------ -- --- ---- -----<br>------ ---- ---- oblong ------ ------- --- ----- ---------<br>---- --- -------- -------- --- --- -- ------- --- --- -----<br>-- --- ------ ------- --- --- -------- ---- --------- --<br>---------- -- -------- ----------------,275668.2000000477,275667,274924.674,274926.5,274941.204,275673.845,,23,oblong
screen,html.Screen,2_3_1_0_1_24,2022-02-02T12:20:53.167Z,,,,,,,,,,,,,,,,,11,,,,,,,,,,,,,,689.4549999523442,,response,,,,4,A,,,,,,Space,keypress(Space),,,,silence,,,,----- -- ---- --- -- --- -------- ------------ ---------- --<br>- ------- ------ --------- -- ------------ -- --- ---- -----<br>------ ---- ---- ------ wooden ------- --- ----- ---------<br>---- --- -------- -------- --- --- -- ------- --- --- -----<br>-- --- ------ ------- --- --- -------- ---- --------- --<br>---------- -- -------- ----------------,276368.40000009537,276363.2999999523,275657.412,275668.40000009537,275673.845,276373.215,,24,wooden
screen,html.Screen,2_3_1_0_1_25,2022-02-02T12:20:53.769Z,,,,,,,,,,,,,,,,,11,,,,,,,,,,,,,,595.884999904607,,response,,,,4,A,,,,,,Space,keypress(Space),,,,silence,,,,----- -- ---- --- -- --- -------- ------------ ---------- --<br>- ------- ------ --------- -- ------------ -- --- ---- -----<br>------ ---- ---- ------ ------ tablets --- ----- ---------<br>---- --- -------- -------- --- --- -- ------- --- --- -----<br>-- --- ------ ------- --- --- -------- ---- --------- --<br>---------- -- -------- ----------------,276970.40000009537,276969.09999990463,276356.613,276368.7999999523,276373.215,276972.76,,25,tablets
screen,html.Screen,2_3_1_0_1_26,2022-02-02T12:20:54.308Z,,,,,,,,,,,,,,,,,11,,,,,,,,,,,,,,535.2399999999907,,response,,,,4,A,,,,,,Space,keypress(Space),,,,silence,,,,----- -- ---- --- -- --- -------- ------------ ---------- --<br>- ------- ------ --------- -- ------------ -- --- ---- -----<br>------ ---- ---- ------ ------ ------- and ----- ---------<br>---- --- -------- -------- --- --- -- ------- --- --- -----<br>-- --- ------ ------- --- --- -------- ---- --------- --<br>---------- -- -------- ----------------,277509.2000000477,277508,276956.315,276970.59999990463,276972.76,277522.61,,26,and
screen,html.Screen,2_3_1_0_1_27,2022-02-02T12:20:54.837Z,,,,,,,,,,,,,,,,,11,,,,,,,,,,,,,,514.1899999523303,,response,,,,4,A,,,,,,Space,keypress(Space),,,,silence,,,,----- -- ---- --- -- --- -------- ------------ ---------- --<br>- ------- ------ --------- -- ------------ -- --- ---- -----<br>------ ---- ---- ------ ------ ------- --- other ---------<br>---- --- -------- -------- --- --- -- ------- --- --- -----<br>-- --- ------ ------- --- --- -------- ---- --------- --<br>---------- -- -------- ----------------,278038,278036.7999999523,277505.891,277509.40000009537,277522.61,278055.222,,27,other
screen,html.Screen,2_3_1_0_1_28,2022-02-02T12:20:55.570Z,,,,,,,,,,,,,,,,,11,,,,,,,,,,,,,,715.2779999999912,,response,,,,4,A,,,,,,Space,keypress(Space),,,,silence,,,,----- -- ---- --- -- --- -------- ------------ ---------- --<br>- ------- ------ --------- -- ------------ -- --- ---- -----<br>------ ---- ---- ------ ------ ------- --- ----- artifacts<br>---- --- -------- -------- --- --- -- ------- --- --- -----<br>-- --- ------ ------- --- --- -------- ---- --------- --<br>---------- -- -------- ----------------,278771.7000000477,278770.5,278038.854,278038.09999990463,278055.222,278787.99,,28,artifacts
screen,html.Screen,2_3_1_0_1_29,2022-02-02T12:20:56.211Z,,,,,,,,,,,,,,,,,11,,,,,,,,,,,,,,623.4100000953767,,response,,,,4,A,,,,,,Space,keypress(Space),,,,silence,,,,----- -- ---- --- -- --- -------- ------------ ---------- --<br>- ------- ------ --------- -- ------------ -- --- ---- -----<br>------ ---- ---- ------ ------ ------- --- ----- ---------<br>from --- -------- -------- --- --- -- ------- --- --- -----<br>-- --- ------ ------- --- --- -------- ---- --------- --<br>---------- -- -------- ----------------,279412.5,279411.40000009537,278771.294,278772.09999990463,278787.99,279421.117,,29,from
screen,html.Screen,2_3_1_0_1_30,2022-02-02T12:20:56.727Z,,,,,,,,,,,,,,,,,11,,,,,,,,,,,,,,506.3829999999725,,response,,,,4,A,,,,,,Space,keypress(Space),,,,silence,,,,----- -- ---- --- -- --- -------- ------------ ---------- --<br>- ------- ------ --------- -- ------------ -- --- ---- -----<br>------ ---- ---- ------ ------ ------- --- ----- ---------<br>---- the -------- -------- --- --- -- ------- --- --- -----<br>-- --- ------ ------- --- --- -------- ---- --------- --<br>---------- -- -------- ----------------,279928.59999990463,279927.5,279404.381,279412.7000000477,279421.117,279937.324,,30,the
screen,html.Screen,2_3_1_0_1_31,2022-02-02T12:20:57.272Z,,,,,,,,,,,,,,,,,11,,,,,,,,,,,,,,535.3760000476614,,response,,,,4,A,,,,,,Space,keypress(Space),,,,silence,,,,----- -- ---- --- -- --- -------- ------------ ---------- --<br>- ------- ------ --------- -- ------------ -- --- ---- -----<br>------ ---- ---- ------ ------ ------- --- ----- ---------<br>---- --- island's -------- --- --- -- ------- --- --- -----<br>-- --- ------ ------- --- --- -------- ---- --------- --<br>---------- -- -------- ----------------,280473.7999999523,280472.7000000477,279920.59,279928.90000009537,279937.324,280486.833,,31,island's
screen,html.Screen,2_3_1_0_1_32,2022-02-02T12:20:57.955Z,,,,,,,,,,,,,,,,,11,,,,,,,,,,,,,,668.0670000953833,,response,,,,4,A,,,,,,Space,keypress(Space),,,,silence,,,,----- -- ---- --- -- --- -------- ------------ ---------- --<br>- ------- ------ --------- -- ------------ -- --- ---- -----<br>------ ---- ---- ------ ------ ------- --- ----- ---------<br>---- --- -------- history. --- --- -- ------- --- --- -----<br>-- --- ------ ------- --- --- -------- ---- --------- --<br>---------- -- -------- ----------------,281156.40000009537,281154.90000009537,280470.156,280474,280486.833,281169.566,,32,history.
screen,html.Screen,2_3_1_0_1_33,2022-02-02T12:20:58.589Z,,,,,,,,,,,,,,,,,11,,,,,,,,,,,,,,620.033999904641,,response,,,,4,A,,,,,,Space,keypress(Space),,,,silence,,,,----- -- ---- --- -- --- -------- ------------ ---------- --<br>- ------- ------ --------- -- ------------ -- --- ---- -----<br>------ ---- ---- ------ ------ ------- --- ----- ---------<br>---- --- -------- -------- The --- -- ------- --- --- -----<br>-- --- ------ ------- --- --- -------- ---- --------- --<br>---------- -- -------- ----------------,281790.7000000477,281789.59999990463,281152.609,281156.7000000477,281169.566,281802.432,,33,The
screen,html.Screen,2_3_1_0_1_34,2022-02-02T12:20:59.218Z,,,,,,,,,,,,,,,,,11,,,,,,,,,,,,,,616.0680000000284,,response,,,,4,A,,,,,,Space,keypress(Space),,,,silence,,,,----- -- ---- --- -- --- -------- ------------ ---------- --<br>- ------- ------ --------- -- ------------ -- --- ---- -----<br>------ ---- ---- ------ ------ ------- --- ----- ---------<br>---- --- -------- -------- --- art -- ------- --- --- -----<br>-- --- ------ ------- --- --- -------- ---- --------- --<br>---------- -- -------- ----------------,282419.7000000477,282418.5,281785.467,281791,281802.432,282435.283,,34,art
screen,html.Screen,2_3_1_0_1_35,2022-02-02T12:20:59.612Z,,,,,,,,,,,,,,,,,11,,,,,,,,,,,,,,376.4170000476879,,response,,,,4,A,,,,,,Space,keypress(Space),,,,silence,,,,----- -- ---- --- -- --- -------- ------------ ---------- --<br>- ------- ------ --------- -- ------------ -- --- ---- -----<br>------ ---- ---- ------ ------ ------- --- ----- ---------<br>---- --- -------- -------- --- --- of ------- --- --- -----<br>-- --- ------ ------- --- --- -------- ---- --------- --<br>---------- -- -------- ----------------,282812.90000009537,282811.7000000477,282418.381,282419.90000009537,282435.283,282817.904,,35,of
screen,html.Screen,2_3_1_0_1_36,2022-02-02T12:21:00.006Z,,,,,,,,,,,,,,,,,11,,,,,,,,,,,,,,387.6959999046521,,response,,,,4,A,,,,,,Space,keypress(Space),,,,silence,,,,----- -- ---- --- -- --- -------- ------------ ---------- --<br>- ------- ------ --------- -- ------------ -- --- ---- -----<br>------ ---- ---- ------ ------ ------- --- ----- ---------<br>---- --- -------- -------- --- --- -- writing --- --- -----<br>-- --- ------ ------- --- --- -------- ---- --------- --<br>---------- -- -------- ----------------,283207.2999999523,283205.59999990463,282801.635,282813.09999990463,282817.904,283217.587,,36,writing
screen,html.Screen,2_3_1_0_1_37,2022-02-02T12:21:00.356Z,,,,,,,,,,,,,,,,,11,,,,,,,,,,,,,,338.51299990463303,,response,,,,4,A,,,,,,Space,keypress(Space),,,,silence,,,,----- -- ---- --- -- --- -------- ------------ ---------- --<br>- ------- ------ --------- -- ------------ -- --- ---- -----<br>------ ---- ---- ------ ------ ------- --- ----- ---------<br>---- --- -------- -------- --- --- -- ------- was --- -----<br>-- --- ------ ------- --- --- -------- ---- --------- --<br>---------- -- -------- ----------------,283557.2000000477,283556.09999990463,283201.21,283207.7000000477,283217.587,283567.594,,37,was
screen,html.Screen,2_3_1_0_1_38,2022-02-02T12:21:00.719Z,,,,,,,,,,,,,,,,,11,,,,,,,,,,,,,,351.30600009538466,,response,,,,4,A,,,,,,Space,keypress(Space),,,,silence,,,,----- -- ---- --- -- --- -------- ------------ ---------- --<br>- ------- ------ --------- -- ------------ -- --- ---- -----<br>------ ---- ---- ------ ------ ------- --- ----- ---------<br>---- --- -------- -------- --- --- -- ------- --- not -----<br>-- --- ------ ------- --- --- -------- ---- --------- --<br>---------- -- -------- ----------------,283920.40000009537,283918.90000009537,283550.612,283557.40000009537,283567.594,283934.034,,38,not
screen,html.Screen,2_3_1_0_1_39,2022-02-02T12:21:01.203Z,,,,,,,,,,,,,,,,,11,,,,,,,,,,,,,,468.9660000000149,,response,,,,4,A,,,,,,Space,keypress(Space),,,,silence,,,,----- -- ---- --- -- --- -------- ------------ ---------- --<br>- ------- ------ --------- -- ------------ -- --- ---- -----<br>------ ---- ---- ------ ------ ------- --- ----- ---------<br>---- --- -------- -------- --- --- -- ------- --- --- known<br>-- --- ------ ------- --- --- -------- ---- --------- --<br>---------- -- -------- ----------------,284404.5,284403,283917.367,283920.7000000477,283934.034,284416.945,,39,known
