sender,sender_type,sender_id,timestamp,meta,,Blues,Classical,Country,Dance,Electronic,Folk,Gospel,Hip-Hop,Jazz,Latin,Musical/Film,New-age,Pop,Prolific_id,Provo_ID,R&B,Rap,Reggae,Religious,Rock,Soul,Swing,Traditional,age,artist_name,correct,correctResponse,distraction,duration,education,ended_on,familiarity,gender,headphone_check_performance,item,list,music_frequency,offensiveness,pleasantness,position_correct,preference,response,response_action,snippet_file,song_name,song_rating,sound,stimulus_1,stimulus_2,stimulus_3,text,time_commit,time_end,time_render,time_run,time_show,time_switch,url,word,word_ID
Prolific ID,html.Form,0,2022-02-18T13:06:02.926Z,"{""labjs_version"":""20.2.2"",""labjs_build"":{""flavor"":""production"",""commit"":""a25486e0c714a0ae2ce03ff94b7bb6896854dcfa""},""location"":""https://run.pavlovia.org/mvasilev/prolific2_music_f/"",""userAgent"":""Mozilla/5.0 (Windows NT 10.0; Win64; x64) AppleWebKit/537.36 (KHTML, like Gecko) Chrome/98.0.4758.82 Safari/537.36"",""platform"":""Win32"",""language"":""en-US"",""locale"":""en-US"",""timeZone"":""Europe/London"",""timezoneOffset"":0,""screen_width"":1920,""screen_height"":1080,""scroll_width"":1920,""scroll_height"":881,""window_innerWidth"":1920,""window_innerHeight"":929,""devicePixelRatio"":1}",,,,,,,,,,,,,,,5f323237a6342a17e390a7c8,,,,,,,,,,,,,,,9193.250999988079,,form submission,,,,,,,,,,,,,,,,,,,,,21528.59999999404,21528.19999998808,12301.082,12304.40000000596,12334.949,21534.987,{},,
Introduction,html.Screen,1_0,2022-02-18T13:06:08.375Z,,,,,,,,,,,,,,,,,,,,,,,,,,,,,,,5441.112999994039,,response,,,,,,,,,,,continue,click button,,,,,,,,,26978.09999999404,26976.09999999404,21526.542,21528.80000001192,21534.987,26993.273,,,
Volume calibration,html.Screen,1_1,2022-02-18T13:06:10.331Z,,,,,,,,,,,,,,,,,,,,,,,,,,,,,,,1937.5270000119199,,response,,,,,,,,,,,continue,click button,,,,,,,,,28933.80000001192,28930.80000001192,26984.922,26978.40000000596,26993.273,28934.93,,,
Task instructions,html.Screen,1_2,2022-02-18T13:06:11.794Z,,,,,,,,,,,,,,,,,,,,,,,,,,,,,,,1461.3700000119206,,response,,,,,,,,,,,continue,click button,,,,,,,,,30397.09999999404,30396.30000001192,28926.556,28933.90000000596,28934.93,30401.589,,,
Sounds,html.Screen,1_3_0_0,2022-02-18T13:06:16.043Z,,,,,,,,,,,,,,,,,,,,,,,,,,,,,,,4250.116999999998,,timeout,,,,,,,,,3,,,,,,,,I,O,S,,34645.40000000596,34643.286,30393.241,30397.30000001192,30401.589,34651.706,,,
Judgement,html.Screen,1_3_0_1,2022-02-18T13:06:19.075Z,,,,,,,,,,,,,,,,,,,,,,,,,,,,true,3,,3024.5940000119226,,response,,,,,,,,,3,,3,click #choice-3,,,,,I,O,S,,37677.30000001192,37676.30000001192,34643.286,34645.59999999404,34651.706,37684.899,,,
Trial,flow.Sequence,1_3_0,2022-02-18T13:06:19.075Z,,,,,,,,,,,,,,,,,,,,,,,,,,,,,,,7274.711000011921,,completion,,,,,,,,,3,,,,,,,,I,O,S,,37677.80000001192,37676.30000001192,30393.241,30397.19999998808,30401.589,37684.899,,,
Sounds,html.Screen,1_3_1_0,2022-02-18T13:06:23.324Z,,,,,,,,,,,,,,,,,,,,,,,,,,,,,,,4250.069000000003,,timeout,,,,,,,,,2,,,,,,,,O,S,I,,41927.09999999404,41926.556,37676.61,37678.09999999404,37684.899,41934.968,,,
Judgement,html.Screen,1_3_1_1,2022-02-18T13:06:24.216Z,,,,,,,,,,,,,,,,,,,,,,,,,,,,true,2,,882.5319999999992,,response,,,,,,,,,2,,2,click #choice-2,,,,,O,S,I,,42818.80000001192,42817.5,41926.556,41927.30000001192,41934.968,42826.58,,,
Trial,flow.Sequence,1_3_1,2022-02-18T13:06:24.216Z,,,,,,,,,,,,,,,,,,,,,,,,,,,,,,,5132.601000000002,,completion,,,,,,,,,2,,,,,,,,O,S,I,,42818.90000000596,42817.5,37676.61,37677.90000000596,37684.899,42826.58,,,
Sounds,html.Screen,1_3_2_0,2022-02-18T13:06:28.466Z,,,,,,,,,,,,,,,,,,,,,,,,,,,,,,,4250.0380000000005,,timeout,,,,,,,,,1,,,,,,,,S,O,I,,47068.80000001192,47068.233,42809.913,42819.09999999404,42826.58,47076.618,,,
Judgement,html.Screen,1_3_2_1,2022-02-18T13:06:29.166Z,,,,,,,,,,,,,,,,,,,,,,,,,,,,true,1,,690.6820000119187,,response,,,,,,,,,1,,1,click #choice-1,,,,,S,O,I,,47768.30000001192,47767.30000001192,47068.233,47068.90000000596,47076.618,47776.62,,,
Trial,flow.Sequence,1_3_2,2022-02-18T13:06:29.166Z,,,,,,,,,,,,,,,,,,,,,,,,,,,,,,,4940.720000011919,,completion,,,,,,,,,1,,,,,,,,S,O,I,,47768.5,47767.30000001192,42809.913,42819,42826.58,47776.62,,,
Sounds,html.Screen,1_3_3_0,2022-02-18T13:06:33.416Z,,,,,,,,,,,,,,,,,,,,,,,,,,,,,,,4250.060999999994,,timeout,,,,,,,,,2,,,,,,,,I,S,O,,52018.80000001192,52018.258,47759.939,47768.59999999404,47776.62,52026.681,,,
Judgement,html.Screen,1_3_3_1,2022-02-18T13:06:34.395Z,,,,,,,,,,,,,,,,,,,,,,,,,,,,true,2,,970.5189999880822,,response,,,,,,,,,2,,2,click #choice-2,,,,,I,S,O,,52998.30000001192,52997.19999998808,52018.258,52018.90000000596,52026.681,53001.559,,,
Trial,flow.Sequence,1_3_3,2022-02-18T13:06:34.396Z,,,,,,,,,,,,,,,,,,,,,,,,,,,,,,,5220.579999988076,,completion,,,,,,,,,2,,,,,,,,I,S,O,,52998.40000000596,52997.19999998808,47759.939,47768.59999999404,47776.62,53001.559,,,
Sounds,html.Screen,1_3_4_0,2022-02-18T13:06:38.642Z,,,,,,,,,,,,,,,,,,,,,,,,,,,,,,,4250.000999999997,,timeout,,,,,,,,,1,,,,,,,,S,I,O,,57245,57243.283,52993.5,52998.59999999404,53001.559,57251.56,,,
Judgement,html.Screen,1_3_4_1,2022-02-18T13:06:39.436Z,,,,,,,,,,,,,,,,,,,,,,,,,,,,true,1,,785.8400000059628,,response,,,,,,,,,1,,1,click #choice-1,,,,,S,I,O,,58038.69999998808,58037.40000000596,57243.283,57245.09999999404,57251.56,58043.223,,,
Trial,flow.Sequence,1_3_4,2022-02-18T13:06:39.436Z,,,,,,,,,,,,,,,,,,,,,,,,,,,,,,,5035.841000005959,,completion,,,,,,,,,1,,,,,,,,S,I,O,,58038.80000001192,58037.40000000596,52993.5,52998.5,53001.559,58043.223,,,
Sounds,html.Screen,1_3_5_0,2022-02-18T13:06:43.684Z,,,,,,,,,,,,,,,,,,,,,,,,,,,,,,,4250.063000000002,,timeout,,,,,,,,,3,,,,,,,,O,I,S,,62285.80000001192,62284.97,58035.144,58038.80000001192,58043.223,62293.286,,,
Judgement,html.Screen,1_3_5_1,2022-02-18T13:06:44.486Z,,,,,,,,,,,,,,,,,,,,,,,,,,,,true,3,,793.913999988079,,response,,,,,,,,,3,,3,click #choice-3,,,,,O,I,S,,63088.5,63087.19999998808,62284.97,62285.90000000596,62293.286,63093.273,,,
Trial,flow.Sequence,1_3_5,2022-02-18T13:06:44.486Z,,,,,,,,,,,,,,,,,,,,,,,,,,,,,,,5043.976999988081,,completion,,,,,,,,,3,,,,,,,,O,I,S,,63088.69999998808,63087.19999998808,58035.144,58038.80000001192,58043.223,63093.273,,,
Task,flow.Loop,1_3,2022-02-18T13:06:44.490Z,,,,,,,,,,,,,,,,,,,,,,,,,,,,,,,32685.61099998808,,completion,,,1,,,,,,,,,,,,,,,,,,63092.30000001192,63087.19999998808,30393.241,30397.19999998808,30401.589,63093.273,,,
Trap,html.Screen,1_4,2022-02-18T13:06:44.491Z,,,,,,,,,,,,,,,,,,,,,,,,,,,,,,,NaN,,skipped,,,,,,,,,,,,,,,,,,,,,63093.19999998808,63087.19999998808,,63093.19999998808,,63093.273,,,
Thanks,html.Screen,1_5,2022-02-18T13:06:47.916Z,,,,,,,,,,,,,,,,,,,,,,,,,,,,,,,3424.02700001192,,response,,,,,,,,,,,continue,click button,,,,,,,,,66518.19999998808,66517.30000001192,63084.869,63093.19999998808,63093.273,69651.653,,,
Headphone screening,flow.Sequence,1,2022-02-18T13:06:47.916Z,,,,,,,,,,,,,,,,,,,,,,,,,,,,,,,44982.31300001192,,completion,,,,,,,,,,,,,,,,,,,,,66518.40000000596,66517.30000001192,21526.542,21528.80000001192,21534.987,69651.653,,,
Instructions,html.Page,2_0,2022-02-18T13:07:01.116Z,,,,,,,,,,,,,,,,,,,,,,,,,,,,,,,10066.546999988073,,form submission,,,,,,,,,,,,,,,,,,,,,79718.5,79718.19999998808,69643.257,69653.80000001192,69651.653,79736.419,,,
Holding screen,html.Screen,2_1_0_0,2022-02-18T13:07:11.125Z,,,,,,,,,,,,,,,,,,,,,,,,,,,,,,,9998.449000000008,,timeout,,,,,,,,,,,,,,,,,,,,,89727.40000000596,89726.531,79709.945,79718.59999999404,79736.419,89734.868,,,
screen,html.Screen,2_1_0_1_0,2022-02-18T13:07:11.917Z,,,,,,,,,,,,,,,,,53,,,,,,,,,,,,,,782.9320000119187,,response,,,,99,,,,,,,Space,keypress(Space),,,,,,,,When -- ----- -- ------ - ------- --- ----------<br>------------- ------ ------ ---- ---- ------- ----- -- ----<br>-------- ------- -- ---------- --- - --- ----- ----- ----<br>---- --- --- ----- --- ---- ---- ------- ----- ---- -------<br>--- --- -- ----- -- --- ---- -- --- ---- -- ------ ------<br>--- ----- -- ----,90519.69999998808,90517.80000001192,89726.531,89727.5,89734.868,90526.551,,0,When
screen,html.Screen,2_1_0_1_1,2022-02-18T13:07:12.737Z,,,,,,,,,,,,,,,,,53,,,,,,,,,,,,,,811.7490000119142,,response,,,,99,,,,,,,Space,keypress(Space),,,,,,,,---- it ----- -- ------ - ------- --- ----------<br>------------- ------ ------ ---- ---- ------- ----- -- ----<br>-------- ------- -- ---------- --- - --- ----- ----- ----<br>---- --- --- ----- --- ---- ---- ------- ----- ---- -------<br>--- --- -- ----- -- --- ---- -- --- ---- -- ------ ------<br>--- ----- -- ----,91339.09999999404,91338.30000001192,90518.31,90519.69999998808,90526.551,91343.191,,1,it
screen,html.Screen,2_1_0_1_2,2022-02-18T13:07:13.363Z,,,,,,,,,,,,,,,,,53,,,,,,,,,,,,,,621.6090000119148,,response,,,,99,,,,,,,Space,keypress(Space),,,,,,,,---- -- comes -- ------ - ------- --- ----------<br>------------- ------ ------ ---- ---- ------- ----- -- ----<br>-------- ------- -- ---------- --- - --- ----- ----- ----<br>---- --- --- ----- --- ---- ---- ------- ----- ---- -------<br>--- --- -- ----- -- --- ---- -- --- ---- -- ------ ------<br>--- ----- -- ----,91965.59999999404,91964.80000001192,91335.095,91339.09999999404,91343.191,91968.226,,2,comes
screen,html.Screen,2_1_0_1_3,2022-02-18T13:07:13.781Z,,,,,,,,,,,,,,,,,53,,,,,,,,,,,,,,414.0740000119258,,response,,,,99,,,,,,,Space,keypress(Space),,,,,,,,---- -- ----- to ------ - ------- --- ----------<br>------------- ------ ------ ---- ---- ------- ----- -- ----<br>-------- ------- -- ---------- --- - --- ----- ----- ----<br>---- --- --- ----- --- ---- ---- ------- ----- ---- -------<br>--- --- -- ----- -- --- ---- -- --- ---- -- ------ ------<br>--- ----- -- ----,92383,92382.30000001192,91960.033,91966.30000001192,91968.226,92384.874,,3,to
screen,html.Screen,2_1_0_1_4,2022-02-18T13:07:14.144Z,,,,,,,,,,,,,,,,,53,,,,,,,,,,,,,,360.62600000000384,,response,,,,99,,,,,,,Space,keypress(Space),,,,,,,,---- -- ----- -- having - ------- --- ----------<br>------------- ------ ------ ---- ---- ------- ----- -- ----<br>-------- ------- -- ---------- --- - --- ----- ----- ----<br>---- --- --- ----- --- ---- ---- ------- ----- ---- -------<br>--- --- -- ----- -- --- ---- -- --- ---- -- ------ ------<br>--- ----- -- ----,92746.19999998808,92745.5,92377.084,92383.09999999404,92384.874,92751.517,,4,having
screen,html.Screen,2_1_0_1_5,2022-02-18T13:07:14.477Z,,,,,,,,,,,,,,,,,53,,,,,,,,,,,,,,326.7830000119138,,response,,,,99,,,,,,,Space,keypress(Space),,,,,,,,---- -- ----- -- ------ a ------- --- ----------<br>------------- ------ ------ ---- ---- ------- ----- -- ----<br>-------- ------- -- ---------- --- - --- ----- ----- ----<br>---- --- --- ----- --- ---- ---- ------- ----- ---- -------<br>--- --- -- ----- -- --- ---- -- --- ---- -- ------ ------<br>--- ----- -- ----,93079,93078.30000001192,92743.868,92746.40000000596,92751.517,93084.848,,5,a
screen,html.Screen,2_1_0_1_6,2022-02-18T13:07:15.699Z,,,,,,,,,,,,,,,,,53,,,,,,,,,,,,,,1216.2519999940414,,response,,,,99,,,,,,,Space,keypress(Space),,,,,,,,---- -- ----- -- ------ - lasting --- ----------<br>------------- ------ ------ ---- ---- ------- ----- -- ----<br>-------- ------- -- ---------- --- - --- ----- ----- ----<br>---- --- --- ----- --- ---- ---- ------- ----- ---- -------<br>--- --- -- ----- -- --- ---- -- --- ---- -- ------ ------<br>--- ----- -- ----,94301.69999998808,94301.09999999404,93076.683,93079.30000001192,93084.848,94309.859,,6,lasting
screen,html.Screen,2_1_0_1_7,2022-02-18T13:07:16.088Z,,,,,,,,,,,,,,,,,53,,,,,,,,,,,,,,379.4410000119242,,response,,,,99,,,,,,,Space,keypress(Space),,,,,,,,---- -- ----- -- ------ - ------- and ----------<br>------------- ------ ------ ---- ---- ------- ----- -- ----<br>-------- ------- -- ---------- --- - --- ----- ----- ----<br>---- --- --- ----- --- ---- ---- ------- ----- ---- -------<br>--- --- -- ----- -- --- ---- -- --- ---- -- ------ ------<br>--- ----- -- ----,94690.19999998808,94689.30000001192,94301.834,94301.80000001192,94309.859,94693.239,,7,and
screen,html.Screen,2_1_0_1_8,2022-02-18T13:07:16.559Z,,,,,,,,,,,,,,,,,53,,,,,,,,,,,,,,467.4609999880777,,response,,,,99,,,,,,,Space,keypress(Space),,,,,,,,---- -- ----- -- ------ - ------- --- fulfilling<br>------------- ------ ------ ---- ---- ------- ----- -- ----<br>-------- ------- -- ---------- --- - --- ----- ----- ----<br>---- --- --- ----- --- ---- ---- ------- ----- ---- -------<br>--- --- -- ----- -- --- ---- -- --- ---- -- ------ ------<br>--- ----- -- ----,95161.19999998808,95160.69999998808,94685.04,94690.30000001192,94693.239,95168.407,,8,fulfilling
screen,html.Screen,2_1_0_1_9,2022-02-18T13:07:16.937Z,,,,,,,,,,,,,,,,,53,,,,,,,,,,,,,,370.49300000595395,,response,,,,99,,,,,,,Space,keypress(Space),,,,,,,,"---- -- ----- -- ------ - ------- --- ----------<br>relationship, ------ ------ ---- ---- ------- ----- -- ----<br>-------- ------- -- ---------- --- - --- ----- ----- ----<br>---- --- --- ----- --- ---- ---- ------- ----- ---- -------<br>--- --- -- ----- -- --- ---- -- --- ---- -- ------ ------<br>--- ----- -- ----",95539.5,95538.90000000596,95160.119,95161.30000001192,95168.407,95543.225,,9,"relationship,"
screen,html.Screen,2_1_0_1_10,2022-02-18T13:07:17.315Z,,,,,,,,,,,,,,,,,53,,,,,,,,,,,,,,373.5750000119151,,response,,,,99,,,,,,,Space,keypress(Space),,,,,,,,---- -- ----- -- ------ - ------- --- ----------<br>------------- common ------ ---- ---- ------- ----- -- ----<br>-------- ------- -- ---------- --- - --- ----- ----- ----<br>---- --- --- ----- --- ---- ---- ------- ----- ---- -------<br>--- --- -- ----- -- --- ---- -- --- ---- -- ------ ------<br>--- ----- -- ----,95917.30000001192,95916.80000001192,95535.392,95539.59999999404,95543.225,95926.75,,10,common
screen,html.Screen,2_1_0_1_11,2022-02-18T13:07:17.778Z,,,,,,,,,,,,,,,,,53,,,,,,,,,,,,,,452.84999999403954,,response,,,,99,,,,,,,Space,keypress(Space),,,,,,,,---- -- ----- -- ------ - ------- --- ----------<br>------------- ------ wisdom ---- ---- ------- ----- -- ----<br>-------- ------- -- ---------- --- - --- ----- ----- ----<br>---- --- --- ----- --- ---- ---- ------- ----- ---- -------<br>--- --- -- ----- -- --- ---- -- --- ---- -- ------ ------<br>--- ----- -- ----,96380.40000000596,96379.59999999404,95910.088,95917.5,95926.75,96384.897,,11,wisdom
screen,html.Screen,2_1_0_1_12,2022-02-18T13:07:18.110Z,,,,,,,,,,,,,,,,,53,,,,,,,,,,,,,,327.00300000596326,,response,,,,99,,,,,,,Space,keypress(Space),,,,,,,,---- -- ----- -- ------ - ------- --- ----------<br>------------- ------ ------ says ---- ------- ----- -- ----<br>-------- ------- -- ---------- --- - --- ----- ----- ----<br>---- --- --- ----- --- ---- ---- ------- ----- ---- -------<br>--- --- -- ----- -- --- ---- -- --- ---- -- ------ ------<br>--- ----- -- ----,96712.5,96711.90000000596,96377.108,96380.69999998808,96384.897,96718.564,,12,says
screen,html.Screen,2_1_0_1_13,2022-02-18T13:07:18.473Z,,,,,,,,,,,,,,,,,53,,,,,,,,,,,,,,356.1359999880806,,response,,,,99,,,,,,,Space,keypress(Space),,,,,,,,---- -- ----- -- ------ - ------- --- ----------<br>------------- ------ ------ ---- that ------- ----- -- ----<br>-------- ------- -- ---------- --- - --- ----- ----- ----<br>---- --- --- ----- --- ---- ---- ------- ----- ---- -------<br>--- --- -- ----- -- --- ---- -- --- ---- -- ------ ------<br>--- ----- -- ----,97075.5,97074.69999998808,96710.379,96712.69999998808,96718.564,97098.547,,13,that
screen,html.Screen,2_1_0_1_14,2022-02-18T13:07:18.851Z,,,,,,,,,,,,,,,,,53,,,,,,,,,,,,,,353.95299999999406,,response,,,,99,,,,,,,Space,keypress(Space),,,,,,,,---- -- ----- -- ------ - ------- --- ----------<br>------------- ------ ------ ---- ---- feeling ----- -- ----<br>-------- ------- -- ---------- --- - --- ----- ----- ----<br>---- --- --- ----- --- ---- ---- ------- ----- ---- -------<br>--- --- -- ----- -- --- ---- -- --- ---- -- ------ ------<br>--- ----- -- ----,97453.19999998808,97452.5,97069.006,97075.5,97098.547,97459.844,,14,feeling
screen,html.Screen,2_1_0_1_15,2022-02-18T13:07:19.224Z,,,,,,,,,,,,,,,,,53,,,,,,,,,,,,,,365.85599998808175,,response,,,,99,,,,,,,Space,keypress(Space),,,,,,,,---- -- ----- -- ------ - ------- --- ----------<br>------------- ------ ------ ---- ---- ------- close -- ----<br>-------- ------- -- ---------- --- - --- ----- ----- ----<br>---- --- --- ----- --- ---- ---- ------- ----- ---- -------<br>--- --- -- ----- -- --- ---- -- --- ---- -- ------ ------<br>--- ----- -- ----,97826.5,97825.69999998808,97451.606,97453.30000001192,97459.844,97835.471,,15,close
screen,html.Screen,2_1_0_1_16,2022-02-18T13:07:19.517Z,,,,,,,,,,,,,,,,,53,,,,,,,,,,,,,,283.22899998807407,,response,,,,99,,,,,,,Space,keypress(Space),,,,,,,,---- -- ----- -- ------ - ------- --- ----------<br>------------- ------ ------ ---- ---- ------- ----- to ----<br>-------- ------- -- ---------- --- - --- ----- ----- ----<br>---- --- --- ----- --- ---- ---- ------- ----- ---- -------<br>--- --- -- ----- -- --- ---- -- --- ---- -- ------ ------<br>--- ----- -- ----,98119.40000000596,98118.69999998808,97818.929,97826.69999998808,97835.471,98126.571,,16,to
screen,html.Screen,2_1_0_1_17,2022-02-18T13:07:19.806Z,,,,,,,,,,,,,,,,,53,,,,,,,,,,,,,,280.52899999404326,,response,,,,99,,,,,,,Space,keypress(Space),,,,,,,,---- -- ----- -- ------ - ------- --- ----------<br>------------- ------ ------ ---- ---- ------- ----- -- your<br>-------- ------- -- ---------- --- - --- ----- ----- ----<br>---- --- --- ----- --- ---- ---- ------- ----- ---- -------<br>--- --- -- ----- -- --- ---- -- --- ---- -- ------ ------<br>--- ----- -- ----,98407.90000000596,98407.09999999404,98118.709,98119.5,98126.571,98409.9,,17,your
screen,html.Screen,2_1_0_1_18,2022-02-18T13:07:20.114Z,,,,,,,,,,,,,,,,,53,,,,,,,,,,,,,,305.40000001192675,,response,,,,99,,,,,,,Space,keypress(Space),,,,,,,,---- -- ----- -- ------ - ------- --- ----------<br>------------- ------ ------ ---- ---- ------- ----- -- ----<br>romantic ------- -- ---------- --- - --- ----- ----- ----<br>---- --- --- ----- --- ---- ---- ------- ----- ---- -------<br>--- --- -- ----- -- --- ---- -- --- ---- -- ------ ------<br>--- ----- -- ----,98716,98715.30000001192,98401.586,98408.19999998808,98409.9,98718.216,,18,romantic
screen,html.Screen,2_1_0_1_19,2022-02-18T13:07:20.496Z,,,,,,,,,,,,,,,,,53,,,,,,,,,,,,,,379.78399999999965,,response,,,,99,,,,,,,Space,keypress(Space),,,,,,,,---- -- ----- -- ------ - ------- --- ----------<br>------------- ------ ------ ---- ---- ------- ----- -- ----<br>-------- partner -- ---------- --- - --- ----- ----- ----<br>---- --- --- ----- --- ---- ---- ------- ----- ---- -------<br>--- --- -- ----- -- --- ---- -- --- ---- -- ------ ------<br>--- ----- -- ----,99098.5,99098,98710.021,98716.19999998808,98718.216,99101.556,,19,partner
screen,html.Screen,2_1_0_1_20,2022-02-18T13:07:20.859Z,,,,,,,,,,,,,,,,,53,,,,,,,,,,,,,,359.1439999880822,,response,,,,99,,,,,,,Space,keypress(Space),,,,,,,,---- -- ----- -- ------ - ------- --- ----------<br>------------- ------ ------ ---- ---- ------- ----- -- ----<br>-------- ------- is ---------- --- - --- ----- ----- ----<br>---- --- --- ----- --- ---- ---- ------- ----- ---- -------<br>--- --- -- ----- -- --- ---- -- --- ---- -- ------ ------<br>--- ----- -- ----,99461.19999998808,99460.69999998808,99093.716,99098.69999998808,99101.556,99468.228,,20,is
screen,html.Screen,2_1_0_1_21,2022-02-18T13:07:21.172Z,,,,,,,,,,,,,,,,,53,,,,,,,,,,,,,,305.2719999999972,,response,,,,99,,,,,,,Space,keypress(Space),,,,,,,,---- -- ----- -- ------ - ------- --- ----------<br>------------- ------ ------ ---- ---- ------- ----- -- ----<br>-------- ------- -- paramount. --- - --- ----- ----- ----<br>---- --- --- ----- --- ---- ---- ------- ----- ---- -------<br>--- --- -- ----- -- --- ---- -- --- ---- -- ------ ------<br>--- ----- -- ----,99774.30000001192,99773.5,99460.427,99461.30000001192,99468.228,99776.553,,21,paramount.
screen,html.Screen,2_1_0_1_22,2022-02-18T13:07:21.868Z,,,,,,,,,,,,,,,,,53,,,,,,,,,,,,,,693.0469999940397,,response,,,,99,,,,,,,Space,keypress(Space),,,,,,,,---- -- ----- -- ------ - ------- --- ----------<br>------------- ------ ------ ---- ---- ------- ----- -- ----<br>-------- ------- -- ---------- But - --- ----- ----- ----<br>---- --- --- ----- --- ---- ---- ------- ----- ---- -------<br>--- --- -- ----- -- --- ---- -- --- ---- -- ------ ------<br>--- ----- -- ----,100470.40000000596,100469.59999999404,99768.7,99774.40000000596,99776.553,100476.505,,22,But
screen,html.Screen,2_1_0_1_23,2022-02-18T13:07:22.261Z,,,,,,,,,,,,,,,,,53,,,,,,,,,,,,,,386.1949999880744,,response,,,,99,,,,,,,Space,keypress(Space),,,,,,,,---- -- ----- -- ------ - ------- --- ----------<br>------------- ------ ------ ---- ---- ------- ----- -- ----<br>-------- ------- -- ---------- --- a --- ----- ----- ----<br>---- --- --- ----- --- ---- ---- ------- ----- ---- -------<br>--- --- -- ----- -- --- ---- -- --- ---- -- ------ ------<br>--- ----- -- ----,100863.5,100862.69999998808,100468.792,100470.40000000596,100476.505,100868.189,,23,a
screen,html.Screen,2_1_0_1_24,2022-02-18T13:07:22.605Z,,,,,,,,,,,,,,,,,53,,,,,,,,,,,,,,338.3110000000015,,response,,,,99,,,,,,,Space,keypress(Space),,,,,,,,---- -- ----- -- ------ - ------- --- ----------<br>------------- ------ ------ ---- ---- ------- ----- -- ----<br>-------- ------- -- ---------- --- - new ----- ----- ----<br>---- --- --- ----- --- ---- ---- ------- ----- ---- -------<br>--- --- -- ----- -- --- ---- -- --- ---- -- ------ ------<br>--- ----- -- ----,101207.09999999404,101206.5,100859.925,100863.69999998808,100868.189,101209.879,,24,new
screen,html.Screen,2_1_0_1_25,2022-02-18T13:07:22.907Z,,,,,,,,,,,,,,,,,53,,,,,,,,,,,,,,298.9210000119201,,response,,,,99,,,,,,,Space,keypress(Space),,,,,,,,---- -- ----- -- ------ - ------- --- ----------<br>------------- ------ ------ ---- ---- ------- ----- -- ----<br>-------- ------- -- ---------- --- - --- study ----- ----<br>---- --- --- ----- --- ---- ---- ------- ----- ---- -------<br>--- --- -- ----- -- --- ---- -- --- ---- -- ------ ------<br>--- ----- -- ----,101509.69999998808,101508.80000001192,101201.739,101207.09999999404,101209.879,101518.222,,25,study
screen,html.Screen,2_1_0_1_26,2022-02-18T13:07:23.185Z,,,,,,,,,,,,,,,,,53,,,,,,,,,,,,,,268.4779999880848,,response,,,,99,,,,,,,Space,keypress(Space),,,,,,,,---- -- ----- -- ------ - ------- --- ----------<br>------------- ------ ------ ---- ---- ------- ----- -- ----<br>-------- ------- -- ---------- --- - --- ----- finds ----<br>---- --- --- ----- --- ---- ---- ------- ----- ---- -------<br>--- --- -- ----- -- --- ---- -- --- ---- -- ------ ------<br>--- ----- -- ----,101787.5,101786.69999998808,101509.92,101509.80000001192,101518.222,101793.19,,26,finds
screen,html.Screen,2_1_0_1_27,2022-02-18T13:07:23.509Z,,,,,,,,,,,,,,,,,53,,,,,,,,,,,,,,317.4099999940372,,response,,,,99,,,,,,,Space,keypress(Space),,,,,,,,---- -- ----- -- ------ - ------- --- ----------<br>------------- ------ ------ ---- ---- ------- ----- -- ----<br>-------- ------- -- ---------- --- - --- ----- ----- that<br>---- --- --- ----- --- ---- ---- ------- ----- ---- -------<br>--- --- -- ----- -- --- ---- -- --- ---- -- ------ ------<br>--- ----- -- ----,102111.30000001192,102110.59999999404,101784.969,101787.69999998808,101793.19,102118.171,,27,that
screen,html.Screen,2_1_0_1_28,2022-02-18T13:07:23.812Z,,,,,,,,,,,,,,,,,53,,,,,,,,,,,,,,295.528999988077,,response,,,,99,,,,,,,Space,keypress(Space),,,,,,,,---- -- ----- -- ------ - ------- --- ----------<br>------------- ------ ------ ---- ---- ------- ----- -- ----<br>-------- ------- -- ---------- --- - --- ----- ----- ----<br>it's --- --- ----- --- ---- ---- ------- ----- ---- -------<br>--- --- -- ----- -- --- ---- -- --- ---- -- ------ ------<br>--- ----- -- ----,102414.30000001192,102413.69999998808,102109.96,102111.5,102118.171,102418.204,,28,it's
screen,html.Screen,2_1_0_1_29,2022-02-18T13:07:24.105Z,,,,,,,,,,,,,,,,,53,,,,,,,,,,,,,,288.596000011923,,response,,,,99,,,,,,,Space,keypress(Space),,,,,,,,---- -- ----- -- ------ - ------- --- ----------<br>------------- ------ ------ ---- ---- ------- ----- -- ----<br>-------- ------- -- ---------- --- - --- ----- ----- ----<br>---- not --- ----- --- ---- ---- ------- ----- ---- -------<br>--- --- -- ----- -- --- ---- -- --- ---- -- ------ ------<br>--- ----- -- ----,102707.69999998808,102706.80000001192,102410.064,102414.40000000596,102418.204,102709.888,,29,not
screen,html.Screen,2_1_0_1_30,2022-02-18T13:07:24.378Z,,,,,,,,,,,,,,,,,53,,,,,,,,,,,,,,269.5120000059542,,response,,,,99,,,,,,,Space,keypress(Space),,,,,,,,---- -- ----- -- ------ - ------- --- ----------<br>------------- ------ ------ ---- ---- ------- ----- -- ----<br>-------- ------- -- ---------- --- - --- ----- ----- ----<br>---- --- how ----- --- ---- ---- ------- ----- ---- -------<br>--- --- -- ----- -- --- ---- -- --- ---- -- ------ ------<br>--- ----- -- ----,102979.90000000596,102979.40000000596,102701.746,102707.90000000596,102709.888,102984.893,,30,how
screen,html.Screen,2_1_0_1_31,2022-02-18T13:07:24.646Z,,,,,,,,,,,,,,,,,53,,,,,,,,,,,,,,263.0070000059641,,response,,,,99,,,,,,,Space,keypress(Space),,,,,,,,---- -- ----- -- ------ - ------- --- ----------<br>------------- ------ ------ ---- ---- ------- ----- -- ----<br>-------- ------- -- ---------- --- - --- ----- ----- ----<br>---- --- --- close --- ---- ---- ------- ----- ---- -------<br>--- --- -- ----- -- --- ---- -- --- ---- -- ------ ------<br>--- ----- -- ----,103248.80000001192,103247.90000000596,102977.07,102980,102984.893,103251.554,,31,close
screen,html.Screen,2_1_0_1_32,2022-02-18T13:07:24.956Z,,,,,,,,,,,,,,,,,53,,,,,,,,,,,,,,305.5459999940358,,response,,,,99,,,,,,,Space,keypress(Space),,,,,,,,---- -- ----- -- ------ - ------- --- ----------<br>------------- ------ ------ ---- ---- ------- ----- -- ----<br>-------- ------- -- ---------- --- - --- ----- ----- ----<br>---- --- --- ----- you ---- ---- ------- ----- ---- -------<br>--- --- -- ----- -- --- ---- -- --- ---- -- ------ ------<br>--- ----- -- ----,103558,103557.09999999404,103243.315,103248.90000000596,103251.554,103559.87,,32,you
screen,html.Screen,2_1_0_1_33,2022-02-18T13:07:25.235Z,,,,,,,,,,,,,,,,,53,,,,,,,,,,,,,,276.2299999940442,,response,,,,99,,,,,,,Space,keypress(Space),,,,,,,,---- -- ----- -- ------ - ------- --- ----------<br>------------- ------ ------ ---- ---- ------- ----- -- ----<br>-------- ------- -- ---------- --- - --- ----- ----- ----<br>---- --- --- ----- --- feel ---- ------- ----- ---- -------<br>--- --- -- ----- -- --- ---- -- --- ---- -- ------ ------<br>--- ----- -- ----,103836.80000001192,103836.09999999404,103551.603,103558.19999998808,103559.87,103843.351,,33,feel
screen,html.Screen,2_1_0_1_34,2022-02-18T13:07:25.522Z,,,,,,,,,,,,,,,,,53,,,,,,,,,,,,,,280.34899998808396,,response,,,,99,,,,,,,Space,keypress(Space),,,,,,,,---- -- ----- -- ------ - ------- --- ----------<br>------------- ------ ------ ---- ---- ------- ----- -- ----<br>-------- ------- -- ---------- --- - --- ----- ----- ----<br>---- --- --- ----- --- ---- that ------- ----- ---- -------<br>--- --- -- ----- -- --- ---- -- --- ---- -- ------ ------<br>--- ----- -- ----,104124.40000000596,104123.69999998808,103835.595,103836.90000000596,103843.351,104126.529,,34,that
screen,html.Screen,2_1_0_1_35,2022-02-18T13:07:25.805Z,,,,,,,,,,,,,,,,,53,,,,,,,,,,,,,,280.37100000596547,,response,,,,99,,,,,,,Space,keypress(Space),,,,,,,,---- -- ----- -- ------ - ------- --- ----------<br>------------- ------ ------ ---- ---- ------- ----- -- ----<br>-------- ------- -- ---------- --- - --- ----- ----- ----<br>---- --- --- ----- --- ---- ---- matters ----- ---- -------<br>--- --- -- ----- -- --- ---- -- --- ---- -- ------ ------<br>--- ----- -- ----,104407.69999998808,104406.90000000596,104118.977,104124.59999999404,104126.529,104409.878,,35,matters
screen,html.Screen,2_1_0_1_36,2022-02-18T13:07:26.124Z,,,,,,,,,,,,,,,,,53,,,,,,,,,,,,,,315.3219999880821,,response,,,,99,,,,,,,Space,keypress(Space),,,,,,,,"---- -- ----- -- ------ - ------- --- ----------<br>------------- ------ ------ ---- ---- ------- ----- -- ----<br>-------- ------- -- ---------- --- - --- ----- ----- ----<br>---- --- --- ----- --- ---- ---- ------- most, ---- -------<br>--- --- -- ----- -- --- ---- -- --- ---- -- ------ ------<br>--- ----- -- ----",104726.19999998808,104725.19999998808,104401.586,104407.90000000596,104409.878,104734.923,,36,"most,"
screen,html.Screen,2_1_0_1_37,2022-02-18T13:07:26.511Z,,,,,,,,,,,,,,,,,53,,,,,,,,,,,,,,377.8770000119257,,response,,,,99,,,,,,,Space,keypress(Space),,,,,,,,---- -- ----- -- ------ - ------- --- ----------<br>------------- ------ ------ ---- ---- ------- ----- -- ----<br>-------- ------- -- ---------- --- - --- ----- ----- ----<br>---- --- --- ----- --- ---- ---- ------- ----- it's -------<br>--- --- -- ----- -- --- ---- -- --- ---- -- ------ ------<br>--- ----- -- ----,105113.30000001192,105112.80000001192,104718.726,104726.40000000596,104734.923,105118.216,,37,it's
screen,html.Screen,2_1_0_1_38,2022-02-18T13:07:26.825Z,,,,,,,,,,,,,,,,,53,,,,,,,,,,,,,,308.1840000059601,,response,,,,99,,,,,,,Space,keypress(Space),,,,,,,,---- -- ----- -- ------ - ------- --- ----------<br>------------- ------ ------ ---- ---- ------- ----- -- ----<br>-------- ------- -- ---------- --- - --- ----- ----- ----<br>---- --- --- ----- --- ---- ---- ------- ----- ---- whether<br>--- --- -- ----- -- --- ---- -- --- ---- -- ------ ------<br>--- ----- -- ----,105427.09999999404,105426.40000000596,105110.382,105113.5,105118.216,105435.022,,38,whether
screen,html.Screen,2_1_0_1_39,2022-02-18T13:07:27.118Z,,,,,,,,,,,,,,,,,53,,,,,,,,,,,,,,284.2780000119237,,response,,,,99,,,,,,,Space,keypress(Space),,,,,,,,---- -- ----- -- ------ - ------- --- ----------<br>------------- ------ ------ ---- ---- ------- ----- -- ----<br>-------- ------- -- ---------- --- - --- ----- ----- ----<br>---- --- --- ----- --- ---- ---- ------- ----- ---- -------<br>you --- -- ----- -- --- ---- -- --- ---- -- ------ ------<br>--- ----- -- ----,105720,105719.30000001192,105419.883,105427.30000001192,105435.022,105726.649,,39,you
screen,html.Screen,2_1_0_1_40,2022-02-18T13:07:27.456Z,,,,,,,,,,,,,,,,,53,,,,,,,,,,,,,,330.95099999403465,,response,,,,99,,,,,,,Space,keypress(Space),,,,,,,,---- -- ----- -- ------ - ------- --- ----------<br>------------- ------ ------ ---- ---- ------- ----- -- ----<br>-------- ------- -- ---------- --- - --- ----- ----- ----<br>---- --- --- ----- --- ---- ---- ------- ----- ---- -------<br>--- are -- ----- -- --- ---- -- --- ---- -- ------ ------<br>--- ----- -- ----,106058.30000001192,106057.59999999404,105718.314,105720.09999999404,105726.649,106072.168,,40,are
screen,html.Screen,2_1_0_1_41,2022-02-18T13:07:27.714Z,,,,,,,,,,,,,,,,,53,,,,,,,,,,,,,,243.53199998807395,,response,,,,99,,,,,,,Space,keypress(Space),,,,,,,,---- -- ----- -- ------ - ------- --- ----------<br>------------- ------ ------ ---- ---- ------- ----- -- ----<br>-------- ------- -- ---------- --- - --- ----- ----- ----<br>---- --- --- ----- --- ---- ---- ------- ----- ---- -------<br>--- --- as ----- -- --- ---- -- --- ---- -- ------ ------<br>--- ----- -- ----,106316.40000000596,106315.69999998808,106052.018,106058.5,106072.168,106318.197,,41,as
screen,html.Screen,2_1_0_1_42,2022-02-18T13:07:28.061Z,,,,,,,,,,,,,,,,,53,,,,,,,,,,,,,,345.00299998807895,,response,,,,99,,,,,,,Space,keypress(Space),,,,,,,,---- -- ----- -- ------ - ------- --- ----------<br>------------- ------ ------ ---- ---- ------- ----- -- ----<br>-------- ------- -- ---------- --- - --- ----- ----- ----<br>---- --- --- ----- --- ---- ---- ------- ----- ---- -------<br>--- --- -- close -- --- ---- -- --- ---- -- ------ ------<br>--- ----- -- ----,106663.69999998808,106663.19999998808,106310.611,106316.5,106318.197,106668.229,,42,close
screen,html.Screen,2_1_0_1_43,2022-02-18T13:07:28.346Z,,,,,,,,,,,,,,,,,53,,,,,,,,,,,,,,278.97099998807244,,response,,,,99,,,,,,,Space,keypress(Space),,,,,,,,---- -- ----- -- ------ - ------- --- ----------<br>------------- ------ ------ ---- ---- ------- ----- -- ----<br>-------- ------- -- ---------- --- - --- ----- ----- ----<br>---- --- --- ----- --- ---- ---- ------- ----- ---- -------<br>--- --- -- ----- as --- ---- -- --- ---- -- ------ ------<br>--- ----- -- ----,106948.09999999404,106947.19999998808,106660.412,106663.90000000596,106668.229,106951.517,,43,as
screen,html.Screen,2_1_0_1_44,2022-02-18T13:07:28.644Z,,,,,,,,,,,,,,,,,53,,,,,,,,,,,,,,293.88300000595336,,response,,,,99,,,,,,,Space,keypress(Space),,,,,,,,---- -- ----- -- ------ - ------- --- ----------<br>------------- ------ ------ ---- ---- ------- ----- -- ----<br>-------- ------- -- ---------- --- - --- ----- ----- ----<br>---- --- --- ----- --- ---- ---- ------- ----- ---- -------<br>--- --- -- ----- -- you ---- -- --- ---- -- ------ ------<br>--- ----- -- ----,107246.09999999404,107245.40000000596,106944.462,106948.09999999404,106951.517,107251.929,,44,you
screen,html.Screen,2_1_0_1_45,2022-02-18T13:07:28.957Z,,,,,,,,,,,,,,,,,53,,,,,,,,,,,,,,306.5709999999963,,response,,,,99,,,,,,,Space,keypress(Space),,,,,,,,---- -- ----- -- ------ - ------- --- ----------<br>------------- ------ ------ ---- ---- ------- ----- -- ----<br>-------- ------- -- ---------- --- - --- ----- ----- ----<br>---- --- --- ----- --- ---- ---- ------- ----- ---- -------<br>--- --- -- ----- -- --- want -- --- ---- -- ------ ------<br>--- ----- -- ----,107559.19999998808,107558.5,107243.436,107246.30000001192,107251.929,107568.316,,45,want
screen,html.Screen,2_1_0_1_46,2022-02-18T13:07:29.240Z,,,,,,,,,,,,,,,,,53,,,,,,,,,,,,,,273.68399999999383,,response,,,,99,,,,,,,Space,keypress(Space),,,,,,,,---- -- ----- -- ------ - ------- --- ----------<br>------------- ------ ------ ---- ---- ------- ----- -- ----<br>-------- ------- -- ---------- --- - --- ----- ----- ----<br>---- --- --- ----- --- ---- ---- ------- ----- ---- -------<br>--- --- -- ----- -- --- ---- to --- ---- -- ------ ------<br>--- ----- -- ----,107842.69999998808,107842,107551.651,107559.30000001192,107568.316,107851.986,,46,to
screen,html.Screen,2_1_0_1_47,2022-02-18T13:07:29.525Z,,,,,,,,,,,,,,,,,53,,,,,,,,,,,,,,274.1139999940351,,response,,,,99,,,,,,,Space,keypress(Space),,,,,,,,"---- -- ----- -- ------ - ------- --- ----------<br>------------- ------ ------ ---- ---- ------- ----- -- ----<br>-------- ------- -- ---------- --- - --- ----- ----- ----<br>---- --- --- ----- --- ---- ---- ------- ----- ---- -------<br>--- --- -- ----- -- --- ---- -- be, ---- -- ------ ------<br>--- ----- -- ----",108126.90000000596,108126.09999999404,107843.36,107842.90000000596,107851.986,108134.912,,47,"be,"
screen,html.Screen,2_1_0_1_48,2022-02-18T13:07:29.832Z,,,,,,,,,,,,,,,,,53,,,,,,,,,,,,,,298.5880000000034,,response,,,,99,,,,,,,Space,keypress(Space),,,,,,,,---- -- ----- -- ------ - ------- --- ----------<br>------------- ------ ------ ---- ---- ------- ----- -- ----<br>-------- ------- -- ---------- --- - --- ----- ----- ----<br>---- --- --- ----- --- ---- ---- ------- ----- ---- -------<br>--- --- -- ----- -- --- ---- -- --- even -- ------ ------<br>--- ----- -- ----,108434.09999999404,108433.5,108127.021,108127,108134.912,108451.504,,48,even
screen,html.Screen,2_1_0_1_49,2022-02-18T13:07:30.109Z,,,,,,,,,,,,,,,,,53,,,,,,,,,,,,,,259.4959999999992,,response,,,,99,,,,,,,Space,keypress(Space),,,,,,,,---- -- ----- -- ------ - ------- --- ----------<br>------------- ------ ------ ---- ---- ------- ----- -- ----<br>-------- ------- -- ---------- --- - --- ----- ----- ----<br>---- --- --- ----- --- ---- ---- ------- ----- ---- -------<br>--- --- -- ----- -- --- ---- -- --- ---- if ------ ------<br>--- ----- -- ----,108711.5,108711,108443.761,108434.19999998808,108451.504,108718.203,,49,if
screen,html.Screen,2_1_0_1_50,2022-02-18T13:07:30.404Z,,,,,,,,,,,,,,,,,53,,,,,,,,,,,,,,286.8969999940455,,response,,,,99,,,,,,,Space,keypress(Space),,,,,,,,---- -- ----- -- ------ - ------- --- ----------<br>------------- ------ ------ ---- ---- ------- ----- -- ----<br>-------- ------- -- ---------- --- - --- ----- ----- ----<br>---- --- --- ----- --- ---- ---- ------- ----- ---- -------<br>--- --- -- ----- -- --- ---- -- --- ---- -- that's ------<br>--- ----- -- ----,109006,109005.09999999404,108710.353,108711.5,108718.203,109009.868,,50,that's
screen,html.Screen,2_1_0_1_51,2022-02-18T13:07:30.682Z,,,,,,,,,,,,,,,,,53,,,,,,,,,,,,,,273.4320000119187,,response,,,,99,,,,,,,Space,keypress(Space),,,,,,,,---- -- ----- -- ------ - ------- --- ----------<br>------------- ------ ------ ---- ---- ------- ----- -- ----<br>-------- ------- -- ---------- --- - --- ----- ----- ----<br>---- --- --- ----- --- ---- ---- ------- ----- ---- -------<br>--- --- -- ----- -- --- ---- -- --- ---- -- ------ really<br>--- ----- -- ----,109284.09999999404,109283.30000001192,109001.796,109006.19999998808,109009.868,109293.317,,51,really
screen,html.Screen,2_1_0_1_52,2022-02-18T13:07:31.049Z,,,,,,,,,,,,,,,,,53,,,,,,,,,,,,,,357.8829999880836,,response,,,,99,,,,,,,Space,keypress(Space),,,,,,,,---- -- ----- -- ------ - ------- --- ----------<br>------------- ------ ------ ---- ---- ------- ----- -- ----<br>-------- ------- -- ---------- --- - --- ----- ----- ----<br>---- --- --- ----- --- ---- ---- ------- ----- ---- -------<br>--- --- -- ----- -- --- ---- -- --- ---- -- ------ ------<br>not ----- -- ----,109651.59999999404,109651.19999998808,109276.957,109284.30000001192,109293.317,109659.901,,52,not
screen,html.Screen,2_1_0_1_53,2022-02-18T13:07:31.358Z,,,,,,,,,,,,,,,,,53,,,,,,,,,,,,,,299.29899998808105,,response,,,,99,,,,,,,Space,keypress(Space),,,,,,,,---- -- ----- -- ------ - ------- --- ----------<br>------------- ------ ------ ---- ---- ------- ----- -- ----<br>-------- ------- -- ---------- --- - --- ----- ----- ----<br>---- --- --- ----- --- ---- ---- ------- ----- ---- -------<br>--- --- -- ----- -- --- ---- -- --- ---- -- ------ ------<br>--- close -- ----,109959.80000001192,109959.19999998808,109651.607,109651.69999998808,109659.901,109968.288,,53,close
screen,html.Screen,2_1_0_1_54,2022-02-18T13:07:31.686Z,,,,,,,,,,,,,,,,,53,,,,,,,,,,,,,,319.11200000596,,response,,,,99,,,,,,,Space,keypress(Space),,,,,,,,---- -- ----- -- ------ - ------- --- ----------<br>------------- ------ ------ ---- ---- ------- ----- -- ----<br>-------- ------- -- ---------- --- - --- ----- ----- ----<br>---- --- --- ----- --- ---- ---- ------- ----- ---- -------<br>--- --- -- ----- -- --- ---- -- --- ---- -- ------ ------<br>--- ----- at ----,110288,110287.40000000596,109960.365,109959.90000000596,109968.288,110293.181,,54,at
screen,html.Screen,2_1_0_1_55,2022-02-18T13:07:31.994Z,,,,,,,,,,,,,,,,,53,,,,,,,,,,,,,,302.7190000059636,,response,,,,99,,,,,,,Space,keypress(Space),,,,,,,,---- -- ----- -- ------ - ------- --- ----------<br>------------- ------ ------ ---- ---- ------- ----- -- ----<br>-------- ------- -- ---------- --- - --- ----- ----- ----<br>---- --- --- ----- --- ---- ---- ------- ----- ---- -------<br>--- --- -- ----- -- --- ---- -- --- ---- -- ------ ------<br>--- ----- -- all.,110596.59999999404,110595.90000000596,110285.358,110288.19999998808,110293.181,110601.577,,55,all.
Item 99,flow.Loop,2_1_0_1,2022-02-18T13:07:31.995Z,,,,,,,,,,,,,,,,,,,,,,,,,,,,,,,20861.03200000596,,completion,,,,,F,,,,,,,,,,,silence,,,,,110597,110595.90000000596,89726.531,89727.5,89734.868,110601.577,,,
Question 1,html.Screen,2_1_0_2,2022-02-18T13:07:36.033Z,,,,,,,,,,,,,,,,,,,,,,,,,,,,true,FALSE,,4032.5229999940348,,response,,,,99,F,,,,,,FALSE,click #choice-2,,,,silence,,,,,114635.19999998808,114634.09999999404,110593.234,110597,110601.577,114643.178,,,
Question 2,html.Screen,2_1_0_3,2022-02-18T13:07:40.796Z,,,,,,,,,,,,,,,,,,,,,,,,,,,,true,TRUE,,4753.42199999404,,response,,,,99,F,,,,,,TRUE,click #choice-1,,,,silence,,,,,119397.80000001192,119396.59999999404,114634.894,114635.30000001192,114643.178,119402.028,,,
Item 99,flow.Sequence,2_1_0,2022-02-18T13:07:40.796Z,,,,,,,,,,,,,,,,,,,,,,,,,,,,,,,39660.180999994045,,completion,,,,,,,,,,,,,,,,,,,,,119398,119396.59999999404,79709.945,79718.5,79736.419,119402.028,,,
Holding screen,html.Screen,2_1_1_0,2022-02-18T13:07:50.791Z,,,,,,,,,,,,,,,,,,,,,,,,,,,,,,,9999.467999999993,,timeout,,,,,,,,,,,,,,,,,,,,,129394.09999999404,129393.543,119393.243,119398.09999999404,119402.028,129401.496,,,
screen,html.Screen,2_1_1_1_0,2022-02-18T13:07:51.200Z,,,,,,,,,,,,,,,,,54,,,,,,,,,,,,,,400.9040000059613,,response,,,,100,,,,,,,Space,keypress(Space),,,,,,,,At --- ---- --- ------ ----- ------- ---- -- --- ------- --<br>------- ---------- ------ -- ----- -- ----- -- ---- ------<br>--- ----- --- --- ------ -------- ----- --- ------ ----- --<br>----- ----- ---------- --- --- ------ ------ ---- -- ------<br>------- --- ------ ----- --- ---- ------- -- ---- --- --<br>------- ------,129803,129802.40000000596,129393.543,129394.40000000596,129401.496,129810.266,,0,At
screen,html.Screen,2_1_1_1_1,2022-02-18T13:07:51.543Z,,,,,,,,,,,,,,,,,54,,,,,,,,,,,,,,335.03400001191767,,response,,,,100,,,,,,,Space,keypress(Space),,,,,,,,-- the ---- --- ------ ----- ------- ---- -- --- ------- --<br>------- ---------- ------ -- ----- -- ----- -- ---- ------<br>--- ----- --- --- ------ -------- ----- --- ------ ----- --<br>----- ----- ---------- --- --- ------ ------ ---- -- ------<br>------- --- ------ ----- --- ---- ------- -- ---- --- --<br>------- ------,130145.90000000596,130145.30000001192,129801.579,129803.09999999404,129810.266,130151.503,,1,the
screen,html.Screen,2_1_1_1_2,2022-02-18T13:07:51.877Z,,,,,,,,,,,,,,,,,54,,,,,,,,,,,,,,327.79700001192396,,response,,,,100,,,,,,,Space,keypress(Space),,,,,,,,-- --- time --- ------ ----- ------- ---- -- --- ------- --<br>------- ---------- ------ -- ----- -- ----- -- ---- ------<br>--- ----- --- --- ------ -------- ----- --- ------ ----- --<br>----- ----- ---------- --- --- ------ ------ ---- -- ------<br>------- --- ------ ----- --- ---- ------- -- ---- --- --<br>------- ------,130479.69999998808,130479.30000001192,130143.662,130146.09999999404,130151.503,130484.837,,2,time
screen,html.Screen,2_1_1_1_3,2022-02-18T13:07:52.208Z,,,,,,,,,,,,,,,,,54,,,,,,,,,,,,,,325.9630000119214,,response,,,,100,,,,,,,Space,keypress(Space),,,,,,,,-- --- ---- the ------ ----- ------- ---- -- --- ------- --<br>------- ---------- ------ -- ----- -- ----- -- ---- ------<br>--- ----- --- --- ------ -------- ----- --- ------ ----- --<br>----- ----- ---------- --- --- ------ ------ ---- -- ------<br>------- --- ------ ----- --- ---- ------- -- ---- --- --<br>------- ------,130811.19999998808,130810.80000001192,130477.853,130479.90000000596,130484.837,130818.158,,3,the
screen,html.Screen,2_1_1_1_4,2022-02-18T13:07:52.577Z,,,,,,,,,,,,,,,,,54,,,,,,,,,,,,,,361.04199998808326,,response,,,,100,,,,,,,Space,keypress(Space),,,,,,,,-- --- ---- --- French ----- ------- ---- -- --- ------- --<br>------- ---------- ------ -- ----- -- ----- -- ---- ------<br>--- ----- --- --- ------ -------- ----- --- ------ ----- --<br>----- ----- ---------- --- --- ------ ------ ---- -- ------<br>------- --- ------ ----- --- ---- ------- -- ---- --- --<br>------- ------,131179.80000001192,131179.19999998808,130809.857,130811.19999998808,130818.158,131184.889,,4,French
screen,html.Screen,2_1_1_1_5,2022-02-18T13:07:52.905Z,,,,,,,,,,,,,,,,,54,,,,,,,,,,,,,,322.6110000000044,,response,,,,100,,,,,,,Space,keypress(Space),,,,,,,,-- --- ---- --- ------ crown ------- ---- -- --- ------- --<br>------- ---------- ------ -- ----- -- ----- -- ---- ------<br>--- ----- --- --- ------ -------- ----- --- ------ ----- --<br>----- ----- ---------- --- --- ------ ------ ---- -- ------<br>------- --- ------ ----- --- ---- ------- -- ---- --- --<br>------- ------,131508.09999999404,131507.5,131177.007,131179.90000000596,131184.889,131520.509,,5,crown
screen,html.Screen,2_1_1_1_6,2022-02-18T13:07:53.232Z,,,,,,,,,,,,,,,,,54,,,,,,,,,,,,,,313.69099998808815,,response,,,,100,,,,,,,Space,keypress(Space),,,,,,,,-- --- ---- --- ------ ----- secured ---- -- --- ------- --<br>------- ---------- ------ -- ----- -- ----- -- ---- ------<br>--- ----- --- --- ------ -------- ----- --- ------ ----- --<br>----- ----- ---------- --- --- ------ ------ ---- -- ------<br>------- --- ------ ----- --- ---- ------- -- ---- --- --<br>------- ------,131834.90000000596,131834.19999998808,131501.83,131508.19999998808,131520.509,131843.225,,6,secured
screen,html.Screen,2_1_1_1_7,2022-02-18T13:07:53.556Z,,,,,,,,,,,,,,,,,54,,,,,,,,,,,,,,315.2749999999942,,response,,,,100,,,,,,,Space,keypress(Space),,,,,,,,-- --- ---- --- ------ ----- ------- much -- --- ------- --<br>------- ---------- ------ -- ----- -- ----- -- ---- ------<br>--- ----- --- --- ------ -------- ----- --- ------ ----- --<br>----- ----- ---------- --- --- ------ ------ ---- -- ------<br>------- --- ------ ----- --- ---- ------- -- ---- --- --<br>------- ------,132159.40000000596,132158.5,131835.209,131835.09999999404,131843.225,132168.628,,7,much
screen,html.Screen,2_1_1_1_8,2022-02-18T13:07:53.839Z,,,,,,,,,,,,,,,,,54,,,,,,,,,,,,,,272.372000000003,,response,,,,100,,,,,,,Space,keypress(Space),,,,,,,,-- --- ---- --- ------ ----- ------- ---- of --- ------- --<br>------- ---------- ------ -- ----- -- ----- -- ---- ------<br>--- ----- --- --- ------ -------- ----- --- ------ ----- --<br>----- ----- ---------- --- --- ------ ------ ---- -- ------<br>------- --- ------ ----- --- ---- ------- -- ---- --- --<br>------- ------,132441.40000000596,132441,132160.007,132159.40000000596,132168.628,132443.194,,8,of
screen,html.Screen,2_1_1_1_9,2022-02-18T13:07:54.118Z,,,,,,,,,,,,,,,,,54,,,,,,,,,,,,,,276.60600001193234,,response,,,,100,,,,,,,Space,keypress(Space),,,,,,,,-- --- ---- --- ------ ----- ------- ---- -- its ------- --<br>------- ---------- ------ -- ----- -- ----- -- ---- ------<br>--- ----- --- --- ------ -------- ----- --- ------ ----- --<br>----- ----- ---------- --- --- ------ ------ ---- -- ------<br>------- --- ------ ----- --- ---- ------- -- ---- --- --<br>------- ------,132720.59999999404,132719.80000001192,132435.45,132441.59999999404,132443.194,132726.561,,9,its
screen,html.Screen,2_1_1_1_10,2022-02-18T13:07:54.397Z,,,,,,,,,,,,,,,,,54,,,,,,,,,,,,,,273.0389999940526,,response,,,,100,,,,,,,Space,keypress(Space),,,,,,,,-- --- ---- --- ------ ----- ------- ---- -- --- revenue --<br>------- ---------- ------ -- ----- -- ----- -- ---- ------<br>--- ----- --- --- ------ -------- ----- --- ------ ----- --<br>----- ----- ---------- --- --- ------ ------ ---- -- ------<br>------- --- ------ ----- --- ---- ------- -- ---- --- --<br>------- ------,133000.30000001192,132999.59999999404,132718.615,132720.69999998808,132726.561,133019.678,,10,revenue
screen,html.Screen,2_1_1_1_11,2022-02-18T13:07:54.685Z,,,,,,,,,,,,,,,,,54,,,,,,,,,,,,,,266.82199999998556,,response,,,,100,,,,,,,Space,keypress(Space),,,,,,,,-- --- ---- --- ------ ----- ------- ---- -- --- ------- by<br>------- ---------- ------ -- ----- -- ----- -- ---- ------<br>--- ----- --- --- ------ -------- ----- --- ------ ----- --<br>----- ----- ---------- --- --- ------ ------ ---- -- ------<br>------- --- ------ ----- --- ---- ------- -- ---- --- --<br>------- ------,133287.30000001192,133286.5,132993.499,133000.5,133019.678,133293.348,,11,by
screen,html.Screen,2_1_1_1_12,2022-02-18T13:07:54.978Z,,,,,,,,,,,,,,,,,54,,,,,,,,,,,,,,286.2519999940414,,response,,,,100,,,,,,,Space,keypress(Space),,,,,,,,-- --- ---- --- ------ ----- ------- ---- -- --- ------- --<br>issuing ---------- ------ -- ----- -- ----- -- ---- ------<br>--- ----- --- --- ------ -------- ----- --- ------ ----- --<br>----- ----- ---------- --- --- ------ ------ ---- -- ------<br>------- --- ------ ----- --- ---- ------- -- ---- --- --<br>------- ------,133580.5,133579.59999999404,133284.901,133287.40000000596,133293.348,133585.476,,12,issuing
screen,html.Screen,2_1_1_1_13,2022-02-18T13:07:55.321Z,,,,,,,,,,,,,,,,,54,,,,,,,,,,,,,,337.6239999940444,,response,,,,100,,,,,,,Space,keypress(Space),,,,,,,,-- --- ---- --- ------ ----- ------- ---- -- --- ------- --<br>------- government ------ -- ----- -- ----- -- ---- ------<br>--- ----- --- --- ------ -------- ----- --- ------ ----- --<br>----- ----- ---------- --- --- ------ ------ ---- -- ------<br>------- --- ------ ----- --- ---- ------- -- ---- --- --<br>------- ------,133923.69999998808,133923.09999999404,133576.528,133580.59999999404,133585.476,133926.502,,13,government
screen,html.Screen,2_1_1_1_14,2022-02-18T13:07:55.614Z,,,,,,,,,,,,,,,,,54,,,,,,,,,,,,,,289.29800001191325,,response,,,,100,,,,,,,Space,keypress(Space),,,,,,,,-- --- ---- --- ------ ----- ------- ---- -- --- ------- --<br>------- ---------- bonds. -- ----- -- ----- -- ---- ------<br>--- ----- --- --- ------ -------- ----- --- ------ ----- --<br>----- ----- ---------- --- --- ------ ------ ---- -- ------<br>------- --- ------ ----- --- ---- ------- -- ---- --- --<br>------- ------,134216.40000000596,134215.80000001192,133918.394,133923.90000000596,133926.502,134218.179,,14,bonds.
screen,html.Screen,2_1_1_1_15,2022-02-18T13:07:56.057Z,,,,,,,,,,,,,,,,,54,,,,,,,,,,,,,,440.8209999999963,,response,,,,100,,,,,,,Space,keypress(Space),,,,,,,,-- --- ---- --- ------ ----- ------- ---- -- --- ------- --<br>------- ---------- ------ In ----- -- ----- -- ---- ------<br>--- ----- --- --- ------ -------- ----- --- ------ ----- --<br>----- ----- ---------- --- --- ------ ------ ---- -- ------<br>------- --- ------ ----- --- ---- ------- -- ---- --- --<br>------- ------,134659.59999999404,134659,134209.948,134216.5,134218.179,134668.788,,15,In
screen,html.Screen,2_1_1_1_16,2022-02-18T13:07:56.339Z,,,,,,,,,,,,,,,,,54,,,,,,,,,,,,,,272.61200000596,,response,,,,100,,,,,,,Space,keypress(Space),,,,,,,,"-- --- ---- --- ------ ----- ------- ---- -- --- ------- --<br>------- ---------- ------ -- 1727, -- ----- -- ---- ------<br>--- ----- --- --- ------ -------- ----- --- ------ ----- --<br>----- ----- ---------- --- --- ------ ------ ---- -- ------<br>------- --- ------ ----- --- ---- ------- -- ---- --- --<br>------- ------",134942.09999999404,134941.40000000596,134652.093,134659.80000001192,134668.788,134962.179,,16,"1727,"
screen,html.Screen,2_1_1_1_17,2022-02-18T13:07:56.948Z,,,,,,,,,,,,,,,,,54,,,,,,,,,,,,,,587.6210000119172,,response,,,,100,,,,,,,Space,keypress(Space),,,,,,,,-- --- ---- --- ------ ----- ------- ---- -- --- ------- --<br>------- ---------- ------ -- ----- in ----- -- ---- ------<br>--- ----- --- --- ------ -------- ----- --- ------ ----- --<br>----- ----- ---------- --- --- ------ ------ ---- -- ------<br>------- --- ------ ----- --- ---- ------- -- ---- --- --<br>------- ------,135550.30000001192,135549.80000001192,134935.348,134942.19999998808,134962.179,135565.306,,17,in
screen,html.Screen,2_1_1_1_18,2022-02-18T13:07:57.365Z,,,,,,,,,,,,,,,,,54,,,,,,,,,,,,,,401.89399998806766,,response,,,,100,,,,,,,Space,keypress(Space),,,,,,,,-- --- ---- --- ------ ----- ------- ---- -- --- ------- --<br>------- ---------- ------ -- ----- -- order -- ---- ------<br>--- ----- --- --- ------ -------- ----- --- ------ ----- --<br>----- ----- ---------- --- --- ------ ------ ---- -- ------<br>------- --- ------ ----- --- ---- ------- -- ---- --- --<br>------- ------,135968,135967.19999998808,135543.762,135550.40000000596,135565.306,135977.057,,18,order
screen,html.Screen,2_1_1_1_19,2022-02-18T13:07:57.697Z,,,,,,,,,,,,,,,,,54,,,,,,,,,,,,,,322.04299999403884,,response,,,,100,,,,,,,Space,keypress(Space),,,,,,,,-- --- ---- --- ------ ----- ------- ---- -- --- ------- --<br>------- ---------- ------ -- ----- -- ----- to ---- ------<br>--- ----- --- --- ------ -------- ----- --- ------ ----- --<br>----- ----- ---------- --- --- ------ ------ ---- -- ------<br>------- --- ------ ----- --- ---- ------- -- ---- --- --<br>------- ------,136299.90000000596,136299.09999999404,135960.399,135968.09999999404,135977.057,136301.525,,19,to
screen,html.Screen,2_1_1_1_20,2022-02-18T13:07:57.985Z,,,,,,,,,,,,,,,,,54,,,,,,,,,,,,,,285.9750000000058,,response,,,,100,,,,,,,Space,keypress(Space),,,,,,,,-- --- ---- --- ------ ----- ------- ---- -- --- ------- --<br>------- ---------- ------ -- ----- -- ----- -- save ------<br>--- ----- --- --- ------ -------- ----- --- ------ ----- --<br>----- ----- ---------- --- --- ------ ------ ---- -- ------<br>------- --- ------ ----- --- ---- ------- -- ---- --- --<br>------- ------,136588.30000001192,136587.5,136293.862,136300,136301.525,136593.348,,20,save
screen,html.Screen,2_1_1_1_21,2022-02-18T13:07:58.304Z,,,,,,,,,,,,,,,,,54,,,,,,,,,,,,,,312.5520000059623,,response,,,,100,,,,,,,Space,keypress(Space),,,,,,,,"-- --- ---- --- ------ ----- ------- ---- -- --- ------- --<br>------- ---------- ------ -- ----- -- ----- -- ---- money,<br>--- ----- --- --- ------ -------- ----- --- ------ ----- --<br>----- ----- ---------- --- --- ------ ------ ---- -- ------<br>------- --- ------ ----- --- ---- ------- -- ---- --- --<br>------- ------",136906.30000001192,136905.90000000596,136585.156,136588.5,136593.348,136909.854,,21,"money,"
screen,html.Screen,2_1_1_1_22,2022-02-18T13:07:58.641Z,,,,,,,,,,,,,,,,,54,,,,,,,,,,,,,,333.6460000000079,,response,,,,100,,,,,,,Space,keypress(Space),,,,,,,,-- --- ---- --- ------ ----- ------- ---- -- --- ------- --<br>------- ---------- ------ -- ----- -- ----- -- ---- ------<br>the ----- --- --- ------ -------- ----- --- ------ ----- --<br>----- ----- ---------- --- --- ------ ------ ---- -- ------<br>------- --- ------ ----- --- ---- ------- -- ---- --- --<br>------- ------,137244.09999999404,137243.5,136901.661,136906.5,136909.854,137252.115,,22,the
screen,html.Screen,2_1_1_1_23,2022-02-18T13:07:59.024Z,,,,,,,,,,,,,,,,,54,,,,,,,,,,,,,,374.5849999880884,,response,,,,100,,,,,,,Space,keypress(Space),,,,,,,,-- --- ---- --- ------ ----- ------- ---- -- --- ------- --<br>------- ---------- ------ -- ----- -- ----- -- ---- ------<br>--- state --- --- ------ -------- ----- --- ------ ----- --<br>----- ----- ---------- --- --- ------ ------ ---- -- ------<br>------- --- ------ ----- --- ---- ------- -- ---- --- --<br>------- ------,137627.30000001192,137626.69999998808,137236.423,137244.19999998808,137252.115,137635.43,,23,state
screen,html.Screen,2_1_1_1_24,2022-02-18T13:07:59.382Z,,,,,,,,,,,,,,,,,54,,,,,,,,,,,,,,349.3700000119279,,response,,,,100,,,,,,,Space,keypress(Space),,,,,,,,-- --- ---- --- ------ ----- ------- ---- -- --- ------- --<br>------- ---------- ------ -- ----- -- ----- -- ---- ------<br>--- ----- cut --- ------ -------- ----- --- ------ ----- --<br>----- ----- ---------- --- --- ------ ------ ---- -- ------<br>------- --- ------ ----- --- ---- ------- -- ---- --- --<br>------- ------,137985.30000001192,137984.80000001192,137627.066,137627.40000000596,137635.43,137993.165,,24,cut
screen,html.Screen,2_1_1_1_25,2022-02-18T13:07:59.666Z,,,,,,,,,,,,,,,,,54,,,,,,,,,,,,,,274.5349999880709,,response,,,,100,,,,,,,Space,keypress(Space),,,,,,,,-- --- ---- --- ------ ----- ------- ---- -- --- ------- --<br>------- ---------- ------ -- ----- -- ----- -- ---- ------<br>--- ----- --- the ------ -------- ----- --- ------ ----- --<br>----- ----- ---------- --- --- ------ ------ ---- -- ------<br>------- --- ------ ----- --- ---- ------- -- ---- --- --<br>------- ------,138268.5,138267.69999998808,137985.499,137985.30000001192,137993.165,138276.757,,25,the
screen,html.Screen,2_1_1_1_26,2022-02-18T13:07:59.964Z,,,,,,,,,,,,,,,,,54,,,,,,,,,,,,,,289.24299999998766,,response,,,,100,,,,,,,Space,keypress(Space),,,,,,,,-- --- ---- --- ------ ----- ------- ---- -- --- ------- --<br>------- ---------- ------ -- ----- -- ----- -- ---- ------<br>--- ----- --- --- bonds' -------- ----- --- ------ ----- --<br>----- ----- ---------- --- --- ------ ------ ---- -- ------<br>------- --- ------ ----- --- ---- ------- -- ---- --- --<br>------- ------,138566.59999999404,138566,138268.352,138268.59999999404,138276.757,138568.209,,26,bonds'
screen,html.Screen,2_1_1_1_27,2022-02-18T13:08:00.287Z,,,,,,,,,,,,,,,,,54,,,,,,,,,,,,,,320.6910000059579,,response,,,,100,,,,,,,Space,keypress(Space),,,,,,,,-- --- ---- --- ------ ----- ------- ---- -- --- ------- --<br>------- ---------- ------ -- ----- -- ----- -- ---- ------<br>--- ----- --- --- ------ interest ----- --- ------ ----- --<br>----- ----- ---------- --- --- ------ ------ ---- -- ------<br>------- --- ------ ----- --- ---- ------- -- ---- --- --<br>------- ------,138889.5,138888.90000000596,138560.286,138566.69999998808,138568.209,138893.193,,27,interest
screen,html.Screen,2_1_1_1_28,2022-02-18T13:08:00.610Z,,,,,,,,,,,,,,,,,54,,,,,,,,,,,,,,319.00699998807977,,response,,,,100,,,,,,,Space,keypress(Space),,,,,,,,-- --- ---- --- ------ ----- ------- ---- -- --- ------- --<br>------- ---------- ------ -- ----- -- ----- -- ---- ------<br>--- ----- --- --- ------ -------- rate. --- ------ ----- --<br>----- ----- ---------- --- --- ------ ------ ---- -- ------<br>------- --- ------ ----- --- ---- ------- -- ---- --- --<br>------- ------,139212.69999998808,139212.19999998808,138885.384,138889.5,138893.193,139218.171,,28,rate.
screen,html.Screen,2_1_1_1_29,2022-02-18T13:08:00.932Z,,,,,,,,,,,,,,,,,54,,,,,,,,,,,,,,316.12900001191883,,response,,,,100,,,,,,,Space,keypress(Space),,,,,,,,-- --- ---- --- ------ ----- ------- ---- -- --- ------- --<br>------- ---------- ------ -- ----- -- ----- -- ---- ------<br>--- ----- --- --- ------ -------- ----- The ------ ----- --<br>----- ----- ---------- --- --- ------ ------ ---- -- ------<br>------- --- ------ ----- --- ---- ------- -- ---- --- --<br>------- ------,139534.69999998808,139534.30000001192,139210.055,139212.90000000596,139218.171,139543.416,,29,The
screen,html.Screen,2_1_1_1_30,2022-02-18T13:08:01.271Z,,,,,,,,,,,,,,,,,54,,,,,,,,,,,,,,329.58400000000256,,response,,,,100,,,,,,,Space,keypress(Space),,,,,,,,-- --- ---- --- ------ ----- ------- ---- -- --- ------- --<br>------- ---------- ------ -- ----- -- ----- -- ---- ------<br>--- ----- --- --- ------ -------- ----- --- market ----- --<br>----- ----- ---------- --- --- ------ ------ ---- -- ------<br>------- --- ------ ----- --- ---- ------- -- ---- --- --<br>------- ------,139873.69999998808,139873,139534.97,139534.90000000596,139543.416,139876.491,,30,market
screen,html.Screen,2_1_1_1_31,2022-02-18T13:08:01.584Z,,,,,,,,,,,,,,,,,54,,,,,,,,,,,,,,309.9090000059514,,response,,,,100,,,,,,,Space,keypress(Space),,,,,,,,-- --- ---- --- ------ ----- ------- ---- -- --- ------- --<br>------- ---------- ------ -- ----- -- ----- -- ---- ------<br>--- ----- --- --- ------ -------- ----- --- ------ value --<br>----- ----- ---------- --- --- ------ ------ ---- -- ------<br>------- --- ------ ----- --- ---- ------- -- ---- --- --<br>------- ------,140186.90000000596,140186.40000000596,139868.35,139873.80000001192,139876.491,140193.2,,31,value
screen,html.Screen,2_1_1_1_32,2022-02-18T13:08:01.852Z,,,,,,,,,,,,,,,,,54,,,,,,,,,,,,,,260.8999999940279,,response,,,,100,,,,,,,Space,keypress(Space),,,,,,,,-- --- ---- --- ------ ----- ------- ---- -- --- ------- --<br>------- ---------- ------ -- ----- -- ----- -- ---- ------<br>--- ----- --- --- ------ -------- ----- --- ------ ----- of<br>----- ----- ---------- --- --- ------ ------ ---- -- ------<br>------- --- ------ ----- --- ---- ------- -- ---- --- --<br>------- ------,140454.5,140454.09999999404,140185.03,140187.09999999404,140193.2,140460.23,,32,of
screen,html.Screen,2_1_1_1_33,2022-02-18T13:08:02.176Z,,,,,,,,,,,,,,,,,54,,,,,,,,,,,,,,318.17000000595,,response,,,,100,,,,,,,Space,keypress(Space),,,,,,,,-- --- ---- --- ------ ----- ------- ---- -- --- ------- --<br>------- ---------- ------ -- ----- -- ----- -- ---- ------<br>--- ----- --- --- ------ -------- ----- --- ------ ----- --<br>these ----- ---------- --- --- ------ ------ ---- -- ------<br>------- --- ------ ----- --- ---- ------- -- ---- --- --<br>------- ------,140778.90000000596,140778.40000000596,140451.628,140454.59999999404,140460.23,140784.853,,33,these
screen,html.Screen,2_1_1_1_34,2022-02-18T13:08:02.478Z,,,,,,,,,,,,,,,,,54,,,,,,,,,,,,,,295.74699999403674,,response,,,,100,,,,,,,Space,keypress(Space),,,,,,,,-- --- ---- --- ------ ----- ------- ---- -- --- ------- --<br>------- ---------- ------ -- ----- -- ----- -- ---- ------<br>--- ----- --- --- ------ -------- ----- --- ------ ----- --<br>----- bonds ---------- --- --- ------ ------ ---- -- ------<br>------- --- ------ ----- --- ---- ------- -- ---- --- --<br>------- ------,141081.19999998808,141080.59999999404,140777.825,140779,140784.853,141084.857,,34,bonds
screen,html.Screen,2_1_1_1_35,2022-02-18T13:08:02.767Z,,,,,,,,,,,,,,,,,54,,,,,,,,,,,,,,284.5430000059714,,response,,,,100,,,,,,,Space,keypress(Space),,,,,,,,"-- --- ---- --- ------ ----- ------- ---- -- --- ------- --<br>------- ---------- ------ -- ----- -- ----- -- ---- ------<br>--- ----- --- --- ------ -------- ----- --- ------ ----- --<br>----- ----- plummeted, --- --- ------ ------ ---- -- ------<br>------- --- ------ ----- --- ---- ------- -- ---- --- --<br>------- ------",141370.19999998808,141369.40000000596,141076.652,141081.40000000596,141084.857,141376.831,,35,"plummeted,"
screen,html.Screen,2_1_1_1_36,2022-02-18T13:08:03.112Z,,,,,,,,,,,,,,,,,54,,,,,,,,,,,,,,337.6689999999944,,response,,,,100,,,,,,,Space,keypress(Space),,,,,,,,-- --- ---- --- ------ ----- ------- ---- -- --- ------- --<br>------- ---------- ------ -- ----- -- ----- -- ---- ------<br>--- ----- --- --- ------ -------- ----- --- ------ ----- --<br>----- ----- ---------- and --- ------ ------ ---- -- ------<br>------- --- ------ ----- --- ---- ------- -- ---- --- --<br>------- ------,141715.19999998808,141714.5,141368.582,141370.40000000596,141376.831,141718.162,,36,and
screen,html.Screen,2_1_1_1_37,2022-02-18T13:08:03.418Z,,,,,,,,,,,,,,,,,54,,,,,,,,,,,,,,301.7380000059493,,response,,,,100,,,,,,,Space,keypress(Space),,,,,,,,-- --- ---- --- ------ ----- ------- ---- -- --- ------- --<br>------- ---------- ------ -- ----- -- ----- -- ---- ------<br>--- ----- --- --- ------ -------- ----- --- ------ ----- --<br>----- ----- ---------- --- the ------ ------ ---- -- ------<br>------- --- ------ ----- --- ---- ------- -- ---- --- --<br>------- ------,142020.5,142019.90000000596,141710.433,141715.40000000596,141718.162,142026.778,,37,the
screen,html.Screen,2_1_1_1_38,2022-02-18T13:08:03.736Z,,,,,,,,,,,,,,,,,54,,,,,,,,,,,,,,311.9219999880879,,response,,,,100,,,,,,,Space,keypress(Space),,,,,,,,-- --- ---- --- ------ ----- ------- ---- -- --- ------- --<br>------- ---------- ------ -- ----- -- ----- -- ---- ------<br>--- ----- --- --- ------ -------- ----- --- ------ ----- --<br>----- ----- ---------- --- --- market ------ ---- -- ------<br>------- --- ------ ----- --- ---- ------- -- ---- --- --<br>------- ------,142339.19999998808,142338.69999998808,142018.644,142020.69999998808,142026.778,142343.203,,38,market
screen,html.Screen,2_1_1_1_39,2022-02-18T13:08:04.039Z,,,,,,,,,,,,,,,,,54,,,,,,,,,,,,,,297.99699998807046,,response,,,,100,,,,,,,Space,keypress(Space),,,,,,,,-- --- ---- --- ------ ----- ------- ---- -- --- ------- --<br>------- ---------- ------ -- ----- -- ----- -- ---- ------<br>--- ----- --- --- ------ -------- ----- --- ------ ----- --<br>----- ----- ---------- --- --- ------ became ---- -- ------<br>------- --- ------ ----- --- ---- ------- -- ---- --- --<br>------- ------,142641.69999998808,142641.19999998808,142334.982,142339.40000000596,142343.203,142643.176,,39,became
screen,html.Screen,2_1_1_1_40,2022-02-18T13:08:04.368Z,,,,,,,,,,,,,,,,,54,,,,,,,,,,,,,,327.0239999880723,,response,,,,100,,,,,,,Space,keypress(Space),,,,,,,,-- --- ---- --- ------ ----- ------- ---- -- --- ------- --<br>------- ---------- ------ -- ----- -- ----- -- ---- ------<br>--- ----- --- --- ------ -------- ----- --- ------ ----- --<br>----- ----- ---------- --- --- ------ ------ wary -- ------<br>------- --- ------ ----- --- ---- ------- -- ---- --- --<br>------- ------,142970.5,142970.19999998808,142634.936,142641.69999998808,142643.176,142976.604,,40,wary
screen,html.Screen,2_1_1_1_41,2022-02-18T13:08:04.720Z,,,,,,,,,,,,,,,,,54,,,,,,,,,,,,,,346.095999988087,,response,,,,100,,,,,,,Space,keypress(Space),,,,,,,,-- --- ---- --- ------ ----- ------- ---- -- --- ------- --<br>------- ---------- ------ -- ----- -- ----- -- ---- ------<br>--- ----- --- --- ------ -------- ----- --- ------ ----- --<br>----- ----- ---------- --- --- ------ ------ ---- of ------<br>------- --- ------ ----- --- ---- ------- -- ---- --- --<br>------- ------,143323.19999998808,143322.69999998808,142968.238,142970.59999999404,142976.604,143326.509,,41,of
screen,html.Screen,2_1_1_1_42,2022-02-18T13:08:05.024Z,,,,,,,,,,,,,,,,,54,,,,,,,,,,,,,,299.5909999940486,,response,,,,100,,,,,,,Space,keypress(Space),,,,,,,,-- --- ---- --- ------ ----- ------- ---- -- --- ------- --<br>------- ---------- ------ -- ----- -- ----- -- ---- ------<br>--- ----- --- --- ------ -------- ----- --- ------ ----- --<br>----- ----- ---------- --- --- ------ ------ ---- -- French<br>------- --- ------ ----- --- ---- ------- -- ---- --- --<br>------- ------,143626.80000001192,143626.09999999404,143318.173,143323.30000001192,143326.509,143635.342,,42,French
screen,html.Screen,2_1_1_1_43,2022-02-18T13:08:05.358Z,,,,,,,,,,,,,,,,,54,,,,,,,,,,,,,,324.3579999880749,,response,,,,100,,,,,,,Space,keypress(Space),,,,,,,,-- --- ---- --- ------ ----- ------- ---- -- --- ------- --<br>------- ---------- ------ -- ----- -- ----- -- ---- ------<br>--- ----- --- --- ------ -------- ----- --- ------ ----- --<br>----- ----- ---------- --- --- ------ ------ ---- -- ------<br>credit. --- ------ ----- --- ---- ------- -- ---- --- --<br>------- ------,143960.30000001192,143959.69999998808,143626.584,143626.80000001192,143635.342,143968.64,,43,credit.
screen,html.Screen,2_1_1_1_44,2022-02-18T13:08:05.696Z,,,,,,,,,,,,,,,,,54,,,,,,,,,,,,,,329.2600000059465,,response,,,,100,,,,,,,Space,keypress(Space),,,,,,,,-- --- ---- --- ------ ----- ------- ---- -- --- ------- --<br>------- ---------- ------ -- ----- -- ----- -- ---- ------<br>--- ----- --- --- ------ -------- ----- --- ------ ----- --<br>----- ----- ---------- --- --- ------ ------ ---- -- ------<br>------- The ------ ----- --- ---- ------- -- ---- --- --<br>------- ------,144298.40000000596,144297.90000000596,143960.579,143960.5,143968.64,144301.488,,44,The
screen,html.Screen,2_1_1_1_45,2022-02-18T13:08:06.043Z,,,,,,,,,,,,,,,,,54,,,,,,,,,,,,,,343.5119999999879,,response,,,,100,,,,,,,Space,keypress(Space),,,,,,,,-- --- ---- --- ------ ----- ------- ---- -- --- ------- --<br>------- ---------- ------ -- ----- -- ----- -- ---- ------<br>--- ----- --- --- ------ -------- ----- --- ------ ----- --<br>----- ----- ---------- --- --- ------ ------ ---- -- ------<br>------- --- French ----- --- ---- ------- -- ---- --- --<br>------- ------,144645.59999999404,144645,144293.823,144298.5,144301.488,144651.759,,45,French
screen,html.Screen,2_1_1_1_46,2022-02-18T13:08:06.382Z,,,,,,,,,,,,,,,,,54,,,,,,,,,,,,,,332.2410000000091,,response,,,,100,,,,,,,Space,keypress(Space),,,,,,,,-- --- ---- --- ------ ----- ------- ---- -- --- ------- --<br>------- ---------- ------ -- ----- -- ----- -- ---- ------<br>--- ----- --- --- ------ -------- ----- --- ------ ----- --<br>----- ----- ---------- --- --- ------ ------ ---- -- ------<br>------- --- ------ state --- ---- ------- -- ---- --- --<br>------- ------,144984.80000001192,144984,144643.712,144645.69999998808,144651.759,144993.258,,46,state
screen,html.Screen,2_1_1_1_47,2022-02-18T13:08:06.714Z,,,,,,,,,,,,,,,,,54,,,,,,,,,,,,,,322.94199998807744,,response,,,,100,,,,,,,Space,keypress(Space),,,,,,,,-- --- ---- --- ------ ----- ------- ---- -- --- ------- --<br>------- ---------- ------ -- ----- -- ----- -- ---- ------<br>--- ----- --- --- ------ -------- ----- --- ------ ----- --<br>----- ----- ---------- --- --- ------ ------ ---- -- ------<br>------- --- ------ ----- was ---- ------- -- ---- --- --<br>------- ------,145316.90000000596,145316.19999998808,144977.554,144985,144993.258,145337.205,,47,was
screen,html.Screen,2_1_1_1_48,2022-02-18T13:08:07.627Z,,,,,,,,,,,,,,,,,54,,,,,,,,,,,,,,892.5950000119337,,response,,,,100,,,,,,,Space,keypress(Space),,,,,,,,-- --- ---- --- ------ ----- ------- ---- -- --- ------- --<br>------- ---------- ------ -- ----- -- ----- -- ---- ------<br>--- ----- --- --- ------ -------- ----- --- ------ ----- --<br>----- ----- ---------- --- --- ------ ------ ---- -- ------<br>------- --- ------ ----- --- left ------- -- ---- --- --<br>------- ------,146230.19999998808,146229.80000001192,145310.028,145317.09999999404,145337.205,146234.817,,48,left
screen,html.Screen,2_1_1_1_49,2022-02-18T13:08:07.941Z,,,,,,,,,,,,,,,,,54,,,,,,,,,,,,,,308.2829999940295,,response,,,,100,,,,,,,Space,keypress(Space),,,,,,,,-- --- ---- --- ------ ----- ------- ---- -- --- ------- --<br>------- ---------- ------ -- ----- -- ----- -- ---- ------<br>--- ----- --- --- ------ -------- ----- --- ------ ----- --<br>----- ----- ---------- --- --- ------ ------ ---- -- ------<br>------- --- ------ ----- --- ---- without -- ---- --- --<br>------- ------,146543.69999998808,146543.09999999404,146227.177,146230.30000001192,146234.817,146551.467,,49,without
screen,html.Screen,2_1_1_1_50,2022-02-18T13:08:08.240Z,,,,,,,,,,,,,,,,,54,,,,,,,,,,,,,,290.0329999999958,,response,,,,100,,,,,,,Space,keypress(Space),,,,,,,,-- --- ---- --- ------ ----- ------- ---- -- --- ------- --<br>------- ---------- ------ -- ----- -- ----- -- ---- ------<br>--- ----- --- --- ------ -------- ----- --- ------ ----- --<br>----- ----- ---------- --- --- ------ ------ ---- -- ------<br>------- --- ------ ----- --- ---- ------- an ---- --- --<br>------- ------,146842.40000000596,146841.5,146543.243,146543.90000000596,146551.467,146862.8,,50,an
screen,html.Screen,2_1_1_1_51,2022-02-18T13:08:08.553Z,,,,,,,,,,,,,,,,,54,,,,,,,,,,,,,,292.20000000001164,,response,,,,100,,,,,,,Space,keypress(Space),,,,,,,,-- --- ---- --- ------ ----- ------- ---- -- --- ------- --<br>------- ---------- ------ -- ----- -- ----- -- ---- ------<br>--- ----- --- --- ------ -------- ----- --- ------ ----- --<br>----- ----- ---------- --- --- ------ ------ ---- -- ------<br>------- --- ------ ----- --- ---- ------- -- easy --- --<br>------- ------,147155.59999999404,147155,146834.836,146842.5,146862.8,147159.865,,51,easy
screen,html.Screen,2_1_1_1_52,2022-02-18T13:08:08.836Z,,,,,,,,,,,,,,,,,54,,,,,,,,,,,,,,278.5350000059698,,response,,,,100,,,,,,,Space,keypress(Space),,,,,,,,-- --- ---- --- ------ ----- ------- ---- -- --- ------- --<br>------- ---------- ------ -- ----- -- ----- -- ---- ------<br>--- ----- --- --- ------ -------- ----- --- ------ ----- --<br>----- ----- ---------- --- --- ------ ------ ---- -- ------<br>------- --- ------ ----- --- ---- ------- -- ---- way --<br>------- ------,147438.90000000596,147438.40000000596,147151.578,147155.80000001192,147159.865,147443.204,,52,way
screen,html.Screen,2_1_1_1_53,2022-02-18T13:08:09.134Z,,,,,,,,,,,,,,,,,54,,,,,,,,,,,,,,293.2960000000021,,response,,,,100,,,,,,,Space,keypress(Space),,,,,,,,-- --- ---- --- ------ ----- ------- ---- -- --- ------- --<br>------- ---------- ------ -- ----- -- ----- -- ---- ------<br>--- ----- --- --- ------ -------- ----- --- ------ ----- --<br>----- ----- ---------- --- --- ------ ------ ---- -- ------<br>------- --- ------ ----- --- ---- ------- -- ---- --- of<br>------- ------,147737,147736.5,147435.9,147439.09999999404,147443.204,147743.138,,53,of
screen,html.Screen,2_1_1_1_54,2022-02-18T13:08:09.518Z,,,,,,,,,,,,,,,,,54,,,,,,,,,,,,,,376.46199999403325,,response,,,,100,,,,,,,Space,keypress(Space),,,,,,,,-- --- ---- --- ------ ----- ------- ---- -- --- ------- --<br>------- ---------- ------ -- ----- -- ----- -- ---- ------<br>--- ----- --- --- ------ -------- ----- --- ------ ----- --<br>----- ----- ---------- --- --- ------ ------ ---- -- ------<br>------- --- ------ ----- --- ---- ------- -- ---- --- --<br>raising ------,148120.40000000596,148119.59999999404,147735.108,147737.09999999404,147743.138,148126.509,,54,raising
screen,html.Screen,2_1_1_1_55,2022-02-18T13:08:09.879Z,,,,,,,,,,,,,,,,,54,,,,,,,,,,,,,,355.0909999940486,,response,,,,100,,,,,,,Space,keypress(Space),,,,,,,,-- --- ---- --- ------ ----- ------- ---- -- --- ------- --<br>------- ---------- ------ -- ----- -- ----- -- ---- ------<br>--- ----- --- --- ------ -------- ----- --- ------ ----- --<br>----- ----- ---------- --- --- ------ ------ ---- -- ------<br>------- --- ------ ----- --- ---- ------- -- ---- --- --<br>------- money.,148482,148481.59999999404,148118.375,148120.5,148126.509,148484.868,,55,money.
Item 100,flow.Loop,2_1_1_1,2022-02-18T13:08:09.879Z,,,,,,,,,,,,,,,,,,,,,,,,,,,,,,,19080.10399999404,,completion,,,,,F,,,,,,,,,,,silence,,,,,148482.19999998808,148481.59999999404,129393.543,129394.30000001192,129401.496,148484.868,,,
Question 1,html.Screen,2_1_1_2,2022-02-18T13:08:13.924Z,,,,,,,,,,,,,,,,,,,,,,,,,,,,true,TRUE,,4040.6320000000123,,response,,,,100,F,,,,,,TRUE,click #choice-1,,,,silence,,,,,152526.40000000596,152525.5,148476.848,148482.30000001192,148484.868,152540.046,,,
Question 2,html.Screen,2_1_1_3,2022-02-18T13:08:17.153Z,,,,,,,,,,,,,,,,,,,,,,,,,,,,true,FALSE,,3214.8540000059584,,response,,,,100,F,,,,,,FALSE,click #choice-2,,,,silence,,,,,155755.90000000596,155754.90000000596,152518.616,152526.5,152540.046,155759.877,,,
Item 100,flow.Sequence,2_1_1,2022-02-18T13:08:17.153Z,,,,,,,,,,,,,,,,,,,,,,,,,,,,,,,36352.872000005955,,completion,,,,,,,,,,,,,,,,,,,,,155756.09999999404,155754.90000000596,119393.243,119398.09999999404,119402.028,155759.877,,,
End of Practice,html.Page,2_1_2,2022-02-18T13:08:21.497Z,,,,,,,,,,,,,,,,,,,,,,,,,,,,,,,4339.923000011913,,form submission,,,,,,,,,,,,,,,,,,,,,160100.09999999404,160099.80000001192,155751.583,155756.19999998808,155759.877,160101.526,,,
Practice,flow.Sequence,2_1,2022-02-18T13:08:21.497Z,,,,,,,,,,,,,,,,,,,,,,,,,,,,,,,80363.38100001193,,completion,,,,,,,,,,,,,,,,,,,,,160100.19999998808,160099.80000001192,79709.945,79718.5,79736.419,160101.526,,,
Trap_instruction,html.Page,2_2_0,2022-02-18T13:08:23.233Z,,,,,,,,,,,,,,,,,,,,,,,,,,,,,,,1734.4739999999874,,form submission,,,,,,,,,,,,,,,,,,,,,161836.19999998808,161836,160093.244,160100.30000001192,160101.526,161843.374,,,
trap_trial,html.Screen,2_2_1,2022-02-18T13:08:26.264Z,,,,,,,,,,,,,,,,,,,,,,,,,,,,true,1,,3023.1259999999893,,response,,,,,,,,,,,1,click #choice-1,,,,,,,,,164867.19999998808,164866.5,161834.877,161836.30000001192,161843.374,164868.165,,,
end of trap trial,html.Page,2_2_2,2022-02-18T13:08:28.904Z,,,,,,,,,,,,,,,,,,,,,,,,,,,,,,,2638.635000011913,,form submission,,,,,,,,,,,,,,,,,,,,,167507,167506.80000001192,164859.971,164867.30000001192,164868.165,167509.832,,,
Trap 1,flow.Sequence,2_2,2022-02-18T13:08:28.904Z,,,,,,,,,,,,,,,,,,,,,,,,,,,,,,,7405.274000011908,,completion,,,,,,,,,,,,,,,,,,,,,167507.09999999404,167506.80000001192,160093.244,160100.30000001192,160101.526,167509.832,,,
Standby,html.Page,2_3_0,2022-02-18T13:08:36.899Z,,,,,,,,,,,,,,,,,,,,,,,,,,,,,,,8000.054999999993,,timeout,,,,,,,,,,,,,,,,,,,,,175502.19999998808,175501.714,167501.604,167507.19999998808,167509.832,175509.887,,,
Holding screen,html.Screen,2_3_1_0_0,2022-02-18T13:08:43.901Z,,,,,,,,,,,,,,,,,,,,,,,,,,,,,,,6999.882000000012,,timeout,,,,,,,,,,,,,,,,,,,,,182503.59999999404,182501.589,175501.714,175502.5,175509.887,182509.769,,,
screen,html.Screen,2_3_1_0_1_0,2022-02-18T13:08:44.848Z,,,,,,,,,,,,,,,,,11,,,,,,,,,,,,,,939.9309999880788,,response,,,,4,F,,,,,,Space,keypress(Space),,,,instrumental,,,,Known -- ---- --- -- --- -------- ------------ ---------- --<br>- ------- ------ --------- -- ------------ -- --- ---- -----<br>------ ---- ---- ------ ------ ------- --- ----- ---------<br>---- --- -------- -------- --- --- -- ------- --- --- -----<br>-- --- ------ ------- --- --- -------- ---- --------- --<br>---------- -- -------- ----------------,183450.5,183449.69999998808,182501.589,182503.80000001192,182509.769,183451.52,,0,Known
screen,html.Screen,2_3_1_0_1_1,2022-02-18T13:08:45.215Z,,,,,,,,,,,,,,,,,11,,,,,,,,,,,,,,365.7800000119314,,response,,,,4,F,,,,,,Space,keypress(Space),,,,instrumental,,,,----- as ---- --- -- --- -------- ------------ ---------- --<br>- ------- ------ --------- -- ------------ -- --- ---- -----<br>------ ---- ---- ------ ------ ------- --- ----- ---------<br>---- --- -------- -------- --- --- -- ------- --- --- -----<br>-- --- ------ ------- --- --- -------- ---- --------- --<br>---------- -- -------- ----------------,183817.80000001192,183817.30000001192,183443.299,183450.59999999404,183451.52,183834.811,,1,as
screen,html.Screen,2_3_1_0_1_2,2022-02-18T13:08:45.574Z,,,,,,,,,,,,,,,,,11,,,,,,,,,,,,,,340.8889999880921,,response,,,,4,F,,,,,,Space,keypress(Space),,,,instrumental,,,,----- -- Rapa --- -- --- -------- ------------ ---------- --<br>- ------- ------ --------- -- ------------ -- --- ---- -----<br>------ ---- ---- ------ ------ ------- --- ----- ---------<br>---- --- -------- -------- --- --- -- ------- --- --- -----<br>-- --- ------ ------- --- --- -------- ---- --------- --<br>---------- -- -------- ----------------,184176.40000000596,184175.69999998808,183826.548,183817.80000001192,183834.811,184184.844,,2,Rapa
screen,html.Screen,2_3_1_0_1_3,2022-02-18T13:08:45.917Z,,,,,,,,,,,,,,,,,11,,,,,,,,,,,,,,333.5560000059486,,response,,,,4,F,,,,,,Space,keypress(Space),,,,instrumental,,,,----- -- ---- Nui -- --- -------- ------------ ---------- --<br>- ------- ------ --------- -- ------------ -- --- ---- -----<br>------ ---- ---- ------ ------ ------- --- ----- ---------<br>---- --- -------- -------- --- --- -- ------- --- --- -----<br>-- --- ------ ------- --- --- -------- ---- --------- --<br>---------- -- -------- ----------------,184519.09999999404,184518.40000000596,184176.558,184176.59999999404,184184.844,184526.483,,3,Nui
screen,html.Screen,2_3_1_0_1_4,2022-02-18T13:08:46.250Z,,,,,,,,,,,,,,,,,11,,,,,,,,,,,,,,325.1169999940321,,response,,,,4,F,,,,,,Space,keypress(Space),,,,instrumental,,,,----- -- ---- --- to --- -------- ------------ ---------- --<br>- ------- ------ --------- -- ------------ -- --- ---- -----<br>------ ---- ---- ------ ------ ------- --- ----- ---------<br>---- --- -------- -------- --- --- -- ------- --- --- -----<br>-- --- ------ ------- --- --- -------- ---- --------- --<br>---------- -- -------- ----------------,184852.30000001192,184851.59999999404,184518.523,184519.19999998808,184526.483,184859.822,,4,to
screen,html.Screen,2_3_1_0_1_5,2022-02-18T13:08:46.583Z,,,,,,,,,,,,,,,,,11,,,,,,,,,,,,,,325.0780000059749,,response,,,,4,F,,,,,,Space,keypress(Space),,,,instrumental,,,,----- -- ---- --- -- the -------- ------------ ---------- --<br>- ------- ------ --------- -- ------------ -- --- ---- -----<br>------ ---- ---- ------ ------ ------- --- ----- ---------<br>---- --- -------- -------- --- --- -- ------- --- --- -----<br>-- --- ------ ------- --- --- -------- ---- --------- --<br>---------- -- -------- ----------------,185185.5,185184.90000000596,184851.625,184852.5,184859.822,185193.161,,5,the
screen,html.Screen,2_3_1_0_1_6,2022-02-18T13:08:46.910Z,,,,,,,,,,,,,,,,,11,,,,,,,,,,,,,,319.0389999880863,,response,,,,4,F,,,,,,Space,keypress(Space),,,,instrumental,,,,----- -- ---- --- -- --- island's ------------ ---------- --<br>- ------- ------ --------- -- ------------ -- --- ---- -----<br>------ ---- ---- ------ ------ ------- --- ----- ---------<br>---- --- -------- -------- --- --- -- ------- --- --- -----<br>-- --- ------ ------- --- --- -------- ---- --------- --<br>---------- -- -------- ----------------,185512.69999998808,185512.19999998808,185184.892,185185.69999998808,185193.161,185518.132,,6,island's
screen,html.Screen,2_3_1_0_1_7,2022-02-18T13:08:47.284Z,,,,,,,,,,,,,,,,,11,,,,,,,,,,,,,,367.2680000059481,,response,,,,4,F,,,,,,Space,keypress(Space),,,,instrumental,,,,"----- -- ---- --- -- --- -------- inhabitants, ---------- --<br>- ------- ------ --------- -- ------------ -- --- ---- -----<br>------ ---- ---- ------ ------ ------- --- ----- ---------<br>---- --- -------- -------- --- --- -- ------- --- --- -----<br>-- --- ------ ------- --- --- -------- ---- --------- --<br>---------- -- -------- ----------------",185886.40000000596,185885.40000000596,185510.3,185512.80000001192,185518.132,185893.111,,7,"inhabitants,"
screen,html.Screen,2_3_1_0_1_8,2022-02-18T13:08:47.721Z,,,,,,,,,,,,,,,,,11,,,,,,,,,,,,,,429.78900000595604,,response,,,,4,F,,,,,,Space,keypress(Space),,,,instrumental,,,,----- -- ---- --- -- --- -------- ------------ Rongorongo --<br>- ------- ------ --------- -- ------------ -- --- ---- -----<br>------ ---- ---- ------ ------ ------- --- ----- ---------<br>---- --- -------- -------- --- --- -- ------- --- --- -----<br>-- --- ------ ------- --- --- -------- ---- --------- --<br>---------- -- -------- ----------------,186323.5,186322.90000000596,185884.882,185886.5,185893.111,186326.505,,8,Rongorongo
screen,html.Screen,2_3_1_0_1_9,2022-02-18T13:08:48.065Z,,,,,,,,,,,,,,,,,11,,,,,,,,,,,,,,339.8950000059558,,response,,,,4,F,,,,,,Space,keypress(Space),,,,instrumental,,,,----- -- ---- --- -- --- -------- ------------ ---------- is<br>- ------- ------ --------- -- ------------ -- --- ---- -----<br>------ ---- ---- ------ ------ ------- --- ----- ---------<br>---- --- -------- -------- --- --- -- ------- --- --- -----<br>-- --- ------ ------- --- --- -------- ---- --------- --<br>---------- -- -------- ----------------,186667.09999999404,186666.40000000596,186318.283,186323.69999998808,186326.505,186685.501,,9,is
screen,html.Screen,2_3_1_0_1_10,2022-02-18T13:08:48.402Z,,,,,,,,,,,,,,,,,11,,,,,,,,,,,,,,318.09899999405025,,response,,,,4,F,,,,,,Space,keypress(Space),,,,instrumental,,,,----- -- ---- --- -- --- -------- ------------ ---------- --<br>a ------- ------ --------- -- ------------ -- --- ---- -----<br>------ ---- ---- ------ ------ ------- --- ----- ---------<br>---- --- -------- -------- --- --- -- ------- --- --- -----<br>-- --- ------ ------- --- --- -------- ---- --------- --<br>---------- -- -------- ----------------,187004.40000000596,187003.59999999404,186659.864,186667.19999998808,186685.501,187009.806,,10,a
screen,html.Screen,2_3_1_0_1_11,2022-02-18T13:08:48.719Z,,,,,,,,,,,,,,,,,11,,,,,,,,,,,,,,311.59400000594906,,response,,,,4,F,,,,,,Space,keypress(Space),,,,instrumental,,,,----- -- ---- --- -- --- -------- ------------ ---------- --<br>- writing ------ --------- -- ------------ -- --- ---- -----<br>------ ---- ---- ------ ------ ------- --- ----- ---------<br>---- --- -------- -------- --- --- -- ------- --- --- -----<br>-- --- ------ ------- --- --- -------- ---- --------- --<br>---------- -- -------- ----------------,187321.90000000596,187321.40000000596,187001.592,187004.59999999404,187009.806,187326.494,,11,writing
screen,html.Screen,2_3_1_0_1_12,2022-02-18T13:08:49.018Z,,,,,,,,,,,,,,,,,11,,,,,,,,,,,,,,293.6059999940335,,response,,,,4,F,,,,,,Space,keypress(Space),,,,instrumental,,,,----- -- ---- --- -- --- -------- ------------ ---------- --<br>- ------- system --------- -- ------------ -- --- ---- -----<br>------ ---- ---- ------ ------ ------- --- ----- ---------<br>---- --- -------- -------- --- --- -- ------- --- --- -----<br>-- --- ------ ------- --- --- -------- ---- --------- --<br>---------- -- -------- ----------------,187620.69999998808,187620.09999999404,187318.228,187322,187326.494,187626.452,,12,system
screen,html.Screen,2_3_1_0_1_13,2022-02-18T13:08:49.386Z,,,,,,,,,,,,,,,,,11,,,,,,,,,,,,,,361.6479999940493,,response,,,,4,F,,,,,,Space,keypress(Space),,,,instrumental,,,,----- -- ---- --- -- --- -------- ------------ ---------- --<br>- ------- ------ comprised -- ------------ -- --- ---- -----<br>------ ---- ---- ------ ------ ------- --- ----- ---------<br>---- --- -------- -------- --- --- -- ------- --- --- -----<br>-- --- ------ ------- --- --- -------- ---- --------- --<br>---------- -- -------- ----------------,187988.69999998808,187988.09999999404,187618.904,187620.90000000596,187626.452,187993.158,,13,comprised
screen,html.Screen,2_3_1_0_1_14,2022-02-18T13:08:49.749Z,,,,,,,,,,,,,,,,,11,,,,,,,,,,,,,,357.54199998808326,,response,,,,4,F,,,,,,Space,keypress(Space),,,,instrumental,,,,----- -- ---- --- -- --- -------- ------------ ---------- --<br>- ------- ------ --------- of ------------ -- --- ---- -----<br>------ ---- ---- ------ ------ ------- --- ----- ---------<br>---- --- -------- -------- --- --- -- ------- --- --- -----<br>-- --- ------ ------- --- --- -------- ---- --------- --<br>---------- -- -------- ----------------,188351.40000000596,188350.69999998808,187984.914,187988.90000000596,187993.158,188359.825,,14,of
screen,html.Screen,2_3_1_0_1_15,2022-02-18T13:08:50.123Z,,,,,,,,,,,,,,,,,11,,,,,,,,,,,,,,364.87499998806743,,response,,,,4,F,,,,,,Space,keypress(Space),,,,instrumental,,,,----- -- ---- --- -- --- -------- ------------ ---------- --<br>- ------- ------ --------- -- pictographs. -- --- ---- -----<br>------ ---- ---- ------ ------ ------- --- ----- ---------<br>---- --- -------- -------- --- --- -- ------- --- --- -----<br>-- --- ------ ------- --- --- -------- ---- --------- --<br>---------- -- -------- ----------------,188725.59999999404,188724.69999998808,188351.707,188351.5,188359.825,188744.636,,15,pictographs.
screen,html.Screen,2_3_1_0_1_16,2022-02-18T13:08:50.698Z,,,,,,,,,,,,,,,,,11,,,,,,,,,,,,,,555.1640000119223,,response,,,,4,F,,,,,,Space,keypress(Space),,,,instrumental,,,,----- -- ---- --- -- --- -------- ------------ ---------- --<br>- ------- ------ --------- -- ------------ It --- ---- -----<br>------ ---- ---- ------ ------ ------- --- ----- ---------<br>---- --- -------- -------- --- --- -- ------- --- --- -----<br>-- --- ------ ------- --- --- -------- ---- --------- --<br>---------- -- -------- ----------------,189300.19999998808,189299.80000001192,188718.262,188725.80000001192,188744.636,189316.865,,16,It
screen,html.Screen,2_3_1_0_1_17,2022-02-18T13:08:51.016Z,,,,,,,,,,,,,,,,,11,,,,,,,,,,,,,,300.8349999880884,,response,,,,4,F,,,,,,Space,keypress(Space),,,,instrumental,,,,----- -- ---- --- -- --- -------- ------------ ---------- --<br>- ------- ------ --------- -- ------------ -- has ---- -----<br>------ ---- ---- ------ ------ ------- --- ----- ---------<br>---- --- -------- -------- --- --- -- ------- --- --- -----<br>-- --- ------ ------- --- --- -------- ---- --------- --<br>---------- -- -------- ----------------,189618.40000000596,189617.69999998808,189293.294,189300.30000001192,189316.865,189626.471,,17,has
screen,html.Screen,2_3_1_0_1_18,2022-02-18T13:08:51.300Z,,,,,,,,,,,,,,,,,11,,,,,,,,,,,,,,275.2289999880886,,response,,,,4,F,,,,,,Space,keypress(Space),,,,instrumental,,,,----- -- ---- --- -- --- -------- ------------ ---------- --<br>- ------- ------ --------- -- ------------ -- --- been -----<br>------ ---- ---- ------ ------ ------- --- ----- ---------<br>---- --- -------- -------- --- --- -- ------- --- --- -----<br>-- --- ------ ------- --- --- -------- ---- --------- --<br>---------- -- -------- ----------------,189902.5,189901.69999998808,189618.301,189618.5,189626.471,189909.827,,18,been
screen,html.Screen,2_3_1_0_1_19,2022-02-18T13:08:51.548Z,,,,,,,,,,,,,,,,,11,,,,,,,,,,,,,,240.27299999404931,,response,,,,4,F,,,,,,Space,keypress(Space),,,,instrumental,,,,----- -- ---- --- -- --- -------- ------------ ---------- --<br>- ------- ------ --------- -- ------------ -- --- ---- found<br>------ ---- ---- ------ ------ ------- --- ----- ---------<br>---- --- -------- -------- --- --- -- ------- --- --- -----<br>-- --- ------ ------- --- --- -------- ---- --------- --<br>---------- -- -------- ----------------,190150.80000001192,190150.09999999404,189901.594,189902.59999999404,189909.827,190160.345,,19,found
screen,html.Screen,2_3_1_0_1_20,2022-02-18T13:08:51.862Z,,,,,,,,,,,,,,,,,11,,,,,,,,,,,,,,302.95500001191976,,response,,,,4,F,,,,,,Space,keypress(Space),,,,instrumental,,,,----- -- ---- --- -- --- -------- ------------ ---------- --<br>- ------- ------ --------- -- ------------ -- --- ---- -----<br>carved ---- ---- ------ ------ ------- --- ----- ---------<br>---- --- -------- -------- --- --- -- ------- --- --- -----<br>-- --- ------ ------- --- --- -------- ---- --------- --<br>---------- -- -------- ----------------,190464.09999999404,190463.30000001192,190143.311,190150.90000000596,190160.345,190468.167,,20,carved
screen,html.Screen,2_3_1_0_1_21,2022-02-18T13:08:52.234Z,,,,,,,,,,,,,,,,,11,,,,,,,,,,,,,,367.73300000597374,,response,,,,4,F,,,,,,Space,keypress(Space),,,,instrumental,,,,----- -- ---- --- -- --- -------- ------------ ---------- --<br>- ------- ------ --------- -- ------------ -- --- ---- -----<br>------ into ---- ------ ------ ------- --- ----- ---------<br>---- --- -------- -------- --- --- -- ------- --- --- -----<br>-- --- ------ ------- --- --- -------- ---- --------- --<br>---------- -- -------- ----------------,190836.40000000596,190835.90000000596,190459.986,190464.19999998808,190468.167,190843.134,,21,into
screen,html.Screen,2_3_1_0_1_22,2022-02-18T13:08:52.508Z,,,,,,,,,,,,,,,,,11,,,,,,,,,,,,,,266.16600001193,,response,,,,4,F,,,,,,Space,keypress(Space),,,,instrumental,,,,----- -- ---- --- -- --- -------- ------------ ---------- --<br>- ------- ------ --------- -- ------------ -- --- ---- -----<br>------ ---- many ------ ------ ------- --- ----- ---------<br>---- --- -------- -------- --- --- -- ------- --- --- -----<br>-- --- ------ ------- --- --- -------- ---- --------- --<br>---------- -- -------- ----------------,191110,191109.30000001192,190835.094,190836.59999999404,190843.134,191118.105,,22,many
screen,html.Screen,2_3_1_0_1_23,2022-02-18T13:08:52.801Z,,,,,,,,,,,,,,,,,11,,,,,,,,,,,,,,284.8949999999895,,response,,,,4,F,,,,,,Space,keypress(Space),,,,instrumental,,,,----- -- ---- --- -- --- -------- ------------ ---------- --<br>- ------- ------ --------- -- ------------ -- --- ---- -----<br>------ ---- ---- oblong ------ ------- --- ----- ---------<br>---- --- -------- -------- --- --- -- ------- --- --- -----<br>-- --- ------ ------- --- --- -------- ---- --------- --<br>---------- -- -------- ----------------,191403.69999998808,191403,191109.849,191110.19999998808,191118.105,191410.029,,23,oblong
screen,html.Screen,2_3_1_0_1_24,2022-02-18T13:08:53.122Z,,,,,,,,,,,,,,,,,11,,,,,,,,,,,,,,313.97099999999045,,response,,,,4,F,,,,,,Space,keypress(Space),,,,instrumental,,,,----- -- ---- --- -- --- -------- ------------ ---------- --<br>- ------- ------ --------- -- ------------ -- --- ---- -----<br>------ ---- ---- ------ wooden ------- --- ----- ---------<br>---- --- -------- -------- --- --- -- ------- --- --- -----<br>-- --- ------ ------- --- --- -------- ---- --------- --<br>---------- -- -------- ----------------,191724.5,191724,191401.639,191403.80000001192,191410.029,191726.473,,24,wooden
screen,html.Screen,2_3_1_0_1_25,2022-02-18T13:08:53.437Z,,,,,,,,,,,,,,,,,11,,,,,,,,,,,,,,311.9270000059623,,response,,,,4,F,,,,,,Space,keypress(Space),,,,instrumental,,,,----- -- ---- --- -- --- -------- ------------ ---------- --<br>- ------- ------ --------- -- ------------ -- --- ---- -----<br>------ ---- ---- ------ ------ tablets --- ----- ---------<br>---- --- -------- -------- --- --- -- ------- --- --- -----<br>-- --- ------ ------- --- --- -------- ---- --------- --<br>---------- -- -------- ----------------,192039.09999999404,192038.40000000596,191718.323,191724.80000001192,191726.473,192043.129,,25,tablets
screen,html.Screen,2_3_1_0_1_26,2022-02-18T13:08:53.812Z,,,,,,,,,,,,,,,,,11,,,,,,,,,,,,,,370.4709999940533,,response,,,,4,F,,,,,,Space,keypress(Space),,,,instrumental,,,,----- -- ---- --- -- --- -------- ------------ ---------- --<br>- ------- ------ --------- -- ------------ -- --- ---- -----<br>------ ---- ---- ------ ------ ------- and ----- ---------<br>---- --- -------- -------- --- --- -- ------- --- --- -----<br>-- --- ------ ------- --- --- -------- ---- --------- --<br>---------- -- -------- ----------------,192414.19999998808,192413.59999999404,192035.29,192039.19999998808,192043.129,192418.125,,26,and
screen,html.Screen,2_3_1_0_1_27,2022-02-18T13:08:54.128Z,,,,,,,,,,,,,,,,,11,,,,,,,,,,,,,,311.57499998807907,,response,,,,4,F,,,,,,Space,keypress(Space),,,,instrumental,,,,----- -- ---- --- -- --- -------- ------------ ---------- --<br>- ------- ------ --------- -- ------------ -- --- ---- -----<br>------ ---- ---- ------ ------ ------- --- other ---------<br>---- --- -------- -------- --- --- -- ------- --- --- -----<br>-- --- ------ ------- --- --- -------- ---- --------- --<br>---------- -- -------- ----------------,192730.5,192729.69999998808,192409.898,192414.40000000596,192418.125,192734.838,,27,other
screen,html.Screen,2_3_1_0_1_28,2022-02-18T13:08:54.485Z,,,,,,,,,,,,,,,,,11,,,,,,,,,,,,,,352.2619999940507,,response,,,,4,F,,,,,,Space,keypress(Space),,,,instrumental,,,,----- -- ---- --- -- --- -------- ------------ ---------- --<br>- ------- ------ --------- -- ------------ -- --- ---- -----<br>------ ---- ---- ------ ------ ------- --- ----- artifacts<br>---- --- -------- -------- --- --- -- ------- --- --- -----<br>-- --- ------ ------- --- --- -------- ---- --------- --<br>---------- -- -------- ----------------,193087.59999999404,193087.09999999404,192726.635,192730.59999999404,192734.838,193093.203,,28,artifacts
screen,html.Screen,2_3_1_0_1_29,2022-02-18T13:08:54.824Z,,,,,,,,,,,,,,,,,11,,,,,,,,,,,,,,332.5970000119123,,response,,,,4,F,,,,,,Space,keypress(Space),,,,instrumental,,,,----- -- ---- --- -- --- -------- ------------ ---------- --<br>- ------- ------ --------- -- ------------ -- --- ---- -----<br>------ ---- ---- ------ ------ ------- --- ----- ---------<br>from --- -------- -------- --- --- -- ------- --- --- -----<br>-- --- ------ ------- --- --- -------- ---- --------- --<br>---------- -- -------- ----------------,193426.59999999404,193425.80000001192,193084.912,193087.59999999404,193093.203,193434.824,,29,from
screen,html.Screen,2_3_1_0_1_30,2022-02-18T13:08:55.321Z,,,,,,,,,,,,,,,,,11,,,,,,,,,,,,,,487.8759999880858,,response,,,,4,F,,,,,,Space,keypress(Space),,,,instrumental,,,,----- -- ---- --- -- --- -------- ------------ ---------- --<br>- ------- ------ --------- -- ------------ -- --- ---- -----<br>------ ---- ---- ------ ------ ------- --- ----- ---------<br>---- the -------- -------- --- --- -- ------- --- --- -----<br>-- --- ------ ------- --- --- -------- ---- --------- --<br>---------- -- -------- ----------------,193923.5,193922.69999998808,193426.547,193426.80000001192,193434.824,193926.481,,30,the
screen,html.Screen,2_3_1_0_1_31,2022-02-18T13:08:55.758Z,,,,,,,,,,,,,,,,,11,,,,,,,,,,,,,,433.51900000000023,,response,,,,4,F,,,,,,Space,keypress(Space),,,,instrumental,,,,----- -- ---- --- -- --- -------- ------------ ---------- --<br>- ------- ------ --------- -- ------------ -- --- ---- -----<br>------ ---- ---- ------ ------ ------- --- ----- ---------<br>---- --- island's -------- --- --- -- ------- --- --- -----<br>-- --- ------ ------- --- --- -------- ---- --------- --<br>---------- -- -------- ----------------,194360.69999998808,194360,193918.361,193923.69999998808,193926.481,194368.231,,31,island's
screen,html.Screen,2_3_1_0_1_32,2022-02-18T13:08:56.105Z,,,,,,,,,,,,,,,,,11,,,,,,,,,,,,,,338.4689999880793,,response,,,,4,F,,,,,,Space,keypress(Space),,,,instrumental,,,,----- -- ---- --- -- --- -------- ------------ ---------- --<br>- ------- ------ --------- -- ------------ -- --- ---- -----<br>------ ---- ---- ------ ------ ------- --- ----- ---------<br>---- --- -------- history. --- --- -- ------- --- --- -----<br>-- --- ------ ------- --- --- -------- ---- --------- --<br>---------- -- -------- ----------------,194707.30000001192,194706.69999998808,194360.335,194360.80000001192,194368.231,194709.866,,32,history.
screen,html.Screen,2_3_1_0_1_33,2022-02-18T13:08:56.474Z,,,,,,,,,,,,,,,,,11,,,,,,,,,,,,,,365.93400001191185,,response,,,,4,F,,,,,,Space,keypress(Space),,,,instrumental,,,,----- -- ---- --- -- --- -------- ------------ ---------- --<br>- ------- ------ --------- -- ------------ -- --- ---- -----<br>------ ---- ---- ------ ------ ------- --- ----- ---------<br>---- --- -------- -------- The --- -- ------- --- --- -----<br>-- --- ------ ------- --- --- -------- ---- --------- --<br>---------- -- -------- ----------------,195076.69999998808,195075.80000001192,194701.641,194707.30000001192,194709.866,195084.834,,33,The
screen,html.Screen,2_3_1_0_1_34,2022-02-18T13:08:56.832Z,,,,,,,,,,,,,,,,,11,,,,,,,,,,,,,,349.16599999999744,,response,,,,4,F,,,,,,Space,keypress(Space),,,,instrumental,,,,----- -- ---- --- -- --- -------- ------------ ---------- --<br>- ------- ------ --------- -- ------------ -- --- ---- -----<br>------ ---- ---- ------ ------ ------- --- ----- ---------<br>---- --- -------- -------- --- art -- ------- --- --- -----<br>-- --- ------ ------- --- --- -------- ---- --------- --<br>---------- -- -------- ----------------,195434.69999998808,195434,195076.537,195076.90000000596,195084.834,195443.574,,34,art
screen,html.Screen,2_3_1_0_1_35,2022-02-18T13:08:57.145Z,,,,,,,,,,,,,,,,,11,,,,,,,,,,,,,,302.7260000119277,,response,,,,4,F,,,,,,Space,keypress(Space),,,,instrumental,,,,----- -- ---- --- -- --- -------- ------------ ---------- --<br>- ------- ------ --------- -- ------------ -- --- ---- -----<br>------ ---- ---- ------ ------ ------- --- ----- ---------<br>---- --- -------- -------- --- --- of ------- --- --- -----<br>-- --- ------ ------- --- --- -------- ---- --------- --<br>---------- -- -------- ----------------,195747.09999999404,195746.30000001192,195434.944,195434.80000001192,195443.574,195751.496,,35,of
screen,html.Screen,2_3_1_0_1_36,2022-02-18T13:08:57.409Z,,,,,,,,,,,,,,,,,11,,,,,,,,,,,,,,258.70399998806533,,response,,,,4,F,,,,,,Space,keypress(Space),,,,instrumental,,,,----- -- ---- --- -- --- -------- ------------ ---------- --<br>- ------- ------ --------- -- ------------ -- --- ---- -----<br>------ ---- ---- ------ ------ ------- --- ----- ---------<br>---- --- -------- -------- --- --- -- writing --- --- -----<br>-- --- ------ ------- --- --- -------- ---- --------- --<br>---------- -- -------- ----------------,196011,196010.19999998808,195743.307,195747.19999998808,195751.496,196018.125,,36,writing
screen,html.Screen,2_3_1_0_1_37,2022-02-18T13:08:57.682Z,,,,,,,,,,,,,,,,,11,,,,,,,,,,,,,,265.57499998807907,,response,,,,4,F,,,,,,Space,keypress(Space),,,,instrumental,,,,----- -- ---- --- -- --- -------- ------------ ---------- --<br>- ------- ------ --------- -- ------------ -- --- ---- -----<br>------ ---- ---- ------ ------ ------- --- ----- ---------<br>---- --- -------- -------- --- --- -- ------- was --- -----<br>-- --- ------ ------- --- --- -------- ---- --------- --<br>---------- -- -------- ----------------,196284.5,196283.69999998808,196009.87,196011.19999998808,196018.125,196293.664,,37,was
screen,html.Screen,2_3_1_0_1_38,2022-02-18T13:08:57.955Z,,,,,,,,,,,,,,,,,11,,,,,,,,,,,,,,263.4359999940498,,response,,,,4,F,,,,,,Space,keypress(Space),,,,instrumental,,,,----- -- ---- --- -- --- -------- ------------ ---------- --<br>- ------- ------ --------- -- ------------ -- --- ---- -----<br>------ ---- ---- ------ ------ ------- --- ----- ---------<br>---- --- -------- -------- --- --- -- ------- --- not -----<br>-- --- ------ ------- --- --- -------- ---- --------- --<br>---------- -- -------- ----------------,196557.59999999404,196557.09999999404,196284.858,196284.69999998808,196293.664,196559.801,,38,not
screen,html.Screen,2_3_1_0_1_39,2022-02-18T13:08:58.214Z,,,,,,,,,,,,,,,,,11,,,,,,,,,,,,,,256.0990000059537,,response,,,,4,F,,,,,,Space,keypress(Space),,,,instrumental,,,,----- -- ---- --- -- --- -------- ------------ ---------- --<br>- ------- ------ --------- -- ------------ -- --- ---- -----<br>------ ---- ---- ------ ------ ------- --- ----- ---------<br>---- --- -------- -------- --- --- -- ------- --- --- known<br>-- --- ------ ------- --- --- -------- ---- --------- --<br>---------- -- -------- ----------------,196816.5,196815.90000000596,196551.953,196557.69999998808,196559.801,196834.492,,39,known
