sender,sender_type,sender_id,timestamp,meta,,Blues,Classical,Country,Dance,Electronic,Folk,Gospel,Hip-Hop,Jazz,Latin,Musical/Film,New-age,Pop,Prolific_id,Provo_ID,R&B,Rap,Reggae,Religious,Rock,Soul,Swing,Traditional,age,artist_name,correct,correctResponse,distraction,duration,education,ended_on,familiarity,gender,headphone_check_performance,item,list,music_frequency,offensiveness,pleasantness,position_correct,preference,response,response_action,snippet_file,song_name,song_rating,sound,stimulus_1,stimulus_2,stimulus_3,text,time_commit,time_end,time_render,time_run,time_show,time_switch,url,word,word_ID
Prolific ID,html.Form,0,2022-02-01T13:26:58.865Z,"{""labjs_version"":""20.2.2"",""labjs_build"":{""flavor"":""production"",""commit"":""a25486e0c714a0ae2ce03ff94b7bb6896854dcfa""},""location"":""https://run.pavlovia.org/mvasilev/prolific2_music_d/"",""userAgent"":""Mozilla/5.0 (Windows NT 10.0; Win64; x64) AppleWebKit/537.36 (KHTML, like Gecko) Chrome/97.0.4692.71 Safari/537.36"",""platform"":""Win32"",""language"":""en-GB"",""locale"":""en-GB"",""timeZone"":""Europe/London"",""timezoneOffset"":0,""screen_width"":1536,""screen_height"":864,""scroll_width"":1536,""scroll_height"":674,""window_innerWidth"":1536,""window_innerHeight"":722,""devicePixelRatio"":1.25}",,,,,,,,,,,,,,,568aab53316b10000d50d76b,,,,,,,,,,,,,,,22309.45499985695,,form submission,,,,,,,,,,,,,,,,,,,,,32142.799999952316,32142.39999985695,9800.516,9813.699999809265,9832.945,32161.613,{},,
Introduction,html.Screen,1_0,2022-02-01T13:27:04.018Z,,,,,,,,,,,,,,,,,,,,,,,,,,,,,,,5132.086999809264,,response,,,,,,,,,,,continue,click button,,,,,,,,,37295.699999809265,37293.699999809265,32144.986,32143.199999809265,32161.613,37310.543,,,
Volume calibration,html.Screen,1_1,2022-02-01T13:27:12.943Z,,,,,,,,,,,,,,,,,,,,,,,,,,,,,,,8908.356999856951,,response,,,,,,,,,,,continue,click button,,,,,,,,,46221.299999952316,46218.89999985695,37293.922,37295.799999952316,37310.543,46225.432,,,
Task instructions,html.Screen,1_2,2022-02-01T13:27:18.424Z,,,,,,,,,,,,,,,,,,,,,,,,,,,,,,,5475.767999809264,,response,,,,,,,,,,,continue,click button,,,,,,,,,51701.89999985695,51701.199999809265,46208.713,46221.39999985695,46225.432,51707.56,,,
Sounds,html.Screen,1_3_0_0,2022-02-01T13:27:22.664Z,,,,,,,,,,,,,,,,,,,,,,,,,,,,,,,4249.117000000006,,timeout,,,,,,,,,2,,,,,,,,I,S,O,,55941.89999985695,55940.053,51690.92,51702.09999990463,51707.56,55956.677,,,
Judgement,html.Screen,1_3_0_1,2022-02-01T13:27:24.386Z,,,,,,,,,,,,,,,,,,,,,,,,,,,,true,2,,1707.0229998092618,,response,,,,,,,,,2,,2,click #choice-2,,,,,I,S,O,,57664.299999952316,57663.699999809265,55940.053,55942,55956.677,57689.653,,,
Trial,flow.Sequence,1_3_0,2022-02-01T13:27:24.387Z,,,,,,,,,,,,,,,,,,,,,,,,,,,,,,,5956.1399998092675,,completion,,,,,,,,,2,,,,,,,,I,S,O,,57664.59999990463,57663.699999809265,51690.92,51702.09999990463,51707.56,57689.653,,,
Sounds,html.Screen,1_3_1_0,2022-02-01T13:27:28.645Z,,,,,,,,,,,,,,,,,,,,,,,,,,,,,,,4249.1600000000035,,timeout,,,,,,,,,3,,,,,,,,I,O,S,,61923.09999990463,61922.24,57673.018,57664.699999809265,57689.653,61938.813,,,
Judgement,html.Screen,1_3_1_1,2022-02-01T13:27:29.112Z,,,,,,,,,,,,,,,,,,,,,,,,,,,,true,3,,449.78699990463065,,response,,,,,,,,,3,,3,click #choice-3,,,,,I,O,S,,62389.5,62388.59999990463,61922.24,61923.199999809265,61938.813,62405.357,,,
Trial,flow.Sequence,1_3_1,2022-02-01T13:27:29.112Z,,,,,,,,,,,,,,,,,,,,,,,,,,,,,,,4698.946999904634,,completion,,,,,,,,,3,,,,,,,,I,O,S,,62389.799999952316,62388.59999990463,57673.018,57664.59999990463,57689.653,62405.357,,,
Sounds,html.Screen,1_3_2_0,2022-02-01T13:27:33.360Z,,,,,,,,,,,,,,,,,,,,,,,,,,,,,,,4249.106,,timeout,,,,,,,,,1,,,,,,,,S,I,O,,66638.5,66637.822,62388.691,62389.89999985695,62405.357,66654.463,,,
Judgement,html.Screen,1_3_2_1,2022-02-01T13:27:33.814Z,,,,,,,,,,,,,,,,,,,,,,,,,,,,true,1,,436.6369999046292,,response,,,,,,,,,1,,1,click #choice-1,,,,,S,I,O,,67091.79999995232,67091.09999990463,66637.822,66638.5,66654.463,67121.179,,,
Trial,flow.Sequence,1_3_2,2022-02-01T13:27:33.814Z,,,,,,,,,,,,,,,,,,,,,,,,,,,,,,,4685.742999904629,,completion,,,,,,,,,1,,,,,,,,S,I,O,,67092,67091.09999990463,62388.691,62389.89999985695,62405.357,67121.179,,,
Sounds,html.Screen,1_3_3_0,2022-02-01T13:27:38.076Z,,,,,,,,,,,,,,,,,,,,,,,,,,,,,,,4248.986999999994,,timeout,,,,,,,,,3,,,,,,,,O,I,S,,71354.09999990463,71353.504,67104.398,67092.09999990463,67121.179,71370.166,,,
Judgement,html.Screen,1_3_3_1,2022-02-01T13:27:38.614Z,,,,,,,,,,,,,,,,,,,,,,,,,,,,true,3,,520.8340000000026,,response,,,,,,,,,3,,3,click #choice-3,,,,,O,I,S,,71891.59999990463,71891,71353.504,71354.19999980927,71370.166,71903.405,,,
Trial,flow.Sequence,1_3_3,2022-02-01T13:27:38.614Z,,,,,,,,,,,,,,,,,,,,,,,,,,,,,,,4769.820999999996,,completion,,,,,,,,,3,,,,,,,,O,I,S,,71891.79999995232,71891,67104.398,67092.09999990463,67121.179,71903.405,,,
Sounds,html.Screen,1_3_4_0,2022-02-01T13:27:42.858Z,,,,,,,,,,,,,,,,,,,,,,,,,,,,,,,4249.103000000003,,timeout,,,,,,,,,1,,,,,,,,S,O,I,,76136.5,76135.848,71886.712,71891.89999985695,71903.405,76152.508,,,
Judgement,html.Screen,1_3_4_1,2022-02-01T13:27:43.316Z,,,,,,,,,,,,,,,,,,,,,,,,,,,,true,1,,441.1919998092635,,response,,,,,,,,,1,,1,click #choice-1,,,,,S,O,I,,76594.39999985695,76593.69999980927,76135.848,76136.5,76152.508,76602.396,,,
Trial,flow.Sequence,1_3_4,2022-02-01T13:27:43.316Z,,,,,,,,,,,,,,,,,,,,,,,,,,,,,,,4690.294999809266,,completion,,,,,,,,,1,,,,,,,,S,O,I,,76594.5,76593.69999980927,71886.712,71891.79999995232,71903.405,76602.396,,,
Sounds,html.Screen,1_3_5_0,2022-02-01T13:27:47.557Z,,,,,,,,,,,,,,,,,,,,,,,,,,,,,,,4249.159,,timeout,,,,,,,,,2,,,,,,,,O,S,I,,80835.5,80834.9,76585.746,76594.59999990463,76602.396,80851.555,,,
Judgement,html.Screen,1_3_5_1,2022-02-01T13:27:48.154Z,,,,,,,,,,,,,,,,,,,,,,,,,,,,true,2,,579.945000000007,,response,,,,,,,,,2,,2,click #choice-2,,,,,O,S,I,,81432.39999985695,81431.5,80834.9,80835.59999990463,80851.555,81434.753,,,
Trial,flow.Sequence,1_3_5,2022-02-01T13:27:48.155Z,,,,,,,,,,,,,,,,,,,,,,,,,,,,,,,4829.104000000007,,completion,,,,,,,,,2,,,,,,,,O,S,I,,81432.59999990463,81431.5,76585.746,76594.59999990463,76602.396,81434.753,,,
Task,flow.Loop,1_3,2022-02-01T13:27:48.158Z,,,,,,,,,,,,,,,,,,,,,,,,,,,,,,,29723.940000000002,,completion,,,1,,,,,,,,,,,,,,,,,,81436,81431.5,51690.92,51702,51707.56,81434.753,,,
Trap,html.Screen,1_4,2022-02-01T13:27:48.159Z,,,,,,,,,,,,,,,,,,,,,,,,,,,,,,,NaN,,skipped,,,,,,,,,,,,,,,,,,,,,81436.89999985695,81431.5,,81436.79999995232,,81434.753,,,
Thanks,html.Screen,1_5,2022-02-01T13:27:50.269Z,,,,,,,,,,,,,,,,,,,,,,,,,,,,,,,2111.446999809268,,response,,,,,,,,,,,continue,click button,,,,,,,,,83546.89999985695,83546.19999980927,81418.18,81437,81434.753,85700.535,,,
Headphone screening,flow.Sequence,1,2022-02-01T13:27:50.269Z,,,,,,,,,,,,,,,,,,,,,,,,,,,,,,,51384.58699980927,,completion,,,,,,,,,,,,,,,,,,,,,83547,83546.19999980927,32144.986,32143.099999904633,32161.613,85700.535,,,
Instructions,html.Page,2_0,2022-02-01T13:28:05.382Z,,,,,,,,,,,,,,,,,,,,,,,,,,,,,,,12958.964999999997,,form submission,,,,,,,,,,,,,,,,,,,,,98659.79999995232,98659.5,85683.876,85692.59999990463,85700.535,98681.204,,,
Holding screen,html.Screen,2_1_0_0,2022-02-01T13:28:15.380Z,,,,,,,,,,,,,,,,,,,,,,,,,,,,,,,9997.914000000004,,timeout,,,,,,,,,,,,,,,,,,,,,108662.89999985695,108662.452,98664.54,98660,98681.204,108679.118,,,
screen,html.Screen,2_1_0_1_0,2022-02-01T13:28:19.221Z,,,,,,,,,,,,,,,,,53,,,,,,,,,,,,,,3822.4819999046304,,response,,,,99,,,,,,,Space,keypress(Space),,,,,,,,When -- ----- -- ------ - ------- --- ----------<br>------------- ------ ------ ---- ---- ------- ----- -- ----<br>-------- ------- -- ---------- --- - --- ----- ----- ----<br>---- --- --- ----- --- ---- ---- ------- ----- ---- -------<br>--- --- -- ----- -- --- ---- -- --- ---- -- ------ ------<br>--- ----- -- ----,112503.5,112501.59999990463,108662.452,108663.09999990463,108679.118,112511.62,,0,When
screen,html.Screen,2_1_0_1_1,2022-02-01T13:28:19.585Z,,,,,,,,,,,,,,,,,53,,,,,,,,,,,,,,355.5799998092698,,response,,,,99,,,,,,,Space,keypress(Space),,,,,,,,---- it ----- -- ------ - ------- --- ----------<br>------------- ------ ------ ---- ---- ------- ----- -- ----<br>-------- ------- -- ---------- --- - --- ----- ----- ----<br>---- --- --- ----- --- ---- ---- ------- ----- ---- -------<br>--- --- -- ----- -- --- ---- -- --- ---- -- ------ ------<br>--- ----- -- ----,112867.69999980927,112867.19999980927,112495.626,112503.69999980927,112511.62,112878.213,,1,it
screen,html.Screen,2_1_0_1_2,2022-02-01T13:28:19.940Z,,,,,,,,,,,,,,,,,53,,,,,,,,,,,,,,344.1869998569455,,response,,,,99,,,,,,,Space,keypress(Space),,,,,,,,---- -- comes -- ------ - ------- --- ----------<br>------------- ------ ------ ---- ---- ------- ----- -- ----<br>-------- ------- -- ---------- --- - --- ----- ----- ----<br>---- --- --- ----- --- ---- ---- ------- ----- ---- -------<br>--- --- -- ----- -- --- ---- -- --- ---- -- ------ ------<br>--- ----- -- ----,113222.79999995232,113222.39999985695,112861.65,112867.79999995232,112878.213,113228.147,,2,comes
screen,html.Screen,2_1_0_1_3,2022-02-01T13:28:20.267Z,,,,,,,,,,,,,,,,,53,,,,,,,,,,,,,,321.45299990463536,,response,,,,99,,,,,,,Space,keypress(Space),,,,,,,,---- -- ----- to ------ - ------- --- ----------<br>------------- ------ ------ ---- ---- ------- ----- -- ----<br>-------- ------- -- ---------- --- - --- ----- ----- ----<br>---- --- --- ----- --- ---- ---- ------- ----- ---- -------<br>--- --- -- ----- -- --- ---- -- --- ---- -- ------ ------<br>--- ----- -- ----,113550.09999990463,113549.59999990463,113211.542,113222.89999985695,113228.147,113561.413,,3,to
screen,html.Screen,2_1_0_1_4,2022-02-01T13:28:20.577Z,,,,,,,,,,,,,,,,,53,,,,,,,,,,,,,,298.3869999523158,,response,,,,99,,,,,,,Space,keypress(Space),,,,,,,,---- -- ----- -- having - ------- --- ----------<br>------------- ------ ------ ---- ---- ------- ----- -- ----<br>-------- ------- -- ---------- --- - --- ----- ----- ----<br>---- --- --- ----- --- ---- ---- ------- ----- ---- -------<br>--- --- -- ----- -- --- ---- -- --- ---- -- ------ ------<br>--- ----- -- ----,113860.29999995232,113859.79999995232,113544.781,113550.19999980927,113561.413,113888.6,,4,having
screen,html.Screen,2_1_0_1_5,2022-02-01T13:28:20.916Z,,,,,,,,,,,,,,,,,53,,,,,,,,,,,,,,309.8999999999942,,response,,,,99,,,,,,,Space,keypress(Space),,,,,,,,---- -- ----- -- ------ a ------- --- ----------<br>------------- ------ ------ ---- ---- ------- ----- -- ----<br>-------- ------- -- ---------- --- - --- ----- ----- ----<br>---- --- --- ----- --- ---- ---- ------- ----- ---- -------<br>--- --- -- ----- -- --- ---- -- --- ---- -- ------ ------<br>--- ----- -- ----,114198.79999995232,114198.5,113844.739,113860.39999985695,113888.6,114211.277,,5,a
screen,html.Screen,2_1_0_1_6,2022-02-01T13:28:21.254Z,,,,,,,,,,,,,,,,,53,,,,,,,,,,,,,,325.22299999999814,,response,,,,99,,,,,,,Space,keypress(Space),,,,,,,,---- -- ----- -- ------ - lasting --- ----------<br>------------- ------ ------ ---- ---- ------- ----- -- ----<br>-------- ------- -- ---------- --- - --- ----- ----- ----<br>---- --- --- ----- --- ---- ---- ------- ----- ---- -------<br>--- --- -- ----- -- --- ---- -- --- ---- -- ------ ------<br>--- ----- -- ----,114536.89999985695,114536.5,114194.913,114199,114211.277,114544.54,,6,lasting
screen,html.Screen,2_1_0_1_7,2022-02-01T13:28:21.559Z,,,,,,,,,,,,,,,,,53,,,,,,,,,,,,,,296.55999990463897,,response,,,,99,,,,,,,Space,keypress(Space),,,,,,,,---- -- ----- -- ------ - ------- and ----------<br>------------- ------ ------ ---- ---- ------- ----- -- ----<br>-------- ------- -- ---------- --- - --- ----- ----- ----<br>---- --- --- ----- --- ---- ---- ------- ----- ---- -------<br>--- --- -- ----- -- --- ---- -- --- ---- -- ------ ------<br>--- ----- -- ----,114841.59999990463,114841.09999990463,114527.95,114537,114544.54,114844.505,,7,and
screen,html.Screen,2_1_0_1_8,2022-02-01T13:28:21.904Z,,,,,,,,,,,,,,,,,53,,,,,,,,,,,,,,342.1949998092605,,response,,,,99,,,,,,,Space,keypress(Space),,,,,,,,---- -- ----- -- ------ - ------- --- fulfilling<br>------------- ------ ------ ---- ---- ------- ----- -- ----<br>-------- ------- -- ---------- --- - --- ----- ----- ----<br>---- --- --- ----- --- ---- ---- ------- ----- ---- -------<br>--- --- -- ----- -- --- ---- -- --- ---- -- ------ ------<br>--- ----- -- ----,115187.09999990463,115186.69999980927,114827.879,114841.69999980927,114844.505,115194.395,,8,fulfilling
screen,html.Screen,2_1_0_1_9,2022-02-01T13:28:22.207Z,,,,,,,,,,,,,,,,,53,,,,,,,,,,,,,,295.4049999523122,,response,,,,99,,,,,,,Space,keypress(Space),,,,,,,,"---- -- ----- -- ------ - ------- --- ----------<br>relationship, ------ ------ ---- ---- ------- ----- -- ----<br>-------- ------- -- ---------- --- - --- ----- ----- ----<br>---- --- --- ----- --- ---- ---- ------- ----- ---- -------<br>--- --- -- ----- -- --- ---- -- --- ---- -- ------ ------<br>--- ----- -- ----",115490.19999980927,115489.79999995232,115177.823,115187.19999980927,115194.395,115494.362,,9,"relationship,"
screen,html.Screen,2_1_0_1_10,2022-02-01T13:28:22.553Z,,,,,,,,,,,,,,,,,53,,,,,,,,,,,,,,340.53799985695514,,response,,,,99,,,,,,,Space,keypress(Space),,,,,,,,---- -- ----- -- ------ - ------- --- ----------<br>------------- common ------ ---- ---- ------- ----- -- ----<br>-------- ------- -- ---------- --- - --- ----- ----- ----<br>---- --- --- ----- --- ---- ---- ------- ----- ---- -------<br>--- --- -- ----- -- --- ---- -- --- ---- -- ------ ------<br>--- ----- -- ----,115835.39999985695,115834.89999985695,115477.716,115490.29999995232,115494.362,115844.433,,10,common
screen,html.Screen,2_1_0_1_11,2022-02-01T13:28:22.857Z,,,,,,,,,,,,,,,,,53,,,,,,,,,,,,,,294.86699995231174,,response,,,,99,,,,,,,Space,keypress(Space),,,,,,,,---- -- ----- -- ------ - ------- --- ----------<br>------------- ------ wisdom ---- ---- ------- ----- -- ----<br>-------- ------- -- ---------- --- - --- ----- ----- ----<br>---- --- --- ----- --- ---- ---- ------- ----- ---- -------<br>--- --- -- ----- -- --- ---- -- --- ---- -- ------ ------<br>--- ----- -- ----,116140.09999990463,116139.29999995232,115827.664,115835.5,115844.433,116144.226,,11,wisdom
screen,html.Screen,2_1_0_1_12,2022-02-01T13:28:23.173Z,,,,,,,,,,,,,,,,,53,,,,,,,,,,,,,,311.0739999523212,,response,,,,99,,,,,,,Space,keypress(Space),,,,,,,,---- -- ----- -- ------ - ------- --- ----------<br>------------- ------ ------ says ---- ------- ----- -- ----<br>-------- ------- -- ---------- --- - --- ----- ----- ----<br>---- --- --- ----- --- ---- ---- ------- ----- ---- -------<br>--- --- -- ----- -- --- ---- -- --- ---- -- ------ ------<br>--- ----- -- ----,116455.69999980927,116455.29999995232,116127.854,116140.29999995232,116144.226,116460.856,,12,says
screen,html.Screen,2_1_0_1_13,2022-02-01T13:28:23.429Z,,,,,,,,,,,,,,,,,53,,,,,,,,,,,,,,250.64400000000023,,response,,,,99,,,,,,,Space,keypress(Space),,,,,,,,---- -- ----- -- ------ - ------- --- ----------<br>------------- ------ ------ ---- that ------- ----- -- ----<br>-------- ------- -- ---------- --- - --- ----- ----- ----<br>---- --- --- ----- --- ---- ---- ------- ----- ---- -------<br>--- --- -- ----- -- --- ---- -- --- ---- -- ------ ------<br>--- ----- -- ----,116712.09999990463,116711.5,116444.495,116455.89999985695,116460.856,116727.742,,13,that
screen,html.Screen,2_1_0_1_14,2022-02-01T13:28:23.748Z,,,,,,,,,,,,,,,,,53,,,,,,,,,,,,,,302.95799980926677,,response,,,,99,,,,,,,Space,keypress(Space),,,,,,,,---- -- ----- -- ------ - ------- --- ----------<br>------------- ------ ------ ---- ---- feeling ----- -- ----<br>-------- ------- -- ---------- --- - --- ----- ----- ----<br>---- --- --- ----- --- ---- ---- ------- ----- ---- -------<br>--- --- -- ----- -- --- ---- -- --- ---- -- ------ ------<br>--- ----- -- ----,117031.19999980927,117030.69999980927,116710.797,116712.09999990463,116727.742,117044.038,,14,feeling
screen,html.Screen,2_1_0_1_15,2022-02-01T13:28:24.021Z,,,,,,,,,,,,,,,,,53,,,,,,,,,,,,,,259.5619999046321,,response,,,,99,,,,,,,Space,keypress(Space),,,,,,,,---- -- ----- -- ------ - ------- --- ----------<br>------------- ------ ------ ---- ---- ------- close -- ----<br>-------- ------- -- ---------- --- - --- ----- ----- ----<br>---- --- --- ----- --- ---- ---- ------- ----- ---- -------<br>--- --- -- ----- -- --- ---- -- --- ---- -- ------ ------<br>--- ----- -- ----,117304,117303.59999990463,117027.43,117031.39999985695,117044.038,117310.646,,15,close
screen,html.Screen,2_1_0_1_16,2022-02-01T13:28:24.321Z,,,,,,,,,,,,,,,,,53,,,,,,,,,,,,,,292.4539999046392,,response,,,,99,,,,,,,Space,keypress(Space),,,,,,,,---- -- ----- -- ------ - ------- --- ----------<br>------------- ------ ------ ---- ---- ------- ----- to ----<br>-------- ------- -- ---------- --- - --- ----- ----- ----<br>---- --- --- ----- --- ---- ---- ------- ----- ---- -------<br>--- --- -- ----- -- --- ---- -- --- ---- -- ------ ------<br>--- ----- -- ----,117603.5,117603.09999990463,117294.011,117304.09999990463,117310.646,117610.56,,16,to
screen,html.Screen,2_1_0_1_17,2022-02-01T13:28:24.607Z,,,,,,,,,,,,,,,,,53,,,,,,,,,,,,,,279.13999980926747,,response,,,,99,,,,,,,Space,keypress(Space),,,,,,,,---- -- ----- -- ------ - ------- --- ----------<br>------------- ------ ------ ---- ---- ------- ----- -- your<br>-------- ------- -- ---------- --- - --- ----- ----- ----<br>---- --- --- ----- --- ---- ---- ------- ----- ---- -------<br>--- --- -- ----- -- --- ---- -- --- ---- -- ------ ------<br>--- ----- -- ----,117890.19999980927,117889.69999980927,117593.972,117603.59999990463,117610.56,117893.888,,17,your
screen,html.Screen,2_1_0_1_18,2022-02-01T13:28:24.890Z,,,,,,,,,,,,,,,,,53,,,,,,,,,,,,,,278.41199995231,,response,,,,99,,,,,,,Space,keypress(Space),,,,,,,,---- -- ----- -- ------ - ------- --- ----------<br>------------- ------ ------ ---- ---- ------- ----- -- ----<br>romantic ------- -- ---------- --- - --- ----- ----- ----<br>---- --- --- ----- --- ---- ---- ------- ----- ---- -------<br>--- --- -- ----- -- --- ---- -- --- ---- -- ------ ------<br>--- ----- -- ----,118173,118172.29999995232,117877.23,117890.29999995232,117893.888,118177.158,,18,romantic
screen,html.Screen,2_1_0_1_19,2022-02-01T13:28:25.165Z,,,,,,,,,,,,,,,,,53,,,,,,,,,,,,,,269.94199990463676,,response,,,,99,,,,,,,Space,keypress(Space),,,,,,,,---- -- ----- -- ------ - ------- --- ----------<br>------------- ------ ------ ---- ---- ------- ----- -- ----<br>-------- partner -- ---------- --- - --- ----- ----- ----<br>---- --- --- ----- --- ---- ---- ------- ----- ---- -------<br>--- --- -- ----- -- --- ---- -- --- ---- -- ------ ------<br>--- ----- -- ----,118447.59999990463,118447.09999990463,118160.675,118173.09999990463,118177.158,118460.603,,19,partner
screen,html.Screen,2_1_0_1_20,2022-02-01T13:28:25.443Z,,,,,,,,,,,,,,,,,53,,,,,,,,,,,,,,265.29699985694606,,response,,,,99,,,,,,,Space,keypress(Space),,,,,,,,---- -- ----- -- ------ - ------- --- ----------<br>------------- ------ ------ ---- ---- ------- ----- -- ----<br>-------- ------- is ---------- --- - --- ----- ----- ----<br>---- --- --- ----- --- ---- ---- ------- ----- ---- -------<br>--- --- -- ----- -- --- ---- -- --- ---- -- ------ ------<br>--- ----- -- ----,118726.19999980927,118725.89999985695,118443.848,118447.69999980927,118460.603,118755.622,,20,is
screen,html.Screen,2_1_0_1_21,2022-02-01T13:28:25.730Z,,,,,,,,,,,,,,,,,53,,,,,,,,,,,,,,256.97799990462954,,response,,,,99,,,,,,,Space,keypress(Space),,,,,,,,---- -- ----- -- ------ - ------- --- ----------<br>------------- ------ ------ ---- ---- ------- ----- -- ----<br>-------- ------- -- paramount. --- - --- ----- ----- ----<br>---- --- --- ----- --- ---- ---- ------- ----- ---- -------<br>--- --- -- ----- -- --- ---- -- --- ---- -- ------ ------<br>--- ----- -- ----,119013,119012.59999990463,118710.441,118726.29999995232,118755.622,119026.996,,21,paramount.
screen,html.Screen,2_1_0_1_22,2022-02-01T13:28:25.992Z,,,,,,,,,,,,,,,,,53,,,,,,,,,,,,,,247.50400000000081,,response,,,,99,,,,,,,Space,keypress(Space),,,,,,,,---- -- ----- -- ------ - ------- --- ----------<br>------------- ------ ------ ---- ---- ------- ----- -- ----<br>-------- ------- -- ---------- But - --- ----- ----- ----<br>---- --- --- ----- --- ---- ---- ------- ----- ---- -------<br>--- --- -- ----- -- --- ---- -- --- ---- -- ------ ------<br>--- ----- -- ----,119274.89999985695,119274.5,119010.401,119013.09999990463,119026.996,119276.93,,22,But
screen,html.Screen,2_1_0_1_23,2022-02-01T13:28:26.285Z,,,,,,,,,,,,,,,,,53,,,,,,,,,,,,,,290.570000000007,,response,,,,99,,,,,,,Space,keypress(Space),,,,,,,,---- -- ----- -- ------ - ------- --- ----------<br>------------- ------ ------ ---- ---- ------- ----- -- ----<br>-------- ------- -- ---------- --- a --- ----- ----- ----<br>---- --- --- ----- --- ---- ---- ------- ----- ---- -------<br>--- --- -- ----- -- --- ---- -- --- ---- -- ------ ------<br>--- ----- -- ----,119568,119567.5,119260.299,119275,119276.93,119576.823,,23,a
screen,html.Screen,2_1_0_1_24,2022-02-01T13:28:26.559Z,,,,,,,,,,,,,,,,,53,,,,,,,,,,,,,,264.7769999046286,,response,,,,99,,,,,,,Space,keypress(Space),,,,,,,,---- -- ----- -- ------ - ------- --- ----------<br>------------- ------ ------ ---- ---- ------- ----- -- ----<br>-------- ------- -- ---------- --- - new ----- ----- ----<br>---- --- --- ----- --- ---- ---- ------- ----- ---- -------<br>--- --- -- ----- -- --- ---- -- --- ---- -- ------ ------<br>--- ----- -- ----,119842.09999990463,119841.59999990463,119560.222,119568.09999990463,119576.823,119872.44,,24,new
screen,html.Screen,2_1_0_1_25,2022-02-01T13:28:26.832Z,,,,,,,,,,,,,,,,,53,,,,,,,,,,,,,,241.95999985694652,,response,,,,99,,,,,,,Space,keypress(Space),,,,,,,,---- -- ----- -- ------ - ------- --- ----------<br>------------- ------ ------ ---- ---- ------- ----- -- ----<br>-------- ------- -- ---------- --- - --- study ----- ----<br>---- --- --- ----- --- ---- ---- ------- ----- ---- -------<br>--- --- -- ----- -- --- ---- -- --- ---- -- ------ ------<br>--- ----- -- ----,120115.09999990463,120114.39999985695,119826.806,119842.29999995232,119872.44,120127.196,,25,study
screen,html.Screen,2_1_0_1_26,2022-02-01T13:28:27.127Z,,,,,,,,,,,,,,,,,53,,,,,,,,,,,,,,282.50399980926886,,response,,,,99,,,,,,,Space,keypress(Space),,,,,,,,---- -- ----- -- ------ - ------- --- ----------<br>------------- ------ ------ ---- ---- ------- ----- -- ----<br>-------- ------- -- ---------- --- - --- ----- finds ----<br>---- --- --- ----- --- ---- ---- ------- ----- ---- -------<br>--- --- -- ----- -- --- ---- -- --- ---- -- ------ ------<br>--- ----- -- ----,120410.09999990463,120409.69999980927,120110.131,120115.29999995232,120127.196,120426.698,,26,finds
screen,html.Screen,2_1_0_1_27,2022-02-01T13:28:27.393Z,,,,,,,,,,,,,,,,,53,,,,,,,,,,,,,,248.30199999999604,,response,,,,99,,,,,,,Space,keypress(Space),,,,,,,,---- -- ----- -- ------ - ------- --- ----------<br>------------- ------ ------ ---- ---- ------- ----- -- ----<br>-------- ------- -- ---------- --- - --- ----- ----- that<br>---- --- --- ----- --- ---- ---- ------- ----- ---- -------<br>--- --- -- ----- -- --- ---- -- --- ---- -- ------ ------<br>--- ----- -- ----,120675.39999985695,120675,120410.098,120410.19999980927,120426.698,120705.345,,27,that
screen,html.Screen,2_1_0_1_28,2022-02-01T13:28:27.652Z,,,,,,,,,,,,,,,,,53,,,,,,,,,,,,,,229.2549999046314,,response,,,,99,,,,,,,Space,keypress(Space),,,,,,,,---- -- ----- -- ------ - ------- --- ----------<br>------------- ------ ------ ---- ---- ------- ----- -- ----<br>-------- ------- -- ---------- --- - --- ----- ----- ----<br>it's --- --- ----- --- ---- ---- ------- ----- ---- -------<br>--- --- -- ----- -- --- ---- -- --- ---- -- ------ ------<br>--- ----- -- ----,120935.29999995232,120934.59999990463,120659.994,120675.5,120705.345,120943.295,,28,it's
screen,html.Screen,2_1_0_1_29,2022-02-01T13:28:27.916Z,,,,,,,,,,,,,,,,,53,,,,,,,,,,,,,,255.40499980926688,,response,,,,99,,,,,,,Space,keypress(Space),,,,,,,,---- -- ----- -- ------ - ------- --- ----------<br>------------- ------ ------ ---- ---- ------- ----- -- ----<br>-------- ------- -- ---------- --- - --- ----- ----- ----<br>---- not --- ----- --- ---- ---- ------- ----- ---- -------<br>--- --- -- ----- -- --- ---- -- --- ---- -- ------ ------<br>--- ----- -- ----,121199.19999980927,121198.69999980927,120926.634,120935.29999995232,120943.295,121209.832,,29,not
screen,html.Screen,2_1_0_1_30,2022-02-01T13:28:28.187Z,,,,,,,,,,,,,,,,,53,,,,,,,,,,,,,,259.36799980927026,,response,,,,99,,,,,,,Space,keypress(Space),,,,,,,,---- -- ----- -- ------ - ------- --- ----------<br>------------- ------ ------ ---- ---- ------- ----- -- ----<br>-------- ------- -- ---------- --- - --- ----- ----- ----<br>---- --- how ----- --- ---- ---- ------- ----- ---- -------<br>--- --- -- ----- -- --- ---- -- --- ---- -- ------ ------<br>--- ----- -- ----,121469.59999990463,121469.19999980927,121193.297,121199.29999995232,121209.832,121476.456,,30,how
screen,html.Screen,2_1_0_1_31,2022-02-01T13:28:28.453Z,,,,,,,,,,,,,,,,,53,,,,,,,,,,,,,,258.94399985694326,,response,,,,99,,,,,,,Space,keypress(Space),,,,,,,,---- -- ----- -- ------ - ------- --- ----------<br>------------- ------ ------ ---- ---- ------- ----- -- ----<br>-------- ------- -- ---------- --- - --- ----- ----- ----<br>---- --- --- close --- ---- ---- ------- ----- ---- -------<br>--- --- -- ----- -- --- ---- -- --- ---- -- ------ ------<br>--- ----- -- ----,121735.79999995232,121735.39999985695,121459.797,121469.69999980927,121476.456,121743.04,,31,close
screen,html.Screen,2_1_0_1_32,2022-02-01T13:28:28.729Z,,,,,,,,,,,,,,,,,53,,,,,,,,,,,,,,267.9600000000064,,response,,,,99,,,,,,,Space,keypress(Space),,,,,,,,---- -- ----- -- ------ - ------- --- ----------<br>------------- ------ ------ ---- ---- ------- ----- -- ----<br>-------- ------- -- ---------- --- - --- ----- ----- ----<br>---- --- --- ----- you ---- ---- ------- ----- ---- -------<br>--- --- -- ----- -- --- ---- -- --- ---- -- ------ ------<br>--- ----- -- ----,122011.69999980927,122011,121726.442,121735.89999985695,121743.04,122026.673,,32,you
screen,html.Screen,2_1_0_1_33,2022-02-01T13:28:28.985Z,,,,,,,,,,,,,,,,,53,,,,,,,,,,,,,,240.32700000000477,,response,,,,99,,,,,,,Space,keypress(Space),,,,,,,,---- -- ----- -- ------ - ------- --- ----------<br>------------- ------ ------ ---- ---- ------- ----- -- ----<br>-------- ------- -- ---------- --- - --- ----- ----- ----<br>---- --- --- ----- --- feel ---- ------- ----- ---- -------<br>--- --- -- ----- -- --- ---- -- --- ---- -- ------ ------<br>--- ----- -- ----,122267.39999985695,122267,122009.738,122011.89999985695,122026.673,122276.275,,33,feel
screen,html.Screen,2_1_0_1_34,2022-02-01T13:28:29.233Z,,,,,,,,,,,,,,,,,53,,,,,,,,,,,,,,238.92499980927096,,response,,,,99,,,,,,,Space,keypress(Space),,,,,,,,---- -- ----- -- ------ - ------- --- ----------<br>------------- ------ ------ ---- ---- ------- ----- -- ----<br>-------- ------- -- ---------- --- - --- ----- ----- ----<br>---- --- --- ----- --- ---- that ------- ----- ---- -------<br>--- --- -- ----- -- --- ---- -- --- ---- -- ------ ------<br>--- ----- -- ----,122515.5,122515.19999980927,122260.212,122267.5,122276.275,122526.221,,34,that
screen,html.Screen,2_1_0_1_35,2022-02-01T13:28:29.489Z,,,,,,,,,,,,,,,,,53,,,,,,,,,,,,,,245.278999999995,,response,,,,99,,,,,,,Space,keypress(Space),,,,,,,,---- -- ----- -- ------ - ------- --- ----------<br>------------- ------ ------ ---- ---- ------- ----- -- ----<br>-------- ------- -- ---------- --- - --- ----- ----- ----<br>---- --- --- ----- --- ---- ---- matters ----- ---- -------<br>--- --- -- ----- -- --- ---- -- --- ---- -- ------ ------<br>--- ----- -- ----,122771.89999985695,122771.5,122509.619,122515.69999980927,122526.221,122776.215,,35,matters
screen,html.Screen,2_1_0_1_36,2022-02-01T13:28:29.716Z,,,,,,,,,,,,,,,,,53,,,,,,,,,,,,,,222.18499985695234,,response,,,,99,,,,,,,Space,keypress(Space),,,,,,,,"---- -- ----- -- ------ - ------- --- ----------<br>------------- ------ ------ ---- ---- ------- ----- -- ----<br>-------- ------- -- ---------- --- - --- ----- ----- ----<br>---- --- --- ----- --- ---- ---- ------- most, ---- -------<br>--- --- -- ----- -- --- ---- -- --- ---- -- ------ ------<br>--- ----- -- ----",122999.09999990463,122998.39999985695,122759.577,122772.09999990463,122776.215,123009.511,,36,"most,"
screen,html.Screen,2_1_0_1_37,2022-02-01T13:28:29.943Z,,,,,,,,,,,,,,,,,53,,,,,,,,,,,,,,215.58899990463397,,response,,,,99,,,,,,,Space,keypress(Space),,,,,,,,---- -- ----- -- ------ - ------- --- ----------<br>------------- ------ ------ ---- ---- ------- ----- -- ----<br>-------- ------- -- ---------- --- - --- ----- ----- ----<br>---- --- --- ----- --- ---- ---- ------- ----- it's -------<br>--- --- -- ----- -- --- ---- -- --- ---- -- ------ ------<br>--- ----- -- ----,123225.5,123225.09999990463,122992.856,122999.19999980927,123009.511,123259.436,,37,it's
screen,html.Screen,2_1_0_1_38,2022-02-01T13:28:30.196Z,,,,,,,,,,,,,,,,,53,,,,,,,,,,,,,,219.36399995231477,,response,,,,99,,,,,,,Space,keypress(Space),,,,,,,,---- -- ----- -- ------ - ------- --- ----------<br>------------- ------ ------ ---- ---- ------- ----- -- ----<br>-------- ------- -- ---------- --- - --- ----- ----- ----<br>---- --- --- ----- --- ---- ---- ------- ----- ---- whether<br>--- --- -- ----- -- --- ---- -- --- ---- -- ------ ------<br>--- ----- -- ----,123479.29999995232,123478.79999995232,123242.764,123225.69999980927,123259.436,123492.683,,38,whether
screen,html.Screen,2_1_0_1_39,2022-02-01T13:28:30.421Z,,,,,,,,,,,,,,,,,53,,,,,,,,,,,,,,210.91699990462803,,response,,,,99,,,,,,,Space,keypress(Space),,,,,,,,---- -- ----- -- ------ - ------- --- ----------<br>------------- ------ ------ ---- ---- ------- ----- -- ----<br>-------- ------- -- ---------- --- - --- ----- ----- ----<br>---- --- --- ----- --- ---- ---- ------- ----- ---- -------<br>you --- -- ----- -- --- ---- -- --- ---- -- ------ ------<br>--- ----- -- ----,123704.09999990463,123703.59999990463,123476.046,123479.39999985695,123492.683,123709.311,,39,you
screen,html.Screen,2_1_0_1_40,2022-02-01T13:28:30.660Z,,,,,,,,,,,,,,,,,53,,,,,,,,,,,,,,232.58899985694734,,response,,,,99,,,,,,,Space,keypress(Space),,,,,,,,---- -- ----- -- ------ - ------- --- ----------<br>------------- ------ ------ ---- ---- ------- ----- -- ----<br>-------- ------- -- ---------- --- - --- ----- ----- ----<br>---- --- --- ----- --- ---- ---- ------- ----- ---- -------<br>--- are -- ----- -- --- ---- -- --- ---- -- ------ ------<br>--- ----- -- ----,123942.5,123941.89999985695,123692.674,123704.29999995232,123709.311,123959.267,,40,are
screen,html.Screen,2_1_0_1_41,2022-02-01T13:28:30.883Z,,,,,,,,,,,,,,,,,53,,,,,,,,,,,,,,206.33299990462547,,response,,,,99,,,,,,,Space,keypress(Space),,,,,,,,---- -- ----- -- ------ - ------- --- ----------<br>------------- ------ ------ ---- ---- ------- ----- -- ----<br>-------- ------- -- ---------- --- - --- ----- ----- ----<br>---- --- --- ----- --- ---- ---- ------- ----- ---- -------<br>--- --- as ----- -- --- ---- -- --- ---- -- ------ ------<br>--- ----- -- ----,124166,124165.59999990463,123942.654,123942.59999990463,123959.267,124176.174,,41,as
screen,html.Screen,2_1_0_1_42,2022-02-01T13:28:31.097Z,,,,,,,,,,,,,,,,,53,,,,,,,,,,,,,,202.82600000000093,,response,,,,99,,,,,,,Space,keypress(Space),,,,,,,,---- -- ----- -- ------ - ------- --- ----------<br>------------- ------ ------ ---- ---- ------- ----- -- ----<br>-------- ------- -- ---------- --- - --- ----- ----- ----<br>---- --- --- ----- --- ---- ---- ------- ----- ---- -------<br>--- --- -- close -- --- ---- -- --- ---- -- ------ ------<br>--- ----- -- ----,124379.5,124379,124159.222,124166.19999980927,124176.174,124392.506,,42,close
screen,html.Screen,2_1_0_1_43,2022-02-01T13:28:31.320Z,,,,,,,,,,,,,,,,,53,,,,,,,,,,,,,,210.1939998092712,,response,,,,99,,,,,,,Space,keypress(Space),,,,,,,,---- -- ----- -- ------ - ------- --- ----------<br>------------- ------ ------ ---- ---- ------- ----- -- ----<br>-------- ------- -- ---------- --- - --- ----- ----- ----<br>---- --- --- ----- --- ---- ---- ------- ----- ---- -------<br>--- --- -- ----- as --- ---- -- --- ---- -- ------ ------<br>--- ----- -- ----,124603.09999990463,124602.69999980927,124375.965,124379.59999990463,124392.506,124609.115,,43,as
screen,html.Screen,2_1_0_1_44,2022-02-01T13:28:31.531Z,,,,,,,,,,,,,,,,,53,,,,,,,,,,,,,,203.98499990462733,,response,,,,99,,,,,,,Space,keypress(Space),,,,,,,,---- -- ----- -- ------ - ------- --- ----------<br>------------- ------ ------ ---- ---- ------- ----- -- ----<br>-------- ------- -- ---------- --- - --- ----- ----- ----<br>---- --- --- ----- --- ---- ---- ------- ----- ---- -------<br>--- --- -- ----- -- you ---- -- --- ---- -- ------ ------<br>--- ----- -- ----,124813.59999990463,124813.09999990463,124592.509,124603.29999995232,124609.115,124825.819,,44,you
screen,html.Screen,2_1_0_1_45,2022-02-01T13:28:31.762Z,,,,,,,,,,,,,,,,,53,,,,,,,,,,,,,,217.98099995231314,,response,,,,99,,,,,,,Space,keypress(Space),,,,,,,,---- -- ----- -- ------ - ------- --- ----------<br>------------- ------ ------ ---- ---- ------- ----- -- ----<br>-------- ------- -- ---------- --- - --- ----- ----- ----<br>---- --- --- ----- --- ---- ---- ------- ----- ---- -------<br>--- --- -- ----- -- --- want -- --- ---- -- ------ ------<br>--- ----- -- ----,125044.29999995232,125043.79999995232,124809.108,124813.69999980927,124825.819,125059.029,,45,want
screen,html.Screen,2_1_0_1_46,2022-02-01T13:28:31.995Z,,,,,,,,,,,,,,,,,53,,,,,,,,,,,,,,217.7709999523213,,response,,,,99,,,,,,,Space,keypress(Space),,,,,,,,---- -- ----- -- ------ - ------- --- ----------<br>------------- ------ ------ ---- ---- ------- ----- -- ----<br>-------- ------- -- ---------- --- - --- ----- ----- ----<br>---- --- --- ----- --- ---- ---- ------- ----- ---- -------<br>--- --- -- ----- -- --- ---- to --- ---- -- ------ ------<br>--- ----- -- ----,125277.39999985695,125276.79999995232,125042.426,125044.39999985695,125059.029,125292.37,,46,to
screen,html.Screen,2_1_0_1_47,2022-02-01T13:28:32.215Z,,,,,,,,,,,,,,,,,53,,,,,,,,,,,,,,204.92999995232094,,response,,,,99,,,,,,,Space,keypress(Space),,,,,,,,"---- -- ----- -- ------ - ------- --- ----------<br>------------- ------ ------ ---- ---- ------- ----- -- ----<br>-------- ------- -- ---------- --- - --- ----- ----- ----<br>---- --- --- ----- --- ---- ---- ------- ----- ---- -------<br>--- --- -- ----- -- --- ---- -- be, ---- -- ------ ------<br>--- ----- -- ----",125497.79999995232,125497.29999995232,125275.668,125277.39999985695,125292.37,125508.94,,47,"be,"
screen,html.Screen,2_1_0_1_48,2022-02-01T13:28:32.465Z,,,,,,,,,,,,,,,,,53,,,,,,,,,,,,,,238.55999999999767,,response,,,,99,,,,,,,Space,keypress(Space),,,,,,,,---- -- ----- -- ------ - ------- --- ----------<br>------------- ------ ------ ---- ---- ------- ----- -- ----<br>-------- ------- -- ---------- --- - --- ----- ----- ----<br>---- --- --- ----- --- ---- ---- ------- ----- ---- -------<br>--- --- -- ----- -- --- ---- -- --- even -- ------ ------<br>--- ----- -- ----,125747.89999985695,125747.5,125492.331,125497.79999995232,125508.94,125758.886,,48,even
screen,html.Screen,2_1_0_1_49,2022-02-01T13:28:32.732Z,,,,,,,,,,,,,,,,,53,,,,,,,,,,,,,,255.6140000000014,,response,,,,99,,,,,,,Space,keypress(Space),,,,,,,,---- -- ----- -- ------ - ------- --- ----------<br>------------- ------ ------ ---- ---- ------- ----- -- ----<br>-------- ------- -- ---------- --- - --- ----- ----- ----<br>---- --- --- ----- --- ---- ---- ------- ----- ---- -------<br>--- --- -- ----- -- --- ---- -- --- ---- if ------ ------<br>--- ----- -- ----,126014.89999985695,126014.5,125742.272,125748.09999990463,125758.886,126025.521,,49,if
screen,html.Screen,2_1_0_1_50,2022-02-01T13:28:32.950Z,,,,,,,,,,,,,,,,,53,,,,,,,,,,,,,,207.0789999046392,,response,,,,99,,,,,,,Space,keypress(Space),,,,,,,,---- -- ----- -- ------ - ------- --- ----------<br>------------- ------ ------ ---- ---- ------- ----- -- ----<br>-------- ------- -- ---------- --- - --- ----- ----- ----<br>---- --- --- ----- --- ---- ---- ------- ----- ---- -------<br>--- --- -- ----- -- --- ---- -- --- ---- -- that's ------<br>--- ----- -- ----,126233.29999995232,126232.59999990463,126008.899,126015.09999990463,126025.521,126242.455,,50,that's
screen,html.Screen,2_1_0_1_51,2022-02-01T13:28:33.178Z,,,,,,,,,,,,,,,,,53,,,,,,,,,,,,,,218.04499999999825,,response,,,,99,,,,,,,Space,keypress(Space),,,,,,,,---- -- ----- -- ------ - ------- --- ----------<br>------------- ------ ------ ---- ---- ------- ----- -- ----<br>-------- ------- -- ---------- --- - --- ----- ----- ----<br>---- --- --- ----- --- ---- ---- ------- ----- ---- -------<br>--- --- -- ----- -- --- ---- -- --- ---- -- ------ really<br>--- ----- -- ----,126461,126460.5,126225.77,126233.39999985695,126242.455,126475.486,,51,really
screen,html.Screen,2_1_0_1_52,2022-02-01T13:28:33.515Z,,,,,,,,,,,,,,,,,53,,,,,,,,,,,,,,321.41399985694443,,response,,,,99,,,,,,,Space,keypress(Space),,,,,,,,---- -- ----- -- ------ - ------- --- ----------<br>------------- ------ ------ ---- ---- ------- ----- -- ----<br>-------- ------- -- ---------- --- - --- ----- ----- ----<br>---- --- --- ----- --- ---- ---- ------- ----- ---- -------<br>--- --- -- ----- -- --- ---- -- --- ---- -- ------ ------<br>not ----- -- ----,126797.29999995232,126796.89999985695,126459.321,126461.09999990463,126475.486,126808.695,,52,not
screen,html.Screen,2_1_0_1_53,2022-02-01T13:28:33.778Z,,,,,,,,,,,,,,,,,53,,,,,,,,,,,,,,251.30499999999302,,response,,,,99,,,,,,,Space,keypress(Space),,,,,,,,---- -- ----- -- ------ - ------- --- ----------<br>------------- ------ ------ ---- ---- ------- ----- -- ----<br>-------- ------- -- ---------- --- - --- ----- ----- ----<br>---- --- --- ----- --- ---- ---- ------- ----- ---- -------<br>--- --- -- ----- -- --- ---- -- --- ---- -- ------ ------<br>--- close -- ----,127060.59999990463,127060,126792.148,126797.5,126808.695,127075.325,,53,close
screen,html.Screen,2_1_0_1_54,2022-02-01T13:28:34.121Z,,,,,,,,,,,,,,,,,53,,,,,,,,,,,,,,328.37499980926805,,response,,,,99,,,,,,,Space,keypress(Space),,,,,,,,---- -- ----- -- ------ - ------- --- ----------<br>------------- ------ ------ ---- ---- ------- ----- -- ----<br>-------- ------- -- ---------- --- - --- ----- ----- ----<br>---- --- --- ----- --- ---- ---- ------- ----- ---- -------<br>--- --- -- ----- -- --- ---- -- --- ---- -- ------ ------<br>--- ----- at ----,127404.19999980927,127403.69999980927,127058.669,127060.69999980927,127075.325,127408.567,,54,at
screen,html.Screen,2_1_0_1_55,2022-02-01T13:28:34.566Z,,,,,,,,,,,,,,,,,53,,,,,,,,,,,,,,440.2329999523208,,response,,,,99,,,,,,,Space,keypress(Space),,,,,,,,---- -- ----- -- ------ - ------- --- ----------<br>------------- ------ ------ ---- ---- ------- ----- -- ----<br>-------- ------- -- ---------- --- - --- ----- ----- ----<br>---- --- --- ----- --- ---- ---- ------- ----- ---- -------<br>--- --- -- ----- -- --- ---- -- --- ---- -- ------ ------<br>--- ----- -- all.,127849.19999980927,127848.79999995232,127391.91,127404.29999995232,127408.567,127858.438,,55,all.
Item 99,flow.Loop,2_1_0_1,2022-02-01T13:28:34.567Z,,,,,,,,,,,,,,,,,,,,,,,,,,,,,,,19169.681999952314,,completion,,,,,D,,,,,,,,,,,silence,,,,,127849.39999985695,127848.79999995232,108662.452,108663,108679.118,127858.438,,,
Question 1,html.Screen,2_1_0_2,2022-02-01T13:28:36.794Z,,,,,,,,,,,,,,,,,,,,,,,,,,,,true,FALSE,,2217.461999856954,,response,,,,99,D,,,,,,FALSE,click #choice-2,,,,silence,,,,,130076.59999990463,130075.89999985695,127841.866,127849.5,127858.438,130091.308,,,
Question 2,html.Screen,2_1_0_3,2022-02-01T13:28:40.881Z,,,,,,,,,,,,,,,,,,,,,,,,,,,,true,TRUE,,4072.1919999999955,,response,,,,99,D,,,,,,TRUE,click #choice-1,,,,silence,,,,,134164,134163.5,130074.678,130076.69999980927,130091.308,134190.476,,,
Item 99,flow.Sequence,2_1_0,2022-02-01T13:28:40.881Z,,,,,,,,,,,,,,,,,,,,,,,,,,,,,,,35482.296,,completion,,,,,,,,,,,,,,,,,,,,,134164.19999980927,134163.5,98664.54,98660,98681.204,134190.476,,,
Holding screen,html.Screen,2_1_1_0,2022-02-01T13:28:50.890Z,,,,,,,,,,,,,,,,,,,,,,,,,,,,,,,9997.934000000008,,timeout,,,,,,,,,,,,,,,,,,,,,144172.5,144171.754,134173.832,134164.29999995232,134190.476,144188.41,,,
screen,html.Screen,2_1_1_1_0,2022-02-01T13:28:53.219Z,,,,,,,,,,,,,,,,,54,,,,,,,,,,,,,,2312.4899998569454,,response,,,,100,,,,,,,Space,keypress(Space),,,,,,,,At --- ---- --- ------ ----- ------- ---- -- --- ------- --<br>------- ---------- ------ -- ----- -- ----- -- ---- ------<br>--- ----- --- --- ------ -------- ----- --- ------ ----- --<br>----- ----- ---------- --- --- ------ ------ ---- -- ------<br>------- --- ------ ----- --- ---- ------- -- ---- --- --<br>------- ------,146501.39999985695,146500.89999985695,144171.754,144172.69999980927,144188.41,146504.598,,0,At
screen,html.Screen,2_1_1_1_1,2022-02-01T13:28:53.625Z,,,,,,,,,,,,,,,,,54,,,,,,,,,,,,,,403.00199990463443,,response,,,,100,,,,,,,Space,keypress(Space),,,,,,,,-- the ---- --- ------ ----- ------- ---- -- --- ------- --<br>------- ---------- ------ -- ----- -- ----- -- ---- ------<br>--- ----- --- --- ------ -------- ----- --- ------ ----- --<br>----- ----- ---------- --- --- ------ ------ ---- -- ------<br>------- --- ------ ----- --- ---- ------- -- ---- --- --<br>------- ------,146908,146907.59999990463,146488.304,146501.5,146504.598,146921.211,,1,the
screen,html.Screen,2_1_1_1_2,2022-02-01T13:28:53.993Z,,,,,,,,,,,,,,,,,54,,,,,,,,,,,,,,354.4889998092549,,response,,,,100,,,,,,,Space,keypress(Space),,,,,,,,-- --- time --- ------ ----- ------- ---- -- --- ------- --<br>------- ---------- ------ -- ----- -- ----- -- ---- ------<br>--- ----- --- --- ------ -------- ----- --- ------ ----- --<br>----- ----- ---------- --- --- ------ ------ ---- -- ------<br>------- --- ------ ----- --- ---- ------- -- ---- --- --<br>------- ------,147276.09999990463,147275.69999980927,146904.54,146908.09999990463,146921.211,147287.805,,2,time
screen,html.Screen,2_1_1_1_3,2022-02-01T13:28:54.289Z,,,,,,,,,,,,,,,,,54,,,,,,,,,,,,,,283.8949998092721,,response,,,,100,,,,,,,Space,keypress(Space),,,,,,,,-- --- ---- the ------ ----- ------- ---- -- --- ------- --<br>------- ---------- ------ -- ----- -- ----- -- ---- ------<br>--- ----- --- --- ------ -------- ----- --- ------ ----- --<br>----- ----- ---------- --- --- ------ ------ ---- -- ------<br>------- --- ------ ----- --- ---- ------- -- ---- --- --<br>------- ------,147572.09999990463,147571.69999980927,147271.247,147276.29999995232,147287.805,147587.729,,3,the
screen,html.Screen,2_1_1_1_4,2022-02-01T13:28:54.476Z,,,,,,,,,,,,,,,,,54,,,,,,,,,,,,,,170.87099990464048,,response,,,,100,,,,,,,Space,keypress(Space),,,,,,,,-- --- ---- --- French ----- ------- ---- -- --- ------- --<br>------- ---------- ------ -- ----- -- ----- -- ---- ------<br>--- ----- --- --- ------ -------- ----- --- ------ ----- --<br>----- ----- ---------- --- --- ------ ------ ---- -- ------<br>------- --- ------ ----- --- ---- ------- -- ---- --- --<br>------- ------,147759,147758.59999990463,147571.101,147572.09999990463,147587.729,147771.117,,4,French
screen,html.Screen,2_1_1_1_5,2022-02-01T13:28:54.813Z,,,,,,,,,,,,,,,,,54,,,,,,,,,,,,,,323.7829998569505,,response,,,,100,,,,,,,Space,keypress(Space),,,,,,,,-- --- ---- --- ------ crown ------- ---- -- --- ------- --<br>------- ---------- ------ -- ----- -- ----- -- ---- ------<br>--- ----- --- --- ------ -------- ----- --- ------ ----- --<br>----- ----- ---------- --- --- ------ ------ ---- -- ------<br>------- --- ------ ----- --- ---- ------- -- ---- --- --<br>------- ------,148095.39999985695,148094.89999985695,147754.369,147759.09999990463,147771.117,148104.425,,5,crown
screen,html.Screen,2_1_1_1_6,2022-02-01T13:28:55.163Z,,,,,,,,,,,,,,,,,54,,,,,,,,,,,,,,341.4749998569605,,response,,,,100,,,,,,,Space,keypress(Space),,,,,,,,-- --- ---- --- ------ ----- secured ---- -- --- ------- --<br>------- ---------- ------ -- ----- -- ----- -- ---- ------<br>--- ----- --- --- ------ -------- ----- --- ------ ----- --<br>----- ----- ---------- --- --- ------ ------ ---- -- ------<br>------- --- ------ ----- --- ---- ------- -- ---- --- --<br>------- ------,148446.29999995232,148445.89999985695,148087.682,148095.59999990463,148104.425,148454.198,,6,secured
screen,html.Screen,2_1_1_1_7,2022-02-01T13:28:55.624Z,,,,,,,,,,,,,,,,,54,,,,,,,,,,,,,,452.4019999046286,,response,,,,100,,,,,,,Space,keypress(Space),,,,,,,,-- --- ---- --- ------ ----- ------- much -- --- ------- --<br>------- ---------- ------ -- ----- -- ----- -- ---- ------<br>--- ----- --- --- ------ -------- ----- --- ------ ----- --<br>----- ----- ---------- --- --- ------ ------ ---- -- ------<br>------- --- ------ ----- --- ---- ------- -- ---- --- --<br>------- ------,148907,148906.59999990463,148437.585,148446.39999985695,148454.198,148920.755,,7,much
screen,html.Screen,2_1_1_1_8,2022-02-01T13:28:55.974Z,,,,,,,,,,,,,,,,,54,,,,,,,,,,,,,,335.8449999046279,,response,,,,100,,,,,,,Space,keypress(Space),,,,,,,,-- --- ---- --- ------ ----- ------- ---- of --- ------- --<br>------- ---------- ------ -- ----- -- ----- -- ---- ------<br>--- ----- --- --- ------ -------- ----- --- ------ ----- --<br>----- ----- ---------- --- --- ------ ------ ---- -- ------<br>------- --- ------ ----- --- ---- ------- -- ---- --- --<br>------- ------,149257,149256.59999990463,148904.18,148907.09999990463,148920.755,149270.762,,8,of
screen,html.Screen,2_1_1_1_9,2022-02-01T13:28:56.301Z,,,,,,,,,,,,,,,,,54,,,,,,,,,,,,,,312.43799980927724,,response,,,,100,,,,,,,Space,keypress(Space),,,,,,,,-- --- ---- --- ------ ----- ------- ---- -- its ------- --<br>------- ---------- ------ -- ----- -- ----- -- ---- ------<br>--- ----- --- --- ------ -------- ----- --- ------ ----- --<br>----- ----- ---------- --- --- ------ ------ ---- -- ------<br>------- --- ------ ----- --- ---- ------- -- ---- --- --<br>------- ------,149583.59999990463,149583.19999980927,149254.091,149257.09999990463,149270.762,149587.307,,9,its
screen,html.Screen,2_1_1_1_10,2022-02-01T13:28:56.615Z,,,,,,,,,,,,,,,,,54,,,,,,,,,,,,,,309.6929999999993,,response,,,,100,,,,,,,Space,keypress(Space),,,,,,,,-- --- ---- --- ------ ----- ------- ---- -- --- revenue --<br>------- ---------- ------ -- ----- -- ----- -- ---- ------<br>--- ----- --- --- ------ -------- ----- --- ------ ----- --<br>----- ----- ---------- --- --- ------ ------ ---- -- ------<br>------- --- ------ ----- --- ---- ------- -- ---- --- --<br>------- ------,149897.29999995232,149897,149571.184,149583.69999980927,149587.307,149903.959,,10,revenue
screen,html.Screen,2_1_1_1_11,2022-02-01T13:28:56.976Z,,,,,,,,,,,,,,,,,54,,,,,,,,,,,,,,354.2409998092626,,response,,,,100,,,,,,,Space,keypress(Space),,,,,,,,-- --- ---- --- ------ ----- ------- ---- -- --- ------- by<br>------- ---------- ------ -- ----- -- ----- -- ---- ------<br>--- ----- --- --- ------ -------- ----- --- ------ ----- --<br>----- ----- ---------- --- --- ------ ------ ---- -- ------<br>------- --- ------ ----- --- ---- ------- -- ---- --- --<br>------- ------,150258.59999990463,150258.19999980927,149887.347,149897.39999985695,149903.959,150270.507,,11,by
screen,html.Screen,2_1_1_1_12,2022-02-01T13:28:57.301Z,,,,,,,,,,,,,,,,,54,,,,,,,,,,,,,,312.6929998092528,,response,,,,100,,,,,,,Space,keypress(Space),,,,,,,,-- --- ---- --- ------ ----- ------- ---- -- --- ------- --<br>issuing ---------- ------ -- ----- -- ----- -- ---- ------<br>--- ----- --- --- ------ -------- ----- --- ------ ----- --<br>----- ----- ---------- --- --- ------ ------ ---- -- ------<br>------- --- ------ ----- --- ---- ------- -- ---- --- --<br>------- ------,150583.59999990463,150583.19999980927,150253.944,150258.69999980927,150270.507,150587.117,,12,issuing
screen,html.Screen,2_1_1_1_13,2022-02-01T13:28:57.688Z,,,,,,,,,,,,,,,,,54,,,,,,,,,,,,,,383.6829999523179,,response,,,,100,,,,,,,Space,keypress(Space),,,,,,,,-- --- ---- --- ------ ----- ------- ---- -- --- ------- --<br>------- government ------ -- ----- -- ----- -- ---- ------<br>--- ----- --- --- ------ -------- ----- --- ------ ----- --<br>----- ----- ---------- --- --- ------ ------ ---- -- ------<br>------- --- ------ ----- --- ---- ------- -- ---- --- --<br>------- ------,150971.29999995232,150970.79999995232,150570.479,150583.79999995232,150587.117,150987.053,,13,government
screen,html.Screen,2_1_1_1_14,2022-02-01T13:28:58.059Z,,,,,,,,,,,,,,,,,54,,,,,,,,,,,,,,354.6469998092507,,response,,,,100,,,,,,,Space,keypress(Space),,,,,,,,-- --- ---- --- ------ ----- ------- ---- -- --- ------- --<br>------- ---------- bonds. -- ----- -- ----- -- ---- ------<br>--- ----- --- --- ------ -------- ----- --- ------ ----- --<br>----- ----- ---------- --- --- ------ ------ ---- -- ------<br>------- --- ------ ----- --- ---- ------- -- ---- --- --<br>------- ------,151342.29999995232,151341.69999980927,150970.409,150971.29999995232,150987.053,151354.071,,14,bonds.
screen,html.Screen,2_1_1_1_15,2022-02-01T13:28:58.418Z,,,,,,,,,,,,,,,,,54,,,,,,,,,,,,,,346.72899995232,,response,,,,100,,,,,,,Space,keypress(Space),,,,,,,,-- --- ---- --- ------ ----- ------- ---- -- --- ------- --<br>------- ---------- ------ In ----- -- ----- -- ---- ------<br>--- ----- --- --- ------ -------- ----- --- ------ ----- --<br>----- ----- ---------- --- --- ------ ------ ---- -- ------<br>------- --- ------ ----- --- ---- ------- -- ---- --- --<br>------- ------,151701.19999980927,151700.79999995232,151337.102,151342.39999985695,151354.071,151703.558,,15,In
screen,html.Screen,2_1_1_1_16,2022-02-01T13:28:58.754Z,,,,,,,,,,,,,,,,,54,,,,,,,,,,,,,,332.94200000001,,response,,,,100,,,,,,,Space,keypress(Space),,,,,,,,"-- --- ---- --- ------ ----- ------- ---- -- --- ------- --<br>------- ---------- ------ -- 1727, -- ----- -- ---- ------<br>--- ----- --- --- ------ -------- ----- --- ------ ----- --<br>----- ----- ---------- --- --- ------ ------ ---- -- ------<br>------- --- ------ ----- --- ---- ------- -- ---- --- --<br>------- ------",152037.09999990463,152036.5,151686.921,151701.39999985695,151703.558,152053.485,,16,"1727,"
screen,html.Screen,2_1_1_1_17,2022-02-01T13:28:59.082Z,,,,,,,,,,,,,,,,,54,,,,,,,,,,,,,,310.9149998569628,,response,,,,100,,,,,,,Space,keypress(Space),,,,,,,,-- --- ---- --- ------ ----- ------- ---- -- --- ------- --<br>------- ---------- ------ -- ----- in ----- -- ---- ------<br>--- ----- --- --- ------ -------- ----- --- ------ ----- --<br>----- ----- ---------- --- --- ------ ------ ---- -- ------<br>------- --- ------ ----- --- ---- ------- -- ---- --- --<br>------- ------,152364.89999985695,152364.39999985695,152036.867,152037.29999995232,152053.485,152370.041,,17,in
screen,html.Screen,2_1_1_1_18,2022-02-01T13:28:59.479Z,,,,,,,,,,,,,,,,,54,,,,,,,,,,,,,,391.1589998092677,,response,,,,100,,,,,,,Space,keypress(Space),,,,,,,,-- --- ---- --- ------ ----- ------- ---- -- --- ------- --<br>------- ---------- ------ -- ----- -- order -- ---- ------<br>--- ----- --- --- ------ -------- ----- --- ------ ----- --<br>----- ----- ---------- --- --- ------ ------ ---- -- ------<br>------- --- ------ ----- --- ---- ------- -- ---- --- --<br>------- ------,152761.59999990463,152761.19999980927,152353.522,152364.89999985695,152370.041,152769.973,,18,order
screen,html.Screen,2_1_1_1_19,2022-02-01T13:28:59.843Z,,,,,,,,,,,,,,,,,54,,,,,,,,,,,,,,355.12699990463443,,response,,,,100,,,,,,,Space,keypress(Space),,,,,,,,-- --- ---- --- ------ ----- ------- ---- -- --- ------- --<br>------- ---------- ------ -- ----- -- ----- to ---- ------<br>--- ----- --- --- ------ -------- ----- --- ------ ----- --<br>----- ----- ---------- --- --- ------ ------ ---- -- ------<br>------- --- ------ ----- --- ---- ------- -- ---- --- --<br>------- ------,153125.59999990463,153125.09999990463,152753.365,152761.69999980927,152769.973,153136.594,,19,to
screen,html.Screen,2_1_1_1_20,2022-02-01T13:29:00.199Z,,,,,,,,,,,,,,,,,54,,,,,,,,,,,,,,344.5059999046207,,response,,,,100,,,,,,,Space,keypress(Space),,,,,,,,-- --- ---- --- ------ ----- ------- ---- -- --- ------- --<br>------- ---------- ------ -- ----- -- ----- -- save ------<br>--- ----- --- --- ------ -------- ----- --- ------ ----- --<br>----- ----- ---------- --- --- ------ ------ ---- -- ------<br>------- --- ------ ----- --- ---- ------- -- ---- --- --<br>------- ------,153481.59999990463,153481.09999990463,153119.931,153125.79999995232,153136.594,153486.455,,20,save
screen,html.Screen,2_1_1_1_21,2022-02-01T13:29:00.539Z,,,,,,,,,,,,,,,,,54,,,,,,,,,,,,,,335.0450000000128,,response,,,,100,,,,,,,Space,keypress(Space),,,,,,,,"-- --- ---- --- ------ ----- ------- ---- -- --- ------- --<br>------- ---------- ------ -- ----- -- ----- -- ---- money,<br>--- ----- --- --- ------ -------- ----- --- ------ ----- --<br>----- ----- ---------- --- --- ------ ------ ---- -- ------<br>------- --- ------ ----- --- ---- ------- -- ---- --- --<br>------- ------",153821.89999985695,153821.5,153469.896,153481.69999980927,153486.455,153836.402,,21,"money,"
screen,html.Screen,2_1_1_1_22,2022-02-01T13:29:01.010Z,,,,,,,,,,,,,,,,,54,,,,,,,,,,,,,,456.2979998092633,,response,,,,100,,,,,,,Space,keypress(Space),,,,,,,,-- --- ---- --- ------ ----- ------- ---- -- --- ------- --<br>------- ---------- ------ -- ----- -- ----- -- ---- ------<br>the ----- --- --- ------ -------- ----- --- ------ ----- --<br>----- ----- ---------- --- --- ------ ------ ---- -- ------<br>------- --- ------ ----- --- ---- ------- -- ---- --- --<br>------- ------,154293.09999990463,154292.69999980927,153819.783,153821.89999985695,153836.402,154303.03,,22,the
screen,html.Screen,2_1_1_1_23,2022-02-01T13:29:01.397Z,,,,,,,,,,,,,,,,,54,,,,,,,,,,,,,,376.76999995231745,,response,,,,100,,,,,,,Space,keypress(Space),,,,,,,,-- --- ---- --- ------ ----- ------- ---- -- --- ------- --<br>------- ---------- ------ -- ----- -- ----- -- ---- ------<br>--- state --- --- ------ -------- ----- --- ------ ----- --<br>----- ----- ---------- --- --- ------ ------ ---- -- ------<br>------- --- ------ ----- --- ---- ------- -- ---- --- --<br>------- ------,154680.09999990463,154679.79999995232,154286.41,154293.09999990463,154303.03,154686.216,,23,state
screen,html.Screen,2_1_1_1_24,2022-02-01T13:29:01.775Z,,,,,,,,,,,,,,,,,54,,,,,,,,,,,,,,370.88399990464677,,response,,,,100,,,,,,,Space,keypress(Space),,,,,,,,-- --- ---- --- ------ ----- ------- ---- -- --- ------- --<br>------- ---------- ------ -- ----- -- ----- -- ---- ------<br>--- ----- cut --- ------ -------- ----- --- ------ ----- --<br>----- ----- ---------- --- --- ------ ------ ---- -- ------<br>------- --- ------ ----- --- ---- ------- -- ---- --- --<br>------- ------,155057.5,155057.09999990463,154670.169,154680.29999995232,154686.216,155069.478,,24,cut
screen,html.Screen,2_1_1_1_25,2022-02-01T13:29:02.132Z,,,,,,,,,,,,,,,,,54,,,,,,,,,,,,,,345.1219999046298,,response,,,,100,,,,,,,Space,keypress(Space),,,,,,,,-- --- ---- --- ------ ----- ------- ---- -- --- ------- --<br>------- ---------- ------ -- ----- -- ----- -- ---- ------<br>--- ----- --- the ------ -------- ----- --- ------ ----- --<br>----- ----- ---------- --- --- ------ ------ ---- -- ------<br>------- --- ------ ----- --- ---- ------- -- ---- --- --<br>------- ------,155415.19999980927,155414.59999990463,155052.935,155057.59999990463,155069.478,155419.468,,25,the
screen,html.Screen,2_1_1_1_26,2022-02-01T13:29:02.517Z,,,,,,,,,,,,,,,,,54,,,,,,,,,,,,,,379.8319999523228,,response,,,,100,,,,,,,Space,keypress(Space),,,,,,,,-- --- ---- --- ------ ----- ------- ---- -- --- ------- --<br>------- ---------- ------ -- ----- -- ----- -- ---- ------<br>--- ----- --- --- bonds' -------- ----- --- ------ ----- --<br>----- ----- ---------- --- --- ------ ------ ---- -- ------<br>------- --- ------ ----- --- ---- ------- -- ---- --- --<br>------- ------,155799.69999980927,155799.29999995232,155402.812,155415.29999995232,155419.468,155802.665,,26,bonds'
screen,html.Screen,2_1_1_1_27,2022-02-01T13:29:02.841Z,,,,,,,,,,,,,,,,,54,,,,,,,,,,,,,,320.9349999046244,,response,,,,100,,,,,,,Space,keypress(Space),,,,,,,,-- --- ---- --- ------ ----- ------- ---- -- --- ------- --<br>------- ---------- ------ -- ----- -- ----- -- ---- ------<br>--- ----- --- --- ------ interest ----- --- ------ ----- --<br>----- ----- ---------- --- --- ------ ------ ---- -- ------<br>------- --- ------ ----- --- ---- ------- -- ---- --- --<br>------- ------,156124.09999990463,156123.59999990463,155786.158,155799.79999995232,155802.665,156135.921,,27,interest
screen,html.Screen,2_1_1_1_28,2022-02-01T13:29:03.226Z,,,,,,,,,,,,,,,,,54,,,,,,,,,,,,,,372.0789999999979,,response,,,,100,,,,,,,Space,keypress(Space),,,,,,,,-- --- ---- --- ------ ----- ------- ---- -- --- ------- --<br>------- ---------- ------ -- ----- -- ----- -- ---- ------<br>--- ----- --- --- ------ -------- rate. --- ------ ----- --<br>----- ----- ---------- --- --- ------ ------ ---- -- ------<br>------- --- ------ ----- --- ---- ------- -- ---- --- --<br>------- ------,156508.5,156508,156119.335,156124.19999980927,156135.921,156519.184,,28,rate.
screen,html.Screen,2_1_1_1_29,2022-02-01T13:29:03.577Z,,,,,,,,,,,,,,,,,54,,,,,,,,,,,,,,339.71599985694047,,response,,,,100,,,,,,,Space,keypress(Space),,,,,,,,-- --- ---- --- ------ ----- ------- ---- -- --- ------- --<br>------- ---------- ------ -- ----- -- ----- -- ---- ------<br>--- ----- --- --- ------ -------- ----- The ------ ----- --<br>----- ----- ---------- --- --- ------ ------ ---- -- ------<br>------- --- ------ ----- --- ---- ------- -- ---- --- --<br>------- ------,156859.29999995232,156858.89999985695,156502.55,156508.69999980927,156519.184,156869.139,,29,The
screen,html.Screen,2_1_1_1_30,2022-02-01T13:29:03.942Z,,,,,,,,,,,,,,,,,54,,,,,,,,,,,,,,355.460999904637,,response,,,,100,,,,,,,Space,keypress(Space),,,,,,,,-- --- ---- --- ------ ----- ------- ---- -- --- ------- --<br>------- ---------- ------ -- ----- -- ----- -- ---- ------<br>--- ----- --- --- ------ -------- ----- --- market ----- --<br>----- ----- ---------- --- --- ------ ------ ---- -- ------<br>------- --- ------ ----- --- ---- ------- -- ---- --- --<br>------- ------,157225,157224.59999990463,156852.476,156859.39999985695,156869.139,157235.734,,30,market
screen,html.Screen,2_1_1_1_31,2022-02-01T13:29:04.308Z,,,,,,,,,,,,,,,,,54,,,,,,,,,,,,,,355.06599995231954,,response,,,,100,,,,,,,Space,keypress(Space),,,,,,,,-- --- ---- --- ------ ----- ------- ---- -- --- ------- --<br>------- ---------- ------ -- ----- -- ----- -- ---- ------<br>--- ----- --- --- ------ -------- ----- --- ------ value --<br>----- ----- ---------- --- --- ------ ------ ---- -- ------<br>------- --- ------ ----- --- ---- ------- -- ---- --- --<br>------- ------,157591.19999980927,157590.79999995232,157219.083,157225.09999990463,157235.734,157602.346,,31,value
screen,html.Screen,2_1_1_1_32,2022-02-01T13:29:04.717Z,,,,,,,,,,,,,,,,,54,,,,,,,,,,,,,,396.5539998569584,,response,,,,100,,,,,,,Space,keypress(Space),,,,,,,,-- --- ---- --- ------ ----- ------- ---- -- --- ------- --<br>------- ---------- ------ -- ----- -- ----- -- ---- ------<br>--- ----- --- --- ------ -------- ----- --- ------ ----- of<br>----- ----- ---------- --- --- ------ ------ ---- -- ------<br>------- --- ------ ----- --- ---- ------- -- ---- --- --<br>------- ------,157999.39999985695,157998.89999985695,157585.711,157591.29999995232,157602.346,158002.214,,32,of
screen,html.Screen,2_1_1_1_33,2022-02-01T13:29:05.053Z,,,,,,,,,,,,,,,,,54,,,,,,,,,,,,,,332.9859998092579,,response,,,,100,,,,,,,Space,keypress(Space),,,,,,,,-- --- ---- --- ------ ----- ------- ---- -- --- ------- --<br>------- ---------- ------ -- ----- -- ----- -- ---- ------<br>--- ----- --- --- ------ -------- ----- --- ------ ----- --<br>these ----- ---------- --- --- ------ ------ ---- -- ------<br>------- --- ------ ----- --- ---- ------- -- ---- --- --<br>------- ------,158335.5,158335.19999980927,157985.644,157999.5,158002.214,158352.487,,33,these
screen,html.Screen,2_1_1_1_34,2022-02-01T13:29:05.372Z,,,,,,,,,,,,,,,,,54,,,,,,,,,,,,,,301.81299995232257,,response,,,,100,,,,,,,Space,keypress(Space),,,,,,,,-- --- ---- --- ------ ----- ------- ---- -- --- ------- --<br>------- ---------- ------ -- ----- -- ----- -- ---- ------<br>--- ----- --- --- ------ -------- ----- --- ------ ----- --<br>----- bonds ---------- --- --- ------ ------ ---- -- ------<br>------- --- ------ ----- --- ---- ------- -- ---- --- --<br>------- ------,158654.69999980927,158654.29999995232,158335.551,158335.59999990463,158352.487,158668.743,,34,bonds
screen,html.Screen,2_1_1_1_35,2022-02-01T13:29:05.717Z,,,,,,,,,,,,,,,,,54,,,,,,,,,,,,,,326.8569999046449,,response,,,,100,,,,,,,Space,keypress(Space),,,,,,,,"-- --- ---- --- ------ ----- ------- ---- -- --- ------- --<br>------- ---------- ------ -- ----- -- ----- -- ---- ------<br>--- ----- --- --- ------ -------- ----- --- ------ ----- --<br>----- ----- plummeted, --- --- ------ ------ ---- -- ------<br>------- --- ------ ----- --- ---- ------- -- ---- --- --<br>------- ------",158996.09999990463,158995.59999990463,158652.209,158654.79999995232,158668.743,159001.981,,35,"plummeted,"
screen,html.Screen,2_1_1_1_36,2022-02-01T13:29:06.068Z,,,,,,,,,,,,,,,,,54,,,,,,,,,,,,,,344.51900000000023,,response,,,,100,,,,,,,Space,keypress(Space),,,,,,,,-- --- ---- --- ------ ----- ------- ---- -- --- ------- --<br>------- ---------- ------ -- ----- -- ----- -- ---- ------<br>--- ----- --- --- ------ -------- ----- --- ------ ----- --<br>----- ----- ---------- and --- ------ ------ ---- -- ------<br>------- --- ------ ----- --- ---- ------- -- ---- --- --<br>------- ------,159346.89999985695,159346.5,158985.391,158996.19999980927,159001.981,159351.924,,36,and
screen,html.Screen,2_1_1_1_37,2022-02-01T13:29:06.419Z,,,,,,,,,,,,,,,,,54,,,,,,,,,,,,,,345.1759999046335,,response,,,,100,,,,,,,Space,keypress(Space),,,,,,,,-- --- ---- --- ------ ----- ------- ---- -- --- ------- --<br>------- ---------- ------ -- ----- -- ----- -- ---- ------<br>--- ----- --- --- ------ -------- ----- --- ------ ----- --<br>----- ----- ---------- --- the ------ ------ ---- -- ------<br>------- --- ------ ----- --- ---- ------- -- ---- --- --<br>------- ------,159697.79999995232,159697.09999990463,159335.294,159347,159351.924,159701.866,,37,the
screen,html.Screen,2_1_1_1_38,2022-02-01T13:29:06.746Z,,,,,,,,,,,,,,,,,54,,,,,,,,,,,,,,322.1339999999909,,response,,,,100,,,,,,,Space,keypress(Space),,,,,,,,-- --- ---- --- ------ ----- ------- ---- -- --- ------- --<br>------- ---------- ------ -- ----- -- ----- -- ---- ------<br>--- ----- --- --- ------ -------- ----- --- ------ ----- --<br>----- ----- ---------- --- --- market ------ ---- -- ------<br>------- --- ------ ----- --- ---- ------- -- ---- --- --<br>------- ------,160024.5,160024,159685.814,159697.89999985695,159701.866,160035.158,,38,market
screen,html.Screen,2_1_1_1_39,2022-02-01T13:29:07.033Z,,,,,,,,,,,,,,,,,54,,,,,,,,,,,,,,276.24199985695304,,response,,,,100,,,,,,,Space,keypress(Space),,,,,,,,-- --- ---- --- ------ ----- ------- ---- -- --- ------- --<br>------- ---------- ------ -- ----- -- ----- -- ---- ------<br>--- ----- --- --- ------ -------- ----- --- ------ ----- --<br>----- ----- ---------- --- --- ------ became ---- -- ------<br>------- --- ------ ----- --- ---- ------- -- ---- --- --<br>------- ------,160312,160311.39999985695,160019.196,160024.59999990463,160035.158,160318.403,,39,became
screen,html.Screen,2_1_1_1_40,2022-02-01T13:29:07.368Z,,,,,,,,,,,,,,,,,54,,,,,,,,,,,,,,327.6969999046414,,response,,,,100,,,,,,,Space,keypress(Space),,,,,,,,-- --- ---- --- ------ ----- ------- ---- -- --- ------- --<br>------- ---------- ------ -- ----- -- ----- -- ---- ------<br>--- ----- --- --- ------ -------- ----- --- ------ ----- --<br>----- ----- ---------- --- --- ------ ------ wary -- ------<br>------- --- ------ ----- --- ---- ------- -- ---- --- --<br>------- ------,160646.59999990463,160646.09999990463,160301.763,160312.29999995232,160318.403,160651.659,,40,wary
screen,html.Screen,2_1_1_1_41,2022-02-01T13:29:07.681Z,,,,,,,,,,,,,,,,,54,,,,,,,,,,,,,,307.6409999523021,,response,,,,100,,,,,,,Space,keypress(Space),,,,,,,,-- --- ---- --- ------ ----- ------- ---- -- --- ------- --<br>------- ---------- ------ -- ----- -- ----- -- ---- ------<br>--- ----- --- --- ------ -------- ----- --- ------ ----- --<br>----- ----- ---------- --- --- ------ ------ ---- of ------<br>------- --- ------ ----- --- ---- ------- -- ---- --- --<br>------- ------,160959.89999985695,160959.29999995232,160635.601,160646.79999995232,160651.659,160968.279,,41,of
screen,html.Screen,2_1_1_1_42,2022-02-01T13:29:08.003Z,,,,,,,,,,,,,,,,,54,,,,,,,,,,,,,,313.02099995230674,,response,,,,100,,,,,,,Space,keypress(Space),,,,,,,,-- --- ---- --- ------ ----- ------- ---- -- --- ------- --<br>------- ---------- ------ -- ----- -- ----- -- ---- ------<br>--- ----- --- --- ------ -------- ----- --- ------ ----- --<br>----- ----- ---------- --- --- ------ ------ ---- -- French<br>------- --- ------ ----- --- ---- ------- -- ---- --- --<br>------- ------,161281.79999995232,161281.29999995232,160951.665,160960,160968.279,161284.991,,42,French
screen,html.Screen,2_1_1_1_43,2022-02-01T13:29:08.369Z,,,,,,,,,,,,,,,,,54,,,,,,,,,,,,,,362.20899980925606,,response,,,,100,,,,,,,Space,keypress(Space),,,,,,,,-- --- ---- --- ------ ----- ------- ---- -- --- ------- --<br>------- ---------- ------ -- ----- -- ----- -- ---- ------<br>--- ----- --- --- ------ -------- ----- --- ------ ----- --<br>----- ----- ---------- --- --- ------ ------ ---- -- ------<br>credit. --- ------ ----- --- ---- ------- -- ---- --- --<br>------- ------,161647.5,161647.19999980927,161268.257,161281.89999985695,161284.991,161651.491,,43,credit.
screen,html.Screen,2_1_1_1_44,2022-02-01T13:29:08.711Z,,,,,,,,,,,,,,,,,54,,,,,,,,,,,,,,338.20899980925606,,response,,,,100,,,,,,,Space,keypress(Space),,,,,,,,-- --- ---- --- ------ ----- ------- ---- -- --- ------- --<br>------- ---------- ------ -- ----- -- ----- -- ---- ------<br>--- ----- --- --- ------ -------- ----- --- ------ ----- --<br>----- ----- ---------- --- --- ------ ------ ---- -- ------<br>------- The ------ ----- --- ---- ------- -- ---- --- --<br>------- ------,161990.19999980927,161989.69999980927,161635.079,161647.69999980927,161651.491,162001.413,,44,The
screen,html.Screen,2_1_1_1_45,2022-02-01T13:29:09.043Z,,,,,,,,,,,,,,,,,54,,,,,,,,,,,,,,319.6869999046321,,response,,,,100,,,,,,,Space,keypress(Space),,,,,,,,-- --- ---- --- ------ ----- ------- ---- -- --- ------- --<br>------- ---------- ------ -- ----- -- ----- -- ---- ------<br>--- ----- --- --- ------ -------- ----- --- ------ ----- --<br>----- ----- ---------- --- --- ------ ------ ---- -- ------<br>------- --- French ----- --- ---- ------- -- ---- --- --<br>------- ------,162321.5,162321.09999990463,161985.578,161990.29999995232,162001.413,162334.682,,45,French
screen,html.Screen,2_1_1_1_46,2022-02-01T13:29:09.339Z,,,,,,,,,,,,,,,,,54,,,,,,,,,,,,,,282.71799985694815,,response,,,,100,,,,,,,Space,keypress(Space),,,,,,,,-- --- ---- --- ------ ----- ------- ---- -- --- ------- --<br>------- ---------- ------ -- ----- -- ----- -- ---- ------<br>--- ----- --- --- ------ -------- ----- --- ------ ----- --<br>----- ----- ---------- --- --- ------ ------ ---- -- ------<br>------- --- ------ state --- ---- ------- -- ---- --- --<br>------- ------,162617.69999980927,162617.39999985695,162318.159,162321.59999990463,162334.682,162634.612,,46,state
screen,html.Screen,2_1_1_1_47,2022-02-01T13:29:09.640Z,,,,,,,,,,,,,,,,,54,,,,,,,,,,,,,,283.68799995232257,,response,,,,100,,,,,,,Space,keypress(Space),,,,,,,,-- --- ---- --- ------ ----- ------- ---- -- --- ------- --<br>------- ---------- ------ -- ----- -- ----- -- ---- ------<br>--- ----- --- --- ------ -------- ----- --- ------ ----- --<br>----- ----- ---------- --- --- ------ ------ ---- -- ------<br>------- --- ------ ----- was ---- ------- -- ---- --- --<br>------- ------,162918.79999995232,162918.29999995232,162617.979,162617.79999995232,162634.612,162934.515,,47,was
screen,html.Screen,2_1_1_1_48,2022-02-01T13:29:09.937Z,,,,,,,,,,,,,,,,,54,,,,,,,,,,,,,,280.68499980925117,,response,,,,100,,,,,,,Space,keypress(Space),,,,,,,,-- --- ---- --- ------ ----- ------- ---- -- --- ------- --<br>------- ---------- ------ -- ----- -- ----- -- ---- ------<br>--- ----- --- --- ------ -------- ----- --- ------ ----- --<br>----- ----- ---------- --- --- ------ ------ ---- -- ------<br>------- --- ------ ----- --- left ------- -- ---- --- --<br>------- ------,163215.69999980927,163215.19999980927,162917.909,162918.89999985695,162934.515,163217.806,,48,left
screen,html.Screen,2_1_1_1_49,2022-02-01T13:29:10.203Z,,,,,,,,,,,,,,,,,54,,,,,,,,,,,,,,263.8939998092537,,response,,,,100,,,,,,,Space,keypress(Space),,,,,,,,-- --- ---- --- ------ ----- ------- ---- -- --- ------- --<br>------- ---------- ------ -- ----- -- ----- -- ---- ------<br>--- ----- --- --- ------ -------- ----- --- ------ ----- --<br>----- ----- ---------- --- --- ------ ------ ---- -- ------<br>------- --- ------ ----- --- ---- without -- ---- --- --<br>------- ------,163482.19999980927,163481.69999980927,163201.198,163215.79999995232,163217.806,163484.433,,49,without
screen,html.Screen,2_1_1_1_50,2022-02-01T13:29:10.475Z,,,,,,,,,,,,,,,,,54,,,,,,,,,,,,,,269.26699980927515,,response,,,,100,,,,,,,Space,keypress(Space),,,,,,,,-- --- ---- --- ------ ----- ------- ---- -- --- ------- --<br>------- ---------- ------ -- ----- -- ----- -- ---- ------<br>--- ----- --- --- ------ -------- ----- --- ------ ----- --<br>----- ----- ---------- --- --- ------ ------ ---- -- ------<br>------- --- ------ ----- --- ---- ------- an ---- --- --<br>------- ------,163754.09999990463,163753.69999980927,163467.754,163482.29999995232,163484.433,163767.677,,50,an
screen,html.Screen,2_1_1_1_51,2022-02-01T13:29:10.756Z,,,,,,,,,,,,,,,,,54,,,,,,,,,,,,,,266.5229998092691,,response,,,,100,,,,,,,Space,keypress(Space),,,,,,,,-- --- ---- --- ------ ----- ------- ---- -- --- ------- --<br>------- ---------- ------ -- ----- -- ----- -- ---- ------<br>--- ----- --- --- ------ -------- ----- --- ------ ----- --<br>----- ----- ---------- --- --- ------ ------ ---- -- ------<br>------- --- ------ ----- --- ---- ------- -- easy --- --<br>------- ------,164034.89999985695,164034.19999980927,163751.106,163754.29999995232,163767.677,164050.999,,51,easy
screen,html.Screen,2_1_1_1_52,2022-02-01T13:29:11.049Z,,,,,,,,,,,,,,,,,54,,,,,,,,,,,,,,276.3009999523056,,response,,,,100,,,,,,,Space,keypress(Space),,,,,,,,-- --- ---- --- ------ ----- ------- ---- -- --- ------- --<br>------- ---------- ------ -- ----- -- ----- -- ---- ------<br>--- ----- --- --- ------ -------- ----- --- ------ ----- --<br>----- ----- ---------- --- --- ------ ------ ---- -- ------<br>------- --- ------ ----- --- ---- ------- -- ---- way --<br>------- ------,164327.89999985695,164327.29999995232,164034.356,164035,164050.999,164334.469,,52,way
screen,html.Screen,2_1_1_1_53,2022-02-01T13:29:11.391Z,,,,,,,,,,,,,,,,,54,,,,,,,,,,,,,,334.5309999999881,,response,,,,100,,,,,,,Space,keypress(Space),,,,,,,,-- --- ---- --- ------ ----- ------- ---- -- --- ------- --<br>------- ---------- ------ -- ----- -- ----- -- ---- ------<br>--- ----- --- --- ------ -------- ----- --- ------ ----- --<br>----- ----- ---------- --- --- ------ ------ ---- -- ------<br>------- --- ------ ----- --- ---- ------- -- ---- --- of<br>------- ------,164669.5,164669,164317.663,164328.09999990463,164334.469,164684.251,,53,of
screen,html.Screen,2_1_1_1_54,2022-02-01T13:29:11.697Z,,,,,,,,,,,,,,,,,54,,,,,,,,,,,,,,291.44899980927585,,response,,,,100,,,,,,,Space,keypress(Space),,,,,,,,-- --- ---- --- ------ ----- ------- ---- -- --- ------- --<br>------- ---------- ------ -- ----- -- ----- -- ---- ------<br>--- ----- --- --- ------ -------- ----- --- ------ ----- --<br>----- ----- ---------- --- --- ------ ------ ---- -- ------<br>------- --- ------ ----- --- ---- ------- -- ---- --- --<br>raising ------,164976.19999980927,164975.69999980927,164667.63,164669.69999980927,164684.251,164984.097,,54,raising
screen,html.Screen,2_1_1_1_55,2022-02-01T13:29:12.034Z,,,,,,,,,,,,,,,,,54,,,,,,,,,,,,,,328.5029999046237,,response,,,,100,,,,,,,Space,keypress(Space),,,,,,,,-- --- ---- --- ------ ----- ------- ---- -- --- ------- --<br>------- ---------- ------ -- ----- -- ----- -- ---- ------<br>--- ----- --- --- ------ -------- ----- --- ------ ----- --<br>----- ----- ---------- --- --- ------ ------ ---- -- ------<br>------- --- ------ ----- --- ---- ------- -- ---- --- --<br>------- money.,165313.09999990463,165312.59999990463,164967.522,164976.29999995232,164984.097,165317.372,,55,money.
Item 100,flow.Loop,2_1_1_1,2022-02-01T13:29:12.034Z,,,,,,,,,,,,,,,,,,,,,,,,,,,,,,,21124.18999990463,,completion,,,,,D,,,,,,,,,,,silence,,,,,165313.29999995232,165312.59999990463,144171.754,144172.59999990463,144188.41,165317.372,,,
Question 1,html.Screen,2_1_1_2,2022-02-01T13:29:13.803Z,,,,,,,,,,,,,,,,,,,,,,,,,,,,true,TRUE,,1763.627999999997,,response,,,,100,D,,,,,,TRUE,click #choice-1,,,,silence,,,,,167081.5,167081,165300.732,165313.39999985695,165317.372,167083.679,,,
Question 2,html.Screen,2_1_1_3,2022-02-01T13:29:15.730Z,,,,,,,,,,,,,,,,,,,,,,,,,,,,true,FALSE,,1924.9209999046288,,response,,,,100,D,,,,,,FALSE,click #choice-2,,,,silence,,,,,169009.29999995232,169008.59999990463,167066.992,167081.59999990463,167083.679,169016.575,,,
Item 100,flow.Sequence,2_1_1,2022-02-01T13:29:15.731Z,,,,,,,,,,,,,,,,,,,,,,,,,,,,,,,34818.12399990464,,completion,,,,,,,,,,,,,,,,,,,,,169009.39999985695,169008.59999990463,134173.832,134164.19999980927,134190.476,169016.575,,,
End of Practice,html.Page,2_1_2,2022-02-01T13:29:18.671Z,,,,,,,,,,,,,,,,,,,,,,,,,,,,,,,2932.9249999999884,,form submission,,,,,,,,,,,,,,,,,,,,,171949.69999980927,171949.5,168999.959,169009.5,169016.575,171978.984,,,
Practice,flow.Sequence,2_1,2022-02-01T13:29:18.671Z,,,,,,,,,,,,,,,,,,,,,,,,,,,,,,,73268.296,,completion,,,,,,,,,,,,,,,,,,,,,171949.69999980927,171949.5,98664.54,98660,98681.204,171978.984,,,
Trap_instruction,html.Page,2_2_0,2022-02-01T13:29:20.486Z,,,,,,,,,,,,,,,,,,,,,,,,,,,,,,,1785.415999856952,,form submission,,,,,,,,,,,,,,,,,,,,,173764.59999990463,173764.39999985695,171932.699,171949.89999985695,171978.984,173765.614,,,
trap_trial,html.Screen,2_2_1,2022-02-01T13:29:32.613Z,,,,,,,,,,,,,,,,,,,,,,,,,,,,true,1,,12125.285999856947,,response,,,,,,,,,,,1,click #choice-1,,,,,,,,,185891.69999980927,185890.89999985695,173748.964,173764.69999980927,173765.614,185896.415,,,
end of trap trial,html.Page,2_2_2,2022-02-01T13:29:33.798Z,,,,,,,,,,,,,,,,,,,,,,,,,,,,,,,1180.1849999046244,,form submission,,,,,,,,,,,,,,,,,,,,,187076.79999995232,187076.59999990463,185879.78,185891.69999980927,185896.415,187079.52,,,
Trap 1,flow.Sequence,2_2,2022-02-01T13:29:33.798Z,,,,,,,,,,,,,,,,,,,,,,,,,,,,,,,15097.615999904636,,completion,,,,,,,,,,,,,,,,,,,,,187076.89999985695,187076.59999990463,171932.699,171949.79999995232,171978.984,187079.52,,,
Standby,html.Page,2_3_0,2022-02-01T13:29:41.783Z,,,,,,,,,,,,,,,,,,,,,,,,,,,,,,,7998.3550000000105,,timeout,,,,,,,,,,,,,,,,,,,,,195061.69999980927,195061.205,187062.875,187077,187079.52,195077.875,,,
Holding screen,html.Screen,2_3_1_0_0,2022-02-01T13:29:48.782Z,,,,,,,,,,,,,,,,,,,,,,,,,,,,,,,6998.6630000000005,,timeout,,,,,,,,,,,,,,,,,,,,,202060.39999985695,202059.769,195061.205,195061.89999985695,195077.875,202076.538,,,
screen,html.Screen,2_3_1_0_1_0,2022-02-01T13:29:51.309Z,,,,,,,,,,,,,,,,,48,,,,,,,,,,,,,,2511.1619998092647,,response,,,,10,D,,,,,,Space,keypress(Space),,,,silence,,,,As -- --- ------ ------- --------- ----------- --------<br>--------- -------- --- ------- -- ------- ---- -- ------<br>-- --- -------- -------- ---------- ---- ---- ---- ------<br>-- --------- -- ---- -- --- -- --- ------- -- - -----<br>---------- -- -- -- ---- ----- -- ------ -- --- ------<br>-------,204588.29999995232,204587.69999980927,202059.769,202060.59999990463,202076.538,204609.228,,0,As
screen,html.Screen,2_3_1_0_1_1,2022-02-01T13:29:51.657Z,,,,,,,,,,,,,,,,,48,,,,,,,,,,,,,,325.8719999046298,,response,,,,10,D,,,,,,Space,keypress(Space),,,,silence,,,,-- in --- ------ ------- --------- ----------- --------<br>--------- -------- --- ------- -- ------- ---- -- ------<br>-- --- -------- -------- ---------- ---- ---- ---- ------<br>-- --------- -- ---- -- --- -- --- ------- -- - -----<br>---------- -- -- -- ---- ----- -- ------ -- --- ------<br>-------,204935.5,204935.09999990463,204592.559,204588.39999985695,204609.228,204942.462,,1,in
screen,html.Screen,2_3_1_0_1_2,2022-02-01T13:29:51.915Z,,,,,,,,,,,,,,,,,48,,,,,,,,,,,,,,251.13799990463303,,response,,,,10,D,,,,,,Space,keypress(Space),,,,silence,,,,-- -- the ------ ------- --------- ----------- --------<br>--------- -------- --- ------- -- ------- ---- -- ------<br>-- --- -------- -------- ---------- ---- ---- ---- ------<br>-- --------- -- ---- -- --- -- --- ------- -- - -----<br>---------- -- -- -- ---- ----- -- ------ -- --- ------<br>-------,205193.89999985695,205193.59999990463,204925.84,204935.59999990463,204942.462,205225.767,,2,the
screen,html.Screen,2_3_1_0_1_3,2022-02-01T13:29:52.111Z,,,,,,,,,,,,,,,,,48,,,,,,,,,,,,,,163.4329998092726,,response,,,,10,D,,,,,,Space,keypress(Space),,,,silence,,,,-- -- --- United ------- --------- ----------- --------<br>--------- -------- --- ------- -- ------- ---- -- ------<br>-- --- -------- -------- ---------- ---- ---- ---- ------<br>-- --------- -- ---- -- --- -- --- ------- -- - -----<br>---------- -- -- -- ---- ----- -- ------ -- --- ------<br>-------,205389.5,205389.19999980927,205209.159,205194,205225.767,205409.079,,3,United
screen,html.Screen,2_3_1_0_1_4,2022-02-01T13:29:52.383Z,,,,,,,,,,,,,,,,,48,,,,,,,,,,,,,,252.72099995231838,,response,,,,10,D,,,,,,Space,keypress(Space),,,,silence,,,,"-- -- --- ------ States, --------- ----------- --------<br>--------- -------- --- ------- -- ------- ---- -- ------<br>-- --- -------- -------- ---------- ---- ---- ---- ------<br>-- --------- -- ---- -- --- -- --- ------- -- - -----<br>---------- -- -- -- ---- ----- -- ------ -- --- ------<br>-------",205662.29999995232,205661.79999995232,205392.397,205389.69999980927,205409.079,205692.339,,4,"States,"
screen,html.Screen,2_3_1_0_1_5,2022-02-01T13:29:52.673Z,,,,,,,,,,,,,,,,,48,,,,,,,,,,,,,,259.26099990462535,,response,,,,10,D,,,,,,Space,keypress(Space),,,,silence,,,,-- -- --- ------ ------- Colombian ----------- --------<br>--------- -------- --- ------- -- ------- ---- -- ------<br>-- --- -------- -------- ---------- ---- ---- ---- ------<br>-- --------- -- ---- -- --- -- --- ------- -- - -----<br>---------- -- -- -- ---- ----- -- ------ -- --- ------<br>-------,205952,205951.59999990463,205675.684,205662.39999985695,205692.339,205975.637,,5,Colombian
screen,html.Screen,2_3_1_0_1_6,2022-02-01T13:29:52.908Z,,,,,,,,,,,,,,,,,48,,,,,,,,,,,,,,211.06299980927724,,response,,,,10,D,,,,,,Space,keypress(Space),,,,silence,,,,-- -- --- ------ ------- --------- legislation --------<br>--------- -------- --- ------- -- ------- ---- -- ------<br>-- --- -------- -------- ---------- ---- ---- ---- ------<br>-- --------- -- ---- -- --- -- --- ------- -- - -----<br>---------- -- -- -- ---- ----- -- ------ -- --- ------<br>-------,206187.09999990463,206186.69999980927,205959,205952.09999990463,205975.637,206192.229,,6,legislation
screen,html.Screen,2_3_1_0_1_7,2022-02-01T13:29:53.351Z,,,,,,,,,,,,,,,,,48,,,,,,,,,,,,,,436.7710000000079,,response,,,,10,D,,,,,,Space,keypress(Space),,,,silence,,,,-- -- --- ------ ------- --------- ----------- requires<br>--------- -------- --- ------- -- ------- ---- -- ------<br>-- --- -------- -------- ---------- ---- ---- ---- ------<br>-- --------- -- ---- -- --- -- --- ------- -- - -----<br>---------- -- -- -- ---- ----- -- ------ -- --- ------<br>-------,206629.5,206629,206175.642,206187.19999980927,206192.229,206642.144,,7,requires
screen,html.Screen,2_3_1_0_1_8,2022-02-01T13:29:53.631Z,,,,,,,,,,,,,,,,,48,,,,,,,,,,,,,,267.0559998092649,,response,,,,10,D,,,,,,Space,keypress(Space),,,,silence,,,,-- -- --- ------ ------- --------- ----------- --------<br>travelers -------- --- ------- -- ------- ---- -- ------<br>-- --- -------- -------- ---------- ---- ---- ---- ------<br>-- --------- -- ---- -- --- -- --- ------- -- - -----<br>---------- -- -- -- ---- ----- -- ------ -- --- ------<br>-------,206909.5,206909.19999980927,206625.615,206629.59999990463,206642.144,206925.42,,8,travelers
screen,html.Screen,2_3_1_0_1_9,2022-02-01T13:29:53.923Z,,,,,,,,,,,,,,,,,48,,,,,,,,,,,,,,275.97999985693605,,response,,,,10,D,,,,,,Space,keypress(Space),,,,silence,,,,-- -- --- ------ ------- --------- ----------- --------<br>--------- entering --- ------- -- ------- ---- -- ------<br>-- --- -------- -------- ---------- ---- ---- ---- ------<br>-- --------- -- ---- -- --- -- --- ------- -- - -----<br>---------- -- -- -- ---- ----- -- ------ -- --- ------<br>-------,207202,207201.39999985695,206908.792,206909.59999990463,206925.42,207208.668,,9,entering
screen,html.Screen,2_3_1_0_1_10,2022-02-01T13:29:54.213Z,,,,,,,,,,,,,,,,,48,,,,,,,,,,,,,,282.73199985694373,,response,,,,10,D,,,,,,Space,keypress(Space),,,,silence,,,,-- -- --- ------ ------- --------- ----------- --------<br>--------- -------- the ------- -- ------- ---- -- ------<br>-- --- -------- -------- ---------- ---- ---- ---- ------<br>-- --------- -- ---- -- --- -- --- ------- -- - -----<br>---------- -- -- -- ---- ----- -- ------ -- --- ------<br>-------,207491.89999985695,207491.39999985695,207192.025,207202.09999990463,207208.668,207508.619,,10,the
screen,html.Screen,2_3_1_0_1_11,2022-02-01T13:29:54.493Z,,,,,,,,,,,,,,,,,48,,,,,,,,,,,,,,263.0809998092591,,response,,,,10,D,,,,,,Space,keypress(Space),,,,silence,,,,-- -- --- ------ ------- --------- ----------- --------<br>--------- -------- --- country -- ------- ---- -- ------<br>-- --- -------- -------- ---------- ---- ---- ---- ------<br>-- --------- -- ---- -- --- -- --- ------- -- - -----<br>---------- -- -- -- ---- ----- -- ------ -- --- ------<br>-------,207772.19999980927,207771.69999980927,207492.053,207492,207508.619,207775.23,,11,country
screen,html.Screen,2_3_1_0_1_12,2022-02-01T13:29:54.765Z,,,,,,,,,,,,,,,,,48,,,,,,,,,,,,,,267.46999980925466,,response,,,,10,D,,,,,,Space,keypress(Space),,,,silence,,,,-- -- --- ------ ------- --------- ----------- --------<br>--------- -------- --- ------- to ------- ---- -- ------<br>-- --- -------- -------- ---------- ---- ---- ---- ------<br>-- --------- -- ---- -- --- -- --- ------- -- - -----<br>---------- -- -- -- ---- ----- -- ------ -- --- ------<br>-------,208043.39999985695,208042.69999980927,207758.59,207772.29999995232,207775.23,208058.556,,12,to
screen,html.Screen,2_3_1_0_1_13,2022-02-01T13:29:55.033Z,,,,,,,,,,,,,,,,,48,,,,,,,,,,,,,,252.74399995230488,,response,,,,10,D,,,,,,Space,keypress(Space),,,,silence,,,,-- -- --- ------ ------- --------- ----------- --------<br>--------- -------- --- ------- -- declare ---- -- ------<br>-- --- -------- -------- ---------- ---- ---- ---- ------<br>-- --------- -- ---- -- --- -- --- ------- -- - -----<br>---------- -- -- -- ---- ----- -- ------ -- --- ------<br>-------,208312.09999990463,208311.29999995232,208041.906,208043.39999985695,208058.556,208325.565,,13,declare
screen,html.Screen,2_3_1_0_1_14,2022-02-01T13:29:55.261Z,,,,,,,,,,,,,,,,,48,,,,,,,,,,,,,,213.83499985694652,,response,,,,10,D,,,,,,Space,keypress(Space),,,,silence,,,,-- -- --- ------ ------- --------- ----------- --------<br>--------- -------- --- ------- -- ------- cash -- ------<br>-- --- -------- -------- ---------- ---- ---- ---- ------<br>-- --------- -- ---- -- --- -- --- ------- -- - -----<br>---------- -- -- -- ---- ----- -- ------ -- --- ------<br>-------,208539.89999985695,208539.39999985695,208308.52,208312.19999980927,208325.565,208541.758,,14,cash
screen,html.Screen,2_3_1_0_1_15,2022-02-01T13:29:55.500Z,,,,,,,,,,,,,,,,,48,,,,,,,,,,,,,,236.64199985694722,,response,,,,10,D,,,,,,Space,keypress(Space),,,,silence,,,,-- -- --- ------ ------- --------- ----------- --------<br>--------- -------- --- ------- -- ------- ---- in ------<br>-- --- -------- -------- ---------- ---- ---- ---- ------<br>-- --------- -- ---- -- --- -- --- ------- -- - -----<br>---------- -- -- -- ---- ----- -- ------ -- --- ------<br>-------,208778.79999995232,208778.39999985695,208525.545,208540,208541.758,208791.689,,15,in
screen,html.Screen,2_3_1_0_1_16,2022-02-01T13:29:55.731Z,,,,,,,,,,,,,,,,,48,,,,,,,,,,,,,,217.2109998569358,,response,,,,10,D,,,,,,Space,keypress(Space),,,,silence,,,,-- -- --- ------ ------- --------- ----------- --------<br>--------- -------- --- ------- -- ------- ---- -- excess<br>-- --- -------- -------- ---------- ---- ---- ---- ------<br>-- --------- -- ---- -- --- -- --- ------- -- - -----<br>---------- -- -- -- ---- ----- -- ------ -- --- ------<br>-------,209009.39999985695,209008.89999985695,208775.075,208778.79999995232,208791.689,209024.983,,16,excess
screen,html.Screen,2_3_1_0_1_17,2022-02-01T13:29:55.960Z,,,,,,,,,,,,,,,,,48,,,,,,,,,,,,,,213.11699990462512,,response,,,,10,D,,,,,,Space,keypress(Space),,,,silence,,,,-- -- --- ------ ------- --------- ----------- --------<br>--------- -------- --- ------- -- ------- ---- -- ------<br>of --- -------- -------- ---------- ---- ---- ---- ------<br>-- --------- -- ---- -- --- -- --- ------- -- - -----<br>---------- -- -- -- ---- ----- -- ------ -- --- ------<br>-------,209238.79999995232,209238.09999990463,209008.345,209009.5,209024.983,209241.609,,17,of
screen,html.Screen,2_3_1_0_1_18,2022-02-01T13:29:56.207Z,,,,,,,,,,,,,,,,,48,,,,,,,,,,,,,,243.19099995231954,,response,,,,10,D,,,,,,Space,keypress(Space),,,,silence,,,,-- -- --- ------ ------- --------- ----------- --------<br>--------- -------- --- ------- -- ------- ---- -- ------<br>-- ten -------- -------- ---------- ---- ---- ---- ------<br>-- --------- -- ---- -- --- -- --- ------- -- - -----<br>---------- -- -- -- ---- ----- -- ------ -- --- ------<br>-------,209485.39999985695,209484.79999995232,209224.968,209239,209241.609,209491.994,,18,ten
screen,html.Screen,2_3_1_0_1_19,2022-02-01T13:29:56.474Z,,,,,,,,,,,,,,,,,48,,,,,,,,,,,,,,260.1059999046265,,response,,,,10,D,,,,,,Space,keypress(Space),,,,silence,,,,-- -- --- ------ ------- --------- ----------- --------<br>--------- -------- --- ------- -- ------- ---- -- ------<br>-- --- thousand -------- ---------- ---- ---- ---- ------<br>-- --------- -- ---- -- --- -- --- ------- -- - -----<br>---------- -- -- -- ---- ----- -- ------ -- --- ------<br>-------,209752.69999980927,209752.09999990463,209475.373,209485.59999990463,209491.994,209758.129,,19,thousand
screen,html.Screen,2_3_1_0_1_20,2022-02-01T13:29:56.766Z,,,,,,,,,,,,,,,,,48,,,,,,,,,,,,,,286.0709998092789,,response,,,,10,D,,,,,,Space,keypress(Space),,,,silence,,,,-- -- --- ------ ------- --------- ----------- --------<br>--------- -------- --- ------- -- ------- ---- -- ------<br>-- --- -------- dollars. ---------- ---- ---- ---- ------<br>-- --------- -- ---- -- --- -- --- ------- -- - -----<br>---------- -- -- -- ---- ----- -- ------ -- --- ------<br>-------,210044.89999985695,210044.19999980927,209742.086,209752.89999985695,209758.129,210058.316,,20,dollars.
screen,html.Screen,2_3_1_0_1_21,2022-02-01T13:29:57.039Z,,,,,,,,,,,,,,,,,48,,,,,,,,,,,,,,259.08399985695723,,response,,,,10,D,,,,,,Space,keypress(Space),,,,silence,,,,-- -- --- ------ ------- --------- ----------- --------<br>--------- -------- --- ------- -- ------- ---- -- ------<br>-- --- -------- -------- Concealing ---- ---- ---- ------<br>-- --------- -- ---- -- --- -- --- ------- -- - -----<br>---------- -- -- -- ---- ----- -- ------ -- --- ------<br>-------,210318.09999990463,210317.39999985695,210041.729,210045,210058.316,210324.74,,21,Concealing
screen,html.Screen,2_3_1_0_1_22,2022-02-01T13:29:57.305Z,,,,,,,,,,,,,,,,,48,,,,,,,,,,,,,,258.2600000000093,,response,,,,10,D,,,,,,Space,keypress(Space),,,,silence,,,,-- -- --- ------ ------- --------- ----------- --------<br>--------- -------- --- ------- -- ------- ---- -- ------<br>-- --- -------- -------- ---------- more ---- ---- ------<br>-- --------- -- ---- -- --- -- --- ------- -- - -----<br>---------- -- -- -- ---- ----- -- ------ -- --- ------<br>-------,210583.39999985695,210583,210308.35,210318.19999980927,210324.74,210591.318,,22,more
screen,html.Screen,2_3_1_0_1_23,2022-02-01T13:29:57.538Z,,,,,,,,,,,,,,,,,48,,,,,,,,,,,,,,225.48199995231698,,response,,,,10,D,,,,,,Space,keypress(Space),,,,silence,,,,-- -- --- ------ ------- --------- ----------- --------<br>--------- -------- --- ------- -- ------- ---- -- ------<br>-- --- -------- -------- ---------- ---- than ---- ------<br>-- --------- -- ---- -- --- -- --- ------- -- - -----<br>---------- -- -- -- ---- ----- -- ------ -- --- ------<br>-------,210817.19999980927,210816.79999995232,210574.815,210583.59999990463,210591.318,210824.588,,23,than
screen,html.Screen,2_3_1_0_1_24,2022-02-01T13:29:57.757Z,,,,,,,,,,,,,,,,,48,,,,,,,,,,,,,,210.6119998092763,,response,,,,10,D,,,,,,Space,keypress(Space),,,,silence,,,,-- -- --- ------ ------- --------- ----------- --------<br>--------- -------- --- ------- -- ------- ---- -- ------<br>-- --- -------- -------- ---------- ---- ---- that ------<br>-- --------- -- ---- -- --- -- --- ------- -- - -----<br>---------- -- -- -- ---- ----- -- ------ -- --- ------<br>-------,211035.59999990463,211035.19999980927,210807.977,210817.29999995232,210824.588,211041.2,,24,that
screen,html.Screen,2_3_1_0_1_25,2022-02-01T13:29:57.940Z,,,,,,,,,,,,,,,,,48,,,,,,,,,,,,,,177.29999999998836,,response,,,,10,D,,,,,,Space,keypress(Space),,,,silence,,,,-- -- --- ------ ------- --------- ----------- --------<br>--------- -------- --- ------- -- ------- ---- -- ------<br>-- --- -------- -------- ---------- ---- ---- ---- amount<br>-- --------- -- ---- -- --- -- --- ------- -- - -----<br>---------- -- -- -- ---- ----- -- ------ -- --- ------<br>-------,211219,211218.5,211024.596,211035.69999980927,211041.2,211224.528,,25,amount
screen,html.Screen,2_3_1_0_1_26,2022-02-01T13:29:58.148Z,,,,,,,,,,,,,,,,,48,,,,,,,,,,,,,,201.67199980927398,,response,,,,10,D,,,,,,Space,keypress(Space),,,,silence,,,,-- -- --- ------ ------- --------- ----------- --------<br>--------- -------- --- ------- -- ------- ---- -- ------<br>-- --- -------- -------- ---------- ---- ---- ---- ------<br>to --------- -- ---- -- --- -- --- ------- -- - -----<br>---------- -- -- -- ---- ----- -- ------ -- --- ------<br>-------,211426.69999980927,211426.19999980927,211207.881,211219.09999990463,211224.528,211441.167,,26,to
screen,html.Screen,2_3_1_0_1_27,2022-02-01T13:29:58.369Z,,,,,,,,,,,,,,,,,48,,,,,,,,,,,,,,206.43299990464584,,response,,,,10,D,,,,,,Space,keypress(Space),,,,silence,,,,-- -- --- ------ ------- --------- ----------- --------<br>--------- -------- --- ------- -- ------- ---- -- ------<br>-- --- -------- -------- ---------- ---- ---- ---- ------<br>-- transport -- ---- -- --- -- --- ------- -- - -----<br>---------- -- -- -- ---- ----- -- ------ -- --- ------<br>-------,211648.09999990463,211647.59999990463,211424.596,211426.79999995232,211441.167,211657.774,,27,transport
screen,html.Screen,2_3_1_0_1_28,2022-02-01T13:29:58.550Z,,,,,,,,,,,,,,,,,48,,,,,,,,,,,,,,170.62599985694396,,response,,,,10,D,,,,,,Space,keypress(Space),,,,silence,,,,-- -- --- ------ ------- --------- ----------- --------<br>--------- -------- --- ------- -- ------- ---- -- ------<br>-- --- -------- -------- ---------- ---- ---- ---- ------<br>-- --------- it ---- -- --- -- --- ------- -- - -----<br>---------- -- -- -- ---- ----- -- ------ -- --- ------<br>-------,211828.89999985695,211828.39999985695,211641.162,211648.19999980927,211657.774,211841.041,,28,it
screen,html.Screen,2_3_1_0_1_29,2022-02-01T13:29:58.748Z,,,,,,,,,,,,,,,,,48,,,,,,,,,,,,,,185.55899990463513,,response,,,,10,D,,,,,,Space,keypress(Space),,,,silence,,,,-- -- --- ------ ------- --------- ----------- --------<br>--------- -------- --- ------- -- ------- ---- -- ------<br>-- --- -------- -------- ---------- ---- ---- ---- ------<br>-- --------- -- into -- --- -- --- ------- -- - -----<br>---------- -- -- -- ---- ----- -- ------ -- --- ------<br>-------,212027,212026.59999990463,211824.449,211829,211841.041,212041.003,,29,into
screen,html.Screen,2_3_1_0_1_30,2022-02-01T13:29:58.954Z,,,,,,,,,,,,,,,,,48,,,,,,,,,,,,,,190.99700000000303,,response,,,,10,D,,,,,,Space,keypress(Space),,,,silence,,,,-- -- --- ------ ------- --------- ----------- --------<br>--------- -------- --- ------- -- ------- ---- -- ------<br>-- --- -------- -------- ---------- ---- ---- ---- ------<br>-- --------- -- ---- or --- -- --- ------- -- - -----<br>---------- -- -- -- ---- ----- -- ------ -- --- ------<br>-------,212232.5,212232,212024.388,212027,212041.003,212240.97,,30,or
screen,html.Screen,2_3_1_0_1_31,2022-02-01T13:29:59.145Z,,,,,,,,,,,,,,,,,48,,,,,,,,,,,,,,181.9299998569477,,response,,,,10,D,,,,,,Space,keypress(Space),,,,silence,,,,-- -- --- ------ ------- --------- ----------- --------<br>--------- -------- --- ------- -- ------- ---- -- ------<br>-- --- -------- -------- ---------- ---- ---- ---- ------<br>-- --------- -- ---- -- out -- --- ------- -- - -----<br>---------- -- -- -- ---- ----- -- ------ -- --- ------<br>-------,212423.29999995232,212422.89999985695,212224.349,212232.59999990463,212240.97,212444.863,,31,out
screen,html.Screen,2_3_1_0_1_32,2022-02-01T13:29:59.348Z,,,,,,,,,,,,,,,,,48,,,,,,,,,,,,,,181.73699990462046,,response,,,,10,D,,,,,,Space,keypress(Space),,,,silence,,,,-- -- --- ------ ------- --------- ----------- --------<br>--------- -------- --- ------- -- ------- ---- -- ------<br>-- --- -------- -------- ---------- ---- ---- ---- ------<br>-- --------- -- ---- -- --- of --- ------- -- - -----<br>---------- -- -- -- ---- ----- -- ------ -- --- ------<br>-------,212627,212626.59999990463,212407.657,212423.39999985695,212444.863,212641.025,,32,of
screen,html.Screen,2_3_1_0_1_33,2022-02-01T13:29:59.599Z,,,,,,,,,,,,,,,,,48,,,,,,,,,,,,,,236.47500000000582,,response,,,,10,D,,,,,,Space,keypress(Space),,,,silence,,,,-- -- --- ------ ------- --------- ----------- --------<br>--------- -------- --- ------- -- ------- ---- -- ------<br>-- --- -------- -------- ---------- ---- ---- ---- ------<br>-- --------- -- ---- -- --- -- the ------- -- - -----<br>---------- -- -- -- ---- ----- -- ------ -- --- ------<br>-------,212878,212877.5,212624.272,212627,212641.025,212890.847,,33,the
screen,html.Screen,2_3_1_0_1_34,2022-02-01T13:29:59.840Z,,,,,,,,,,,,,,,,,48,,,,,,,,,,,,,,227.45299995230744,,response,,,,10,D,,,,,,Space,keypress(Space),,,,silence,,,,-- -- --- ------ ------- --------- ----------- --------<br>--------- -------- --- ------- -- ------- ---- -- ------<br>-- --- -------- -------- ---------- ---- ---- ---- ------<br>-- --------- -- ---- -- --- -- --- country -- - -----<br>---------- -- -- -- ---- ----- -- ------ -- --- ------<br>-------,213118.69999980927,213118.29999995232,212874.221,212878.09999990463,212890.847,213124.1,,34,country
screen,html.Screen,2_3_1_0_1_35,2022-02-01T13:30:00.057Z,,,,,,,,,,,,,,,,,48,,,,,,,,,,,,,,211.39999999999418,,response,,,,10,D,,,,,,Space,keypress(Space),,,,silence,,,,-- -- --- ------ ------- --------- ----------- --------<br>--------- -------- --- ------- -- ------- ---- -- ------<br>-- --- -------- -------- ---------- ---- ---- ---- ------<br>-- --------- -- ---- -- --- -- --- ------- is - -----<br>---------- -- -- -- ---- ----- -- ------ -- --- ------<br>-------,213336,213335.5,213107.521,213118.79999995232,213124.1,213340.726,,35,is
screen,html.Screen,2_3_1_0_1_36,2022-02-01T13:30:00.269Z,,,,,,,,,,,,,,,,,48,,,,,,,,,,,,,,206.67399985695374,,response,,,,10,D,,,,,,Space,keypress(Space),,,,silence,,,,-- -- --- ------ ------- --------- ----------- --------<br>--------- -------- --- ------- -- ------- ---- -- ------<br>-- --- -------- -------- ---------- ---- ---- ---- ------<br>-- --------- -- ---- -- --- -- --- ------- -- a -----<br>---------- -- -- -- ---- ----- -- ------ -- --- ------<br>-------,213547.79999995232,213547.39999985695,213324.12,213336.19999980927,213340.726,213557.377,,36,a
screen,html.Screen,2_3_1_0_1_37,2022-02-01T13:30:00.485Z,,,,,,,,,,,,,,,,,48,,,,,,,,,,,,,,206.52299985694117,,response,,,,10,D,,,,,,Space,keypress(Space),,,,silence,,,,-- -- --- ------ ------- --------- ----------- --------<br>--------- -------- --- ------- -- ------- ---- -- ------<br>-- --- -------- -------- ---------- ---- ---- ---- ------<br>-- --------- -- ---- -- --- -- --- ------- -- - crime<br>---------- -- -- -- ---- ----- -- ------ -- --- ------<br>-------,213764.29999995232,213763.89999985695,213540.757,213547.79999995232,213557.377,213773.984,,37,crime
screen,html.Screen,2_3_1_0_1_38,2022-02-01T13:30:00.751Z,,,,,,,,,,,,,,,,,48,,,,,,,,,,,,,,255.4159998569521,,response,,,,10,D,,,,,,Space,keypress(Space),,,,silence,,,,-- -- --- ------ ------- --------- ----------- --------<br>--------- -------- --- ------- -- ------- ---- -- ------<br>-- --- -------- -------- ---------- ---- ---- ---- ------<br>-- --------- -- ---- -- --- -- --- ------- -- - -----<br>punishable -- -- -- ---- ----- -- ------ -- --- ------<br>-------,214029.79999995232,214029.39999985695,213757.374,213764.39999985695,213773.984,214040.615,,38,punishable
screen,html.Screen,2_3_1_0_1_39,2022-02-01T13:30:00.955Z,,,,,,,,,,,,,,,,,48,,,,,,,,,,,,,,193.08499980927445,,response,,,,10,D,,,,,,Space,keypress(Space),,,,silence,,,,-- -- --- ------ ------- --------- ----------- --------<br>--------- -------- --- ------- -- ------- ---- -- ------<br>-- --- -------- -------- ---------- ---- ---- ---- ------<br>-- --------- -- ---- -- --- -- --- ------- -- - -----<br>---------- by -- -- ---- ----- -- ------ -- --- ------<br>-------,214234,214233.69999980927,214024.007,214029.89999985695,214040.615,214240.549,,39,by
screen,html.Screen,2_3_1_0_1_40,2022-02-01T13:30:02.060Z,,,,,,,,,,,,,,,,,48,,,,,,,,,,,,,,1098.3509998569498,,response,,,,10,D,,,,,,Space,keypress(Space),,,,silence,,,,-- -- --- ------ ------- --------- ----------- --------<br>--------- -------- --- ------- -- ------- ---- -- ------<br>-- --- -------- -------- ---------- ---- ---- ---- ------<br>-- --------- -- ---- -- --- -- --- ------- -- - -----<br>---------- -- up -- ---- ----- -- ------ -- --- ------<br>-------,215339.19999980927,215338.89999985695,214223.947,214234.09999990463,214240.549,215340.352,,40,up
screen,html.Screen,2_3_1_0_1_41,2022-02-01T13:30:02.131Z,,,,,,,,,,,,,,,,,48,,,,,,,,,,,,,,68.6479999999865,,response,,,,10,D,,,,,,Space,keypress(Space),,,,silence,,,,-- -- --- ------ ------- --------- ----------- --------<br>--------- -------- --- ------- -- ------- ---- -- ------<br>-- --- -------- -------- ---------- ---- ---- ---- ------<br>-- --------- -- ---- -- --- -- --- ------- -- - -----<br>---------- -- -- to ---- ----- -- ------ -- --- ------<br>-------,215409.29999995232,215409,215323.695,215339.29999995232,215340.352,215423.648,,41,to
screen,html.Screen,2_3_1_0_1_42,2022-02-01T13:30:02.166Z,,,,,,,,,,,,,,,,,48,,,,,,,,,,,,,,20.251999856962357,,response,,,,10,D,,,,,,Space,keypress(Space),,,,silence,,,,-- -- --- ------ ------- --------- ----------- --------<br>--------- -------- --- ------- -- ------- ---- -- ------<br>-- --- -------- -------- ---------- ---- ---- ---- ------<br>-- --------- -- ---- -- --- -- --- ------- -- - -----<br>---------- -- -- -- five ----- -- ------ -- --- ------<br>-------,215444.39999985695,215443.89999985695,215407.01,215409.5,215423.648,215456.968,,42,five
screen,html.Screen,2_3_1_0_1_43,2022-02-01T13:30:02.613Z,,,,,,,,,,,,,,,,,48,,,,,,,,,,,,,,434.0320000000065,,response,,,,10,D,,,,,,Space,keypress(Space),,,,silence,,,,-- -- --- ------ ------- --------- ----------- --------<br>--------- -------- --- ------- -- ------- ---- -- ------<br>-- --- -------- -------- ---------- ---- ---- ---- ------<br>-- --------- -- ---- -- --- -- --- ------- -- - -----<br>---------- -- -- -- ---- years -- ------ -- --- ------<br>-------,215891.5,215891,215440.336,215444.5,215456.968,215906.922,,43,years
