sender,sender_type,sender_id,timestamp,meta,,Blues,Classical,Country,Dance,Electronic,Folk,Gospel,Hip-Hop,Jazz,Latin,Musical/Film,New-age,Pop,Prolific_id,Provo_ID,R&B,Rap,Reggae,Religious,Rock,Soul,Swing,Traditional,age,artist_name,correct,correctResponse,distraction,duration,education,ended_on,familiarity,gender,headphone_check_performance,item,list,music_frequency,offensiveness,pleasantness,position_correct,preference,response,response_action,snippet_file,song_name,song_rating,sound,stimulus_1,stimulus_2,stimulus_3,text,time_commit,time_end,time_render,time_run,time_show,time_switch,url,word,word_ID
Prolific ID,html.Form,0,2022-02-21T12:58:41.042Z,"{""labjs_version"":""20.2.2"",""labjs_build"":{""flavor"":""production"",""commit"":""a25486e0c714a0ae2ce03ff94b7bb6896854dcfa""},""location"":""https://run.pavlovia.org/mvasilev/prolific2_music_c/"",""userAgent"":""Mozilla/5.0 (Windows NT 10.0; Win64; x64) AppleWebKit/537.36 (KHTML, like Gecko) Chrome/98.0.4758.102 Safari/537.36"",""platform"":""Win32"",""language"":""en-GB"",""locale"":""en-US"",""timeZone"":""Europe/London"",""timezoneOffset"":0,""screen_width"":1366,""screen_height"":768,""scroll_width"":1821,""scroll_height"":798,""window_innerWidth"":1821,""window_innerHeight"":846,""devicePixelRatio"":0.75}",,,,,,,,,,,,,,,5efa358d3b02ed8465b9a726,,,,,,,,,,,,,,,4494.000999952315,,form submission,,,,,,,,,,,,,,,,,,,,,13874.399999976158,13873.799999952316,9354.821,9367.599999904633,9379.799,13890.043,{},,
Introduction,html.Screen,1_0,2022-02-21T12:59:00.177Z,,,,,,,,,,,,,,,,,,,,,,,,,,,,,,,19115.656999928477,,response,,,,,,,,,,,continue,click button,,,,,,,,,33009.39999997616,33005.699999928474,13865.065,13874.799999952316,13890.043,33024.276,,,
Volume calibration,html.Screen,1_1,2022-02-21T12:59:22.847Z,,,,,,,,,,,,,,,,,,,,,,,,,,,,,,,22651.224000000002,,response,,,,,,,,,,,continue,click button,,,,,,,,,55680.09999990463,55675.5,32999.298,33009.59999990463,33024.276,55690.663,,,
Task instructions,html.Screen,1_2,2022-02-21T12:59:31.101Z,,,,,,,,,,,,,,,,,,,,,,,,,,,,,,,8236.036999928474,,response,,,,,,,,,,,continue,click button,,,,,,,,,63928.199999928474,63926.699999928474,55665.685,55680.299999952316,55690.663,63938.929,,,
Sounds,html.Screen,1_3_0_0,2022-02-21T12:59:35.351Z,,,,,,,,,,,,,,,,,,,,,,,,,,,,,,,4252.08400000001,,timeout,,,,,,,,,1,,,,,,,,S,O,I,,68178.09999990463,68166.035,63913.951,63928.39999997616,63938.929,68191.013,,,
Judgement,html.Screen,1_3_0_1,2022-02-21T12:59:36.626Z,,,,,,,,,,,,,,,,,,,,,,,,,,,,true,1,,1260.0869999046263,,response,,,,,,,,,1,,1,click #choice-1,,,,,S,O,I,,69452.89999997616,69451.09999990463,68166.035,68178.39999997616,68191.013,69471.176,,,
Trial,flow.Sequence,1_3_0,2022-02-21T12:59:36.626Z,,,,,,,,,,,,,,,,,,,,,,,,,,,,,,,5512.170999904636,,completion,,,,,,,,,1,,,,,,,,S,O,I,,69453.39999997616,69451.09999990463,63913.951,63928.39999997616,63938.929,69471.176,,,
Sounds,html.Screen,1_3_1_0,2022-02-21T12:59:40.877Z,,,,,,,,,,,,,,,,,,,,,,,,,,,,,,,4248.984999999986,,timeout,,,,,,,,,2,,,,,,,,I,S,O,,73704.19999992847,73695.183,69446.198,69453.69999992847,69471.176,73720.161,,,
Judgement,html.Screen,1_3_1_1,2022-02-21T12:59:41.823Z,,,,,,,,,,,,,,,,,,,,,,,,,,,,true,2,,928.6389999523235,,response,,,,,,,,,2,,2,click #choice-2,,,,,I,S,O,,74650.39999997616,74648.79999995232,73695.183,73704.5,73720.161,74652.186,,,
Trial,flow.Sequence,1_3_1,2022-02-21T12:59:41.824Z,,,,,,,,,,,,,,,,,,,,,,,,,,,,,,,5177.6239999523095,,completion,,,,,,,,,2,,,,,,,,I,S,O,,74650.89999997616,74648.79999995232,69446.198,69453.59999990463,69471.176,74652.186,,,
Sounds,html.Screen,1_3_2_0,2022-02-21T12:59:46.055Z,,,,,,,,,,,,,,,,,,,,,,,,,,,,,,,4249.225999999995,,timeout,,,,,,,,,2,,,,,,,,O,S,I,,78882.19999992847,78876.434,74627.208,74651.09999990463,74652.186,78901.412,,,
Judgement,html.Screen,1_3_2_1,2022-02-21T12:59:46.572Z,,,,,,,,,,,,,,,,,,,,,,,,,,,,true,2,,496.38799995231966,,response,,,,,,,,,2,,2,click #choice-2,,,,,O,S,I,,79399.19999992847,79397.79999995232,78876.434,78882.59999990463,78901.412,79404.912,,,
Trial,flow.Sequence,1_3_2,2022-02-21T12:59:46.572Z,,,,,,,,,,,,,,,,,,,,,,,,,,,,,,,4745.613999952315,,completion,,,,,,,,,2,,,,,,,,O,S,I,,79399.79999995232,79397.79999995232,74627.208,74651,74652.186,79404.912,,,
Sounds,html.Screen,1_3_3_0,2022-02-21T12:59:50.806Z,,,,,,,,,,,,,,,,,,,,,,,,,,,,,,,4250.236000000004,,timeout,,,,,,,,,3,,,,,,,,I,O,S,,83633.19999992847,83630.17,79379.934,79399.89999997616,79404.912,83655.148,,,
Judgement,html.Screen,1_3_3_1,2022-02-21T12:59:52.036Z,,,,,,,,,,,,,,,,,,,,,,,,,,,,false,3,,1206.4519999046315,,response,,,,,,,,,3,,1,click #choice-1,,,,,I,O,S,,84863.29999995232,84861.59999990463,83630.17,83633.5,83655.148,84886.943,,,
Trial,flow.Sequence,1_3_3,2022-02-21T12:59:52.036Z,,,,,,,,,,,,,,,,,,,,,,,,,,,,,,,5456.687999904636,,completion,,,,,,,,,3,,,,,,,,I,O,S,,84863.59999990463,84861.59999990463,79379.934,79399.89999997616,79404.912,84886.943,,,
Sounds,html.Screen,1_3_4_0,2022-02-21T12:59:56.293Z,,,,,,,,,,,,,,,,,,,,,,,,,,,,,,,4250.6159999999945,,timeout,,,,,,,,,3,,,,,,,,O,I,S,,89120.09999990463,89112.581,84861.965,84863.89999997616,84886.943,89137.559,,,
Judgement,html.Screen,1_3_4_1,2022-02-21T12:59:56.817Z,,,,,,,,,,,,,,,,,,,,,,,,,,,,true,3,,505.44100000000617,,response,,,,,,,,,3,,3,click #choice-3,,,,,O,I,S,,89644.19999992847,89643,89112.581,89120.29999995232,89137.559,89666.217,,,
Trial,flow.Sequence,1_3_4,2022-02-21T12:59:56.817Z,,,,,,,,,,,,,,,,,,,,,,,,,,,,,,,4756.057000000001,,completion,,,,,,,,,3,,,,,,,,O,I,S,,89644.39999997616,89643,84861.965,84863.69999992847,84886.943,89666.217,,,
Sounds,html.Screen,1_3_5_0,2022-02-21T13:00:01.073Z,,,,,,,,,,,,,,,,,,,,,,,,,,,,,,,4249.9619999999995,,timeout,,,,,,,,,1,,,,,,,,S,I,O,,93900.59999990463,93891.201,89641.239,89644.5,89666.217,93916.179,,,
Judgement,html.Screen,1_3_5_1,2022-02-21T13:00:01.974Z,,,,,,,,,,,,,,,,,,,,,,,,,,,,true,1,,883.9209999046288,,response,,,,,,,,,1,,1,click #choice-1,,,,,S,I,O,,94801.69999992847,94800.09999990463,93891.201,93901,93916.179,94822.468,,,
Trial,flow.Sequence,1_3_5,2022-02-21T13:00:01.974Z,,,,,,,,,,,,,,,,,,,,,,,,,,,,,,,5133.882999904628,,completion,,,,,,,,,1,,,,,,,,S,I,O,,94801.79999995232,94800.09999990463,89641.239,89644.5,89666.217,94822.468,,,
Task,flow.Loop,1_3,2022-02-21T13:00:01.978Z,,,,,,,,,,,,,,,,,,,,,,,,,,,,,,,30861.170999904636,,completion,,,0.8333333333333334,,,,,,,,,,,,,,,,,,94805.69999992847,94800.09999990463,63913.951,63928.299999952316,63938.929,94822.468,,,
Trap,html.Screen,1_4,2022-02-21T13:00:01.980Z,,,,,,,,,,,,,,,,,,,,,,,,,,,,,,,NaN,,skipped,,,,,,,,,,,,,,,,,,,,,94806.89999997616,94800.09999990463,,94806.79999995232,,94822.468,,,
Thanks,html.Screen,1_5,2022-02-21T13:00:05.251Z,,,,,,,,,,,,,,,,,,,,,,,,,,,,,,,3255.231999928481,,response,,,,,,,,,,,continue,click button,,,,,,,,,98078.79999995232,98077.69999992847,94797.49,94807,94822.468,102169.044,,,
Headphone screening,flow.Sequence,1,2022-02-21T13:00:05.252Z,,,,,,,,,,,,,,,,,,,,,,,,,,,,,,,84187.65699992847,,completion,,,,,,,,,,,,,,,,,,,,,98079,98077.69999992847,13865.065,13874.799999952316,13890.043,102169.044,,,
Instructions,html.Page,2_0,2022-02-21T13:00:24.409Z,,,,,,,,,,,,,,,,,,,,,,,,,,,,,,,15067.15599992848,,form submission,,,,,,,,,,,,,,,,,,,,,117236.69999992847,117236.19999992847,102144.066,102172.29999995232,102169.044,117256.871,,,
Holding screen,html.Screen,2_1_0_0,2022-02-21T13:00:34.409Z,,,,,,,,,,,,,,,,,,,,,,,,,,,,,,,9999.733999999997,,timeout,,,,,,,,,,,,,,,,,,,,,127237.89999997616,127231.627,117231.893,117236.89999997616,117256.871,127256.605,,,
screen,html.Screen,2_1_0_1_0,2022-02-21T13:00:35.332Z,,,,,,,,,,,,,,,,,53,,,,,,,,,,,,,,899.9949999046366,,response,,,,99,,,,,,,Space,keypress(Space),,,,,,,,When -- ----- -- ------ - ------- --- ----------<br>------------- ------ ------ ---- ---- ------- ----- -- ----<br>-------- ------- -- ---------- --- - --- ----- ----- ----<br>---- --- --- ----- --- ---- ---- ------- ----- ---- -------<br>--- --- -- ----- -- --- ---- -- --- ---- -- ------ ------<br>--- ----- -- ----,128161.29999995232,128156.59999990463,127231.627,127238.19999992847,127256.605,128169.428,,0,When
screen,html.Screen,2_1_0_1_1,2022-02-21T13:00:35.783Z,,,,,,,,,,,,,,,,,53,,,,,,,,,,,,,,441.1719999046327,,response,,,,99,,,,,,,Space,keypress(Space),,,,,,,,---- it ----- -- ------ - ------- --- ----------<br>------------- ------ ------ ---- ---- ------- ----- -- ----<br>-------- ------- -- ---------- --- - --- ----- ----- ----<br>---- --- --- ----- --- ---- ---- ------- ----- ---- -------<br>--- --- -- ----- -- --- ---- -- --- ---- -- ------ ------<br>--- ----- -- ----,128612,128610.59999990463,128144.45,128161.69999992847,128169.428,128619.226,,1,it
screen,html.Screen,2_1_0_1_2,2022-02-21T13:00:36.237Z,,,,,,,,,,,,,,,,,53,,,,,,,,,,,,,,446.0739999523212,,response,,,,99,,,,,,,Space,keypress(Space),,,,,,,,---- -- comes -- ------ - ------- --- ----------<br>------------- ------ ------ ---- ---- ------- ----- -- ----<br>-------- ------- -- ---------- --- - --- ----- ----- ----<br>---- --- --- ----- --- ---- ---- ------- ----- ---- -------<br>--- --- -- ----- -- --- ---- -- --- ---- -- ------ ------<br>--- ----- -- ----,129066.59999990463,129065.29999995232,128594.248,128612.09999990463,128619.226,129075.05,,2,comes
screen,html.Screen,2_1_0_1_3,2022-02-21T13:00:36.672Z,,,,,,,,,,,,,,,,,53,,,,,,,,,,,,,,424.7499999523134,,response,,,,99,,,,,,,Space,keypress(Space),,,,,,,,---- -- ----- to ------ - ------- --- ----------<br>------------- ------ ------ ---- ---- ------- ----- -- ----<br>-------- ------- -- ---------- --- - --- ----- ----- ----<br>---- --- --- ----- --- ---- ---- ------- ----- ---- -------<br>--- --- -- ----- -- --- ---- -- --- ---- -- ------ ------<br>--- ----- -- ----,129501.09999990463,129499.79999995232,129050.072,129066.89999997616,129075.05,129502.684,,3,to
screen,html.Screen,2_1_0_1_4,2022-02-21T13:00:37.157Z,,,,,,,,,,,,,,,,,53,,,,,,,,,,,,,,480.81600000000617,,response,,,,99,,,,,,,Space,keypress(Space),,,,,,,,---- -- ----- -- having - ------- --- ----------<br>------------- ------ ------ ---- ---- ------- ----- -- ----<br>-------- ------- -- ---------- --- - --- ----- ----- ----<br>---- --- --- ----- --- ---- ---- ------- ----- ---- -------<br>--- --- -- ----- -- --- ---- -- --- ---- -- ------ ------<br>--- ----- -- ----,129986.59999990463,129983.5,129477.706,129501.29999995232,129502.684,130008.367,,4,having
screen,html.Screen,2_1_0_1_5,2022-02-21T13:00:37.509Z,,,,,,,,,,,,,,,,,53,,,,,,,,,,,,,,329.5329999761598,,response,,,,99,,,,,,,Space,keypress(Space),,,,,,,,---- -- ----- -- ------ a ------- --- ----------<br>------------- ------ ------ ---- ---- ------- ----- -- ----<br>-------- ------- -- ---------- --- - --- ----- ----- ----<br>---- --- --- ----- --- ---- ---- ------- ----- ---- -------<br>--- --- -- ----- -- --- ---- -- --- ---- -- ------ ------<br>--- ----- -- ----,130338.39999997616,130337.89999997616,129983.389,129986.79999995232,130008.367,130358.151,,5,a
screen,html.Screen,2_1_0_1_6,2022-02-21T13:00:37.986Z,,,,,,,,,,,,,,,,,53,,,,,,,,,,,,,,455.7489999761601,,response,,,,99,,,,,,,Space,keypress(Space),,,,,,,,---- -- ----- -- ------ - lasting --- ----------<br>------------- ------ ------ ---- ---- ------- ----- -- ----<br>-------- ------- -- ---------- --- - --- ----- ----- ----<br>---- --- --- ----- --- ---- ---- ------- ----- ---- -------<br>--- --- -- ----- -- --- ---- -- --- ---- -- ------ ------<br>--- ----- -- ----,130815.19999992847,130813.89999997616,130333.173,130338.5,130358.151,130836.126,,6,lasting
screen,html.Screen,2_1_0_1_7,2022-02-21T13:00:38.381Z,,,,,,,,,,,,,,,,,53,,,,,,,,,,,,,,372.87399999999616,,response,,,,99,,,,,,,Space,keypress(Space),,,,,,,,---- -- ----- -- ------ - ------- and ----------<br>------------- ------ ------ ---- ---- ------- ----- -- ----<br>-------- ------- -- ---------- --- - --- ----- ----- ----<br>---- --- --- ----- --- ---- ---- ------- ----- ---- -------<br>--- --- -- ----- -- --- ---- -- --- ---- -- ------ ------<br>--- ----- -- ----,131210.19999992847,131209,130811.148,130815.39999997616,130836.126,131216.308,,7,and
screen,html.Screen,2_1_0_1_8,2022-02-21T13:00:38.865Z,,,,,,,,,,,,,,,,,53,,,,,,,,,,,,,,476.89199992848444,,response,,,,99,,,,,,,Space,keypress(Space),,,,,,,,---- -- ----- -- ------ - ------- --- fulfilling<br>------------- ------ ------ ---- ---- ------- ----- -- ----<br>-------- ------- -- ---------- --- - --- ----- ----- ----<br>---- --- --- ----- --- ---- ---- ------- ----- ---- -------<br>--- --- -- ----- -- --- ---- -- --- ---- -- ------ ------<br>--- ----- -- ----,131694.5,131693.19999992847,131191.33,131210.39999997616,131216.308,131718.628,,8,fulfilling
screen,html.Screen,2_1_0_1_9,2022-02-21T13:00:39.863Z,,,,,,,,,,,,,,,,,53,,,,,,,,,,,,,,972.4719999046356,,response,,,,99,,,,,,,Space,keypress(Space),,,,,,,,"---- -- ----- -- ------ - ------- --- ----------<br>relationship, ------ ------ ---- ---- ------- ----- -- ----<br>-------- ------- -- ---------- --- - --- ----- ----- ----<br>---- --- --- ----- --- ---- ---- ------- ----- ---- -------<br>--- --- -- ----- -- --- ---- -- --- ---- -- ------ ------<br>--- ----- -- ----",132692.39999997616,132691.09999990463,131693.65,131694.79999995232,131718.628,132696.055,,9,"relationship,"
screen,html.Screen,2_1_0_1_10,2022-02-21T13:00:40.476Z,,,,,,,,,,,,,,,,,53,,,,,,,,,,,,,,607.5449999046396,,response,,,,99,,,,,,,Space,keypress(Space),,,,,,,,---- -- ----- -- ------ - ------- --- ----------<br>------------- common ------ ---- ---- ------- ----- -- ----<br>-------- ------- -- ---------- --- - --- ----- ----- ----<br>---- --- --- ----- --- ---- ---- ------- ----- ---- -------<br>--- --- -- ----- -- --- ---- -- --- ---- -- ------ ------<br>--- ----- -- ----,133304.79999995232,133303.59999990463,132671.077,132692.59999990463,132696.055,133320.683,,10,common
screen,html.Screen,2_1_0_1_11,2022-02-21T13:00:40.831Z,,,,,,,,,,,,,,,,,53,,,,,,,,,,,,,,338.81700000001,,response,,,,99,,,,,,,Space,keypress(Space),,,,,,,,---- -- ----- -- ------ - ------- --- ----------<br>------------- ------ wisdom ---- ---- ------- ----- -- ----<br>-------- ------- -- ---------- --- - --- ----- ----- ----<br>---- --- --- ----- --- ---- ---- ------- ----- ---- -------<br>--- --- -- ----- -- --- ---- -- --- ---- -- ------ ------<br>--- ----- -- ----,133660.59999990463,133659.5,133295.705,133305.19999992847,133320.683,133677.1,,11,wisdom
screen,html.Screen,2_1_0_1_12,2022-02-21T13:00:41.206Z,,,,,,,,,,,,,,,,,53,,,,,,,,,,,,,,357.2999999761523,,response,,,,99,,,,,,,Space,keypress(Space),,,,,,,,---- -- ----- -- ------ - ------- --- ----------<br>------------- ------ ------ says ---- ------- ----- -- ----<br>-------- ------- -- ---------- --- - --- ----- ----- ----<br>---- --- --- ----- --- ---- ---- ------- ----- ---- -------<br>--- --- -- ----- -- --- ---- -- --- ---- -- ------ ------<br>--- ----- -- ----,134035.39999997616,134034.39999997616,133652.122,133660.89999997616,133677.1,134056.089,,12,says
screen,html.Screen,2_1_0_1_13,2022-02-21T13:00:41.988Z,,,,,,,,,,,,,,,,,53,,,,,,,,,,,,,,759.3109999761509,,response,,,,99,,,,,,,Space,keypress(Space),,,,,,,,---- -- ----- -- ------ - ------- --- ----------<br>------------- ------ ------ ---- that ------- ----- -- ----<br>-------- ------- -- ---------- --- - --- ----- ----- ----<br>---- --- --- ----- --- ---- ---- ------- ----- ---- -------<br>--- --- -- ----- -- --- ---- -- --- ---- -- ------ ------<br>--- ----- -- ----,134816.69999992847,134815.39999997616,134031.111,134035.59999990463,134056.089,134835.149,,13,that
screen,html.Screen,2_1_0_1_14,2022-02-21T13:00:42.422Z,,,,,,,,,,,,,,,,,53,,,,,,,,,,,,,,415.1509999523114,,response,,,,99,,,,,,,Space,keypress(Space),,,,,,,,---- -- ----- -- ------ - ------- --- ----------<br>------------- ------ ------ ---- ---- feeling ----- -- ----<br>-------- ------- -- ---------- --- - --- ----- ----- ----<br>---- --- --- ----- --- ---- ---- ------- ----- ---- -------<br>--- --- -- ----- -- --- ---- -- --- ---- -- ------ ------<br>--- ----- -- ----,135251.5,135250.29999995232,134810.171,134816.89999997616,134835.149,135265.22,,14,feeling
screen,html.Screen,2_1_0_1_15,2022-02-21T13:00:42.868Z,,,,,,,,,,,,,,,,,53,,,,,,,,,,,,,,430.679999976157,,response,,,,99,,,,,,,Space,keypress(Space),,,,,,,,---- -- ----- -- ------ - ------- --- ----------<br>------------- ------ ------ ---- ---- ------- close -- ----<br>-------- ------- -- ---------- --- - --- ----- ----- ----<br>---- --- --- ----- --- ---- ---- ------- ----- ---- -------<br>--- --- -- ----- -- --- ---- -- --- ---- -- ------ ------<br>--- ----- -- ----,135697.29999995232,135695.89999997616,135240.242,135251.79999995232,135265.22,135717.764,,15,close
screen,html.Screen,2_1_0_1_16,2022-02-21T13:00:43.263Z,,,,,,,,,,,,,,,,,53,,,,,,,,,,,,,,373.5359999523207,,response,,,,99,,,,,,,Space,keypress(Space),,,,,,,,---- -- ----- -- ------ - ------- --- ----------<br>------------- ------ ------ ---- ---- ------- ----- to ----<br>-------- ------- -- ---------- --- - --- ----- ----- ----<br>---- --- --- ----- --- ---- ---- ------- ----- ---- -------<br>--- --- -- ----- -- --- ---- -- --- ---- -- ------ ------<br>--- ----- -- ----,136092.5,136091.29999995232,135692.786,135697.59999990463,135717.764,136095.54,,16,to
screen,html.Screen,2_1_0_1_17,2022-02-21T13:00:43.757Z,,,,,,,,,,,,,,,,,53,,,,,,,,,,,,,,489.5599999046244,,response,,,,99,,,,,,,Space,keypress(Space),,,,,,,,---- -- ----- -- ------ - ------- --- ----------<br>------------- ------ ------ ---- ---- ------- ----- -- your<br>-------- ------- -- ---------- --- - --- ----- ----- ----<br>---- --- --- ----- --- ---- ---- ------- ----- ---- -------<br>--- --- -- ----- -- --- ---- -- --- ---- -- ------ ------<br>--- ----- -- ----,136586.39999997616,136585.09999990463,136070.562,136092.79999995232,136095.54,136597.874,,17,your
screen,html.Screen,2_1_0_1_18,2022-02-21T13:00:44.270Z,,,,,,,,,,,,,,,,,53,,,,,,,,,,,,,,500.02599997614743,,response,,,,99,,,,,,,Space,keypress(Space),,,,,,,,---- -- ----- -- ------ - ------- --- ----------<br>------------- ------ ------ ---- ---- ------- ----- -- ----<br>romantic ------- -- ---------- --- - --- ----- ----- ----<br>---- --- --- ----- --- ---- ---- ------- ----- ---- -------<br>--- --- -- ----- -- --- ---- -- --- ---- -- ------ ------<br>--- ----- -- ----,137099.5,137097.89999997616,136572.896,136586.59999990463,136597.874,137100.7,,18,romantic
screen,html.Screen,2_1_0_1_19,2022-02-21T13:00:44.616Z,,,,,,,,,,,,,,,,,53,,,,,,,,,,,,,,342.9999999284628,,response,,,,99,,,,,,,Space,keypress(Space),,,,,,,,---- -- ----- -- ------ - ------- --- ----------<br>------------- ------ ------ ---- ---- ------- ----- -- ----<br>-------- partner -- ---------- --- - --- ----- ----- ----<br>---- --- --- ----- --- ---- ---- ------- ----- ---- -------<br>--- --- -- ----- -- --- ---- -- --- ---- -- ------ ------<br>--- ----- -- ----,137444.89999997616,137443.69999992847,137075.722,137099.79999995232,137100.7,137454.033,,19,partner
screen,html.Screen,2_1_0_1_20,2022-02-21T13:00:45.031Z,,,,,,,,,,,,,,,,,53,,,,,,,,,,,,,,404.7669999523205,,response,,,,99,,,,,,,Space,keypress(Space),,,,,,,,---- -- ----- -- ------ - ------- --- ----------<br>------------- ------ ------ ---- ---- ------- ----- -- ----<br>-------- ------- is ---------- --- - --- ----- ----- ----<br>---- --- --- ----- --- ---- ---- ------- ----- ---- -------<br>--- --- -- ----- -- --- ---- -- --- ---- -- ------ ------<br>--- ----- -- ----,137860,137858.79999995232,137429.055,137445.09999990463,137454.033,137878.807,,20,is
screen,html.Screen,2_1_0_1_21,2022-02-21T13:00:45.387Z,,,,,,,,,,,,,,,,,53,,,,,,,,,,,,,,336.1929999999993,,response,,,,99,,,,,,,Space,keypress(Space),,,,,,,,---- -- ----- -- ------ - ------- --- ----------<br>------------- ------ ------ ---- ---- ------- ----- -- ----<br>-------- ------- -- paramount. --- - --- ----- ----- ----<br>---- --- --- ----- --- ---- ---- ------- ----- ---- -------<br>--- --- -- ----- -- --- ---- -- --- ---- -- ------ ------<br>--- ----- -- ----,138215.89999997616,138215,137853.829,137860.39999997616,137878.807,138233.526,,21,paramount.
screen,html.Screen,2_1_0_1_22,2022-02-21T13:00:47.017Z,,,,,,,,,,,,,,,,,53,,,,,,,,,,,,,,1611.6739999284619,,response,,,,99,,,,,,,Space,keypress(Space),,,,,,,,---- -- ----- -- ------ - ------- --- ----------<br>------------- ------ ------ ---- ---- ------- ----- -- ----<br>-------- ------- -- ---------- But - --- ----- ----- ----<br>---- --- --- ----- --- ---- ---- ------- ----- ---- -------<br>--- --- -- ----- -- --- ---- -- --- ---- -- ------ ------<br>--- ----- -- ----,139845.89999997616,139845.19999992847,138208.548,138216.19999992847,138233.526,139859.514,,22,But
screen,html.Screen,2_1_0_1_23,2022-02-21T13:00:47.383Z,,,,,,,,,,,,,,,,,53,,,,,,,,,,,,,,350.9860000000044,,response,,,,99,,,,,,,Space,keypress(Space),,,,,,,,---- -- ----- -- ------ - ------- --- ----------<br>------------- ------ ------ ---- ---- ------- ----- -- ----<br>-------- ------- -- ---------- --- a --- ----- ----- ----<br>---- --- --- ----- --- ---- ---- ------- ----- ---- -------<br>--- --- -- ----- -- --- ---- -- --- ---- -- ------ ------<br>--- ----- -- ----,140211.69999992847,140210.5,139834.536,139846,139859.514,140234.361,,23,a
screen,html.Screen,2_1_0_1_24,2022-02-21T13:00:47.630Z,,,,,,,,,,,,,,,,,53,,,,,,,,,,,,,,223.23899990462814,,response,,,,99,,,,,,,Space,keypress(Space),,,,,,,,---- -- ----- -- ------ - ------- --- ----------<br>------------- ------ ------ ---- ---- ------- ----- -- ----<br>-------- ------- -- ---------- --- - new ----- ----- ----<br>---- --- --- ----- --- ---- ---- ------- ----- ---- -------<br>--- --- -- ----- -- --- ---- -- --- ---- -- ------ ------<br>--- ----- -- ----,140458.89999997616,140457.59999990463,140209.383,140211.89999997616,140234.361,140472.613,,24,new
screen,html.Screen,2_1_0_1_25,2022-02-21T13:00:48.083Z,,,,,,,,,,,,,,,,,53,,,,,,,,,,,,,,438.78699997614603,,response,,,,99,,,,,,,Space,keypress(Space),,,,,,,,---- -- ----- -- ------ - ------- --- ----------<br>------------- ------ ------ ---- ---- ------- ----- -- ----<br>-------- ------- -- ---------- --- - --- study ----- ----<br>---- --- --- ----- --- ---- ---- ------- ----- ---- -------<br>--- --- -- ----- -- --- ---- -- --- ---- -- ------ ------<br>--- ----- -- ----,140912.09999990463,140911.39999997616,140447.635,140459.09999990463,140472.613,140923.954,,25,study
screen,html.Screen,2_1_0_1_26,2022-02-21T13:00:48.677Z,,,,,,,,,,,,,,,,,53,,,,,,,,,,,,,,581.3459999523184,,response,,,,99,,,,,,,Space,keypress(Space),,,,,,,,---- -- ----- -- ------ - ------- --- ----------<br>------------- ------ ------ ---- ---- ------- ----- -- ----<br>-------- ------- -- ---------- --- - --- ----- finds ----<br>---- --- --- ----- --- ---- ---- ------- ----- ---- -------<br>--- --- -- ----- -- --- ---- -- --- ---- -- ------ ------<br>--- ----- -- ----,141506.5,141505.29999995232,140898.976,140912.19999992847,140923.954,141526.501,,26,finds
screen,html.Screen,2_1_0_1_27,2022-02-21T13:00:49.033Z,,,,,,,,,,,,,,,,,53,,,,,,,,,,,,,,333.9990000000107,,response,,,,99,,,,,,,Space,keypress(Space),,,,,,,,---- -- ----- -- ------ - ------- --- ----------<br>------------- ------ ------ ---- ---- ------- ----- -- ----<br>-------- ------- -- ---------- --- - --- ----- ----- that<br>---- --- --- ----- --- ---- ---- ------- ----- ---- -------<br>--- --- -- ----- -- --- ---- -- --- ---- -- ------ ------<br>--- ----- -- ----,141862,141860.5,141501.523,141506.69999992847,141526.501,141876.409,,27,that
screen,html.Screen,2_1_0_1_28,2022-02-21T13:00:49.448Z,,,,,,,,,,,,,,,,,53,,,,,,,,,,,,,,399.49099997614394,,response,,,,99,,,,,,,Space,keypress(Space),,,,,,,,---- -- ----- -- ------ - ------- --- ----------<br>------------- ------ ------ ---- ---- ------- ----- -- ----<br>-------- ------- -- ---------- --- - --- ----- ----- ----<br>it's --- --- ----- --- ---- ---- ------- ----- ---- -------<br>--- --- -- ----- -- --- ---- -- --- ---- -- ------ ------<br>--- ----- -- ----,142277.09999990463,142275.89999997616,141851.431,141862.29999995232,141876.409,142280.202,,28,it's
screen,html.Screen,2_1_0_1_29,2022-02-21T13:00:49.695Z,,,,,,,,,,,,,,,,,53,,,,,,,,,,,,,,242.9979999284842,,response,,,,99,,,,,,,Space,keypress(Space),,,,,,,,---- -- ----- -- ------ - ------- --- ----------<br>------------- ------ ------ ---- ---- ------- ----- -- ----<br>-------- ------- -- ---------- --- - --- ----- ----- ----<br>---- not --- ----- --- ---- ---- ------- ----- ---- -------<br>--- --- -- ----- -- --- ---- -- --- ---- -- ------ ------<br>--- ----- -- ----,142524.5,142523.19999992847,142255.224,142277.29999995232,142280.202,142532.391,,29,not
screen,html.Screen,2_1_0_1_30,2022-02-21T13:00:50.011Z,,,,,,,,,,,,,,,,,53,,,,,,,,,,,,,,307.0089999761549,,response,,,,99,,,,,,,Space,keypress(Space),,,,,,,,---- -- ----- -- ------ - ------- --- ----------<br>------------- ------ ------ ---- ---- ------- ----- -- ----<br>-------- ------- -- ---------- --- - --- ----- ----- ----<br>---- --- how ----- --- ---- ---- ------- ----- ---- -------<br>--- --- -- ----- -- --- ---- -- --- ---- -- ------ ------<br>--- ----- -- ----,142840.5,142839.39999997616,142507.413,142524.69999992847,142532.391,142861.381,,30,how
screen,html.Screen,2_1_0_1_31,2022-02-21T13:00:50.279Z,,,,,,,,,,,,,,,,,53,,,,,,,,,,,,,,246.0189999761642,,response,,,,99,,,,,,,Space,keypress(Space),,,,,,,,---- -- ----- -- ------ - ------- --- ----------<br>------------- ------ ------ ---- ---- ------- ----- -- ----<br>-------- ------- -- ---------- --- - --- ----- ----- ----<br>---- --- --- close --- ---- ---- ------- ----- ---- -------<br>--- --- -- ----- -- --- ---- -- --- ---- -- ------ ------<br>--- ----- -- ----,143108.59999990463,143107.39999997616,142836.403,142840.79999995232,142861.381,143111.388,,31,close
screen,html.Screen,2_1_0_1_32,2022-02-21T13:00:50.634Z,,,,,,,,,,,,,,,,,53,,,,,,,,,,,,,,350.41199995231,,response,,,,99,,,,,,,Space,keypress(Space),,,,,,,,---- -- ----- -- ------ - ------- --- ----------<br>------------- ------ ------ ---- ---- ------- ----- -- ----<br>-------- ------- -- ---------- --- - --- ----- ----- ----<br>---- --- --- ----- you ---- ---- ------- ----- ---- -------<br>--- --- -- ----- -- --- ---- -- --- ---- -- ------ ------<br>--- ----- -- ----,143463,143461.79999995232,143086.41,143108.79999995232,143111.388,143465.04,,32,you
screen,html.Screen,2_1_0_1_33,2022-02-21T13:00:50.940Z,,,,,,,,,,,,,,,,,53,,,,,,,,,,,,,,303.35999997615,,response,,,,99,,,,,,,Space,keypress(Space),,,,,,,,---- -- ----- -- ------ - ------- --- ----------<br>------------- ------ ------ ---- ---- ------- ----- -- ----<br>-------- ------- -- ---------- --- - --- ----- ----- ----<br>---- --- --- ----- --- feel ---- ------- ----- ---- -------<br>--- --- -- ----- -- --- ---- -- --- ---- -- ------ ------<br>--- ----- -- ----,143769.5,143768.39999997616,143440.062,143463.19999992847,143465.04,143792.176,,33,feel
screen,html.Screen,2_1_0_1_34,2022-02-21T13:00:51.296Z,,,,,,,,,,,,,,,,,53,,,,,,,,,,,,,,331.62399995230953,,response,,,,99,,,,,,,Space,keypress(Space),,,,,,,,---- -- ----- -- ------ - ------- --- ----------<br>------------- ------ ------ ---- ---- ------- ----- -- ----<br>-------- ------- -- ---------- --- - --- ----- ----- ----<br>---- --- --- ----- --- ---- that ------- ----- ---- -------<br>--- --- -- ----- -- --- ---- -- --- ---- -- ------ ------<br>--- ----- -- ----,144125,144123.79999995232,143767.198,143769.79999995232,143792.176,144143.919,,34,that
screen,html.Screen,2_1_0_1_35,2022-02-21T13:00:51.672Z,,,,,,,,,,,,,,,,,53,,,,,,,,,,,,,,355.68099990463816,,response,,,,99,,,,,,,Space,keypress(Space),,,,,,,,---- -- ----- -- ------ - ------- --- ----------<br>------------- ------ ------ ---- ---- ------- ----- -- ----<br>-------- ------- -- ---------- --- - --- ----- ----- ----<br>---- --- --- ----- --- ---- ---- matters ----- ---- -------<br>--- --- -- ----- -- --- ---- -- --- ---- -- ------ ------<br>--- ----- -- ----,144500.89999997616,144499.59999990463,144118.941,144125.19999992847,144143.919,144518.786,,35,matters
screen,html.Screen,2_1_0_1_36,2022-02-21T13:00:52.146Z,,,,,,,,,,,,,,,,,53,,,,,,,,,,,,,,455.0139999523235,,response,,,,99,,,,,,,Space,keypress(Space),,,,,,,,"---- -- ----- -- ------ - ------- --- ----------<br>------------- ------ ------ ---- ---- ------- ----- -- ----<br>-------- ------- -- ---------- --- - --- ----- ----- ----<br>---- --- --- ----- --- ---- ---- ------- most, ---- -------<br>--- --- -- ----- -- --- ---- -- --- ---- -- ------ ------<br>--- ----- -- ----",144975,144973.79999995232,144493.808,144501.19999992847,144518.786,144998.174,,36,"most,"
screen,html.Screen,2_1_0_1_37,2022-02-21T13:00:52.610Z,,,,,,,,,,,,,,,,,53,,,,,,,,,,,,,,440.2259999761591,,response,,,,99,,,,,,,Space,keypress(Space),,,,,,,,---- -- ----- -- ------ - ------- --- ----------<br>------------- ------ ------ ---- ---- ------- ----- -- ----<br>-------- ------- -- ---------- --- - --- ----- ----- ----<br>---- --- --- ----- --- ---- ---- ------- ----- it's -------<br>--- --- -- ----- -- --- ---- -- --- ---- -- ------ ------<br>--- ----- -- ----,145439.69999992847,145438.39999997616,144973.196,144975.19999992847,144998.174,145447.974,,37,it's
screen,html.Screen,2_1_0_1_38,2022-02-21T13:00:53.035Z,,,,,,,,,,,,,,,,,53,,,,,,,,,,,,,,415.4259999761707,,response,,,,99,,,,,,,Space,keypress(Space),,,,,,,,---- -- ----- -- ------ - ------- --- ----------<br>------------- ------ ------ ---- ---- ------- ----- -- ----<br>-------- ------- -- ---------- --- - --- ----- ----- ----<br>---- --- --- ----- --- ---- ---- ------- ----- ---- whether<br>--- --- -- ----- -- --- ---- -- --- ---- -- ------ ------<br>--- ----- -- ----,145864.5,145863.39999997616,145422.996,145439.89999997616,145447.974,145878.827,,38,whether
screen,html.Screen,2_1_0_1_39,2022-02-21T13:00:53.421Z,,,,,,,,,,,,,,,,,53,,,,,,,,,,,,,,369.77299990464235,,response,,,,99,,,,,,,Space,keypress(Space),,,,,,,,---- -- ----- -- ------ - ------- --- ----------<br>------------- ------ ------ ---- ---- ------- ----- -- ----<br>-------- ------- -- ---------- --- - --- ----- ----- ----<br>---- --- --- ----- --- ---- ---- ------- ----- ---- -------<br>you --- -- ----- -- --- ---- -- --- ---- -- ------ ------<br>--- ----- -- ----,146249.89999997616,146248.59999990463,145853.849,145866.29999995232,145878.827,146253.67,,39,you
screen,html.Screen,2_1_0_1_40,2022-02-21T13:00:53.806Z,,,,,,,,,,,,,,,,,53,,,,,,,,,,,,,,380.22999997614534,,response,,,,99,,,,,,,Space,keypress(Space),,,,,,,,---- -- ----- -- ------ - ------- --- ----------<br>------------- ------ ------ ---- ---- ------- ----- -- ----<br>-------- ------- -- ---------- --- - --- ----- ----- ----<br>---- --- --- ----- --- ---- ---- ------- ----- ---- -------<br>--- are -- ----- -- --- ---- -- --- ---- -- ------ ------<br>--- ----- -- ----,146635.09999990463,146633.89999997616,146228.692,146250.19999992847,146253.67,146658.646,,40,are
screen,html.Screen,2_1_0_1_41,2022-02-21T13:00:54.232Z,,,,,,,,,,,,,,,,,53,,,,,,,,,,,,,,401.7539999761502,,response,,,,99,,,,,,,Space,keypress(Space),,,,,,,,---- -- ----- -- ------ - ------- --- ----------<br>------------- ------ ------ ---- ---- ------- ----- -- ----<br>-------- ------- -- ---------- --- - --- ----- ----- ----<br>---- --- --- ----- --- ---- ---- ------- ----- ---- -------<br>--- --- as ----- -- --- ---- -- --- ---- -- ------ ------<br>--- ----- -- ----,147061.59999990463,147060.39999997616,146633.668,146635.39999997616,146658.646,147083.455,,41,as
screen,html.Screen,2_1_0_1_42,2022-02-21T13:00:54.646Z,,,,,,,,,,,,,,,,,53,,,,,,,,,,,,,,390.6449999046454,,response,,,,99,,,,,,,Space,keypress(Space),,,,,,,,---- -- ----- -- ------ - ------- --- ----------<br>------------- ------ ------ ---- ---- ------- ----- -- ----<br>-------- ------- -- ---------- --- - --- ----- ----- ----<br>---- --- --- ----- --- ---- ---- ------- ----- ---- -------<br>--- --- -- close -- --- ---- -- --- ---- -- ------ ------<br>--- ----- -- ----,147475.39999997616,147474.09999990463,147058.477,147061.79999995232,147083.455,147485.852,,42,close
screen,html.Screen,2_1_0_1_43,2022-02-21T13:00:55.023Z,,,,,,,,,,,,,,,,,53,,,,,,,,,,,,,,364.8479999284609,,response,,,,99,,,,,,,Space,keypress(Space),,,,,,,,---- -- ----- -- ------ - ------- --- ----------<br>------------- ------ ------ ---- ---- ------- ----- -- ----<br>-------- ------- -- ---------- --- - --- ----- ----- ----<br>---- --- --- ----- --- ---- ---- ------- ----- ---- -------<br>--- --- -- ----- as --- ---- -- --- ---- -- ------ ------<br>--- ----- -- ----,147851.89999997616,147850.69999992847,147460.874,147475.59999990463,147485.852,147866.071,,43,as
screen,html.Screen,2_1_0_1_44,2022-02-21T13:00:55.397Z,,,,,,,,,,,,,,,,,53,,,,,,,,,,,,,,358.62899992847815,,response,,,,99,,,,,,,Space,keypress(Space),,,,,,,,---- -- ----- -- ------ - ------- --- ----------<br>------------- ------ ------ ---- ---- ------- ----- -- ----<br>-------- ------- -- ---------- --- - --- ----- ----- ----<br>---- --- --- ----- --- ---- ---- ------- ----- ---- -------<br>--- --- -- ----- -- you ---- -- --- ---- -- ------ ------<br>--- ----- -- ----,148225.69999992847,148224.69999992847,147841.093,147852.19999992847,147866.071,148240.916,,44,you
screen,html.Screen,2_1_0_1_45,2022-02-21T13:00:55.822Z,,,,,,,,,,,,,,,,,53,,,,,,,,,,,,,,409.68399990463513,,response,,,,99,,,,,,,Space,keypress(Space),,,,,,,,---- -- ----- -- ------ - ------- --- ----------<br>------------- ------ ------ ---- ---- ------- ----- -- ----<br>-------- ------- -- ---------- --- - --- ----- ----- ----<br>---- --- --- ----- --- ---- ---- ------- ----- ---- -------<br>--- --- -- ----- -- --- want -- --- ---- -- ------ ------<br>--- ----- -- ----,148651.59999990463,148650.59999990463,148215.938,148226,148240.916,148670.553,,45,want
screen,html.Screen,2_1_0_1_46,2022-02-21T13:00:56.250Z,,,,,,,,,,,,,,,,,53,,,,,,,,,,,,,,406.94699999998556,,response,,,,99,,,,,,,Space,keypress(Space),,,,,,,,---- -- ----- -- ------ - ------- --- ----------<br>------------- ------ ------ ---- ---- ------- ----- -- ----<br>-------- ------- -- ---------- --- - --- ----- ----- ----<br>---- --- --- ----- --- ---- ---- ------- ----- ---- -------<br>--- --- -- ----- -- --- ---- to --- ---- -- ------ ------<br>--- ----- -- ----,149078.89999997616,149077.5,148645.575,148651.89999997616,148670.553,149098.101,,46,to
screen,html.Screen,2_1_0_1_47,2022-02-21T13:00:56.742Z,,,,,,,,,,,,,,,,,53,,,,,,,,,,,,,,471.29899997616303,,response,,,,99,,,,,,,Space,keypress(Space),,,,,,,,"---- -- ----- -- ------ - ------- --- ----------<br>------------- ------ ------ ---- ---- ------- ----- -- ----<br>-------- ------- -- ---------- --- - --- ----- ----- ----<br>---- --- --- ----- --- ---- ---- ------- ----- ---- -------<br>--- --- -- ----- -- --- ---- -- be, ---- -- ------ ------<br>--- ----- -- ----",149570.69999992847,149569.39999997616,149073.123,149079,149098.101,149575.627,,47,"be,"
screen,html.Screen,2_1_0_1_48,2022-02-21T13:00:57.185Z,,,,,,,,,,,,,,,,,53,,,,,,,,,,,,,,437.57299992846674,,response,,,,99,,,,,,,Space,keypress(Space),,,,,,,,---- -- ----- -- ------ - ------- --- ----------<br>------------- ------ ------ ---- ---- ------- ----- -- ----<br>-------- ------- -- ---------- --- - --- ----- ----- ----<br>---- --- --- ----- --- ---- ---- ------- ----- ---- -------<br>--- --- -- ----- -- --- ---- -- --- even -- ------ ------<br>--- ----- -- ----,150014,150013.19999992847,149550.649,149570.89999997616,149575.627,150028.689,,48,even
screen,html.Screen,2_1_0_1_49,2022-02-21T13:00:57.532Z,,,,,,,,,,,,,,,,,53,,,,,,,,,,,,,,330.91099990461953,,response,,,,99,,,,,,,Space,keypress(Space),,,,,,,,---- -- ----- -- ------ - ------- --- ----------<br>------------- ------ ------ ---- ---- ------- ----- -- ----<br>-------- ------- -- ---------- --- - --- ----- ----- ----<br>---- --- --- ----- --- ---- ---- ------- ----- ---- -------<br>--- --- -- ----- -- --- ---- -- --- ---- if ------ ------<br>--- ----- -- ----,150360.89999997616,150359.59999990463,150003.711,150014.19999992847,150028.689,150378.381,,49,if
screen,html.Screen,2_1_0_1_50,2022-02-21T13:00:57.889Z,,,,,,,,,,,,,,,,,53,,,,,,,,,,,,,,338.2189999046386,,response,,,,99,,,,,,,Space,keypress(Space),,,,,,,,---- -- ----- -- ------ - ------- --- ----------<br>------------- ------ ------ ---- ---- ------- ----- -- ----<br>-------- ------- -- ---------- --- - --- ----- ----- ----<br>---- --- --- ----- --- ---- ---- ------- ----- ---- -------<br>--- --- -- ----- -- --- ---- -- --- ---- -- that's ------<br>--- ----- -- ----,150718,150716.59999990463,150353.403,150361.09999990463,150378.381,150733.409,,50,that's
screen,html.Screen,2_1_0_1_51,2022-02-21T13:00:58.243Z,,,,,,,,,,,,,,,,,53,,,,,,,,,,,,,,337.99099997614394,,response,,,,99,,,,,,,Space,keypress(Space),,,,,,,,---- -- ----- -- ------ - ------- --- ----------<br>------------- ------ ------ ---- ---- ------- ----- -- ----<br>-------- ------- -- ---------- --- - --- ----- ----- ----<br>---- --- --- ----- --- ---- ---- ------- ----- ---- -------<br>--- --- -- ----- -- --- ---- -- --- ---- -- ------ really<br>--- ----- -- ----,151072.59999990463,151071.39999997616,150708.431,150718.29999995232,150733.409,151083.292,,51,really
screen,html.Screen,2_1_0_1_52,2022-02-21T13:00:58.698Z,,,,,,,,,,,,,,,,,53,,,,,,,,,,,,,,443.00799995232956,,response,,,,99,,,,,,,Space,keypress(Space),,,,,,,,---- -- ----- -- ------ - ------- --- ----------<br>------------- ------ ------ ---- ---- ------- ----- -- ----<br>-------- ------- -- ---------- --- - --- ----- ----- ----<br>---- --- --- ----- --- ---- ---- ------- ----- ---- -------<br>--- --- -- ----- -- --- ---- -- --- ---- -- ------ ------<br>not ----- -- ----,151527.5,151526.29999995232,151058.314,151072.79999995232,151083.292,151537.528,,52,not
screen,html.Screen,2_1_0_1_53,2022-02-21T13:00:59.133Z,,,,,,,,,,,,,,,,,53,,,,,,,,,,,,,,423.1719999284833,,response,,,,99,,,,,,,Space,keypress(Space),,,,,,,,---- -- ----- -- ------ - ------- --- ----------<br>------------- ------ ------ ---- ---- ------- ----- -- ----<br>-------- ------- -- ---------- --- - --- ----- ----- ----<br>---- --- --- ----- --- ---- ---- ------- ----- ---- -------<br>--- --- -- ----- -- --- ---- -- --- ---- -- ------ ------<br>--- close -- ----,151961.89999997616,151960.69999992847,151512.55,151527.79999995232,151537.528,151965.238,,53,close
screen,html.Screen,2_1_0_1_54,2022-02-21T13:00:59.577Z,,,,,,,,,,,,,,,,,53,,,,,,,,,,,,,,439.9619999284623,,response,,,,99,,,,,,,Space,keypress(Space),,,,,,,,---- -- ----- -- ------ - ------- --- ----------<br>------------- ------ ------ ---- ---- ------- ----- -- ----<br>-------- ------- -- ---------- --- - --- ----- ----- ----<br>---- --- --- ----- --- ---- ---- ------- ----- ---- -------<br>--- --- -- ----- -- --- ---- -- --- ---- -- ------ ------<br>--- ----- at ----,152406.09999990463,152405.19999992847,151940.26,151962.19999992847,151965.238,152415.079,,54,at
screen,html.Screen,2_1_0_1_55,2022-02-21T13:01:00.240Z,,,,,,,,,,,,,,,,,53,,,,,,,,,,,,,,652.6209999284765,,response,,,,99,,,,,,,Space,keypress(Space),,,,,,,,---- -- ----- -- ------ - ------- --- ----------<br>------------- ------ ------ ---- ---- ------- ----- -- ----<br>-------- ------- -- ---------- --- - --- ----- ----- ----<br>---- --- --- ----- --- ---- ---- ------- ----- ---- -------<br>--- --- -- ----- -- --- ---- -- --- ---- -- ------ ------<br>--- ----- -- all.,153069,153067.69999992847,152390.101,152406.19999992847,152415.079,153092.581,,55,all.
Item 99,flow.Loop,2_1_0_1,2022-02-21T13:01:00.240Z,,,,,,,,,,,,,,,,,,,,,,,,,,,,,,,25811.09499992848,,completion,,,,,C,,,,,,,,,,,silence,,,,,153069.59999990463,153067.69999992847,127231.627,127238.09999990463,127256.605,153092.581,,,
Question 1,html.Screen,2_1_0_2,2022-02-21T13:01:04.070Z,,,,,,,,,,,,,,,,,,,,,,,,,,,,true,FALSE,,3804.618999928469,,response,,,,99,C,,,,,,FALSE,click #choice-2,,,,silence,,,,,156898.79999995232,156897.19999992847,153067.603,153069.79999995232,153092.581,156918.893,,,
Question 2,html.Screen,2_1_0_3,2022-02-21T13:01:08.713Z,,,,,,,,,,,,,,,,,,,,,,,,,,,,true,TRUE,,4621.706999904622,,response,,,,99,C,,,,,,TRUE,click #choice-1,,,,silence,,,,,161542.19999992847,161540.59999990463,156893.915,156899.09999990463,156918.893,161546.952,,,
Item 99,flow.Sequence,2_1_0,2022-02-21T13:01:08.713Z,,,,,,,,,,,,,,,,,,,,,,,,,,,,,,,44283.72899990463,,completion,,,,,,,,,,,,,,,,,,,,,161542.5,161540.59999990463,117231.893,117236.79999995232,117256.871,161546.952,,,
Holding screen,html.Screen,2_1_1_0,2022-02-21T13:01:18.695Z,,,,,,,,,,,,,,,,,,,,,,,,,,,,,,,10000.195000000007,,timeout,,,,,,,,,,,,,,,,,,,,,171524.39999997616,171522.169,161521.974,161542.69999992847,161546.952,171547.147,,,
screen,html.Screen,2_1_1_1_0,2022-02-21T13:01:21.033Z,,,,,,,,,,,,,,,,,54,,,,,,,,,,,,,,2314.052999928477,,response,,,,100,,,,,,,Space,keypress(Space),,,,,,,,At --- ---- --- ------ ----- ------- ---- -- --- ------- --<br>------- ---------- ------ -- ----- -- ----- -- ---- ------<br>--- ----- --- --- ------ -------- ----- --- ------ ----- --<br>----- ----- ---------- --- --- ------ ------ ---- -- ------<br>------- --- ------ ----- --- ---- ------- -- ---- --- --<br>------- ------,173862.5,173861.19999992847,171522.169,171524.79999995232,171547.147,173877.003,,0,At
screen,html.Screen,2_1_1_1_1,2022-02-21T13:01:21.399Z,,,,,,,,,,,,,,,,,54,,,,,,,,,,,,,,349.89699997616117,,response,,,,100,,,,,,,Space,keypress(Space),,,,,,,,-- the ---- --- ------ ----- ------- ---- -- --- ------- --<br>------- ---------- ------ -- ----- -- ----- -- ---- ------<br>--- ----- --- --- ------ -------- ----- --- ------ ----- --<br>----- ----- ---------- --- --- ------ ------ ---- -- ------<br>------- --- ------ ----- --- ---- ------- -- ---- --- --<br>------- ------,174228.19999992847,174226.89999997616,173852.025,173862.79999995232,173877.003,174249.222,,1,the
screen,html.Screen,2_1_1_1_2,2022-02-21T13:01:21.646Z,,,,,,,,,,,,,,,,,54,,,,,,,,,,,,,,224.37799990462372,,response,,,,100,,,,,,,Space,keypress(Space),,,,,,,,-- --- time --- ------ ----- ------- ---- -- --- ------- --<br>------- ---------- ------ -- ----- -- ----- -- ---- ------<br>--- ----- --- --- ------ -------- ----- --- ------ ----- --<br>----- ----- ---------- --- --- ------ ------ ---- -- ------<br>------- --- ------ ----- --- ---- ------- -- ---- --- --<br>------- ------,174474.79999995232,174473.59999990463,174224.244,174228.5,174249.222,174476.527,,2,time
screen,html.Screen,2_1_1_1_3,2022-02-21T13:01:21.883Z,,,,,,,,,,,,,,,,,54,,,,,,,,,,,,,,234.77299995231442,,response,,,,100,,,,,,,Space,keypress(Space),,,,,,,,-- --- ---- the ------ ----- ------- ---- -- --- ------- --<br>------- ---------- ------ -- ----- -- ----- -- ---- ------<br>--- ----- --- --- ------ -------- ----- --- ------ ----- --<br>----- ----- ---------- --- --- ------ ------ ---- -- ------<br>------- --- ------ ----- --- ---- ------- -- ---- --- --<br>------- ------,174712.39999997616,174711.29999995232,174451.549,174474.89999997616,174476.527,174728.054,,3,the
screen,html.Screen,2_1_1_1_4,2022-02-21T13:01:22.091Z,,,,,,,,,,,,,,,,,54,,,,,,,,,,,,,,190.74599995231256,,response,,,,100,,,,,,,Space,keypress(Space),,,,,,,,-- --- ---- --- French ----- ------- ---- -- --- ------- --<br>------- ---------- ------ -- ----- -- ----- -- ---- ------<br>--- ----- --- --- ------ -------- ----- --- ------ ----- --<br>----- ----- ---------- --- --- ------ ------ ---- -- ------<br>------- --- ------ ----- --- ---- ------- -- ---- --- --<br>------- ------,174920,174918.79999995232,174703.076,174712.69999992847,174728.054,174929.411,,4,French
screen,html.Screen,2_1_1_1_5,2022-02-21T13:01:22.307Z,,,,,,,,,,,,,,,,,54,,,,,,,,,,,,,,206.08900000000722,,response,,,,100,,,,,,,Space,keypress(Space),,,,,,,,-- --- ---- --- ------ crown ------- ---- -- --- ------- --<br>------- ---------- ------ -- ----- -- ----- -- ---- ------<br>--- ----- --- --- ------ -------- ----- --- ------ ----- --<br>----- ----- ---------- --- --- ------ ------ ---- -- ------<br>------- --- ------ ----- --- ---- ------- -- ---- --- --<br>------- ------,175136.39999997616,175135.5,174904.433,174920.19999992847,174929.411,175155.55,,5,crown
screen,html.Screen,2_1_1_1_6,2022-02-21T13:01:22.605Z,,,,,,,,,,,,,,,,,54,,,,,,,,,,,,,,277.2499999523279,,response,,,,100,,,,,,,Space,keypress(Space),,,,,,,,-- --- ---- --- ------ ----- secured ---- -- --- ------- --<br>------- ---------- ------ -- ----- -- ----- -- ---- ------<br>--- ----- --- --- ------ -------- ----- --- ------ ----- --<br>----- ----- ---------- --- --- ------ ------ ---- -- ------<br>------- --- ------ ----- --- ---- ------- -- ---- --- --<br>------- ------,175433.89999997616,175432.79999995232,175130.572,175136.59999990463,175155.55,175456.906,,6,secured
screen,html.Screen,2_1_1_1_7,2022-02-21T13:01:23.603Z,,,,,,,,,,,,,,,,,54,,,,,,,,,,,,,,973.7939999284863,,response,,,,100,,,,,,,Space,keypress(Space),,,,,,,,-- --- ---- --- ------ ----- ------- much -- --- ------- --<br>------- ---------- ------ -- ----- -- ----- -- ---- ------<br>--- ----- --- --- ------ -------- ----- --- ------ ----- --<br>----- ----- ---------- --- --- ------ ------ ---- -- ------<br>------- --- ------ ----- --- ---- ------- -- ---- --- --<br>------- ------,176431.89999997616,176430.69999992847,175431.928,175434.19999992847,175456.906,176433.105,,7,much
screen,html.Screen,2_1_1_1_8,2022-02-21T13:01:23.969Z,,,,,,,,,,,,,,,,,54,,,,,,,,,,,,,,363.4949999046221,,response,,,,100,,,,,,,Space,keypress(Space),,,,,,,,-- --- ---- --- ------ ----- ------- ---- of --- ------- --<br>------- ---------- ------ -- ----- -- ----- -- ---- ------<br>--- ----- --- --- ------ -------- ----- --- ------ ----- --<br>----- ----- ---------- --- --- ------ ------ ---- -- ------<br>------- --- ------ ----- --- ---- ------- -- ---- --- --<br>------- ------,176797.79999995232,176796.59999990463,176408.127,176432.19999992847,176433.105,176807.949,,8,of
screen,html.Screen,2_1_1_1_9,2022-02-21T13:01:24.235Z,,,,,,,,,,,,,,,,,54,,,,,,,,,,,,,,255.35099995232304,,response,,,,100,,,,,,,Space,keypress(Space),,,,,,,,-- --- ---- --- ------ ----- ------- ---- -- its ------- --<br>------- ---------- ------ -- ----- -- ----- -- ---- ------<br>--- ----- --- --- ------ -------- ----- --- ------ ----- --<br>----- ----- ---------- --- --- ------ ------ ---- -- ------<br>------- --- ------ ----- --- ---- ------- -- ---- --- --<br>------- ------,177064.5,177063.29999995232,176782.971,176798,176807.949,177066.871,,9,its
screen,html.Screen,2_1_1_1_10,2022-02-21T13:01:24.482Z,,,,,,,,,,,,,,,,,54,,,,,,,,,,,,,,243.5289999761444,,response,,,,100,,,,,,,Space,keypress(Space),,,,,,,,-- --- ---- --- ------ ----- ------- ---- -- --- revenue --<br>------- ---------- ------ -- ----- -- ----- -- ---- ------<br>--- ----- --- --- ------ -------- ----- --- ------ ----- --<br>----- ----- ---------- --- --- ------ ------ ---- -- ------<br>------- --- ------ ----- --- ---- ------- -- ---- --- --<br>------- ------,177311.69999992847,177310.39999997616,177041.893,177064.79999995232,177066.871,177318.562,,10,revenue
screen,html.Screen,2_1_1_1_11,2022-02-21T13:01:24.807Z,,,,,,,,,,,,,,,,,54,,,,,,,,,,,,,,317.0379999046272,,response,,,,100,,,,,,,Space,keypress(Space),,,,,,,,-- --- ---- --- ------ ----- ------- ---- -- --- ------- by<br>------- ---------- ------ -- ----- -- ----- -- ---- ------<br>--- ----- --- --- ------ -------- ----- --- ------ ----- --<br>----- ----- ---------- --- --- ------ ------ ---- -- ------<br>------- --- ------ ----- --- ---- ------- -- ---- --- --<br>------- ------,177636.09999990463,177635.59999990463,177293.584,177311.89999997616,177318.562,177645.008,,11,by
screen,html.Screen,2_1_1_1_12,2022-02-21T13:01:25.224Z,,,,,,,,,,,,,,,,,54,,,,,,,,,,,,,,406.8919999761565,,response,,,,100,,,,,,,Space,keypress(Space),,,,,,,,-- --- ---- --- ------ ----- ------- ---- -- --- ------- --<br>issuing ---------- ------ -- ----- -- ----- -- ---- ------<br>--- ----- --- --- ------ -------- ----- --- ------ ----- --<br>----- ----- ---------- --- --- ------ ------ ---- -- ------<br>------- --- ------ ----- --- ---- ------- -- ---- --- --<br>------- ------,178053.09999990463,178051.89999997616,177620.03,177636.19999992847,177645.008,178069.81,,12,issuing
screen,html.Screen,2_1_1_1_13,2022-02-21T13:01:25.540Z,,,,,,,,,,,,,,,,,54,,,,,,,,,,,,,,298.1900000000023,,response,,,,100,,,,,,,Space,keypress(Space),,,,,,,,-- --- ---- --- ------ ----- ------- ---- -- --- ------- --<br>------- government ------ -- ----- -- ----- -- ---- ------<br>--- ----- --- --- ------ -------- ----- --- ------ ----- --<br>----- ----- ---------- --- --- ------ ------ ---- -- ------<br>------- --- ------ ----- --- ---- ------- -- ---- --- --<br>------- ------,178369.29999995232,178368,178044.832,178053.29999995232,178069.81,178374.366,,13,government
screen,html.Screen,2_1_1_1_14,2022-02-21T13:01:25.935Z,,,,,,,,,,,,,,,,,54,,,,,,,,,,,,,,389.03399997614906,,response,,,,100,,,,,,,Space,keypress(Space),,,,,,,,-- --- ---- --- ------ ----- ------- ---- -- --- ------- --<br>------- ---------- bonds. -- ----- -- ----- -- ---- ------<br>--- ----- --- --- ------ -------- ----- --- ------ ----- --<br>----- ----- ---------- --- --- ------ ------ ---- -- ------<br>------- --- ------ ----- --- ---- ------- -- ---- --- --<br>------- ------,178764.59999990463,178763.39999997616,178349.388,178369.5,178374.366,178776.273,,14,bonds.
screen,html.Screen,2_1_1_1_15,2022-02-21T13:01:26.963Z,,,,,,,,,,,,,,,,,54,,,,,,,,,,,,,,1014.8269999046461,,response,,,,100,,,,,,,Space,keypress(Space),,,,,,,,-- --- ---- --- ------ ----- ------- ---- -- --- ------- --<br>------- ---------- ------ In ----- -- ----- -- ---- ------<br>--- ----- --- --- ------ -------- ----- --- ------ ----- --<br>----- ----- ---------- --- --- ------ ------ ---- -- ------<br>------- --- ------ ----- --- ---- ------- -- ---- --- --<br>------- ------,179792.29999995232,179791.09999990463,178751.295,178764.79999995232,178776.273,179802.951,,15,In
screen,html.Screen,2_1_1_1_16,2022-02-21T13:01:29.106Z,,,,,,,,,,,,,,,,,54,,,,,,,,,,,,,,2131.8489999523154,,response,,,,100,,,,,,,Space,keypress(Space),,,,,,,,"-- --- ---- --- ------ ----- ------- ---- -- --- ------- --<br>------- ---------- ------ -- 1727, -- ----- -- ---- ------<br>--- ----- --- --- ------ -------- ----- --- ------ ----- --<br>----- ----- ---------- --- --- ------ ------ ---- -- ------<br>------- --- ------ ----- --- ---- ------- -- ---- --- --<br>------- ------",181935.5,181934.79999995232,179777.973,179792.39999997616,179802.951,181958.142,,16,"1727,"
screen,html.Screen,2_1_1_1_17,2022-02-21T13:01:29.614Z,,,,,,,,,,,,,,,,,54,,,,,,,,,,,,,,483.5579999284819,,response,,,,100,,,,,,,Space,keypress(Space),,,,,,,,-- --- ---- --- ------ ----- ------- ---- -- --- ------- --<br>------- ---------- ------ -- ----- in ----- -- ---- ------<br>--- ----- --- --- ------ -------- ----- --- ------ ----- --<br>----- ----- ---------- --- --- ------ ------ ---- -- ------<br>------- --- ------ ----- --- ---- ------- -- ---- --- --<br>------- ------,182442.69999992847,182441.69999992847,181933.164,181935.5,181958.142,182447.312,,17,in
screen,html.Screen,2_1_1_1_18,2022-02-21T13:01:30.065Z,,,,,,,,,,,,,,,,,54,,,,,,,,,,,,,,445.98799995231093,,response,,,,100,,,,,,,Space,keypress(Space),,,,,,,,-- --- ---- --- ------ ----- ------- ---- -- --- ------- --<br>------- ---------- ------ -- ----- -- order -- ---- ------<br>--- ----- --- --- ------ -------- ----- --- ------ ----- --<br>----- ----- ---------- --- --- ------ ------ ---- -- ------<br>------- --- ------ ----- --- ---- ------- -- ---- --- --<br>------- ------,182894.19999992847,182893.29999995232,182422.334,182443,182447.312,182900.645,,18,order
screen,html.Screen,2_1_1_1_19,2022-02-21T13:01:30.363Z,,,,,,,,,,,,,,,,,54,,,,,,,,,,,,,,290.7549999761686,,response,,,,100,,,,,,,Space,keypress(Space),,,,,,,,-- --- ---- --- ------ ----- ------- ---- -- --- ------- --<br>------- ---------- ------ -- ----- -- ----- to ---- ------<br>--- ----- --- --- ------ -------- ----- --- ------ ----- --<br>----- ----- ---------- --- --- ------ ------ ---- -- ------<br>------- --- ------ ----- --- ---- ------- -- ---- --- --<br>------- ------,183192.59999990463,183191.39999997616,182875.667,182894.29999995232,182900.645,183203.295,,19,to
screen,html.Screen,2_1_1_1_20,2022-02-21T13:01:30.602Z,,,,,,,,,,,,,,,,,54,,,,,,,,,,,,,,226.40499992846162,,response,,,,100,,,,,,,Space,keypress(Space),,,,,,,,-- --- ---- --- ------ ----- ------- ---- -- --- ------- --<br>------- ---------- ------ -- ----- -- ----- -- save ------<br>--- ----- --- --- ------ -------- ----- --- ------ ----- --<br>----- ----- ---------- --- --- ------ ------ ---- -- ------<br>------- --- ------ ----- --- ---- ------- -- ---- --- --<br>------- ------,183430.79999995232,183429.69999992847,183178.317,183192.79999995232,183203.295,183455.12,,20,save
screen,html.Screen,2_1_1_1_21,2022-02-21T13:01:31.026Z,,,,,,,,,,,,,,,,,54,,,,,,,,,,,,,,398.4799999046372,,response,,,,100,,,,,,,Space,keypress(Space),,,,,,,,"-- --- ---- --- ------ ----- ------- ---- -- --- ------- --<br>------- ---------- ------ -- ----- -- ----- -- ---- money,<br>--- ----- --- --- ------ -------- ----- --- ------ ----- --<br>----- ----- ---------- --- --- ------ ------ ---- -- ------<br>------- --- ------ ----- --- ---- ------- -- ---- --- --<br>------- ------",183854.89999997616,183853.59999990463,183430.142,183431,183455.12,183856.542,,21,"money,"
screen,html.Screen,2_1_1_1_22,2022-02-21T13:01:31.499Z,,,,,,,,,,,,,,,,,54,,,,,,,,,,,,,,471.3579999761714,,response,,,,100,,,,,,,Space,keypress(Space),,,,,,,,-- --- ---- --- ------ ----- ------- ---- -- --- ------- --<br>------- ---------- ------ -- ----- -- ----- -- ---- ------<br>the ----- --- --- ------ -------- ----- --- ------ ----- --<br>----- ----- ---------- --- --- ------ ------ ---- -- ------<br>------- --- ------ ----- --- ---- ------- -- ---- --- --<br>------- ------,184329.09999990463,184327.89999997616,183831.564,183855.09999990463,183856.542,184334.05,,22,the
screen,html.Screen,2_1_1_1_23,2022-02-21T13:01:31.776Z,,,,,,,,,,,,,,,,,54,,,,,,,,,,,,,,270.64999992848607,,response,,,,100,,,,,,,Space,keypress(Space),,,,,,,,-- --- ---- --- ------ ----- ------- ---- -- --- ------- --<br>------- ---------- ------ -- ----- -- ----- -- ---- ------<br>--- state --- --- ------ -------- ----- --- ------ ----- --<br>----- ----- ---------- --- --- ------ ------ ---- -- ------<br>------- --- ------ ----- --- ---- ------- -- ---- --- --<br>------- ------,184605.79999995232,184604.69999992847,184309.072,184329.29999995232,184334.05,184612.101,,23,state
screen,html.Screen,2_1_1_1_24,2022-02-21T13:01:32.072Z,,,,,,,,,,,,,,,,,54,,,,,,,,,,,,,,288.6989999523212,,response,,,,100,,,,,,,Space,keypress(Space),,,,,,,,-- --- ---- --- ------ ----- ------- ---- -- --- ------- --<br>------- ---------- ------ -- ----- -- ----- -- ---- ------<br>--- ----- cut --- ------ -------- ----- --- ------ ----- --<br>----- ----- ---------- --- --- ------ ------ ---- -- ------<br>------- --- ------ ----- --- ---- ------- -- ---- --- --<br>------- ------,184902.09999990463,184900.79999995232,184587.123,184606.09999990463,184612.101,184913.724,,24,cut
screen,html.Screen,2_1_1_1_25,2022-02-21T13:01:32.488Z,,,,,,,,,,,,,,,,,54,,,,,,,,,,,,,,402.6759999761707,,response,,,,100,,,,,,,Space,keypress(Space),,,,,,,,-- --- ---- --- ------ ----- ------- ---- -- --- ------- --<br>------- ---------- ------ -- ----- -- ----- -- ---- ------<br>--- ----- --- the ------ -------- ----- --- ------ ----- --<br>----- ----- ---------- --- --- ------ ------ ---- -- ------<br>------- --- ------ ----- --- ---- ------- -- ---- --- --<br>------- ------,185317.59999990463,185316.39999997616,184888.746,184902.39999997616,184913.724,185340.151,,25,the
screen,html.Screen,2_1_1_1_26,2022-02-21T13:01:32.755Z,,,,,,,,,,,,,,,,,54,,,,,,,,,,,,,,243.24899997614557,,response,,,,100,,,,,,,Space,keypress(Space),,,,,,,,-- --- ---- --- ------ ----- ------- ---- -- --- ------- --<br>------- ---------- ------ -- ----- -- ----- -- ---- ------<br>--- ----- --- --- bonds' -------- ----- --- ------ ----- --<br>----- ----- ---------- --- --- ------ ------ ---- -- ------<br>------- --- ------ ----- --- ---- ------- -- ---- --- --<br>------- ------,185584.59999990463,185583.39999997616,185315.173,185317.79999995232,185340.151,185590.107,,26,bonds'
screen,html.Screen,2_1_1_1_27,2022-02-21T13:01:33.073Z,,,,,,,,,,,,,,,,,54,,,,,,,,,,,,,,311.1929999523272,,response,,,,100,,,,,,,Space,keypress(Space),,,,,,,,-- --- ---- --- ------ ----- ------- ---- -- --- ------- --<br>------- ---------- ------ -- ----- -- ----- -- ---- ------<br>--- ----- --- --- ------ interest ----- --- ------ ----- --<br>----- ----- ---------- --- --- ------ ------ ---- -- ------<br>------- --- ------ ----- --- ---- ------- -- ---- --- --<br>------- ------,185902.5,185901.29999995232,185565.129,185584.79999995232,185590.107,185917.842,,27,interest
screen,html.Screen,2_1_1_1_28,2022-02-21T13:01:34.099Z,,,,,,,,,,,,,,,,,54,,,,,,,,,,,,,,1009.557999976154,,response,,,,100,,,,,,,Space,keypress(Space),,,,,,,,-- --- ---- --- ------ ----- ------- ---- -- --- ------- --<br>------- ---------- ------ -- ----- -- ----- -- ---- ------<br>--- ----- --- --- ------ -------- rate. --- ------ ----- --<br>----- ----- ---------- --- --- ------ ------ ---- -- ------<br>------- --- ------ ----- --- ---- ------- -- ---- --- --<br>------- ------,186928.59999990463,186927.39999997616,185892.864,185902.69999992847,185917.842,186945.738,,28,rate.
screen,html.Screen,2_1_1_1_29,2022-02-21T13:01:34.633Z,,,,,,,,,,,,,,,,,54,,,,,,,,,,,,,,515.661999976146,,response,,,,100,,,,,,,Space,keypress(Space),,,,,,,,-- --- ---- --- ------ ----- ------- ---- -- --- ------- --<br>------- ---------- ------ -- ----- -- ----- -- ---- ------<br>--- ----- --- --- ------ -------- ----- The ------ ----- --<br>----- ----- ---------- --- --- ------ ------ ---- -- ------<br>------- --- ------ ----- --- ---- ------- -- ---- --- --<br>------- ------,187462.69999992847,187461.39999997616,186920.76,186928.89999997616,186945.738,187470.352,,29,The
screen,html.Screen,2_1_1_1_30,2022-02-21T13:01:35.087Z,,,,,,,,,,,,,,,,,54,,,,,,,,,,,,,,445.4479999523028,,response,,,,100,,,,,,,Space,keypress(Space),,,,,,,,-- --- ---- --- ------ ----- ------- ---- -- --- ------- --<br>------- ---------- ------ -- ----- -- ----- -- ---- ------<br>--- ----- --- --- ------ -------- ----- --- market ----- --<br>----- ----- ---------- --- --- ------ ------ ---- -- ------<br>------- --- ------ ----- --- ---- ------- -- ---- --- --<br>------- ------,187917,187915.79999995232,187445.374,187463,187470.352,187927.16,,30,market
screen,html.Screen,2_1_1_1_31,2022-02-21T13:01:35.453Z,,,,,,,,,,,,,,,,,54,,,,,,,,,,,,,,354.3399999999965,,response,,,,100,,,,,,,Space,keypress(Space),,,,,,,,-- --- ---- --- ------ ----- ------- ---- -- --- ------- --<br>------- ---------- ------ -- ----- -- ----- -- ---- ------<br>--- ----- --- --- ------ -------- ----- --- ------ value --<br>----- ----- ---------- --- --- ------ ------ ---- -- ------<br>------- --- ------ ----- --- ---- ------- -- ---- --- --<br>------- ------,188282.69999992847,188281.5,187902.182,187917.29999995232,187927.16,188308.382,,31,value
screen,html.Screen,2_1_1_1_32,2022-02-21T13:01:35.781Z,,,,,,,,,,,,,,,,,54,,,,,,,,,,,,,,301.61799999998766,,response,,,,100,,,,,,,Space,keypress(Space),,,,,,,,-- --- ---- --- ------ ----- ------- ---- -- --- ------- --<br>------- ---------- ------ -- ----- -- ----- -- ---- ------<br>--- ----- --- --- ------ -------- ----- --- ------ ----- of<br>----- ----- ---------- --- --- ------ ------ ---- -- ------<br>------- --- ------ ----- --- ---- ------- -- ---- --- --<br>------- ------,188611.29999995232,188610,188283.404,188282.89999997616,188308.382,188635.688,,32,of
screen,html.Screen,2_1_1_1_33,2022-02-21T13:01:36.163Z,,,,,,,,,,,,,,,,,54,,,,,,,,,,,,,,356.31200000000536,,response,,,,100,,,,,,,Space,keypress(Space),,,,,,,,-- --- ---- --- ------ ----- ------- ---- -- --- ------- --<br>------- ---------- ------ -- ----- -- ----- -- ---- ------<br>--- ----- --- --- ------ -------- ----- --- ------ ----- --<br>these ----- ---------- --- --- ------ ------ ---- -- ------<br>------- --- ------ ----- --- ---- ------- -- ---- --- --<br>------- ------,188992.5,188992,188610.71,188611.59999990463,188635.688,189012.489,,33,these
screen,html.Screen,2_1_1_1_34,2022-02-21T13:01:36.380Z,,,,,,,,,,,,,,,,,54,,,,,,,,,,,,,,196.91099997615675,,response,,,,100,,,,,,,Space,keypress(Space),,,,,,,,-- --- ---- --- ------ ----- ------- ---- -- --- ------- --<br>------- ---------- ------ -- ----- -- ----- -- ---- ------<br>--- ----- --- --- ------ -------- ----- --- ------ ----- --<br>----- bonds ---------- --- --- ------ ------ ---- -- ------<br>------- --- ------ ----- --- ---- ------- -- ---- --- --<br>------- ------,189210.09999990463,189209.39999997616,188987.511,188992.5,189012.489,189212.506,,34,bonds
screen,html.Screen,2_1_1_1_35,2022-02-21T13:01:37.015Z,,,,,,,,,,,,,,,,,54,,,,,,,,,,,,,,630.8939999761642,,response,,,,100,,,,,,,Space,keypress(Space),,,,,,,,"-- --- ---- --- ------ ----- ------- ---- -- --- ------- --<br>------- ---------- ------ -- ----- -- ----- -- ---- ------<br>--- ----- --- --- ------ -------- ----- --- ------ ----- --<br>----- ----- plummeted, --- --- ------ ------ ---- -- ------<br>------- --- ------ ----- --- ---- ------- -- ---- --- --<br>------- ------",189844.59999990463,189843.39999997616,189187.528,189210.19999992847,189212.506,189865.731,,35,"plummeted,"
screen,html.Screen,2_1_1_1_36,2022-02-21T13:01:37.667Z,,,,,,,,,,,,,,,,,54,,,,,,,,,,,,,,629.5689999523165,,response,,,,100,,,,,,,Space,keypress(Space),,,,,,,,-- --- ---- --- ------ ----- ------- ---- -- --- ------- --<br>------- ---------- ------ -- ----- -- ----- -- ---- ------<br>--- ----- --- --- ------ -------- ----- --- ------ ----- --<br>----- ----- ---------- and --- ------ ------ ---- -- ------<br>------- --- ------ ----- --- ---- ------- -- ---- --- --<br>------- ------,190496.5,190495.29999995232,189840.753,189844.89999997616,189865.731,190515.435,,36,and
screen,html.Screen,2_1_1_1_37,2022-02-21T13:01:38.111Z,,,,,,,,,,,,,,,,,54,,,,,,,,,,,,,,424.6649999046349,,response,,,,100,,,,,,,Space,keypress(Space),,,,,,,,-- --- ---- --- ------ ----- ------- ---- -- --- ------- --<br>------- ---------- ------ -- ----- -- ----- -- ---- ------<br>--- ----- --- --- ------ -------- ----- --- ------ ----- --<br>----- ----- ---------- --- the ------ ------ ---- -- ------<br>------- --- ------ ----- --- ---- ------- -- ---- --- --<br>------- ------,190940.69999992847,190940.09999990463,190490.457,190496.69999992847,190515.435,190944.47,,37,the
screen,html.Screen,2_1_1_1_38,2022-02-21T13:01:38.555Z,,,,,,,,,,,,,,,,,54,,,,,,,,,,,,,,439.72999992847326,,response,,,,100,,,,,,,Space,keypress(Space),,,,,,,,-- --- ---- --- ------ ----- ------- ---- -- --- ------- --<br>------- ---------- ------ -- ----- -- ----- -- ---- ------<br>--- ----- --- --- ------ -------- ----- --- ------ ----- --<br>----- ----- ---------- --- --- market ------ ---- -- ------<br>------- --- ------ ----- --- ---- ------- -- ---- --- --<br>------- ------,191384.79999995232,191384.19999992847,190919.492,190940.79999995232,190944.47,191401.322,,38,market
screen,html.Screen,2_1_1_1_39,2022-02-21T13:01:38.912Z,,,,,,,,,,,,,,,,,54,,,,,,,,,,,,,,339.37799992848886,,response,,,,100,,,,,,,Space,keypress(Space),,,,,,,,-- --- ---- --- ------ ----- ------- ---- -- --- ------- --<br>------- ---------- ------ -- ----- -- ----- -- ---- ------<br>--- ----- --- --- ------ -------- ----- --- ------ ----- --<br>----- ----- ---------- --- --- ------ became ---- -- ------<br>------- --- ------ ----- --- ---- ------- -- ---- --- --<br>------- ------,191741.89999997616,191740.69999992847,191376.344,191384.89999997616,191401.322,191754.207,,39,became
screen,html.Screen,2_1_1_1_40,2022-02-21T13:01:39.299Z,,,,,,,,,,,,,,,,,54,,,,,,,,,,,,,,372.8929999046377,,response,,,,100,,,,,,,Space,keypress(Space),,,,,,,,-- --- ---- --- ------ ----- ------- ---- -- --- ------- --<br>------- ---------- ------ -- ----- -- ----- -- ---- ------<br>--- ----- --- --- ------ -------- ----- --- ------ ----- --<br>----- ----- ---------- --- --- ------ ------ wary -- ------<br>------- --- ------ ----- --- ---- ------- -- ---- --- --<br>------- ------,192128.5,192127.09999990463,191729.229,191742.19999992847,191754.207,192154.016,,40,wary
screen,html.Screen,2_1_1_1_41,2022-02-21T13:01:39.703Z,,,,,,,,,,,,,,,,,54,,,,,,,,,,,,,,377.5839999046293,,response,,,,100,,,,,,,Space,keypress(Space),,,,,,,,-- --- ---- --- ------ ----- ------- ---- -- --- ------- --<br>------- ---------- ------ -- ----- -- ----- -- ---- ------<br>--- ----- --- --- ------ -------- ----- --- ------ ----- --<br>----- ----- ---------- --- --- ------ ------ ---- of ------<br>------- --- ------ ----- --- ---- ------- -- ---- --- --<br>------- ------,192532.59999990463,192531.59999990463,192129.038,192128.69999992847,192154.016,192533.697,,41,of
screen,html.Screen,2_1_1_1_42,2022-02-21T13:01:40.177Z,,,,,,,,,,,,,,,,,54,,,,,,,,,,,,,,471.80300000001444,,response,,,,100,,,,,,,Space,keypress(Space),,,,,,,,-- --- ---- --- ------ ----- ------- ---- -- --- ------- --<br>------- ---------- ------ -- ----- -- ----- -- ---- ------<br>--- ----- --- --- ------ -------- ----- --- ------ ----- --<br>----- ----- ---------- --- --- ------ ------ ---- -- French<br>------- --- ------ ----- --- ---- ------- -- ---- --- --<br>------- ------,193006.69999992847,193005.5,192508.719,192532.79999995232,192533.697,193008.451,,42,French
screen,html.Screen,2_1_1_1_43,2022-02-21T13:01:40.980Z,,,,,,,,,,,,,,,,,54,,,,,,,,,,,,,,799.9489999761572,,response,,,,100,,,,,,,Space,keypress(Space),,,,,,,,-- --- ---- --- ------ ----- ------- ---- -- --- ------- --<br>------- ---------- ------ -- ----- -- ----- -- ---- ------<br>--- ----- --- --- ------ -------- ----- --- ------ ----- --<br>----- ----- ---------- --- --- ------ ------ ---- -- ------<br>credit. --- ------ ----- --- ---- ------- -- ---- --- --<br>------- ------,193809.5,193808.39999997616,192983.473,193006.89999997616,193008.451,193813.62,,43,credit.
screen,html.Screen,2_1_1_1_44,2022-02-21T13:01:41.995Z,,,,,,,,,,,,,,,,,54,,,,,,,,,,,,,,1010.2799999761628,,response,,,,100,,,,,,,Space,keypress(Space),,,,,,,,-- --- ---- --- ------ ----- ------- ---- -- --- ------- --<br>------- ---------- ------ -- ----- -- ----- -- ---- ------<br>--- ----- --- --- ------ -------- ----- --- ------ ----- --<br>----- ----- ---------- --- --- ------ ------ ---- -- ------<br>------- The ------ ----- --- ---- ------- -- ---- --- --<br>------- ------,194825.19999992847,194823.89999997616,193788.642,193809.69999992847,193813.62,194843.25,,44,The
screen,html.Screen,2_1_1_1_45,2022-02-21T13:01:42.390Z,,,,,,,,,,,,,,,,,54,,,,,,,,,,,,,,375.84999990463257,,response,,,,100,,,,,,,Space,keypress(Space),,,,,,,,-- --- ---- --- ------ ----- ------- ---- -- --- ------- --<br>------- ---------- ------ -- ----- -- ----- -- ---- ------<br>--- ----- --- --- ------ -------- ----- --- ------ ----- --<br>----- ----- ---------- --- --- ------ ------ ---- -- ------<br>------- --- French ----- --- ---- ------- -- ---- --- --<br>------- ------,195220.29999995232,195219.09999990463,194818.272,194825.39999997616,194843.25,195243.055,,45,French
screen,html.Screen,2_1_1_1_46,2022-02-21T13:01:42.825Z,,,,,,,,,,,,,,,,,54,,,,,,,,,,,,,,410.945000000007,,response,,,,100,,,,,,,Space,keypress(Space),,,,,,,,-- --- ---- --- ------ ----- ------- ---- -- --- ------- --<br>------- ---------- ------ -- ----- -- ----- -- ---- ------<br>--- ----- --- --- ------ -------- ----- --- ------ ----- --<br>----- ----- ---------- --- --- ------ ------ ---- -- ------<br>------- --- ------ state --- ---- ------- -- ---- --- --<br>------- ------,195655.19999992847,195654,195218.077,195220.5,195243.055,195677.202,,46,state
screen,html.Screen,2_1_1_1_47,2022-02-21T13:01:43.201Z,,,,,,,,,,,,,,,,,54,,,,,,,,,,,,,,352.2980000000098,,response,,,,100,,,,,,,Space,keypress(Space),,,,,,,,-- --- ---- --- ------ ----- ------- ---- -- --- ------- --<br>------- ---------- ------ -- ----- -- ----- -- ---- ------<br>--- ----- --- --- ------ -------- ----- --- ------ ----- --<br>----- ----- ---------- --- --- ------ ------ ---- -- ------<br>------- --- ------ ----- was ---- ------- -- ---- --- --<br>------- ------,196030.79999995232,196029.5,195652.224,195655.5,195677.202,196054.795,,47,was
screen,html.Screen,2_1_1_1_48,2022-02-21T13:01:43.586Z,,,,,,,,,,,,,,,,,54,,,,,,,,,,,,,,360.2049999999872,,response,,,,100,,,,,,,Space,keypress(Space),,,,,,,,-- --- ---- --- ------ ----- ------- ---- -- --- ------- --<br>------- ---------- ------ -- ----- -- ----- -- ---- ------<br>--- ----- --- --- ------ -------- ----- --- ------ ----- --<br>----- ----- ---------- --- --- ------ ------ ---- -- ------<br>------- --- ------ ----- --- left ------- -- ---- --- --<br>------- ------,196416.29999995232,196415,196029.817,196031,196054.795,196432.053,,48,left
screen,html.Screen,2_1_1_1_49,2022-02-21T13:01:44.021Z,,,,,,,,,,,,,,,,,54,,,,,,,,,,,,,,418.04699990461813,,response,,,,100,,,,,,,Space,keypress(Space),,,,,,,,-- --- ---- --- ------ ----- ------- ---- -- --- ------- --<br>------- ---------- ------ -- ----- -- ----- -- ---- ------<br>--- ----- --- --- ------ -------- ----- --- ------ ----- --<br>----- ----- ---------- --- --- ------ ------ ---- -- ------<br>------- --- ------ ----- --- ---- without -- ---- --- --<br>------- ------,196851.29999995232,196850.09999990463,196407.075,196416.59999990463,196432.053,196856.842,,49,without
screen,html.Screen,2_1_1_1_50,2022-02-21T13:01:44.407Z,,,,,,,,,,,,,,,,,54,,,,,,,,,,,,,,378.6579999999958,,response,,,,100,,,,,,,Space,keypress(Space),,,,,,,,-- --- ---- --- ------ ----- ------- ---- -- --- ------- --<br>------- ---------- ------ -- ----- -- ----- -- ---- ------<br>--- ----- --- --- ------ -------- ----- --- ------ ----- --<br>----- ----- ---------- --- --- ------ ------ ---- -- ------<br>------- --- ------ ----- --- ---- ------- an ---- --- --<br>------- ------,197236.69999992847,197235.5,196831.864,196851.5,196856.842,197261.85,,50,an
screen,html.Screen,2_1_1_1_51,2022-02-21T13:01:44.781Z,,,,,,,,,,,,,,,,,54,,,,,,,,,,,,,,348.3499999284686,,response,,,,100,,,,,,,Space,keypress(Space),,,,,,,,-- --- ---- --- ------ ----- ------- ---- -- --- ------- --<br>------- ---------- ------ -- ----- -- ----- -- ---- ------<br>--- ----- --- --- ------ -------- ----- --- ------ ----- --<br>----- ----- ---------- --- --- ------ ------ ---- -- ------<br>------- --- ------ ----- --- ---- ------- -- easy --- --<br>------- ------,197610.89999997616,197610.19999992847,197236.872,197236.89999997616,197261.85,197611.72,,51,easy
screen,html.Screen,2_1_1_1_52,2022-02-21T13:01:45.107Z,,,,,,,,,,,,,,,,,54,,,,,,,,,,,,,,324.47999992847326,,response,,,,100,,,,,,,Space,keypress(Space),,,,,,,,-- --- ---- --- ------ ----- ------- ---- -- --- ------- --<br>------- ---------- ------ -- ----- -- ----- -- ---- ------<br>--- ----- --- --- ------ -------- ----- --- ------ ----- --<br>----- ----- ---------- --- --- ------ ------ ---- -- ------<br>------- --- ------ ----- --- ---- ------- -- ---- way --<br>------- ------,197936.79999995232,197936.19999992847,197586.742,197611.09999990463,197611.72,197941.619,,52,way
screen,html.Screen,2_1_1_1_53,2022-02-21T13:01:45.633Z,,,,,,,,,,,,,,,,,54,,,,,,,,,,,,,,519.6809999523102,,response,,,,100,,,,,,,Space,keypress(Space),,,,,,,,-- --- ---- --- ------ ----- ------- ---- -- --- ------- --<br>------- ---------- ------ -- ----- -- ----- -- ---- ------<br>--- ----- --- --- ------ -------- ----- --- ------ ----- --<br>----- ----- ---------- --- --- ------ ------ ---- -- ------<br>------- --- ------ ----- --- ---- ------- -- ---- --- of<br>------- ------,198462.5,198461.29999995232,197916.641,197936.89999997616,197941.619,198468.171,,53,of
screen,html.Screen,2_1_1_1_54,2022-02-21T13:01:46.019Z,,,,,,,,,,,,,,,,,54,,,,,,,,,,,,,,379.52899992847233,,response,,,,100,,,,,,,Space,keypress(Space),,,,,,,,-- --- ---- --- ------ ----- ------- ---- -- --- ------- --<br>------- ---------- ------ -- ----- -- ----- -- ---- ------<br>--- ----- --- --- ------ -------- ----- --- ------ ----- --<br>----- ----- ---------- --- --- ------ ------ ---- -- ------<br>------- --- ------ ----- --- ---- ------- -- ---- --- --<br>raising ------,198848.79999995232,198847.69999992847,198443.193,198462.79999995232,198468.171,198868.003,,54,raising
screen,html.Screen,2_1_1_1_55,2022-02-21T13:01:46.985Z,,,,,,,,,,,,,,,,,54,,,,,,,,,,,,,,946.497000000003,,response,,,,100,,,,,,,Space,keypress(Space),,,,,,,,-- --- ---- --- ------ ----- ------- ---- -- --- ------- --<br>------- ---------- ------ -- ----- -- ----- -- ---- ------<br>--- ----- --- --- ------ -------- ----- --- ------ ----- --<br>----- ----- ---------- --- --- ------ ------ ---- -- ------<br>------- --- ------ ----- --- ---- ------- -- ---- --- --<br>------- money.,199815.19999992847,199814.5,198843.025,198848.89999997616,198868.003,199820.917,,55,money.
Item 100,flow.Loop,2_1_1_1,2022-02-21T13:01:46.986Z,,,,,,,,,,,,,,,,,,,,,,,,,,,,,,,28267.353000000003,,completion,,,,,C,,,,,,,,,,,silence,,,,,199815.5,199814.5,171522.169,171524.59999990463,171547.147,199820.917,,,
Question 1,html.Screen,2_1_1_2,2022-02-21T13:01:49.824Z,,,,,,,,,,,,,,,,,,,,,,,,,,,,true,TRUE,,2831.8829999523296,,response,,,,100,C,,,,,,TRUE,click #choice-1,,,,silence,,,,,202654.09999990463,202652.79999995232,199795.939,199815.59999990463,199820.917,202659.592,,,
Question 2,html.Screen,2_1_1_3,2022-02-21T13:01:52.275Z,,,,,,,,,,,,,,,,,,,,,,,,,,,,true,FALSE,,2444.307999976154,,response,,,,100,C,,,,,,FALSE,click #choice-2,,,,silence,,,,,205105.29999995232,205103.89999997616,202634.614,202654.29999995232,202659.592,205108.667,,,
Item 100,flow.Sequence,2_1_1,2022-02-21T13:01:52.276Z,,,,,,,,,,,,,,,,,,,,,,,,,,,,,,,43556.94799997617,,completion,,,,,,,,,,,,,,,,,,,,,205105.5,205103.89999997616,161521.974,161542.59999990463,161546.952,205108.667,,,
End of Practice,html.Page,2_1_2,2022-02-21T13:01:57.015Z,,,,,,,,,,,,,,,,,,,,,,,,,,,,,,,4735.432999904646,,form submission,,,,,,,,,,,,,,,,,,,,,209844.5,209844.09999990463,205083.689,205105.69999992847,205108.667,209861.427,,,
Practice,flow.Sequence,2_1,2022-02-21T13:01:57.015Z,,,,,,,,,,,,,,,,,,,,,,,,,,,,,,,92587.22899990463,,completion,,,,,,,,,,,,,,,,,,,,,209845,209844.09999990463,117231.893,117236.79999995232,117256.871,209861.427,,,
Trap_instruction,html.Page,2_2_0,2022-02-21T13:02:02.623Z,,,,,,,,,,,,,,,,,,,,,,,,,,,,,,,5591.1729999046365,,form submission,,,,,,,,,,,,,,,,,,,,,215453,215452.59999990463,209836.449,209845.09999990463,209861.427,215469.307,,,
trap_trial,html.Screen,2_2_1,2022-02-21T13:02:05.788Z,,,,,,,,,,,,,,,,,,,,,,,,,,,,true,1,,3147.3929999284737,,response,,,,,,,,,,,1,click #choice-1,,,,,,,,,218617.89999997616,218616.69999992847,215444.329,215453,215469.307,218623.246,,,
end of trap trial,html.Page,2_2_2,2022-02-21T13:02:08.321Z,,,,,,,,,,,,,,,,,,,,,,,,,,,,,,,2527.2539999999863,,form submission,,,,,,,,,,,,,,,,,,,,,221150.89999997616,221150.5,218598.268,218618.09999990463,218623.246,221177.88,,,
Trap 1,flow.Sequence,2_2,2022-02-21T13:02:08.321Z,,,,,,,,,,,,,,,,,,,,,,,,,,,,,,,11289.073000000004,,completion,,,,,,,,,,,,,,,,,,,,,221151,221150.5,209836.449,209845.09999990463,209861.427,221177.88,,,
Standby,html.Page,2_3_0,2022-02-21T13:02:16.326Z,,,,,,,,,,,,,,,,,,,,,,,,,,,,,,,7997.991000000009,,timeout,,,,,,,,,,,,,,,,,,,,,229156.09999990463,229150.893,221152.902,221151.19999992847,221177.88,229175.871,,,
Holding screen,html.Screen,2_3_1_0_0,2022-02-21T13:02:23.340Z,,,,,,,,,,,,,,,,,,,,,,,,,,,,,,,7008.360999999975,,timeout,,,,,,,,,,,,,,,,,,,,,236169.79999995232,236159.254,229150.893,229156.39999997616,229175.871,236184.232,,,
screen,html.Screen,2_3_1_0_1_0,2022-02-21T13:02:24.217Z,,,,,,,,,,,,,,,,,11,,,,,,,,,,,,,,861.7680000000109,,response,,,,4,C,,,,,,Space,keypress(Space),,,,instrumental,,,,Known -- ---- --- -- --- -------- ------------ ---------- --<br>- ------- ------ --------- -- ------------ -- --- ---- -----<br>------ ---- ---- ------ ------ ------- --- ----- ---------<br>---- --- -------- -------- --- --- -- ------- --- --- -----<br>-- --- ------ ------- --- --- -------- ---- --------- --<br>---------- -- -------- ----------------,237047.19999992847,237046,236159.254,236170,236184.232,237065.383,,0,Known
screen,html.Screen,2_3_1_0_1_1,2022-02-21T13:02:24.580Z,,,,,,,,,,,,,,,,,11,,,,,,,,,,,,,,343.0169999761565,,response,,,,4,C,,,,,,Space,keypress(Space),,,,instrumental,,,,----- as ---- --- -- --- -------- ------------ ---------- --<br>- ------- ------ --------- -- ------------ -- --- ---- -----<br>------ ---- ---- ------ ------ ------- --- ----- ---------<br>---- --- -------- -------- --- --- -- ------- --- --- -----<br>-- --- ------ ------- --- --- -------- ---- --------- --<br>---------- -- -------- ----------------,237409.59999990463,237408.39999997616,237040.405,237047.5,237065.383,237421.975,,1,as
screen,html.Screen,2_3_1_0_1_2,2022-02-21T13:02:24.903Z,,,,,,,,,,,,,,,,,11,,,,,,,,,,,,,,310.62499990462675,,response,,,,4,C,,,,,,Space,keypress(Space),,,,instrumental,,,,----- -- Rapa --- -- --- -------- ------------ ---------- --<br>- ------- ------ --------- -- ------------ -- --- ---- -----<br>------ ---- ---- ------ ------ ------- --- ----- ---------<br>---- --- -------- -------- --- --- -- ------- --- --- -----<br>-- --- ------ ------- --- --- -------- ---- --------- --<br>---------- -- -------- ----------------,237733.09999990463,237732.59999990463,237396.997,237409.89999997616,237421.975,237754.975,,2,Rapa
screen,html.Screen,2_3_1_0_1_3,2022-02-21T13:02:26.151Z,,,,,,,,,,,,,,,,,11,,,,,,,,,,,,,,1225.2249999284686,,response,,,,4,C,,,,,,Space,keypress(Space),,,,instrumental,,,,----- -- ---- Nui -- --- -------- ------------ ---------- --<br>- ------- ------ --------- -- ------------ -- --- ---- -----<br>------ ---- ---- ------ ------ ------- --- ----- ---------<br>---- --- -------- -------- --- --- -- ------- --- --- -----<br>-- --- ------ ------- --- --- -------- ---- --------- --<br>---------- -- -------- ----------------,238981,238980.19999992847,237729.997,237733.29999995232,237754.975,239006.024,,3,Nui
screen,html.Screen,2_3_1_0_1_4,2022-02-21T13:02:26.517Z,,,,,,,,,,,,,,,,,11,,,,,,,,,,,,,,339.67599992846954,,response,,,,4,C,,,,,,Space,keypress(Space),,,,instrumental,,,,----- -- ---- --- to --- -------- ------------ ---------- --<br>- ------- ------ --------- -- ------------ -- --- ---- -----<br>------ ---- ---- ------ ------ ------- --- ----- ---------<br>---- --- -------- -------- --- --- -- ------- --- --- -----<br>-- --- ------ ------- --- --- -------- ---- --------- --<br>---------- -- -------- ----------------,239346.89999997616,239345.69999992847,238981.046,238981.09999990463,239006.024,239364.229,,4,to
screen,html.Screen,2_3_1_0_1_5,2022-02-21T13:02:26.725Z,,,,,,,,,,,,,,,,,11,,,,,,,,,,,,,,189.0709999523242,,response,,,,4,C,,,,,,Space,keypress(Space),,,,instrumental,,,,----- -- ---- --- -- the -------- ------------ ---------- --<br>- ------- ------ --------- -- ------------ -- --- ---- -----<br>------ ---- ---- ------ ------ ------- --- ----- ---------<br>---- --- -------- -------- --- --- -- ------- --- --- -----<br>-- --- ------ ------- --- --- -------- ---- --------- --<br>---------- -- -------- ----------------,239554.59999990463,239553.29999995232,239339.251,239347.19999992847,239364.229,239564.267,,5,the
screen,html.Screen,2_3_1_0_1_6,2022-02-21T13:02:26.991Z,,,,,,,,,,,,,,,,,11,,,,,,,,,,,,,,255.6329999761656,,response,,,,4,C,,,,,,Space,keypress(Space),,,,instrumental,,,,----- -- ---- --- -- --- island's ------------ ---------- --<br>- ------- ------ --------- -- ------------ -- --- ---- -----<br>------ ---- ---- ------ ------ ------- --- ----- ---------<br>---- --- -------- -------- --- --- -- ------- --- --- -----<br>-- --- ------ ------- --- --- -------- ---- --------- --<br>---------- -- -------- ----------------,239821.09999990463,239819.89999997616,239539.289,239554.79999995232,239564.267,239842.806,,6,island's
screen,html.Screen,2_3_1_0_1_7,2022-02-21T13:02:27.328Z,,,,,,,,,,,,,,,,,11,,,,,,,,,,,,,,313.4939999523049,,response,,,,4,C,,,,,,Space,keypress(Space),,,,instrumental,,,,"----- -- ---- --- -- --- -------- inhabitants, ---------- --<br>- ------- ------ --------- -- ------------ -- --- ---- -----<br>------ ---- ---- ------ ------ ------- --- ----- ---------<br>---- --- -------- -------- --- --- -- ------- --- --- -----<br>-- --- ------ ------- --- --- -------- ---- --------- --<br>---------- -- -------- ----------------",240157.79999995232,240156.29999995232,239817.828,239821.39999997616,239842.806,240167.717,,7,"inhabitants,"
screen,html.Screen,2_3_1_0_1_8,2022-02-21T13:02:29.048Z,,,,,,,,,,,,,,,,,11,,,,,,,,,,,,,,1708.682999976154,,response,,,,4,C,,,,,,Space,keypress(Space),,,,instrumental,,,,----- -- ---- --- -- --- -------- ------------ Rongorongo --<br>- ------- ------ --------- -- ------------ -- --- ---- -----<br>------ ---- ---- ------ ------ ------- --- ----- ---------<br>---- --- -------- -------- --- --- -- ------- --- --- -----<br>-- --- ------ ------- --- --- -------- ---- --------- --<br>---------- -- -------- ----------------,241877.89999997616,241876.39999997616,240142.739,240157.89999997616,240167.717,241895.166,,8,Rongorongo
screen,html.Screen,2_3_1_0_1_9,2022-02-21T13:02:29.463Z,,,,,,,,,,,,,,,,,11,,,,,,,,,,,,,,396.2339999761607,,response,,,,4,C,,,,,,Space,keypress(Space),,,,instrumental,,,,----- -- ---- --- -- --- -------- ------------ ---------- is<br>- ------- ------ --------- -- ------------ -- --- ---- -----<br>------ ---- ---- ------ ------ ------- --- ----- ---------<br>---- --- -------- -------- --- --- -- ------- --- --- -----<br>-- --- ------ ------- --- --- -------- ---- --------- --<br>---------- -- -------- ----------------,242292.5,242291.39999997616,241870.188,241878.09999990463,241895.166,242294.968,,9,is
screen,html.Screen,2_3_1_0_1_10,2022-02-21T13:02:29.859Z,,,,,,,,,,,,,,,,,11,,,,,,,,,,,,,,392.3319999523228,,response,,,,4,C,,,,,,Space,keypress(Space),,,,instrumental,,,,----- -- ---- --- -- --- -------- ------------ ---------- --<br>a ------- ------ --------- -- ------------ -- --- ---- -----<br>------ ---- ---- ------ ------ ------- --- ----- ---------<br>---- --- -------- -------- --- --- -- ------- --- --- -----<br>-- --- ------ ------- --- --- -------- ---- --------- --<br>---------- -- -------- ----------------,242688.59999990463,242687.29999995232,242269.99,242292.69999992847,242294.968,242709.149,,10,a
screen,html.Screen,2_3_1_0_1_11,2022-02-21T13:02:30.402Z,,,,,,,,,,,,,,,,,11,,,,,,,,,,,,,,522.4509999046277,,response,,,,4,C,,,,,,Space,keypress(Space),,,,instrumental,,,,----- -- ---- --- -- --- -------- ------------ ---------- --<br>- writing ------ --------- -- ------------ -- --- ---- -----<br>------ ---- ---- ------ ------ ------- --- ----- ---------<br>---- --- -------- -------- --- --- -- ------- --- --- -----<br>-- --- ------ ------- --- --- -------- ---- --------- --<br>---------- -- -------- ----------------,243232.29999995232,243231.59999990463,242684.171,242688.79999995232,242709.149,243236.459,,11,writing
screen,html.Screen,2_3_1_0_1_12,2022-02-21T13:02:31.074Z,,,,,,,,,,,,,,,,,11,,,,,,,,,,,,,,666.5409999999974,,response,,,,4,C,,,,,,Space,keypress(Space),,,,instrumental,,,,----- -- ---- --- -- --- -------- ------------ ---------- --<br>- ------- system --------- -- ------------ -- --- ---- -----<br>------ ---- ---- ------ ------ ------- --- ----- ---------<br>---- --- -------- -------- --- --- -- ------- --- --- -----<br>-- --- ------ ------- --- --- -------- ---- --------- --<br>---------- -- -------- ----------------,243904.19999992847,243903,243211.481,243232.39999997616,243236.459,243914.433,,12,system
screen,html.Screen,2_3_1_0_1_13,2022-02-21T13:02:31.719Z,,,,,,,,,,,,,,,,,11,,,,,,,,,,,,,,630.9669999761682,,response,,,,4,C,,,,,,Space,keypress(Space),,,,instrumental,,,,----- -- ---- --- -- --- -------- ------------ ---------- --<br>- ------- ------ comprised -- ------------ -- --- ---- -----<br>------ ---- ---- ------ ------ ------- --- ----- ---------<br>---- --- -------- -------- --- --- -- ------- --- --- -----<br>-- --- ------ ------- --- --- -------- ---- --------- --<br>---------- -- -------- ----------------,244546.69999992847,244545.39999997616,243889.455,243904.5,243914.433,244564.073,,13,comprised
screen,html.Screen,2_3_1_0_1_14,2022-02-21T13:02:32.075Z,,,,,,,,,,,,,,,,,11,,,,,,,,,,,,,,337.12699992847047,,response,,,,4,C,,,,,,Space,keypress(Space),,,,instrumental,,,,----- -- ---- --- -- --- -------- ------------ ---------- --<br>- ------- ------ --------- of ------------ -- --- ---- -----<br>------ ---- ---- ------ ------ ------- --- ----- ---------<br>---- --- -------- -------- --- --- -- ------- --- --- -----<br>-- --- ------ ------- --- --- -------- ---- --------- --<br>---------- -- -------- ----------------,244902.39999997616,244901.19999992847,244539.095,244546.89999997616,244564.073,244918.436,,14,of
screen,html.Screen,2_3_1_0_1_15,2022-02-21T13:02:34.656Z,,,,,,,,,,,,,,,,,11,,,,,,,,,,,,,,2564.2639999284875,,response,,,,4,C,,,,,,Space,keypress(Space),,,,instrumental,,,,----- -- ---- --- -- --- -------- ------------ ---------- --<br>- ------- ------ --------- -- pictographs. -- --- ---- -----<br>------ ---- ---- ------ ------ ------- --- ----- ---------<br>---- --- -------- -------- --- --- -- ------- --- --- -----<br>-- --- ------ ------- --- --- -------- ---- --------- --<br>---------- -- -------- ----------------,247483.79999995232,247482.69999992847,244893.458,244902.59999990463,244918.436,247497.84,,15,pictographs.
screen,html.Screen,2_3_1_0_1_16,2022-02-21T13:02:35.030Z,,,,,,,,,,,,,,,,,11,,,,,,,,,,,,,,358.6600000000035,,response,,,,4,C,,,,,,Space,keypress(Space),,,,instrumental,,,,----- -- ---- --- -- --- -------- ------------ ---------- --<br>- ------- ------ --------- -- ------------ It --- ---- -----<br>------ ---- ---- ------ ------ ------- --- ----- ---------<br>---- --- -------- -------- --- --- -- ------- --- --- -----<br>-- --- ------ ------- --- --- -------- ---- --------- --<br>---------- -- -------- ----------------,247857.89999997616,247856.5,247472.862,247484,247497.84,247865.393,,16,It
screen,html.Screen,2_3_1_0_1_17,2022-02-21T13:02:35.348Z,,,,,,,,,,,,,,,,,11,,,,,,,,,,,,,,309.3069999284635,,response,,,,4,C,,,,,,Space,keypress(Space),,,,instrumental,,,,----- -- ---- --- -- --- -------- ------------ ---------- --<br>- ------- ------ --------- -- ------------ -- has ---- -----<br>------ ---- ---- ------ ------ ------- --- ----- ---------<br>---- --- -------- -------- --- --- -- ------- --- --- -----<br>-- --- ------ ------- --- --- -------- ---- --------- --<br>---------- -- -------- ----------------,248176,248174.69999992847,247840.415,247858.09999990463,247865.393,248192.695,,17,has
screen,html.Screen,2_3_1_0_1_18,2022-02-21T13:02:35.692Z,,,,,,,,,,,,,,,,,11,,,,,,,,,,,,,,325.9049999046256,,response,,,,4,C,,,,,,Space,keypress(Space),,,,instrumental,,,,----- -- ---- --- -- --- -------- ------------ ---------- --<br>- ------- ------ --------- -- ------------ -- --- been -----<br>------ ---- ---- ------ ------ ------- --- ----- ---------<br>---- --- -------- -------- --- --- -- ------- --- --- -----<br>-- --- ------ ------- --- --- -------- ---- --------- --<br>---------- -- -------- ----------------,248519.79999995232,248518.59999990463,248167.717,248176.19999992847,248192.695,248544.355,,18,been
screen,html.Screen,2_3_1_0_1_19,2022-02-21T13:02:36.058Z,,,,,,,,,,,,,,,,,11,,,,,,,,,,,,,,339.9449999523058,,response,,,,4,C,,,,,,Space,keypress(Space),,,,instrumental,,,,----- -- ---- --- -- --- -------- ------------ ---------- --<br>- ------- ------ --------- -- ------------ -- --- ---- found<br>------ ---- ---- ------ ------ ------- --- ----- ---------<br>---- --- -------- -------- --- --- -- ------- --- --- -----<br>-- --- ------ ------- --- --- -------- ---- --------- --<br>---------- -- -------- ----------------,248885.59999990463,248884.29999995232,248519.377,248520.19999992847,248544.355,248896.577,,19,found
screen,html.Screen,2_3_1_0_1_20,2022-02-21T13:02:36.404Z,,,,,,,,,,,,,,,,,11,,,,,,,,,,,,,,333.22299995232606,,response,,,,4,C,,,,,,Space,keypress(Space),,,,instrumental,,,,----- -- ---- --- -- --- -------- ------------ ---------- --<br>- ------- ------ --------- -- ------------ -- --- ---- -----<br>carved ---- ---- ------ ------ ------- --- ----- ---------<br>---- --- -------- -------- --- --- -- ------- --- --- -----<br>-- --- ------ ------- --- --- -------- ---- --------- --<br>---------- -- -------- ----------------,249231.29999995232,249229.79999995232,248871.599,248885.79999995232,248896.577,249248.564,,20,carved
screen,html.Screen,2_3_1_0_1_21,2022-02-21T13:02:36.780Z,,,,,,,,,,,,,,,,,11,,,,,,,,,,,,,,357.43599999998696,,response,,,,4,C,,,,,,Space,keypress(Space),,,,instrumental,,,,----- -- ---- --- -- --- -------- ------------ ---------- --<br>- ------- ------ --------- -- ------------ -- --- ---- -----<br>------ into ---- ------ ------ ------- --- ----- ---------<br>---- --- -------- -------- --- --- -- ------- --- --- -----<br>-- --- ------ ------- --- --- -------- ---- --------- --<br>---------- -- -------- ----------------,249607.39999997616,249606,249223.586,249231.5,249248.564,249625.775,,21,into
screen,html.Screen,2_3_1_0_1_22,2022-02-21T13:02:37.076Z,,,,,,,,,,,,,,,,,11,,,,,,,,,,,,,,276.7250000000058,,response,,,,4,C,,,,,,Space,keypress(Space),,,,instrumental,,,,----- -- ---- --- -- --- -------- ------------ ---------- --<br>- ------- ------ --------- -- ------------ -- --- ---- -----<br>------ ---- many ------ ------ ------- --- ----- ---------<br>---- --- -------- -------- --- --- -- ------- --- --- -----<br>-- --- ------ ------- --- --- -------- ---- --------- --<br>---------- -- -------- ----------------,249903.79999995232,249902.5,249600.797,249607.59999990463,249625.775,249928.08,,22,many
screen,html.Screen,2_3_1_0_1_23,2022-02-21T13:02:37.571Z,,,,,,,,,,,,,,,,,11,,,,,,,,,,,,,,468.7199999523291,,response,,,,4,C,,,,,,Space,keypress(Space),,,,instrumental,,,,----- -- ---- --- -- --- -------- ------------ ---------- --<br>- ------- ------ --------- -- ------------ -- --- ---- -----<br>------ ---- ---- oblong ------ ------- --- ----- ---------<br>---- --- -------- -------- --- --- -- ------- --- --- -----<br>-- --- ------ ------- --- --- -------- ---- --------- --<br>---------- -- -------- ----------------,250398.19999992847,250396.79999995232,249903.102,249904.09999990463,249928.08,250404.722,,23,oblong
screen,html.Screen,2_3_1_0_1_24,2022-02-21T13:02:38.025Z,,,,,,,,,,,,,,,,,11,,,,,,,,,,,,,,446.77799999999115,,response,,,,4,C,,,,,,Space,keypress(Space),,,,instrumental,,,,----- -- ---- --- -- --- -------- ------------ ---------- --<br>- ------- ------ --------- -- ------------ -- --- ---- -----<br>------ ---- ---- ------ wooden ------- --- ----- ---------<br>---- --- -------- -------- --- --- -- ------- --- --- -----<br>-- --- ------ ------- --- --- -------- ---- --------- --<br>---------- -- -------- ----------------,250852.79999995232,250851.5,250379.744,250398.29999995232,250404.722,250857.574,,24,wooden
screen,html.Screen,2_3_1_0_1_25,2022-02-21T13:02:38.797Z,,,,,,,,,,,,,,,,,11,,,,,,,,,,,,,,765.225999952323,,response,,,,4,C,,,,,,Space,keypress(Space),,,,instrumental,,,,----- -- ---- --- -- --- -------- ------------ ---------- --<br>- ------- ------ --------- -- ------------ -- --- ---- -----<br>------ ---- ---- ------ ------ tablets --- ----- ---------<br>---- --- -------- -------- --- --- -- ------- --- --- -----<br>-- --- ------ ------- --- --- -------- ---- --------- --<br>---------- -- -------- ----------------,251624,251622.79999995232,250832.596,250853,250857.574,251635.245,,25,tablets
screen,html.Screen,2_3_1_0_1_26,2022-02-21T13:02:39.330Z,,,,,,,,,,,,,,,,,11,,,,,,,,,,,,,,521.1549999761628,,response,,,,4,C,,,,,,Space,keypress(Space),,,,instrumental,,,,----- -- ---- --- -- --- -------- ------------ ---------- --<br>- ------- ------ --------- -- ------------ -- --- ---- -----<br>------ ---- ---- ------ ------ ------- and ----- ---------<br>---- --- -------- -------- --- --- -- ------- --- --- -----<br>-- --- ------ ------- --- --- -------- ---- --------- --<br>---------- -- -------- ----------------,252157.69999992847,252156.39999997616,251610.267,251624.19999992847,251635.245,252159.945,,26,and
screen,html.Screen,2_3_1_0_1_27,2022-02-21T13:02:39.697Z,,,,,,,,,,,,,,,,,11,,,,,,,,,,,,,,363.054999999993,,response,,,,4,C,,,,,,Space,keypress(Space),,,,instrumental,,,,----- -- ---- --- -- --- -------- ------------ ---------- --<br>- ------- ------ --------- -- ------------ -- --- ---- -----<br>------ ---- ---- ------ ------ ------- --- other ---------<br>---- --- -------- -------- --- --- -- ------- --- --- -----<br>-- --- ------ ------- --- --- -------- ---- --------- --<br>---------- -- -------- ----------------,252524.29999995232,252523,252134.967,252157.89999997616,252159.945,252539.801,,27,other
screen,html.Screen,2_3_1_0_1_28,2022-02-21T13:02:40.200Z,,,,,,,,,,,,,,,,,11,,,,,,,,,,,,,,486.19899999999325,,response,,,,4,C,,,,,,Space,keypress(Space),,,,instrumental,,,,----- -- ---- --- -- --- -------- ------------ ---------- --<br>- ------- ------ --------- -- ------------ -- --- ---- -----<br>------ ---- ---- ------ ------ ------- --- ----- artifacts<br>---- --- -------- -------- --- --- -- ------- --- --- -----<br>-- --- ------ ------- --- --- -------- ---- --------- --<br>---------- -- -------- ----------------,253027.29999995232,253026,252514.823,252524.5,252539.801,253042.984,,28,artifacts
screen,html.Screen,2_3_1_0_1_29,2022-02-21T13:02:40.803Z,,,,,,,,,,,,,,,,,11,,,,,,,,,,,,,,585.9159999761614,,response,,,,4,C,,,,,,Space,keypress(Space),,,,instrumental,,,,----- -- ---- --- -- --- -------- ------------ ---------- --<br>- ------- ------ --------- -- ------------ -- --- ---- -----<br>------ ---- ---- ------ ------ ------- --- ----- ---------<br>from --- -------- -------- --- --- -- ------- --- --- -----<br>-- --- ------ ------- --- --- -------- ---- --------- --<br>---------- -- -------- ----------------,253630.29999995232,253628.89999997616,253018.006,253027.5,253042.984,253645.043,,29,from
screen,html.Screen,2_3_1_0_1_30,2022-02-21T13:02:41.218Z,,,,,,,,,,,,,,,,,11,,,,,,,,,,,,,,398.9569999999949,,response,,,,4,C,,,,,,Space,keypress(Space),,,,instrumental,,,,----- -- ---- --- -- --- -------- ------------ ---------- --<br>- ------- ------ --------- -- ------------ -- --- ---- -----<br>------ ---- ---- ------ ------ ------- --- ----- ---------<br>---- the -------- -------- --- --- -- ------- --- --- -----<br>-- --- ------ ------- --- --- -------- ---- --------- --<br>---------- -- -------- ----------------,254045.09999990463,254044,253620.065,253630.5,253645.043,254052.114,,30,the
screen,html.Screen,2_3_1_0_1_31,2022-02-21T13:02:41.623Z,,,,,,,,,,,,,,,,,11,,,,,,,,,,,,,,397.08599992847303,,response,,,,4,C,,,,,,Space,keypress(Space),,,,instrumental,,,,----- -- ---- --- -- --- -------- ------------ ---------- --<br>- ------- ------ --------- -- ------------ -- --- ---- -----<br>------ ---- ---- ------ ------ ------- --- ----- ---------<br>---- --- island's -------- --- --- -- ------- --- --- -----<br>-- --- ------ ------- --- --- -------- ---- --------- --<br>---------- -- -------- ----------------,254450.39999997616,254449.19999992847,254027.136,254045.29999995232,254052.114,254454.481,,31,island's
screen,html.Screen,2_3_1_0_1_32,2022-02-21T13:02:42.631Z,,,,,,,,,,,,,,,,,11,,,,,,,,,,,,,,1003.1189999046328,,response,,,,4,C,,,,,,Space,keypress(Space),,,,instrumental,,,,----- -- ---- --- -- --- -------- ------------ ---------- --<br>- ------- ------ --------- -- ------------ -- --- ---- -----<br>------ ---- ---- ------ ------ ------- --- ----- ---------<br>---- --- -------- history. --- --- -- ------- --- --- -----<br>-- --- ------ ------- --- --- -------- ---- --------- --<br>---------- -- -------- ----------------,255458.79999995232,255457.59999990463,254429.503,254450.59999990463,254454.481,255481.573,,32,history.
screen,html.Screen,2_3_1_0_1_33,2022-02-21T13:02:43.116Z,,,,,,,,,,,,,,,,,11,,,,,,,,,,,,,,460.5269999046286,,response,,,,4,C,,,,,,Space,keypress(Space),,,,instrumental,,,,----- -- ---- --- -- --- -------- ------------ ---------- --<br>- ------- ------ --------- -- ------------ -- --- ---- -----<br>------ ---- ---- ------ ------ ------- --- ----- ---------<br>---- --- -------- -------- The --- -- ------- --- --- -----<br>-- --- ------ ------- --- --- -------- ---- --------- --<br>---------- -- -------- ----------------,255943.29999995232,255942.09999990463,255456.595,255459.09999990463,255481.573,255956.247,,33,The
screen,html.Screen,2_3_1_0_1_34,2022-02-21T13:02:43.529Z,,,,,,,,,,,,,,,,,11,,,,,,,,,,,,,,399.6529999761551,,response,,,,4,C,,,,,,Space,keypress(Space),,,,instrumental,,,,----- -- ---- --- -- --- -------- ------------ ---------- --<br>- ------- ------ --------- -- ------------ -- --- ---- -----<br>------ ---- ---- ------ ------ ------- --- ----- ---------<br>---- --- -------- -------- --- art -- ------- --- --- -----<br>-- --- ------ ------- --- --- -------- ---- --------- --<br>---------- -- -------- ----------------,256356.5,256355.89999997616,255931.269,255943.59999990463,255956.247,256365.962,,34,art
screen,html.Screen,2_3_1_0_1_35,2022-02-21T13:02:44.084Z,,,,,,,,,,,,,,,,,11,,,,,,,,,,,,,,544.7379999284749,,response,,,,4,C,,,,,,Space,keypress(Space),,,,instrumental,,,,----- -- ---- --- -- --- -------- ------------ ---------- --<br>- ------- ------ --------- -- ------------ -- --- ---- -----<br>------ ---- ---- ------ ------ ------- --- ----- ---------<br>---- --- -------- -------- --- --- of ------- --- --- -----<br>-- --- ------ ------- --- --- -------- ---- --------- --<br>---------- -- -------- ----------------,256912,256910.69999992847,256340.984,256356.59999990463,256365.962,256918.226,,35,of
screen,html.Screen,2_3_1_0_1_36,2022-02-21T13:02:44.627Z,,,,,,,,,,,,,,,,,11,,,,,,,,,,,,,,535.5739999523212,,response,,,,4,C,,,,,,Space,keypress(Space),,,,instrumental,,,,----- -- ---- --- -- --- -------- ------------ ---------- --<br>- ------- ------ --------- -- ------------ -- --- ---- -----<br>------ ---- ---- ------ ------ ------- --- ----- ---------<br>---- --- -------- -------- --- --- -- writing --- --- -----<br>-- --- ------ ------- --- --- -------- ---- --------- --<br>---------- -- -------- ----------------,257454.69999992847,257453.79999995232,256893.248,256912.09999990463,256918.226,257471.51,,36,writing
screen,html.Screen,2_3_1_0_1_37,2022-02-21T13:02:45.004Z,,,,,,,,,,,,,,,,,11,,,,,,,,,,,,,,358.9899999999907,,response,,,,4,C,,,,,,Space,keypress(Space),,,,instrumental,,,,----- -- ---- --- -- --- -------- ------------ ---------- --<br>- ------- ------ --------- -- ------------ -- --- ---- -----<br>------ ---- ---- ------ ------ ------- --- ----- ---------<br>---- --- -------- -------- --- --- -- ------- was --- -----<br>-- --- ------ ------- --- --- -------- ---- --------- --<br>---------- -- -------- ----------------,257831.5,257830.5,257446.532,257454.89999997616,257471.51,257846.391,,37,was
screen,html.Screen,2_3_1_0_1_38,2022-02-21T13:02:45.378Z,,,,,,,,,,,,,,,,,11,,,,,,,,,,,,,,358.30899992847117,,response,,,,4,C,,,,,,Space,keypress(Space),,,,instrumental,,,,----- -- ---- --- -- --- -------- ------------ ---------- --<br>- ------- ------ --------- -- ------------ -- --- ---- -----<br>------ ---- ---- ------ ------ ------- --- ----- ---------<br>---- --- -------- -------- --- --- -- ------- --- not -----<br>-- --- ------ ------- --- --- -------- ---- --------- --<br>---------- -- -------- ----------------,258205.5,258204.69999992847,257821.413,257831.69999992847,257846.391,258227.307,,38,not
