sender,sender_type,sender_id,timestamp,meta,,Blues,Classical,Country,Dance,Electronic,Folk,Gospel,Hip-Hop,Jazz,Latin,Musical/Film,New-age,Pop,Prolific_id,Provo_ID,R&B,Rap,Reggae,Religious,Rock,Soul,Swing,Traditional,age,artist_name,correct,correctResponse,distraction,duration,education,ended_on,familiarity,gender,headphone_check_performance,item,list,music_frequency,offensiveness,pleasantness,position_correct,preference,response,response_action,snippet_file,song_name,song_rating,sound,stimulus_1,stimulus_2,stimulus_3,text,time_commit,time_end,time_render,time_run,time_show,time_switch,url,word,word_ID
Prolific ID,html.Form,0,2022-02-21T10:11:22.918Z,"{""labjs_version"":""20.2.2"",""labjs_build"":{""flavor"":""production"",""commit"":""a25486e0c714a0ae2ce03ff94b7bb6896854dcfa""},""location"":""https://run.pavlovia.org/mvasilev/prolific2_music_a/"",""userAgent"":""Mozilla/5.0 (Windows NT 10.0; Win64; x64) AppleWebKit/537.36 (KHTML, like Gecko) Chrome/98.0.4758.102 Safari/537.36 Edg/98.0.1108.56"",""platform"":""Win32"",""language"":""en-GB"",""locale"":""en-GB"",""timeZone"":""Europe/London"",""timezoneOffset"":0,""screen_width"":1366,""screen_height"":768,""scroll_width"":1366,""scroll_height"":609,""window_innerWidth"":1366,""window_innerHeight"":657,""devicePixelRatio"":1}",,,,,,,,,,,,,,,5ef90e8cf0849b0db25fe232,,,,,,,,,,,,,,,43340.287,,form submission,,,,,,,,,,,,,,,,,,,,,61198.59999990463,61196.5,17789.845,17796.699999928474,17856.213,61236.872,{},,
Introduction,html.Screen,1_0,2022-02-21T10:11:56.507Z,,,,,,,,,,,,,,,,,,,,,,,,,,,,,,,33545.22799990463,,response,,,,,,,,,,,continue,click button,,,,,,,,,94787.39999997616,94782.09999990463,61186.898,61199.799999952316,61236.872,94801.485,,,
Volume calibration,html.Screen,1_1,2022-02-21T10:12:02.857Z,,,,,,,,,,,,,,,,,,,,,,,,,,,,,,,6329.814999952316,,response,,,,,,,,,,,continue,click button,,,,,,,,,101137.19999992847,101131.29999995232,94768.659,94787.69999992847,94801.485,101134.426,,,
Task instructions,html.Screen,1_2,2022-02-21T10:12:06.269Z,,,,,,,,,,,,,,,,,,,,,,,,,,,,,,,3413.0739999999932,,response,,,,,,,,,,,continue,click button,,,,,,,,,104549.29999995232,104547.5,101117.797,101137.5,101134.426,104551.208,,,
Sounds,html.Screen,1_3_0_0,2022-02-21T10:12:10.509Z,,,,,,,,,,,,,,,,,,,,,,,,,,,,,,,4249.497000000003,,timeout,,,,,,,,,3,,,,,,,,I,O,S,,108788.39999997616,108784.341,104534.557,104549.59999990463,104551.208,108800.705,,,
Judgement,html.Screen,1_3_0_1,2022-02-21T10:12:11.195Z,,,,,,,,,,,,,,,,,,,,,,,,,,,,true,3,,672.3949999046308,,response,,,,,,,,,3,,3,click #choice-3,,,,,I,O,S,,109475,109473.09999990463,108784.341,108789,108800.705,109484.264,,,
Trial,flow.Sequence,1_3_0,2022-02-21T10:12:11.195Z,,,,,,,,,,,,,,,,,,,,,,,,,,,,,,,4921.891999904634,,completion,,,,,,,,,3,,,,,,,,I,O,S,,109475.29999995232,109473.09999990463,104534.557,104549.5,104551.208,109484.264,,,
Sounds,html.Screen,1_3_1_0,2022-02-21T10:12:15.438Z,,,,,,,,,,,,,,,,,,,,,,,,,,,,,,,4249.994000000006,,timeout,,,,,,,,,2,,,,,,,,O,S,I,,113718.39999997616,113717.334,109467.294,109475.5,109484.264,113734.258,,,
Judgement,html.Screen,1_3_1_1,2022-02-21T10:12:16.214Z,,,,,,,,,,,,,,,,,,,,,,,,,,,,false,2,,757.7419999999984,,response,,,,,,,,,2,,1,click #choice-1,,,,,O,S,I,,114493.89999997616,114492,113717.334,113718.59999990463,113734.258,114500.355,,,
Trial,flow.Sequence,1_3_1,2022-02-21T10:12:16.214Z,,,,,,,,,,,,,,,,,,,,,,,,,,,,,,,5007.736000000004,,completion,,,,,,,,,2,,,,,,,,O,S,I,,114494.19999992847,114492,109467.294,109475.5,109484.264,114500.355,,,
Sounds,html.Screen,1_3_2_0,2022-02-21T10:12:20.455Z,,,,,,,,,,,,,,,,,,,,,,,,,,,,,,,4249.763000000006,,timeout,,,,,,,,,1,,,,,,,,S,O,I,,118734.69999992847,118733.417,114483.99,114494.5,114500.355,118750.118,,,
Judgement,html.Screen,1_3_2_1,2022-02-21T10:12:20.901Z,,,,,,,,,,,,,,,,,,,,,,,,,,,,true,1,,429.28199997615593,,response,,,,,,,,,1,,1,click #choice-1,,,,,S,O,I,,119181.39999997616,119179.39999997616,118733.417,118734.89999997616,118750.118,119183.54,,,
Trial,flow.Sequence,1_3_2,2022-02-21T10:12:20.902Z,,,,,,,,,,,,,,,,,,,,,,,,,,,,,,,4679.044999976162,,completion,,,,,,,,,1,,,,,,,,S,O,I,,119181.69999992847,119179.39999997616,114483.99,114494.29999995232,114500.355,119183.54,,,
Sounds,html.Screen,1_3_3_0,2022-02-21T10:12:25.138Z,,,,,,,,,,,,,,,,,,,,,,,,,,,,,,,4249.6020000000135,,timeout,,,,,,,,,1,,,,,,,,S,I,O,,123418,123416.803,119166.666,119181.79999995232,119183.54,123433.142,,,
Judgement,html.Screen,1_3_3_1,2022-02-21T10:12:25.294Z,,,,,,,,,,,,,,,,,,,,,,,,,,,,true,1,,139.3579999999929,,response,,,,,,,,,1,,1,click #choice-1,,,,,S,I,O,,123574.29999995232,123572.5,123416.803,123418.19999992847,123433.142,123583.05,,,
Trial,flow.Sequence,1_3_3,2022-02-21T10:12:25.295Z,,,,,,,,,,,,,,,,,,,,,,,,,,,,,,,4388.960000000006,,completion,,,,,,,,,1,,,,,,,,S,I,O,,123574.59999990463,123572.5,119166.666,119181.79999995232,119183.54,123583.05,,,
Sounds,html.Screen,1_3_4_0,2022-02-21T10:12:29.538Z,,,,,,,,,,,,,,,,,,,,,,,,,,,,,,,4249.972999999998,,timeout,,,,,,,,,3,,,,,,,,O,I,S,,127818.29999995232,127816.521,123566.585,123574.79999995232,123583.05,127833.023,,,
Judgement,html.Screen,1_3_4_1,2022-02-21T10:12:30.050Z,,,,,,,,,,,,,,,,,,,,,,,,,,,,true,3,,495.27699995231524,,response,,,,,,,,,3,,3,click #choice-3,,,,,O,I,S,,128329.89999997616,128328.29999995232,127816.521,127818.5,127833.023,128332.759,,,
Trial,flow.Sequence,1_3_4,2022-02-21T10:12:30.050Z,,,,,,,,,,,,,,,,,,,,,,,,,,,,,,,4745.249999952313,,completion,,,,,,,,,3,,,,,,,,O,I,S,,128330.09999990463,128328.29999995232,123566.585,123574.69999992847,123583.05,128332.759,,,
Sounds,html.Screen,1_3_5_0,2022-02-21T10:12:34.287Z,,,,,,,,,,,,,,,,,,,,,,,,,,,,,,,4250.680000000008,,timeout,,,,,,,,,2,,,,,,,,I,S,O,,132567.29999995232,132565.852,128316.143,128330.29999995232,128332.759,132583.439,,,
Judgement,html.Screen,1_3_5_1,2022-02-21T10:12:34.901Z,,,,,,,,,,,,,,,,,,,,,,,,,,,,true,2,,595.6609999046195,,response,,,,,,,,,2,,2,click #choice-2,,,,,I,S,O,,133181,133179.09999990463,132565.852,132567.59999990463,132583.439,133199.116,,,
Trial,flow.Sequence,1_3_5,2022-02-21T10:12:34.901Z,,,,,,,,,,,,,,,,,,,,,,,,,,,,,,,4846.340999904627,,completion,,,,,,,,,2,,,,,,,,I,S,O,,133181.5,133179.09999990463,128316.143,128330.29999995232,128332.759,133199.116,,,
Task,flow.Loop,1_3,2022-02-21T10:12:34.909Z,,,,,,,,,,,,,,,,,,,,,,,,,,,,,,,28627.891999904634,,completion,,,0.8333333333333334,,,,,,,,,,,,,,,,,,133189.39999997616,133179.09999990463,104534.557,104549.5,104551.208,133199.116,,,
Trap,html.Screen,1_4,2022-02-21T10:12:34.918Z,,,,,,,,,,,,,,,,,,,,,,,,,,,,,,,NaN,,skipped,,,,,,,,,,,,,,,,,,,,,133198.09999990463,133179.09999990463,,133197.79999995232,,133199.116,,,
Thanks,html.Screen,1_5,2022-02-21T10:12:37.183Z,,,,,,,,,,,,,,,,,,,,,,,,,,,,,,,2262.783999976149,,response,,,,,,,,,,,continue,click button,,,,,,,,,135463.29999995232,135461.89999997616,133166.237,133198.19999992847,133199.116,137916.205,,,
Headphone screening,flow.Sequence,1,2022-02-21T10:12:37.184Z,,,,,,,,,,,,,,,,,,,,,,,,,,,,,,,74225.02799997616,,completion,,,,,,,,,,,,,,,,,,,,,135463.59999990463,135461.89999997616,61186.898,61199.699999928474,61236.872,137916.205,,,
Instructions,html.Page,2_0,2022-02-21T10:12:55.282Z,,,,,,,,,,,,,,,,,,,,,,,,,,,,,,,15645.194999976171,,form submission,,,,,,,,,,,,,,,,,,,,,153561.79999995232,153561.39999997616,137882.508,137909.09999990463,137916.205,153564.551,,,
Holding screen,html.Screen,2_1_0_0,2022-02-21T10:13:05.269Z,,,,,,,,,,,,,,,,,,,,,,,,,,,,,,,10016.073000000004,,timeout,,,,,,,,,,,,,,,,,,,,,163548.69999992847,163547.758,153547.895,153562.19999992847,153564.551,163580.624,,,
screen,html.Screen,2_1_0_1_0,2022-02-21T10:13:06.809Z,,,,,,,,,,,,,,,,,53,,,,,,,,,,,,,,1511.6759999523056,,response,,,,99,,,,,,,Space,keypress(Space),,,,,,,,When -- ----- -- ------ - ------- --- ----------<br>------------- ------ ------ ---- ---- ------- ----- -- ----<br>-------- ------- -- ---------- --- - --- ----- ----- ----<br>---- --- --- ----- --- ---- ---- ------- ----- ---- -------<br>--- --- -- ----- -- --- ---- -- --- ---- -- ------ ------<br>--- ----- -- ----,165096.19999992847,165092.29999995232,163547.758,163548.89999997616,163580.624,165130.838,,0,When
screen,html.Screen,2_1_0_1_1,2022-02-21T10:13:07.432Z,,,,,,,,,,,,,,,,,53,,,,,,,,,,,,,,588.0619999761693,,response,,,,99,,,,,,,Space,keypress(Space),,,,,,,,---- it ----- -- ------ - ------- --- ----------<br>------------- ------ ------ ---- ---- ------- ----- -- ----<br>-------- ------- -- ---------- --- - --- ----- ----- ----<br>---- --- --- ----- --- ---- ---- ------- ----- ---- -------<br>--- --- -- ----- -- --- ---- -- --- ---- -- ------ ------<br>--- ----- -- ----,165720,165718.89999997616,165114.353,165096.5,165130.838,165730.785,,1,it
screen,html.Screen,2_1_0_1_2,2022-02-21T10:13:08.406Z,,,,,,,,,,,,,,,,,53,,,,,,,,,,,,,,961.4149999284709,,response,,,,99,,,,,,,Space,keypress(Space),,,,,,,,---- -- comes -- ------ - ------- --- ----------<br>------------- ------ ------ ---- ---- ------- ----- -- ----<br>-------- ------- -- ---------- --- - --- ----- ----- ----<br>---- --- --- ----- --- ---- ---- ------- ----- ---- -------<br>--- --- -- ----- -- --- ---- -- --- ---- -- ------ ------<br>--- ----- -- ----,166693.29999995232,166692.19999992847,165713.82,165720.09999990463,165730.785,166697.1,,2,comes
screen,html.Screen,2_1_0_1_3,2022-02-21T10:13:08.725Z,,,,,,,,,,,,,,,,,53,,,,,,,,,,,,,,314.7999999761523,,response,,,,99,,,,,,,Space,keypress(Space),,,,,,,,---- -- ----- to ------ - ------- --- ----------<br>------------- ------ ------ ---- ---- ------- ----- -- ----<br>-------- ------- -- ---------- --- - --- ----- ----- ----<br>---- --- --- ----- --- ---- ---- ------- ----- ---- -------<br>--- --- -- ----- -- --- ---- -- --- ---- -- ------ ------<br>--- ----- -- ----,167013,167011.89999997616,166680.447,166693.5,166697.1,167030.458,,3,to
screen,html.Screen,2_1_0_1_4,2022-02-21T10:13:09.060Z,,,,,,,,,,,,,,,,,53,,,,,,,,,,,,,,316.1419999046193,,response,,,,99,,,,,,,Space,keypress(Space),,,,,,,,---- -- ----- -- having - ------- --- ----------<br>------------- ------ ------ ---- ---- ------- ----- -- ----<br>-------- ------- -- ---------- --- - --- ----- ----- ----<br>---- --- --- ----- --- ---- ---- ------- ----- ---- -------<br>--- --- -- ----- -- --- ---- -- --- ---- -- ------ ------<br>--- ----- -- ----,167347.69999992847,167346.59999990463,166997.378,167013.19999992847,167030.458,167363.82,,4,having
screen,html.Screen,2_1_0_1_5,2022-02-21T10:13:09.534Z,,,,,,,,,,,,,,,,,53,,,,,,,,,,,,,,456.4799999523093,,response,,,,99,,,,,,,Space,keypress(Space),,,,,,,,---- -- ----- -- ------ a ------- --- ----------<br>------------- ------ ------ ---- ---- ------- ----- -- ----<br>-------- ------- -- ---------- --- - --- ----- ----- ----<br>---- --- --- ----- --- ---- ---- ------- ----- ---- -------<br>--- --- -- ----- -- --- ---- -- --- ---- -- ------ ------<br>--- ----- -- ----,167821.39999997616,167820.29999995232,167347.117,167347.89999997616,167363.82,167830.326,,5,a
screen,html.Screen,2_1_0_1_6,2022-02-21T10:13:09.850Z,,,,,,,,,,,,,,,,,53,,,,,,,,,,,,,,306.17399999999907,,response,,,,99,,,,,,,Space,keypress(Space),,,,,,,,---- -- ----- -- ------ - lasting --- ----------<br>------------- ------ ------ ---- ---- ------- ----- -- ----<br>-------- ------- -- ---------- --- - --- ----- ----- ----<br>---- --- --- ----- --- ---- ---- ------- ----- ---- -------<br>--- --- -- ----- -- --- ---- -- --- ---- -- ------ ------<br>--- ----- -- ----,168137.5,168136.5,167814.19,167821.5,167830.326,168146.994,,6,lasting
screen,html.Screen,2_1_0_1_7,2022-02-21T10:13:10.194Z,,,,,,,,,,,,,,,,,53,,,,,,,,,,,,,,333.9059999761521,,response,,,,99,,,,,,,Space,keypress(Space),,,,,,,,---- -- ----- -- ------ - ------- and ----------<br>------------- ------ ------ ---- ---- ------- ----- -- ----<br>-------- ------- -- ---------- --- - --- ----- ----- ----<br>---- --- --- ----- --- ---- ---- ------- ----- ---- -------<br>--- --- -- ----- -- --- ---- -- --- ---- -- ------ ------<br>--- ----- -- ----,168482,168480.89999997616,168130.641,168137.69999992847,168146.994,168497.062,,7,and
screen,html.Screen,2_1_0_1_8,2022-02-21T10:13:10.562Z,,,,,,,,,,,,,,,,,53,,,,,,,,,,,,,,351.43799999999464,,response,,,,99,,,,,,,Space,keypress(Space),,,,,,,,---- -- ----- -- ------ - ------- --- fulfilling<br>------------- ------ ------ ---- ---- ------- ----- -- ----<br>-------- ------- -- ---------- --- - --- ----- ----- ----<br>---- --- --- ----- --- ---- ---- ------- ----- ---- -------<br>--- --- -- ----- -- --- ---- -- --- ---- -- ------ ------<br>--- ----- -- ----,168849.69999992847,168848.5,168480.346,168482.19999992847,168497.062,168863.942,,8,fulfilling
screen,html.Screen,2_1_0_1_9,2022-02-21T10:13:10.787Z,,,,,,,,,,,,,,,,,53,,,,,,,,,,,,,,209.85799995230627,,response,,,,99,,,,,,,Space,keypress(Space),,,,,,,,"---- -- ----- -- ------ - ------- --- ----------<br>relationship, ------ ------ ---- ---- ------- ----- -- ----<br>-------- ------- -- ---------- --- - --- ----- ----- ----<br>---- --- --- ----- --- ---- ---- ------- ----- ---- -------<br>--- --- -- ----- -- --- ---- -- --- ---- -- ------ ------<br>--- ----- -- ----",169075.19999992847,169073.79999995232,168847.449,168849.79999995232,168863.942,169080.268,,9,"relationship,"
screen,html.Screen,2_1_0_1_10,2022-02-21T10:13:10.972Z,,,,,,,,,,,,,,,,,53,,,,,,,,,,,,,,178.03199995230534,,response,,,,99,,,,,,,Space,keypress(Space),,,,,,,,---- -- ----- -- ------ - ------- --- ----------<br>------------- common ------ ---- ---- ------- ----- -- ----<br>-------- ------- -- ---------- --- - --- ----- ----- ----<br>---- --- --- ----- --- ---- ---- ------- ----- ---- -------<br>--- --- -- ----- -- --- ---- -- --- ---- -- ------ ------<br>--- ----- -- ----,169259.39999997616,169258.29999995232,169064.167,169075.29999995232,169080.268,169263.98,,10,common
screen,html.Screen,2_1_0_1_11,2022-02-21T10:13:11.539Z,,,,,,,,,,,,,,,,,53,,,,,,,,,,,,,,561.1199999046221,,response,,,,99,,,,,,,Space,keypress(Space),,,,,,,,---- -- ----- -- ------ - ------- --- ----------<br>------------- ------ wisdom ---- ---- ------- ----- -- ----<br>-------- ------- -- ---------- --- - --- ----- ----- ----<br>---- --- --- ----- --- ---- ---- ------- ----- ---- -------<br>--- --- -- ----- -- --- ---- -- --- ---- -- ------ ------<br>--- ----- -- ----,169826.29999995232,169825.09999990463,169247.399,169259.5,169263.98,169830.246,,11,wisdom
screen,html.Screen,2_1_0_1_12,2022-02-21T10:13:11.869Z,,,,,,,,,,,,,,,,,53,,,,,,,,,,,,,,325.1539999761444,,response,,,,99,,,,,,,Space,keypress(Space),,,,,,,,---- -- ----- -- ------ - ------- --- ----------<br>------------- ------ ------ says ---- ------- ----- -- ----<br>-------- ------- -- ---------- --- - --- ----- ----- ----<br>---- --- --- ----- --- ---- ---- ------- ----- ---- -------<br>--- --- -- ----- -- --- ---- -- --- ---- -- ------ ------<br>--- ----- -- ----,170156.5,170155.39999997616,169814.334,169826.39999997616,169830.246,170163.742,,12,says
screen,html.Screen,2_1_0_1_13,2022-02-21T10:13:12.228Z,,,,,,,,,,,,,,,,,53,,,,,,,,,,,,,,351.0579999523179,,response,,,,99,,,,,,,Space,keypress(Space),,,,,,,,---- -- ----- -- ------ - ------- --- ----------<br>------------- ------ ------ ---- that ------- ----- -- ----<br>-------- ------- -- ---------- --- - --- ----- ----- ----<br>---- --- --- ----- --- ---- ---- ------- ----- ---- -------<br>--- --- -- ----- -- --- ---- -- --- ---- -- ------ ------<br>--- ----- -- ----,170515.79999995232,170514.79999995232,170147.209,170156.69999992847,170163.742,170530.526,,13,that
screen,html.Screen,2_1_0_1_14,2022-02-21T10:13:12.466Z,,,,,,,,,,,,,,,,,53,,,,,,,,,,,,,,222.47399999998743,,response,,,,99,,,,,,,Space,keypress(Space),,,,,,,,---- -- ----- -- ------ - ------- --- ----------<br>------------- ------ ------ ---- ---- feeling ----- -- ----<br>-------- ------- -- ---------- --- - --- ----- ----- ----<br>---- --- --- ----- --- ---- ---- ------- ----- ---- -------<br>--- --- -- ----- -- --- ---- -- --- ---- -- ------ ------<br>--- ----- -- ----,170754,170753,170513.578,170516.09999990463,170530.526,170763.819,,14,feeling
screen,html.Screen,2_1_0_1_15,2022-02-21T10:13:12.815Z,,,,,,,,,,,,,,,,,53,,,,,,,,,,,,,,338.280999904644,,response,,,,99,,,,,,,Space,keypress(Space),,,,,,,,---- -- ----- -- ------ - ------- --- ----------<br>------------- ------ ------ ---- ---- ------- close -- ----<br>-------- ------- -- ---------- --- - --- ----- ----- ----<br>---- --- --- ----- --- ---- ---- ------- ----- ---- -------<br>--- --- -- ----- -- --- ---- -- --- ---- -- ------ ------<br>--- ----- -- ----,171103.09999990463,171102.09999990463,170747.332,170754.19999992847,170763.819,171113.801,,15,close
screen,html.Screen,2_1_0_1_16,2022-02-21T10:13:13.116Z,,,,,,,,,,,,,,,,,53,,,,,,,,,,,,,,289.0989999761514,,response,,,,99,,,,,,,Space,keypress(Space),,,,,,,,---- -- ----- -- ------ - ------- --- ----------<br>------------- ------ ------ ---- ---- ------- ----- to ----<br>-------- ------- -- ---------- --- - --- ----- ----- ----<br>---- --- --- ----- --- ---- ---- ------- ----- ---- -------<br>--- --- -- ----- -- --- ---- -- --- ---- -- ------ ------<br>--- ----- -- ----,171404,171402.89999997616,171096.875,171103.39999997616,171113.801,171413.462,,16,to
screen,html.Screen,2_1_0_1_17,2022-02-21T10:13:13.470Z,,,,,,,,,,,,,,,,,53,,,,,,,,,,,,,,343.33799995231675,,response,,,,99,,,,,,,Space,keypress(Space),,,,,,,,---- -- ----- -- ------ - ------- --- ----------<br>------------- ------ ------ ---- ---- ------- ----- -- your<br>-------- ------- -- ---------- --- - --- ----- ----- ----<br>---- --- --- ----- --- ---- ---- ------- ----- ---- -------<br>--- --- -- ----- -- --- ---- -- --- ---- -- ------ ------<br>--- ----- -- ----,171757.89999997616,171756.79999995232,171397.301,171404.09999990463,171413.462,171763.405,,17,your
screen,html.Screen,2_1_0_1_18,2022-02-21T10:13:13.756Z,,,,,,,,,,,,,,,,,53,,,,,,,,,,,,,,279.69499990463373,,response,,,,99,,,,,,,Space,keypress(Space),,,,,,,,---- -- ----- -- ------ - ------- --- ----------<br>------------- ------ ------ ---- ---- ------- ----- -- ----<br>romantic ------- -- ---------- --- - --- ----- ----- ----<br>---- --- --- ----- --- ---- ---- ------- ----- ---- -------<br>--- --- -- ----- -- --- ---- -- --- ---- -- ------ ------<br>--- ----- -- ----,172044.09999990463,172043.09999990463,171747.278,171758.09999990463,171763.405,172046.773,,18,romantic
screen,html.Screen,2_1_0_1_19,2022-02-21T10:13:14.063Z,,,,,,,,,,,,,,,,,53,,,,,,,,,,,,,,303.12699997617165,,response,,,,99,,,,,,,Space,keypress(Space),,,,,,,,---- -- ----- -- ------ - ------- --- ----------<br>------------- ------ ------ ---- ---- ------- ----- -- ----<br>-------- partner -- ---------- --- - --- ----- ----- ----<br>---- --- --- ----- --- ---- ---- ------- ----- ---- -------<br>--- --- -- ----- -- --- ---- -- --- ---- -- ------ ------<br>--- ----- -- ----,172351,172349.89999997616,172030.554,172044.29999995232,172046.773,172363.721,,19,partner
screen,html.Screen,2_1_0_1_20,2022-02-21T10:13:14.357Z,,,,,,,,,,,,,,,,,53,,,,,,,,,,,,,,280.07899995232583,,response,,,,99,,,,,,,Space,keypress(Space),,,,,,,,---- -- ----- -- ------ - ------- --- ----------<br>------------- ------ ------ ---- ---- ------- ----- -- ----<br>-------- ------- is ---------- --- - --- ----- ----- ----<br>---- --- --- ----- --- ---- ---- ------- ----- ---- -------<br>--- --- -- ----- -- --- ---- -- --- ---- -- ------ ------<br>--- ----- -- ----,172644.89999997616,172643.79999995232,172347.035,172351.19999992847,172363.721,172646.696,,20,is
screen,html.Screen,2_1_0_1_21,2022-02-21T10:13:14.678Z,,,,,,,,,,,,,,,,,53,,,,,,,,,,,,,,318.00399992847815,,response,,,,99,,,,,,,Space,keypress(Space),,,,,,,,---- -- ----- -- ------ - ------- --- ----------<br>------------- ------ ------ ---- ---- ------- ----- -- ----<br>-------- ------- -- paramount. --- - --- ----- ----- ----<br>---- --- --- ----- --- ---- ---- ------- ----- ---- -------<br>--- --- -- ----- -- --- ---- -- --- ---- -- ------ ------<br>--- ----- -- ----,172965.79999995232,172964.69999992847,172630.597,172645.09999990463,172646.696,172980.039,,21,paramount.
screen,html.Screen,2_1_0_1_22,2022-02-21T10:13:14.940Z,,,,,,,,,,,,,,,,,53,,,,,,,,,,,,,,246.26099995232653,,response,,,,99,,,,,,,Space,keypress(Space),,,,,,,,---- -- ----- -- ------ - ------- --- ----------<br>------------- ------ ------ ---- ---- ------- ----- -- ----<br>-------- ------- -- ---------- But - --- ----- ----- ----<br>---- --- --- ----- --- ---- ---- ------- ----- ---- -------<br>--- --- -- ----- -- --- ---- -- --- ---- -- ------ ------<br>--- ----- -- ----,173227.39999997616,173226.29999995232,172963.674,172966,172980.039,173230.015,,22,But
screen,html.Screen,2_1_0_1_23,2022-02-21T10:13:15.225Z,,,,,,,,,,,,,,,,,53,,,,,,,,,,,,,,281.8849999761442,,response,,,,99,,,,,,,Space,keypress(Space),,,,,,,,---- -- ----- -- ------ - ------- --- ----------<br>------------- ------ ------ ---- ---- ------- ----- -- ----<br>-------- ------- -- ---------- --- a --- ----- ----- ----<br>---- --- --- ----- --- ---- ---- ------- ----- ---- -------<br>--- --- -- ----- -- --- ---- -- --- ---- -- ------ ------<br>--- ----- -- ----,173512.89999997616,173511.89999997616,173213.866,173227.59999990463,173230.015,173530.32,,23,a
screen,html.Screen,2_1_0_1_24,2022-02-21T10:13:15.417Z,,,,,,,,,,,,,,,,,53,,,,,,,,,,,,,,173.4799999523093,,response,,,,99,,,,,,,Space,keypress(Space),,,,,,,,---- -- ----- -- ------ - ------- --- ----------<br>------------- ------ ------ ---- ---- ------- ----- -- ----<br>-------- ------- -- ---------- --- - new ----- ----- ----<br>---- --- --- ----- --- ---- ---- ------- ----- ---- -------<br>--- --- -- ----- -- --- ---- -- --- ---- -- ------ ------<br>--- ----- -- ----,173704.79999995232,173703.79999995232,173513.664,173513.09999990463,173530.32,173713.634,,24,new
screen,html.Screen,2_1_0_1_25,2022-02-21T10:13:15.608Z,,,,,,,,,,,,,,,,,53,,,,,,,,,,,,,,180.66599995232536,,response,,,,99,,,,,,,Space,keypress(Space),,,,,,,,---- -- ----- -- ------ - ------- --- ----------<br>------------- ------ ------ ---- ---- ------- ----- -- ----<br>-------- ------- -- ---------- --- - --- study ----- ----<br>---- --- --- ----- --- ---- ---- ------- ----- ---- -------<br>--- --- -- ----- -- --- ---- -- --- ---- -- ------ ------<br>--- ----- -- ----,173895.29999995232,173894.29999995232,173697.168,173705.09999990463,173713.634,173915.506,,25,study
screen,html.Screen,2_1_0_1_26,2022-02-21T10:13:15.817Z,,,,,,,,,,,,,,,,,53,,,,,,,,,,,,,,187.69399992848048,,response,,,,99,,,,,,,Space,keypress(Space),,,,,,,,---- -- ----- -- ------ - ------- --- ----------<br>------------- ------ ------ ---- ---- ------- ----- -- ----<br>-------- ------- -- ---------- --- - --- ----- finds ----<br>---- --- --- ----- --- ---- ---- ------- ----- ---- -------<br>--- --- -- ----- -- --- ---- -- --- ---- -- ------ ------<br>--- ----- -- ----,174104.19999992847,174103.19999992847,173880.468,173895.5,173915.506,174113.301,,26,finds
screen,html.Screen,2_1_0_1_27,2022-02-21T10:13:16.183Z,,,,,,,,,,,,,,,,,53,,,,,,,,,,,,,,355.8989999284677,,response,,,,99,,,,,,,Space,keypress(Space),,,,,,,,---- -- ----- -- ------ - ------- --- ----------<br>------------- ------ ------ ---- ---- ------- ----- -- ----<br>-------- ------- -- ---------- --- - --- ----- ----- that<br>---- --- --- ----- --- ---- ---- ------- ----- ---- -------<br>--- --- -- ----- -- --- ---- -- --- ---- -- ------ ------<br>--- ----- -- ----,174470.39999997616,174469.19999992847,174096.936,174104.39999997616,174113.301,174479.97,,27,that
screen,html.Screen,2_1_0_1_28,2022-02-21T10:13:16.347Z,,,,,,,,,,,,,,,,,53,,,,,,,,,,,,,,153.72999992847326,,response,,,,99,,,,,,,Space,keypress(Space),,,,,,,,---- -- ----- -- ------ - ------- --- ----------<br>------------- ------ ------ ---- ---- ------- ----- -- ----<br>-------- ------- -- ---------- --- - --- ----- ----- ----<br>it's --- --- ----- --- ---- ---- ------- ----- ---- -------<br>--- --- -- ----- -- --- ---- -- --- ---- -- ------ ------<br>--- ----- -- ----,174634.79999995232,174633.69999992847,174463.774,174470.5,174479.97,174646.68,,28,it's
screen,html.Screen,2_1_0_1_29,2022-02-21T10:13:16.519Z,,,,,,,,,,,,,,,,,53,,,,,,,,,,,,,,158.41999990463955,,response,,,,99,,,,,,,Space,keypress(Space),,,,,,,,---- -- ----- -- ------ - ------- --- ----------<br>------------- ------ ------ ---- ---- ------- ----- -- ----<br>-------- ------- -- ---------- --- - --- ----- ----- ----<br>---- not --- ----- --- ---- ---- ------- ----- ---- -------<br>--- --- -- ----- -- --- ---- -- --- ---- -- ------ ------<br>--- ----- -- ----,174806.29999995232,174805.09999990463,174630.429,174634.89999997616,174646.68,174813.512,,29,not
screen,html.Screen,2_1_0_1_30,2022-02-21T10:13:16.677Z,,,,,,,,,,,,,,,,,53,,,,,,,,,,,,,,149.68799992848653,,response,,,,99,,,,,,,Space,keypress(Space),,,,,,,,---- -- ----- -- ------ - ------- --- ----------<br>------------- ------ ------ ---- ---- ------- ----- -- ----<br>-------- ------- -- ---------- --- - --- ----- ----- ----<br>---- --- how ----- --- ---- ---- ------- ----- ---- -------<br>--- --- -- ----- -- --- ---- -- --- ---- -- ------ ------<br>--- ----- -- ----,174964.19999992847,174963.19999992847,174796.651,174806.5,174813.512,174980.231,,30,how
screen,html.Screen,2_1_0_1_31,2022-02-21T10:13:16.850Z,,,,,,,,,,,,,,,,,53,,,,,,,,,,,,,,155.96899992847466,,response,,,,99,,,,,,,Space,keypress(Space),,,,,,,,---- -- ----- -- ------ - ------- --- ----------<br>------------- ------ ------ ---- ---- ------- ----- -- ----<br>-------- ------- -- ---------- --- - --- ----- ----- ----<br>---- --- --- close --- ---- ---- ------- ----- ---- -------<br>--- --- -- ----- -- --- ---- -- --- ---- -- ------ ------<br>--- ----- -- ----,175137.59999990463,175136.19999992847,174963.754,174964.39999997616,174980.231,175146.568,,31,close
screen,html.Screen,2_1_0_1_32,2022-02-21T10:13:17.013Z,,,,,,,,,,,,,,,,,53,,,,,,,,,,,,,,153.13199992847512,,response,,,,99,,,,,,,Space,keypress(Space),,,,,,,,---- -- ----- -- ------ - ------- --- ----------<br>------------- ------ ------ ---- ---- ------- ----- -- ----<br>-------- ------- -- ---------- --- - --- ----- ----- ----<br>---- --- --- ----- you ---- ---- ------- ----- ---- -------<br>--- --- -- ----- -- --- ---- -- --- ---- -- ------ ------<br>--- ----- -- ----,175300.79999995232,175299.69999992847,175129.958,175137.79999995232,175146.568,175313.535,,32,you
screen,html.Screen,2_1_0_1_33,2022-02-21T10:13:17.179Z,,,,,,,,,,,,,,,,,53,,,,,,,,,,,,,,151.86499997615465,,response,,,,99,,,,,,,Space,keypress(Space),,,,,,,,---- -- ----- -- ------ - ------- --- ----------<br>------------- ------ ------ ---- ---- ------- ----- -- ----<br>-------- ------- -- ---------- --- - --- ----- ----- ----<br>---- --- --- ----- --- feel ---- ------- ----- ---- -------<br>--- --- -- ----- -- --- ---- -- --- ---- -- ------ ------<br>--- ----- -- ----,175466.5,175465.39999997616,175297.086,175300.89999997616,175313.535,175480.203,,33,feel
screen,html.Screen,2_1_0_1_34,2022-02-21T10:13:17.349Z,,,,,,,,,,,,,,,,,53,,,,,,,,,,,,,,155.09699995230767,,response,,,,99,,,,,,,Space,keypress(Space),,,,,,,,---- -- ----- -- ------ - ------- --- ----------<br>------------- ------ ------ ---- ---- ------- ----- -- ----<br>-------- ------- -- ---------- --- - --- ----- ----- ----<br>---- --- --- ----- --- ---- that ------- ----- ---- -------<br>--- --- -- ----- -- --- ---- -- --- ---- -- ------ ------<br>--- ----- -- ----,175636.39999997616,175635.29999995232,175463.723,175466.69999992847,175480.203,175646.618,,34,that
screen,html.Screen,2_1_0_1_35,2022-02-21T10:13:17.514Z,,,,,,,,,,,,,,,,,53,,,,,,,,,,,,,,153.88200000001234,,response,,,,99,,,,,,,Space,keypress(Space),,,,,,,,---- -- ----- -- ------ - ------- --- ----------<br>------------- ------ ------ ---- ---- ------- ----- -- ----<br>-------- ------- -- ---------- --- - --- ----- ----- ----<br>---- --- --- ----- --- ---- ---- matters ----- ---- -------<br>--- --- -- ----- -- --- ---- -- --- ---- -- ------ ------<br>--- ----- -- ----,175801.69999992847,175800.5,175630.367,175636.59999990463,175646.618,175813.165,,35,matters
screen,html.Screen,2_1_0_1_36,2022-02-21T10:13:17.681Z,,,,,,,,,,,,,,,,,53,,,,,,,,,,,,,,154.83499999999185,,response,,,,99,,,,,,,Space,keypress(Space),,,,,,,,"---- -- ----- -- ------ - ------- --- ----------<br>------------- ------ ------ ---- ---- ------- ----- -- ----<br>-------- ------- -- ---------- --- - --- ----- ----- ----<br>---- --- --- ----- --- ---- ---- ------- most, ---- -------<br>--- --- -- ----- -- --- ---- -- --- ---- -- ------ ------<br>--- ----- -- ----",175969,175968,175797.021,175801.89999997616,175813.165,175980.171,,36,"most,"
screen,html.Screen,2_1_0_1_37,2022-02-21T10:13:18.019Z,,,,,,,,,,,,,,,,,53,,,,,,,,,,,,,,324.4289999046305,,response,,,,99,,,,,,,Space,keypress(Space),,,,,,,,---- -- ----- -- ------ - ------- --- ----------<br>------------- ------ ------ ---- ---- ------- ----- -- ----<br>-------- ------- -- ---------- --- - --- ----- ----- ----<br>---- --- --- ----- --- ---- ---- ------- ----- it's -------<br>--- --- -- ----- -- --- ---- -- --- ---- -- ------ ------<br>--- ----- -- ----,176306.69999992847,176304.59999990463,175963.239,175969.19999992847,175980.171,176313.184,,37,it's
screen,html.Screen,2_1_0_1_38,2022-02-21T10:13:18.177Z,,,,,,,,,,,,,,,,,53,,,,,,,,,,,,,,150.21599997614976,,response,,,,99,,,,,,,Space,keypress(Space),,,,,,,,---- -- ----- -- ------ - ------- --- ----------<br>------------- ------ ------ ---- ---- ------- ----- -- ----<br>-------- ------- -- ---------- --- - --- ----- ----- ----<br>---- --- --- ----- --- ---- ---- ------- ----- ---- whether<br>--- --- -- ----- -- --- ---- -- --- ---- -- ------ ------<br>--- ----- -- ----,176465.09999990463,176463.39999997616,176297.018,176306.79999995232,176313.184,176480.139,,38,whether
screen,html.Screen,2_1_0_1_39,2022-02-21T10:13:18.342Z,,,,,,,,,,,,,,,,,53,,,,,,,,,,,,,,148.86100000000442,,response,,,,99,,,,,,,Space,keypress(Space),,,,,,,,---- -- ----- -- ------ - ------- --- ----------<br>------------- ------ ------ ---- ---- ------- ----- -- ----<br>-------- ------- -- ---------- --- - --- ----- ----- ----<br>---- --- --- ----- --- ---- ---- ------- ----- ---- -------<br>you --- -- ----- -- --- ---- -- --- ---- -- ------ ------<br>--- ----- -- ----,176630.09999990463,176629,176463.582,176465.19999992847,176480.139,176646.795,,39,you
screen,html.Screen,2_1_0_1_40,2022-02-21T10:13:18.513Z,,,,,,,,,,,,,,,,,53,,,,,,,,,,,,,,152.7049999999872,,response,,,,99,,,,,,,Space,keypress(Space),,,,,,,,---- -- ----- -- ------ - ------- --- ----------<br>------------- ------ ------ ---- ---- ------- ----- -- ----<br>-------- ------- -- ---------- --- - --- ----- ----- ----<br>---- --- --- ----- --- ---- ---- ------- ----- ---- -------<br>--- are -- ----- -- --- ---- -- --- ---- -- ------ ------<br>--- ----- -- ----,176800.59999990463,176799.5,176630.307,176630.29999995232,176646.795,176813.171,,40,are
screen,html.Screen,2_1_0_1_41,2022-02-21T10:13:18.695Z,,,,,,,,,,,,,,,,,53,,,,,,,,,,,,,,168.22899997615605,,response,,,,99,,,,,,,Space,keypress(Space),,,,,,,,---- -- ----- -- ------ - ------- --- ----------<br>------------- ------ ------ ---- ---- ------- ----- -- ----<br>-------- ------- -- ---------- --- - --- ----- ----- ----<br>---- --- --- ----- --- ---- ---- ------- ----- ---- -------<br>--- --- as ----- -- --- ---- -- --- ---- -- ------ ------<br>--- ----- -- ----,176982.39999997616,176981.39999997616,176796.973,176800.89999997616,176813.171,176996.775,,41,as
screen,html.Screen,2_1_0_1_42,2022-02-21T10:13:18.867Z,,,,,,,,,,,,,,,,,53,,,,,,,,,,,,,,156.8249999046384,,response,,,,99,,,,,,,Space,keypress(Space),,,,,,,,---- -- ----- -- ------ - ------- --- ----------<br>------------- ------ ------ ---- ---- ------- ----- -- ----<br>-------- ------- -- ---------- --- - --- ----- ----- ----<br>---- --- --- ----- --- ---- ---- ------- ----- ---- -------<br>--- --- -- close -- --- ---- -- --- ---- -- ------ ------<br>--- ----- -- ----,177154.69999992847,177153.59999990463,176980.283,176982.59999990463,176996.775,177163.428,,42,close
screen,html.Screen,2_1_0_1_43,2022-02-21T10:13:19.044Z,,,,,,,,,,,,,,,,,53,,,,,,,,,,,,,,166.77199992846,,response,,,,99,,,,,,,Space,keypress(Space),,,,,,,,---- -- ----- -- ------ - ------- --- ----------<br>------------- ------ ------ ---- ---- ------- ----- -- ----<br>-------- ------- -- ---------- --- - --- ----- ----- ----<br>---- --- --- ----- --- ---- ---- ------- ----- ---- -------<br>--- --- -- ----- as --- ---- -- --- ---- -- ------ ------<br>--- ----- -- ----,177331.19999992847,177330.19999992847,177146.86,177154.79999995232,177163.428,177346.751,,43,as
screen,html.Screen,2_1_0_1_44,2022-02-21T10:13:19.222Z,,,,,,,,,,,,,,,,,53,,,,,,,,,,,,,,161.84899990464328,,response,,,,99,,,,,,,Space,keypress(Space),,,,,,,,---- -- ----- -- ------ - ------- --- ----------<br>------------- ------ ------ ---- ---- ------- ----- -- ----<br>-------- ------- -- ---------- --- - --- ----- ----- ----<br>---- --- --- ----- --- ---- ---- ------- ----- ---- -------<br>--- --- -- ----- -- you ---- -- --- ---- -- ------ ------<br>--- ----- -- ----,177509.79999995232,177508.59999990463,177330.278,177331.39999997616,177346.751,177513.073,,44,you
screen,html.Screen,2_1_0_1_45,2022-02-21T10:13:19.411Z,,,,,,,,,,,,,,,,,53,,,,,,,,,,,,,,183.32699997615418,,response,,,,99,,,,,,,Space,keypress(Space),,,,,,,,---- -- ----- -- ------ - ------- --- ----------<br>------------- ------ ------ ---- ---- ------- ----- -- ----<br>-------- ------- -- ---------- --- - --- ----- ----- ----<br>---- --- --- ----- --- ---- ---- ------- ----- ---- -------<br>--- --- -- ----- -- --- want -- --- ---- -- ------ ------<br>--- ----- -- ----,177698.39999997616,177696.39999997616,177496.915,177510.09999990463,177513.073,177713.397,,45,want
screen,html.Screen,2_1_0_1_46,2022-02-21T10:13:19.505Z,,,,,,,,,,,,,,,,,53,,,,,,,,,,,,,,78.70299990463536,,response,,,,99,,,,,,,Space,keypress(Space),,,,,,,,---- -- ----- -- ------ - ------- --- ----------<br>------------- ------ ------ ---- ---- ------- ----- -- ----<br>-------- ------- -- ---------- --- - --- ----- ----- ----<br>---- --- --- ----- --- ---- ---- ------- ----- ---- -------<br>--- --- -- ----- -- --- ---- to --- ---- -- ------ ------<br>--- ----- -- ----,177793.09999990463,177792.09999990463,177697.22,177698.5,177713.397,177796.412,,46,to
screen,html.Screen,2_1_0_1_47,2022-02-21T10:13:19.630Z,,,,,,,,,,,,,,,,,53,,,,,,,,,,,,,,120.28799992846325,,response,,,,99,,,,,,,Space,keypress(Space),,,,,,,,"---- -- ----- -- ------ - ------- --- ----------<br>------------- ------ ------ ---- ---- ------- ----- -- ----<br>-------- ------- -- ---------- --- - --- ----- ----- ----<br>---- --- --- ----- --- ---- ---- ------- ----- ---- -------<br>--- --- -- ----- -- --- ---- -- be, ---- -- ------ ------<br>--- ----- -- ----",177917.79999995232,177916.69999992847,177780.248,177793.19999992847,177796.412,177930.05,,47,"be,"
screen,html.Screen,2_1_0_1_48,2022-02-21T10:13:19.845Z,,,,,,,,,,,,,,,,,53,,,,,,,,,,,,,,201.95000000001164,,response,,,,99,,,,,,,Space,keypress(Space),,,,,,,,---- -- ----- -- ------ - ------- --- ----------<br>------------- ------ ------ ---- ---- ------- ----- -- ----<br>-------- ------- -- ---------- --- - --- ----- ----- ----<br>---- --- --- ----- --- ---- ---- ------- ----- ---- -------<br>--- --- -- ----- -- --- ---- -- --- even -- ------ ------<br>--- ----- -- ----,178132.89999997616,178132,177913.552,177917.89999997616,177930.05,178146.709,,48,even
screen,html.Screen,2_1_0_1_49,2022-02-21T10:13:20.029Z,,,,,,,,,,,,,,,,,53,,,,,,,,,,,,,,168.59099995231372,,response,,,,99,,,,,,,Space,keypress(Space),,,,,,,,---- -- ----- -- ------ - ------- --- ----------<br>------------- ------ ------ ---- ---- ------- ----- -- ----<br>-------- ------- -- ---------- --- - --- ----- ----- ----<br>---- --- --- ----- --- ---- ---- ------- ----- ---- -------<br>--- --- -- ----- -- --- ---- -- --- ---- if ------ ------<br>--- ----- -- ----,178316.39999997616,178315.29999995232,178130.205,178133.09999990463,178146.709,178330.04,,49,if
screen,html.Screen,2_1_0_1_50,2022-02-21T10:13:20.200Z,,,,,,,,,,,,,,,,,53,,,,,,,,,,,,,,156.45999999999185,,response,,,,99,,,,,,,Space,keypress(Space),,,,,,,,---- -- ----- -- ------ - ------- --- ----------<br>------------- ------ ------ ---- ---- ------- ----- -- ----<br>-------- ------- -- ---------- --- - --- ----- ----- ----<br>---- --- --- ----- --- ---- ---- ------- ----- ---- -------<br>--- --- -- ----- -- --- ---- -- --- ---- -- that's ------<br>--- ----- -- ----,178487.5,178486.5,178313.059,178316.59999990463,178330.04,178496.366,,50,that's
screen,html.Screen,2_1_0_1_51,2022-02-21T10:13:20.588Z,,,,,,,,,,,,,,,,,53,,,,,,,,,,,,,,378.1339999999909,,response,,,,99,,,,,,,Space,keypress(Space),,,,,,,,---- -- ----- -- ------ - ------- --- ----------<br>------------- ------ ------ ---- ---- ------- ----- -- ----<br>-------- ------- -- ---------- --- - --- ----- ----- ----<br>---- --- --- ----- --- ---- ---- ------- ----- ---- -------<br>--- --- -- ----- -- --- ---- -- --- ---- -- ------ really<br>--- ----- -- ----,178875.69999992847,178874.5,178479.833,178487.59999990463,178496.366,178879.652,,51,really
screen,html.Screen,2_1_0_1_52,2022-02-21T10:13:20.855Z,,,,,,,,,,,,,,,,,53,,,,,,,,,,,,,,261.4479999046307,,response,,,,99,,,,,,,Space,keypress(Space),,,,,,,,---- -- ----- -- ------ - ------- --- ----------<br>------------- ------ ------ ---- ---- ------- ----- -- ----<br>-------- ------- -- ---------- --- - --- ----- ----- ----<br>---- --- --- ----- --- ---- ---- ------- ----- ---- -------<br>--- --- -- ----- -- --- ---- -- --- ---- -- ------ ------<br>not ----- -- ----,179142.39999997616,179141.09999990463,178863.508,178875.79999995232,178879.652,179146.443,,52,not
screen,html.Screen,2_1_0_1_53,2022-02-21T10:13:21.026Z,,,,,,,,,,,,,,,,,53,,,,,,,,,,,,,,166.25699992847512,,response,,,,99,,,,,,,Space,keypress(Space),,,,,,,,---- -- ----- -- ------ - ------- --- ----------<br>------------- ------ ------ ---- ---- ------- ----- -- ----<br>-------- ------- -- ---------- --- - --- ----- ----- ----<br>---- --- --- ----- --- ---- ---- ------- ----- ---- -------<br>--- --- -- ----- -- --- ---- -- --- ---- -- ------ ------<br>--- close -- ----,179313.79999995232,179312.69999992847,179130.126,179142.5,179146.443,179330.024,,53,close
screen,html.Screen,2_1_0_1_54,2022-02-21T10:13:21.299Z,,,,,,,,,,,,,,,,,53,,,,,,,,,,,,,,255.57599990462768,,response,,,,99,,,,,,,Space,keypress(Space),,,,,,,,---- -- ----- -- ------ - ------- --- ----------<br>------------- ------ ------ ---- ---- ------- ----- -- ----<br>-------- ------- -- ---------- --- - --- ----- ----- ----<br>---- --- --- ----- --- ---- ---- ------- ----- ---- -------<br>--- --- -- ----- -- --- ---- -- --- ---- -- ------ ------<br>--- ----- at ----,179586.79999995232,179585.59999990463,179313.444,179314,179330.024,179596.605,,54,at
screen,html.Screen,2_1_0_1_55,2022-02-21T10:13:21.628Z,,,,,,,,,,,,,,,,,53,,,,,,,,,,,,,,317.8949999999895,,response,,,,99,,,,,,,Space,keypress(Space),,,,,,,,---- -- ----- -- ------ - ------- --- ----------<br>------------- ------ ------ ---- ---- ------- ----- -- ----<br>-------- ------- -- ---------- --- - --- ----- ----- ----<br>---- --- --- ----- --- ---- ---- ------- ----- ---- -------<br>--- --- -- ----- -- --- ---- -- --- ---- -- ------ ------<br>--- ----- -- all.,179915.39999997616,179914.5,179580.015,179586.89999997616,179596.605,179929.636,,55,all.
Item 99,flow.Loop,2_1_0_1,2022-02-21T10:13:21.628Z,,,,,,,,,,,,,,,,,,,,,,,,,,,,,,,16333.87599999999,,completion,,,,,A,,,,,,,,,,,silence,,,,,179915.79999995232,179914.5,163547.758,163548.89999997616,163580.624,179929.636,,,
Question 1,html.Screen,2_1_0_2,2022-02-21T10:13:27.065Z,,,,,,,,,,,,,,,,,,,,,,,,,,,,true,FALSE,,5420.864000000001,,response,,,,99,A,,,,,,FALSE,click #choice-2,,,,silence,,,,,185352.09999990463,185350.5,179913.007,179915.89999997616,179929.636,185363.158,,,
Question 2,html.Screen,2_1_0_3,2022-02-21T10:13:29.808Z,,,,,,,,,,,,,,,,,,,,,,,,,,,,true,TRUE,,2730.4419999046368,,response,,,,99,A,,,,,,TRUE,click #choice-1,,,,silence,,,,,188095.29999995232,188093.59999990463,185346.083,185352.39999997616,185363.158,188095.797,,,
Item 99,flow.Sequence,2_1_0,2022-02-21T10:13:29.808Z,,,,,,,,,,,,,,,,,,,,,,,,,,,,,,,34529.048999904626,,completion,,,,,,,,,,,,,,,,,,,,,188095.59999990463,188093.59999990463,153547.895,153562.09999990463,153564.551,188095.797,,,
Holding screen,html.Screen,2_1_1_0,2022-02-21T10:13:39.792Z,,,,,,,,,,,,,,,,,,,,,,,,,,,,,,,9999.328999999998,,timeout,,,,,,,,,,,,,,,,,,,,,198079.89999997616,198078.996,188079.137,188095.79999995232,188095.797,198095.126,,,
screen,html.Screen,2_1_1_1_0,2022-02-21T10:13:42.057Z,,,,,,,,,,,,,,,,,54,,,,,,,,,,,,,,2247.673999952327,,response,,,,100,,,,,,,Space,keypress(Space),,,,,,,,At --- ---- --- ------ ----- ------- ---- -- --- ------- --<br>------- ---------- ------ -- ----- -- ----- -- ---- ------<br>--- ----- --- --- ------ -------- ----- --- ------ ----- --<br>----- ----- ---------- --- --- ------ ------ ---- -- ------<br>------- --- ------ ----- --- ---- ------- -- ---- --- --<br>------- ------,200344.19999992847,200342.79999995232,198078.996,198080.09999990463,198095.126,200362.192,,0,At
screen,html.Screen,2_1_1_1_1,2022-02-21T10:13:42.463Z,,,,,,,,,,,,,,,,,54,,,,,,,,,,,,,,387.6079999523063,,response,,,,100,,,,,,,Space,keypress(Space),,,,,,,,-- the ---- --- ------ ----- ------- ---- -- --- ------- --<br>------- ---------- ------ -- ----- -- ----- -- ---- ------<br>--- ----- --- --- ------ -------- ----- --- ------ ----- --<br>----- ----- ---------- --- --- ------ ------ ---- -- ------<br>------- --- ------ ----- --- ---- ------- -- ---- --- --<br>------- ------,200750.79999995232,200749.79999995232,200328.85,200344.39999997616,200362.192,200761.707,,1,the
screen,html.Screen,2_1_1_1_2,2022-02-21T10:13:42.823Z,,,,,,,,,,,,,,,,,54,,,,,,,,,,,,,,347.8929999046377,,response,,,,100,,,,,,,Space,keypress(Space),,,,,,,,-- --- time --- ------ ----- ------- ---- -- --- ------- --<br>------- ---------- ------ -- ----- -- ----- -- ---- ------<br>--- ----- --- --- ------ -------- ----- --- ------ ----- --<br>----- ----- ---------- --- --- ------ ------ ---- -- ------<br>------- --- ------ ----- --- ---- ------- -- ---- --- --<br>------- ------,201110.59999990463,201109.59999990463,200745.304,200750.89999997616,200761.707,201128.369,,2,time
screen,html.Screen,2_1_1_1_3,2022-02-21T10:13:43.184Z,,,,,,,,,,,,,,,,,54,,,,,,,,,,,,,,342.7309999046265,,response,,,,100,,,,,,,Space,keypress(Space),,,,,,,,-- --- ---- the ------ ----- ------- ---- -- --- ------- --<br>------- ---------- ------ -- ----- -- ----- -- ---- ------<br>--- ----- --- --- ------ -------- ----- --- ------ ----- --<br>----- ----- ---------- --- --- ------ ------ ---- -- ------<br>------- --- ------ ----- --- ---- ------- -- ---- --- --<br>------- ------,201472.09999990463,201471.09999990463,201095.238,201110.79999995232,201128.369,201478.237,,3,the
screen,html.Screen,2_1_1_1_4,2022-02-21T10:13:43.491Z,,,,,,,,,,,,,,,,,54,,,,,,,,,,,,,,299.06299995232257,,response,,,,100,,,,,,,Space,keypress(Space),,,,,,,,-- --- ---- --- French ----- ------- ---- -- --- ------- --<br>------- ---------- ------ -- ----- -- ----- -- ---- ------<br>--- ----- --- --- ------ -------- ----- --- ------ ----- --<br>----- ----- ---------- --- --- ------ ------ ---- -- ------<br>------- --- ------ ----- --- ---- ------- -- ---- --- --<br>------- ------,201778.5,201777.29999995232,201461.694,201472.39999997616,201478.237,201795.252,,4,French
screen,html.Screen,2_1_1_1_5,2022-02-21T10:13:43.860Z,,,,,,,,,,,,,,,,,54,,,,,,,,,,,,,,350.94799992846674,,response,,,,100,,,,,,,Space,keypress(Space),,,,,,,,-- --- ---- --- ------ crown ------- ---- -- --- ------- --<br>------- ---------- ------ -- ----- -- ----- -- ---- ------<br>--- ----- --- --- ------ -------- ----- --- ------ ----- --<br>----- ----- ---------- --- --- ------ ------ ---- -- ------<br>------- --- ------ ----- --- ---- ------- -- ---- --- --<br>------- ------,202147.29999995232,202146.19999992847,201778.756,201778.59999990463,201795.252,202161.901,,5,crown
screen,html.Screen,2_1_1_1_6,2022-02-21T10:13:44.199Z,,,,,,,,,,,,,,,,,54,,,,,,,,,,,,,,323.99899997614557,,response,,,,100,,,,,,,Space,keypress(Space),,,,,,,,-- --- ---- --- ------ ----- secured ---- -- --- ------- --<br>------- ---------- ------ -- ----- -- ----- -- ---- ------<br>--- ----- --- --- ------ -------- ----- --- ------ ----- --<br>----- ----- ---------- --- --- ------ ------ ---- -- ------<br>------- --- ------ ----- --- ---- ------- -- ---- --- --<br>------- ------,202487,202485.89999997616,202145.49,202147.39999997616,202161.901,202494.832,,6,secured
screen,html.Screen,2_1_1_1_7,2022-02-21T10:13:44.563Z,,,,,,,,,,,,,,,,,54,,,,,,,,,,,,,,354.36799992847955,,response,,,,100,,,,,,,Space,keypress(Space),,,,,,,,-- --- ---- --- ------ ----- ------- much -- --- ------- --<br>------- ---------- ------ -- ----- -- ----- -- ---- ------<br>--- ----- --- --- ------ -------- ----- --- ------ ----- --<br>----- ----- ---------- --- --- ------ ------ ---- -- ------<br>------- --- ------ ----- --- ---- ------- -- ---- --- --<br>------- ------,202850.39999997616,202849.19999992847,202478.735,202487.09999990463,202494.832,202861.517,,7,much
screen,html.Screen,2_1_1_1_8,2022-02-21T10:13:45.566Z,,,,,,,,,,,,,,,,,54,,,,,,,,,,,,,,991.08299990464,,response,,,,100,,,,,,,Space,keypress(Space),,,,,,,,-- --- ---- --- ------ ----- ------- ---- of --- ------- --<br>------- ---------- ------ -- ----- -- ----- -- ---- ------<br>--- ----- --- --- ------ -------- ----- --- ------ ----- --<br>----- ----- ---------- --- --- ------ ------ ---- -- ------<br>------- --- ------ ----- --- ---- ------- -- ---- --- --<br>------- ------,203853.69999992847,203852.59999990463,202844.933,202850.5,202861.517,203861.414,,8,of
screen,html.Screen,2_1_1_1_9,2022-02-21T10:13:45.832Z,,,,,,,,,,,,,,,,,54,,,,,,,,,,,,,,256.78599992848467,,response,,,,100,,,,,,,Space,keypress(Space),,,,,,,,-- --- ---- --- ------ ----- ------- ---- -- its ------- --<br>------- ---------- ------ -- ----- -- ----- -- ---- ------<br>--- ----- --- --- ------ -------- ----- --- ------ ----- --<br>----- ----- ---------- --- --- ------ ------ ---- -- ------<br>------- --- ------ ----- --- ---- ------- -- ---- --- --<br>------- ------,204119.29999995232,204118.19999992847,203845.138,203853.89999997616,203861.414,204128.175,,9,its
screen,html.Screen,2_1_1_1_10,2022-02-21T10:13:46.116Z,,,,,,,,,,,,,,,,,54,,,,,,,,,,,,,,274.1249999523279,,response,,,,100,,,,,,,Space,keypress(Space),,,,,,,,-- --- ---- --- ------ ----- ------- ---- -- --- revenue --<br>------- ---------- ------ -- ----- -- ----- -- ---- ------<br>--- ----- --- --- ------ -------- ----- --- ------ ----- --<br>----- ----- ---------- --- --- ------ ------ ---- -- ------<br>------- --- ------ ----- --- ---- ------- -- ---- --- --<br>------- ------,204403.39999997616,204402.29999995232,204111.467,204119.39999997616,204128.175,204411.389,,10,revenue
screen,html.Screen,2_1_1_1_11,2022-02-21T10:13:46.543Z,,,,,,,,,,,,,,,,,54,,,,,,,,,,,,,,417.81099992847885,,response,,,,100,,,,,,,Space,keypress(Space),,,,,,,,-- --- ---- --- ------ ----- ------- ---- -- --- ------- by<br>------- ---------- ------ -- ----- -- ----- -- ---- ------<br>--- ----- --- --- ------ -------- ----- --- ------ ----- --<br>----- ----- ---------- --- --- ------ ------ ---- -- ------<br>------- --- ------ ----- --- ---- ------- -- ---- --- --<br>------- ------,204830.29999995232,204829.19999992847,204395.085,204403.59999990463,204411.389,204845.081,,11,by
screen,html.Screen,2_1_1_1_12,2022-02-21T10:13:46.826Z,,,,,,,,,,,,,,,,,54,,,,,,,,,,,,,,267.2189999523107,,response,,,,100,,,,,,,Space,keypress(Space),,,,,,,,-- --- ---- --- ------ ----- ------- ---- -- --- ------- --<br>issuing ---------- ------ -- ----- -- ----- -- ---- ------<br>--- ----- --- --- ------ -------- ----- --- ------ ----- --<br>----- ----- ---------- --- --- ------ ------ ---- -- ------<br>------- --- ------ ----- --- ---- ------- -- ---- --- --<br>------- ------,205113.29999995232,205112.29999995232,204828.388,204830.5,204845.081,205128.105,,12,issuing
screen,html.Screen,2_1_1_1_13,2022-02-21T10:13:47.028Z,,,,,,,,,,,,,,,,,54,,,,,,,,,,,,,,186.6949999523058,,response,,,,100,,,,,,,Space,keypress(Space),,,,,,,,-- --- ---- --- ------ ----- ------- ---- -- --- ------- --<br>------- government ------ -- ----- -- ----- -- ---- ------<br>--- ----- --- --- ------ -------- ----- --- ------ ----- --<br>----- ----- ---------- --- --- ------ ------ ---- -- ------<br>------- --- ------ ----- --- ---- ------- -- ---- --- --<br>------- ------,205315.89999997616,205314.79999995232,205111.704,205113.5,205128.105,205328.379,,13,government
screen,html.Screen,2_1_1_1_14,2022-02-21T10:13:47.261Z,,,,,,,,,,,,,,,,,54,,,,,,,,,,,,,,218.92099995233002,,response,,,,100,,,,,,,Space,keypress(Space),,,,,,,,-- --- ---- --- ------ ----- ------- ---- -- --- ------- --<br>------- ---------- bonds. -- ----- -- ----- -- ---- ------<br>--- ----- --- --- ------ -------- ----- --- ------ ----- --<br>----- ----- ---------- --- --- ------ ------ ---- -- ------<br>------- --- ------ ----- --- ---- ------- -- ---- --- --<br>------- ------,205548.29999995232,205547.29999995232,205311.683,205316.09999990463,205328.379,205561.704,,14,bonds.
screen,html.Screen,2_1_1_1_15,2022-02-21T10:13:47.628Z,,,,,,,,,,,,,,,,,54,,,,,,,,,,,,,,353.0959999523184,,response,,,,100,,,,,,,Space,keypress(Space),,,,,,,,-- --- ---- --- ------ ----- ------- ---- -- --- ------- --<br>------- ---------- ------ In ----- -- ----- -- ---- ------<br>--- ----- --- --- ------ -------- ----- --- ------ ----- --<br>----- ----- ---------- --- --- ------ ------ ---- -- ------<br>------- --- ------ ----- --- ---- ------- -- ---- --- --<br>------- ------,205915.89999997616,205914.79999995232,205545.004,205548.5,205561.704,205928.343,,15,In
screen,html.Screen,2_1_1_1_16,2022-02-21T10:13:47.969Z,,,,,,,,,,,,,,,,,54,,,,,,,,,,,,,,327.6570000000065,,response,,,,100,,,,,,,Space,keypress(Space),,,,,,,,"-- --- ---- --- ------ ----- ------- ---- -- --- ------- --<br>------- ---------- ------ -- 1727, -- ----- -- ---- ------<br>--- ----- --- --- ------ -------- ----- --- ------ ----- --<br>----- ----- ---------- --- --- ------ ------ ---- -- ------<br>------- --- ------ ----- --- ---- ------- -- ---- --- --<br>------- ------",206257.09999990463,206256,205911.569,205916,205928.343,206261.325,,16,"1727,"
screen,html.Screen,2_1_1_1_17,2022-02-21T10:13:48.304Z,,,,,,,,,,,,,,,,,54,,,,,,,,,,,,,,328.97499995230464,,response,,,,100,,,,,,,Space,keypress(Space),,,,,,,,-- --- ---- --- ------ ----- ------- ---- -- --- ------- --<br>------- ---------- ------ -- ----- in ----- -- ---- ------<br>--- ----- --- --- ------ -------- ----- --- ------ ----- --<br>----- ----- ---------- --- --- ------ ------ ---- -- ------<br>------- --- ------ ----- --- ---- ------- -- ---- --- --<br>------- ------,206591.39999997616,206590.29999995232,206244.966,206257.29999995232,206261.325,206594.633,,17,in
screen,html.Screen,2_1_1_1_18,2022-02-21T10:13:48.659Z,,,,,,,,,,,,,,,,,54,,,,,,,,,,,,,,350.86699999999837,,response,,,,100,,,,,,,Space,keypress(Space),,,,,,,,-- --- ---- --- ------ ----- ------- ---- -- --- ------- --<br>------- ---------- ------ -- ----- -- order -- ---- ------<br>--- ----- --- --- ------ -------- ----- --- ------ ----- --<br>----- ----- ---------- --- --- ------ ------ ---- -- ------<br>------- --- ------ ----- --- ---- ------- -- ---- --- --<br>------- ------,206946.59999990463,206945.5,206578.279,206591.59999990463,206594.633,206961.779,,18,order
screen,html.Screen,2_1_1_1_19,2022-02-21T10:13:48.911Z,,,,,,,,,,,,,,,,,54,,,,,,,,,,,,,,236.02099995230674,,response,,,,100,,,,,,,Space,keypress(Space),,,,,,,,-- --- ---- --- ------ ----- ------- ---- -- --- ------- --<br>------- ---------- ------ -- ----- -- ----- to ---- ------<br>--- ----- --- --- ------ -------- ----- --- ------ ----- --<br>----- ----- ---------- --- --- ------ ------ ---- -- ------<br>------- --- ------ ----- --- ---- ------- -- ---- --- --<br>------- ------,207199,207197.79999995232,206944.956,206946.69999992847,206961.779,207211.589,,19,to
screen,html.Screen,2_1_1_1_20,2022-02-21T10:13:49.124Z,,,,,,,,,,,,,,,,,54,,,,,,,,,,,,,,199.01099990462535,,response,,,,100,,,,,,,Space,keypress(Space),,,,,,,,-- --- ---- --- ------ ----- ------- ---- -- --- ------- --<br>------- ---------- ------ -- ----- -- ----- -- save ------<br>--- ----- --- --- ------ -------- ----- --- ------ ----- --<br>----- ----- ---------- --- --- ------ ------ ---- -- ------<br>------- --- ------ ----- --- ---- ------- -- ---- --- --<br>------- ------,207411.69999992847,207410.59999990463,207194.891,207199.19999992847,207211.589,207428.246,,20,save
screen,html.Screen,2_1_1_1_21,2022-02-21T10:13:49.314Z,,,,,,,,,,,,,,,,,54,,,,,,,,,,,,,,171.9539999284607,,response,,,,100,,,,,,,Space,keypress(Space),,,,,,,,"-- --- ---- --- ------ ----- ------- ---- -- --- ------- --<br>------- ---------- ------ -- ----- -- ----- -- ---- money,<br>--- ----- --- --- ------ -------- ----- --- ------ ----- --<br>----- ----- ---------- --- --- ------ ------ ---- -- ------<br>------- --- ------ ----- --- ---- ------- -- ---- --- --<br>------- ------",207601.39999997616,207600.19999992847,207411.558,207411.89999997616,207428.246,207611.583,,21,"money,"
screen,html.Screen,2_1_1_1_22,2022-02-21T10:13:49.630Z,,,,,,,,,,,,,,,,,54,,,,,,,,,,,,,,304.716999952303,,response,,,,100,,,,,,,Space,keypress(Space),,,,,,,,-- --- ---- --- ------ ----- ------- ---- -- --- ------- --<br>------- ---------- ------ -- ----- -- ----- -- ---- ------<br>the ----- --- --- ------ -------- ----- --- ------ ----- --<br>----- ----- ---------- --- --- ------ ------ ---- -- ------<br>------- --- ------ ----- --- ---- ------- -- ---- --- --<br>------- ------,207917.29999995232,207916.29999995232,207595.689,207601.5,207611.583,207928.325,,22,the
screen,html.Screen,2_1_1_1_23,2022-02-21T10:13:49.821Z,,,,,,,,,,,,,,,,,54,,,,,,,,,,,,,,179.47499995230464,,response,,,,100,,,,,,,Space,keypress(Space),,,,,,,,-- --- ---- --- ------ ----- ------- ---- -- --- ------- --<br>------- ---------- ------ -- ----- -- ----- -- ---- ------<br>--- state --- --- ------ -------- ----- --- ------ ----- --<br>----- ----- ---------- --- --- ------ ------ ---- -- ------<br>------- --- ------ ----- --- ---- ------- -- ---- --- --<br>------- ------,208108.89999997616,208107.79999995232,207911.665,207917.5,207928.325,208111.228,,23,state
screen,html.Screen,2_1_1_1_24,2022-02-21T10:13:50.008Z,,,,,,,,,,,,,,,,,54,,,,,,,,,,,,,,183.2719999999972,,response,,,,100,,,,,,,Space,keypress(Space),,,,,,,,-- --- ---- --- ------ ----- ------- ---- -- --- ------- --<br>------- ---------- ------ -- ----- -- ----- -- ---- ------<br>--- ----- cut --- ------ -------- ----- --- ------ ----- --<br>----- ----- ---------- --- --- ------ ------ ---- -- ------<br>------- --- ------ ----- --- ---- ------- -- ---- --- --<br>------- ------,208295.59999990463,208294.5,208094.76,208109,208111.228,208311.37,,24,cut
screen,html.Screen,2_1_1_1_25,2022-02-21T10:13:50.181Z,,,,,,,,,,,,,,,,,54,,,,,,,,,,,,,,156.42999995232094,,response,,,,100,,,,,,,Space,keypress(Space),,,,,,,,-- --- ---- --- ------ ----- ------- ---- -- --- ------- --<br>------- ---------- ------ -- ----- -- ----- -- ---- ------<br>--- ----- --- the ------ -------- ----- --- ------ ----- --<br>----- ----- ---------- --- --- ------ ------ ---- -- ------<br>------- --- ------ ----- --- ---- ------- -- ---- --- --<br>------- ------,208468.89999997616,208467.79999995232,208294.839,208295.69999992847,208311.37,208478.179,,25,the
screen,html.Screen,2_1_1_1_26,2022-02-21T10:13:50.354Z,,,,,,,,,,,,,,,,,54,,,,,,,,,,,,,,162.72099997615442,,response,,,,100,,,,,,,Space,keypress(Space),,,,,,,,-- --- ---- --- ------ ----- ------- ---- -- --- ------- --<br>------- ---------- ------ -- ----- -- ----- -- ---- ------<br>--- ----- --- --- bonds' -------- ----- --- ------ ----- --<br>----- ----- ---------- --- --- ------ ------ ---- -- ------<br>------- --- ------ ----- --- ---- ------- -- ---- --- --<br>------- ------,208642,208640.89999997616,208461.668,208469.09999990463,208478.179,208644.534,,26,bonds'
screen,html.Screen,2_1_1_1_27,2022-02-21T10:13:50.702Z,,,,,,,,,,,,,,,,,54,,,,,,,,,,,,,,343.7659999523021,,response,,,,100,,,,,,,Space,keypress(Space),,,,,,,,-- --- ---- --- ------ ----- ------- ---- -- --- ------- --<br>------- ---------- ------ -- ----- -- ----- -- ---- ------<br>--- ----- --- --- ------ interest ----- --- ------ ----- --<br>----- ----- ---------- --- --- ------ ------ ---- -- ------<br>------- --- ------ ----- --- ---- ------- -- ---- --- --<br>------- ------,208989.5,208988.29999995232,208628.224,208642.19999992847,208644.534,208994.474,,27,interest
screen,html.Screen,2_1_1_1_28,2022-02-21T10:13:50.994Z,,,,,,,,,,,,,,,,,54,,,,,,,,,,,,,,285.62599990464514,,response,,,,100,,,,,,,Space,keypress(Space),,,,,,,,-- --- ---- --- ------ ----- ------- ---- -- --- ------- --<br>------- ---------- ------ -- ----- -- ----- -- ---- ------<br>--- ----- --- --- ------ -------- rate. --- ------ ----- --<br>----- ----- ---------- --- --- ------ ------ ---- -- ------<br>------- --- ------ ----- --- ---- ------- -- ---- --- --<br>------- ------,209281.19999992847,209280.09999990463,208978.565,208989.59999990463,208994.474,209294.568,,28,rate.
screen,html.Screen,2_1_1_1_29,2022-02-21T10:13:51.272Z,,,,,,,,,,,,,,,,,54,,,,,,,,,,,,,,264.33199997615884,,response,,,,100,,,,,,,Space,keypress(Space),,,,,,,,-- --- ---- --- ------ ----- ------- ---- -- --- ------- --<br>------- ---------- ------ -- ----- -- ----- -- ---- ------<br>--- ----- --- --- ------ -------- ----- The ------ ----- --<br>----- ----- ---------- --- --- ------ ------ ---- -- ------<br>------- --- ------ ----- --- ---- ------- -- ---- --- --<br>------- ------,209560.09999990463,209558.89999997616,209278.433,209281.39999997616,209294.568,209577.857,,29,The
screen,html.Screen,2_1_1_1_30,2022-02-21T10:13:51.519Z,,,,,,,,,,,,,,,,,54,,,,,,,,,,,,,,228.2429999046435,,response,,,,100,,,,,,,Space,keypress(Space),,,,,,,,-- --- ---- --- ------ ----- ------- ---- -- --- ------- --<br>------- ---------- ------ -- ----- -- ----- -- ---- ------<br>--- ----- --- --- ------ -------- ----- --- market ----- --<br>----- ----- ---------- --- --- ------ ------ ---- -- ------<br>------- --- ------ ----- --- ---- ------- -- ---- --- --<br>------- ------,209807.09999990463,209806.09999990463,209544.525,209560.29999995232,209577.857,209811.29,,30,market
screen,html.Screen,2_1_1_1_31,2022-02-21T10:13:51.802Z,,,,,,,,,,,,,,,,,54,,,,,,,,,,,,,,276.9099999284663,,response,,,,100,,,,,,,Space,keypress(Space),,,,,,,,-- --- ---- --- ------ ----- ------- ---- -- --- ------- --<br>------- ---------- ------ -- ----- -- ----- -- ---- ------<br>--- ----- --- --- ------ -------- ----- --- ------ value --<br>----- ----- ---------- --- --- ------ ------ ---- -- ------<br>------- --- ------ ----- --- ---- ------- -- ---- --- --<br>------- ------,210089.29999995232,210088.19999992847,209794.741,209807.19999992847,209811.29,210094.383,,31,value
screen,html.Screen,2_1_1_1_32,2022-02-21T10:13:52.136Z,,,,,,,,,,,,,,,,,54,,,,,,,,,,,,,,327.71699990463094,,response,,,,100,,,,,,,Space,keypress(Space),,,,,,,,-- --- ---- --- ------ ----- ------- ---- -- --- ------- --<br>------- ---------- ------ -- ----- -- ----- -- ---- ------<br>--- ----- --- --- ------ -------- ----- --- ------ ----- of<br>----- ----- ---------- --- --- ------ ------ ---- -- ------<br>------- --- ------ ----- --- ---- ------- -- ---- --- --<br>------- ------,210423.5,210422.09999990463,210078.265,210089.39999997616,210094.383,210428.14,,32,of
screen,html.Screen,2_1_1_1_33,2022-02-21T10:13:52.357Z,,,,,,,,,,,,,,,,,54,,,,,,,,,,,,,,215.55999992846046,,response,,,,100,,,,,,,Space,keypress(Space),,,,,,,,-- --- ---- --- ------ ----- ------- ---- -- --- ------- --<br>------- ---------- ------ -- ----- -- ----- -- ---- ------<br>--- ----- --- --- ------ -------- ----- --- ------ ----- --<br>these ----- ---------- --- --- ------ ------ ---- -- ------<br>------- --- ------ ----- --- ---- ------- -- ---- --- --<br>------- ------,210644.79999995232,210643.69999992847,210411.436,210423.69999992847,210428.14,210661.44,,33,these
screen,html.Screen,2_1_1_1_34,2022-02-21T10:13:52.544Z,,,,,,,,,,,,,,,,,54,,,,,,,,,,,,,,169.35999995231396,,response,,,,100,,,,,,,Space,keypress(Space),,,,,,,,-- --- ---- --- ------ ----- ------- ---- -- --- ------- --<br>------- ---------- ------ -- ----- -- ----- -- ---- ------<br>--- ----- --- --- ------ -------- ----- --- ------ ----- --<br>----- bonds ---------- --- --- ------ ------ ---- -- ------<br>------- --- ------ ----- --- ---- ------- -- ---- --- --<br>------- ------,210831.79999995232,210830.79999995232,210644.737,210644.89999997616,210661.44,210844.464,,34,bonds
screen,html.Screen,2_1_1_1_35,2022-02-21T10:13:52.722Z,,,,,,,,,,,,,,,,,54,,,,,,,,,,,,,,164.53599999999278,,response,,,,100,,,,,,,Space,keypress(Space),,,,,,,,"-- --- ---- --- ------ ----- ------- ---- -- --- ------- --<br>------- ---------- ------ -- ----- -- ----- -- ---- ------<br>--- ----- --- --- ------ -------- ----- --- ------ ----- --<br>----- ----- plummeted, --- --- ------ ------ ---- -- ------<br>------- --- ------ ----- --- ---- ------- -- ---- --- --<br>------- ------",211010.09999990463,211009,210828.224,210832.09999990463,210844.464,211044.694,,35,"plummeted,"
screen,html.Screen,2_1_1_1_36,2022-02-21T10:13:53.102Z,,,,,,,,,,,,,,,,,54,,,,,,,,,,,,,,343.8060000000114,,response,,,,100,,,,,,,Space,keypress(Space),,,,,,,,-- --- ---- --- ------ ----- ------- ---- -- --- ------- --<br>------- ---------- ------ -- ----- -- ----- -- ---- ------<br>--- ----- --- --- ------ -------- ----- --- ------ ----- --<br>----- ----- ---------- and --- ------ ------ ---- -- ------<br>------- --- ------ ----- --- ---- ------- -- ---- --- --<br>------- ------,211389.59999990463,211388.5,211028.205,211010.29999995232,211044.694,211394.336,,36,and
screen,html.Screen,2_1_1_1_37,2022-02-21T10:13:53.603Z,,,,,,,,,,,,,,,,,54,,,,,,,,,,,,,,494.96399995230604,,response,,,,100,,,,,,,Space,keypress(Space),,,,,,,,-- --- ---- --- ------ ----- ------- ---- -- --- ------- --<br>------- ---------- ------ -- ----- -- ----- -- ---- ------<br>--- ----- --- --- ------ -------- ----- --- ------ ----- --<br>----- ----- ---------- --- the ------ ------ ---- -- ------<br>------- --- ------ ----- --- ---- ------- -- ---- --- --<br>------- ------,211890.39999997616,211889.29999995232,211377.752,211389.79999995232,211394.336,211894.56,,37,the
screen,html.Screen,2_1_1_1_38,2022-02-21T10:13:53.933Z,,,,,,,,,,,,,,,,,54,,,,,,,,,,,,,,325.13999992847675,,response,,,,100,,,,,,,Space,keypress(Space),,,,,,,,-- --- ---- --- ------ ----- ------- ---- -- --- ------- --<br>------- ---------- ------ -- ----- -- ----- -- ---- ------<br>--- ----- --- --- ------ -------- ----- --- ------ ----- --<br>----- ----- ---------- --- --- market ------ ---- -- ------<br>------- --- ------ ----- --- ---- ------- -- ---- --- --<br>------- ------,212220.79999995232,212219.69999992847,211878.148,211890.5,211894.56,212227.626,,38,market
screen,html.Screen,2_1_1_1_39,2022-02-21T10:13:54.246Z,,,,,,,,,,,,,,,,,54,,,,,,,,,,,,,,303.77399997616885,,response,,,,100,,,,,,,Space,keypress(Space),,,,,,,,-- --- ---- --- ------ ----- ------- ---- -- --- ------- --<br>------- ---------- ------ -- ----- -- ----- -- ---- ------<br>--- ----- --- --- ------ -------- ----- --- ------ ----- --<br>----- ----- ---------- --- --- ------ became ---- -- ------<br>------- --- ------ ----- --- ---- ------- -- ---- --- --<br>------- ------,212533.79999995232,212531.39999997616,212211.026,212221.09999990463,212227.626,212544.228,,39,became
screen,html.Screen,2_1_1_1_40,2022-02-21T10:13:54.529Z,,,,,,,,,,,,,,,,,54,,,,,,,,,,,,,,271.5719999523135,,response,,,,100,,,,,,,Space,keypress(Space),,,,,,,,-- --- ---- --- ------ ----- ------- ---- -- --- ------- --<br>------- ---------- ------ -- ----- -- ----- -- ---- ------<br>--- ----- --- --- ------ -------- ----- --- ------ ----- --<br>----- ----- ---------- --- --- ------ ------ wary -- ------<br>------- --- ------ ----- --- ---- ------- -- ---- --- --<br>------- ------,212816.79999995232,212815.79999995232,212527.673,212534,212544.228,212827.598,,40,wary
screen,html.Screen,2_1_1_1_41,2022-02-21T10:13:54.736Z,,,,,,,,,,,,,,,,,54,,,,,,,,,,,,,,195.00199990463443,,response,,,,100,,,,,,,Space,keypress(Space),,,,,,,,-- --- ---- --- ------ ----- ------- ---- -- --- ------- --<br>------- ---------- ------ -- ----- -- ----- -- ---- ------<br>--- ----- --- --- ------ -------- ----- --- ------ ----- --<br>----- ----- ---------- --- --- ------ ------ ---- of ------<br>------- --- ------ ----- --- ---- ------- -- ---- --- --<br>------- ------,213023.69999992847,213022.59999990463,212810.926,212817,212827.598,213027.841,,41,of
screen,html.Screen,2_1_1_1_42,2022-02-21T10:13:54.919Z,,,,,,,,,,,,,,,,,54,,,,,,,,,,,,,,178.25899990464677,,response,,,,100,,,,,,,Space,keypress(Space),,,,,,,,-- --- ---- --- ------ ----- ------- ---- -- --- ------- --<br>------- ---------- ------ -- ----- -- ----- -- ---- ------<br>--- ----- --- --- ------ -------- ----- --- ------ ----- --<br>----- ----- ---------- --- --- ------ ------ ---- -- French<br>------- --- ------ ----- --- ---- ------- -- ---- --- --<br>------- ------,213207.09999990463,213206.09999990463,213011.213,213023.79999995232,213027.841,213211.035,,42,French
screen,html.Screen,2_1_1_1_43,2022-02-21T10:13:55.112Z,,,,,,,,,,,,,,,,,54,,,,,,,,,,,,,,187.36499997615465,,response,,,,100,,,,,,,Space,keypress(Space),,,,,,,,-- --- ---- --- ------ ----- ------- ---- -- --- ------- --<br>------- ---------- ------ -- ----- -- ----- -- ---- ------<br>--- ----- --- --- ------ -------- ----- --- ------ ----- --<br>----- ----- ---------- --- --- ------ ------ ---- -- ------<br>credit. --- ------ ----- --- ---- ------- -- ---- --- --<br>------- ------,213399.39999997616,213398.39999997616,213194.79,213207.19999992847,213211.035,213411.216,,43,credit.
screen,html.Screen,2_1_1_1_44,2022-02-21T10:13:55.298Z,,,,,,,,,,,,,,,,,54,,,,,,,,,,,,,,173.2840000000142,,response,,,,100,,,,,,,Space,keypress(Space),,,,,,,,-- --- ---- --- ------ ----- ------- ---- -- --- ------- --<br>------- ---------- ------ -- ----- -- ----- -- ---- ------<br>--- ----- --- --- ------ -------- ----- --- ------ ----- --<br>----- ----- ---------- --- --- ------ ------ ---- -- ------<br>------- The ------ ----- --- ---- ------- -- ---- --- --<br>------- ------,213585.59999990463,213584.5,213394.577,213399.39999997616,213411.216,213594.216,,44,The
screen,html.Screen,2_1_1_1_45,2022-02-21T10:13:55.618Z,,,,,,,,,,,,,,,,,54,,,,,,,,,,,,,,310.5839999523305,,response,,,,100,,,,,,,Space,keypress(Space),,,,,,,,-- --- ---- --- ------ ----- ------- ---- -- --- ------- --<br>------- ---------- ------ -- ----- -- ----- -- ---- ------<br>--- ----- --- --- ------ -------- ----- --- ------ ----- --<br>----- ----- ---------- --- --- ------ ------ ---- -- ------<br>------- --- French ----- --- ---- ------- -- ---- --- --<br>------- ------,213905.79999995232,213904.79999995232,213578.049,213585.79999995232,213594.216,213910.823,,45,French
screen,html.Screen,2_1_1_1_46,2022-02-21T10:13:55.854Z,,,,,,,,,,,,,,,,,54,,,,,,,,,,,,,,229.87699992847047,,response,,,,100,,,,,,,Space,keypress(Space),,,,,,,,-- --- ---- --- ------ ----- ------- ---- -- --- ------- --<br>------- ---------- ------ -- ----- -- ----- -- ---- ------<br>--- ----- --- --- ------ -------- ----- --- ------ ----- --<br>----- ----- ---------- --- --- ------ ------ ---- -- ------<br>------- --- ------ state --- ---- ------- -- ---- --- --<br>------- ------,214141.79999995232,214140.69999992847,213894.57,213905.89999997616,213910.823,214144.19,,46,state
screen,html.Screen,2_1_1_1_47,2022-02-21T10:13:56.057Z,,,,,,,,,,,,,,,,,54,,,,,,,,,,,,,,199.80999999999767,,response,,,,100,,,,,,,Space,keypress(Space),,,,,,,,-- --- ---- --- ------ ----- ------- ---- -- --- ------- --<br>------- ---------- ------ -- ----- -- ----- -- ---- ------<br>--- ----- --- --- ------ -------- ----- --- ------ ----- --<br>----- ----- ---------- --- --- ------ ------ ---- -- ------<br>------- --- ------ ----- was ---- ------- -- ---- --- --<br>------- ------,214345,214344,214127.516,214142,214144.19,214361.161,,47,was
screen,html.Screen,2_1_1_1_48,2022-02-21T10:13:56.252Z,,,,,,,,,,,,,,,,,54,,,,,,,,,,,,,,176.9389999046398,,response,,,,100,,,,,,,Space,keypress(Space),,,,,,,,-- --- ---- --- ------ ----- ------- ---- -- --- ------- --<br>------- ---------- ------ -- ----- -- ----- -- ---- ------<br>--- ----- --- --- ------ -------- ----- --- ------ ----- --<br>----- ----- ---------- --- --- ------ ------ ---- -- ------<br>------- --- ------ ----- --- left ------- -- ---- --- --<br>------- ------,214539.19999992847,214538.09999990463,214344.522,214345.19999992847,214361.161,214544.109,,48,left
screen,html.Screen,2_1_1_1_49,2022-02-21T10:13:56.449Z,,,,,,,,,,,,,,,,,54,,,,,,,,,,,,,,191.69099995231954,,response,,,,100,,,,,,,Space,keypress(Space),,,,,,,,-- --- ---- --- ------ ----- ------- ---- -- --- ------- --<br>------- ---------- ------ -- ----- -- ----- -- ---- ------<br>--- ----- --- --- ------ -------- ----- --- ------ ----- --<br>----- ----- ---------- --- --- ------ ------ ---- -- ------<br>------- --- ------ ----- --- ---- without -- ---- --- --<br>------- ------,214736.79999995232,214735.79999995232,214527.549,214539.39999997616,214544.109,214744.16,,49,without
screen,html.Screen,2_1_1_1_50,2022-02-21T10:13:56.694Z,,,,,,,,,,,,,,,,,54,,,,,,,,,,,,,,236.8399999999965,,response,,,,100,,,,,,,Space,keypress(Space),,,,,,,,-- --- ---- --- ------ ----- ------- ---- -- --- ------- --<br>------- ---------- ------ -- ----- -- ----- -- ---- ------<br>--- ----- --- --- ------ -------- ----- --- ------ ----- --<br>----- ----- ---------- --- --- ------ ------ ---- -- ------<br>------- --- ------ ----- --- ---- ------- an ---- --- --<br>------- ------,214982.09999990463,214981,214727.53,214737,214744.16,214994.526,,50,an
screen,html.Screen,2_1_1_1_51,2022-02-21T10:13:56.889Z,,,,,,,,,,,,,,,,,54,,,,,,,,,,,,,,180.7739999523037,,response,,,,100,,,,,,,Space,keypress(Space),,,,,,,,-- --- ---- --- ------ ----- ------- ---- -- --- ------- --<br>------- ---------- ------ -- ----- -- ----- -- ---- ------<br>--- ----- --- --- ------ -------- ----- --- ------ ----- --<br>----- ----- ---------- --- --- ------ ------ ---- -- ------<br>------- --- ------ ----- --- ---- ------- -- easy --- --<br>------- ------,215176.29999995232,215175.29999995232,214977.814,214982.19999992847,214994.526,215199.704,,51,easy
screen,html.Screen,2_1_1_1_52,2022-02-21T10:13:57.178Z,,,,,,,,,,,,,,,,,54,,,,,,,,,,,,,,264.69599997616024,,response,,,,100,,,,,,,Space,keypress(Space),,,,,,,,-- --- ---- --- ------ ----- ------- ---- -- --- ------- --<br>------- ---------- ------ -- ----- -- ----- -- ---- ------<br>--- ----- --- --- ------ -------- ----- --- ------ ----- --<br>----- ----- ---------- --- --- ------ ------ ---- -- ------<br>------- --- ------ ----- --- ---- ------- -- ---- way --<br>------- ------,215465.5,215464.39999997616,215161.158,215176.39999997616,215199.704,215477.749,,52,way
screen,html.Screen,2_1_1_1_53,2022-02-21T10:13:57.424Z,,,,,,,,,,,,,,,,,54,,,,,,,,,,,,,,233.2509999999893,,response,,,,100,,,,,,,Space,keypress(Space),,,,,,,,-- --- ---- --- ------ ----- ------- ---- -- --- ------- --<br>------- ---------- ------ -- ----- -- ----- -- ---- ------<br>--- ----- --- --- ------ -------- ----- --- ------ ----- --<br>----- ----- ---------- --- --- ------ ------ ---- -- ------<br>------- --- ------ ----- --- ---- ------- -- ---- --- of<br>------- ------,215712,215711,215460.826,215465.69999992847,215477.749,215727.503,,53,of
screen,html.Screen,2_1_1_1_54,2022-02-21T10:13:57.611Z,,,,,,,,,,,,,,,,,54,,,,,,,,,,,,,,170.0969999046356,,response,,,,100,,,,,,,Space,keypress(Space),,,,,,,,-- --- ---- --- ------ ----- ------- ---- -- --- ------- --<br>------- ---------- ------ -- ----- -- ----- -- ---- ------<br>--- ----- --- --- ------ -------- ----- --- ------ ----- --<br>----- ----- ---------- --- --- ------ ------ ---- -- ------<br>------- --- ------ ----- --- ---- ------- -- ---- --- --<br>raising ------,215898.59999990463,215897.59999990463,215711.266,215712.19999992847,215727.503,215911.055,,54,raising
screen,html.Screen,2_1_1_1_55,2022-02-21T10:13:57.911Z,,,,,,,,,,,,,,,,,54,,,,,,,,,,,,,,286.04499990463955,,response,,,,100,,,,,,,Space,keypress(Space),,,,,,,,-- --- ---- --- ------ ----- ------- ---- -- --- ------- --<br>------- ---------- ------ -- ----- -- ----- -- ---- ------<br>--- ----- --- --- ------ -------- ----- --- ------ ----- --<br>----- ----- ---------- --- --- ------ ------ ---- -- ------<br>------- --- ------ ----- --- ---- ------- -- ---- --- --<br>------- money.,216198.19999992847,216197.09999990463,215894.563,215898.69999992847,215911.055,216210.7,,55,money.
Item 100,flow.Loop,2_1_1_1,2022-02-21T10:13:57.911Z,,,,,,,,,,,,,,,,,,,,,,,,,,,,,,,18101.973999904643,,completion,,,,,A,,,,,,,,,,,silence,,,,,216198.5,216197.09999990463,198078.996,198080.09999990463,198095.126,216210.7,,,
Question 1,html.Screen,2_1_1_2,2022-02-21T10:13:59.777Z,,,,,,,,,,,,,,,,,,,,,,,,,,,,true,TRUE,,1851.7999999999884,,response,,,,100,A,,,,,,TRUE,click #choice-1,,,,silence,,,,,218064.29999995232,218062.5,216194.567,216198.59999990463,216210.7,218077.31,,,
Question 2,html.Screen,2_1_1_3,2022-02-21T10:14:01.384Z,,,,,,,,,,,,,,,,,,,,,,,,,,,,false,FALSE,,1592.3899999284768,,response,,,,100,A,,,,,,TRUE,click #choice-1,,,,silence,,,,,219671.29999995232,219669.69999992847,218060.656,218064.39999997616,218077.31,219677.21,,,
Item 100,flow.Sequence,2_1_1,2022-02-21T10:14:01.384Z,,,,,,,,,,,,,,,,,,,,,,,,,,,,,,,31573.902999928483,,completion,,,,,,,,,,,,,,,,,,,,,219671.5,219669.69999992847,188079.137,188095.69999992847,188095.797,219677.21,,,
End of Practice,html.Page,2_1_2,2022-02-21T10:14:05.545Z,,,,,,,,,,,,,,,,,,,,,,,,,,,,,,,4146.989999928483,,form submission,,,,,,,,,,,,,,,,,,,,,223824.5,223824.19999992847,219660.517,219671.59999990463,219677.21,223826.956,,,
Practice,flow.Sequence,2_1,2022-02-21T10:14:05.545Z,,,,,,,,,,,,,,,,,,,,,,,,,,,,,,,70259.64899992847,,completion,,,,,,,,,,,,,,,,,,,,,223824.79999995232,223824.19999992847,153547.895,153562.09999990463,153564.551,223826.956,,,
Trap_instruction,html.Page,2_2_0,2022-02-21T10:14:08.241Z,,,,,,,,,,,,,,,,,,,,,,,,,,,,,,,2693.143999904627,,form submission,,,,,,,,,,,,,,,,,,,,,226520.5,226520.09999990463,223810.277,223825,223826.956,226560.106,,,
trap_trial,html.Screen,2_2_1,2022-02-21T10:14:12.249Z,,,,,,,,,,,,,,,,,,,,,,,,,,,,true,1,,3967.2939999761584,,response,,,,,,,,,,,1,click #choice-1,,,,,,,,,230529,230527.39999997616,226510.148,226520.69999992847,226560.106,230543.7,,,
end of trap trial,html.Page,2_2_2,2022-02-21T10:14:13.484Z,,,,,,,,,,,,,,,,,,,,,,,,,,,,,,,1220.1999999761465,,form submission,,,,,,,,,,,,,,,,,,,,,231764.29999995232,231763.89999997616,230526.559,230529.29999995232,230543.7,231777.408,,,
Trap 1,flow.Sequence,2_2,2022-02-21T10:14:13.484Z,,,,,,,,,,,,,,,,,,,,,,,,,,,,,,,7936.943999976153,,completion,,,,,,,,,,,,,,,,,,,,,231764.39999997616,231763.89999997616,223810.277,223824.89999997616,223826.956,231777.408,,,
Standby,html.Page,2_3_0,2022-02-21T10:14:21.489Z,,,,,,,,,,,,,,,,,,,,,,,,,,,,,,,7998.513999999996,,timeout,,,,,,,,,,,,,,,,,,,,,239768.5,239759.259,231759.814,231764.69999992847,231777.408,239775.922,,,
Holding screen,html.Screen,2_3_1_0_0,2022-02-21T10:14:28.488Z,,,,,,,,,,,,,,,,,,,,,,,,,,,,,,,6999.5470000000205,,timeout,,,,,,,,,,,,,,,,,,,,,246767.89999997616,246758.885,239759.259,239768.79999995232,239775.922,246775.469,,,
screen,html.Screen,2_3_1_0_1_0,2022-02-21T10:14:35.480Z,,,,,,,,,,,,,,,,,11,,,,,,,,,,,,,,6999.646999999997,,timeout,,,,4,A,,,,,,,,,,,silence,,,,Known -- ---- --- -- --- -------- ------------ ---------- --<br>- ------- ------ --------- -- ------------ -- --- ---- -----<br>------ ---- ---- ------ ------ ------- --- ----- ---------<br>---- --- -------- -------- --- --- -- ------- --- --- -----<br>-- --- ------ ------- --- --- -------- ---- --------- --<br>---------- -- -------- ----------------,253759.5,253758.448,246758.885,246768.09999990463,246775.469,253775.116,,0,Known
screen,html.Screen,2_3_1_0_1_1,2022-02-21T10:14:42.479Z,,,,,,,,,,,,,,,,,11,,,,,,,,,,,,,,7002.946999999986,,timeout,,,,4,A,,,,,,,,,,,silence,,,,----- as ---- --- -- --- -------- ------------ ---------- --<br>- ------- ------ --------- -- ------------ -- --- ---- -----<br>------ ---- ---- ------ ------ ------- --- ----- ---------<br>---- --- -------- -------- --- --- -- ------- --- --- -----<br>-- --- ------ ------- --- --- -------- ---- --------- --<br>---------- -- -------- ----------------,260759.09999990463,260758.021,253758.448,253759.69999992847,253775.116,260778.063,,1,as
screen,html.Screen,2_3_1_0_1_2,2022-02-21T10:14:49.479Z,,,,,,,,,,,,,,,,,11,,,,,,,,,,,,,,6996.158000000025,,timeout,,,,4,A,,,,,,,,,,,silence,,,,----- -- Rapa --- -- --- -------- ------------ ---------- --<br>- ------- ------ --------- -- ------------ -- --- ---- -----<br>------ ---- ---- ------ ------ ------- --- ----- ---------<br>---- --- -------- -------- --- --- -- ------- --- --- -----<br>-- --- ------ ------- --- --- -------- ---- --------- --<br>---------- -- -------- ----------------,267758.59999990463,267757.567,260758.021,260759.29999995232,260778.063,267774.221,,2,Rapa
screen,html.Screen,2_3_1_0_1_3,2022-02-21T10:14:52.474Z,,,,,,,,,,,,,,,,,11,,,,,,,,,,,,,,2977.5789999522967,,response,,,,4,A,,,,,,Space,keypress(Space),,,,silence,,,,----- -- ---- Nui -- --- -------- ------------ ---------- --<br>- ------- ------ --------- -- ------------ -- --- ---- -----<br>------ ---- ---- ------ ------ ------- --- ----- ---------<br>---- --- -------- -------- --- --- -- ------- --- --- -----<br>-- --- ------ ------- --- --- -------- ---- --------- --<br>---------- -- -------- ----------------,270753.5,270751.7999999523,267757.567,267758.7999999523,267774.221,270757.363,,3,Nui
screen,html.Screen,2_3_1_0_1_4,2022-02-21T10:14:52.837Z,,,,,,,,,,,,,,,,,11,,,,,,,,,,,,,,357.8369999284623,,response,,,,4,A,,,,,,Space,keypress(Space),,,,silence,,,,----- -- ---- --- to --- -------- ------------ ---------- --<br>- ------- ------ --------- -- ------------ -- --- ---- -----<br>------ ---- ---- ------ ------ ------- --- ----- ---------<br>---- --- -------- -------- --- --- -- ------- --- --- -----<br>-- --- ------ ------- --- --- -------- ---- --------- --<br>---------- -- -------- ----------------,271116.59999990463,271115.1999999285,270740.712,270753.59999990463,270757.363,271123.982,,4,to
screen,html.Screen,2_3_1_0_1_5,2022-02-21T10:14:53.083Z,,,,,,,,,,,,,,,,,11,,,,,,,,,,,,,,237.31799995229812,,response,,,,4,A,,,,,,Space,keypress(Space),,,,silence,,,,----- -- ---- --- -- the -------- ------------ ---------- --<br>- ------- ------ --------- -- ------------ -- --- ---- -----<br>------ ---- ---- ------ ------ ------- --- ----- ---------<br>---- --- -------- -------- --- --- -- ------- --- --- -----<br>-- --- ------ ------- --- --- -------- ---- --------- --<br>---------- -- -------- ----------------,271362.59999990463,271361.2999999523,271107.381,271116.7999999523,271123.982,271374.017,,5,the
screen,html.Screen,2_3_1_0_1_6,2022-02-21T10:14:53.400Z,,,,,,,,,,,,,,,,,11,,,,,,,,,,,,,,304.6829999284819,,response,,,,4,A,,,,,,Space,keypress(Space),,,,silence,,,,----- -- ---- --- -- --- island's ------------ ---------- --<br>- ------- ------ --------- -- ------------ -- --- ---- -----<br>------ ---- ---- ------ ------ ------- --- ----- ---------<br>---- --- -------- -------- --- --- -- ------- --- --- -----<br>-- --- ------ ------- --- --- -------- ---- --------- --<br>---------- -- -------- ----------------,271679.89999997616,271678.6999999285,271357.376,271364,271374.017,271690.576,,6,island's
screen,html.Screen,2_3_1_0_1_7,2022-02-21T10:14:53.662Z,,,,,,,,,,,,,,,,,11,,,,,,,,,,,,,,250.02399990463164,,response,,,,4,A,,,,,,Space,keypress(Space),,,,silence,,,,"----- -- ---- --- -- --- -------- inhabitants, ---------- --<br>- ------- ------ --------- -- ------------ -- --- ---- -----<br>------ ---- ---- ------ ------ ------- --- ----- ---------<br>---- --- -------- -------- --- --- -- ------- --- --- -----<br>-- --- ------ ------- --- --- -------- ---- --------- --<br>---------- -- -------- ----------------",271941.89999997616,271940.59999990463,271673.998,271680,271690.576,271957.35,,7,"inhabitants,"
screen,html.Screen,2_3_1_0_1_8,2022-02-21T10:14:53.911Z,,,,,,,,,,,,,,,,,11,,,,,,,,,,,,,,232.8499999284977,,response,,,,4,A,,,,,,Space,keypress(Space),,,,silence,,,,----- -- ---- --- -- --- -------- ------------ Rongorongo --<br>- ------- ------ --------- -- ------------ -- --- ---- -----<br>------ ---- ---- ------ ------ ------- --- ----- ---------<br>---- --- -------- -------- --- --- -- ------- --- --- -----<br>-- --- ------ ------- --- --- -------- ---- --------- --<br>---------- -- -------- ----------------,272191.1999999285,272190.1999999285,271940.697,271942.09999990463,271957.35,272207.292,,8,Rongorongo
screen,html.Screen,2_3_1_0_1_9,2022-02-21T10:14:54.132Z,,,,,,,,,,,,,,,,,11,,,,,,,,,,,,,,203.4079999284586,,response,,,,4,A,,,,,,Space,keypress(Space),,,,silence,,,,----- -- ---- --- -- --- -------- ------------ ---------- is<br>- ------- ------ --------- -- ------------ -- --- ---- -----<br>------ ---- ---- ------ ------ ------- --- ----- ---------<br>---- --- -------- -------- --- --- -- ------- --- --- -----<br>-- --- ------ ------- --- --- -------- ---- --------- --<br>---------- -- -------- ----------------,272411.59999990463,272410.6999999285,272190.631,272191.2999999523,272207.292,272423.97,,9,is
screen,html.Screen,2_3_1_0_1_10,2022-02-21T10:14:54.313Z,,,,,,,,,,,,,,,,,11,,,,,,,,,,,,,,168.22999992850237,,response,,,,4,A,,,,,,Space,keypress(Space),,,,silence,,,,----- -- ---- --- -- --- -------- ------------ ---------- --<br>a ------- ------ --------- -- ------------ -- --- ---- -----<br>------ ---- ---- ------ ------ ------- --- ----- ---------<br>---- --- -------- -------- --- --- -- ------- --- --- -----<br>-- --- ------ ------- --- --- -------- ---- --------- --<br>---------- -- -------- ----------------,272593.39999997616,272592.1999999285,272407.313,272411.7999999523,272423.97,272611.585,,10,a
screen,html.Screen,2_3_1_0_1_11,2022-02-21T10:14:54.482Z,,,,,,,,,,,,,,,,,11,,,,,,,,,,,,,,149.5149999046116,,response,,,,4,A,,,,,,Space,keypress(Space),,,,silence,,,,----- -- ---- --- -- --- -------- ------------ ---------- --<br>- writing ------ --------- -- ------------ -- --- ---- -----<br>------ ---- ---- ------ ------ ------- --- ----- ---------<br>---- --- -------- -------- --- --- -- ------- --- --- -----<br>-- --- ------ ------- --- --- -------- ---- --------- --<br>---------- -- -------- ----------------,272762.1999999285,272761.09999990463,272590.627,272593.6999999285,272611.585,272773.95,,11,writing
screen,html.Screen,2_3_1_0_1_12,2022-02-21T10:14:54.644Z,,,,,,,,,,,,,,,,,11,,,,,,,,,,,,,,149.4499999761465,,response,,,,4,A,,,,,,Space,keypress(Space),,,,silence,,,,----- -- ---- --- -- --- -------- ------------ ---------- --<br>- ------- system --------- -- ------------ -- --- ---- -----<br>------ ---- ---- ------ ------ ------- --- ----- ---------<br>---- --- -------- -------- --- --- -- ------- --- --- -----<br>-- --- ------ ------- --- --- -------- ---- --------- --<br>---------- -- -------- ----------------,272924.39999997616,272923.39999997616,272757.242,272762.2999999523,272773.95,272940.91,,12,system
screen,html.Screen,2_3_1_0_1_13,2022-02-21T10:14:54.801Z,,,,,,,,,,,,,,,,,11,,,,,,,,,,,,,,138.5900000000256,,response,,,,4,A,,,,,,Space,keypress(Space),,,,silence,,,,----- -- ---- --- -- --- -------- ------------ ---------- --<br>- ------- ------ comprised -- ------------ -- --- ---- -----<br>------ ---- ---- ------ ------ ------- --- ----- ---------<br>---- --- -------- -------- --- --- -- ------- --- --- -----<br>-- --- ------ ------- --- --- -------- ---- --------- --<br>---------- -- -------- ----------------,273080.59999990463,273079.5,272923.896,272924.59999990463,272940.91,273091.009,,13,comprised
screen,html.Screen,2_3_1_0_1_14,2022-02-21T10:14:54.970Z,,,,,,,,,,,,,,,,,11,,,,,,,,,,,,,,157.49099999997998,,response,,,,4,A,,,,,,Space,keypress(Space),,,,silence,,,,----- -- ---- --- -- --- -------- ------------ ---------- --<br>- ------- ------ --------- of ------------ -- --- ---- -----<br>------ ---- ---- ------ ------ ------- --- ----- ---------<br>---- --- -------- -------- --- --- -- ------- --- --- -----<br>-- --- ------ ------- --- --- -------- ---- --------- --<br>---------- -- -------- ----------------,273249.5,273248.5,273074.198,273080.7999999523,273091.009,273257.223,,14,of
screen,html.Screen,2_3_1_0_1_15,2022-02-21T10:14:55.131Z,,,,,,,,,,,,,,,,,11,,,,,,,,,,,,,,152.57699995231815,,response,,,,4,A,,,,,,Space,keypress(Space),,,,silence,,,,----- -- ---- --- -- --- -------- ------------ ---------- --<br>- ------- ------ --------- -- pictographs. -- --- ---- -----<br>------ ---- ---- ------ ------ ------- --- ----- ---------<br>---- --- -------- -------- --- --- -- ------- --- --- -----<br>-- --- ------ ------- --- --- -------- ---- --------- --<br>---------- -- -------- ----------------,273410.89999997616,273409.7999999523,273240.854,273249.6999999285,273257.223,273424.211,,15,pictographs.
screen,html.Screen,2_3_1_0_1_16,2022-02-21T10:14:55.292Z,,,,,,,,,,,,,,,,,11,,,,,,,,,,,,,,146.28899999998976,,response,,,,4,A,,,,,,Space,keypress(Space),,,,silence,,,,----- -- ---- --- -- --- -------- ------------ ---------- --<br>- ------- ------ --------- -- ------------ It --- ---- -----<br>------ ---- ---- ------ ------ ------- --- ----- ---------<br>---- --- -------- -------- --- --- -- ------- --- --- -----<br>-- --- ------ ------- --- --- -------- ---- --------- --<br>---------- -- -------- ----------------,273571.59999990463,273570.5,273407.516,273411.09999990463,273424.211,273573.892,,16,It
screen,html.Screen,2_3_1_0_1_17,2022-02-21T10:14:55.463Z,,,,,,,,,,,,,,,,,11,,,,,,,,,,,,,,167.90799995232373,,response,,,,4,A,,,,,,Space,keypress(Space),,,,silence,,,,----- -- ---- --- -- --- -------- ------------ ---------- --<br>- ------- ------ --------- -- ------------ -- has ---- -----<br>------ ---- ---- ------ ------ ------- --- ----- ---------<br>---- --- -------- -------- --- --- -- ------- --- --- -----<br>-- --- ------ ------- --- --- -------- ---- --------- --<br>---------- -- -------- ----------------,273742.89999997616,273741.7999999523,273557.269,273571.7999999523,273573.892,273757.27,,17,has
screen,html.Screen,2_3_1_0_1_18,2022-02-21T10:14:55.637Z,,,,,,,,,,,,,,,,,11,,,,,,,,,,,,,,158.52999995229766,,response,,,,4,A,,,,,,Space,keypress(Space),,,,silence,,,,----- -- ---- --- -- --- -------- ------------ ---------- --<br>- ------- ------ --------- -- ------------ -- --- been -----<br>------ ---- ---- ------ ------ ------- --- ----- ---------<br>---- --- -------- -------- --- --- -- ------- --- --- -----<br>-- --- ------ ------- --- --- -------- ---- --------- --<br>---------- -- -------- ----------------,273917,273915.7999999523,273740.508,273743,273757.27,273924.145,,18,been
screen,html.Screen,2_3_1_0_1_19,2022-02-21T10:14:55.806Z,,,,,,,,,,,,,,,,,11,,,,,,,,,,,,,,161.15499995229766,,response,,,,4,A,,,,,,Space,keypress(Space),,,,silence,,,,----- -- ---- --- -- --- -------- ------------ ---------- --<br>- ------- ------ --------- -- ------------ -- --- ---- found<br>------ ---- ---- ------ ------ ------- --- ----- ---------<br>---- --- -------- -------- --- --- -- ------- --- --- -----<br>-- --- ------ ------- --- --- -------- ---- --------- --<br>---------- -- -------- ----------------,274086.2999999523,274085.2999999523,273907.696,273917.1999999285,273924.145,274090.54,,19,found
screen,html.Screen,2_3_1_0_1_20,2022-02-21T10:14:55.971Z,,,,,,,,,,,,,,,,,11,,,,,,,,,,,,,,159.8599999761791,,response,,,,4,A,,,,,,Space,keypress(Space),,,,silence,,,,----- -- ---- --- -- --- -------- ------------ ---------- --<br>- ------- ------ --------- -- ------------ -- --- ---- -----<br>carved ---- ---- ------ ------ ------- --- ----- ---------<br>---- --- -------- -------- --- --- -- ------- --- --- -----<br>-- --- ------ ------- --- --- -------- ---- --------- --<br>---------- -- -------- ----------------,274251.5,274250.39999997616,274073.947,274086.59999990463,274090.54,274257.153,,20,carved
screen,html.Screen,2_3_1_0_1_21,2022-02-21T10:14:56.129Z,,,,,,,,,,,,,,,,,11,,,,,,,,,,,,,,150.64699995232513,,response,,,,4,A,,,,,,Space,keypress(Space),,,,silence,,,,----- -- ---- --- -- --- -------- ------------ ---------- --<br>- ------- ------ --------- -- ------------ -- --- ---- -----<br>------ into ---- ------ ------ ------- --- ----- ---------<br>---- --- -------- -------- --- --- -- ------- --- --- -----<br>-- --- ------ ------- --- --- -------- ---- --------- --<br>---------- -- -------- ----------------,274408.7999999523,274407.7999999523,274241.434,274251.59999990463,274257.153,274424.287,,21,into
screen,html.Screen,2_3_1_0_1_22,2022-02-21T10:14:56.279Z,,,,,,,,,,,,,,,,,11,,,,,,,,,,,,,,133.8129999046214,,response,,,,4,A,,,,,,Space,keypress(Space),,,,silence,,,,----- -- ---- --- -- --- -------- ------------ ---------- --<br>- ------- ------ --------- -- ------------ -- --- ---- -----<br>------ ---- many ------ ------ ------- --- ----- ---------<br>---- --- -------- -------- --- --- -- ------- --- --- -----<br>-- --- ------ ------- --- --- -------- ---- --------- --<br>---------- -- -------- ----------------,274559.09999990463,274558.09999990463,274407.455,274409,274424.287,274574.138,,22,many
screen,html.Screen,2_3_1_0_1_23,2022-02-21T10:14:56.436Z,,,,,,,,,,,,,,,,,11,,,,,,,,,,,,,,140.86200000002282,,response,,,,4,A,,,,,,Space,keypress(Space),,,,silence,,,,----- -- ---- --- -- --- -------- ------------ ---------- --<br>- ------- ------ --------- -- ------------ -- --- ---- -----<br>------ ---- ---- oblong ------ ------- --- ----- ---------<br>---- --- -------- -------- --- --- -- ------- --- --- -----<br>-- --- ------ ------- --- --- -------- ---- --------- --<br>---------- -- -------- ----------------,274716.1999999285,274715,274557.642,274559.1999999285,274574.138,274723.746,,23,oblong
screen,html.Screen,2_3_1_0_1_24,2022-02-21T10:14:56.608Z,,,,,,,,,,,,,,,,,11,,,,,,,,,,,,,,162.85399990464794,,response,,,,4,A,,,,,,Space,keypress(Space),,,,silence,,,,----- -- ---- --- -- --- -------- ------------ ---------- --<br>- ------- ------ --------- -- ------------ -- --- ---- -----<br>------ ---- ---- ------ wooden ------- --- ----- ---------<br>---- --- -------- -------- --- --- -- ------- --- --- -----<br>-- --- ------ ------- --- --- -------- ---- --------- --<br>---------- -- -------- ----------------,274887.6999999285,274886.59999990463,274707.634,274716.39999997616,274723.746,274890.457,,24,wooden
screen,html.Screen,2_3_1_0_1_25,2022-02-21T10:14:56.786Z,,,,,,,,,,,,,,,,,11,,,,,,,,,,,,,,174.8429999523214,,response,,,,4,A,,,,,,Space,keypress(Space),,,,silence,,,,----- -- ---- --- -- --- -------- ------------ ---------- --<br>- ------- ------ --------- -- ------------ -- --- ---- -----<br>------ ---- ---- ------ ------ tablets --- ----- ---------<br>---- --- -------- -------- --- --- -- ------- --- --- -----<br>-- --- ------ ------- --- --- -------- ---- --------- --<br>---------- -- -------- ----------------,275066.2999999523,275065.2999999523,274874.314,274887.89999997616,274890.457,275073.701,,25,tablets
screen,html.Screen,2_3_1_0_1_26,2022-02-21T10:14:56.969Z,,,,,,,,,,,,,,,,,11,,,,,,,,,,,,,,174.29899999999907,,response,,,,4,A,,,,,,Space,keypress(Space),,,,silence,,,,----- -- ---- --- -- --- -------- ------------ ---------- --<br>- ------- ------ --------- -- ------------ -- --- ---- -----<br>------ ---- ---- ------ ------ ------- and ----- ---------<br>---- --- -------- -------- --- --- -- ------- --- --- -----<br>-- --- ------ ------- --- --- -------- ---- --------- --<br>---------- -- -------- ----------------,275249.1999999285,275248,275058.026,275066.5,275073.701,275257.102,,26,and
screen,html.Screen,2_3_1_0_1_27,2022-02-21T10:14:57.124Z,,,,,,,,,,,,,,,,,11,,,,,,,,,,,,,,145.49799990461906,,response,,,,4,A,,,,,,Space,keypress(Space),,,,silence,,,,----- -- ---- --- -- --- -------- ------------ ---------- --<br>- ------- ------ --------- -- ------------ -- --- ---- -----<br>------ ---- ---- ------ ------ ------- --- other ---------<br>---- --- -------- -------- --- --- -- ------- --- --- -----<br>-- --- ------ ------- --- --- -------- ---- --------- --<br>---------- -- -------- ----------------,275403.59999990463,275402.59999990463,275240.915,275249.39999997616,275257.102,275407.081,,27,other
screen,html.Screen,2_3_1_0_1_28,2022-02-21T10:14:57.267Z,,,,,,,,,,,,,,,,,11,,,,,,,,,,,,,,139.01899990462698,,response,,,,4,A,,,,,,Space,keypress(Space),,,,silence,,,,----- -- ---- --- -- --- -------- ------------ ---------- --<br>- ------- ------ --------- -- ------------ -- --- ---- -----<br>------ ---- ---- ------ ------ ------- --- ----- artifacts<br>---- --- -------- -------- --- --- -- ------- --- --- -----<br>-- --- ------ ------- --- --- -------- ---- --------- --<br>---------- -- -------- ----------------,275547.2999999523,275546.09999990463,275390.439,275403.7999999523,275407.081,275557.415,,28,artifacts
screen,html.Screen,2_3_1_0_1_29,2022-02-21T10:14:57.406Z,,,,,,,,,,,,,,,,,11,,,,,,,,,,,,,,127.28499992849538,,response,,,,4,A,,,,,,Space,keypress(Space),,,,silence,,,,----- -- ---- --- -- --- -------- ------------ ---------- --<br>- ------- ------ --------- -- ------------ -- --- ---- -----<br>------ ---- ---- ------ ------ ------- --- ----- ---------<br>from --- -------- -------- --- --- -- ------- --- --- -----<br>-- --- ------ ------- --- --- -------- ---- --------- --<br>---------- -- -------- ----------------,275685.7999999523,275684.6999999285,275540.48,275547.5,275557.415,275690.403,,29,from
screen,html.Screen,2_3_1_0_1_30,2022-02-21T10:14:57.578Z,,,,,,,,,,,,,,,,,11,,,,,,,,,,,,,,166.69699990464142,,response,,,,4,A,,,,,,Space,keypress(Space),,,,silence,,,,----- -- ---- --- -- --- -------- ------------ ---------- --<br>- ------- ------ --------- -- ------------ -- --- ---- -----<br>------ ---- ---- ------ ------ ------- --- ----- ---------<br>---- the -------- -------- --- --- -- ------- --- --- -----<br>-- --- ------ ------- --- --- -------- ---- --------- --<br>---------- -- -------- ----------------,275858.1999999285,275857.09999990463,275674.133,275686,275690.403,275874.058,,30,the
screen,html.Screen,2_3_1_0_1_31,2022-02-21T10:14:57.751Z,,,,,,,,,,,,,,,,,11,,,,,,,,,,,,,,156.14199992845533,,response,,,,4,A,,,,,,Space,keypress(Space),,,,silence,,,,----- -- ---- --- -- --- -------- ------------ ---------- --<br>- ------- ------ --------- -- ------------ -- --- ---- -----<br>------ ---- ---- ------ ------ ------- --- ----- ---------<br>---- --- island's -------- --- --- -- ------- --- --- -----<br>-- --- ------ ------- --- --- -------- ---- --------- --<br>---------- -- -------- ----------------,276031.2999999523,276030.1999999285,275857.366,275858.39999997616,275874.058,276040.385,,31,island's
screen,html.Screen,2_3_1_0_1_32,2022-02-21T10:14:57.915Z,,,,,,,,,,,,,,,,,11,,,,,,,,,,,,,,153.6149999999907,,response,,,,4,A,,,,,,Space,keypress(Space),,,,silence,,,,----- -- ---- --- -- --- -------- ------------ ---------- --<br>- ------- ------ --------- -- ------------ -- --- ---- -----<br>------ ---- ---- ------ ------ ------- --- ----- ---------<br>---- --- -------- history. --- --- -- ------- --- --- -----<br>-- --- ------ ------- --- --- -------- ---- --------- --<br>---------- -- -------- ----------------,276195.09999990463,276194,276023.785,276031.5,276040.385,276207.124,,32,history.
screen,html.Screen,2_3_1_0_1_33,2022-02-21T10:14:58.088Z,,,,,,,,,,,,,,,,,11,,,,,,,,,,,,,,159.57599992846372,,response,,,,4,A,,,,,,Space,keypress(Space),,,,silence,,,,----- -- ---- --- -- --- -------- ------------ ---------- --<br>- ------- ------ --------- -- ------------ -- --- ---- -----<br>------ ---- ---- ------ ------ ------- --- ----- ---------<br>---- --- -------- -------- The --- -- ------- --- --- -----<br>-- --- ------ ------- --- --- -------- ---- --------- --<br>---------- -- -------- ----------------,276367.6999999285,276366.6999999285,276190.885,276195.1999999285,276207.124,276373.708,,33,The
screen,html.Screen,2_3_1_0_1_34,2022-02-21T10:14:58.256Z,,,,,,,,,,,,,,,,,11,,,,,,,,,,,,,,161.3919999046484,,response,,,,4,A,,,,,,Space,keypress(Space),,,,silence,,,,----- -- ---- --- -- --- -------- ------------ ---------- --<br>- ------- ------ --------- -- ------------ -- --- ---- -----<br>------ ---- ---- ------ ------ ------- --- ----- ---------<br>---- --- -------- -------- --- art -- ------- --- --- -----<br>-- --- ------ ------- --- --- -------- ---- --------- --<br>---------- -- -------- ----------------,276536.1999999285,276535.09999990463,276357.53,276367.89999997616,276373.708,276540.348,,34,art
screen,html.Screen,2_3_1_0_1_35,2022-02-21T10:14:58.439Z,,,,,,,,,,,,,,,,,11,,,,,,,,,,,,,,177.15200000000186,,response,,,,4,A,,,,,,Space,keypress(Space),,,,silence,,,,----- -- ---- --- -- --- -------- ------------ ---------- --<br>- ------- ------ --------- -- ------------ -- --- ---- -----<br>------ ---- ---- ------ ------ ------- --- ----- ---------<br>---- --- -------- -------- --- --- of ------- --- --- -----<br>-- --- ------ ------- --- --- -------- ---- --------- --<br>---------- -- -------- ----------------,276718.59999990463,276717.5,276524.174,276536.39999997616,276540.348,276723.69,,35,of
screen,html.Screen,2_3_1_0_1_36,2022-02-21T10:14:58.626Z,,,,,,,,,,,,,,,,,11,,,,,,,,,,,,,,181.60999995231396,,response,,,,4,A,,,,,,Space,keypress(Space),,,,silence,,,,----- -- ---- --- -- --- -------- ------------ ---------- --<br>- ------- ------ --------- -- ------------ -- --- ---- -----<br>------ ---- ---- ------ ------ ------- --- ----- ---------<br>---- --- -------- -------- --- --- -- writing --- --- -----<br>-- --- ------ ------- --- --- -------- ---- --------- --<br>---------- -- -------- ----------------,276906.39999997616,276905.2999999523,276707.075,276718.7999999523,276723.69,276924.066,,36,writing
screen,html.Screen,2_3_1_0_1_37,2022-02-21T10:14:58.807Z,,,,,,,,,,,,,,,,,11,,,,,,,,,,,,,,161.73399995232467,,response,,,,4,A,,,,,,Space,keypress(Space),,,,silence,,,,----- -- ---- --- -- --- -------- ------------ ---------- --<br>- ------- ------ --------- -- ------------ -- --- ---- -----<br>------ ---- ---- ------ ------ ------- --- ----- ---------<br>---- --- -------- -------- --- --- -- ------- was --- -----<br>-- --- ------ ------- --- --- -------- ---- --------- --<br>---------- -- -------- ----------------,277086.7999999523,277085.7999999523,276890.641,276906.59999990463,276924.066,277090.318,,37,was
screen,html.Screen,2_3_1_0_1_38,2022-02-21T10:14:58.982Z,,,,,,,,,,,,,,,,,11,,,,,,,,,,,,,,170.78199990460416,,response,,,,4,A,,,,,,Space,keypress(Space),,,,silence,,,,----- -- ---- --- -- --- -------- ------------ ---------- --<br>- ------- ------ --------- -- ------------ -- --- ---- -----<br>------ ---- ---- ------ ------ ------- --- ----- ---------<br>---- --- -------- -------- --- --- -- ------- --- not -----<br>-- --- ------ ------- --- --- -------- ---- --------- --<br>---------- -- -------- ----------------,277262.1999999285,277261.09999990463,277073.696,277087,277090.318,277273.672,,38,not
screen,html.Screen,2_3_1_0_1_39,2022-02-21T10:14:59.141Z,,,,,,,,,,,,,,,,,11,,,,,,,,,,,,,,146.02799992845394,,response,,,,4,A,,,,,,Space,keypress(Space),,,,silence,,,,----- -- ---- --- -- --- -------- ------------ ---------- --<br>- ------- ------ --------- -- ------------ -- --- ---- -----<br>------ ---- ---- ------ ------ ------- --- ----- ---------<br>---- --- -------- -------- --- --- -- ------- --- --- known<br>-- --- ------ ------- --- --- -------- ---- --------- --<br>---------- -- -------- ----------------,277420.7999999523,277419.6999999285,277257.343,277262.39999997616,277273.672,277423.635,,39,known
