sender,sender_type,sender_id,timestamp,meta,,Blues,Classical,Country,Dance,Electronic,Folk,Gospel,Hip-Hop,Jazz,Latin,Musical/Film,New-age,Pop,Prolific_id,Provo_ID,R&B,Rap,Reggae,Religious,Rock,Soul,Swing,Traditional,age,artist_name,correct,correctResponse,distraction,duration,education,ended_on,familiarity,gender,headphone_check_performance,item,list,music_frequency,offensiveness,pleasantness,position_correct,preference,response,response_action,snippet_file,song_name,song_rating,sound,stimulus_1,stimulus_2,stimulus_3,text,time_commit,time_end,time_render,time_run,time_show,time_switch,url,word,word_ID
Prolific ID,html.Form,0,2022-02-17T16:45:51.434Z,"{""labjs_version"":""20.2.2"",""labjs_build"":{""flavor"":""production"",""commit"":""a25486e0c714a0ae2ce03ff94b7bb6896854dcfa""},""location"":""https://run.pavlovia.org/mvasilev/prolific2_music_f/"",""userAgent"":""Mozilla/5.0 (Windows NT 10.0; Win64; x64) AppleWebKit/537.36 (KHTML, like Gecko) Chrome/98.0.4758.102 Safari/537.36"",""platform"":""Win32"",""language"":""en-US"",""locale"":""en-US"",""timeZone"":""Europe/London"",""timezoneOffset"":0,""screen_width"":1920,""screen_height"":1080,""scroll_width"":1146,""scroll_height"":879,""window_innerWidth"":1146,""window_innerHeight"":927,""devicePixelRatio"":1}",,,,,,,,,,,,,,,5bf3feb0345b9b00016ead01,,,,,,,,,,,,,,,2167.761999999255,,form submission,,,,,,,,,,,,,,,,,,,,,18483.5,18483.199999999255,16307.069,14811.699999999255,16315.438,18488.607,{},,
Introduction,html.Screen,1_0,2022-02-17T16:46:01.854Z,,,,,,,,,,,,,,,,,,,,,,,,,,,,,,,10413.79299999851,,response,,,,,,,,,,,continue,click button,,,,,,,,,28903.699999999255,28902.39999999851,18480.259,18483.699999999255,18488.607,28908.132,,,
Volume calibration,html.Screen,1_1,2022-02-17T16:46:19.685Z,,,,,,,,,,,,,,,,,,,,,,,,,,,,,,,17825.26799999851,,response,,,,,,,,,,,continue,click button,,,,,,,,,46735.099999997765,46733.39999999851,28899.77,28903.699999999255,28908.132,46735.586,,,
Task instructions,html.Screen,1_2,2022-02-17T16:46:35.463Z,,,,,,,,,,,,,,,,,,,,,,,,,,,,,,,15776.913999999997,,response,,,,,,,,,,,continue,click button,,,,,,,,,62512.89999999851,62512.5,46731.385,46735.099999997765,46735.586,62515.013,,,
Sounds,html.Screen,1_3_0_0,2022-02-17T16:46:39.712Z,,,,,,,,,,,,,,,,,,,,,,,,,,,,,,,4250.385000000002,,timeout,,,,,,,,,2,,,,,,,,I,S,O,,66762.39999999851,66761.217,62510.813,62513,62515.013,66765.398,,,
Judgement,html.Screen,1_3_0_1,2022-02-17T16:46:40.176Z,,,,,,,,,,,,,,,,,,,,,,,,,,,,true,2,,460.10199999999895,,response,,,,,,,,,2,,2,click #choice-2,,,,,I,S,O,,67225.89999999851,67225.5,66761.217,66762.5,66765.398,67228.391,,,
Trial,flow.Sequence,1_3_0,2022-02-17T16:46:40.176Z,,,,,,,,,,,,,,,,,,,,,,,,,,,,,,,4710.487000000001,,completion,,,,,,,,,2,,,,,,,,I,S,O,,67226,67225.5,62510.813,62513,62515.013,67228.391,,,
Sounds,html.Screen,1_3_1_0,2022-02-17T16:46:44.425Z,,,,,,,,,,,,,,,,,,,,,,,,,,,,,,,4250.39899999999,,timeout,,,,,,,,,1,,,,,,,,S,O,I,,71475,71474.61,67224.222,67226.09999999776,67228.391,71478.79,,,
Judgement,html.Screen,1_3_1_1,2022-02-17T16:46:44.846Z,,,,,,,,,,,,,,,,,,,,,,,,,,,,true,1,,416.7100000000064,,response,,,,,,,,,1,,1,click #choice-1,,,,,S,O,I,,71895.80000000075,71895.5,71474.61,71475.09999999776,71478.79,71901.13,,,
Trial,flow.Sequence,1_3_1,2022-02-17T16:46:44.846Z,,,,,,,,,,,,,,,,,,,,,,,,,,,,,,,4667.108999999997,,completion,,,,,,,,,1,,,,,,,,S,O,I,,71896,71895.5,67224.222,67226.09999999776,67228.391,71901.13,,,
Sounds,html.Screen,1_3_2_0,2022-02-17T16:46:49.097Z,,,,,,,,,,,,,,,,,,,,,,,,,,,,,,,4249.334999999992,,timeout,,,,,,,,,3,,,,,,,,O,I,S,,76146.59999999776,76146.325,71891.726,71896.19999999925,71901.13,76150.465,,,
Judgement,html.Screen,1_3_2_1,2022-02-17T16:46:49.576Z,,,,,,,,,,,,,,,,,,,,,,,,,,,,true,3,,474.9349999985134,,response,,,,,,,,,3,,3,click #choice-3,,,,,O,I,S,,76625.80000000075,76625.39999999851,76146.325,76146.59999999776,76150.465,76632.01,,,
Trial,flow.Sequence,1_3_2,2022-02-17T16:46:49.576Z,,,,,,,,,,,,,,,,,,,,,,,,,,,,,,,4724.269999998505,,completion,,,,,,,,,3,,,,,,,,O,I,S,,76625.89999999851,76625.39999999851,71891.726,71896.09999999776,71901.13,76632.01,,,
Sounds,html.Screen,1_3_3_0,2022-02-17T16:46:53.827Z,,,,,,,,,,,,,,,,,,,,,,,,,,,,,,,4248.5610000000015,,timeout,,,,,,,,,1,,,,,,,,S,I,O,,80876.80000000075,80876.394,76621.815,76625.89999999851,76632.01,80880.571,,,
Judgement,html.Screen,1_3_3_1,2022-02-17T16:46:54.155Z,,,,,,,,,,,,,,,,,,,,,,,,,,,,true,1,,323.7290000007488,,response,,,,,,,,,1,,1,click #choice-1,,,,,S,I,O,,81204.80000000075,81204.30000000075,80876.394,80876.89999999851,80880.571,81205.92,,,
Trial,flow.Sequence,1_3_3,2022-02-17T16:46:54.155Z,,,,,,,,,,,,,,,,,,,,,,,,,,,,,,,4572.29000000075,,completion,,,,,,,,,1,,,,,,,,S,I,O,,81204.89999999851,81204.30000000075,76621.815,76625.89999999851,76632.01,81205.92,,,
Sounds,html.Screen,1_3_4_0,2022-02-17T16:46:58.402Z,,,,,,,,,,,,,,,,,,,,,,,,,,,,,,,4250.368000000002,,timeout,,,,,,,,,2,,,,,,,,O,S,I,,85452.39999999851,85452.153,81201.721,81204.89999999851,81205.92,85456.288,,,
Judgement,html.Screen,1_3_4_1,2022-02-17T16:46:58.715Z,,,,,,,,,,,,,,,,,,,,,,,,,,,,true,2,,307.9119999992545,,response,,,,,,,,,2,,2,click #choice-2,,,,,O,S,I,,85764.59999999776,85764.19999999925,85452.153,85452.39999999851,85456.288,85770.381,,,
Trial,flow.Sequence,1_3_4,2022-02-17T16:46:58.715Z,,,,,,,,,,,,,,,,,,,,,,,,,,,,,,,4558.279999999257,,completion,,,,,,,,,2,,,,,,,,O,S,I,,85764.69999999925,85764.19999999925,81201.721,81204.89999999851,81205.92,85770.381,,,
Sounds,html.Screen,1_3_5_0,2022-02-17T16:47:02.966Z,,,,,,,,,,,,,,,,,,,,,,,,,,,,,,,4249.119000000006,,timeout,,,,,,,,,3,,,,,,,,I,O,S,,90015.69999999925,90015.366,85760.753,85764.69999999925,85770.381,90019.5,,,
Judgement,html.Screen,1_3_5_1,2022-02-17T16:47:03.416Z,,,,,,,,,,,,,,,,,,,,,,,,,,,,true,3,,445.8999999985099,,response,,,,,,,,,3,,3,click #choice-3,,,,,I,O,S,,90466,90465.39999999851,90015.366,90015.80000000075,90019.5,90471.634,,,
Trial,flow.Sequence,1_3_5,2022-02-17T16:47:03.416Z,,,,,,,,,,,,,,,,,,,,,,,,,,,,,,,4695.018999998516,,completion,,,,,,,,,3,,,,,,,,I,O,S,,90466.09999999776,90465.39999999851,85760.753,85764.69999999925,85770.381,90471.634,,,
Task,flow.Loop,1_3,2022-02-17T16:47:03.418Z,,,,,,,,,,,,,,,,,,,,,,,,,,,,,,,27950.38699999851,,completion,,,1,,,,,,,,,,,,,,,,,,90468.39999999851,90465.39999999851,62510.813,62512.89999999851,62515.013,90471.634,,,
Trap,html.Screen,1_4,2022-02-17T16:47:03.419Z,,,,,,,,,,,,,,,,,,,,,,,,,,,,,,,NaN,,skipped,,,,,,,,,,,,,,,,,,,,,90469.09999999776,90465.39999999851,,90469,,90471.634,,,
Thanks,html.Screen,1_5,2022-02-17T16:47:06.108Z,,,,,,,,,,,,,,,,,,,,,,,,,,,,,,,2685.7659999985044,,response,,,,,,,,,,,continue,click button,,,,,,,,,93157.80000000075,93157.39999999851,90461.634,90469.09999999776,90471.634,98311.761,,,
Headphone screening,flow.Sequence,1,2022-02-17T16:47:06.108Z,,,,,,,,,,,,,,,,,,,,,,,,,,,,,,,74668.7929999985,,completion,,,,,,,,,,,,,,,,,,,,,93157.89999999851,93157.39999999851,18480.259,18483.699999999255,18488.607,98311.761,,,
Instructions,html.Page,2_0,2022-02-17T16:48:01.394Z,,,,,,,,,,,,,,,,,,,,,,,,,,,,,,,50132.03900000075,,form submission,,,,,,,,,,,,,,,,,,,,,148443.8999999985,148443.80000000075,98307.598,98309.19999999925,98311.761,148444.715,,,
Holding screen,html.Screen,2_1_0_0,2022-02-17T16:48:11.390Z,,,,,,,,,,,,,,,,,,,,,,,,,,,,,,,10002.431000000011,,timeout,,,,,,,,,,,,,,,,,,,,,158440.09999999776,158438.779,148440.605,148444,148444.715,158447.146,,,
screen,html.Screen,2_1_0_1_0,2022-02-17T16:48:12.531Z,,,,,,,,,,,,,,,,,53,,,,,,,,,,,,,,1132.6540000007371,,response,,,,99,,,,,,,Space,keypress(Space),,,,,,,,When -- ----- -- ------ - ------- --- ----------<br>------------- ------ ------ ---- ---- ------- ----- -- ----<br>-------- ------- -- ---------- --- - --- ----- ----- ----<br>---- --- --- ----- --- ---- ---- ------- ----- ---- -------<br>--- --- -- ----- -- --- ---- -- --- ---- -- ------ ------<br>--- ----- -- ----,159581,159579.80000000075,158438.779,158440.09999999776,158447.146,159587.589,,0,When
screen,html.Screen,2_1_0_1_1,2022-02-17T16:48:12.935Z,,,,,,,,,,,,,,,,,53,,,,,,,,,,,,,,397.71100000073784,,response,,,,99,,,,,,,Space,keypress(Space),,,,,,,,---- it ----- -- ------ - ------- --- ----------<br>------------- ------ ------ ---- ---- ------- ----- -- ----<br>-------- ------- -- ---------- --- - --- ----- ----- ----<br>---- --- --- ----- --- ---- ---- ------- ----- ---- -------<br>--- --- -- ----- -- --- ---- -- --- ---- -- ------ ------<br>--- ----- -- ----,159985.5,159985.30000000075,159577.25,159581,159587.589,159991.892,,1,it
screen,html.Screen,2_1_0_1_2,2022-02-17T16:48:13.299Z,,,,,,,,,,,,,,,,,53,,,,,,,,,,,,,,357.7079999977723,,response,,,,99,,,,,,,Space,keypress(Space),,,,,,,,---- -- comes -- ------ - ------- --- ----------<br>------------- ------ ------ ---- ---- ------- ----- -- ----<br>-------- ------- -- ---------- --- - --- ----- ----- ----<br>---- --- --- ----- --- ---- ---- ------- ----- ---- -------<br>--- --- -- ----- -- --- ---- -- --- ---- -- ------ ------<br>--- ----- -- ----,160349.8999999985,160349.59999999776,159982.075,159985.59999999776,159991.892,160353.412,,2,comes
screen,html.Screen,2_1_0_1_3,2022-02-17T16:48:13.645Z,,,,,,,,,,,,,,,,,53,,,,,,,,,,,,,,341.28799999924377,,response,,,,99,,,,,,,Space,keypress(Space),,,,,,,,---- -- ----- to ------ - ------- --- ----------<br>------------- ------ ------ ---- ---- ------- ----- -- ----<br>-------- ------- -- ---------- --- - --- ----- ----- ----<br>---- --- --- ----- --- ---- ---- ------- ----- ---- -------<br>--- --- -- ----- -- --- ---- -- --- ---- -- ------ ------<br>--- ----- -- ----,160695,160694.69999999925,160349.151,160349.8999999985,160353.412,160700.622,,3,to
screen,html.Screen,2_1_0_1_4,2022-02-17T16:48:14.037Z,,,,,,,,,,,,,,,,,53,,,,,,,,,,,,,,386.27799999850686,,response,,,,99,,,,,,,Space,keypress(Space),,,,,,,,---- -- ----- -- having - ------- --- ----------<br>------------- ------ ------ ---- ---- ------- ----- -- ----<br>-------- ------- -- ---------- --- - --- ----- ----- ----<br>---- --- --- ----- --- ---- ---- ------- ----- ---- -------<br>--- --- -- ----- -- --- ---- -- --- ---- -- ------ ------<br>--- ----- -- ----,161087.19999999925,161086.8999999985,160695.232,160695,160700.622,161095.845,,4,having
screen,html.Screen,2_1_0_1_5,2022-02-17T16:48:14.430Z,,,,,,,,,,,,,,,,,53,,,,,,,,,,,,,,384.4550000007439,,response,,,,99,,,,,,,Space,keypress(Space),,,,,,,,---- -- ----- -- ------ a ------- --- ----------<br>------------- ------ ------ ---- ---- ------- ----- -- ----<br>-------- ------- -- ---------- --- - --- ----- ----- ----<br>---- --- --- ----- --- ---- ---- ------- ----- ---- -------<br>--- --- -- ----- -- --- ---- -- --- ---- -- ------ ------<br>--- ----- -- ----,161480.5,161480.30000000075,161092.84,161087.19999999925,161095.845,161483.742,,5,a
screen,html.Screen,2_1_0_1_6,2022-02-17T16:48:14.790Z,,,,,,,,,,,,,,,,,53,,,,,,,,,,,,,,356.5580000007467,,response,,,,99,,,,,,,Space,keypress(Space),,,,,,,,---- -- ----- -- ------ - lasting --- ----------<br>------------- ------ ------ ---- ---- ------- ----- -- ----<br>-------- ------- -- ---------- --- - --- ----- ----- ----<br>---- --- --- ----- --- ---- ---- ------- ----- ---- -------<br>--- --- -- ----- -- --- ---- -- --- ---- -- ------ ------<br>--- ----- -- ----,161840.5,161840.30000000075,161479.43,161480.59999999776,161483.742,161842.394,,6,lasting
screen,html.Screen,2_1_0_1_7,2022-02-17T16:48:15.135Z,,,,,,,,,,,,,,,,,53,,,,,,,,,,,,,,342.3059999992547,,response,,,,99,,,,,,,Space,keypress(Space),,,,,,,,---- -- ----- -- ------ - ------- and ----------<br>------------- ------ ------ ---- ---- ------- ----- -- ----<br>-------- ------- -- ---------- --- - --- ----- ----- ----<br>---- --- --- ----- --- ---- ---- ------- ----- ---- -------<br>--- --- -- ----- -- --- ---- -- --- ---- -- ------ ------<br>--- ----- -- ----,162184.8999999985,162184.69999999925,161838.169,161840.59999999776,161842.394,162188.596,,7,and
screen,html.Screen,2_1_0_1_8,2022-02-17T16:48:15.519Z,,,,,,,,,,,,,,,,,53,,,,,,,,,,,,,,380.7040000007546,,response,,,,99,,,,,,,Space,keypress(Space),,,,,,,,---- -- ----- -- ------ - ------- --- fulfilling<br>------------- ------ ------ ---- ---- ------- ----- -- ----<br>-------- ------- -- ---------- --- - --- ----- ----- ----<br>---- --- --- ----- --- ---- ---- ------- ----- ---- -------<br>--- --- -- ----- -- --- ---- -- --- ---- -- ------ ------<br>--- ----- -- ----,162569.5,162569.30000000075,162184.44,162185,162188.596,162572.362,,8,fulfilling
screen,html.Screen,2_1_0_1_9,2022-02-17T16:48:15.900Z,,,,,,,,,,,,,,,,,53,,,,,,,,,,,,,,378.1380000000063,,response,,,,99,,,,,,,Space,keypress(Space),,,,,,,,"---- -- ----- -- ------ - ------- --- ----------<br>relationship, ------ ------ ---- ---- ------- ----- -- ----<br>-------- ------- -- ---------- --- - --- ----- ----- ----<br>---- --- --- ----- --- ---- ---- ------- ----- ---- -------<br>--- --- -- ----- -- --- ---- -- --- ---- -- ------ ------<br>--- ----- -- ----",162950.69999999925,162950.5,162568.177,162569.59999999776,162572.362,162951.932,,9,"relationship,"
screen,html.Screen,2_1_0_1_10,2022-02-17T16:48:16.404Z,,,,,,,,,,,,,,,,,53,,,,,,,,,,,,,,502.1679999977641,,response,,,,99,,,,,,,Space,keypress(Space),,,,,,,,---- -- ----- -- ------ - ------- --- ----------<br>------------- common ------ ---- ---- ------- ----- -- ----<br>-------- ------- -- ---------- --- - --- ----- ----- ----<br>---- --- --- ----- --- ---- ---- ------- ----- ---- -------<br>--- --- -- ----- -- --- ---- -- --- ---- -- ------ ------<br>--- ----- -- ----,163454.30000000075,163454.09999999776,162947.764,162950.80000000075,162951.932,163456.637,,10,common
screen,html.Screen,2_1_0_1_11,2022-02-17T16:48:16.830Z,,,,,,,,,,,,,,,,,53,,,,,,,,,,,,,,423.3630000000121,,response,,,,99,,,,,,,Space,keypress(Space),,,,,,,,---- -- ----- -- ------ - ------- --- ----------<br>------------- ------ wisdom ---- ---- ------- ----- -- ----<br>-------- ------- -- ---------- --- - --- ----- ----- ----<br>---- --- --- ----- --- ---- ---- ------- ----- ---- -------<br>--- --- -- ----- -- --- ---- -- --- ---- -- ------ ------<br>--- ----- -- ----,163880.19999999925,163880,163452.415,163454.3999999985,163456.637,163882.084,,11,wisdom
screen,html.Screen,2_1_0_1_12,2022-02-17T16:48:17.199Z,,,,,,,,,,,,,,,,,53,,,,,,,,,,,,,,366.8159999985073,,response,,,,99,,,,,,,Space,keypress(Space),,,,,,,,---- -- ----- -- ------ - ------- --- ----------<br>------------- ------ ------ says ---- ------- ----- -- ----<br>-------- ------- -- ---------- --- - --- ----- ----- ----<br>---- --- --- ----- --- ---- ---- ------- ----- ---- -------<br>--- --- -- ----- -- --- ---- -- --- ---- -- ------ ------<br>--- ----- -- ----,164249.09999999776,164248.8999999985,163877.89,163880.19999999925,163882.084,164253.337,,12,says
screen,html.Screen,2_1_0_1_13,2022-02-17T16:48:17.563Z,,,,,,,,,,,,,,,,,53,,,,,,,,,,,,,,359.9630000007455,,response,,,,99,,,,,,,Space,keypress(Space),,,,,,,,---- -- ----- -- ------ - ------- --- ----------<br>------------- ------ ------ ---- that ------- ----- -- ----<br>-------- ------- -- ---------- --- - --- ----- ----- ----<br>---- --- --- ----- --- ---- ---- ------- ----- ---- -------<br>--- --- -- ----- -- --- ---- -- --- ---- -- ------ ------<br>--- ----- -- ----,164613.5,164613.30000000075,164249.155,164249.19999999925,164253.337,164616.213,,13,that
screen,html.Screen,2_1_0_1_14,2022-02-17T16:48:17.915Z,,,,,,,,,,,,,,,,,53,,,,,,,,,,,,,,349.08700000075623,,response,,,,99,,,,,,,Space,keypress(Space),,,,,,,,---- -- ----- -- ------ - ------- --- ----------<br>------------- ------ ------ ---- ---- feeling ----- -- ----<br>-------- ------- -- ---------- --- - --- ----- ----- ----<br>---- --- --- ----- --- ---- ---- ------- ----- ---- -------<br>--- --- -- ----- -- --- ---- -- --- ---- -- ------ ------<br>--- ----- -- ----,164965.5,164965.30000000075,164611.984,164613.59999999776,164616.213,164971.744,,14,feeling
screen,html.Screen,2_1_0_1_15,2022-02-17T16:48:18.226Z,,,,,,,,,,,,,,,,,53,,,,,,,,,,,,,,304.75599999999395,,response,,,,99,,,,,,,Space,keypress(Space),,,,,,,,---- -- ----- -- ------ - ------- --- ----------<br>------------- ------ ------ ---- ---- ------- close -- ----<br>-------- ------- -- ---------- --- - --- ----- ----- ----<br>---- --- --- ----- --- ---- ---- ------- ----- ---- -------<br>--- --- -- ----- -- --- ---- -- --- ---- -- ------ ------<br>--- ----- -- ----,165276.69999999925,165276.5,164962.376,164965.59999999776,164971.744,165279.445,,15,close
screen,html.Screen,2_1_0_1_16,2022-02-17T16:48:18.546Z,,,,,,,,,,,,,,,,,53,,,,,,,,,,,,,,316.9549999985029,,response,,,,99,,,,,,,Space,keypress(Space),,,,,,,,---- -- ----- -- ------ - ------- --- ----------<br>------------- ------ ------ ---- ---- ------- ----- to ----<br>-------- ------- -- ---------- --- - --- ----- ----- ----<br>---- --- --- ----- --- ---- ---- ------- ----- ---- -------<br>--- --- -- ----- -- --- ---- -- --- ---- -- ------ ------<br>--- ----- -- ----,165596.59999999776,165596.3999999985,165275.202,165276.80000000075,165279.445,165600.604,,16,to
screen,html.Screen,2_1_0_1_17,2022-02-17T16:48:18.919Z,,,,,,,,,,,,,,,,,53,,,,,,,,,,,,,,368.2959999985178,,response,,,,99,,,,,,,Space,keypress(Space),,,,,,,,---- -- ----- -- ------ - ------- --- ----------<br>------------- ------ ------ ---- ---- ------- ----- -- your<br>-------- ------- -- ---------- --- - --- ----- ----- ----<br>---- --- --- ----- --- ---- ---- ------- ----- ---- -------<br>--- --- -- ----- -- --- ---- -- --- ---- -- ------ ------<br>--- ----- -- ----,165969.09999999776,165968.8999999985,165596.35,165596.59999999776,165600.604,165971.823,,17,your
screen,html.Screen,2_1_0_1_18,2022-02-17T16:48:19.316Z,,,,,,,,,,,,,,,,,53,,,,,,,,,,,,,,394.27699999776087,,response,,,,99,,,,,,,Space,keypress(Space),,,,,,,,---- -- ----- -- ------ - ------- --- ----------<br>------------- ------ ------ ---- ---- ------- ----- -- ----<br>romantic ------- -- ---------- --- - --- ----- ----- ----<br>---- --- --- ----- --- ---- ---- ------- ----- ---- -------<br>--- --- -- ----- -- --- ---- -- --- ---- -- ------ ------<br>--- ----- -- ----,166366.30000000075,166366.09999999776,165967.628,165969.09999999776,165971.823,166368.097,,18,romantic
screen,html.Screen,2_1_0_1_19,2022-02-17T16:48:19.738Z,,,,,,,,,,,,,,,,,53,,,,,,,,,,,,,,419.7030000007362,,response,,,,99,,,,,,,Space,keypress(Space),,,,,,,,---- -- ----- -- ------ - ------- --- ----------<br>------------- ------ ------ ---- ---- ------- ----- -- ----<br>-------- partner -- ---------- --- - --- ----- ----- ----<br>---- --- --- ----- --- ---- ---- ------- ----- ---- -------<br>--- --- -- ----- -- --- ---- -- --- ---- -- ------ ------<br>--- ----- -- ----,166788.09999999776,166787.80000000075,166363.914,166366.3999999985,166368.097,166789.381,,19,partner
screen,html.Screen,2_1_0_1_20,2022-02-17T16:48:20.111Z,,,,,,,,,,,,,,,,,53,,,,,,,,,,,,,,371.318999999261,,response,,,,99,,,,,,,Space,keypress(Space),,,,,,,,---- -- ----- -- ------ - ------- --- ----------<br>------------- ------ ------ ---- ---- ------- ----- -- ----<br>-------- ------- is ---------- --- - --- ----- ----- ----<br>---- --- --- ----- --- ---- ---- ------- ----- ---- -------<br>--- --- -- ----- -- --- ---- -- --- ---- -- ------ ------<br>--- ----- -- ----,167160.8999999985,167160.69999999925,166785.18,166788.09999999776,166789.381,167164.77,,20,is
screen,html.Screen,2_1_0_1_21,2022-02-17T16:48:20.504Z,,,,,,,,,,,,,,,,,53,,,,,,,,,,,,,,389.2300000000105,,response,,,,99,,,,,,,Space,keypress(Space),,,,,,,,---- -- ----- -- ------ - ------- --- ----------<br>------------- ------ ------ ---- ---- ------- ----- -- ----<br>-------- ------- -- paramount. --- - --- ----- ----- ----<br>---- --- --- ----- --- ---- ---- ------- ----- ---- -------<br>--- --- -- ----- -- --- ---- -- --- ---- -- ------ ------<br>--- ----- -- ----,167554.30000000075,167554,167160.618,167161,167164.77,167556.919,,21,paramount.
screen,html.Screen,2_1_0_1_22,2022-02-17T16:48:21.073Z,,,,,,,,,,,,,,,,,53,,,,,,,,,,,,,,566.0810000000056,,response,,,,99,,,,,,,Space,keypress(Space),,,,,,,,---- -- ----- -- ------ - ------- --- ----------<br>------------- ------ ------ ---- ---- ------- ----- -- ----<br>-------- ------- -- ---------- But - --- ----- ----- ----<br>---- --- --- ----- --- ---- ---- ------- ----- ---- -------<br>--- --- -- ----- -- --- ---- -- --- ---- -- ------ ------<br>--- ----- -- ----,168123.30000000075,168123,167552.601,167554.30000000075,167556.919,168129.967,,22,But
screen,html.Screen,2_1_0_1_23,2022-02-17T16:48:21.450Z,,,,,,,,,,,,,,,,,53,,,,,,,,,,,,,,369.9329999985057,,response,,,,99,,,,,,,Space,keypress(Space),,,,,,,,---- -- ----- -- ------ - ------- --- ----------<br>------------- ------ ------ ---- ---- ------- ----- -- ----<br>-------- ------- -- ---------- --- a --- ----- ----- ----<br>---- --- --- ----- --- ---- ---- ------- ----- ---- -------<br>--- --- -- ----- -- --- ---- -- --- ---- -- ------ ------<br>--- ----- -- ----,168500.09999999776,168499.8999999985,168119.902,168123.30000000075,168129.967,168503.706,,23,a
screen,html.Screen,2_1_0_1_24,2022-02-17T16:48:21.773Z,,,,,,,,,,,,,,,,,53,,,,,,,,,,,,,,319.7939999999944,,response,,,,99,,,,,,,Space,keypress(Space),,,,,,,,---- -- ----- -- ------ - ------- --- ----------<br>------------- ------ ------ ---- ---- ------- ----- -- ----<br>-------- ------- -- ---------- --- - new ----- ----- ----<br>---- --- --- ----- --- ---- ---- ------- ----- ---- -------<br>--- --- -- ----- -- --- ---- -- --- ---- -- ------ ------<br>--- ----- -- ----,168823.80000000075,168823.5,168499.558,168500.30000000075,168503.706,168830.616,,24,new
screen,html.Screen,2_1_0_1_25,2022-02-17T16:48:22.126Z,,,,,,,,,,,,,,,,,53,,,,,,,,,,,,,,345.08399999924586,,response,,,,99,,,,,,,Space,keypress(Space),,,,,,,,---- -- ----- -- ------ - ------- --- ----------<br>------------- ------ ------ ---- ---- ------- ----- -- ----<br>-------- ------- -- ---------- --- - --- study ----- ----<br>---- --- --- ----- --- ---- ---- ------- ----- ---- -------<br>--- --- -- ----- -- --- ---- -- --- ---- -- ------ ------<br>--- ----- -- ----,169175.8999999985,169175.69999999925,168820.654,168823.80000000075,168830.616,169179.527,,25,study
screen,html.Screen,2_1_0_1_26,2022-02-17T16:48:22.429Z,,,,,,,,,,,,,,,,,53,,,,,,,,,,,,,,299.07299999776296,,response,,,,99,,,,,,,Space,keypress(Space),,,,,,,,---- -- ----- -- ------ - ------- --- ----------<br>------------- ------ ------ ---- ---- ------- ----- -- ----<br>-------- ------- -- ---------- --- - --- ----- finds ----<br>---- --- --- ----- --- ---- ---- ------- ----- ---- -------<br>--- --- -- ----- -- --- ---- -- --- ---- -- ------ ------<br>--- ----- -- ----,169479,169478.59999999776,169175.289,169175.8999999985,169179.527,169484.801,,26,finds
screen,html.Screen,2_1_0_1_27,2022-02-17T16:48:22.765Z,,,,,,,,,,,,,,,,,53,,,,,,,,,,,,,,330.2989999977581,,response,,,,99,,,,,,,Space,keypress(Space),,,,,,,,---- -- ----- -- ------ - ------- --- ----------<br>------------- ------ ------ ---- ---- ------- ----- -- ----<br>-------- ------- -- ---------- --- - --- ----- ----- that<br>---- --- --- ----- --- ---- ---- ------- ----- ---- -------<br>--- --- -- ----- -- --- ---- -- --- ---- -- ------ ------<br>--- ----- -- ----,169815.30000000075,169815.09999999776,169475.599,169479,169484.801,169817.687,,27,that
screen,html.Screen,2_1_0_1_28,2022-02-17T16:48:23.158Z,,,,,,,,,,,,,,,,,53,,,,,,,,,,,,,,390.0129999992496,,response,,,,99,,,,,,,Space,keypress(Space),,,,,,,,---- -- ----- -- ------ - ------- --- ----------<br>------------- ------ ------ ---- ---- ------- ----- -- ----<br>-------- ------- -- ---------- --- - --- ----- ----- ----<br>it's --- --- ----- --- ---- ---- ------- ----- ---- -------<br>--- --- -- ----- -- --- ---- -- --- ---- -- ------ ------<br>--- ----- -- ----,170208,170207.69999999925,169813.474,169815.3999999985,169817.687,170209.697,,28,it's
screen,html.Screen,2_1_0_1_29,2022-02-17T16:48:23.498Z,,,,,,,,,,,,,,,,,53,,,,,,,,,,,,,,338.1030000007595,,response,,,,99,,,,,,,Space,keypress(Space),,,,,,,,---- -- ----- -- ------ - ------- --- ----------<br>------------- ------ ------ ---- ---- ------- ----- -- ----<br>-------- ------- -- ---------- --- - --- ----- ----- ----<br>---- not --- ----- --- ---- ---- ------- ----- ---- -------<br>--- --- -- ----- -- --- ---- -- --- ---- -- ------ ------<br>--- ----- -- ----,170548.09999999776,170547.80000000075,170205.453,170208,170209.697,170551.747,,29,not
screen,html.Screen,2_1_0_1_30,2022-02-17T16:48:23.850Z,,,,,,,,,,,,,,,,,53,,,,,,,,,,,,,,348.15299999850686,,response,,,,99,,,,,,,Space,keypress(Space),,,,,,,,---- -- ----- -- ------ - ------- --- ----------<br>------------- ------ ------ ---- ---- ------- ----- -- ----<br>-------- ------- -- ---------- --- - --- ----- ----- ----<br>---- --- how ----- --- ---- ---- ------- ----- ---- -------<br>--- --- -- ----- -- --- ---- -- --- ---- -- ------ ------<br>--- ----- -- ----,170900.19999999925,170899.8999999985,170547.51,170548.09999999776,170551.747,170902.122,,30,how
screen,html.Screen,2_1_0_1_31,2022-02-17T16:48:24.161Z,,,,,,,,,,,,,,,,,53,,,,,,,,,,,,,,309.17800000074203,,response,,,,99,,,,,,,Space,keypress(Space),,,,,,,,---- -- ----- -- ------ - ------- --- ----------<br>------------- ------ ------ ---- ---- ------- ----- -- ----<br>-------- ------- -- ---------- --- - --- ----- ----- ----<br>---- --- --- close --- ---- ---- ------- ----- ---- -------<br>--- --- -- ----- -- --- ---- -- --- ---- -- ------ ------<br>--- ----- -- ----,171211.59999999776,171211.30000000075,170897.941,170900.30000000075,170902.122,171215.014,,31,close
screen,html.Screen,2_1_0_1_32,2022-02-17T16:48:24.481Z,,,,,,,,,,,,,,,,,53,,,,,,,,,,,,,,315.58599999776925,,response,,,,99,,,,,,,Space,keypress(Space),,,,,,,,---- -- ----- -- ------ - ------- --- ----------<br>------------- ------ ------ ---- ---- ------- ----- -- ----<br>-------- ------- -- ---------- --- - --- ----- ----- ----<br>---- --- --- ----- you ---- ---- ------- ----- ---- -------<br>--- --- -- ----- -- --- ---- -- --- ---- -- ------ ------<br>--- ----- -- ----,171530.8999999985,171530.59999999776,171210.797,171211.59999999776,171215.014,171537.335,,32,you
screen,html.Screen,2_1_0_1_33,2022-02-17T16:48:24.833Z,,,,,,,,,,,,,,,,,53,,,,,,,,,,,,,,345.66500000000815,,response,,,,99,,,,,,,Space,keypress(Space),,,,,,,,---- -- ----- -- ------ - ------- --- ----------<br>------------- ------ ------ ---- ---- ------- ----- -- ----<br>-------- ------- -- ---------- --- - --- ----- ----- ----<br>---- --- --- ----- --- feel ---- ------- ----- ---- -------<br>--- --- -- ----- -- --- ---- -- --- ---- -- ------ ------<br>--- ----- -- ----,171883.09999999776,171883,171527.831,171531,171537.335,171886.585,,33,feel
screen,html.Screen,2_1_0_1_34,2022-02-17T16:48:25.210Z,,,,,,,,,,,,,,,,,53,,,,,,,,,,,,,,373.2150000007532,,response,,,,99,,,,,,,Space,keypress(Space),,,,,,,,---- -- ----- -- ------ - ------- --- ----------<br>------------- ------ ------ ---- ---- ------- ----- -- ----<br>-------- ------- -- ---------- --- - --- ----- ----- ----<br>---- --- --- ----- --- ---- that ------- ----- ---- -------<br>--- --- -- ----- -- --- ---- -- --- ---- -- ------ ------<br>--- ----- -- ----,172260.09999999776,172259.80000000075,171882.295,171883.19999999925,171886.585,172261.922,,34,that
screen,html.Screen,2_1_0_1_35,2022-02-17T16:48:25.619Z,,,,,,,,,,,,,,,,,53,,,,,,,,,,,,,,407.3780000007537,,response,,,,99,,,,,,,Space,keypress(Space),,,,,,,,---- -- ----- -- ------ - ------- --- ----------<br>------------- ------ ------ ---- ---- ------- ----- -- ----<br>-------- ------- -- ---------- --- - --- ----- ----- ----<br>---- --- --- ----- --- ---- ---- matters ----- ---- -------<br>--- --- -- ----- -- --- ---- -- --- ---- -- ------ ------<br>--- ----- -- ----,172669.5,172669.30000000075,172257.729,172260.09999999776,172261.922,172676.384,,35,matters
screen,html.Screen,2_1_0_1_36,2022-02-17T16:48:25.976Z,,,,,,,,,,,,,,,,,53,,,,,,,,,,,,,,349.51599999851896,,response,,,,99,,,,,,,Space,keypress(Space),,,,,,,,"---- -- ----- -- ------ - ------- --- ----------<br>------------- ------ ------ ---- ---- ------- ----- -- ----<br>-------- ------- -- ---------- --- - --- ----- ----- ----<br>---- --- --- ----- --- ---- ---- ------- most, ---- -------<br>--- --- -- ----- -- --- ---- -- --- ---- -- ------ ------<br>--- ----- -- ----",173026.09999999776,173025.8999999985,172666.436,172669.59999999776,172676.384,173029.409,,36,"most,"
screen,html.Screen,2_1_0_1_37,2022-02-17T16:48:26.389Z,,,,,,,,,,,,,,,,,53,,,,,,,,,,,,,,409.6909999977506,,response,,,,99,,,,,,,Space,keypress(Space),,,,,,,,---- -- ----- -- ------ - ------- --- ----------<br>------------- ------ ------ ---- ---- ------- ----- -- ----<br>-------- ------- -- ---------- --- - --- ----- ----- ----<br>---- --- --- ----- --- ---- ---- ------- ----- it's -------<br>--- --- -- ----- -- --- ---- -- --- ---- -- ------ ------<br>--- ----- -- ----,173439.3999999985,173439.09999999776,173025.244,173026.09999999776,173029.409,173442.366,,37,it's
screen,html.Screen,2_1_0_1_38,2022-02-17T16:48:26.770Z,,,,,,,,,,,,,,,,,53,,,,,,,,,,,,,,377.934000000736,,response,,,,99,,,,,,,Space,keypress(Space),,,,,,,,---- -- ----- -- ------ - ------- --- ----------<br>------------- ------ ------ ---- ---- ------- ----- -- ----<br>-------- ------- -- ---------- --- - --- ----- ----- ----<br>---- --- --- ----- --- ---- ---- ------- ----- ---- whether<br>--- --- -- ----- -- --- ---- -- --- ---- -- ------ ------<br>--- ----- -- ----,173820.5,173820.30000000075,173438.179,173439.3999999985,173442.366,173821.933,,38,whether
screen,html.Screen,2_1_0_1_39,2022-02-17T16:48:27.201Z,,,,,,,,,,,,,,,,,53,,,,,,,,,,,,,,428.86700000075507,,response,,,,99,,,,,,,Space,keypress(Space),,,,,,,,---- -- ----- -- ------ - ------- --- ----------<br>------------- ------ ------ ---- ---- ------- ----- -- ----<br>-------- ------- -- ---------- --- - --- ----- ----- ----<br>---- --- --- ----- --- ---- ---- ------- ----- ---- -------<br>you --- -- ----- -- --- ---- -- --- ---- -- ------ ------<br>--- ----- -- ----,174251.09999999776,174250.80000000075,173817.747,173820.59999999776,173821.933,174256.978,,39,you
screen,html.Screen,2_1_0_1_40,2022-02-17T16:48:27.564Z,,,,,,,,,,,,,,,,,53,,,,,,,,,,,,,,357.62199999776203,,response,,,,99,,,,,,,Space,keypress(Space),,,,,,,,---- -- ----- -- ------ - ------- --- ----------<br>------------- ------ ------ ---- ---- ------- ----- -- ----<br>-------- ------- -- ---------- --- - --- ----- ----- ----<br>---- --- --- ----- --- ---- ---- ------- ----- ---- -------<br>--- are -- ----- -- --- ---- -- --- ---- -- ------ ------<br>--- ----- -- ----,174614.8999999985,174614.59999999776,174247.303,174251.09999999776,174256.978,174618.689,,40,are
screen,html.Screen,2_1_0_1_41,2022-02-17T16:48:27.946Z,,,,,,,,,,,,,,,,,53,,,,,,,,,,,,,,377.0109999992419,,response,,,,99,,,,,,,Space,keypress(Space),,,,,,,,---- -- ----- -- ------ - ------- --- ----------<br>------------- ------ ------ ---- ---- ------- ----- -- ----<br>-------- ------- -- ---------- --- - --- ----- ----- ----<br>---- --- --- ----- --- ---- ---- ------- ----- ---- -------<br>--- --- as ----- -- --- ---- -- --- ---- -- ------ ------<br>--- ----- -- ----,174995.8999999985,174995.69999999925,174614.367,174614.8999999985,174618.689,174998.25,,41,as
screen,html.Screen,2_1_0_1_42,2022-02-17T16:48:28.322Z,,,,,,,,,,,,,,,,,53,,,,,,,,,,,,,,374.25,,response,,,,99,,,,,,,Space,keypress(Space),,,,,,,,---- -- ----- -- ------ - ------- --- ----------<br>------------- ------ ------ ---- ---- ------- ----- -- ----<br>-------- ------- -- ---------- --- - --- ----- ----- ----<br>---- --- --- ----- --- ---- ---- ------- ----- ---- -------<br>--- --- -- close -- --- ---- -- --- ---- -- ------ ------<br>--- ----- -- ----,175372.69999999925,175372.5,174993.932,174996,174998.25,175379.132,,42,close
screen,html.Screen,2_1_0_1_43,2022-02-17T16:48:28.728Z,,,,,,,,,,,,,,,,,53,,,,,,,,,,,,,,399.0679999992426,,response,,,,99,,,,,,,Space,keypress(Space),,,,,,,,---- -- ----- -- ------ - ------- --- ----------<br>------------- ------ ------ ---- ---- ------- ----- -- ----<br>-------- ------- -- ---------- --- - --- ----- ----- ----<br>---- --- --- ----- --- ---- ---- ------- ----- ---- -------<br>--- --- -- ----- as --- ---- -- --- ---- -- ------ ------<br>--- ----- -- ----,175778.3999999985,175778.19999999925,175369.327,175372.69999999925,175379.132,175782.422,,43,as
screen,html.Screen,2_1_0_1_44,2022-02-17T16:48:29.109Z,,,,,,,,,,,,,,,,,53,,,,,,,,,,,,,,376.27799999926356,,response,,,,99,,,,,,,Space,keypress(Space),,,,,,,,---- -- ----- -- ------ - ------- --- ----------<br>------------- ------ ------ ---- ---- ------- ----- -- ----<br>-------- ------- -- ---------- --- - --- ----- ----- ----<br>---- --- --- ----- --- ---- ---- ------- ----- ---- -------<br>--- --- -- ----- -- you ---- -- --- ---- -- ------ ------<br>--- ----- -- ----,176159,176158.69999999925,175778.166,175778.3999999985,175782.422,176161.995,,44,you
screen,html.Screen,2_1_0_1_45,2022-02-17T16:48:29.477Z,,,,,,,,,,,,,,,,,53,,,,,,,,,,,,,,365.6049999977695,,response,,,,99,,,,,,,Space,keypress(Space),,,,,,,,---- -- ----- -- ------ - ------- --- ----------<br>------------- ------ ------ ---- ---- ------- ----- -- ----<br>-------- ------- -- ---------- --- - --- ----- ----- ----<br>---- --- --- ----- --- ---- ---- ------- ----- ---- -------<br>--- --- -- ----- -- --- want -- --- ---- -- ------ ------<br>--- ----- -- ----,176527.80000000075,176527.59999999776,176157.776,176159,176161.995,176534.123,,45,want
screen,html.Screen,2_1_0_1_46,2022-02-17T16:48:29.834Z,,,,,,,,,,,,,,,,,53,,,,,,,,,,,,,,349.67700000075274,,response,,,,99,,,,,,,Space,keypress(Space),,,,,,,,---- -- ----- -- ------ - ------- --- ----------<br>------------- ------ ------ ---- ---- ------- ----- -- ----<br>-------- ------- -- ---------- --- - --- ----- ----- ----<br>---- --- --- ----- --- ---- ---- ------- ----- ---- -------<br>--- --- -- ----- -- --- ---- to --- ---- -- ------ ------<br>--- ----- -- ----,176884,176883.80000000075,176524.75,176527.80000000075,176534.123,176887.797,,46,to
screen,html.Screen,2_1_0_1_47,2022-02-17T16:48:30.174Z,,,,,,,,,,,,,,,,,53,,,,,,,,,,,,,,335.90299999926356,,response,,,,99,,,,,,,Space,keypress(Space),,,,,,,,"---- -- ----- -- ------ - ------- --- ----------<br>------------- ------ ------ ---- ---- ------- ----- -- ----<br>-------- ------- -- ---------- --- - --- ----- ----- ----<br>---- --- --- ----- --- ---- ---- ------- ----- ---- -------<br>--- --- -- ----- -- --- ---- -- be, ---- -- ------ ------<br>--- ----- -- ----",177224,177223.69999999925,176883.553,176884.09999999776,176887.797,177225.602,,47,"be,"
screen,html.Screen,2_1_0_1_48,2022-02-17T16:48:30.559Z,,,,,,,,,,,,,,,,,53,,,,,,,,,,,,,,383.2979999984964,,response,,,,99,,,,,,,Space,keypress(Space),,,,,,,,---- -- ----- -- ------ - ------- --- ----------<br>------------- ------ ------ ---- ---- ------- ----- -- ----<br>-------- ------- -- ---------- --- - --- ----- ----- ----<br>---- --- --- ----- --- ---- ---- ------- ----- ---- -------<br>--- --- -- ----- -- --- ---- -- --- even -- ------ ------<br>--- ----- -- ----,177609.19999999925,177608.8999999985,177221.363,177224,177225.602,177613.556,,48,even
screen,html.Screen,2_1_0_1_49,2022-02-17T16:48:31.001Z,,,,,,,,,,,,,,,,,53,,,,,,,,,,,,,,437.5439999977534,,response,,,,99,,,,,,,Space,keypress(Space),,,,,,,,---- -- ----- -- ------ - ------- --- ----------<br>------------- ------ ------ ---- ---- ------- ----- -- ----<br>-------- ------- -- ---------- --- - --- ----- ----- ----<br>---- --- --- ----- --- ---- ---- ------- ----- ---- -------<br>--- --- -- ----- -- --- ---- -- --- ---- if ------ ------<br>--- ----- -- ----,178051.3999999985,178051.09999999776,177609.314,177609.19999999925,177613.556,178055.667,,49,if
screen,html.Screen,2_1_0_1_50,2022-02-17T16:48:31.341Z,,,,,,,,,,,,,,,,,53,,,,,,,,,,,,,,335.33300000001327,,response,,,,99,,,,,,,Space,keypress(Space),,,,,,,,---- -- ----- -- ------ - ------- --- ----------<br>------------- ------ ------ ---- ---- ------- ----- -- ----<br>-------- ------- -- ---------- --- - --- ----- ----- ----<br>---- --- --- ----- --- ---- ---- ------- ----- ---- -------<br>--- --- -- ----- -- --- ---- -- --- ---- -- that's ------<br>--- ----- -- ----,178391.30000000075,178391,178051.37,178051.3999999985,178055.667,178393.5,,50,that's
screen,html.Screen,2_1_0_1_51,2022-02-17T16:48:31.712Z,,,,,,,,,,,,,,,,,53,,,,,,,,,,,,,,368.69999999925494,,response,,,,99,,,,,,,Space,keypress(Space),,,,,,,,---- -- ----- -- ------ - ------- --- ----------<br>------------- ------ ------ ---- ---- ------- ----- -- ----<br>-------- ------- -- ---------- --- - --- ----- ----- ----<br>---- --- --- ----- --- ---- ---- ------- ----- ---- -------<br>--- --- -- ----- -- --- ---- -- --- ---- -- ------ really<br>--- ----- -- ----,178762.5,178762.19999999925,178389.246,178391.30000000075,178393.5,178764.746,,51,really
screen,html.Screen,2_1_0_1_52,2022-02-17T16:48:32.074Z,,,,,,,,,,,,,,,,,53,,,,,,,,,,,,,,359.5540000007313,,response,,,,99,,,,,,,Space,keypress(Space),,,,,,,,---- -- ----- -- ------ - ------- --- ----------<br>------------- ------ ------ ---- ---- ------- ----- -- ----<br>-------- ------- -- ---------- --- - --- ----- ----- ----<br>---- --- --- ----- --- ---- ---- ------- ----- ---- -------<br>--- --- -- ----- -- --- ---- -- --- ---- -- ------ ------<br>not ----- -- ----,179124.3999999985,179124.30000000075,178760.558,178762.5,178764.746,179127.607,,52,not
screen,html.Screen,2_1_0_1_53,2022-02-17T16:48:32.418Z,,,,,,,,,,,,,,,,,53,,,,,,,,,,,,,,340.39300000001094,,response,,,,99,,,,,,,Space,keypress(Space),,,,,,,,---- -- ----- -- ------ - ------- --- ----------<br>------------- ------ ------ ---- ---- ------- ----- -- ----<br>-------- ------- -- ---------- --- - --- ----- ----- ----<br>---- --- --- ----- --- ---- ---- ------- ----- ---- -------<br>--- --- -- ----- -- --- ---- -- --- ---- -- ------ ------<br>--- close -- ----,179468.30000000075,179468,179123.373,179124.5,179127.607,179469.674,,53,close
screen,html.Screen,2_1_0_1_54,2022-02-17T16:48:32.729Z,,,,,,,,,,,,,,,,,53,,,,,,,,,,,,,,309.5259999992559,,response,,,,99,,,,,,,Space,keypress(Space),,,,,,,,---- -- ----- -- ------ - ------- --- ----------<br>------------- ------ ------ ---- ---- ------- ----- -- ----<br>-------- ------- -- ---------- --- - --- ----- ----- ----<br>---- --- --- ----- --- ---- ---- ------- ----- ---- -------<br>--- --- -- ----- -- --- ---- -- --- ---- -- ------ ------<br>--- ----- at ----,179779.5,179779.19999999925,179465.428,179468.30000000075,179469.674,179782.484,,54,at
screen,html.Screen,2_1_0_1_55,2022-02-17T16:48:33.033Z,,,,,,,,,,,,,,,,,53,,,,,,,,,,,,,,300.3160000007483,,response,,,,99,,,,,,,Space,keypress(Space),,,,,,,,---- -- ----- -- ------ - ------- --- ----------<br>------------- ------ ------ ---- ---- ------- ----- -- ----<br>-------- ------- -- ---------- --- - --- ----- ----- ----<br>---- --- --- ----- --- ---- ---- ------- ----- ---- -------<br>--- --- -- ----- -- --- ---- -- --- ---- -- ------ ------<br>--- ----- -- all.,180083.09999999776,180082.80000000075,179778.319,179779.59999999776,179782.484,180087.086,,55,all.
Item 99,flow.Loop,2_1_0_1,2022-02-17T16:48:33.033Z,,,,,,,,,,,,,,,,,,,,,,,,,,,,,,,21635.654000000737,,completion,,,,,F,,,,,,,,,,,silence,,,,,180083.19999999925,180082.80000000075,158438.779,158440.09999999776,158447.146,180087.086,,,
Question 1,html.Screen,2_1_0_2,2022-02-17T16:48:37.262Z,,,,,,,,,,,,,,,,,,,,,,,,,,,,true,FALSE,,4225.113999999245,,response,,,,99,F,,,,,,FALSE,click #choice-2,,,,silence,,,,,184312.69999999925,184312.19999999925,180082.746,180083.19999999925,180087.086,184316.596,,,
Question 2,html.Screen,2_1_0_3,2022-02-17T16:48:42.311Z,,,,,,,,,,,,,,,,,,,,,,,,,,,,true,TRUE,,5044.704000000755,,response,,,,99,F,,,,,,TRUE,click #choice-1,,,,silence,,,,,189361.69999999925,189361.30000000075,184312.329,184312.69999999925,184316.596,189363.605,,,
Item 99,flow.Sequence,2_1_0,2022-02-17T16:48:42.311Z,,,,,,,,,,,,,,,,,,,,,,,,,,,,,,,40916.58500000075,,completion,,,,,,,,,,,,,,,,,,,,,189361.80000000075,189361.30000000075,148440.605,148444,148444.715,189363.605,,,
Holding screen,html.Screen,2_1_1_0,2022-02-17T16:48:52.308Z,,,,,,,,,,,,,,,,,,,,,,,,,,,,,,,9998.298999999999,,timeout,,,,,,,,,,,,,,,,,,,,,199358,199357.733,189359.503,189361.80000000075,189363.605,199361.904,,,
screen,html.Screen,2_1_1_1_0,2022-02-17T16:48:59.110Z,,,,,,,,,,,,,,,,,54,,,,,,,,,,,,,,6797.8960000007355,,response,,,,100,,,,,,,Space,keypress(Space),,,,,,,,At --- ---- --- ------ ----- ------- ---- -- --- ------- --<br>------- ---------- ------ -- ----- -- ----- -- ---- ------<br>--- ----- --- --- ------ -------- ----- --- ------ ----- --<br>----- ----- ---------- --- --- ------ ------ ---- -- ------<br>------- --- ------ ----- --- ---- ------- -- ---- --- --<br>------- ------,206160.09999999776,206159.80000000075,199357.733,199358,199361.904,206166.448,,0,At
screen,html.Screen,2_1_1_1_1,2022-02-17T16:48:59.449Z,,,,,,,,,,,,,,,,,54,,,,,,,,,,,,,,333.15199999776087,,response,,,,100,,,,,,,Space,keypress(Space),,,,,,,,-- the ---- --- ------ ----- ------- ---- -- --- ------- --<br>------- ---------- ------ -- ----- -- ----- -- ---- ------<br>--- ----- --- --- ------ -------- ----- --- ------ ----- --<br>----- ----- ---------- --- --- ------ ------ ---- -- ------<br>------- --- ------ ----- --- ---- ------- -- ---- --- --<br>------- ------,206499.69999999925,206499.59999999776,206156.452,206160.09999999776,206166.448,206502.865,,1,the
screen,html.Screen,2_1_1_1_2,2022-02-17T16:48:59.876Z,,,,,,,,,,,,,,,,,54,,,,,,,,,,,,,,422.73499999777414,,response,,,,100,,,,,,,Space,keypress(Space),,,,,,,,-- --- time --- ------ ----- ------- ---- -- --- ------- --<br>------- ---------- ------ -- ----- -- ----- -- ---- ------<br>--- ----- --- --- ------ -------- ----- --- ------ ----- --<br>----- ----- ---------- --- --- ------ ------ ---- -- ------<br>------- --- ------ ----- --- ---- ------- -- ---- --- --<br>------- ------,206925.8999999985,206925.59999999776,206498.668,206499.80000000075,206502.865,206928.294,,2,time
screen,html.Screen,2_1_1_1_3,2022-02-17T16:49:00.289Z,,,,,,,,,,,,,,,,,54,,,,,,,,,,,,,,411.00600000075065,,response,,,,100,,,,,,,Space,keypress(Space),,,,,,,,-- --- ---- the ------ ----- ------- ---- -- --- ------- --<br>------- ---------- ------ -- ----- -- ----- -- ---- ------<br>--- ----- --- --- ------ -------- ----- --- ------ ----- --<br>----- ----- ---------- --- --- ------ ------ ---- -- ------<br>------- --- ------ ----- --- ---- ------- -- ---- --- --<br>------- ------,207339.69999999925,207339.30000000075,206924.011,206926,206928.294,207341.246,,3,the
screen,html.Screen,2_1_1_1_4,2022-02-17T16:49:00.719Z,,,,,,,,,,,,,,,,,54,,,,,,,,,,,,,,428.15399999849615,,response,,,,100,,,,,,,Space,keypress(Space),,,,,,,,-- --- ---- --- French ----- ------- ---- -- --- ------- --<br>------- ---------- ------ -- ----- -- ----- -- ---- ------<br>--- ----- --- --- ------ -------- ----- --- ------ ----- --<br>----- ----- ---------- --- --- ------ ------ ---- -- ------<br>------- --- ------ ----- --- ---- ------- -- ---- --- --<br>------- ------,207769.69999999925,207769.3999999985,207337.03,207339.69999999925,207341.246,207776.001,,4,French
screen,html.Screen,2_1_1_1_5,2022-02-17T16:49:01.162Z,,,,,,,,,,,,,,,,,54,,,,,,,,,,,,,,435.69899999926565,,response,,,,100,,,,,,,Space,keypress(Space),,,,,,,,-- --- ---- --- ------ crown ------- ---- -- --- ------- --<br>------- ---------- ------ -- ----- -- ----- -- ---- ------<br>--- ----- --- --- ------ -------- ----- --- ------ ----- --<br>----- ----- ---------- --- --- ------ ------ ---- -- ------<br>------- --- ------ ----- --- ---- ------- -- ---- --- --<br>------- ------,208211.8999999985,208211.69999999925,207766.674,207769.69999999925,207776.001,208218.491,,5,crown
screen,html.Screen,2_1_1_1_6,2022-02-17T16:49:01.678Z,,,,,,,,,,,,,,,,,54,,,,,,,,,,,,,,509.5089999999909,,response,,,,100,,,,,,,Space,keypress(Space),,,,,,,,-- --- ---- --- ------ ----- secured ---- -- --- ------- --<br>------- ---------- ------ -- ----- -- ----- -- ---- ------<br>--- ----- --- --- ------ -------- ----- --- ------ ----- --<br>----- ----- ---------- --- --- ------ ------ ---- -- ------<br>------- --- ------ ----- --- ---- ------- -- ---- --- --<br>------- ------,208728.19999999925,208728,208208.81,208212,208218.491,208730.193,,6,secured
screen,html.Screen,2_1_1_1_7,2022-02-17T16:49:02.104Z,,,,,,,,,,,,,,,,,54,,,,,,,,,,,,,,423.50699999925564,,response,,,,100,,,,,,,Space,keypress(Space),,,,,,,,-- --- ---- --- ------ ----- ------- much -- --- ------- --<br>------- ---------- ------ -- ----- -- ----- -- ---- ------<br>--- ----- --- --- ------ -------- ----- --- ------ ----- --<br>----- ----- ---------- --- --- ------ ------ ---- -- ------<br>------- --- ------ ----- --- ---- ------- -- ---- --- --<br>------- ------,209154,209153.69999999925,208725.914,208728.30000000075,208730.193,209155.668,,7,much
screen,html.Screen,2_1_1_1_8,2022-02-17T16:49:02.489Z,,,,,,,,,,,,,,,,,54,,,,,,,,,,,,,,383.3319999999949,,response,,,,100,,,,,,,Space,keypress(Space),,,,,,,,-- --- ---- --- ------ ----- ------- ---- of --- ------- --<br>------- ---------- ------ -- ----- -- ----- -- ---- ------<br>--- ----- --- --- ------ -------- ----- --- ------ ----- --<br>----- ----- ---------- --- --- ------ ------ ---- -- ------<br>------- --- ------ ----- --- ---- ------- -- ---- --- --<br>------- ------,209539.19999999925,209539,209151.375,209154,209155.668,209545.392,,8,of
screen,html.Screen,2_1_1_1_9,2022-02-17T16:49:02.882Z,,,,,,,,,,,,,,,,,54,,,,,,,,,,,,,,386.4080000007525,,response,,,,100,,,,,,,Space,keypress(Space),,,,,,,,-- --- ---- --- ------ ----- ------- ---- -- its ------- --<br>------- ---------- ------ -- ----- -- ----- -- ---- ------<br>--- ----- --- --- ------ -------- ----- --- ------ ----- --<br>----- ----- ---------- --- --- ------ ------ ---- -- ------<br>------- --- ------ ----- --- ---- ------- -- ---- --- --<br>------- ------,209932,209931.80000000075,209535.251,209539.19999999925,209545.392,209935.686,,9,its
screen,html.Screen,2_1_1_1_10,2022-02-17T16:49:03.267Z,,,,,,,,,,,,,,,,,54,,,,,,,,,,,,,,381.1140000007581,,response,,,,100,,,,,,,Space,keypress(Space),,,,,,,,-- --- ---- --- ------ ----- ------- ---- -- --- revenue --<br>------- ---------- ------ -- ----- -- ----- -- ---- ------<br>--- ----- --- --- ------ -------- ----- --- ------ ----- --<br>----- ----- ---------- --- --- ------ ------ ---- -- ------<br>------- --- ------ ----- --- ---- ------- -- ---- --- --<br>------- ------,210317.09999999776,210316.80000000075,209931.461,209932,209935.686,210319.406,,10,revenue
screen,html.Screen,2_1_1_1_11,2022-02-17T16:49:04.135Z,,,,,,,,,,,,,,,,,54,,,,,,,,,,,,,,865.6939999977767,,response,,,,100,,,,,,,Space,keypress(Space),,,,,,,,-- --- ---- --- ------ ----- ------- ---- -- --- ------- by<br>------- ---------- ------ -- ----- -- ----- -- ---- ------<br>--- ----- --- --- ------ -------- ----- --- ------ ----- --<br>----- ----- ---------- --- --- ------ ------ ---- -- ------<br>------- --- ------ ----- --- ---- ------- -- ---- --- --<br>------- ------,211185.3999999985,211185.09999999776,210315.17,210317.09999999776,210319.406,211187.034,,11,by
screen,html.Screen,2_1_1_1_12,2022-02-17T16:49:04.741Z,,,,,,,,,,,,,,,,,54,,,,,,,,,,,,,,604.2660000007309,,response,,,,100,,,,,,,Space,keypress(Space),,,,,,,,-- --- ---- --- ------ ----- ------- ---- -- --- ------- --<br>issuing ---------- ------ -- ----- -- ----- -- ---- ------<br>--- ----- --- --- ------ -------- ----- --- ------ ----- --<br>----- ----- ---------- --- --- ------ ------ ---- -- ------<br>------- --- ------ ----- --- ---- ------- -- ---- --- --<br>------- ------,211791.59999999776,211791.30000000075,211182.626,211185.3999999985,211187.034,211797.816,,12,issuing
screen,html.Screen,2_1_1_1_13,2022-02-17T16:49:05.184Z,,,,,,,,,,,,,,,,,54,,,,,,,,,,,,,,435.8839999992633,,response,,,,100,,,,,,,Space,keypress(Space),,,,,,,,-- --- ---- --- ------ ----- ------- ---- -- --- ------- --<br>------- government ------ -- ----- -- ----- -- ---- ------<br>--- ----- --- --- ------ -------- ----- --- ------ ----- --<br>----- ----- ---------- --- --- ------ ------ ---- -- ------<br>------- --- ------ ----- --- ---- ------- -- ---- --- --<br>------- ------,212234,212233.69999999925,211791.7,211791.69999999925,211797.816,212238.129,,13,government
screen,html.Screen,2_1_1_1_14,2022-02-17T16:49:05.634Z,,,,,,,,,,,,,,,,,54,,,,,,,,,,,,,,446.1710000007588,,response,,,,100,,,,,,,Space,keypress(Space),,,,,,,,-- --- ---- --- ------ ----- ------- ---- -- --- ------- --<br>------- ---------- bonds. -- ----- -- ----- -- ---- ------<br>--- ----- --- --- ------ -------- ----- --- ------ ----- --<br>----- ----- ---------- --- --- ------ ------ ---- -- ------<br>------- --- ------ ----- --- ---- ------- -- ---- --- --<br>------- ------,212684.3999999985,212684.30000000075,212233.874,212234.09999999776,212238.129,212688.655,,14,bonds.
screen,html.Screen,2_1_1_1_15,2022-02-17T16:49:06.044Z,,,,,,,,,,,,,,,,,54,,,,,,,,,,,,,,405.1450000007462,,response,,,,100,,,,,,,Space,keypress(Space),,,,,,,,-- --- ---- --- ------ ----- ------- ---- -- --- ------- --<br>------- ---------- ------ In ----- -- ----- -- ---- ------<br>--- ----- --- --- ------ -------- ----- --- ------ ----- --<br>----- ----- ---------- --- --- ------ ------ ---- -- ------<br>------- --- ------ ----- --- ---- ------- -- ---- --- --<br>------- ------,213094,213093.80000000075,212684.363,212684.5,212688.655,213097.478,,15,In
screen,html.Screen,2_1_1_1_16,2022-02-17T16:49:06.543Z,,,,,,,,,,,,,,,,,54,,,,,,,,,,,,,,495.9219999985071,,response,,,,100,,,,,,,Space,keypress(Space),,,,,,,,"-- --- ---- --- ------ ----- ------- ---- -- --- ------- --<br>------- ---------- ------ -- 1727, -- ----- -- ---- ------<br>--- ----- --- --- ------ -------- ----- --- ------ ----- --<br>----- ----- ---------- --- --- ------ ------ ---- -- ------<br>------- --- ------ ----- --- ---- ------- -- ---- --- --<br>------- ------",213593.59999999776,213593.3999999985,213093.209,213094.09999999776,213097.478,213597.996,,16,"1727,"
screen,html.Screen,2_1_1_1_17,2022-02-17T16:49:07.105Z,,,,,,,,,,,,,,,,,54,,,,,,,,,,,,,,556.7039999992412,,response,,,,100,,,,,,,Space,keypress(Space),,,,,,,,-- --- ---- --- ------ ----- ------- ---- -- --- ------- --<br>------- ---------- ------ -- ----- in ----- -- ---- ------<br>--- ----- --- --- ------ -------- ----- --- ------ ----- --<br>----- ----- ---------- --- --- ------ ------ ---- -- ------<br>------- --- ------ ----- --- ---- ------- -- ---- --- --<br>------- ------,214155,214154.69999999925,213593.682,213593.8999999985,213597.996,214156.85,,17,in
screen,html.Screen,2_1_1_1_18,2022-02-17T16:49:07.567Z,,,,,,,,,,,,,,,,,54,,,,,,,,,,,,,,460.45000000073924,,response,,,,100,,,,,,,Space,keypress(Space),,,,,,,,-- --- ---- --- ------ ----- ------- ---- -- --- ------- --<br>------- ---------- ------ -- ----- -- order -- ---- ------<br>--- ----- --- --- ------ -------- ----- --- ------ ----- --<br>----- ----- ---------- --- --- ------ ------ ---- -- ------<br>------- --- ------ ----- --- ---- ------- -- ---- --- --<br>------- ------,214617.5,214617.30000000075,214152.573,214155,214156.85,214619.961,,18,order
screen,html.Screen,2_1_1_1_19,2022-02-17T16:49:07.846Z,,,,,,,,,,,,,,,,,54,,,,,,,,,,,,,,276.03899999998976,,response,,,,100,,,,,,,Space,keypress(Space),,,,,,,,-- --- ---- --- ------ ----- ------- ---- -- --- ------- --<br>------- ---------- ------ -- ----- -- ----- to ---- ------<br>--- ----- --- --- ------ -------- ----- --- ------ ----- --<br>----- ----- ---------- --- --- ------ ------ ---- -- ------<br>------- --- ------ ----- --- ---- ------- -- ---- --- --<br>------- ------,214896.09999999776,214896,214615.563,214617.5,214619.961,214899.348,,19,to
screen,html.Screen,2_1_1_1_20,2022-02-17T16:49:08.108Z,,,,,,,,,,,,,,,,,54,,,,,,,,,,,,,,258.4520000007469,,response,,,,100,,,,,,,Space,keypress(Space),,,,,,,,-- --- ---- --- ------ ----- ------- ---- -- --- ------- --<br>------- ---------- ------ -- ----- -- ----- -- save ------<br>--- ----- --- --- ------ -------- ----- --- ------ ----- --<br>----- ----- ---------- --- --- ------ ------ ---- -- ------<br>------- --- ------ ----- --- ---- ------- -- ---- --- --<br>------- ------,215158,215157.80000000075,214895.15,214896.19999999925,214899.348,215162.199,,20,save
screen,html.Screen,2_1_1_1_21,2022-02-17T16:49:08.473Z,,,,,,,,,,,,,,,,,54,,,,,,,,,,,,,,360.30100000000675,,response,,,,100,,,,,,,Space,keypress(Space),,,,,,,,"-- --- ---- --- ------ ----- ------- ---- -- --- ------- --<br>------- ---------- ------ -- ----- -- ----- -- ---- money,<br>--- ----- --- --- ------ -------- ----- --- ------ ----- --<br>----- ----- ---------- --- --- ------ ------ ---- -- ------<br>------- --- ------ ----- --- ---- ------- -- ---- --- --<br>------- ------",215522.80000000075,215522.5,215157.975,215158.09999999776,215162.199,215525.005,,21,"money,"
screen,html.Screen,2_1_1_1_22,2022-02-17T16:49:08.984Z,,,,,,,,,,,,,,,,,54,,,,,,,,,,,,,,509.2950000007404,,response,,,,100,,,,,,,Space,keypress(Space),,,,,,,,-- --- ---- --- ------ ----- ------- ---- -- --- ------- --<br>------- ---------- ------ -- ----- -- ----- -- ---- ------<br>the ----- --- --- ------ -------- ----- --- ------ ----- --<br>----- ----- ---------- --- --- ------ ------ ---- -- ------<br>------- --- ------ ----- --- ---- ------- -- ---- --- --<br>------- ------,216034.5,216034.30000000075,215520.836,215522.8999999985,215525.005,216038.063,,22,the
screen,html.Screen,2_1_1_1_23,2022-02-17T16:49:09.304Z,,,,,,,,,,,,,,,,,54,,,,,,,,,,,,,,315.5369999977702,,response,,,,100,,,,,,,Space,keypress(Space),,,,,,,,-- --- ---- --- ------ ----- ------- ---- -- --- ------- --<br>------- ---------- ------ -- ----- -- ----- -- ---- ------<br>--- state --- --- ------ -------- ----- --- ------ ----- --<br>----- ----- ---------- --- --- ------ ------ ---- -- ------<br>------- --- ------ ----- --- ---- ------- -- ---- --- --<br>------- ------,216353.8999999985,216353.59999999776,216033.847,216034.59999999776,216038.063,216360.816,,23,state
screen,html.Screen,2_1_1_1_24,2022-02-17T16:49:09.697Z,,,,,,,,,,,,,,,,,54,,,,,,,,,,,,,,386.3839999992633,,response,,,,100,,,,,,,Space,keypress(Space),,,,,,,,-- --- ---- --- ------ ----- ------- ---- -- --- ------- --<br>------- ---------- ------ -- ----- -- ----- -- ---- ------<br>--- ----- cut --- ------ -------- ----- --- ------ ----- --<br>----- ----- ---------- --- --- ------ ------ ---- -- ------<br>------- --- ------ ----- --- ---- ------- -- ---- --- --<br>------- ------,216747.5,216747.19999999925,216350.832,216353.8999999985,216360.816,216751.332,,24,cut
screen,html.Screen,2_1_1_1_25,2022-02-17T16:49:10.033Z,,,,,,,,,,,,,,,,,54,,,,,,,,,,,,,,331.6680000000051,,response,,,,100,,,,,,,Space,keypress(Space),,,,,,,,-- --- ---- --- ------ ----- ------- ---- -- --- ------- --<br>------- ---------- ------ -- ----- -- ----- -- ---- ------<br>--- ----- --- the ------ -------- ----- --- ------ ----- --<br>----- ----- ---------- --- --- ------ ------ ---- -- ------<br>------- --- ------ ----- --- ---- ------- -- ---- --- --<br>------- ------,217083.19999999925,217083,216747.085,216747.5,216751.332,217085.016,,25,the
screen,html.Screen,2_1_1_1_26,2022-02-17T16:49:10.410Z,,,,,,,,,,,,,,,,,54,,,,,,,,,,,,,,374.6839999992517,,response,,,,100,,,,,,,Space,keypress(Space),,,,,,,,-- --- ---- --- ------ ----- ------- ---- -- --- ------- --<br>------- ---------- ------ -- ----- -- ----- -- ---- ------<br>--- ----- --- --- bonds' -------- ----- --- ------ ----- --<br>----- ----- ---------- --- --- ------ ------ ---- -- ------<br>------- --- ------ ----- --- ---- ------- -- ---- --- --<br>------- ------,217459.8999999985,217459.69999999925,217080.872,217083.19999999925,217085.016,217466.059,,26,bonds'
screen,html.Screen,2_1_1_1_27,2022-02-17T16:49:10.860Z,,,,,,,,,,,,,,,,,54,,,,,,,,,,,,,,444.3409999985015,,response,,,,100,,,,,,,Space,keypress(Space),,,,,,,,-- --- ---- --- ------ ----- ------- ---- -- --- ------- --<br>------- ---------- ------ -- ----- -- ----- -- ---- ------<br>--- ----- --- --- ------ interest ----- --- ------ ----- --<br>----- ----- ---------- --- --- ------ ------ ---- -- ------<br>------- --- ------ ----- --- ---- ------- -- ---- --- --<br>------- ------,217910.59999999776,217910.3999999985,217456.237,217460,217466.059,217916.894,,27,interest
screen,html.Screen,2_1_1_1_28,2022-02-17T16:49:11.233Z,,,,,,,,,,,,,,,,,54,,,,,,,,,,,,,,366.10599999999977,,response,,,,100,,,,,,,Space,keypress(Space),,,,,,,,-- --- ---- --- ------ ----- ------- ---- -- --- ------- --<br>------- ---------- ------ -- ----- -- ----- -- ---- ------<br>--- ----- --- --- ------ -------- rate. --- ------ ----- --<br>----- ----- ---------- --- --- ------ ------ ---- -- ------<br>------- --- ------ ----- --- ---- ------- -- ---- --- --<br>------- ------,218283.19999999925,218283,217910.768,217910.59999999776,217916.894,218286.294,,28,rate.
screen,html.Screen,2_1_1_1_29,2022-02-17T16:49:11.782Z,,,,,,,,,,,,,,,,,54,,,,,,,,,,,,,,545.6059999985155,,response,,,,100,,,,,,,Space,keypress(Space),,,,,,,,-- --- ---- --- ------ ----- ------- ---- -- --- ------- --<br>------- ---------- ------ -- ----- -- ----- -- ---- ------<br>--- ----- --- --- ------ -------- ----- The ------ ----- --<br>----- ----- ---------- --- --- ------ ------ ---- -- ------<br>------- --- ------ ----- --- ---- ------- -- ---- --- --<br>------- ------,218832.09999999776,218831.8999999985,218282.107,218283.19999999925,218286.294,218838.349,,29,The
screen,html.Screen,2_1_1_1_30,2022-02-17T16:49:12.134Z,,,,,,,,,,,,,,,,,54,,,,,,,,,,,,,,345.55099999852246,,response,,,,100,,,,,,,Space,keypress(Space),,,,,,,,-- --- ---- --- ------ ----- ------- ---- -- --- ------- --<br>------- ---------- ------ -- ----- -- ----- -- ---- ------<br>--- ----- --- --- ------ -------- ----- --- market ----- --<br>----- ----- ---------- --- --- ------ ------ ---- -- ------<br>------- --- ------ ----- --- ---- ------- -- ---- --- --<br>------- ------,219184.09999999776,219183.8999999985,218828.479,218832.19999999925,218838.349,219187.277,,30,market
screen,html.Screen,2_1_1_1_31,2022-02-17T16:49:12.519Z,,,,,,,,,,,,,,,,,54,,,,,,,,,,,,,,381.622999998508,,response,,,,100,,,,,,,Space,keypress(Space),,,,,,,,-- --- ---- --- ------ ----- ------- ---- -- --- ------- --<br>------- ---------- ------ -- ----- -- ----- -- ---- ------<br>--- ----- --- --- ------ -------- ----- --- ------ value --<br>----- ----- ---------- --- --- ------ ------ ---- -- ------<br>------- --- ------ ----- --- ---- ------- -- ---- --- --<br>------- ------,219569.09999999776,219568.8999999985,219183.11,219184.19999999925,219187.277,219570.992,,31,value
screen,html.Screen,2_1_1_1_32,2022-02-17T16:49:12.896Z,,,,,,,,,,,,,,,,,54,,,,,,,,,,,,,,374.8080000007467,,response,,,,100,,,,,,,Space,keypress(Space),,,,,,,,-- --- ---- --- ------ ----- ------- ---- -- --- ------- --<br>------- ---------- ------ -- ----- -- ----- -- ---- ------<br>--- ----- --- --- ------ -------- ----- --- ------ ----- of<br>----- ----- ---------- --- --- ------ ------ ---- -- ------<br>------- --- ------ ----- --- ---- ------- -- ---- --- --<br>------- ------,219946.09999999776,219945.80000000075,219566.76,219569.09999999776,219570.992,219954.849,,32,of
screen,html.Screen,2_1_1_1_33,2022-02-17T16:49:13.277Z,,,,,,,,,,,,,,,,,54,,,,,,,,,,,,,,372.05099999852246,,response,,,,100,,,,,,,Space,keypress(Space),,,,,,,,-- --- ---- --- ------ ----- ------- ---- -- --- ------- --<br>------- ---------- ------ -- ----- -- ----- -- ---- ------<br>--- ----- --- --- ------ -------- ----- --- ------ ----- --<br>these ----- ---------- --- --- ------ ------ ---- -- ------<br>------- --- ------ ----- --- ---- ------- -- ---- --- --<br>------- ------,220327.09999999776,220326.8999999985,219951.862,219946.19999999925,219954.849,220330.162,,33,these
screen,html.Screen,2_1_1_1_34,2022-02-17T16:49:13.682Z,,,,,,,,,,,,,,,,,54,,,,,,,,,,,,,,402.03799999924377,,response,,,,100,,,,,,,Space,keypress(Space),,,,,,,,-- --- ---- --- ------ ----- ------- ---- -- --- ------- --<br>------- ---------- ------ -- ----- -- ----- -- ---- ------<br>--- ----- --- --- ------ -------- ----- --- ------ ----- --<br>----- bonds ---------- --- --- ------ ------ ---- -- ------<br>------- --- ------ ----- --- ---- ------- -- ---- --- --<br>------- ------,220732.3999999985,220732.19999999925,220325.998,220327.19999999925,220330.162,220734.817,,34,bonds
screen,html.Screen,2_1_1_1_35,2022-02-17T16:49:14.112Z,,,,,,,,,,,,,,,,,54,,,,,,,,,,,,,,427.2829999977548,,response,,,,100,,,,,,,Space,keypress(Space),,,,,,,,"-- --- ---- --- ------ ----- ------- ---- -- --- ------- --<br>------- ---------- ------ -- ----- -- ----- -- ---- ------<br>--- ----- --- --- ------ -------- ----- --- ------ ----- --<br>----- ----- plummeted, --- --- ------ ------ ---- -- ------<br>------- --- ------ ----- --- ---- ------- -- ---- --- --<br>------- ------",221162.3999999985,221162.09999999776,220730.492,220732.5,220734.817,221164.413,,35,"plummeted,"
screen,html.Screen,2_1_1_1_36,2022-02-17T16:49:14.751Z,,,,,,,,,,,,,,,,,54,,,,,,,,,,,,,,636.5869999999995,,response,,,,100,,,,,,,Space,keypress(Space),,,,,,,,-- --- ---- --- ------ ----- ------- ---- -- --- ------- --<br>------- ---------- ------ -- ----- -- ----- -- ---- ------<br>--- ----- --- --- ------ -------- ----- --- ------ ----- --<br>----- ----- ---------- and --- ------ ------ ---- -- ------<br>------- --- ------ ----- --- ---- ------- -- ---- --- --<br>------- ------,221801.30000000075,221801,221160.119,221162.5,221164.413,221802.58,,36,and
screen,html.Screen,2_1_1_1_37,2022-02-17T16:49:15.185Z,,,,,,,,,,,,,,,,,54,,,,,,,,,,,,,,432.72000000075786,,response,,,,100,,,,,,,Space,keypress(Space),,,,,,,,-- --- ---- --- ------ ----- ------- ---- -- --- ------- --<br>------- ---------- ------ -- ----- -- ----- -- ---- ------<br>--- ----- --- --- ------ -------- ----- --- ------ ----- --<br>----- ----- ---------- --- the ------ ------ ---- -- ------<br>------- --- ------ ----- --- ---- ------- -- ---- --- --<br>------- ------,222235.59999999776,222235.30000000075,221798.305,221801.3999999985,221802.58,222241.906,,37,the
screen,html.Screen,2_1_1_1_38,2022-02-17T16:49:15.562Z,,,,,,,,,,,,,,,,,54,,,,,,,,,,,,,,369.99399999852176,,response,,,,100,,,,,,,Space,keypress(Space),,,,,,,,-- --- ---- --- ------ ----- ------- ---- -- --- ------- --<br>------- ---------- ------ -- ----- -- ----- -- ---- ------<br>--- ----- --- --- ------ -------- ----- --- ------ ----- --<br>----- ----- ---------- --- --- market ------ ---- -- ------<br>------- --- ------ ----- --- ---- ------- -- ---- --- --<br>------- ------,222612.30000000075,222611.8999999985,222232.203,222235.59999999776,222241.906,222616.033,,38,market
screen,html.Screen,2_1_1_1_39,2022-02-17T16:49:16.000Z,,,,,,,,,,,,,,,,,54,,,,,,,,,,,,,,434.066999997769,,response,,,,100,,,,,,,Space,keypress(Space),,,,,,,,-- --- ---- --- ------ ----- ------- ---- -- --- ------- --<br>------- ---------- ------ -- ----- -- ----- -- ---- ------<br>--- ----- --- --- ------ -------- ----- --- ------ ----- --<br>----- ----- ---------- --- --- ------ became ---- -- ------<br>------- --- ------ ----- --- ---- ------- -- ---- --- --<br>------- ------,223050.5,223050.09999999776,222611.711,222612.3999999985,222616.033,223053.91,,39,became
screen,html.Screen,2_1_1_1_40,2022-02-17T16:49:16.488Z,,,,,,,,,,,,,,,,,54,,,,,,,,,,,,,,483.78999999925145,,response,,,,100,,,,,,,Space,keypress(Space),,,,,,,,-- --- ---- --- ------ ----- ------- ---- -- --- ------- --<br>------- ---------- ------ -- ----- -- ----- -- ---- ------<br>--- ----- --- --- ------ -------- ----- --- ------ ----- --<br>----- ----- ---------- --- --- ------ ------ wary -- ------<br>------- --- ------ ----- --- ---- ------- -- ---- --- --<br>------- ------,223538,223537.69999999925,223049.653,223050.5,223053.91,223541.991,,40,wary
screen,html.Screen,2_1_1_1_41,2022-02-17T16:49:16.832Z,,,,,,,,,,,,,,,,,54,,,,,,,,,,,,,,339.9089999985008,,response,,,,100,,,,,,,Space,keypress(Space),,,,,,,,-- --- ---- --- ------ ----- ------- ---- -- --- ------- --<br>------- ---------- ------ -- ----- -- ----- -- ---- ------<br>--- ----- --- --- ------ -------- ----- --- ------ ----- --<br>----- ----- ---------- --- --- ------ ------ ---- of ------<br>------- --- ------ ----- --- ---- ------- -- ---- --- --<br>------- ------,223882.09999999776,223881.8999999985,223537.749,223538.09999999776,223541.991,223883.952,,41,of
screen,html.Screen,2_1_1_1_42,2022-02-17T16:49:17.282Z,,,,,,,,,,,,,,,,,54,,,,,,,,,,,,,,448.0480000000098,,response,,,,100,,,,,,,Space,keypress(Space),,,,,,,,-- --- ---- --- ------ ----- ------- ---- -- --- ------- --<br>------- ---------- ------ -- ----- -- ----- -- ---- ------<br>--- ----- --- --- ------ -------- ----- --- ------ ----- --<br>----- ----- ---------- --- --- ------ ------ ---- -- French<br>------- --- ------ ----- --- ---- ------- -- ---- --- --<br>------- ------,224332.30000000075,224332,223879.732,223882.09999999776,223883.952,224334.452,,42,French
screen,html.Screen,2_1_1_1_43,2022-02-17T16:49:17.692Z,,,,,,,,,,,,,,,,,54,,,,,,,,,,,,,,407.1479999977746,,response,,,,100,,,,,,,Space,keypress(Space),,,,,,,,-- --- ---- --- ------ ----- ------- ---- -- --- ------- --<br>------- ---------- ------ -- ----- -- ----- -- ---- ------<br>--- ----- --- --- ------ -------- ----- --- ------ ----- --<br>----- ----- ---------- --- --- ------ ------ ---- -- ------<br>credit. --- ------ ----- --- ---- ------- -- ---- --- --<br>------- ------,224741.8999999985,224741.59999999776,224330.28,224332.3999999985,224334.452,224743.232,,43,credit.
screen,html.Screen,2_1_1_1_44,2022-02-17T16:49:18.167Z,,,,,,,,,,,,,,,,,54,,,,,,,,,,,,,,473.6679999985208,,response,,,,100,,,,,,,Space,keypress(Space),,,,,,,,-- --- ---- --- ------ ----- ------- ---- -- --- ------- --<br>------- ---------- ------ -- ----- -- ----- -- ---- ------<br>--- ----- --- --- ------ -------- ----- --- ------ ----- --<br>----- ----- ---------- --- --- ------ ------ ---- -- ------<br>------- The ------ ----- --- ---- ------- -- ---- --- --<br>------- ------,225217.09999999776,225216.8999999985,224739.061,224741.8999999985,224743.232,225218.749,,44,The
screen,html.Screen,2_1_1_1_45,2022-02-17T16:49:18.568Z,,,,,,,,,,,,,,,,,54,,,,,,,,,,,,,,399.7509999999893,,response,,,,100,,,,,,,Space,keypress(Space),,,,,,,,-- --- ---- --- ------ ----- ------- ---- -- --- ------- --<br>------- ---------- ------ -- ----- -- ----- -- ---- ------<br>--- ----- --- --- ------ -------- ----- --- ------ ----- --<br>----- ----- ---------- --- --- ------ ------ ---- -- ------<br>------- --- French ----- --- ---- ------- -- ---- --- --<br>------- ------,225618.80000000075,225618.5,225214.473,225217.19999999925,225218.749,225624.854,,45,French
screen,html.Screen,2_1_1_1_46,2022-02-17T16:49:19.285Z,,,,,,,,,,,,,,,,,54,,,,,,,,,,,,,,710.2459999977727,,response,,,,100,,,,,,,Space,keypress(Space),,,,,,,,-- --- ---- --- ------ ----- ------- ---- -- --- ------- --<br>------- ---------- ------ -- ----- -- ----- -- ---- ------<br>--- ----- --- --- ------ -------- ----- --- ------ ----- --<br>----- ----- ---------- --- --- ------ ------ ---- -- ------<br>------- --- ------ state --- ---- ------- -- ---- --- --<br>------- ------,226335.30000000075,226335.09999999776,225614.92,225618.80000000075,225624.854,226336.618,,46,state
screen,html.Screen,2_1_1_1_47,2022-02-17T16:49:19.687Z,,,,,,,,,,,,,,,,,54,,,,,,,,,,,,,,399.98199999777717,,response,,,,100,,,,,,,Space,keypress(Space),,,,,,,,-- --- ---- --- ------ ----- ------- ---- -- --- ------- --<br>------- ---------- ------ -- ----- -- ----- -- ---- ------<br>--- ----- --- --- ------ -------- ----- --- ------ ----- --<br>----- ----- ---------- --- --- ------ ------ ---- -- ------<br>------- --- ------ ----- was ---- ------- -- ---- --- --<br>------- ------,226736.80000000075,226736.59999999776,226332.348,226335.30000000075,226336.618,226741.221,,47,was
screen,html.Screen,2_1_1_1_48,2022-02-17T16:49:20.063Z,,,,,,,,,,,,,,,,,54,,,,,,,,,,,,,,371.9789999992645,,response,,,,100,,,,,,,Space,keypress(Space),,,,,,,,-- --- ---- --- ------ ----- ------- ---- -- --- ------- --<br>------- ---------- ------ -- ----- -- ----- -- ---- ------<br>--- ----- --- --- ------ -------- ----- --- ------ ----- --<br>----- ----- ---------- --- --- ------ ------ ---- -- ------<br>------- --- ------ ----- --- left ------- -- ---- --- --<br>------- ------,227113.3999999985,227113.19999999925,226736.95,226736.8999999985,226741.221,227116.594,,48,left
screen,html.Screen,2_1_1_1_49,2022-02-17T16:49:20.432Z,,,,,,,,,,,,,,,,,54,,,,,,,,,,,,,,365.10599999924307,,response,,,,100,,,,,,,Space,keypress(Space),,,,,,,,-- --- ---- --- ------ ----- ------- ---- -- --- ------- --<br>------- ---------- ------ -- ----- -- ----- -- ---- ------<br>--- ----- --- --- ------ -------- ----- --- ------ ----- --<br>----- ----- ---------- --- --- ------ ------ ---- -- ------<br>------- --- ------ ----- --- ---- without -- ---- --- --<br>------- ------,227481.8999999985,227481.69999999925,227112.41,227113.5,227116.594,227483.673,,49,without
screen,html.Screen,2_1_1_1_50,2022-02-17T16:49:20.845Z,,,,,,,,,,,,,,,,,54,,,,,,,,,,,,,,411.7269999985001,,response,,,,100,,,,,,,Space,keypress(Space),,,,,,,,-- --- ---- --- ------ ----- ------- ---- -- --- ------- --<br>------- ---------- ------ -- ----- -- ----- -- ---- ------<br>--- ----- --- --- ------ -------- ----- --- ------ ----- --<br>----- ----- ---------- --- --- ------ ------ ---- -- ------<br>------- --- ------ ----- --- ---- ------- an ---- --- --<br>------- ------,227895.69999999925,227895.3999999985,227479.467,227481.8999999985,227483.673,227902.566,,50,an
screen,html.Screen,2_1_1_1_51,2022-02-17T16:49:21.357Z,,,,,,,,,,,,,,,,,54,,,,,,,,,,,,,,504.9340000000084,,response,,,,100,,,,,,,Space,keypress(Space),,,,,,,,-- --- ---- --- ------ ----- ------- ---- -- --- ------- --<br>------- ---------- ------ -- ----- -- ----- -- ---- ------<br>--- ----- --- --- ------ -------- ----- --- ------ ----- --<br>----- ----- ---------- --- --- ------ ------ ---- -- ------<br>------- --- ------ ----- --- ---- ------- -- easy --- --<br>------- ------,228407.69999999925,228407.5,227892.361,227895.69999999925,227902.566,228409.649,,51,easy
screen,html.Screen,2_1_1_1_52,2022-02-17T16:49:21.751Z,,,,,,,,,,,,,,,,,54,,,,,,,,,,,,,,390.95099999775994,,response,,,,100,,,,,,,Space,keypress(Space),,,,,,,,-- --- ---- --- ------ ----- ------- ---- -- --- ------- --<br>------- ---------- ------ -- ----- -- ----- -- ---- ------<br>--- ----- --- --- ------ -------- ----- --- ------ ----- --<br>----- ----- ---------- --- --- ------ ------ ---- -- ------<br>------- --- ------ ----- --- ---- ------- -- ---- way --<br>------- ------,228800.8999999985,228800.59999999776,228405.406,228407.80000000075,228409.649,228807.172,,52,way
screen,html.Screen,2_1_1_1_53,2022-02-17T16:49:22.119Z,,,,,,,,,,,,,,,,,54,,,,,,,,,,,,,,362.1280000007537,,response,,,,100,,,,,,,Space,keypress(Space),,,,,,,,-- --- ---- --- ------ ----- ------- ---- -- --- ------- --<br>------- ---------- ------ -- ----- -- ----- -- ---- ------<br>--- ----- --- --- ------ -------- ----- --- ------ ----- --<br>----- ----- ---------- --- --- ------ ------ ---- -- ------<br>------- --- ------ ----- --- ---- ------- -- ---- --- of<br>------- ------,229169.5,229169.30000000075,228797.581,228800.8999999985,228807.172,229172.995,,53,of
screen,html.Screen,2_1_1_1_54,2022-02-17T16:49:22.537Z,,,,,,,,,,,,,,,,,54,,,,,,,,,,,,,,414.00500000000466,,response,,,,100,,,,,,,Space,keypress(Space),,,,,,,,-- --- ---- --- ------ ----- ------- ---- -- --- ------- --<br>------- ---------- ------ -- ----- -- ----- -- ---- ------<br>--- ----- --- --- ------ -------- ----- --- ------ ----- --<br>----- ----- ---------- --- --- ------ ------ ---- -- ------<br>------- --- ------ ----- --- ---- ------- -- ---- --- --<br>raising ------,229587.19999999925,229587,229168.748,229169.5,229172.995,229590.156,,54,raising
screen,html.Screen,2_1_1_1_55,2022-02-17T16:49:22.893Z,,,,,,,,,,,,,,,,,54,,,,,,,,,,,,,,353.14400000075693,,response,,,,100,,,,,,,Space,keypress(Space),,,,,,,,-- --- ---- --- ------ ----- ------- ---- -- --- ------- --<br>------- ---------- ------ -- ----- -- ----- -- ---- ------<br>--- ----- --- --- ------ -------- ----- --- ------ ----- --<br>----- ----- ---------- --- --- ------ ------ ---- -- ------<br>------- --- ------ ----- --- ---- ------- -- ---- --- --<br>------- money.,229943.59999999776,229943.30000000075,229585.84,229587.30000000075,229590.156,229950.6,,55,money.
Item 100,flow.Loop,2_1_1_1,2022-02-17T16:49:22.893Z,,,,,,,,,,,,,,,,,,,,,,,,,,,,,,,30581.396000000736,,completion,,,,,F,,,,,,,,,,,silence,,,,,229943.69999999925,229943.30000000075,199357.733,199358,199361.904,229950.6,,,
Question 1,html.Screen,2_1_1_2,2022-02-17T16:49:25.458Z,,,,,,,,,,,,,,,,,,,,,,,,,,,,true,TRUE,,2557.7000000007392,,response,,,,100,F,,,,,,TRUE,click #choice-1,,,,silence,,,,,232508.59999999776,232508.30000000075,229940.484,229943.69999999925,229950.6,232509.917,,,
Question 2,html.Screen,2_1_1_3,2022-02-17T16:49:28.797Z,,,,,,,,,,,,,,,,,,,,,,,,,,,,true,FALSE,,3337.3830000007583,,response,,,,100,F,,,,,,FALSE,click #choice-2,,,,silence,,,,,235847.59999999776,235847.30000000075,232505.794,232508.69999999925,232509.917,235850.988,,,
Item 100,flow.Sequence,2_1_1,2022-02-17T16:49:28.797Z,,,,,,,,,,,,,,,,,,,,,,,,,,,,,,,46483.695000000735,,completion,,,,,,,,,,,,,,,,,,,,,235847.69999999925,235847.30000000075,189359.503,189361.80000000075,189363.605,235850.988,,,
End of Practice,html.Page,2_1_2,2022-02-17T16:49:48.798Z,,,,,,,,,,,,,,,,,,,,,,,,,,,,,,,20000.619999999995,,timeout,,,,,,,,,,,,,,,,,,,,,255847.69999999925,255847.459,235846.826,235847.69999999925,235850.988,255851.608,,,
Practice,flow.Sequence,2_1,2022-02-17T16:49:48.798Z,,,,,,,,,,,,,,,,,,,,,,,,,,,,,,,107402.744,,completion,,,,,,,,,,,,,,,,,,,,,255847.80000000075,255847.459,148440.605,148443.8999999985,148444.715,255851.608,,,
Trap_instruction,html.Page,2_2_0,2022-02-17T16:49:59.966Z,,,,,,,,,,,,,,,,,,,,,,,,,,,,,,,11163.991999997757,,form submission,,,,,,,,,,,,,,,,,,,,,267015.80000000075,267015.59999999776,255847.459,255847.80000000075,255851.608,267021.953,,,
trap_trial,html.Screen,2_2_1,2022-02-17T16:50:02.323Z,,,,,,,,,,,,,,,,,,,,,,,,,,,,true,1,,2350.4469999985304,,response,,,,,,,,,,,1,click #choice-1,,,,,,,,,269372.69999999925,269372.3999999985,267013.666,267015.80000000075,267021.953,269374.448,,,
end of trap trial,html.Page,2_2_2,2022-02-17T16:50:03.829Z,,,,,,,,,,,,,,,,,,,,,,,,,,,,,,,1504.25199999928,,form submission,,,,,,,,,,,,,,,,,,,,,270878.80000000075,270878.69999999925,269370.337,269372.80000000075,269374.448,270880.257,,,
Trap 1,flow.Sequence,2_2,2022-02-17T16:50:03.829Z,,,,,,,,,,,,,,,,,,,,,,,,,,,,,,,15027.091999999247,,completion,,,,,,,,,,,,,,,,,,,,,270878.8999999985,270878.69999999925,255847.459,255847.80000000075,255851.608,270880.257,,,
Standby,html.Page,2_3_0,2022-02-17T16:50:11.827Z,,,,,,,,,,,,,,,,,,,,,,,,,,,,,,,8000.239999999991,,timeout,,,,,,,,,,,,,,,,,,,,,278876.59999999776,278876.417,270876.042,270879,270880.257,278880.497,,,
Holding screen,html.Screen,2_3_1_0_0,2022-02-17T16:50:18.826Z,,,,,,,,,,,,,,,,,,,,,,,,,,,,,,,6999.246000000043,,timeout,,,,,,,,,,,,,,,,,,,,,285875.80000000075,285875.512,278876.417,278876.80000000075,278880.497,285879.743,,,
screen,html.Screen,2_3_1_0_1_0,2022-02-17T16:50:19.926Z,,,,,,,,,,,,,,,,,11,,,,,,,,,,,,,,1095.856999997748,,response,,,,4,F,,,,,,Space,keypress(Space),,,,instrumental,,,,Known -- ---- --- -- --- -------- ------------ ---------- --<br>- ------- ------ --------- -- ------------ -- --- ---- -----<br>------ ---- ---- ------ ------ ------- --- ----- ---------<br>---- --- -------- -------- --- --- -- ------- --- --- -----<br>-- --- ------ ------- --- --- -------- ---- --------- --<br>---------- -- -------- ----------------,286975.80000000075,286975.59999999776,285875.512,285875.8999999985,285879.743,286982.405,,0,Known
screen,html.Screen,2_3_1_0_1_1,2022-02-17T16:50:20.618Z,,,,,,,,,,,,,,,,,11,,,,,,,,,,,,,,685.494999998482,,response,,,,4,F,,,,,,Space,keypress(Space),,,,instrumental,,,,----- as ---- --- -- --- -------- ------------ ---------- --<br>- ------- ------ --------- -- ------------ -- --- ---- -----<br>------ ---- ---- ------ ------ ------- --- ----- ---------<br>---- --- -------- -------- --- --- -- ------- --- --- -----<br>-- --- ------ ------- --- --- -------- ---- --------- --<br>---------- -- -------- ----------------,287668.09999999776,287667.8999999985,286972.439,286975.8999999985,286982.405,287674.646,,1,as
screen,html.Screen,2_3_1_0_1_2,2022-02-17T16:50:20.929Z,,,,,,,,,,,,,,,,,11,,,,,,,,,,,,,,304.3539999999921,,response,,,,4,F,,,,,,Space,keypress(Space),,,,instrumental,,,,----- -- Rapa --- -- --- -------- ------------ ---------- --<br>- ------- ------ --------- -- ------------ -- --- ---- -----<br>------ ---- ---- ------ ------ ------- --- ----- ---------<br>---- --- -------- -------- --- --- -- ------- --- --- -----<br>-- --- ------ ------- --- --- -------- ---- --------- --<br>---------- -- -------- ----------------,287979.19999999925,287979,287664.797,287668.09999999776,287674.646,287981.92,,2,Rapa
screen,html.Screen,2_3_1_0_1_3,2022-02-17T16:50:21.253Z,,,,,,,,,,,,,,,,,11,,,,,,,,,,,,,,320.88000000076136,,response,,,,4,F,,,,,,Space,keypress(Space),,,,instrumental,,,,----- -- ---- Nui -- --- -------- ------------ ---------- --<br>- ------- ------ --------- -- ------------ -- --- ---- -----<br>------ ---- ---- ------ ------ ------- --- ----- ---------<br>---- --- -------- -------- --- --- -- ------- --- --- -----<br>-- --- ------ ------- --- --- -------- ---- --------- --<br>---------- -- -------- ----------------,288303,288302.80000000075,287977.732,287979.19999999925,287981.92,288307.272,,3,Nui
screen,html.Screen,2_3_1_0_1_4,2022-02-17T16:50:21.819Z,,,,,,,,,,,,,,,,,11,,,,,,,,,,,,,,560.7280000000028,,response,,,,4,F,,,,,,Space,keypress(Space),,,,instrumental,,,,----- -- ---- --- to --- -------- ------------ ---------- --<br>- ------- ------ --------- -- ------------ -- --- ---- -----<br>------ ---- ---- ------ ------ ------- --- ----- ---------<br>---- --- -------- -------- --- --- -- ------- --- --- -----<br>-- --- ------ ------- --- --- -------- ---- --------- --<br>---------- -- -------- ----------------,288868.19999999925,288868,288303.101,288303.09999999776,288307.272,288870.39,,4,to
screen,html.Screen,2_3_1_0_1_5,2022-02-17T16:50:22.191Z,,,,,,,,,,,,,,,,,11,,,,,,,,,,,,,,370.20999999775086,,response,,,,4,F,,,,,,Space,keypress(Space),,,,instrumental,,,,----- -- ---- --- -- the -------- ------------ ---------- --<br>- ------- ------ --------- -- ------------ -- --- ---- -----<br>------ ---- ---- ------ ------ ------- --- ----- ---------<br>---- --- -------- -------- --- --- -- ------- --- --- -----<br>-- --- ------ ------- --- --- -------- ---- --------- --<br>---------- -- -------- ----------------,289240.8999999985,289240.59999999776,288866.167,288868.30000000075,288870.39,289247.182,,5,the
screen,html.Screen,2_3_1_0_1_6,2022-02-17T16:50:22.580Z,,,,,,,,,,,,,,,,,11,,,,,,,,,,,,,,382.3180000000284,,response,,,,4,F,,,,,,Space,keypress(Space),,,,instrumental,,,,----- -- ---- --- -- --- island's ------------ ---------- --<br>- ------- ------ --------- -- ------------ -- --- ---- -----<br>------ ---- ---- ------ ------ ------- --- ----- ---------<br>---- --- -------- -------- --- --- -- ------- --- --- -----<br>-- --- ------ ------- --- --- -------- ---- --------- --<br>---------- -- -------- ----------------,289629.80000000075,289629.5,289237.335,289240.8999999985,289247.182,289633.703,,6,island's
screen,html.Screen,2_3_1_0_1_7,2022-02-17T16:50:22.941Z,,,,,,,,,,,,,,,,,11,,,,,,,,,,,,,,356.3969999977853,,response,,,,4,F,,,,,,Space,keypress(Space),,,,instrumental,,,,"----- -- ---- --- -- --- -------- inhabitants, ---------- --<br>- ------- ------ --------- -- ------------ -- --- ---- -----<br>------ ---- ---- ------ ------ ------- --- ----- ---------<br>---- --- -------- -------- --- --- -- ------- --- --- -----<br>-- --- ------ ------- --- --- -------- ---- --------- --<br>---------- -- -------- ----------------",289990.3999999985,289990.09999999776,289629.421,289629.80000000075,289633.703,289992.4,,7,"inhabitants,"
screen,html.Screen,2_3_1_0_1_8,2022-02-17T16:50:23.895Z,,,,,,,,,,,,,,,,,11,,,,,,,,,,,,,,952.0999999999767,,response,,,,4,F,,,,,,Space,keypress(Space),,,,instrumental,,,,----- -- ---- --- -- --- -------- ------------ Rongorongo --<br>- ------- ------ --------- -- ------------ -- --- ---- -----<br>------ ---- ---- ------ ------ ------- --- ----- ---------<br>---- --- -------- -------- --- --- -- ------- --- --- -----<br>-- --- ------ ------- --- --- -------- ---- --------- --<br>---------- -- -------- ----------------,290944.69999999925,290944.5,289988.235,289990.3999999985,289992.4,290947.579,,8,Rongorongo
screen,html.Screen,2_3_1_0_1_9,2022-02-17T16:50:24.268Z,,,,,,,,,,,,,,,,,11,,,,,,,,,,,,,,369.62099999922793,,response,,,,4,F,,,,,,Space,keypress(Space),,,,instrumental,,,,----- -- ---- --- -- --- -------- ------------ ---------- is<br>- ------- ------ --------- -- ------------ -- --- ---- -----<br>------ ---- ---- ------ ------ ------- --- ----- ---------<br>---- --- -------- -------- --- --- -- ------- --- --- -----<br>-- --- ------ ------- --- --- -------- ---- --------- --<br>---------- -- -------- ----------------,291317.5,291317.19999999925,290943.249,290944.80000000075,290947.579,291318.841,,9,is
screen,html.Screen,2_3_1_0_1_10,2022-02-17T16:50:24.759Z,,,,,,,,,,,,,,,,,11,,,,,,,,,,,,,,489.6589999999851,,response,,,,4,F,,,,,,Space,keypress(Space),,,,instrumental,,,,----- -- ---- --- -- --- -------- ------------ ---------- --<br>a ------- ------ --------- -- ------------ -- --- ---- -----<br>------ ---- ---- ------ ------ ------- --- ----- ---------<br>---- --- -------- -------- --- --- -- ------- --- --- -----<br>-- --- ------ ------- --- --- -------- ---- --------- --<br>---------- -- -------- ----------------,291808.80000000075,291808.5,291314.545,291317.5,291318.841,291811.002,,10,a
screen,html.Screen,2_3_1_0_1_11,2022-02-17T16:50:25.136Z,,,,,,,,,,,,,,,,,11,,,,,,,,,,,,,,374.2980000007665,,response,,,,4,F,,,,,,Space,keypress(Space),,,,instrumental,,,,----- -- ---- --- -- --- -------- ------------ ---------- --<br>- writing ------ --------- -- ------------ -- --- ---- -----<br>------ ---- ---- ------ ------ ------- --- ----- ---------<br>---- --- -------- -------- --- --- -- ------- --- --- -----<br>-- --- ------ ------- --- --- -------- ---- --------- --<br>---------- -- -------- ----------------,292185.59999999776,292185.30000000075,291806.723,291808.80000000075,291811.002,292192.294,,11,writing
screen,html.Screen,2_3_1_0_1_12,2022-02-17T16:50:25.533Z,,,,,,,,,,,,,,,,,11,,,,,,,,,,,,,,390.40599999926053,,response,,,,4,F,,,,,,Space,keypress(Space),,,,instrumental,,,,----- -- ---- --- -- --- -------- ------------ ---------- --<br>- ------- system --------- -- ------------ -- --- ---- -----<br>------ ---- ---- ------ ------ ------- --- ----- ---------<br>---- --- -------- -------- --- --- -- ------- --- --- -----<br>-- --- ------ ------- --- --- -------- ---- --------- --<br>---------- -- -------- ----------------,292583,292582.69999999925,292182.193,292185.59999999776,292192.294,292586.853,,12,system
screen,html.Screen,2_3_1_0_1_13,2022-02-17T16:50:25.947Z,,,,,,,,,,,,,,,,,11,,,,,,,,,,,,,,409.44700000074226,,response,,,,4,F,,,,,,Space,keypress(Space),,,,instrumental,,,,----- -- ---- --- -- --- -------- ------------ ---------- --<br>- ------- ------ comprised -- ------------ -- --- ---- -----<br>------ ---- ---- ------ ------ ------- --- ----- ---------<br>---- --- -------- -------- --- --- -- ------- --- --- -----<br>-- --- ------ ------- --- --- -------- ---- --------- --<br>---------- -- -------- ----------------,292996.3999999985,292996.30000000075,292582.677,292583,292586.853,292999.81,,13,comprised
screen,html.Screen,2_3_1_0_1_14,2022-02-17T16:50:26.373Z,,,,,,,,,,,,,,,,,11,,,,,,,,,,,,,,422.38999999925727,,response,,,,4,F,,,,,,Space,keypress(Space),,,,instrumental,,,,----- -- ---- --- -- --- -------- ------------ ---------- --<br>- ------- ------ --------- of ------------ -- --- ---- -----<br>------ ---- ---- ------ ------ ------- --- ----- ---------<br>---- --- -------- -------- --- --- -- ------- --- --- -----<br>-- --- ------ ------- --- --- -------- ---- --------- --<br>---------- -- -------- ----------------,293422.3999999985,293422.19999999925,292995.603,292996.5,292999.81,293425.255,,14,of
screen,html.Screen,2_3_1_0_1_15,2022-02-17T16:50:27.114Z,,,,,,,,,,,,,,,,,11,,,,,,,,,,,,,,738.1449999985052,,response,,,,4,F,,,,,,Space,keypress(Space),,,,instrumental,,,,----- -- ---- --- -- --- -------- ------------ ---------- --<br>- ------- ------ --------- -- pictographs. -- --- ---- -----<br>------ ---- ---- ------ ------ ------- --- ----- ---------<br>---- --- -------- -------- --- --- -- ------- --- --- -----<br>-- --- ------ ------- --- --- -------- ---- --------- --<br>---------- -- -------- ----------------,294163.69999999925,294163.3999999985,293421.069,293422.3999999985,293425.255,294167.812,,15,pictographs.
screen,html.Screen,2_3_1_0_1_16,2022-02-17T16:50:27.544Z,,,,,,,,,,,,,,,,,11,,,,,,,,,,,,,,425.68800000002375,,response,,,,4,F,,,,,,Space,keypress(Space),,,,instrumental,,,,----- -- ---- --- -- --- -------- ------------ ---------- --<br>- ------- ------ --------- -- ------------ It --- ---- -----<br>------ ---- ---- ------ ------ ------- --- ----- ---------<br>---- --- -------- -------- --- --- -- ------- --- --- -----<br>-- --- ------ ------- --- --- -------- ---- --------- --<br>---------- -- -------- ----------------,294593.69999999925,294593.5,294163.436,294163.69999999925,294167.812,294597.422,,16,It
screen,html.Screen,2_3_1_0_1_17,2022-02-17T16:50:27.929Z,,,,,,,,,,,,,,,,,11,,,,,,,,,,,,,,381.27799999923445,,response,,,,4,F,,,,,,Space,keypress(Space),,,,instrumental,,,,----- -- ---- --- -- --- -------- ------------ ---------- --<br>- ------- ------ --------- -- ------------ -- has ---- -----<br>------ ---- ---- ------ ------ ------- --- ----- ---------<br>---- --- -------- -------- --- --- -- ------- --- --- -----<br>-- --- ------ ------- --- --- -------- ---- --------- --<br>---------- -- -------- ----------------,294978.8999999985,294978.69999999925,294593.117,294593.80000000075,294597.422,294981.074,,17,has
screen,html.Screen,2_3_1_0_1_18,2022-02-17T16:50:28.343Z,,,,,,,,,,,,,,,,,11,,,,,,,,,,,,,,411.2260000007227,,response,,,,4,F,,,,,,Space,keypress(Space),,,,instrumental,,,,----- -- ---- --- -- --- -------- ------------ ---------- --<br>- ------- ------ --------- -- ------------ -- --- been -----<br>------ ---- ---- ------ ------ ------- --- ----- ---------<br>---- --- -------- -------- --- --- -- ------- --- --- -----<br>-- --- ------ ------- --- --- -------- ---- --------- --<br>---------- -- -------- ----------------,295392.5,295392.30000000075,294976.92,294979,294981.074,295394.031,,18,been
screen,html.Screen,2_3_1_0_1_19,2022-02-17T16:50:28.785Z,,,,,,,,,,,,,,,,,11,,,,,,,,,,,,,,440.5689999977476,,response,,,,4,F,,,,,,Space,keypress(Space),,,,instrumental,,,,----- -- ---- --- -- --- -------- ------------ ---------- --<br>- ------- ------ --------- -- ------------ -- --- ---- found<br>------ ---- ---- ------ ------ ------- --- ----- ---------<br>---- --- -------- -------- --- --- -- ------- --- --- -----<br>-- --- ------ ------- --- --- -------- ---- --------- --<br>---------- -- -------- ----------------,295834.8999999985,295834.59999999776,295389.868,295392.5,295394.031,295836.206,,19,found
screen,html.Screen,2_3_1_0_1_20,2022-02-17T16:50:29.383Z,,,,,,,,,,,,,,,,,11,,,,,,,,,,,,,,596.4939999992494,,response,,,,4,F,,,,,,Space,keypress(Space),,,,instrumental,,,,----- -- ---- --- -- --- -------- ------------ ---------- --<br>- ------- ------ --------- -- ------------ -- --- ---- -----<br>carved ---- ---- ------ ------ ------- --- ----- ---------<br>---- --- -------- -------- --- --- -- ------- --- --- -----<br>-- --- ------ ------- --- --- -------- ---- --------- --<br>---------- -- -------- ----------------,296432.8999999985,296432.69999999925,295831.996,295835,295836.206,296436.884,,20,carved
screen,html.Screen,2_3_1_0_1_21,2022-02-17T16:50:29.780Z,,,,,,,,,,,,,,,,,11,,,,,,,,,,,,,,392.8159999992349,,response,,,,4,F,,,,,,Space,keypress(Space),,,,instrumental,,,,----- -- ---- --- -- --- -------- ------------ ---------- --<br>- ------- ------ --------- -- ------------ -- --- ---- -----<br>------ into ---- ------ ------ ------- --- ----- ---------<br>---- --- -------- -------- --- --- -- ------- --- --- -----<br>-- --- ------ ------- --- --- -------- ---- --------- --<br>---------- -- -------- ----------------,296830,296829.69999999925,296432.574,296432.8999999985,296436.884,296833.168,,21,into
screen,html.Screen,2_3_1_0_1_22,2022-02-17T16:50:30.218Z,,,,,,,,,,,,,,,,,11,,,,,,,,,,,,,,434.8319999999949,,response,,,,4,F,,,,,,Space,keypress(Space),,,,instrumental,,,,----- -- ---- --- -- --- -------- ------------ ---------- --<br>- ------- ------ --------- -- ------------ -- --- ---- -----<br>------ ---- many ------ ------ ------- --- ----- ---------<br>---- --- -------- -------- --- --- -- ------- --- --- -----<br>-- --- ------ ------- --- --- -------- ---- --------- --<br>---------- -- -------- ----------------,297268.19999999925,297268,296828.84,296830,296833.168,297271.073,,22,many
screen,html.Screen,2_3_1_0_1_23,2022-02-17T16:50:30.567Z,,,,,,,,,,,,,,,,,11,,,,,,,,,,,,,,345.1269999992801,,response,,,,4,F,,,,,,Space,keypress(Space),,,,instrumental,,,,----- -- ---- --- -- --- -------- ------------ ---------- --<br>- ------- ------ --------- -- ------------ -- --- ---- -----<br>------ ---- ---- oblong ------ ------- --- ----- ---------<br>---- --- -------- -------- --- --- -- ------- --- --- -----<br>-- --- ------ ------- --- --- -------- ---- --------- --<br>---------- -- -------- ----------------,297616.5,297616.19999999925,297266.882,297268.30000000075,297271.073,297622.662,,23,oblong
screen,html.Screen,2_3_1_0_1_24,2022-02-17T16:50:30.911Z,,,,,,,,,,,,,,,,,11,,,,,,,,,,,,,,337.43799999775365,,response,,,,4,F,,,,,,Space,keypress(Space),,,,instrumental,,,,----- -- ---- --- -- --- -------- ------------ ---------- --<br>- ------- ------ --------- -- ------------ -- --- ---- -----<br>------ ---- ---- ------ wooden ------- --- ----- ---------<br>---- --- -------- -------- --- --- -- ------- --- --- -----<br>-- --- ------ ------- --- --- -------- ---- --------- --<br>---------- -- -------- ----------------,297960.3999999985,297960.09999999776,297612.999,297616.5,297622.662,297963.467,,24,wooden
screen,html.Screen,2_3_1_0_1_25,2022-02-17T16:50:31.296Z,,,,,,,,,,,,,,,,,11,,,,,,,,,,,,,,381.83300000074087,,response,,,,4,F,,,,,,Space,keypress(Space),,,,instrumental,,,,----- -- ---- --- -- --- -------- ------------ ---------- --<br>- ------- ------ --------- -- ------------ -- --- ---- -----<br>------ ---- ---- ------ ------ tablets --- ----- ---------<br>---- --- -------- -------- --- --- -- ------- --- --- -----<br>-- --- ------ ------- --- --- -------- ---- --------- --<br>---------- -- -------- ----------------,298345.59999999776,298345.30000000075,297959.225,297960.5,297963.467,298347.19,,25,tablets
screen,html.Screen,2_3_1_0_1_26,2022-02-17T16:50:31.640Z,,,,,,,,,,,,,,,,,11,,,,,,,,,,,,,,341.9099999977625,,response,,,,4,F,,,,,,Space,keypress(Space),,,,instrumental,,,,----- -- ---- --- -- --- -------- ------------ ---------- --<br>- ------- ------ --------- -- ------------ -- --- ---- -----<br>------ ---- ---- ------ ------ ------- and ----- ---------<br>---- --- -------- -------- --- --- -- ------- --- --- -----<br>-- --- ------ ------- --- --- -------- ---- --------- --<br>---------- -- -------- ----------------,298689.30000000075,298689.09999999776,298343.035,298345.69999999925,298347.19,298693.386,,26,and
screen,html.Screen,2_3_1_0_1_27,2022-02-17T16:50:32.041Z,,,,,,,,,,,,,,,,,11,,,,,,,,,,,,,,397.2139999977662,,response,,,,4,F,,,,,,Space,keypress(Space),,,,instrumental,,,,----- -- ---- --- -- --- -------- ------------ ---------- --<br>- ------- ------ --------- -- ------------ -- --- ---- -----<br>------ ---- ---- ------ ------ ------- --- other ---------<br>---- --- -------- -------- --- --- -- ------- --- --- -----<br>-- --- ------ ------- --- --- -------- ---- --------- --<br>---------- -- -------- ----------------,299090.8999999985,299090.59999999776,298689.196,298689.3999999985,298693.386,299093.876,,27,other
screen,html.Screen,2_3_1_0_1_28,2022-02-17T16:50:32.578Z,,,,,,,,,,,,,,,,,11,,,,,,,,,,,,,,533.5239999985206,,response,,,,4,F,,,,,,Space,keypress(Space),,,,instrumental,,,,----- -- ---- --- -- --- -------- ------------ ---------- --<br>- ------- ------ --------- -- ------------ -- --- ---- -----<br>------ ---- ---- ------ ------ ------- --- ----- artifacts<br>---- --- -------- -------- --- --- -- ------- --- --- -----<br>-- --- ------ ------- --- --- -------- ---- --------- --<br>---------- -- -------- ----------------,299627.5,299627.3999999985,299089.662,299090.8999999985,299093.876,299631.917,,28,artifacts
screen,html.Screen,2_3_1_0_1_29,2022-02-17T16:50:33.110Z,,,,,,,,,,,,,,,,,11,,,,,,,,,,,,,,527.682999997749,,response,,,,4,F,,,,,,Space,keypress(Space),,,,instrumental,,,,----- -- ---- --- -- --- -------- ------------ ---------- --<br>- ------- ------ --------- -- ------------ -- --- ---- -----<br>------ ---- ---- ------ ------ ------- --- ----- ---------<br>from --- -------- -------- --- --- -- ------- --- --- -----<br>-- --- ------ ------- --- --- -------- ---- --------- --<br>---------- -- -------- ----------------,300159.80000000075,300159.59999999776,299627.664,299627.69999999925,299631.917,300161.635,,29,from
screen,html.Screen,2_3_1_0_1_30,2022-02-17T16:50:33.610Z,,,,,,,,,,,,,,,,,11,,,,,,,,,,,,,,497.3649999999907,,response,,,,4,F,,,,,,Space,keypress(Space),,,,instrumental,,,,----- -- ---- --- -- --- -------- ------------ ---------- --<br>- ------- ------ --------- -- ------------ -- --- ---- -----<br>------ ---- ---- ------ ------ ------- --- ----- ---------<br>---- the -------- -------- --- --- -- ------- --- --- -----<br>-- --- ------ ------- --- --- -------- ---- --------- --<br>---------- -- -------- ----------------,300659.30000000075,300659,300157.448,300160,300161.635,300662.242,,30,the
screen,html.Screen,2_3_1_0_1_31,2022-02-17T16:50:34.118Z,,,,,,,,,,,,,,,,,11,,,,,,,,,,,,,,504.95799999922747,,response,,,,4,F,,,,,,Space,keypress(Space),,,,instrumental,,,,----- -- ---- --- -- --- -------- ------------ ---------- --<br>- ------- ------ --------- -- ------------ -- --- ---- -----<br>------ ---- ---- ------ ------ ------- --- ----- ---------<br>---- --- island's -------- --- --- -- ------- --- --- -----<br>-- --- ------ ------- --- --- -------- ---- --------- --<br>---------- -- -------- ----------------,301167.5,301167.19999999925,300657.91,300659.30000000075,300662.242,301171.061,,31,island's
screen,html.Screen,2_3_1_0_1_32,2022-02-17T16:50:34.552Z,,,,,,,,,,,,,,,,,11,,,,,,,,,,,,,,430.3389999985229,,response,,,,4,F,,,,,,Space,keypress(Space),,,,instrumental,,,,----- -- ---- --- -- --- -------- ------------ ---------- --<br>- ------- ------ --------- -- ------------ -- --- ---- -----<br>------ ---- ---- ------ ------ ------- --- ----- ---------<br>---- --- -------- history. --- --- -- ------- --- --- -----<br>-- --- ------ ------- --- --- -------- ---- --------- --<br>---------- -- -------- ----------------,301601.59999999776,301601.3999999985,301166.749,301167.59999999776,301171.061,301604.86,,32,history.
screen,html.Screen,2_3_1_0_1_33,2022-02-17T16:50:35.502Z,,,,,,,,,,,,,,,,,11,,,,,,,,,,,,,,946.7399999977788,,response,,,,4,F,,,,,,Space,keypress(Space),,,,instrumental,,,,----- -- ---- --- -- --- -------- ------------ ---------- --<br>- ------- ------ --------- -- ------------ -- --- ---- -----<br>------ ---- ---- ------ ------ ------- --- ----- ---------<br>---- --- -------- -------- The --- -- ------- --- --- -----<br>-- --- ------ ------- --- --- -------- ---- --------- --<br>---------- -- -------- ----------------,302551.8999999985,302551.59999999776,301600.587,301601.69999999925,301604.86,302555.969,,33,The
screen,html.Screen,2_3_1_0_1_34,2022-02-17T16:50:36.128Z,,,,,,,,,,,,,,,,,11,,,,,,,,,,,,,,622.0310000000172,,response,,,,4,F,,,,,,Space,keypress(Space),,,,instrumental,,,,----- -- ---- --- -- --- -------- ------------ ---------- --<br>- ------- ------ --------- -- ------------ -- --- ---- -----<br>------ ---- ---- ------ ------ ------- --- ----- ---------<br>---- --- -------- -------- --- art -- ------- --- --- -----<br>-- --- ------ ------- --- --- -------- ---- --------- --<br>---------- -- -------- ----------------,303178.19999999925,303178,302551.479,302551.8999999985,302555.969,303181.571,,34,art
screen,html.Screen,2_3_1_0_1_35,2022-02-17T16:50:36.600Z,,,,,,,,,,,,,,,,,11,,,,,,,,,,,,,,467.62899999925867,,response,,,,4,F,,,,,,Space,keypress(Space),,,,instrumental,,,,----- -- ---- --- -- --- -------- ------------ ---------- --<br>- ------- ------ --------- -- ------------ -- --- ---- -----<br>------ ---- ---- ------ ------ ------- --- ----- ---------<br>---- --- -------- -------- --- --- of ------- --- --- -----<br>-- --- ------ ------- --- --- -------- ---- --------- --<br>---------- -- -------- ----------------,303649.3999999985,303649.19999999925,303177.228,303178.30000000075,303181.571,303652.878,,35,of
screen,html.Screen,2_3_1_0_1_36,2022-02-17T16:50:37.144Z,,,,,,,,,,,,,,,,,11,,,,,,,,,,,,,,540.8219999992289,,response,,,,4,F,,,,,,Space,keypress(Space),,,,instrumental,,,,----- -- ---- --- -- --- -------- ------------ ---------- --<br>- ------- ------ --------- -- ------------ -- --- ---- -----<br>------ ---- ---- ------ ------ ------- --- ----- ---------<br>---- --- -------- -------- --- --- -- writing --- --- -----<br>-- --- ------ ------- --- --- -------- ---- --------- --<br>---------- -- -------- ----------------,304194,304193.69999999925,303648.601,303649.5,303652.878,304200.798,,36,writing
screen,html.Screen,2_3_1_0_1_37,2022-02-17T16:50:37.554Z,,,,,,,,,,,,,,,,,11,,,,,,,,,,,,,,402.40199999924516,,response,,,,4,F,,,,,,Space,keypress(Space),,,,instrumental,,,,----- -- ---- --- -- --- -------- ------------ ---------- --<br>- ------- ------ --------- -- ------------ -- --- ---- -----<br>------ ---- ---- ------ ------ ------- --- ----- ---------<br>---- --- -------- -------- --- --- -- ------- was --- -----<br>-- --- ------ ------- --- --- -------- ---- --------- --<br>---------- -- -------- ----------------,304603.5,304603.19999999925,304190.864,304194.3999999985,304200.798,304609.375,,37,was
screen,html.Screen,2_3_1_0_1_38,2022-02-17T16:50:37.890Z,,,,,,,,,,,,,,,,,11,,,,,,,,,,,,,,329.82499999925494,,response,,,,4,F,,,,,,Space,keypress(Space),,,,instrumental,,,,----- -- ---- --- -- --- -------- ------------ ---------- --<br>- ------- ------ --------- -- ------------ -- --- ---- -----<br>------ ---- ---- ------ ------ ------- --- ----- ---------<br>---- --- -------- -------- --- --- -- ------- --- not -----<br>-- --- ------ ------- --- --- -------- ---- --------- --<br>---------- -- -------- ----------------,304939.3999999985,304939.19999999925,304599.742,304603.5,304609.375,304941.832,,38,not
screen,html.Screen,2_3_1_0_1_39,2022-02-17T16:50:38.279Z,,,,,,,,,,,,,,,,,11,,,,,,,,,,,,,,386.4680000007502,,response,,,,4,F,,,,,,Space,keypress(Space),,,,instrumental,,,,----- -- ---- --- -- --- -------- ------------ ---------- --<br>- ------- ------ --------- -- ------------ -- --- ---- -----<br>------ ---- ---- ------ ------ ------- --- ----- ---------<br>---- --- -------- -------- --- --- -- ------- --- --- known<br>-- --- ------ ------- --- --- -------- ---- --------- --<br>---------- -- -------- ----------------,305328.69999999925,305328.30000000075,304937.543,304939.5,304941.832,305335.176,,39,known
