sender,sender_type,sender_id,timestamp,meta,,Blues,Classical,Country,Dance,Electronic,Folk,Gospel,Hip-Hop,Jazz,Latin,Musical/Film,New-age,Pop,Prolific_id,Provo_ID,R&B,Rap,Reggae,Religious,Rock,Soul,Swing,Traditional,age,artist_name,correct,correctResponse,distraction,duration,education,ended_on,familiarity,gender,headphone_check_performance,item,list,music_frequency,offensiveness,pleasantness,position_correct,preference,response,response_action,snippet_file,song_name,song_rating,sound,stimulus_1,stimulus_2,stimulus_3,text,time_commit,time_end,time_render,time_run,time_show,time_switch,url,word,word_ID
Prolific ID,html.Form,0,2022-02-15T14:10:07.395Z,"{""labjs_version"":""20.2.2"",""labjs_build"":{""flavor"":""production"",""commit"":""a25486e0c714a0ae2ce03ff94b7bb6896854dcfa""},""location"":""https://run.pavlovia.org/mvasilev/prolific2_music_f/"",""userAgent"":""Mozilla/5.0 (Macintosh; Intel Mac OS X 10_15_7) AppleWebKit/605.1.15 (KHTML, like Gecko) Version/14.1.1 Safari/605.1.15"",""platform"":""MacIntel"",""language"":""en-gb"",""locale"":""en-GB"",""timeZone"":""Europe/London"",""timezoneOffset"":0,""screen_width"":1440,""screen_height"":900,""scroll_width"":1440,""scroll_height"":685,""window_innerWidth"":1440,""window_innerHeight"":733,""devicePixelRatio"":2}",,,,,,,,,,,,,,,5f262b3018c68e27aebdd170,,,,,,,,,,,,,,,204889,,form submission,,,,,,,,,,,,,,,,,,,,,213281,213281,8376,8351,8392,213290,{},,
Introduction,html.Screen,1_0,2022-02-15T14:11:13.429Z,,,,,,,,,,,,,,,,,,,,,,,,,,,,,,,66055,,response,,,,,,,,,,,continue,click button,,,,,,,,,279317,279339,213284,213282,213290,279348,,,
Volume calibration,html.Screen,1_1,2022-02-15T14:12:08.517Z,,,,,,,,,,,,,,,,,,,,,,,,,,,,,,,55111,,response,,,,,,,,,,,continue,click button,,,,,,,,,334407,334442,279331,279318,279348,334431,,,
Task instructions,html.Screen,1_2,2022-02-15T14:12:12.023Z,,,,,,,,,,,,,,,,,,,,,,,,,,,,,,,3533,,response,,,,,,,,,,,continue,click button,,,,,,,,,337913,337948,334415,334408,334431,337949,,,
Sounds,html.Screen,1_3_0_0,2022-02-15T14:12:16.295Z,,,,,,,,,,,,,,,,,,,,,,,,,,,,,,,4252,,timeout,,,,,,,,,3,,,,,,,,O,I,S,,342185,342182,337932,337913,337949,342201,,,
Judgement,html.Screen,1_3_0_1,2022-02-15T14:12:16.957Z,,,,,,,,,,,,,,,,,,,,,,,,,,,,true,3,,704,,response,,,,,,,,,3,,3,click #choice-3,,,,,O,I,S,,342848,342886,342182,342186.00000000006,342201,342882,,,
Trial,flow.Sequence,1_3_0,2022-02-15T14:12:16.958Z,,,,,,,,,,,,,,,,,,,,,,,,,,,,,,,4937,,completion,,,,,,,,,3,,,,,,,,O,I,S,,342848,342886,337932,337913,337949,342882,,,
Sounds,html.Screen,1_3_1_0,2022-02-15T14:12:21.226Z,,,,,,,,,,,,,,,,,,,,,,,,,,,,,,,4250,,timeout,,,,,,,,,1,,,,,,,,S,I,O,,347117,347116,342866,342849,342882,347132,,,
Judgement,html.Screen,1_3_1_1,2022-02-15T14:12:21.974Z,,,,,,,,,,,,,,,,,,,,,,,,,,,,true,1,,788,,response,,,,,,,,,1,,1,click #choice-1,,,,,S,I,O,,347865,347904,347116,347117,347132,347899,,,
Trial,flow.Sequence,1_3_1,2022-02-15T14:12:21.975Z,,,,,,,,,,,,,,,,,,,,,,,,,,,,,,,5022,,completion,,,,,,,,,1,,,,,,,,S,I,O,,347865,347904,342866,342849,342882,347899,,,
Sounds,html.Screen,1_3_2_0,2022-02-15T14:12:26.243Z,,,,,,,,,,,,,,,,,,,,,,,,,,,,,,,4253,,timeout,,,,,,,,,1,,,,,,,,S,O,I,,352133,352133,347882,347866,347899,352152,,,
Judgement,html.Screen,1_3_2_1,2022-02-15T14:12:26.720Z,,,,,,,,,,,,,,,,,,,,,,,,,,,,true,1,,516,,response,,,,,,,,,1,,1,click #choice-1,,,,,S,O,I,,352610,352649,352133,352134,352152,352632,,,
Trial,flow.Sequence,1_3_2,2022-02-15T14:12:26.720Z,,,,,,,,,,,,,,,,,,,,,,,,,,,,,,,4750,,completion,,,,,,,,,1,,,,,,,,S,O,I,,352611,352649,347882,347866,347899,352632,,,
Sounds,html.Screen,1_3_3_0,2022-02-15T14:12:30.976Z,,,,,,,,,,,,,,,,,,,,,,,,,,,,,,,4251,,timeout,,,,,,,,,2,,,,,,,,O,S,I,,356866,356866,352616,352611,352632,356883,,,
Judgement,html.Screen,1_3_3_1,2022-02-15T14:12:31.380Z,,,,,,,,,,,,,,,,,,,,,,,,,,,,true,2,,448,,response,,,,,,,,,2,,2,click #choice-2,,,,,O,S,I,,357271,357314,356866,356867,356883,357299,,,
Trial,flow.Sequence,1_3_3,2022-02-15T14:12:31.380Z,,,,,,,,,,,,,,,,,,,,,,,,,,,,,,,4682,,completion,,,,,,,,,2,,,,,,,,O,S,I,,357271,357314,352616,352611,352632,357299,,,
Sounds,html.Screen,1_3_4_0,2022-02-15T14:12:35.642Z,,,,,,,,,,,,,,,,,,,,,,,,,,,,,,,4249,,timeout,,,,,,,,,2,,,,,,,,I,S,O,,361533,361532,357283,357271,357299,361548,,,
Judgement,html.Screen,1_3_4_1,2022-02-15T14:12:36.013Z,,,,,,,,,,,,,,,,,,,,,,,,,,,,true,2,,415,,response,,,,,,,,,2,,2,click #choice-2,,,,,I,S,O,,361904,361947,361532,361534,361548,361933,,,
Trial,flow.Sequence,1_3_4,2022-02-15T14:12:36.013Z,,,,,,,,,,,,,,,,,,,,,,,,,,,,,,,4648,,completion,,,,,,,,,2,,,,,,,,I,S,O,,361904,361947,357283,357271,357299,361933,,,
Sounds,html.Screen,1_3_5_0,2022-02-15T14:12:40.276Z,,,,,,,,,,,,,,,,,,,,,,,,,,,,,,,4250,,timeout,,,,,,,,,3,,,,,,,,I,O,S,,366167.00000000006,366166,361915,361904,361933,366183,,,
Judgement,html.Screen,1_3_5_1,2022-02-15T14:12:40.723Z,,,,,,,,,,,,,,,,,,,,,,,,,,,,true,3,,489.0000000000582,,response,,,,,,,,,3,,3,click #choice-3,,,,,I,O,S,,366614.00000000006,366655.00000000006,366166,366168,366183,366649,,,
Trial,flow.Sequence,1_3_5,2022-02-15T14:12:40.723Z,,,,,,,,,,,,,,,,,,,,,,,,,,,,,,,4722.000000000058,,completion,,,,,,,,,3,,,,,,,,I,O,S,,366614.00000000006,366655.00000000006,361915,361904,361933,366649,,,
Task,flow.Loop,1_3,2022-02-15T14:12:40.726Z,,,,,,,,,,,,,,,,,,,,,,,,,,,,,,,28706.00000000006,,completion,,,1,,,,,,,,,,,,,,,,,,366617,366655.00000000006,337932,337913,337949,366649,,,
Trap,html.Screen,1_4,2022-02-15T14:12:40.727Z,,,,,,,,,,,,,,,,,,,,,,,,,,,,,,,NaN,,skipped,,,,,,,,,,,,,,,,,,,,,366618,366655.00000000006,,366618,,366649,,,
Thanks,html.Screen,1_5,2022-02-15T14:12:45.892Z,,,,,,,,,,,,,,,,,,,,,,,,,,,,,,,5189,,response,,,,,,,,,,,continue,click button,,,,,,,,,371783,371822,366633,366618,366649,374500,,,
Headphone screening,flow.Sequence,1,2022-02-15T14:12:45.892Z,,,,,,,,,,,,,,,,,,,,,,,,,,,,,,,158532,,completion,,,,,,,,,,,,,,,,,,,,,371783,371822,213284,213282,213290,374500,,,
Instructions,html.Page,2_0,2022-02-15T14:13:02.549Z,,,,,,,,,,,,,,,,,,,,,,,,,,,,,,,13940,,form submission,,,,,,,,,,,,,,,,,,,,,388441.00000000006,388440,374483,374467,374500,388467,,,
Holding screen,html.Screen,2_1_0_0,2022-02-15T14:13:12.559Z,,,,,,,,,,,,,,,,,,,,,,,,,,,,,,,10006,,timeout,,,,,,,,,,,,,,,,,,,,,398451,398450,388450,388442,388467,398473,,,
screen,html.Screen,2_1_0_1_0,2022-02-15T14:13:13.539Z,,,,,,,,,,,,,,,,,53,,,,,,,,,,,,,,1020,,response,,,,99,,,,,,,Space,keypress(Space),,,,,,,,When -- ----- -- ------ - ------- --- ----------<br>------------- ------ ------ ---- ---- ------- ----- -- ----<br>-------- ------- -- ---------- --- - --- ----- ----- ----<br>---- --- --- ----- --- ---- ---- ------- ----- ---- -------<br>--- --- -- ----- -- --- ---- -- --- ---- -- ------ ------<br>--- ----- -- ----,399432,399470,398450,398452,398473,399467,,0,When
screen,html.Screen,2_1_0_1_1,2022-02-15T14:13:14.131Z,,,,,,,,,,,,,,,,,53,,,,,,,,,,,,,,614,,response,,,,99,,,,,,,Space,keypress(Space),,,,,,,,---- it ----- -- ------ - ------- --- ----------<br>------------- ------ ------ ---- ---- ------- ----- -- ----<br>-------- ------- -- ---------- --- - --- ----- ----- ----<br>---- --- --- ----- --- ---- ---- ------- ----- ---- -------<br>--- --- -- ----- -- --- ---- -- --- ---- -- ------ ------<br>--- ----- -- ----,400023,400064,399450,399432,399467,400067,,1,it
screen,html.Screen,2_1_0_1_2,2022-02-15T14:13:14.512Z,,,,,,,,,,,,,,,,,53,,,,,,,,,,,,,,395,,response,,,,99,,,,,,,Space,keypress(Space),,,,,,,,---- -- comes -- ------ - ------- --- ----------<br>------------- ------ ------ ---- ---- ------- ----- -- ----<br>-------- ------- -- ---------- --- - --- ----- ----- ----<br>---- --- --- ----- --- ---- ---- ------- ----- ---- -------<br>--- --- -- ----- -- --- ---- -- --- ---- -- ------ ------<br>--- ----- -- ----,400404,400445,400050,400024,400067,400433,,2,comes
screen,html.Screen,2_1_0_1_3,2022-02-15T14:13:14.901Z,,,,,,,,,,,,,,,,,53,,,,,,,,,,,,,,416,,response,,,,99,,,,,,,Space,keypress(Space),,,,,,,,---- -- ----- to ------ - ------- --- ----------<br>------------- ------ ------ ---- ---- ------- ----- -- ----<br>-------- ------- -- ---------- --- - --- ----- ----- ----<br>---- --- --- ----- --- ---- ---- ------- ----- ---- -------<br>--- --- -- ----- -- --- ---- -- --- ---- -- ------ ------<br>--- ----- -- ----,400793,400833,400417,400405.00000000006,400433,400816,,3,to
screen,html.Screen,2_1_0_1_4,2022-02-15T14:13:15.268Z,,,,,,,,,,,,,,,,,53,,,,,,,,,,,,,,401,,response,,,,99,,,,,,,Space,keypress(Space),,,,,,,,---- -- ----- -- having - ------- --- ----------<br>------------- ------ ------ ---- ---- ------- ----- -- ----<br>-------- ------- -- ---------- --- - --- ----- ----- ----<br>---- --- --- ----- --- ---- ---- ------- ----- ---- -------<br>--- --- -- ----- -- --- ---- -- --- ---- -- ------ ------<br>--- ----- -- ----,401160,401201,400800,400794,400816,401183,,4,having
screen,html.Screen,2_1_0_1_5,2022-02-15T14:13:15.612Z,,,,,,,,,,,,,,,,,53,,,,,,,,,,,,,,378,,response,,,,99,,,,,,,Space,keypress(Space),,,,,,,,---- -- ----- -- ------ a ------- --- ----------<br>------------- ------ ------ ---- ---- ------- ----- -- ----<br>-------- ------- -- ---------- --- - --- ----- ----- ----<br>---- --- --- ----- --- ---- ---- ------- ----- ---- -------<br>--- --- -- ----- -- --- ---- -- --- ---- -- ------ ------<br>--- ----- -- ----,401505,401545,401167,401161,401183,401533,,5,a
screen,html.Screen,2_1_0_1_6,2022-02-15T14:13:15.962Z,,,,,,,,,,,,,,,,,53,,,,,,,,,,,,,,379,,response,,,,99,,,,,,,Space,keypress(Space),,,,,,,,---- -- ----- -- ------ - lasting --- ----------<br>------------- ------ ------ ---- ---- ------- ----- -- ----<br>-------- ------- -- ---------- --- - --- ----- ----- ----<br>---- --- --- ----- --- ---- ---- ------- ----- ---- -------<br>--- --- -- ----- -- --- ---- -- --- ---- -- ------ ------<br>--- ----- -- ----,401855,401896,401517,401505,401533,401884,,6,lasting
screen,html.Screen,2_1_0_1_7,2022-02-15T14:13:16.330Z,,,,,,,,,,,,,,,,,53,,,,,,,,,,,,,,396.0000000000582,,response,,,,99,,,,,,,Space,keypress(Space),,,,,,,,---- -- ----- -- ------ - ------- and ----------<br>------------- ------ ------ ---- ---- ------- ----- -- ----<br>-------- ------- -- ---------- --- - --- ----- ----- ----<br>---- --- --- ----- --- ---- ---- ------- ----- ---- -------<br>--- --- -- ----- -- --- ---- -- --- ---- -- ------ ------<br>--- ----- -- ----,402222,402263.00000000006,401867,401855,401884,402250,,7,and
screen,html.Screen,2_1_0_1_8,2022-02-15T14:13:16.642Z,,,,,,,,,,,,,,,,,53,,,,,,,,,,,,,,343,,response,,,,99,,,,,,,Space,keypress(Space),,,,,,,,---- -- ----- -- ------ - ------- --- fulfilling<br>------------- ------ ------ ---- ---- ------- ----- -- ----<br>-------- ------- -- ---------- --- - --- ----- ----- ----<br>---- --- --- ----- --- ---- ---- ------- ----- ---- -------<br>--- --- -- ----- -- --- ---- -- --- ---- -- ------ ------<br>--- ----- -- ----,402535,402576,402233,402223,402250,402566,,8,fulfilling
screen,html.Screen,2_1_0_1_9,2022-02-15T14:13:17.061Z,,,,,,,,,,,,,,,,,53,,,,,,,,,,,,,,445,,response,,,,99,,,,,,,Space,keypress(Space),,,,,,,,"---- -- ----- -- ------ - ------- --- ----------<br>relationship, ------ ------ ---- ---- ------- ----- -- ----<br>-------- ------- -- ---------- --- - --- ----- ----- ----<br>---- --- --- ----- --- ---- ---- ------- ----- ---- -------<br>--- --- -- ----- -- --- ---- -- --- ---- -- ------ ------<br>--- ----- -- ----",402953.00000000006,402995,402550,402535,402566,402984,,9,"relationship,"
screen,html.Screen,2_1_0_1_10,2022-02-15T14:13:17.393Z,,,,,,,,,,,,,,,,,53,,,,,,,,,,,,,,360,,response,,,,99,,,,,,,Space,keypress(Space),,,,,,,,---- -- ----- -- ------ - ------- --- ----------<br>------------- common ------ ---- ---- ------- ----- -- ----<br>-------- ------- -- ---------- --- - --- ----- ----- ----<br>---- --- --- ----- --- ---- ---- ------- ----- ---- -------<br>--- --- -- ----- -- --- ---- -- --- ---- -- ------ ------<br>--- ----- -- ----,403285,403326,402966,402954,402984,403317,,10,common
screen,html.Screen,2_1_0_1_11,2022-02-15T14:13:17.850Z,,,,,,,,,,,,,,,,,53,,,,,,,,,,,,,,484,,response,,,,99,,,,,,,Space,keypress(Space),,,,,,,,---- -- ----- -- ------ - ------- --- ----------<br>------------- ------ wisdom ---- ---- ------- ----- -- ----<br>-------- ------- -- ---------- --- - --- ----- ----- ----<br>---- --- --- ----- --- ---- ---- ------- ----- ---- -------<br>--- --- -- ----- -- --- ---- -- --- ---- -- ------ ------<br>--- ----- -- ----,403743,403784,403300,403285,403317,403784,,11,wisdom
screen,html.Screen,2_1_0_1_12,2022-02-15T14:13:18.205Z,,,,,,,,,,,,,,,,,53,,,,,,,,,,,,,,372.0000000000582,,response,,,,99,,,,,,,Space,keypress(Space),,,,,,,,---- -- ----- -- ------ - ------- --- ----------<br>------------- ------ ------ says ---- ------- ----- -- ----<br>-------- ------- -- ---------- --- - --- ----- ----- ----<br>---- --- --- ----- --- ---- ---- ------- ----- ---- -------<br>--- --- -- ----- -- --- ---- -- --- ---- -- ------ ------<br>--- ----- -- ----,404097,404138.00000000006,403766,403743,403784,404116,,12,says
screen,html.Screen,2_1_0_1_13,2022-02-15T14:13:18.508Z,,,,,,,,,,,,,,,,,53,,,,,,,,,,,,,,342.0000000000582,,response,,,,99,,,,,,,Space,keypress(Space),,,,,,,,---- -- ----- -- ------ - ------- --- ----------<br>------------- ------ ------ ---- that ------- ----- -- ----<br>-------- ------- -- ---------- --- - --- ----- ----- ----<br>---- --- --- ----- --- ---- ---- ------- ----- ---- -------<br>--- --- -- ----- -- --- ---- -- --- ---- -- ------ ------<br>--- ----- -- ----,404400.00000000006,404441.00000000006,404099,404098,404116,404434,,13,that
screen,html.Screen,2_1_0_1_14,2022-02-15T14:13:18.787Z,,,,,,,,,,,,,,,,,53,,,,,,,,,,,,,,305.0000000000582,,response,,,,99,,,,,,,Space,keypress(Space),,,,,,,,---- -- ----- -- ------ - ------- --- ----------<br>------------- ------ ------ ---- ---- feeling ----- -- ----<br>-------- ------- -- ---------- --- - --- ----- ----- ----<br>---- --- --- ----- --- ---- ---- ------- ----- ---- -------<br>--- --- -- ----- -- --- ---- -- --- ---- -- ------ ------<br>--- ----- -- ----,404680,404722.00000000006,404417,404401,404434,404700,,14,feeling
screen,html.Screen,2_1_0_1_15,2022-02-15T14:13:19.071Z,,,,,,,,,,,,,,,,,53,,,,,,,,,,,,,,321,,response,,,,99,,,,,,,Space,keypress(Space),,,,,,,,---- -- ----- -- ------ - ------- --- ----------<br>------------- ------ ------ ---- ---- ------- close -- ----<br>-------- ------- -- ---------- --- - --- ----- ----- ----<br>---- --- --- ----- --- ---- ---- ------- ----- ---- -------<br>--- --- -- ----- -- --- ---- -- --- ---- -- ------ ------<br>--- ----- -- ----,404963,405004,404683,404680,404700,404984,,15,close
screen,html.Screen,2_1_0_1_16,2022-02-15T14:13:19.366Z,,,,,,,,,,,,,,,,,53,,,,,,,,,,,,,,333,,response,,,,99,,,,,,,Space,keypress(Space),,,,,,,,---- -- ----- -- ------ - ------- --- ----------<br>------------- ------ ------ ---- ---- ------- ----- to ----<br>-------- ------- -- ---------- --- - --- ----- ----- ----<br>---- --- --- ----- --- ---- ---- ------- ----- ---- -------<br>--- --- -- ----- -- --- ---- -- --- ---- -- ------ ------<br>--- ----- -- ----,405259,405300,404967,404964,404984,405284,,16,to
screen,html.Screen,2_1_0_1_17,2022-02-15T14:13:19.649Z,,,,,,,,,,,,,,,,,53,,,,,,,,,,,,,,315,,response,,,,99,,,,,,,Space,keypress(Space),,,,,,,,---- -- ----- -- ------ - ------- --- ----------<br>------------- ------ ------ ---- ---- ------- ----- -- your<br>-------- ------- -- ---------- --- - --- ----- ----- ----<br>---- --- --- ----- --- ---- ---- ------- ----- ---- -------<br>--- --- -- ----- -- --- ---- -- --- ---- -- ------ ------<br>--- ----- -- ----,405541,405582,405267,405259,405284,405567,,17,your
screen,html.Screen,2_1_0_1_18,2022-02-15T14:13:19.923Z,,,,,,,,,,,,,,,,,53,,,,,,,,,,,,,,307,,response,,,,99,,,,,,,Space,keypress(Space),,,,,,,,---- -- ----- -- ------ - ------- --- ----------<br>------------- ------ ------ ---- ---- ------- ----- -- ----<br>romantic ------- -- ---------- --- - --- ----- ----- ----<br>---- --- --- ----- --- ---- ---- ------- ----- ---- -------<br>--- --- -- ----- -- --- ---- -- --- ---- -- ------ ------<br>--- ----- -- ----,405816.00000000006,405857,405550,405542.00000000006,405567,405833,,18,romantic
screen,html.Screen,2_1_0_1_19,2022-02-15T14:13:20.262Z,,,,,,,,,,,,,,,,,53,,,,,,,,,,,,,,378,,response,,,,99,,,,,,,Space,keypress(Space),,,,,,,,---- -- ----- -- ------ - ------- --- ----------<br>------------- ------ ------ ---- ---- ------- ----- -- ----<br>-------- partner -- ---------- --- - --- ----- ----- ----<br>---- --- --- ----- --- ---- ---- ------- ----- ---- -------<br>--- --- -- ----- -- --- ---- -- --- ---- -- ------ ------<br>--- ----- -- ----,406155.00000000006,406196,405818,405816.00000000006,405833,406184,,19,partner
screen,html.Screen,2_1_0_1_20,2022-02-15T14:13:20.543Z,,,,,,,,,,,,,,,,,53,,,,,,,,,,,,,,311,,response,,,,99,,,,,,,Space,keypress(Space),,,,,,,,---- -- ----- -- ------ - ------- --- ----------<br>------------- ------ ------ ---- ---- ------- ----- -- ----<br>-------- ------- is ---------- --- - --- ----- ----- ----<br>---- --- --- ----- --- ---- ---- ------- ----- ---- -------<br>--- --- -- ----- -- --- ---- -- --- ---- -- ------ ------<br>--- ----- -- ----,406436.00000000006,406478,406167,406155.00000000006,406184,406466,,20,is
screen,html.Screen,2_1_0_1_21,2022-02-15T14:13:20.850Z,,,,,,,,,,,,,,,,,53,,,,,,,,,,,,,,333,,response,,,,99,,,,,,,Space,keypress(Space),,,,,,,,---- -- ----- -- ------ - ------- --- ----------<br>------------- ------ ------ ---- ---- ------- ----- -- ----<br>-------- ------- -- paramount. --- - --- ----- ----- ----<br>---- --- --- ----- --- ---- ---- ------- ----- ---- -------<br>--- --- -- ----- -- --- ---- -- --- ---- -- ------ ------<br>--- ----- -- ----,406742,406783,406450,406436.00000000006,406466,406767,,21,paramount.
screen,html.Screen,2_1_0_1_22,2022-02-15T14:13:21.205Z,,,,,,,,,,,,,,,,,53,,,,,,,,,,,,,,389,,response,,,,99,,,,,,,Space,keypress(Space),,,,,,,,---- -- ----- -- ------ - ------- --- ----------<br>------------- ------ ------ ---- ---- ------- ----- -- ----<br>-------- ------- -- ---------- But - --- ----- ----- ----<br>---- --- --- ----- --- ---- ---- ------- ----- ---- -------<br>--- --- -- ----- -- --- ---- -- --- ---- -- ------ ------<br>--- ----- -- ----,407098,407139,406750,406742,406767,407117,,22,But
screen,html.Screen,2_1_0_1_23,2022-02-15T14:13:21.529Z,,,,,,,,,,,,,,,,,53,,,,,,,,,,,,,,362,,response,,,,99,,,,,,,Space,keypress(Space),,,,,,,,---- -- ----- -- ------ - ------- --- ----------<br>------------- ------ ------ ---- ---- ------- ----- -- ----<br>-------- ------- -- ---------- --- a --- ----- ----- ----<br>---- --- --- ----- --- ---- ---- ------- ----- ---- -------<br>--- --- -- ----- -- --- ---- -- --- ---- -- ------ ------<br>--- ----- -- ----,407421,407462,407100,407098,407117,407450,,23,a
screen,html.Screen,2_1_0_1_24,2022-02-15T14:13:21.823Z,,,,,,,,,,,,,,,,,53,,,,,,,,,,,,,,324,,response,,,,99,,,,,,,Space,keypress(Space),,,,,,,,---- -- ----- -- ------ - ------- --- ----------<br>------------- ------ ------ ---- ---- ------- ----- -- ----<br>-------- ------- -- ---------- --- - new ----- ----- ----<br>---- --- --- ----- --- ---- ---- ------- ----- ---- -------<br>--- --- -- ----- -- --- ---- -- --- ---- -- ------ ------<br>--- ----- -- ----,407715.00000000006,407757,407433,407421,407450,407750,,24,new
screen,html.Screen,2_1_0_1_25,2022-02-15T14:13:22.107Z,,,,,,,,,,,,,,,,,53,,,,,,,,,,,,,,307,,response,,,,99,,,,,,,Space,keypress(Space),,,,,,,,---- -- ----- -- ------ - ------- --- ----------<br>------------- ------ ------ ---- ---- ------- ----- -- ----<br>-------- ------- -- ---------- --- - --- study ----- ----<br>---- --- --- ----- --- ---- ---- ------- ----- ---- -------<br>--- --- -- ----- -- --- ---- -- --- ---- -- ------ ------<br>--- ----- -- ----,408000,408041,407734,407716,407750,408033,,25,study
screen,html.Screen,2_1_0_1_26,2022-02-15T14:13:22.407Z,,,,,,,,,,,,,,,,,53,,,,,,,,,,,,,,323.0000000000582,,response,,,,99,,,,,,,Space,keypress(Space),,,,,,,,---- -- ----- -- ------ - ------- --- ----------<br>------------- ------ ------ ---- ---- ------- ----- -- ----<br>-------- ------- -- ---------- --- - --- ----- finds ----<br>---- --- --- ----- --- ---- ---- ------- ----- ---- -------<br>--- --- -- ----- -- --- ---- -- --- ---- -- ------ ------<br>--- ----- -- ----,408299.00000000006,408340.00000000006,408017,408000,408033,408316,,26,finds
screen,html.Screen,2_1_0_1_27,2022-02-15T14:13:22.690Z,,,,,,,,,,,,,,,,,53,,,,,,,,,,,,,,323,,response,,,,99,,,,,,,Space,keypress(Space),,,,,,,,---- -- ----- -- ------ - ------- --- ----------<br>------------- ------ ------ ---- ---- ------- ----- -- ----<br>-------- ------- -- ---------- --- - --- ----- ----- that<br>---- --- --- ----- --- ---- ---- ------- ----- ---- -------<br>--- --- -- ----- -- --- ---- -- --- ---- -- ------ ------<br>--- ----- -- ----,408582,408624,408301,408299.00000000006,408316,408600,,27,that
screen,html.Screen,2_1_0_1_28,2022-02-15T14:13:22.993Z,,,,,,,,,,,,,,,,,53,,,,,,,,,,,,,,343,,response,,,,99,,,,,,,Space,keypress(Space),,,,,,,,---- -- ----- -- ------ - ------- --- ----------<br>------------- ------ ------ ---- ---- ------- ----- -- ----<br>-------- ------- -- ---------- --- - --- ----- ----- ----<br>it's --- --- ----- --- ---- ---- ------- ----- ---- -------<br>--- --- -- ----- -- --- ---- -- --- ---- -- ------ ------<br>--- ----- -- ----,408885,408927,408584,408583,408600,408917,,28,it's
screen,html.Screen,2_1_0_1_29,2022-02-15T14:13:23.321Z,,,,,,,,,,,,,,,,,53,,,,,,,,,,,,,,352,,response,,,,99,,,,,,,Space,keypress(Space),,,,,,,,---- -- ----- -- ------ - ------- --- ----------<br>------------- ------ ------ ---- ---- ------- ----- -- ----<br>-------- ------- -- ---------- --- - --- ----- ----- ----<br>---- not --- ----- --- ---- ---- ------- ----- ---- -------<br>--- --- -- ----- -- --- ---- -- --- ---- -- ------ ------<br>--- ----- -- ----,409213,409253,408901,408886,408917,409234,,29,not
screen,html.Screen,2_1_0_1_30,2022-02-15T14:13:23.646Z,,,,,,,,,,,,,,,,,53,,,,,,,,,,,,,,364,,response,,,,99,,,,,,,Space,keypress(Space),,,,,,,,---- -- ----- -- ------ - ------- --- ----------<br>------------- ------ ------ ---- ---- ------- ----- -- ----<br>-------- ------- -- ---------- --- - --- ----- ----- ----<br>---- --- how ----- --- ---- ---- ------- ----- ---- -------<br>--- --- -- ----- -- --- ---- -- --- ---- -- ------ ------<br>--- ----- -- ----,409539,409580,409216,409214,409234,409567,,30,how
screen,html.Screen,2_1_0_1_31,2022-02-15T14:13:23.889Z,,,,,,,,,,,,,,,,,53,,,,,,,,,,,,,,274,,response,,,,99,,,,,,,Space,keypress(Space),,,,,,,,---- -- ----- -- ------ - ------- --- ----------<br>------------- ------ ------ ---- ---- ------- ----- -- ----<br>-------- ------- -- ---------- --- - --- ----- ----- ----<br>---- --- --- close --- ---- ---- ------- ----- ---- -------<br>--- --- -- ----- -- --- ---- -- --- ---- -- ------ ------<br>--- ----- -- ----,409782,409824,409550,409539,409567,409800,,31,close
screen,html.Screen,2_1_0_1_32,2022-02-15T14:13:24.176Z,,,,,,,,,,,,,,,,,53,,,,,,,,,,,,,,327,,response,,,,99,,,,,,,Space,keypress(Space),,,,,,,,---- -- ----- -- ------ - ------- --- ----------<br>------------- ------ ------ ---- ---- ------- ----- -- ----<br>-------- ------- -- ---------- --- - --- ----- ----- ----<br>---- --- --- ----- you ---- ---- ------- ----- ---- -------<br>--- --- -- ----- -- --- ---- -- --- ---- -- ------ ------<br>--- ----- -- ----,410069,410110,409783,409782,409800,410100,,32,you
screen,html.Screen,2_1_0_1_33,2022-02-15T14:13:24.479Z,,,,,,,,,,,,,,,,,53,,,,,,,,,,,,,,329,,response,,,,99,,,,,,,Space,keypress(Space),,,,,,,,---- -- ----- -- ------ - ------- --- ----------<br>------------- ------ ------ ---- ---- ------- ----- -- ----<br>-------- ------- -- ---------- --- - --- ----- ----- ----<br>---- --- --- ----- --- feel ---- ------- ----- ---- -------<br>--- --- -- ----- -- --- ---- -- --- ---- -- ------ ------<br>--- ----- -- ----,410372,410413,410084,410069,410100,410400,,33,feel
screen,html.Screen,2_1_0_1_34,2022-02-15T14:13:24.755Z,,,,,,,,,,,,,,,,,53,,,,,,,,,,,,,,305,,response,,,,99,,,,,,,Space,keypress(Space),,,,,,,,---- -- ----- -- ------ - ------- --- ----------<br>------------- ------ ------ ---- ---- ------- ----- -- ----<br>-------- ------- -- ---------- --- - --- ----- ----- ----<br>---- --- --- ----- --- ---- that ------- ----- ---- -------<br>--- --- -- ----- -- --- ---- -- --- ---- -- ------ ------<br>--- ----- -- ----,410648,410689,410384,410372,410400,410667,,34,that
screen,html.Screen,2_1_0_1_35,2022-02-15T14:13:25.018Z,,,,,,,,,,,,,,,,,53,,,,,,,,,,,,,,302,,response,,,,99,,,,,,,Space,keypress(Space),,,,,,,,---- -- ----- -- ------ - ------- --- ----------<br>------------- ------ ------ ---- ---- ------- ----- -- ----<br>-------- ------- -- ---------- --- - --- ----- ----- ----<br>---- --- --- ----- --- ---- ---- matters ----- ---- -------<br>--- --- -- ----- -- --- ---- -- --- ---- -- ------ ------<br>--- ----- -- ----,410910,410952,410650,410648,410667,410934,,35,matters
screen,html.Screen,2_1_0_1_36,2022-02-15T14:13:25.274Z,,,,,,,,,,,,,,,,,53,,,,,,,,,,,,,,291,,response,,,,99,,,,,,,Space,keypress(Space),,,,,,,,"---- -- ----- -- ------ - ------- --- ----------<br>------------- ------ ------ ---- ---- ------- ----- -- ----<br>-------- ------- -- ---------- --- - --- ----- ----- ----<br>---- --- --- ----- --- ---- ---- ------- most, ---- -------<br>--- --- -- ----- -- --- ---- -- --- ---- -- ------ ------<br>--- ----- -- ----",411166,411208,410917,410911,410934,411200,,36,"most,"
screen,html.Screen,2_1_0_1_37,2022-02-15T14:13:25.559Z,,,,,,,,,,,,,,,,,53,,,,,,,,,,,,,,309,,response,,,,99,,,,,,,Space,keypress(Space),,,,,,,,---- -- ----- -- ------ - ------- --- ----------<br>------------- ------ ------ ---- ---- ------- ----- -- ----<br>-------- ------- -- ---------- --- - --- ----- ----- ----<br>---- --- --- ----- --- ---- ---- ------- ----- it's -------<br>--- --- -- ----- -- --- ---- -- --- ---- -- ------ ------<br>--- ----- -- ----,411451,411493,411184,411167.00000000006,411200,411483,,37,it's
screen,html.Screen,2_1_0_1_38,2022-02-15T14:13:25.864Z,,,,,,,,,,,,,,,,,53,,,,,,,,,,,,,,331,,response,,,,99,,,,,,,Space,keypress(Space),,,,,,,,---- -- ----- -- ------ - ------- --- ----------<br>------------- ------ ------ ---- ---- ------- ----- -- ----<br>-------- ------- -- ---------- --- - --- ----- ----- ----<br>---- --- --- ----- --- ---- ---- ------- ----- ---- whether<br>--- --- -- ----- -- --- ---- -- --- ---- -- ------ ------<br>--- ----- -- ----,411756,411798,411467,411452,411483,411783,,38,whether
screen,html.Screen,2_1_0_1_39,2022-02-15T14:13:26.124Z,,,,,,,,,,,,,,,,,53,,,,,,,,,,,,,,292,,response,,,,99,,,,,,,Space,keypress(Space),,,,,,,,---- -- ----- -- ------ - ------- --- ----------<br>------------- ------ ------ ---- ---- ------- ----- -- ----<br>-------- ------- -- ---------- --- - --- ----- ----- ----<br>---- --- --- ----- --- ---- ---- ------- ----- ---- -------<br>you --- -- ----- -- --- ---- -- --- ---- -- ------ ------<br>--- ----- -- ----,412016,412058,411766,411757,411783,412050,,39,you
screen,html.Screen,2_1_0_1_40,2022-02-15T14:13:26.424Z,,,,,,,,,,,,,,,,,53,,,,,,,,,,,,,,325,,response,,,,99,,,,,,,Space,keypress(Space),,,,,,,,---- -- ----- -- ------ - ------- --- ----------<br>------------- ------ ------ ---- ---- ------- ----- -- ----<br>-------- ------- -- ---------- --- - --- ----- ----- ----<br>---- --- --- ----- --- ---- ---- ------- ----- ---- -------<br>--- are -- ----- -- --- ---- -- --- ---- -- ------ ------<br>--- ----- -- ----,412316.00000000006,412358,412033,412017,412050,412350,,40,are
screen,html.Screen,2_1_0_1_41,2022-02-15T14:13:26.724Z,,,,,,,,,,,,,,,,,53,,,,,,,,,,,,,,324,,response,,,,99,,,,,,,Space,keypress(Space),,,,,,,,---- -- ----- -- ------ - ------- --- ----------<br>------------- ------ ------ ---- ---- ------- ----- -- ----<br>-------- ------- -- ---------- --- - --- ----- ----- ----<br>---- --- --- ----- --- ---- ---- ------- ----- ---- -------<br>--- --- as ----- -- --- ---- -- --- ---- -- ------ ------<br>--- ----- -- ----,412616,412658,412334,412317,412350,412651,,41,as
screen,html.Screen,2_1_0_1_42,2022-02-15T14:13:27.004Z,,,,,,,,,,,,,,,,,53,,,,,,,,,,,,,,303,,response,,,,99,,,,,,,Space,keypress(Space),,,,,,,,---- -- ----- -- ------ - ------- --- ----------<br>------------- ------ ------ ---- ---- ------- ----- -- ----<br>-------- ------- -- ---------- --- - --- ----- ----- ----<br>---- --- --- ----- --- ---- ---- ------- ----- ---- -------<br>--- --- -- close -- --- ---- -- --- ---- -- ------ ------<br>--- ----- -- ----,412896,412937,412634,412617,412651,412917,,42,close
screen,html.Screen,2_1_0_1_43,2022-02-15T14:13:27.275Z,,,,,,,,,,,,,,,,,53,,,,,,,,,,,,,,309,,response,,,,99,,,,,,,Space,keypress(Space),,,,,,,,---- -- ----- -- ------ - ------- --- ----------<br>------------- ------ ------ ---- ---- ------- ----- -- ----<br>-------- ------- -- ---------- --- - --- ----- ----- ----<br>---- --- --- ----- --- ---- ---- ------- ----- ---- -------<br>--- --- -- ----- as --- ---- -- --- ---- -- ------ ------<br>--- ----- -- ----,413167.00000000006,413209,412900,412897,412917,413200,,43,as
screen,html.Screen,2_1_0_1_44,2022-02-15T14:13:27.533Z,,,,,,,,,,,,,,,,,53,,,,,,,,,,,,,,283,,response,,,,99,,,,,,,Space,keypress(Space),,,,,,,,---- -- ----- -- ------ - ------- --- ----------<br>------------- ------ ------ ---- ---- ------- ----- -- ----<br>-------- ------- -- ---------- --- - --- ----- ----- ----<br>---- --- --- ----- --- ---- ---- ------- ----- ---- -------<br>--- --- -- ----- -- you ---- -- --- ---- -- ------ ------<br>--- ----- -- ----,413426,413467,413184,413168,413200,413450,,44,you
screen,html.Screen,2_1_0_1_45,2022-02-15T14:13:27.797Z,,,,,,,,,,,,,,,,,53,,,,,,,,,,,,,,298,,response,,,,99,,,,,,,Space,keypress(Space),,,,,,,,---- -- ----- -- ------ - ------- --- ----------<br>------------- ------ ------ ---- ---- ------- ----- -- ----<br>-------- ------- -- ---------- --- - --- ----- ----- ----<br>---- --- --- ----- --- ---- ---- ------- ----- ---- -------<br>--- --- -- ----- -- --- want -- --- ---- -- ------ ------<br>--- ----- -- ----,413690,413732,413434,413426,413450,413716,,45,want
screen,html.Screen,2_1_0_1_46,2022-02-15T14:13:28.076Z,,,,,,,,,,,,,,,,,53,,,,,,,,,,,,,,310,,response,,,,99,,,,,,,Space,keypress(Space),,,,,,,,---- -- ----- -- ------ - ------- --- ----------<br>------------- ------ ------ ---- ---- ------- ----- -- ----<br>-------- ------- -- ---------- --- - --- ----- ----- ----<br>---- --- --- ----- --- ---- ---- ------- ----- ---- -------<br>--- --- -- ----- -- --- ---- to --- ---- -- ------ ------<br>--- ----- -- ----,413968,414010,413700,413690,413716,414000,,46,to
screen,html.Screen,2_1_0_1_47,2022-02-15T14:13:28.345Z,,,,,,,,,,,,,,,,,53,,,,,,,,,,,,,,296,,response,,,,99,,,,,,,Space,keypress(Space),,,,,,,,"---- -- ----- -- ------ - ------- --- ----------<br>------------- ------ ------ ---- ---- ------- ----- -- ----<br>-------- ------- -- ---------- --- - --- ----- ----- ----<br>---- --- --- ----- --- ---- ---- ------- ----- ---- -------<br>--- --- -- ----- -- --- ---- -- be, ---- -- ------ ------<br>--- ----- -- ----",414238,414279,413983,413969,414000,414267,,47,"be,"
screen,html.Screen,2_1_0_1_48,2022-02-15T14:13:28.624Z,,,,,,,,,,,,,,,,,53,,,,,,,,,,,,,,308,,response,,,,99,,,,,,,Space,keypress(Space),,,,,,,,---- -- ----- -- ------ - ------- --- ----------<br>------------- ------ ------ ---- ---- ------- ----- -- ----<br>-------- ------- -- ---------- --- - --- ----- ----- ----<br>---- --- --- ----- --- ---- ---- ------- ----- ---- -------<br>--- --- -- ----- -- --- ---- -- --- even -- ------ ------<br>--- ----- -- ----,414516,414558,414250,414238,414267,414550,,48,even
screen,html.Screen,2_1_0_1_49,2022-02-15T14:13:28.909Z,,,,,,,,,,,,,,,,,53,,,,,,,,,,,,,,311,,response,,,,99,,,,,,,Space,keypress(Space),,,,,,,,---- -- ----- -- ------ - ------- --- ----------<br>------------- ------ ------ ---- ---- ------- ----- -- ----<br>-------- ------- -- ---------- --- - --- ----- ----- ----<br>---- --- --- ----- --- ---- ---- ------- ----- ---- -------<br>--- --- -- ----- -- --- ---- -- --- ---- if ------ ------<br>--- ----- -- ----,414802,414844,414533,414517,414550,414834,,49,if
screen,html.Screen,2_1_0_1_50,2022-02-15T14:13:29.207Z,,,,,,,,,,,,,,,,,53,,,,,,,,,,,,,,324,,response,,,,99,,,,,,,Space,keypress(Space),,,,,,,,---- -- ----- -- ------ - ------- --- ----------<br>------------- ------ ------ ---- ---- ------- ----- -- ----<br>-------- ------- -- ---------- --- - --- ----- ----- ----<br>---- --- --- ----- --- ---- ---- ------- ----- ---- -------<br>--- --- -- ----- -- --- ---- -- --- ---- -- that's ------<br>--- ----- -- ----,415099,415141,414817,414802,414834,415117,,50,that's
screen,html.Screen,2_1_0_1_51,2022-02-15T14:13:29.506Z,,,,,,,,,,,,,,,,,53,,,,,,,,,,,,,,338,,response,,,,99,,,,,,,Space,keypress(Space),,,,,,,,---- -- ----- -- ------ - ------- --- ----------<br>------------- ------ ------ ---- ---- ------- ----- -- ----<br>-------- ------- -- ---------- --- - --- ----- ----- ----<br>---- --- --- ----- --- ---- ---- ------- ----- ---- -------<br>--- --- -- ----- -- --- ---- -- --- ---- -- ------ really<br>--- ----- -- ----,415399,415440,415102,415100,415117,415417,,51,really
screen,html.Screen,2_1_0_1_52,2022-02-15T14:13:29.901Z,,,,,,,,,,,,,,,,,53,,,,,,,,,,,,,,434.0000000000582,,response,,,,99,,,,,,,Space,keypress(Space),,,,,,,,---- -- ----- -- ------ - ------- --- ----------<br>------------- ------ ------ ---- ---- ------- ----- -- ----<br>-------- ------- -- ---------- --- - --- ----- ----- ----<br>---- --- --- ----- --- ---- ---- ------- ----- ---- -------<br>--- --- -- ----- -- --- ---- -- --- ---- -- ------ ------<br>not ----- -- ----,415794,415835.00000000006,415401,415399,415417,415834,,52,not
screen,html.Screen,2_1_0_1_53,2022-02-15T14:13:30.183Z,,,,,,,,,,,,,,,,,53,,,,,,,,,,,,,,300,,response,,,,99,,,,,,,Space,keypress(Space),,,,,,,,---- -- ----- -- ------ - ------- --- ----------<br>------------- ------ ------ ---- ---- ------- ----- -- ----<br>-------- ------- -- ---------- --- - --- ----- ----- ----<br>---- --- --- ----- --- ---- ---- ------- ----- ---- -------<br>--- --- -- ----- -- --- ---- -- --- ---- -- ------ ------<br>--- close -- ----,416076,416117,415817,415794,415834,416101,,53,close
screen,html.Screen,2_1_0_1_54,2022-02-15T14:13:30.503Z,,,,,,,,,,,,,,,,,53,,,,,,,,,,,,,,353,,response,,,,99,,,,,,,Space,keypress(Space),,,,,,,,---- -- ----- -- ------ - ------- --- ----------<br>------------- ------ ------ ---- ---- ------- ----- -- ----<br>-------- ------- -- ---------- --- - --- ----- ----- ----<br>---- --- --- ----- --- ---- ---- ------- ----- ---- -------<br>--- --- -- ----- -- --- ---- -- --- ---- -- ------ ------<br>--- ----- at ----,416396,416437,416084,416076,416101,416417,,54,at
screen,html.Screen,2_1_0_1_55,2022-02-15T14:13:30.902Z,,,,,,,,,,,,,,,,,53,,,,,,,,,,,,,,436,,response,,,,99,,,,,,,Space,keypress(Space),,,,,,,,---- -- ----- -- ------ - ------- --- ----------<br>------------- ------ ------ ---- ---- ------- ----- -- ----<br>-------- ------- -- ---------- --- - --- ----- ----- ----<br>---- --- --- ----- --- ---- ---- ------- ----- ---- -------<br>--- --- -- ----- -- --- ---- -- --- ---- -- ------ ------<br>--- ----- -- all.,416795,416836,416400,416397,416417,416834,,55,all.
Item 99,flow.Loop,2_1_0_1,2022-02-15T14:13:30.903Z,,,,,,,,,,,,,,,,,,,,,,,,,,,,,,,18363,,completion,,,,,F,,,,,,,,,,,silence,,,,,416796,416836,398450,398452,398473,416834,,,
Question 1,html.Screen,2_1_0_2,2022-02-15T14:13:34.475Z,,,,,,,,,,,,,,,,,,,,,,,,,,,,true,FALSE,,3586,,response,,,,99,F,,,,,,FALSE,click #choice-2,,,,silence,,,,,420368,420403,416817,416796,416834,420400,,,
Question 2,html.Screen,2_1_0_3,2022-02-15T14:13:37.757Z,,,,,,,,,,,,,,,,,,,,,,,,,,,,true,TRUE,,3310,,response,,,,99,F,,,,,,TRUE,click #choice-1,,,,silence,,,,,423650.00000000006,423694,420384,420368,420400,423684,,,
Item 99,flow.Sequence,2_1_0,2022-02-15T14:13:37.757Z,,,,,,,,,,,,,,,,,,,,,,,,,,,,,,,35227,,completion,,,,,,,,,,,,,,,,,,,,,423650.00000000006,423694,388450,388442,388467,423684,,,
Holding screen,html.Screen,2_1_1_0,2022-02-15T14:13:47.775Z,,,,,,,,,,,,,,,,,,,,,,,,,,,,,,,10000,,timeout,,,,,,,,,,,,,,,,,,,,,433668,433667,423654,423651,423684,433684,,,
screen,html.Screen,2_1_1_1_0,2022-02-15T14:13:48.544Z,,,,,,,,,,,,,,,,,54,,,,,,,,,,,,,,811,,response,,,,100,,,,,,,Space,keypress(Space),,,,,,,,At --- ---- --- ------ ----- ------- ---- -- --- ------- --<br>------- ---------- ------ -- ----- -- ----- -- ---- ------<br>--- ----- --- --- ------ -------- ----- --- ------ ----- --<br>----- ----- ---------- --- --- ------ ------ ---- -- ------<br>------- --- ------ ----- --- ---- ------- -- ---- --- --<br>------- ------,434437,434478,433667,433669,433684,434467,,0,At
screen,html.Screen,2_1_1_1_1,2022-02-15T14:13:48.923Z,,,,,,,,,,,,,,,,,54,,,,,,,,,,,,,,408.0000000000582,,response,,,,100,,,,,,,Space,keypress(Space),,,,,,,,-- the ---- --- ------ ----- ------- ---- -- --- ------- --<br>------- ---------- ------ -- ----- -- ----- -- ---- ------<br>--- ----- --- --- ------ -------- ----- --- ------ ----- --<br>----- ----- ---------- --- --- ------ ------ ---- -- ------<br>------- --- ------ ----- --- ---- ------- -- ---- --- --<br>------- ------,434817,434859.00000000006,434451,434437,434467,434851,,1,the
screen,html.Screen,2_1_1_1_2,2022-02-15T14:13:49.206Z,,,,,,,,,,,,,,,,,54,,,,,,,,,,,,,,307,,response,,,,100,,,,,,,Space,keypress(Space),,,,,,,,-- --- time --- ------ ----- ------- ---- -- --- ------- --<br>------- ---------- ------ -- ----- -- ----- -- ---- ------<br>--- ----- --- --- ------ -------- ----- --- ------ ----- --<br>----- ----- ---------- --- --- ------ ------ ---- -- ------<br>------- --- ------ ----- --- ---- ------- -- ---- --- --<br>------- ------,435099,435141,434834,434817,434851,435117,,2,time
screen,html.Screen,2_1_1_1_3,2022-02-15T14:13:49.551Z,,,,,,,,,,,,,,,,,54,,,,,,,,,,,,,,384,,response,,,,100,,,,,,,Space,keypress(Space),,,,,,,,-- --- ---- the ------ ----- ------- ---- -- --- ------- --<br>------- ---------- ------ -- ----- -- ----- -- ---- ------<br>--- ----- --- --- ------ -------- ----- --- ------ ----- --<br>----- ----- ---------- --- --- ------ ------ ---- -- ------<br>------- --- ------ ----- --- ---- ------- -- ---- --- --<br>------- ------,435444,435486,435102,435100,435117,435468,,3,the
screen,html.Screen,2_1_1_1_4,2022-02-15T14:13:49.825Z,,,,,,,,,,,,,,,,,54,,,,,,,,,,,,,,310,,response,,,,100,,,,,,,Space,keypress(Space),,,,,,,,-- --- ---- --- French ----- ------- ---- -- --- ------- --<br>------- ---------- ------ -- ----- -- ----- -- ---- ------<br>--- ----- --- --- ------ -------- ----- --- ------ ----- --<br>----- ----- ---------- --- --- ------ ------ ---- -- ------<br>------- --- ------ ----- --- ---- ------- -- ---- --- --<br>------- ------,435719,435761,435451,435445,435468,435751,,4,French
screen,html.Screen,2_1_1_1_5,2022-02-15T14:13:50.215Z,,,,,,,,,,,,,,,,,54,,,,,,,,,,,,,,417,,response,,,,100,,,,,,,Space,keypress(Space),,,,,,,,-- --- ---- --- ------ crown ------- ---- -- --- ------- --<br>------- ---------- ------ -- ----- -- ----- -- ---- ------<br>--- ----- --- --- ------ -------- ----- --- ------ ----- --<br>----- ----- ---------- --- --- ------ ------ ---- -- ------<br>------- --- ------ ----- --- ---- ------- -- ---- --- --<br>------- ------,436109.00000000006,436151,435734,435719,435751,436133,,5,crown
screen,html.Screen,2_1_1_1_6,2022-02-15T14:13:50.518Z,,,,,,,,,,,,,,,,,54,,,,,,,,,,,,,,337,,response,,,,100,,,,,,,Space,keypress(Space),,,,,,,,-- --- ---- --- ------ ----- secured ---- -- --- ------- --<br>------- ---------- ------ -- ----- -- ----- -- ---- ------<br>--- ----- --- --- ------ -------- ----- --- ------ ----- --<br>----- ----- ---------- --- --- ------ ------ ---- -- ------<br>------- --- ------ ----- --- ---- ------- -- ---- --- --<br>------- ------,436412.00000000006,436454,436117,436109.00000000006,436133,436434,,6,secured
screen,html.Screen,2_1_1_1_7,2022-02-15T14:13:50.826Z,,,,,,,,,,,,,,,,,54,,,,,,,,,,,,,,344,,response,,,,100,,,,,,,Space,keypress(Space),,,,,,,,-- --- ---- --- ------ ----- ------- much -- --- ------- --<br>------- ---------- ------ -- ----- -- ----- -- ---- ------<br>--- ----- --- --- ------ -------- ----- --- ------ ----- --<br>----- ----- ---------- --- --- ------ ------ ---- -- ------<br>------- --- ------ ----- --- ---- ------- -- ---- --- --<br>------- ------,436720,436762,436418,436412.00000000006,436434,436751,,7,much
screen,html.Screen,2_1_1_1_8,2022-02-15T14:13:51.122Z,,,,,,,,,,,,,,,,,54,,,,,,,,,,,,,,324,,response,,,,100,,,,,,,Space,keypress(Space),,,,,,,,-- --- ---- --- ------ ----- ------- ---- of --- ------- --<br>------- ---------- ------ -- ----- -- ----- -- ---- ------<br>--- ----- --- --- ------ -------- ----- --- ------ ----- --<br>----- ----- ---------- --- --- ------ ------ ---- -- ------<br>------- --- ------ ----- --- ---- ------- -- ---- --- --<br>------- ------,437015,437058,436734,436720,436751,437034,,8,of
screen,html.Screen,2_1_1_1_9,2022-02-15T14:13:51.414Z,,,,,,,,,,,,,,,,,54,,,,,,,,,,,,,,331,,response,,,,100,,,,,,,Space,keypress(Space),,,,,,,,-- --- ---- --- ------ ----- ------- ---- -- its ------- --<br>------- ---------- ------ -- ----- -- ----- -- ---- ------<br>--- ----- --- --- ------ -------- ----- --- ------ ----- --<br>----- ----- ---------- --- --- ------ ------ ---- -- ------<br>------- --- ------ ----- --- ---- ------- -- ---- --- --<br>------- ------,437307,437349,437018,437016,437034,437333,,9,its
screen,html.Screen,2_1_1_1_10,2022-02-15T14:13:51.676Z,,,,,,,,,,,,,,,,,54,,,,,,,,,,,,,,293,,response,,,,100,,,,,,,Space,keypress(Space),,,,,,,,-- --- ---- --- ------ ----- ------- ---- -- --- revenue --<br>------- ---------- ------ -- ----- -- ----- -- ---- ------<br>--- ----- --- --- ------ -------- ----- --- ------ ----- --<br>----- ----- ---------- --- --- ------ ------ ---- -- ------<br>------- --- ------ ----- --- ---- ------- -- ---- --- --<br>------- ------,437569,437611,437318,437308,437333,437601,,10,revenue
screen,html.Screen,2_1_1_1_11,2022-02-15T14:13:51.945Z,,,,,,,,,,,,,,,,,54,,,,,,,,,,,,,,296,,response,,,,100,,,,,,,Space,keypress(Space),,,,,,,,-- --- ---- --- ------ ----- ------- ---- -- --- ------- by<br>------- ---------- ------ -- ----- -- ----- -- ---- ------<br>--- ----- --- --- ------ -------- ----- --- ------ ----- --<br>----- ----- ---------- --- --- ------ ------ ---- -- ------<br>------- --- ------ ----- --- ---- ------- -- ---- --- --<br>------- ------,437838,437880,437584,437569,437601,437868,,11,by
screen,html.Screen,2_1_1_1_12,2022-02-15T14:13:52.242Z,,,,,,,,,,,,,,,,,54,,,,,,,,,,,,,,326,,response,,,,100,,,,,,,Space,keypress(Space),,,,,,,,-- --- ---- --- ------ ----- ------- ---- -- --- ------- --<br>issuing ---------- ------ -- ----- -- ----- -- ---- ------<br>--- ----- --- --- ------ -------- ----- --- ------ ----- --<br>----- ----- ---------- --- --- ------ ------ ---- -- ------<br>------- --- ------ ----- --- ---- ------- -- ---- --- --<br>------- ------,438135,438177,437851,437839,437868,438167,,12,issuing
screen,html.Screen,2_1_1_1_13,2022-02-15T14:13:52.541Z,,,,,,,,,,,,,,,,,54,,,,,,,,,,,,,,325,,response,,,,100,,,,,,,Space,keypress(Space),,,,,,,,-- --- ---- --- ------ ----- ------- ---- -- --- ------- --<br>------- government ------ -- ----- -- ----- -- ---- ------<br>--- ----- --- --- ------ -------- ----- --- ------ ----- --<br>----- ----- ---------- --- --- ------ ------ ---- -- ------<br>------- --- ------ ----- --- ---- ------- -- ---- --- --<br>------- ------,438434,438476,438151,438136,438167,438468,,13,government
screen,html.Screen,2_1_1_1_14,2022-02-15T14:13:52.814Z,,,,,,,,,,,,,,,,,54,,,,,,,,,,,,,,299,,response,,,,100,,,,,,,Space,keypress(Space),,,,,,,,-- --- ---- --- ------ ----- ------- ---- -- --- ------- --<br>------- ---------- bonds. -- ----- -- ----- -- ---- ------<br>--- ----- --- --- ------ -------- ----- --- ------ ----- --<br>----- ----- ---------- --- --- ------ ------ ---- -- ------<br>------- --- ------ ----- --- ---- ------- -- ---- --- --<br>------- ------,438708,438750,438451,438435,438468,438734,,14,bonds.
screen,html.Screen,2_1_1_1_15,2022-02-15T14:13:53.097Z,,,,,,,,,,,,,,,,,54,,,,,,,,,,,,,,314,,response,,,,100,,,,,,,Space,keypress(Space),,,,,,,,-- --- ---- --- ------ ----- ------- ---- -- --- ------- --<br>------- ---------- ------ In ----- -- ----- -- ---- ------<br>--- ----- --- --- ------ -------- ----- --- ------ ----- --<br>----- ----- ---------- --- --- ------ ------ ---- -- ------<br>------- --- ------ ----- --- ---- ------- -- ---- --- --<br>------- ------,438990,439032,438718,438708,438734,439018,,15,In
screen,html.Screen,2_1_1_1_16,2022-02-15T14:13:53.382Z,,,,,,,,,,,,,,,,,54,,,,,,,,,,,,,,317,,response,,,,100,,,,,,,Space,keypress(Space),,,,,,,,"-- --- ---- --- ------ ----- ------- ---- -- --- ------- --<br>------- ---------- ------ -- 1727, -- ----- -- ---- ------<br>--- ----- --- --- ------ -------- ----- --- ------ ----- --<br>----- ----- ---------- --- --- ------ ------ ---- -- ------<br>------- --- ------ ----- --- ---- ------- -- ---- --- --<br>------- ------",439276,439318,439001,438991,439018,439301,,16,"1727,"
screen,html.Screen,2_1_1_1_17,2022-02-15T14:13:53.699Z,,,,,,,,,,,,,,,,,54,,,,,,,,,,,,,,350,,response,,,,100,,,,,,,Space,keypress(Space),,,,,,,,-- --- ---- --- ------ ----- ------- ---- -- --- ------- --<br>------- ---------- ------ -- ----- in ----- -- ---- ------<br>--- ----- --- --- ------ -------- ----- --- ------ ----- --<br>----- ----- ---------- --- --- ------ ------ ---- -- ------<br>------- --- ------ ----- --- ---- ------- -- ---- --- --<br>------- ------,439592,439634,439284,439276,439301,439617,,17,in
screen,html.Screen,2_1_1_1_18,2022-02-15T14:13:53.998Z,,,,,,,,,,,,,,,,,54,,,,,,,,,,,,,,332,,response,,,,100,,,,,,,Space,keypress(Space),,,,,,,,-- --- ---- --- ------ ----- ------- ---- -- --- ------- --<br>------- ---------- ------ -- ----- -- order -- ---- ------<br>--- ----- --- --- ------ -------- ----- --- ------ ----- --<br>----- ----- ---------- --- --- ------ ------ ---- -- ------<br>------- --- ------ ----- --- ---- ------- -- ---- --- --<br>------- ------,439891,439933,439601,439592,439617,439917,,18,order
screen,html.Screen,2_1_1_1_19,2022-02-15T14:13:54.313Z,,,,,,,,,,,,,,,,,54,,,,,,,,,,,,,,348,,response,,,,100,,,,,,,Space,keypress(Space),,,,,,,,-- --- ---- --- ------ ----- ------- ---- -- --- ------- --<br>------- ---------- ------ -- ----- -- ----- to ---- ------<br>--- ----- --- --- ------ -------- ----- --- ------ ----- --<br>----- ----- ---------- --- --- ------ ------ ---- -- ------<br>------- --- ------ ----- --- ---- ------- -- ---- --- --<br>------- ------,440206,440248,439900,439892,439917,440234,,19,to
screen,html.Screen,2_1_1_1_20,2022-02-15T14:13:54.596Z,,,,,,,,,,,,,,,,,54,,,,,,,,,,,,,,314,,response,,,,100,,,,,,,Space,keypress(Space),,,,,,,,-- --- ---- --- ------ ----- ------- ---- -- --- ------- --<br>------- ---------- ------ -- ----- -- ----- -- save ------<br>--- ----- --- --- ------ -------- ----- --- ------ ----- --<br>----- ----- ---------- --- --- ------ ------ ---- -- ------<br>------- --- ------ ----- --- ---- ------- -- ---- --- --<br>------- ------,440489.00000000006,440531,440217,440207,440234,440518,,20,save
screen,html.Screen,2_1_1_1_21,2022-02-15T14:13:54.900Z,,,,,,,,,,,,,,,,,54,,,,,,,,,,,,,,335,,response,,,,100,,,,,,,Space,keypress(Space),,,,,,,,"-- --- ---- --- ------ ----- ------- ---- -- --- ------- --<br>------- ---------- ------ -- ----- -- ----- -- ---- money,<br>--- ----- --- --- ------ -------- ----- --- ------ ----- --<br>----- ----- ---------- --- --- ------ ------ ---- -- ------<br>------- --- ------ ----- --- ---- ------- -- ---- --- --<br>------- ------",440794,440836,440501,440489.00000000006,440518,440817,,21,"money,"
screen,html.Screen,2_1_1_1_22,2022-02-15T14:13:55.170Z,,,,,,,,,,,,,,,,,54,,,,,,,,,,,,,,306,,response,,,,100,,,,,,,Space,keypress(Space),,,,,,,,-- --- ---- --- ------ ----- ------- ---- -- --- ------- --<br>------- ---------- ------ -- ----- -- ----- -- ---- ------<br>the ----- --- --- ------ -------- ----- --- ------ ----- --<br>----- ----- ---------- --- --- ------ ------ ---- -- ------<br>------- --- ------ ----- --- ---- ------- -- ---- --- --<br>------- ------,441064,441106,440800,440794,440817,441084,,22,the
screen,html.Screen,2_1_1_1_23,2022-02-15T14:13:55.461Z,,,,,,,,,,,,,,,,,54,,,,,,,,,,,,,,330,,response,,,,100,,,,,,,Space,keypress(Space),,,,,,,,-- --- ---- --- ------ ----- ------- ---- -- --- ------- --<br>------- ---------- ------ -- ----- -- ----- -- ---- ------<br>--- state --- --- ------ -------- ----- --- ------ ----- --<br>----- ----- ---------- --- --- ------ ------ ---- -- ------<br>------- --- ------ ----- --- ---- ------- -- ---- --- --<br>------- ------,441355,441397,441067,441064,441084,441383,,23,state
screen,html.Screen,2_1_1_1_24,2022-02-15T14:13:55.749Z,,,,,,,,,,,,,,,,,54,,,,,,,,,,,,,,317,,response,,,,100,,,,,,,Space,keypress(Space),,,,,,,,-- --- ---- --- ------ ----- ------- ---- -- --- ------- --<br>------- ---------- ------ -- ----- -- ----- -- ---- ------<br>--- ----- cut --- ------ -------- ----- --- ------ ----- --<br>----- ----- ---------- --- --- ------ ------ ---- -- ------<br>------- --- ------ ----- --- ---- ------- -- ---- --- --<br>------- ------,441643,441685,441368,441355,441383,441667,,24,cut
screen,html.Screen,2_1_1_1_25,2022-02-15T14:13:56.044Z,,,,,,,,,,,,,,,,,54,,,,,,,,,,,,,,329,,response,,,,100,,,,,,,Space,keypress(Space),,,,,,,,-- --- ---- --- ------ ----- ------- ---- -- --- ------- --<br>------- ---------- ------ -- ----- -- ----- -- ---- ------<br>--- ----- --- the ------ -------- ----- --- ------ ----- --<br>----- ----- ---------- --- --- ------ ------ ---- -- ------<br>------- --- ------ ----- --- ---- ------- -- ---- --- --<br>------- ------,441937,441980,441651,441643,441667,441967,,25,the
screen,html.Screen,2_1_1_1_26,2022-02-15T14:13:56.345Z,,,,,,,,,,,,,,,,,54,,,,,,,,,,,,,,330,,response,,,,100,,,,,,,Space,keypress(Space),,,,,,,,-- --- ---- --- ------ ----- ------- ---- -- --- ------- --<br>------- ---------- ------ -- ----- -- ----- -- ---- ------<br>--- ----- --- --- bonds' -------- ----- --- ------ ----- --<br>----- ----- ---------- --- --- ------ ------ ---- -- ------<br>------- --- ------ ----- --- ---- ------- -- ---- --- --<br>------- ------,442239.00000000006,442281,441951,441938,441967,442267,,26,bonds'
screen,html.Screen,2_1_1_1_27,2022-02-15T14:13:56.596Z,,,,,,,,,,,,,,,,,54,,,,,,,,,,,,,,280,,response,,,,100,,,,,,,Space,keypress(Space),,,,,,,,-- --- ---- --- ------ ----- ------- ---- -- --- ------- --<br>------- ---------- ------ -- ----- -- ----- -- ---- ------<br>--- ----- --- --- ------ interest ----- --- ------ ----- --<br>----- ----- ---------- --- --- ------ ------ ---- -- ------<br>------- --- ------ ----- --- ---- ------- -- ---- --- --<br>------- ------,442489.00000000006,442531,442251,442239.00000000006,442267,442518,,27,interest
screen,html.Screen,2_1_1_1_28,2022-02-15T14:13:56.899Z,,,,,,,,,,,,,,,,,54,,,,,,,,,,,,,,334.0000000000582,,response,,,,100,,,,,,,Space,keypress(Space),,,,,,,,-- --- ---- --- ------ ----- ------- ---- -- --- ------- --<br>------- ---------- ------ -- ----- -- ----- -- ---- ------<br>--- ----- --- --- ------ -------- rate. --- ------ ----- --<br>----- ----- ---------- --- --- ------ ------ ---- -- ------<br>------- --- ------ ----- --- ---- ------- -- ---- --- --<br>------- ------,442793,442835.00000000006,442501,442490,442518,442818,,28,rate.
screen,html.Screen,2_1_1_1_29,2022-02-15T14:13:57.189Z,,,,,,,,,,,,,,,,,54,,,,,,,,,,,,,,323,,response,,,,100,,,,,,,Space,keypress(Space),,,,,,,,-- --- ---- --- ------ ----- ------- ---- -- --- ------- --<br>------- ---------- ------ -- ----- -- ----- -- ---- ------<br>--- ----- --- --- ------ -------- ----- The ------ ----- --<br>----- ----- ---------- --- --- ------ ------ ---- -- ------<br>------- --- ------ ----- --- ---- ------- -- ---- --- --<br>------- ------,443082,443124,442801,442793,442818,443101,,29,The
screen,html.Screen,2_1_1_1_30,2022-02-15T14:13:57.493Z,,,,,,,,,,,,,,,,,54,,,,,,,,,,,,,,345.0000000000582,,response,,,,100,,,,,,,Space,keypress(Space),,,,,,,,-- --- ---- --- ------ ----- ------- ---- -- --- ------- --<br>------- ---------- ------ -- ----- -- ----- -- ---- ------<br>--- ----- --- --- ------ -------- ----- --- market ----- --<br>----- ----- ---------- --- --- ------ ------ ---- -- ------<br>------- --- ------ ----- --- ---- ------- -- ---- --- --<br>------- ------,443387,443429.00000000006,443084,443083,443101,443418,,30,market
screen,html.Screen,2_1_1_1_31,2022-02-15T14:13:57.773Z,,,,,,,,,,,,,,,,,54,,,,,,,,,,,,,,308,,response,,,,100,,,,,,,Space,keypress(Space),,,,,,,,-- --- ---- --- ------ ----- ------- ---- -- --- ------- --<br>------- ---------- ------ -- ----- -- ----- -- ---- ------<br>--- ----- --- --- ------ -------- ----- --- ------ value --<br>----- ----- ---------- --- --- ------ ------ ---- -- ------<br>------- --- ------ ----- --- ---- ------- -- ---- --- --<br>------- ------,443667.00000000006,443709,443401,443387,443418,443701,,31,value
screen,html.Screen,2_1_1_1_32,2022-02-15T14:13:58.059Z,,,,,,,,,,,,,,,,,54,,,,,,,,,,,,,,311,,response,,,,100,,,,,,,Space,keypress(Space),,,,,,,,-- --- ---- --- ------ ----- ------- ---- -- --- ------- --<br>------- ---------- ------ -- ----- -- ----- -- ---- ------<br>--- ----- --- --- ------ -------- ----- --- ------ ----- of<br>----- ----- ---------- --- --- ------ ------ ---- -- ------<br>------- --- ------ ----- --- ---- ------- -- ---- --- --<br>------- ------,443953.00000000006,443995,443684,443667.00000000006,443701,443984,,32,of
screen,html.Screen,2_1_1_1_33,2022-02-15T14:13:58.321Z,,,,,,,,,,,,,,,,,54,,,,,,,,,,,,,,289,,response,,,,100,,,,,,,Space,keypress(Space),,,,,,,,-- --- ---- --- ------ ----- ------- ---- -- --- ------- --<br>------- ---------- ------ -- ----- -- ----- -- ---- ------<br>--- ----- --- --- ------ -------- ----- --- ------ ----- --<br>these ----- ---------- --- --- ------ ------ ---- -- ------<br>------- --- ------ ----- --- ---- ------- -- ---- --- --<br>------- ------,444215.00000000006,444257,443968,443953.00000000006,443984,444234,,33,these
screen,html.Screen,2_1_1_1_34,2022-02-15T14:13:58.616Z,,,,,,,,,,,,,,,,,54,,,,,,,,,,,,,,334,,response,,,,100,,,,,,,Space,keypress(Space),,,,,,,,-- --- ---- --- ------ ----- ------- ---- -- --- ------- --<br>------- ---------- ------ -- ----- -- ----- -- ---- ------<br>--- ----- --- --- ------ -------- ----- --- ------ ----- --<br>----- bonds ---------- --- --- ------ ------ ---- -- ------<br>------- --- ------ ----- --- ---- ------- -- ---- --- --<br>------- ------,444510,444552,444218,444215.00000000006,444234,444534,,34,bonds
screen,html.Screen,2_1_1_1_35,2022-02-15T14:13:58.873Z,,,,,,,,,,,,,,,,,54,,,,,,,,,,,,,,290,,response,,,,100,,,,,,,Space,keypress(Space),,,,,,,,"-- --- ---- --- ------ ----- ------- ---- -- --- ------- --<br>------- ---------- ------ -- ----- -- ----- -- ---- ------<br>--- ----- --- --- ------ -------- ----- --- ------ ----- --<br>----- ----- plummeted, --- --- ------ ------ ---- -- ------<br>------- --- ------ ----- --- ---- ------- -- ---- --- --<br>------- ------",444766,444808,444518,444510,444534,444801,,35,"plummeted,"
screen,html.Screen,2_1_1_1_36,2022-02-15T14:13:59.189Z,,,,,,,,,,,,,,,,,54,,,,,,,,,,,,,,341,,response,,,,100,,,,,,,Space,keypress(Space),,,,,,,,-- --- ---- --- ------ ----- ------- ---- -- --- ------- --<br>------- ---------- ------ -- ----- -- ----- -- ---- ------<br>--- ----- --- --- ------ -------- ----- --- ------ ----- --<br>----- ----- ---------- and --- ------ ------ ---- -- ------<br>------- --- ------ ----- --- ---- ------- -- ---- --- --<br>------- ------,445083,445125,444784,444767,444801,445101,,36,and
screen,html.Screen,2_1_1_1_37,2022-02-15T14:13:59.489Z,,,,,,,,,,,,,,,,,54,,,,,,,,,,,,,,340,,response,,,,100,,,,,,,Space,keypress(Space),,,,,,,,-- --- ---- --- ------ ----- ------- ---- -- --- ------- --<br>------- ---------- ------ -- ----- -- ----- -- ---- ------<br>--- ----- --- --- ------ -------- ----- --- ------ ----- --<br>----- ----- ---------- --- the ------ ------ ---- -- ------<br>------- --- ------ ----- --- ---- ------- -- ---- --- --<br>------- ------,445383,445425,445085,445083,445101,445401,,37,the
screen,html.Screen,2_1_1_1_38,2022-02-15T14:13:59.775Z,,,,,,,,,,,,,,,,,54,,,,,,,,,,,,,,326,,response,,,,100,,,,,,,Space,keypress(Space),,,,,,,,-- --- ---- --- ------ ----- ------- ---- -- --- ------- --<br>------- ---------- ------ -- ----- -- ----- -- ---- ------<br>--- ----- --- --- ------ -------- ----- --- ------ ----- --<br>----- ----- ---------- --- --- market ------ ---- -- ------<br>------- --- ------ ----- --- ---- ------- -- ---- --- --<br>------- ------,445669,445711,445385,445383,445401,445701,,38,market
screen,html.Screen,2_1_1_1_39,2022-02-15T14:14:00.059Z,,,,,,,,,,,,,,,,,54,,,,,,,,,,,,,,310,,response,,,,100,,,,,,,Space,keypress(Space),,,,,,,,-- --- ---- --- ------ ----- ------- ---- -- --- ------- --<br>------- ---------- ------ -- ----- -- ----- -- ---- ------<br>--- ----- --- --- ------ -------- ----- --- ------ ----- --<br>----- ----- ---------- --- --- ------ became ---- -- ------<br>------- --- ------ ----- --- ---- ------- -- ---- --- --<br>------- ------,445952,445994,445684,445669,445701,445984,,39,became
screen,html.Screen,2_1_1_1_40,2022-02-15T14:14:00.348Z,,,,,,,,,,,,,,,,,54,,,,,,,,,,,,,,316,,response,,,,100,,,,,,,Space,keypress(Space),,,,,,,,-- --- ---- --- ------ ----- ------- ---- -- --- ------- --<br>------- ---------- ------ -- ----- -- ----- -- ---- ------<br>--- ----- --- --- ------ -------- ----- --- ------ ----- --<br>----- ----- ---------- --- --- ------ ------ wary -- ------<br>------- --- ------ ----- --- ---- ------- -- ---- --- --<br>------- ------,446241,446283,445967,445953.00000000006,445984,446268,,40,wary
screen,html.Screen,2_1_1_1_41,2022-02-15T14:14:00.649Z,,,,,,,,,,,,,,,,,54,,,,,,,,,,,,,,335,,response,,,,100,,,,,,,Space,keypress(Space),,,,,,,,-- --- ---- --- ------ ----- ------- ---- -- --- ------- --<br>------- ---------- ------ -- ----- -- ----- -- ---- ------<br>--- ----- --- --- ------ -------- ----- --- ------ ----- --<br>----- ----- ---------- --- --- ------ ------ ---- of ------<br>------- --- ------ ----- --- ---- ------- -- ---- --- --<br>------- ------,446543,446586,446251,446242,446268,446567,,41,of
screen,html.Screen,2_1_1_1_42,2022-02-15T14:14:00.947Z,,,,,,,,,,,,,,,,,54,,,,,,,,,,,,,,332,,response,,,,100,,,,,,,Space,keypress(Space),,,,,,,,-- --- ---- --- ------ ----- ------- ---- -- --- ------- --<br>------- ---------- ------ -- ----- -- ----- -- ---- ------<br>--- ----- --- --- ------ -------- ----- --- ------ ----- --<br>----- ----- ---------- --- --- ------ ------ ---- -- French<br>------- --- ------ ----- --- ---- ------- -- ---- --- --<br>------- ------,446841,446883,446551,446543,446567,446868,,42,French
screen,html.Screen,2_1_1_1_43,2022-02-15T14:14:01.232Z,,,,,,,,,,,,,,,,,54,,,,,,,,,,,,,,316.0000000000582,,response,,,,100,,,,,,,Space,keypress(Space),,,,,,,,-- --- ---- --- ------ ----- ------- ---- -- --- ------- --<br>------- ---------- ------ -- ----- -- ----- -- ---- ------<br>--- ----- --- --- ------ -------- ----- --- ------ ----- --<br>----- ----- ---------- --- --- ------ ------ ---- -- ------<br>credit. --- ------ ----- --- ---- ------- -- ---- --- --<br>------- ------,447125,447167.00000000006,446851,446841,446868,447151,,43,credit.
screen,html.Screen,2_1_1_1_44,2022-02-15T14:14:01.544Z,,,,,,,,,,,,,,,,,54,,,,,,,,,,,,,,346,,response,,,,100,,,,,,,Space,keypress(Space),,,,,,,,-- --- ---- --- ------ ----- ------- ---- -- --- ------- --<br>------- ---------- ------ -- ----- -- ----- -- ---- ------<br>--- ----- --- --- ------ -------- ----- --- ------ ----- --<br>----- ----- ---------- --- --- ------ ------ ---- -- ------<br>------- The ------ ----- --- ---- ------- -- ---- --- --<br>------- ------,447438,447480,447134,447126.00000000006,447151,447467,,44,The
screen,html.Screen,2_1_1_1_45,2022-02-15T14:14:01.848Z,,,,,,,,,,,,,,,,,54,,,,,,,,,,,,,,333,,response,,,,100,,,,,,,Space,keypress(Space),,,,,,,,-- --- ---- --- ------ ----- ------- ---- -- --- ------- --<br>------- ---------- ------ -- ----- -- ----- -- ---- ------<br>--- ----- --- --- ------ -------- ----- --- ------ ----- --<br>----- ----- ---------- --- --- ------ ------ ---- -- ------<br>------- --- French ----- --- ---- ------- -- ---- --- --<br>------- ------,447742,447784,447451,447438,447467,447768,,45,French
screen,html.Screen,2_1_1_1_46,2022-02-15T14:14:02.138Z,,,,,,,,,,,,,,,,,54,,,,,,,,,,,,,,324,,response,,,,100,,,,,,,Space,keypress(Space),,,,,,,,-- --- ---- --- ------ ----- ------- ---- -- --- ------- --<br>------- ---------- ------ -- ----- -- ----- -- ---- ------<br>--- ----- --- --- ------ -------- ----- --- ------ ----- --<br>----- ----- ---------- --- --- ------ ------ ---- -- ------<br>------- --- ------ state --- ---- ------- -- ---- --- --<br>------- ------,448032,448075,447751,447742,447768,448051,,46,state
screen,html.Screen,2_1_1_1_47,2022-02-15T14:14:02.427Z,,,,,,,,,,,,,,,,,54,,,,,,,,,,,,,,330.0000000000582,,response,,,,100,,,,,,,Space,keypress(Space),,,,,,,,-- --- ---- --- ------ ----- ------- ---- -- --- ------- --<br>------- ---------- ------ -- ----- -- ----- -- ---- ------<br>--- ----- --- --- ------ -------- ----- --- ------ ----- --<br>----- ----- ---------- --- --- ------ ------ ---- -- ------<br>------- --- ------ ----- was ---- ------- -- ---- --- --<br>------- ------,448321,448364.00000000006,448034,448032,448051,448351,,47,was
screen,html.Screen,2_1_1_1_48,2022-02-15T14:14:02.722Z,,,,,,,,,,,,,,,,,54,,,,,,,,,,,,,,324,,response,,,,100,,,,,,,Space,keypress(Space),,,,,,,,-- --- ---- --- ------ ----- ------- ---- -- --- ------- --<br>------- ---------- ------ -- ----- -- ----- -- ---- ------<br>--- ----- --- --- ------ -------- ----- --- ------ ----- --<br>----- ----- ---------- --- --- ------ ------ ---- -- ------<br>------- --- ------ ----- --- left ------- -- ---- --- --<br>------- ------,448616,448658,448334,448321,448351,448635,,48,left
screen,html.Screen,2_1_1_1_49,2022-02-15T14:14:03.006Z,,,,,,,,,,,,,,,,,54,,,,,,,,,,,,,,324,,response,,,,100,,,,,,,Space,keypress(Space),,,,,,,,-- --- ---- --- ------ ----- ------- ---- -- --- ------- --<br>------- ---------- ------ -- ----- -- ----- -- ---- ------<br>--- ----- --- --- ------ -------- ----- --- ------ ----- --<br>----- ----- ---------- --- --- ------ ------ ---- -- ------<br>------- --- ------ ----- --- ---- without -- ---- --- --<br>------- ------,448900.00000000006,448942,448618,448616,448635,448934,,49,without
screen,html.Screen,2_1_1_1_50,2022-02-15T14:14:03.301Z,,,,,,,,,,,,,,,,,54,,,,,,,,,,,,,,320,,response,,,,100,,,,,,,Space,keypress(Space),,,,,,,,-- --- ---- --- ------ ----- ------- ---- -- --- ------- --<br>------- ---------- ------ -- ----- -- ----- -- ---- ------<br>--- ----- --- --- ------ -------- ----- --- ------ ----- --<br>----- ----- ---------- --- --- ------ ------ ---- -- ------<br>------- --- ------ ----- --- ---- ------- an ---- --- --<br>------- ------,449195,449238,448918,448901,448934,449218,,50,an
screen,html.Screen,2_1_1_1_51,2022-02-15T14:14:03.611Z,,,,,,,,,,,,,,,,,54,,,,,,,,,,,,,,347,,response,,,,100,,,,,,,Space,keypress(Space),,,,,,,,-- --- ---- --- ------ ----- ------- ---- -- --- ------- --<br>------- ---------- ------ -- ----- -- ----- -- ---- ------<br>--- ----- --- --- ------ -------- ----- --- ------ ----- --<br>----- ----- ---------- --- --- ------ ------ ---- -- ------<br>------- --- ------ ----- --- ---- ------- -- easy --- --<br>------- ------,449505,449547,449200,449196,449218,449535,,51,easy
screen,html.Screen,2_1_1_1_52,2022-02-15T14:14:03.878Z,,,,,,,,,,,,,,,,,54,,,,,,,,,,,,,,299.0000000000582,,response,,,,100,,,,,,,Space,keypress(Space),,,,,,,,-- --- ---- --- ------ ----- ------- ---- -- --- ------- --<br>------- ---------- ------ -- ----- -- ----- -- ---- ------<br>--- ----- --- --- ------ -------- ----- --- ------ ----- --<br>----- ----- ---------- --- --- ------ ------ ---- -- ------<br>------- --- ------ ----- --- ---- ------- -- ---- way --<br>------- ------,449772,449816.00000000006,449517,449505,449535,449801,,52,way
screen,html.Screen,2_1_1_1_53,2022-02-15T14:14:04.178Z,,,,,,,,,,,,,,,,,54,,,,,,,,,,,,,,331,,response,,,,100,,,,,,,Space,keypress(Space),,,,,,,,-- --- ---- --- ------ ----- ------- ---- -- --- ------- --<br>------- ---------- ------ -- ----- -- ----- -- ---- ------<br>--- ----- --- --- ------ -------- ----- --- ------ ----- --<br>----- ----- ---------- --- --- ------ ------ ---- -- ------<br>------- --- ------ ----- --- ---- ------- -- ---- --- of<br>------- ------,450072,450115,449784,449772,449801,450101,,53,of
screen,html.Screen,2_1_1_1_54,2022-02-15T14:14:04.469Z,,,,,,,,,,,,,,,,,54,,,,,,,,,,,,,,321.0000000000582,,response,,,,100,,,,,,,Space,keypress(Space),,,,,,,,-- --- ---- --- ------ ----- ------- ---- -- --- ------- --<br>------- ---------- ------ -- ----- -- ----- -- ---- ------<br>--- ----- --- --- ------ -------- ----- --- ------ ----- --<br>----- ----- ---------- --- --- ------ ------ ---- -- ------<br>------- --- ------ ----- --- ---- ------- -- ---- --- --<br>raising ------,450362,450405.00000000006,450084,450072,450101,450385,,54,raising
screen,html.Screen,2_1_1_1_55,2022-02-15T14:14:04.876Z,,,,,,,,,,,,,,,,,54,,,,,,,,,,,,,,445,,response,,,,100,,,,,,,Space,keypress(Space),,,,,,,,-- --- ---- --- ------ ----- ------- ---- -- --- ------- --<br>------- ---------- ------ -- ----- -- ----- -- ---- ------<br>--- ----- --- --- ------ -------- ----- --- ------ ----- --<br>----- ----- ---------- --- --- ------ ------ ---- -- ------<br>------- --- ------ ----- --- ---- ------- -- ---- --- --<br>------- money.,450770,450813,450368,450363,450385,450801,,55,money.
Item 100,flow.Loop,2_1_1_1,2022-02-15T14:14:04.877Z,,,,,,,,,,,,,,,,,,,,,,,,,,,,,,,17129,,completion,,,,,F,,,,,,,,,,,silence,,,,,450771,450813,433667,433669,433684,450801,,,
Question 1,html.Screen,2_1_1_2,2022-02-15T14:14:07.714Z,,,,,,,,,,,,,,,,,,,,,,,,,,,,true,TRUE,,2863,,response,,,,100,F,,,,,,TRUE,click #choice-1,,,,silence,,,,,453608,453647,450784,450771,450801,453634,,,
Question 2,html.Screen,2_1_1_3,2022-02-15T14:14:09.980Z,,,,,,,,,,,,,,,,,,,,,,,,,,,,false,FALSE,,2295,,response,,,,100,F,,,,,,TRUE,click #choice-1,,,,silence,,,,,455874,455913,453618,453608,453634,455901,,,
Item 100,flow.Sequence,2_1_1,2022-02-15T14:14:09.981Z,,,,,,,,,,,,,,,,,,,,,,,,,,,,,,,32229,,completion,,,,,,,,,,,,,,,,,,,,,455875,455913,423654,423651,423684,455901,,,
End of Practice,html.Page,2_1_2,2022-02-15T14:14:14.373Z,,,,,,,,,,,,,,,,,,,,,,,,,,,,,,,4365,,form submission,,,,,,,,,,,,,,,,,,,,,460267,460266,455885,455875,455901,460285,,,
Practice,flow.Sequence,2_1,2022-02-15T14:14:14.373Z,,,,,,,,,,,,,,,,,,,,,,,,,,,,,,,71799,,completion,,,,,,,,,,,,,,,,,,,,,460267,460266,388450,388441.00000000006,388467,460285,,,
Trap_instruction,html.Page,2_2_0,2022-02-15T14:14:18.184Z,,,,,,,,,,,,,,,,,,,,,,,,,,,,,,,3793.000000000058,,form submission,,,,,,,,,,,,,,,,,,,,,464078.00000000006,464078.00000000006,460271,460268,460285,464101,,,
trap_trial,html.Screen,2_2_1,2022-02-15T14:14:21.548Z,,,,,,,,,,,,,,,,,,,,,,,,,,,,true,1,,3402.000000000058,,response,,,,,,,,,,,1,click #choice-1,,,,,,,,,467443,467489.00000000006,464087,464078.00000000006,464101,467511,,,
end of trap trial,html.Page,2_2_2,2022-02-15T14:14:23.398Z,,,,,,,,,,,,,,,,,,,,,,,,,,,,,,,1781.0000000000582,,form submission,,,,,,,,,,,,,,,,,,,,,469292.00000000006,469292.00000000006,467483,467443,467511,469318,,,
Trap 1,flow.Sequence,2_2,2022-02-15T14:14:23.398Z,,,,,,,,,,,,,,,,,,,,,,,,,,,,,,,9007.000000000058,,completion,,,,,,,,,,,,,,,,,,,,,469293,469292.00000000006,460271,460267,460285,469318,,,
Standby,html.Page,2_3_0,2022-02-15T14:14:31.408Z,,,,,,,,,,,,,,,,,,,,,,,,,,,,,,,8000,,timeout,,,,,,,,,,,,,,,,,,,,,477303,477302,469301,469293,469318,477318,,,
Holding screen,html.Screen,2_3_1_0_0,2022-02-15T14:14:38.408Z,,,,,,,,,,,,,,,,,,,,,,,,,,,,,,,7000,,timeout,,,,,,,,,,,,,,,,,,,,,484303,484302,477302,477303,477318,484318,,,
screen,html.Screen,2_3_1_0_1_0,2022-02-15T14:14:39.748Z,,,,,,,,,,,,,,,,,48,,,,,,,,,,,,,,1383,,response,,,,10,F,,,,,,Space,keypress(Space),,,,instrumental,,,,As -- --- ------ ------- --------- ----------- --------<br>--------- -------- --- ------- -- ------- ---- -- ------<br>-- --- -------- -------- ---------- ---- ---- ---- ------<br>-- --------- -- ---- -- --- -- --- ------- -- - -----<br>---------- -- -- -- ---- ----- -- ------ -- --- ------<br>-------,485643,485685,484302,484304.00000000006,484318,485685,,0,As
screen,html.Screen,2_3_1_0_1_1,2022-02-15T14:14:40.066Z,,,,,,,,,,,,,,,,,48,,,,,,,,,,,,,,337,,response,,,,10,F,,,,,,Space,keypress(Space),,,,instrumental,,,,-- in --- ------ ------- --------- ----------- --------<br>--------- -------- --- ------- -- ------- ---- -- ------<br>-- --- -------- -------- ---------- ---- ---- ---- ------<br>-- --------- -- ---- -- --- -- --- ------- -- - -----<br>---------- -- -- -- ---- ----- -- ------ -- --- ------<br>-------,485961,486005,485668,485644,485685,485985,,1,in
screen,html.Screen,2_3_1_0_1_2,2022-02-15T14:14:40.366Z,,,,,,,,,,,,,,,,,48,,,,,,,,,,,,,,337,,response,,,,10,F,,,,,,Space,keypress(Space),,,,instrumental,,,,-- -- the ------ ------- --------- ----------- --------<br>--------- -------- --- ------- -- ------- ---- -- ------<br>-- --- -------- -------- ---------- ---- ---- ---- ------<br>-- --------- -- ---- -- --- -- --- ------- -- - -----<br>---------- -- -- -- ---- ----- -- ------ -- --- ------<br>-------,486262,486305,485968,485962,485985,486285,,2,the
screen,html.Screen,2_3_1_0_1_3,2022-02-15T14:14:40.696Z,,,,,,,,,,,,,,,,,48,,,,,,,,,,,,,,365,,response,,,,10,F,,,,,,Space,keypress(Space),,,,instrumental,,,,-- -- --- United ------- --------- ----------- --------<br>--------- -------- --- ------- -- ------- ---- -- ------<br>-- --- -------- -------- ---------- ---- ---- ---- ------<br>-- --------- -- ---- -- --- -- --- ------- -- - -----<br>---------- -- -- -- ---- ----- -- ------ -- --- ------<br>-------,486591,486634,486269,486262,486285,486619,,3,United
screen,html.Screen,2_3_1_0_1_4,2022-02-15T14:14:41.020Z,,,,,,,,,,,,,,,,,48,,,,,,,,,,,,,,357,,response,,,,10,F,,,,,,Space,keypress(Space),,,,instrumental,,,,"-- -- --- ------ States, --------- ----------- --------<br>--------- -------- --- ------- -- ------- ---- -- ------<br>-- --- -------- -------- ---------- ---- ---- ---- ------<br>-- --------- -- ---- -- --- -- --- ------- -- - -----<br>---------- -- -- -- ---- ----- -- ------ -- --- ------<br>-------",486915,486959,486602,486591,486619,486935,,4,"States,"
screen,html.Screen,2_3_1_0_1_5,2022-02-15T14:14:41.328Z,,,,,,,,,,,,,,,,,48,,,,,,,,,,,,,,348,,response,,,,10,F,,,,,,Space,keypress(Space),,,,instrumental,,,,-- -- --- ------ ------- Colombian ----------- --------<br>--------- -------- --- ------- -- ------- ---- -- ------<br>-- --- -------- -------- ---------- ---- ---- ---- ------<br>-- --------- -- ---- -- --- -- --- ------- -- - -----<br>---------- -- -- -- ---- ----- -- ------ -- --- ------<br>-------,487224,487267,486919,486916,486935,487252,,5,Colombian
screen,html.Screen,2_3_1_0_1_6,2022-02-15T14:14:41.670Z,,,,,,,,,,,,,,,,,48,,,,,,,,,,,,,,374.0000000000582,,response,,,,10,F,,,,,,Space,keypress(Space),,,,instrumental,,,,-- -- --- ------ ------- --------- legislation --------<br>--------- -------- --- ------- -- ------- ---- -- ------<br>-- --- -------- -------- ---------- ---- ---- ---- ------<br>-- --------- -- ---- -- --- -- --- ------- -- - -----<br>---------- -- -- -- ---- ----- -- ------ -- --- ------<br>-------,487565,487609.00000000006,487235,487224,487252,487585,,6,legislation
screen,html.Screen,2_3_1_0_1_7,2022-02-15T14:14:42.028Z,,,,,,,,,,,,,,,,,48,,,,,,,,,,,,,,398,,response,,,,10,F,,,,,,Space,keypress(Space),,,,instrumental,,,,-- -- --- ------ ------- --------- ----------- requires<br>--------- -------- --- ------- -- ------- ---- -- ------<br>-- --- -------- -------- ---------- ---- ---- ---- ------<br>-- --------- -- ---- -- --- -- --- ------- -- - -----<br>---------- -- -- -- ---- ----- -- ------ -- --- ------<br>-------,487924.00000000006,487967,487569,487566.00000000006,487585,487952,,7,requires
screen,html.Screen,2_3_1_0_1_8,2022-02-15T14:14:42.461Z,,,,,,,,,,,,,,,,,48,,,,,,,,,,,,,,465.0000000000582,,response,,,,10,F,,,,,,Space,keypress(Space),,,,instrumental,,,,-- -- --- ------ ------- --------- ----------- --------<br>travelers -------- --- ------- -- ------- ---- -- ------<br>-- --- -------- -------- ---------- ---- ---- ---- ------<br>-- --------- -- ---- -- --- -- --- ------- -- - -----<br>---------- -- -- -- ---- ----- -- ------ -- --- ------<br>-------,488356,488400.00000000006,487935,487924.00000000006,487952,488385,,8,travelers
screen,html.Screen,2_3_1_0_1_9,2022-02-15T14:14:42.781Z,,,,,,,,,,,,,,,,,48,,,,,,,,,,,,,,351,,response,,,,10,F,,,,,,Space,keypress(Space),,,,instrumental,,,,-- -- --- ------ ------- --------- ----------- --------<br>--------- entering --- ------- -- ------- ---- -- ------<br>-- --- -------- -------- ---------- ---- ---- ---- ------<br>-- --------- -- ---- -- --- -- --- ------- -- - -----<br>---------- -- -- -- ---- ----- -- ------ -- --- ------<br>-------,488676,488720,488369,488357,488385,488702,,9,entering
screen,html.Screen,2_3_1_0_1_10,2022-02-15T14:14:43.115Z,,,,,,,,,,,,,,,,,48,,,,,,,,,,,,,,369.0000000000582,,response,,,,10,F,,,,,,Space,keypress(Space),,,,instrumental,,,,-- -- --- ------ ------- --------- ----------- --------<br>--------- -------- the ------- -- ------- ---- -- ------<br>-- --- -------- -------- ---------- ---- ---- ---- ------<br>-- --------- -- ---- -- --- -- --- ------- -- - -----<br>---------- -- -- -- ---- ----- -- ------ -- --- ------<br>-------,489010,489054.00000000006,488685,488676,488702,489035,,10,the
screen,html.Screen,2_3_1_0_1_11,2022-02-15T14:14:43.424Z,,,,,,,,,,,,,,,,,48,,,,,,,,,,,,,,343,,response,,,,10,F,,,,,,Space,keypress(Space),,,,instrumental,,,,-- -- --- ------ ------- --------- ----------- --------<br>--------- -------- --- country -- ------- ---- -- ------<br>-- --- -------- -------- ---------- ---- ---- ---- ------<br>-- --------- -- ---- -- --- -- --- ------- -- - -----<br>---------- -- -- -- ---- ----- -- ------ -- --- ------<br>-------,489319,489362,489019,489011,489035,489352,,11,country
screen,html.Screen,2_3_1_0_1_12,2022-02-15T14:14:43.724Z,,,,,,,,,,,,,,,,,48,,,,,,,,,,,,,,328,,response,,,,10,F,,,,,,Space,keypress(Space),,,,instrumental,,,,-- -- --- ------ ------- --------- ----------- --------<br>--------- -------- --- ------- to ------- ---- -- ------<br>-- --- -------- -------- ---------- ---- ---- ---- ------<br>-- --------- -- ---- -- --- -- --- ------- -- - -----<br>---------- -- -- -- ---- ----- -- ------ -- --- ------<br>-------,489619,489663,489335,489319,489352,489652,,12,to
screen,html.Screen,2_3_1_0_1_13,2022-02-15T14:14:44.036Z,,,,,,,,,,,,,,,,,48,,,,,,,,,,,,,,340,,response,,,,10,F,,,,,,Space,keypress(Space),,,,instrumental,,,,-- -- --- ------ ------- --------- ----------- --------<br>--------- -------- --- ------- -- declare ---- -- ------<br>-- --- -------- -------- ---------- ---- ---- ---- ------<br>-- --------- -- ---- -- --- -- --- ------- -- - -----<br>---------- -- -- -- ---- ----- -- ------ -- --- ------<br>-------,489932,489975,489635,489620,489652,489951,,13,declare
screen,html.Screen,2_3_1_0_1_14,2022-02-15T14:14:44.324Z,,,,,,,,,,,,,,,,,48,,,,,,,,,,,,,,328.0000000000582,,response,,,,10,F,,,,,,Space,keypress(Space),,,,instrumental,,,,-- -- --- ------ ------- --------- ----------- --------<br>--------- -------- --- ------- -- ------- cash -- ------<br>-- --- -------- -------- ---------- ---- ---- ---- ------<br>-- --------- -- ---- -- --- -- --- ------- -- - -----<br>---------- -- -- -- ---- ----- -- ------ -- --- ------<br>-------,490220,490263.00000000006,489935,489932,489951,490252,,14,cash
screen,html.Screen,2_3_1_0_1_15,2022-02-15T14:14:44.651Z,,,,,,,,,,,,,,,,,48,,,,,,,,,,,,,,355.0000000000582,,response,,,,10,F,,,,,,Space,keypress(Space),,,,instrumental,,,,-- -- --- ------ ------- --------- ----------- --------<br>--------- -------- --- ------- -- ------- ---- in ------<br>-- --- -------- -------- ---------- ---- ---- ---- ------<br>-- --------- -- ---- -- --- -- --- ------- -- - -----<br>---------- -- -- -- ---- ----- -- ------ -- --- ------<br>-------,490546,490590.00000000006,490235,490220,490252,490569,,15,in
screen,html.Screen,2_3_1_0_1_16,2022-02-15T14:14:45.088Z,,,,,,,,,,,,,,,,,48,,,,,,,,,,,,,,478,,response,,,,10,F,,,,,,Space,keypress(Space),,,,instrumental,,,,-- -- --- ------ ------- --------- ----------- --------<br>--------- -------- --- ------- -- ------- ---- -- excess<br>-- --- -------- -------- ---------- ---- ---- ---- ------<br>-- --------- -- ---- -- --- -- --- ------- -- - -----<br>---------- -- -- -- ---- ----- -- ------ -- --- ------<br>-------,490984.00000000006,491029,490551,490547,490569,491018,,16,excess
screen,html.Screen,2_3_1_0_1_17,2022-02-15T14:14:45.160Z,,,,,,,,,,,,,,,,,48,,,,,,,,,,,,,,98,,response,,,,10,F,,,,,,Space,keypress(Space),,,,instrumental,,,,-- -- --- ------ ------- --------- ----------- --------<br>--------- -------- --- ------- -- ------- ---- -- ------<br>of --- -------- -------- ---------- ---- ---- ---- ------<br>-- --------- -- ---- -- --- -- --- ------- -- - -----<br>---------- -- -- -- ---- ----- -- ------ -- --- ------<br>-------,491055,491099,491001,490984.00000000006,491018,491085,,17,of
screen,html.Screen,2_3_1_0_1_18,2022-02-15T14:14:45.375Z,,,,,,,,,,,,,,,,,48,,,,,,,,,,,,,,245,,response,,,,10,F,,,,,,Space,keypress(Space),,,,instrumental,,,,-- -- --- ------ ------- --------- ----------- --------<br>--------- -------- --- ------- -- ------- ---- -- ------<br>-- ten -------- -------- ---------- ---- ---- ---- ------<br>-- --------- -- ---- -- --- -- --- ------- -- - -----<br>---------- -- -- -- ---- ----- -- ------ -- --- ------<br>-------,491270,491314,491069,491055,491085,491302,,18,ten
screen,html.Screen,2_3_1_0_1_19,2022-02-15T14:14:45.776Z,,,,,,,,,,,,,,,,,48,,,,,,,,,,,,,,430.0000000000582,,response,,,,10,F,,,,,,Space,keypress(Space),,,,instrumental,,,,-- -- --- ------ ------- --------- ----------- --------<br>--------- -------- --- ------- -- ------- ---- -- ------<br>-- --- thousand -------- ---------- ---- ---- ---- ------<br>-- --------- -- ---- -- --- -- --- ------- -- - -----<br>---------- -- -- -- ---- ----- -- ------ -- --- ------<br>-------,491672,491715.00000000006,491285,491271,491302,491702,,19,thousand
screen,html.Screen,2_3_1_0_1_20,2022-02-15T14:14:46.065Z,,,,,,,,,,,,,,,,,48,,,,,,,,,,,,,,319,,response,,,,10,F,,,,,,Space,keypress(Space),,,,instrumental,,,,-- -- --- ------ ------- --------- ----------- --------<br>--------- -------- --- ------- -- ------- ---- -- ------<br>-- --- -------- dollars. ---------- ---- ---- ---- ------<br>-- --------- -- ---- -- --- -- --- ------- -- - -----<br>---------- -- -- -- ---- ----- -- ------ -- --- ------<br>-------,491960.00000000006,492004,491685,491672,491702,491984,,20,dollars.
screen,html.Screen,2_3_1_0_1_21,2022-02-15T14:14:46.387Z,,,,,,,,,,,,,,,,,48,,,,,,,,,,,,,,357,,response,,,,10,F,,,,,,Space,keypress(Space),,,,instrumental,,,,-- -- --- ------ ------- --------- ----------- --------<br>--------- -------- --- ------- -- ------- ---- -- ------<br>-- --- -------- -------- Concealing ---- ---- ---- ------<br>-- --------- -- ---- -- --- -- --- ------- -- - -----<br>---------- -- -- -- ---- ----- -- ------ -- --- ------<br>-------,492282,492326,491969,491961,491984,492302,,21,Concealing
screen,html.Screen,2_3_1_0_1_22,2022-02-15T14:14:46.897Z,,,,,,,,,,,,,,,,,48,,,,,,,,,,,,,,552,,response,,,,10,F,,,,,,Space,keypress(Space),,,,instrumental,,,,-- -- --- ------ ------- --------- ----------- --------<br>--------- -------- --- ------- -- ------- ---- -- ------<br>-- --- -------- -------- ---------- more ---- ---- ------<br>-- --------- -- ---- -- --- -- --- ------- -- - -----<br>---------- -- -- -- ---- ----- -- ------ -- --- ------<br>-------,492793,492836,492284,492282,492302,492834,,22,more
screen,html.Screen,2_3_1_0_1_23,2022-02-15T14:14:47.236Z,,,,,,,,,,,,,,,,,48,,,,,,,,,,,,,,356,,response,,,,10,F,,,,,,Space,keypress(Space),,,,instrumental,,,,-- -- --- ------ ------- --------- ----------- --------<br>--------- -------- --- ------- -- ------- ---- -- ------<br>-- --- -------- -------- ---------- ---- than ---- ------<br>-- --------- -- ---- -- --- -- --- ------- -- - -----<br>---------- -- -- -- ---- ----- -- ------ -- --- ------<br>-------,493132,493175,492819,492793,492834,493152,,23,than
screen,html.Screen,2_3_1_0_1_24,2022-02-15T14:14:47.530Z,,,,,,,,,,,,,,,,,48,,,,,,,,,,,,,,334,,response,,,,10,F,,,,,,Space,keypress(Space),,,,instrumental,,,,-- -- --- ------ ------- --------- ----------- --------<br>--------- -------- --- ------- -- ------- ---- -- ------<br>-- --- -------- -------- ---------- ---- ---- that ------<br>-- --------- -- ---- -- --- -- --- ------- -- - -----<br>---------- -- -- -- ---- ----- -- ------ -- --- ------<br>-------,493425,493469,493135,493132,493152,493452,,24,that
screen,html.Screen,2_3_1_0_1_25,2022-02-15T14:14:47.789Z,,,,,,,,,,,,,,,,,48,,,,,,,,,,,,,,294,,response,,,,10,F,,,,,,Space,keypress(Space),,,,instrumental,,,,-- -- --- ------ ------- --------- ----------- --------<br>--------- -------- --- ------- -- ------- ---- -- ------<br>-- --- -------- -------- ---------- ---- ---- ---- amount<br>-- --------- -- ---- -- --- -- --- ------- -- - -----<br>---------- -- -- -- ---- ----- -- ------ -- --- ------<br>-------,493684,493728,493434,493426,493452,493702,,25,amount
screen,html.Screen,2_3_1_0_1_26,2022-02-15T14:14:48.085Z,,,,,,,,,,,,,,,,,48,,,,,,,,,,,,,,339.0000000000582,,response,,,,10,F,,,,,,Space,keypress(Space),,,,instrumental,,,,-- -- --- ------ ------- --------- ----------- --------<br>--------- -------- --- ------- -- ------- ---- -- ------<br>-- --- -------- -------- ---------- ---- ---- ---- ------<br>to --------- -- ---- -- --- -- --- ------- -- - -----<br>---------- -- -- -- ---- ----- -- ------ -- --- ------<br>-------,493981,494025.00000000006,493686,493684,493702,494002,,26,to
screen,html.Screen,2_3_1_0_1_27,2022-02-15T14:14:48.388Z,,,,,,,,,,,,,,,,,48,,,,,,,,,,,,,,343.0000000000582,,response,,,,10,F,,,,,,Space,keypress(Space),,,,instrumental,,,,-- -- --- ------ ------- --------- ----------- --------<br>--------- -------- --- ------- -- ------- ---- -- ------<br>-- --- -------- -------- ---------- ---- ---- ---- ------<br>-- transport -- ---- -- --- -- --- ------- -- - -----<br>---------- -- -- -- ---- ----- -- ------ -- --- ------<br>-------,494284,494328.00000000006,493985,493981,494002,494301,,27,transport
screen,html.Screen,2_3_1_0_1_28,2022-02-15T14:14:48.718Z,,,,,,,,,,,,,,,,,48,,,,,,,,,,,,,,371,,response,,,,10,F,,,,,,Space,keypress(Space),,,,instrumental,,,,-- -- --- ------ ------- --------- ----------- --------<br>--------- -------- --- ------- -- ------- ---- -- ------<br>-- --- -------- -------- ---------- ---- ---- ---- ------<br>-- --------- it ---- -- --- -- --- ------- -- - -----<br>---------- -- -- -- ---- ----- -- ------ -- --- ------<br>-------,494613,494657,494286,494284,494301,494634,,28,it
screen,html.Screen,2_3_1_0_1_29,2022-02-15T14:14:49.037Z,,,,,,,,,,,,,,,,,48,,,,,,,,,,,,,,358.0000000000582,,response,,,,10,F,,,,,,Space,keypress(Space),,,,instrumental,,,,-- -- --- ------ ------- --------- ----------- --------<br>--------- -------- --- ------- -- ------- ---- -- ------<br>-- --- -------- -------- ---------- ---- ---- ---- ------<br>-- --------- -- into -- --- -- --- ------- -- - -----<br>---------- -- -- -- ---- ----- -- ------ -- --- ------<br>-------,494932,494977.00000000006,494619,494614.00000000006,494634,494952,,29,into
screen,html.Screen,2_3_1_0_1_30,2022-02-15T14:14:49.345Z,,,,,,,,,,,,,,,,,48,,,,,,,,,,,,,,351,,response,,,,10,F,,,,,,Space,keypress(Space),,,,instrumental,,,,-- -- --- ------ ------- --------- ----------- --------<br>--------- -------- --- ------- -- ------- ---- -- ------<br>-- --- -------- -------- ---------- ---- ---- ---- ------<br>-- --------- -- ---- or --- -- --- ------- -- - -----<br>---------- -- -- -- ---- ----- -- ------ -- --- ------<br>-------,495240,495285,494934,494933,494952,495268,,30,or
screen,html.Screen,2_3_1_0_1_31,2022-02-15T14:14:49.688Z,,,,,,,,,,,,,,,,,48,,,,,,,,,,,,,,375,,response,,,,10,F,,,,,,Space,keypress(Space),,,,instrumental,,,,-- -- --- ------ ------- --------- ----------- --------<br>--------- -------- --- ------- -- ------- ---- -- ------<br>-- --- -------- -------- ---------- ---- ---- ---- ------<br>-- --------- -- ---- -- out -- --- ------- -- - -----<br>---------- -- -- -- ---- ----- -- ------ -- --- ------<br>-------,495583,495627,495252,495241,495268,495602,,31,out
screen,html.Screen,2_3_1_0_1_32,2022-02-15T14:14:50.041Z,,,,,,,,,,,,,,,,,48,,,,,,,,,,,,,,396,,response,,,,10,F,,,,,,Space,keypress(Space),,,,instrumental,,,,-- -- --- ------ ------- --------- ----------- --------<br>--------- -------- --- ------- -- ------- ---- -- ------<br>-- --- -------- -------- ---------- ---- ---- ---- ------<br>-- --------- -- ---- -- --- of --- ------- -- - -----<br>---------- -- -- -- ---- ----- -- ------ -- --- ------<br>-------,495937,495981,495585,495583,495602,495969,,32,of
screen,html.Screen,2_3_1_0_1_33,2022-02-15T14:14:50.290Z,,,,,,,,,,,,,,,,,48,,,,,,,,,,,,,,278,,response,,,,10,F,,,,,,Space,keypress(Space),,,,instrumental,,,,-- -- --- ------ ------- --------- ----------- --------<br>--------- -------- --- ------- -- ------- ---- -- ------<br>-- --- -------- -------- ---------- ---- ---- ---- ------<br>-- --------- -- ---- -- --- -- the ------- -- - -----<br>---------- -- -- -- ---- ----- -- ------ -- --- ------<br>-------,496185,496230,495952,495937,495969,496219,,33,the
screen,html.Screen,2_3_1_0_1_34,2022-02-15T14:14:50.491Z,,,,,,,,,,,,,,,,,48,,,,,,,,,,,,,,229,,response,,,,10,F,,,,,,Space,keypress(Space),,,,instrumental,,,,-- -- --- ------ ------- --------- ----------- --------<br>--------- -------- --- ------- -- ------- ---- -- ------<br>-- --- -------- -------- ---------- ---- ---- ---- ------<br>-- --------- -- ---- -- --- -- --- country -- - -----<br>---------- -- -- -- ---- ----- -- ------ -- --- ------<br>-------,496386,496430,496201,496186.00000000006,496219,496418,,34,country
screen,html.Screen,2_3_1_0_1_35,2022-02-15T14:14:50.719Z,,,,,,,,,,,,,,,,,48,,,,,,,,,,,,,,256,,response,,,,10,F,,,,,,Space,keypress(Space),,,,instrumental,,,,-- -- --- ------ ------- --------- ----------- --------<br>--------- -------- --- ------- -- ------- ---- -- ------<br>-- --- -------- -------- ---------- ---- ---- ---- ------<br>-- --------- -- ---- -- --- -- --- ------- is - -----<br>---------- -- -- -- ---- ----- -- ------ -- --- ------<br>-------,496614.00000000006,496658,496402,496387,496418,496636,,35,is
screen,html.Screen,2_3_1_0_1_36,2022-02-15T14:14:50.904Z,,,,,,,,,,,,,,,,,48,,,,,,,,,,,,,,225,,response,,,,10,F,,,,,,Space,keypress(Space),,,,instrumental,,,,-- -- --- ------ ------- --------- ----------- --------<br>--------- -------- --- ------- -- ------- ---- -- ------<br>-- --- -------- -------- ---------- ---- ---- ---- ------<br>-- --------- -- ---- -- --- -- --- ------- -- a -----<br>---------- -- -- -- ---- ----- -- ------ -- --- ------<br>-------,496799.00000000006,496844,496619,496615,496636,496819,,36,a
screen,html.Screen,2_3_1_0_1_37,2022-02-15T14:14:51.320Z,,,,,,,,,,,,,,,,,48,,,,,,,,,,,,,,458,,response,,,,10,F,,,,,,Space,keypress(Space),,,,instrumental,,,,-- -- --- ------ ------- --------- ----------- --------<br>--------- -------- --- ------- -- ------- ---- -- ------<br>-- --- -------- -------- ---------- ---- ---- ---- ------<br>-- --------- -- ---- -- --- -- --- ------- -- - crime<br>---------- -- -- -- ---- ----- -- ------ -- --- ------<br>-------,497216,497260,496802,496800,496819,497252,,37,crime
screen,html.Screen,2_3_1_0_1_38,2022-02-15T14:14:51.663Z,,,,,,,,,,,,,,,,,48,,,,,,,,,,,,,,367,,response,,,,10,F,,,,,,Space,keypress(Space),,,,instrumental,,,,-- -- --- ------ ------- --------- ----------- --------<br>--------- -------- --- ------- -- ------- ---- -- ------<br>-- --- -------- -------- ---------- ---- ---- ---- ------<br>-- --------- -- ---- -- --- -- --- ------- -- - -----<br>punishable -- -- -- ---- ----- -- ------ -- --- ------<br>-------,497559,497603,497236,497216,497252,497585,,38,punishable
screen,html.Screen,2_3_1_0_1_39,2022-02-15T14:14:52.012Z,,,,,,,,,,,,,,,,,48,,,,,,,,,,,,,,382,,response,,,,10,F,,,,,,Space,keypress(Space),,,,instrumental,,,,-- -- --- ------ ------- --------- ----------- --------<br>--------- -------- --- ------- -- ------- ---- -- ------<br>-- --- -------- -------- ---------- ---- ---- ---- ------<br>-- --------- -- ---- -- --- -- --- ------- -- - -----<br>---------- by -- -- ---- ----- -- ------ -- --- ------<br>-------,497907,497951,497569,497559,497585,497935,,39,by
screen,html.Screen,2_3_1_0_1_40,2022-02-15T14:14:52.188Z,,,,,,,,,,,,,,,,,48,,,,,,,,,,,,,,210,,response,,,,10,F,,,,,,Space,keypress(Space),,,,instrumental,,,,-- -- --- ------ ------- --------- ----------- --------<br>--------- -------- --- ------- -- ------- ---- -- ------<br>-- --- -------- -------- ---------- ---- ---- ---- ------<br>-- --------- -- ---- -- --- -- --- ------- -- - -----<br>---------- -- up -- ---- ----- -- ------ -- --- ------<br>-------,498084,498129,497919,497908,497935,498102,,40,up
screen,html.Screen,2_3_1_0_1_41,2022-02-15T14:14:52.387Z,,,,,,,,,,,,,,,,,48,,,,,,,,,,,,,,241,,response,,,,10,F,,,,,,Space,keypress(Space),,,,instrumental,,,,-- -- --- ------ ------- --------- ----------- --------<br>--------- -------- --- ------- -- ------- ---- -- ------<br>-- --- -------- -------- ---------- ---- ---- ---- ------<br>-- --------- -- ---- -- --- -- --- ------- -- - -----<br>---------- -- -- to ---- ----- -- ------ -- --- ------<br>-------,498283,498327,498086,498084,498102,498302,,41,to
screen,html.Screen,2_3_1_0_1_42,2022-02-15T14:14:52.807Z,,,,,,,,,,,,,,,,,48,,,,,,,,,,,,,,462,,response,,,,10,F,,,,,,Space,keypress(Space),,,,instrumental,,,,-- -- --- ------ ------- --------- ----------- --------<br>--------- -------- --- ------- -- ------- ---- -- ------<br>-- --- -------- -------- ---------- ---- ---- ---- ------<br>-- --------- -- ---- -- --- -- --- ------- -- - -----<br>---------- -- -- -- five ----- -- ------ -- --- ------<br>-------,498702,498747,498285,498283,498302,498736,,42,five
screen,html.Screen,2_3_1_0_1_43,2022-02-15T14:14:53.377Z,,,,,,,,,,,,,,,,,48,,,,,,,,,,,,,,598,,response,,,,10,F,,,,,,Space,keypress(Space),,,,instrumental,,,,-- -- --- ------ ------- --------- ----------- --------<br>--------- -------- --- ------- -- ------- ---- -- ------<br>-- --- -------- -------- ---------- ---- ---- ---- ------<br>-- --------- -- ---- -- --- -- --- ------- -- - -----<br>---------- -- -- -- ---- years -- ------ -- --- ------<br>-------,499272,499317,498719,498703.00000000006,498736,499302,,43,years
screen,html.Screen,2_3_1_0_1_44,2022-02-15T14:14:53.556Z,,,,,,,,,,,,,,,,,48,,,,,,,,,,,,,,210.0000000000582,,response,,,,10,F,,,,,,Space,keypress(Space),,,,instrumental,,,,-- -- --- ------ ------- --------- ----------- --------<br>--------- -------- --- ------- -- ------- ---- -- ------<br>-- --- -------- -------- ---------- ---- ---- ---- ------<br>-- --------- -- ---- -- --- -- --- ------- -- - -----<br>---------- -- -- -- ---- ----- in ------ -- --- ------<br>-------,499451,499496.00000000006,499286,499272,499302,499486,,44,in
screen,html.Screen,2_3_1_0_1_45,2022-02-15T14:14:53.762Z,,,,,,,,,,,,,,,,,48,,,,,,,,,,,,,,233,,response,,,,10,F,,,,,,Space,keypress(Space),,,,instrumental,,,,-- -- --- ------ ------- --------- ----------- --------<br>--------- -------- --- ------- -- ------- ---- -- ------<br>-- --- -------- -------- ---------- ---- ---- ---- ------<br>-- --------- -- ---- -- --- -- --- ------- -- - -----<br>---------- -- -- -- ---- ----- -- prison -- --- ------<br>-------,499657,499702,499469,499452,499486,499686,,45,prison
screen,html.Screen,2_3_1_0_1_46,2022-02-15T14:14:53.951Z,,,,,,,,,,,,,,,,,48,,,,,,,,,,,,,,222,,response,,,,10,F,,,,,,Space,keypress(Space),,,,instrumental,,,,-- -- --- ------ ------- --------- ----------- --------<br>--------- -------- --- ------- -- ------- ---- -- ------<br>-- --- -------- -------- ---------- ---- ---- ---- ------<br>-- --------- -- ---- -- --- -- --- ------- -- - -----<br>---------- -- -- -- ---- ----- -- ------ in --- ------<br>-------,499846,499891,499669,499658,499686,499869,,46,in
screen,html.Screen,2_3_1_0_1_47,2022-02-15T14:14:54.220Z,,,,,,,,,,,,,,,,,48,,,,,,,,,,,,,,308,,response,,,,10,F,,,,,,Space,keypress(Space),,,,instrumental,,,,-- -- --- ------ ------- --------- ----------- --------<br>--------- -------- --- ------- -- ------- ---- -- ------<br>-- --- -------- -------- ---------- ---- ---- ---- ------<br>-- --------- -- ---- -- --- -- --- ------- -- - -----<br>---------- -- -- -- ---- ----- -- ------ -- the ------<br>-------,500115,500160,499852,499847.00000000006,499869,500136,,47,the
screen,html.Screen,2_3_1_0_1_48,2022-02-15T14:14:54.403Z,,,,,,,,,,,,,,,,,48,,,,,,,,,,,,,,224,,response,,,,10,F,,,,,,Space,keypress(Space),,,,instrumental,,,,-- -- --- ------ ------- --------- ----------- --------<br>--------- -------- --- ------- -- ------- ---- -- ------<br>-- --- -------- -------- ---------- ---- ---- ---- ------<br>-- --------- -- ---- -- --- -- --- ------- -- - -----<br>---------- -- -- -- ---- ----- -- ------ -- --- United<br>-------,500298,500343,500119,500116,500136,500319,,48,United
screen,html.Screen,2_3_1_0_1_49,2022-02-15T14:14:54.879Z,,,,,,,,,,,,,,,,,48,,,,,,,,,,,,,,518,,response,,,,10,F,,,,,,Space,keypress(Space),,,,instrumental,,,,-- -- --- ------ ------- --------- ----------- --------<br>--------- -------- --- ------- -- ------- ---- -- ------<br>-- --- -------- -------- ---------- ---- ---- ---- ------<br>-- --------- -- ---- -- --- -- --- ------- -- - -----<br>---------- -- -- -- ---- ----- -- ------ -- --- ------<br>States.,500774,500819,500301,500299.00000000006,500319,500819,,49,States.
Item 10,flow.Loop,2_3_1_0_1,2022-02-15T14:14:54.879Z,,,,,,,,,,,,,,,,,,,,,,,,,,,,,,,16501,,completion,,,,,,,,,,,,,,,,,,,,,500775.00000000006,500819,484302,484303,484318,500819,,,
Question 1,html.Screen,2_3_1_0_2,2022-02-15T14:14:58.780Z,,,,,,,,,,,,,,,,,,,,,,,,,,,,true,TRUE,,3914,,response,,,,10,F,,,,,,TRUE,click #choice-1,,,,instrumental,,,,,504676,504716,500802,500775.00000000006,500819,504702,,,
Question 2,html.Screen,2_3_1_0_3,2022-02-15T14:15:01.735Z,,,,,,,,,,,,,,,,,,,,,,,,,,,,true,TRUE,,2988.000000000058,,response,,,,10,F,,,,,,TRUE,click #choice-1,,,,instrumental,,,,,507631,507674.00000000006,504686,504676,504702,507669,,,
Item 10,flow.Sequence,2_3_1_0,2022-02-15T14:15:01.736Z,,,,,,,,,,,,,,,,,,,,,,,,,,,,,,,30356.00000000006,,completion,,,,,,,,,,,,,,,,,,,,,507632,507674.00000000006,477302,477303,477318,507669,,,
Holding screen,html.Screen,2_3_1_1_0,2022-02-15T14:15:08.756Z,,,,,,,,,,,,,,,,,,,,,,,,,,,,,,,7000,,timeout,,,,,,,,,,,,,,,,,,,,,514652.00000000006,514652,507652,507632,507669,514669,,,
screen,html.Screen,2_3_1_1_1_0,2022-02-15T14:15:09.994Z,,,,,,,,,,,,,,,,,51,,,,,,,,,,,,,,1281,,response,,,,13,F,,,,,,Space,keypress(Space),,,,instrumental,,,,American -------- --- --- ---- --- --- ------ -- --------<br>---- --------- --- ------- ------------ ---------- ---------<br>--- ---------- ------- ---------- ------- -- -------- ----<br>---- --- ------ ----- ------ -- ---- --- ----- -- - -------<br>-------- -- --- --- -- ----- ----------- ----- -----------<br>---- --- ---------- --- ---- --- -- ----------,515890,515933,514652,514653,514669,515919,,0,American
screen,html.Screen,2_3_1_1_1_1,2022-02-15T14:15:10.349Z,,,,,,,,,,,,,,,,,51,,,,,,,,,,,,,,389.0000000000582,,response,,,,13,F,,,,,,Space,keypress(Space),,,,instrumental,,,,-------- industry --- --- ---- --- --- ------ -- --------<br>---- --------- --- ------- ------------ ---------- ---------<br>--- ---------- ------- ---------- ------- -- -------- ----<br>---- --- ------ ----- ------ -- ---- --- ----- -- - -------<br>-------- -- --- --- -- ----- ----------- ----- -----------<br>---- --- ---------- --- ---- --- -- ----------,516245,516291.00000000006,515902,515890.99999999994,515919,516268,,1,industry
screen,html.Screen,2_3_1_1_1_2,2022-02-15T14:15:10.683Z,,,,,,,,,,,,,,,,,51,,,,,,,,,,,,,,372,,response,,,,13,F,,,,,,Space,keypress(Space),,,,instrumental,,,,-------- -------- may --- ---- --- --- ------ -- --------<br>---- --------- --- ------- ------------ ---------- ---------<br>--- ---------- ------- ---------- ------- -- -------- ----<br>---- --- ------ ----- ------ -- ---- --- ----- -- - -------<br>-------- -- --- --- -- ----- ----------- ----- -----------<br>---- --- ---------- --- ---- --- -- ----------,516579.00000000006,516624,516252,516246,516268,516602,,2,may
screen,html.Screen,2_3_1_1_1_3,2022-02-15T14:15:10.966Z,,,,,,,,,,,,,,,,,51,,,,,,,,,,,,,,321.0000000000582,,response,,,,13,F,,,,,,Space,keypress(Space),,,,instrumental,,,,-------- -------- --- not ---- --- --- ------ -- --------<br>---- --------- --- ------- ------------ ---------- ---------<br>--- ---------- ------- ---------- ------- -- -------- ----<br>---- --- ------ ----- ------ -- ---- --- ----- -- - -------<br>-------- -- --- --- -- ----- ----------- ----- -----------<br>---- --- ---------- --- ---- --- -- ----------,516861.99999999994,516907.00000000006,516586,516580.00000000006,516602,516886,,3,not
screen,html.Screen,2_3_1_1_1_4,2022-02-15T14:15:11.339Z,,,,,,,,,,,,,,,,,51,,,,,,,,,,,,,,411,,response,,,,13,F,,,,,,Space,keypress(Space),,,,instrumental,,,,-------- -------- --- --- know --- --- ------ -- --------<br>---- --------- --- ------- ------------ ---------- ---------<br>--- ---------- ------- ---------- ------- -- -------- ----<br>---- --- ------ ----- ------ -- ---- --- ----- -- - -------<br>-------- -- --- --- -- ----- ----------- ----- -----------<br>---- --- ---------- --- ---- --- -- ----------,517236,517280,516869,516861.99999999994,516886,517268,,4,know
screen,html.Screen,2_3_1_1_1_5,2022-02-15T14:15:11.755Z,,,,,,,,,,,,,,,,,51,,,,,,,,,,,,,,444,,response,,,,13,F,,,,,,Space,keypress(Space),,,,instrumental,,,,"-------- -------- --- --- ---- it, --- ------ -- --------<br>---- --------- --- ------- ------------ ---------- ---------<br>--- ---------- ------- ---------- ------- -- -------- ----<br>---- --- ------ ----- ------ -- ---- --- ----- -- - -------<br>-------- -- --- --- -- ----- ----------- ----- -----------<br>---- --- ---------- --- ---- --- -- ----------",517651.00000000006,517697,517253,517236,517268,517686,,5,"it,"
screen,html.Screen,2_3_1_1_1_6,2022-02-15T14:15:12.123Z,,,,,,,,,,,,,,,,,51,,,,,,,,,,,,,,395.9999999999418,,response,,,,13,F,,,,,,Space,keypress(Space),,,,instrumental,,,,-------- -------- --- --- ---- --- but ------ -- --------<br>---- --------- --- ------- ------------ ---------- ---------<br>--- ---------- ------- ---------- ------- -- -------- ----<br>---- --- ------ ----- ------ -- ---- --- ----- -- - -------<br>-------- -- --- --- -- ----- ----------- ----- -----------<br>---- --- ---------- --- ---- --- -- ----------,518019,518063.99999999994,517668,517652.00000000006,517686,518052,,6,but
screen,html.Screen,2_3_1_1_1_7,2022-02-15T14:15:12.354Z,,,,,,,,,,,,,,,,,51,,,,,,,,,,,,,,261.0000000000582,,response,,,,13,F,,,,,,Space,keypress(Space),,,,instrumental,,,,-------- -------- --- --- ---- --- --- debate -- --------<br>---- --------- --- ------- ------------ ---------- ---------<br>--- ---------- ------- ---------- ------- -- -------- ----<br>---- --- ------ ----- ------ -- ---- --- ----- -- - -------<br>-------- -- --- --- -- ----- ----------- ----- -----------<br>---- --- ---------- --- ---- --- -- ----------,518250,518296.00000000006,518035,518020,518052,518269,,7,debate
