sender,sender_type,sender_id,timestamp,meta,,Blues,Classical,Country,Dance,Electronic,Folk,Gospel,Hip-Hop,Jazz,Latin,Musical/Film,New-age,Pop,Prolific_id,Provo_ID,R&B,Rap,Reggae,Religious,Rock,Soul,Swing,Traditional,age,artist_name,correct,correctResponse,distraction,duration,education,ended_on,familiarity,gender,headphone_check_performance,item,list,music_frequency,offensiveness,pleasantness,position_correct,preference,response,response_action,snippet_file,song_name,song_rating,sound,stimulus_1,stimulus_2,stimulus_3,text,time_commit,time_end,time_render,time_run,time_show,time_switch,url,word,word_ID
Prolific ID,html.Form,0,2022-02-03T14:22:19.160Z,"{""labjs_version"":""20.2.2"",""labjs_build"":{""flavor"":""production"",""commit"":""a25486e0c714a0ae2ce03ff94b7bb6896854dcfa""},""location"":""https://run.pavlovia.org/mvasilev/prolific2_music_a/"",""userAgent"":""Mozilla/5.0 (Windows NT 10.0; Win64; x64) AppleWebKit/537.36 (KHTML, like Gecko) Chrome/97.0.4692.99 Safari/537.36"",""platform"":""Win32"",""language"":""en-GB"",""locale"":""en-GB"",""timeZone"":""Europe/London"",""timezoneOffset"":0,""screen_width"":1600,""screen_height"":900,""scroll_width"":1583,""scroll_height"":709,""window_innerWidth"":1600,""window_innerHeight"":757,""devicePixelRatio"":1}",,,,,,,,,,,,,,,5f4ac049c374f51158b481ba,,,,,,,,,,,,,,,3940.4770000119206,,form submission,,,,,,,,,,,,,,,,,,,,,15844.800000011921,15844.300000011921,11887.163,11891.100000023842,11903.823,15851.511,{},,
Introduction,html.Screen,1_0,2022-02-03T14:22:26.671Z,,,,,,,,,,,,,,,,,,,,,,,,,,,,,,,7500.989,,response,,,,,,,,,,,continue,click button,,,,,,,,,23355.900000035763,23352.5,15834.912,15845,15851.511,23363.807,,,
Volume calibration,html.Screen,1_1,2022-02-03T14:23:10.194Z,,,,,,,,,,,,,,,,,,,,,,,,,,,,,,,43512.79300002384,,response,,,,,,,,,,,continue,click button,,,,,,,,,66879.60000002384,66876.60000002384,23347.198,23356,23363.807,66888.321,,,
Task instructions,html.Screen,1_2,2022-02-03T14:23:32.266Z,,,,,,,,,,,,,,,,,,,,,,,,,,,,,,,22061.878999988083,,response,,,,,,,,,,,continue,click button,,,,,,,,,88951.10000002384,88950.19999998808,66871.734,66879.69999998808,66888.321,88958.822,,,
Sounds,html.Screen,1_3_0_0,2022-02-03T14:23:36.507Z,,,,,,,,,,,,,,,,,,,,,,,,,,,,,,,4247.578999999998,,timeout,,,,,,,,,3,,,,,,,,O,I,S,,93191.80000001192,93189.704,88942.223,88951.19999998808,88958.822,93206.401,,,
Judgement,html.Screen,1_3_0_1,2022-02-03T14:23:37.416Z,,,,,,,,,,,,,,,,,,,,,,,,,,,,true,3,,893.798999988081,,response,,,,,,,,,3,,3,click #choice-3,,,,,O,I,S,,94101.19999998808,94100.19999998808,93189.704,93191.90000003576,93206.401,94105.828,,,
Trial,flow.Sequence,1_3_0,2022-02-03T14:23:37.416Z,,,,,,,,,,,,,,,,,,,,,,,,,,,,,,,5141.377999988079,,completion,,,,,,,,,3,,,,,,,,O,I,S,,94101.30000001192,94100.19999998808,88942.223,88951.19999998808,88958.822,94105.828,,,
Sounds,html.Screen,1_3_1_0,2022-02-03T14:23:41.652Z,,,,,,,,,,,,,,,,,,,,,,,,,,,,,,,4247.525000000009,,timeout,,,,,,,,,1,,,,,,,,S,O,I,,98337.40000003576,98336.722,94089.19,94101.40000003576,94105.828,98353.353,,,
Judgement,html.Screen,1_3_1_1,2022-02-03T14:23:42.380Z,,,,,,,,,,,,,,,,,,,,,,,,,,,,true,1,,711.3469999880763,,response,,,,,,,,,1,,1,click #choice-1,,,,,S,O,I,,99065.60000002384,99064.69999998808,98336.722,98338.19999998808,98353.353,99069.557,,,
Trial,flow.Sequence,1_3_1,2022-02-03T14:23:42.381Z,,,,,,,,,,,,,,,,,,,,,,,,,,,,,,,4958.871999988085,,completion,,,,,,,,,1,,,,,,,,S,O,I,,99065.90000003576,99064.69999998808,94089.19,94101.40000003576,94105.828,99069.557,,,
Sounds,html.Screen,1_3_2_0,2022-02-03T14:23:46.616Z,,,,,,,,,,,,,,,,,,,,,,,,,,,,,,,4247.559999999998,,timeout,,,,,,,,,2,,,,,,,,I,S,O,,103301.40000003576,103300.481,99052.91,99066,99069.557,103317.117,,,
Judgement,html.Screen,1_3_2_1,2022-02-03T14:23:47.213Z,,,,,,,,,,,,,,,,,,,,,,,,,,,,true,2,,579.8830000000016,,response,,,,,,,,,2,,2,click #choice-2,,,,,I,S,O,,103898.19999998808,103897,103300.481,103301.69999998808,103317.117,103900.072,,,
Trial,flow.Sequence,1_3_2,2022-02-03T14:23:47.213Z,,,,,,,,,,,,,,,,,,,,,,,,,,,,,,,4827.442999999999,,completion,,,,,,,,,2,,,,,,,,I,S,O,,103898.60000002384,103897,99052.91,99066,99069.557,103900.072,,,
Sounds,html.Screen,1_3_3_0,2022-02-03T14:23:51.448Z,,,,,,,,,,,,,,,,,,,,,,,,,,,,,,,4248.005999999994,,timeout,,,,,,,,,2,,,,,,,,O,S,I,,108133,108130.956,103883.659,103898.69999998808,103900.072,108148.078,,,
Judgement,html.Screen,1_3_3_1,2022-02-03T14:23:52.044Z,,,,,,,,,,,,,,,,,,,,,,,,,,,,true,2,,580.2220000119269,,response,,,,,,,,,2,,2,click #choice-2,,,,,O,S,I,,108729.10000002384,108728.30000001192,108130.956,108133.5,108148.078,108730.562,,,
Trial,flow.Sequence,1_3_3,2022-02-03T14:23:52.044Z,,,,,,,,,,,,,,,,,,,,,,,,,,,,,,,4828.228000011921,,completion,,,,,,,,,2,,,,,,,,O,S,I,,108729.30000001192,108728.30000001192,103883.659,103898.69999998808,103900.072,108730.562,,,
Sounds,html.Screen,1_3_4_0,2022-02-03T14:23:56.278Z,,,,,,,,,,,,,,,,,,,,,,,,,,,,,,,4247.555999999997,,timeout,,,,,,,,,3,,,,,,,,I,O,S,,112963,112961.524,108713.976,108729.5,108730.562,112978.118,,,
Judgement,html.Screen,1_3_4_1,2022-02-03T14:23:56.933Z,,,,,,,,,,,,,,,,,,,,,,,,,,,,true,3,,639.1820000119187,,response,,,,,,,,,3,,3,click #choice-3,,,,,I,O,S,,113618.40000003576,113617.30000001192,112961.524,112963.19999998808,112978.118,113627.837,,,
Trial,flow.Sequence,1_3_4,2022-02-03T14:23:56.934Z,,,,,,,,,,,,,,,,,,,,,,,,,,,,,,,4886.738000011916,,completion,,,,,,,,,3,,,,,,,,I,O,S,,113618.69999998808,113617.30000001192,108713.976,108729.40000003576,108730.562,113627.837,,,
Sounds,html.Screen,1_3_5_0,2022-02-03T14:24:01.174Z,,,,,,,,,,,,,,,,,,,,,,,,,,,,,,,4247.449999999997,,timeout,,,,,,,,,1,,,,,,,,S,I,O,,117859.40000003576,117858.607,113611.155,113618.80000001192,113627.837,117875.287,,,
Judgement,html.Screen,1_3_5_1,2022-02-03T14:24:01.892Z,,,,,,,,,,,,,,,,,,,,,,,,,,,,true,1,,699.7130000000034,,response,,,,,,,,,1,,1,click #choice-1,,,,,S,I,O,,118576.69999998808,118575,117858.607,117859.60000002384,117875.287,118591.544,,,
Trial,flow.Sequence,1_3_5,2022-02-03T14:24:01.892Z,,,,,,,,,,,,,,,,,,,,,,,,,,,,,,,4947.1630000000005,,completion,,,,,,,,,1,,,,,,,,S,I,O,,118576.90000003576,118575,113611.155,113618.80000001192,113627.837,118591.544,,,
Task,flow.Loop,1_3,2022-02-03T14:24:01.896Z,,,,,,,,,,,,,,,,,,,,,,,,,,,,,,,29616.178,,completion,,,1,,,,,,,,,,,,,,,,,,118581.10000002384,118575,88942.223,88951.10000002384,88958.822,118591.544,,,
Trap,html.Screen,1_4,2022-02-03T14:24:01.897Z,,,,,,,,,,,,,,,,,,,,,,,,,,,,,,,NaN,,skipped,,,,,,,,,,,,,,,,,,,,,118582.10000002384,118575,,118582,,118591.544,,,
Thanks,html.Screen,1_5,2022-02-03T14:24:07.398Z,,,,,,,,,,,,,,,,,,,,,,,,,,,,,,,5491.056000023847,,response,,,,,,,,,,,continue,click button,,,,,,,,,124083.60000002384,124082.60000002384,118574.979,118582.19999998808,118591.544,129518.52,,,
Headphone screening,flow.Sequence,1,2022-02-03T14:24:07.398Z,,,,,,,,,,,,,,,,,,,,,,,,,,,,,,,108231.08900002384,,completion,,,,,,,,,,,,,,,,,,,,,124083.69999998808,124082.60000002384,15834.912,15845,15851.511,129518.52,,,
Instructions,html.Page,2_0,2022-02-03T14:24:49.319Z,,,,,,,,,,,,,,,,,,,,,,,,,,,,,,,36486.28000001192,,form submission,,,,,,,,,,,,,,,,,,,,,166005.10000002384,166004.80000001192,129501.773,129525.30000001192,129518.52,166013.73,,,
Holding screen,html.Screen,2_1_0_0,2022-02-03T14:24:59.307Z,,,,,,,,,,,,,,,,,,,,,,,,,,,,,,,10010.870999999985,,timeout,,,,,,,,,,,,,,,,,,,,,175992.30000001192,175991.35,165997.16,166005.5,166013.73,176024.601,,,
screen,html.Screen,2_1_0_1_0,2022-02-03T14:25:00.983Z,,,,,,,,,,,,,,,,,53,,,,,,,,,,,,,,1641.598999988084,,response,,,,99,,,,,,,Space,keypress(Space),,,,,,,,When -- ----- -- ------ - ------- --- ----------<br>------------- ------ ------ ---- ---- ------- ----- -- ----<br>-------- ------- -- ---------- --- - --- ----- ----- ----<br>---- --- --- ----- --- ---- ---- ------- ----- ---- -------<br>--- --- -- ----- -- --- ---- -- --- ---- -- ------ ------<br>--- ----- -- ----,177669.19999998808,177666.19999998808,175991.35,175992.60000002384,176024.601,177673.615,,0,When
screen,html.Screen,2_1_0_1_1,2022-02-03T14:25:02.309Z,,,,,,,,,,,,,,,,,53,,,,,,,,,,,,,,1319.6850000119302,,response,,,,99,,,,,,,Space,keypress(Space),,,,,,,,---- it ----- -- ------ - ------- --- ----------<br>------------- ------ ------ ---- ---- ------- ----- -- ----<br>-------- ------- -- ---------- --- - --- ----- ----- ----<br>---- --- --- ----- --- ---- ---- ------- ----- ---- -------<br>--- --- -- ----- -- --- ---- -- --- ---- -- ------ ------<br>--- ----- -- ----,178994.5,178993.30000001192,177657.041,177669.5,177673.615,179006.306,,1,it
screen,html.Screen,2_1_0_1_2,2022-02-03T14:25:03.584Z,,,,,,,,,,,,,,,,,53,,,,,,,,,,,,,,1262.4940000119095,,response,,,,99,,,,,,,Space,keypress(Space),,,,,,,,---- -- comes -- ------ - ------- --- ----------<br>------------- ------ ------ ---- ---- ------- ----- -- ----<br>-------- ------- -- ---------- --- - --- ----- ----- ----<br>---- --- --- ----- --- ---- ---- ------- ----- ---- -------<br>--- --- -- ----- -- --- ---- -- --- ---- -- ------ ------<br>--- ----- -- ----,180269.40000003576,180268.80000001192,178989.537,178994.69999998808,179006.306,180272.216,,2,comes
screen,html.Screen,2_1_0_1_3,2022-02-03T14:25:04.880Z,,,,,,,,,,,,,,,,,53,,,,,,,,,,,,,,1292.684000035777,,response,,,,99,,,,,,,Space,keypress(Space),,,,,,,,---- -- ----- to ------ - ------- --- ----------<br>------------- ------ ------ ---- ---- ------- ----- -- ----<br>-------- ------- -- ---------- --- - --- ----- ----- ----<br>---- --- --- ----- --- ---- ---- ------- ----- ---- -------<br>--- --- -- ----- -- --- ---- -- --- ---- -- ------ ------<br>--- ----- -- ----,181565.5,181564.90000003576,180255.5,180269.60000002384,180272.216,181571.397,,3,to
screen,html.Screen,2_1_0_1_4,2022-02-03T14:25:06.250Z,,,,,,,,,,,,,,,,,53,,,,,,,,,,,,,,1362.7030000238447,,response,,,,99,,,,,,,Space,keypress(Space),,,,,,,,---- -- ----- -- having - ------- --- ----------<br>------------- ------ ------ ---- ---- ------- ----- -- ----<br>-------- ------- -- ---------- --- - --- ----- ----- ----<br>---- --- --- ----- --- ---- ---- ------- ----- ---- -------<br>--- --- -- ----- -- --- ---- -- --- ---- -- ------ ------<br>--- ----- -- ----,182935.19999998808,182934.10000002384,181554.747,181565.60000002384,181571.397,182937.249,,4,having
screen,html.Screen,2_1_0_1_5,2022-02-03T14:25:07.544Z,,,,,,,,,,,,,,,,,53,,,,,,,,,,,,,,1291.0510000119102,,response,,,,99,,,,,,,Space,keypress(Space),,,,,,,,---- -- ----- -- ------ a ------- --- ----------<br>------------- ------ ------ ---- ---- ------- ----- -- ----<br>-------- ------- -- ---------- --- - --- ----- ----- ----<br>---- --- --- ----- --- ---- ---- ------- ----- ---- -------<br>--- --- -- ----- -- --- ---- -- --- ---- -- ------ ------<br>--- ----- -- ----,184229.30000001192,184228.30000001192,182920.639,182935.30000001192,182937.249,184236.5,,5,a
screen,html.Screen,2_1_0_1_6,2022-02-03T14:25:08.343Z,,,,,,,,,,,,,,,,,53,,,,,,,,,,,,,,789.8000000119209,,response,,,,99,,,,,,,Space,keypress(Space),,,,,,,,---- -- ----- -- ------ - lasting --- ----------<br>------------- ------ ------ ---- ---- ------- ----- -- ----<br>-------- ------- -- ---------- --- - --- ----- ----- ----<br>---- --- --- ----- --- ---- ---- ------- ----- ---- -------<br>--- --- -- ----- -- --- ---- -- --- ---- -- ------ ------<br>--- ----- -- ----,185027.80000001192,185026.30000001192,184219.834,184229.5,184236.5,185036.033,,6,lasting
screen,html.Screen,2_1_0_1_7,2022-02-03T14:25:09.310Z,,,,,,,,,,,,,,,,,53,,,,,,,,,,,,,,958.567000023846,,response,,,,99,,,,,,,Space,keypress(Space),,,,,,,,---- -- ----- -- ------ - ------- and ----------<br>------------- ------ ------ ---- ---- ------- ----- -- ----<br>-------- ------- -- ---------- --- - --- ----- ----- ----<br>---- --- --- ----- --- ---- ---- ------- ----- ---- -------<br>--- --- -- ----- -- --- ---- -- --- ---- -- ------ ------<br>--- ----- -- ----,185995.40000003576,185994.60000002384,185019.389,185028.30000001192,185036.033,186002.064,,7,and
screen,html.Screen,2_1_0_1_8,2022-02-03T14:25:10.211Z,,,,,,,,,,,,,,,,,53,,,,,,,,,,,,,,891.8360000357497,,response,,,,99,,,,,,,Space,keypress(Space),,,,,,,,---- -- ----- -- ------ - ------- --- fulfilling<br>------------- ------ ------ ---- ---- ------- ----- -- ----<br>-------- ------- -- ---------- --- - --- ----- ----- ----<br>---- --- --- ----- --- ---- ---- ------- ----- ---- -------<br>--- --- -- ----- -- --- ---- -- --- ---- -- ------ ------<br>--- ----- -- ----,186896,186893.90000003576,185985.48,185995.5,186002.064,186901.62,,8,fulfilling
screen,html.Screen,2_1_0_1_9,2022-02-03T14:25:10.984Z,,,,,,,,,,,,,,,,,53,,,,,,,,,,,,,,767.1800000119256,,response,,,,99,,,,,,,Space,keypress(Space),,,,,,,,"---- -- ----- -- ------ - ------- --- ----------<br>relationship, ------ ------ ---- ---- ------- ----- -- ----<br>-------- ------- -- ---------- --- - --- ----- ----- ----<br>---- --- --- ----- --- ---- ---- ------- ----- ---- -------<br>--- --- -- ----- -- --- ---- -- --- ---- -- ------ ------<br>--- ----- -- ----",187669.40000003576,187668.80000001192,186885.034,186896.40000003576,186901.62,187684.437,,9,"relationship,"
screen,html.Screen,2_1_0_1_10,2022-02-03T14:25:11.709Z,,,,,,,,,,,,,,,,,53,,,,,,,,,,,,,,709.2629999880737,,response,,,,99,,,,,,,Space,keypress(Space),,,,,,,,---- -- ----- -- ------ - ------- --- ----------<br>------------- common ------ ---- ---- ------- ----- -- ----<br>-------- ------- -- ---------- --- - --- ----- ----- ----<br>---- --- --- ----- --- ---- ---- ------- ----- ---- -------<br>--- --- -- ----- -- --- ---- -- --- ---- -- ------ ------<br>--- ----- -- ----,188394.60000002384,188393.69999998808,187667.785,187669.60000002384,187684.437,188400.708,,10,common
screen,html.Screen,2_1_0_1_11,2022-02-03T14:25:12.374Z,,,,,,,,,,,,,,,,,53,,,,,,,,,,,,,,656.8920000238286,,response,,,,99,,,,,,,Space,keypress(Space),,,,,,,,---- -- ----- -- ------ - ------- --- ----------<br>------------- ------ wisdom ---- ---- ------- ----- -- ----<br>-------- ------- -- ---------- --- - --- ----- ----- ----<br>---- --- --- ----- --- ---- ---- ------- ----- ---- -------<br>--- --- -- ----- -- --- ---- -- --- ---- -- ------ ------<br>--- ----- -- ----,189059.19999998808,189057.60000002384,188384.115,188394.69999998808,188400.708,189067.04,,11,wisdom
screen,html.Screen,2_1_0_1_12,2022-02-03T14:25:13.152Z,,,,,,,,,,,,,,,,,53,,,,,,,,,,,,,,767.7600000119128,,response,,,,99,,,,,,,Space,keypress(Space),,,,,,,,---- -- ----- -- ------ - ------- --- ----------<br>------------- ------ ------ says ---- ------- ----- -- ----<br>-------- ------- -- ---------- --- - --- ----- ----- ----<br>---- --- --- ----- --- ---- ---- ------- ----- ---- -------<br>--- --- -- ----- -- --- ---- -- --- ---- -- ------ ------<br>--- ----- -- ----,189836.80000001192,189834.80000001192,189050.347,189059.40000003576,189067.04,189849.953,,12,says
screen,html.Screen,2_1_0_1_13,2022-02-03T14:25:13.824Z,,,,,,,,,,,,,,,,,53,,,,,,,,,,,,,,657.2469999880705,,response,,,,99,,,,,,,Space,keypress(Space),,,,,,,,---- -- ----- -- ------ - ------- --- ----------<br>------------- ------ ------ ---- that ------- ----- -- ----<br>-------- ------- -- ---------- --- - --- ----- ----- ----<br>---- --- --- ----- --- ---- ---- ------- ----- ---- -------<br>--- --- -- ----- -- --- ---- -- --- ---- -- ------ ------<br>--- ----- -- ----,190509.10000002384,190507.19999998808,189834.091,189837.10000002384,189849.953,190516.187,,13,that
screen,html.Screen,2_1_0_1_14,2022-02-03T14:25:14.736Z,,,,,,,,,,,,,,,,,53,,,,,,,,,,,,,,902.7130000357574,,response,,,,99,,,,,,,Space,keypress(Space),,,,,,,,---- -- ----- -- ------ - ------- --- ----------<br>------------- ------ ------ ---- ---- feeling ----- -- ----<br>-------- ------- -- ---------- --- - --- ----- ----- ----<br>---- --- --- ----- --- ---- ---- ------- ----- ---- -------<br>--- --- -- ----- -- --- ---- -- --- ---- -- ------ ------<br>--- ----- -- ----,191420.80000001192,191418.90000003576,190499.613,190509.5,190516.187,191432.364,,14,feeling
screen,html.Screen,2_1_0_1_15,2022-02-03T14:25:15.663Z,,,,,,,,,,,,,,,,,53,,,,,,,,,,,,,,913.7360000238405,,response,,,,99,,,,,,,Space,keypress(Space),,,,,,,,---- -- ----- -- ------ - ------- --- ----------<br>------------- ------ ------ ---- ---- ------- close -- ----<br>-------- ------- -- ---------- --- - --- ----- ----- ----<br>---- --- --- ----- --- ---- ---- ------- ----- ---- -------<br>--- --- -- ----- -- --- ---- -- --- ---- -- ------ ------<br>--- ----- -- ----,192347.60000002384,192346.10000002384,191415.713,191421.40000003576,191432.364,192365.21,,15,close
screen,html.Screen,2_1_0_1_16,2022-02-03T14:25:16.400Z,,,,,,,,,,,,,,,,,53,,,,,,,,,,,,,,718.4899999880872,,response,,,,99,,,,,,,Space,keypress(Space),,,,,,,,---- -- ----- -- ------ - ------- --- ----------<br>------------- ------ ------ ---- ---- ------- ----- to ----<br>-------- ------- -- ---------- --- - --- ----- ----- ----<br>---- --- --- ----- --- ---- ---- ------- ----- ---- -------<br>--- --- -- ----- -- --- ---- -- --- ---- -- ------ ------<br>--- ----- -- ----,193085.40000003576,193083.69999998808,192348.464,192348,192365.21,193098.226,,16,to
screen,html.Screen,2_1_0_1_17,2022-02-03T14:25:17.424Z,,,,,,,,,,,,,,,,,53,,,,,,,,,,,,,,1008.973999988084,,response,,,,99,,,,,,,Space,keypress(Space),,,,,,,,---- -- ----- -- ------ - ------- --- ----------<br>------------- ------ ------ ---- ---- ------- ----- -- your<br>-------- ------- -- ---------- --- - --- ----- ----- ----<br>---- --- --- ----- --- ---- ---- ------- ----- ---- -------<br>--- --- -- ----- -- --- ---- -- --- ---- -- ------ ------<br>--- ----- -- ----,194109.19999998808,194107.19999998808,193081.375,193085.60000002384,193098.226,194114.069,,17,your
screen,html.Screen,2_1_0_1_18,2022-02-03T14:25:18.424Z,,,,,,,,,,,,,,,,,53,,,,,,,,,,,,,,993.4310000000114,,response,,,,99,,,,,,,Space,keypress(Space),,,,,,,,---- -- ----- -- ------ - ------- --- ----------<br>------------- ------ ------ ---- ---- ------- ----- -- ----<br>romantic ------- -- ---------- --- - --- ----- ----- ----<br>---- --- --- ----- --- ---- ---- ------- ----- ---- -------<br>--- --- -- ----- -- --- ---- -- --- ---- -- ------ ------<br>--- ----- -- ----,195109.5,195107.5,194097.507,194109.5,194114.069,195113.476,,18,romantic
screen,html.Screen,2_1_0_1_19,2022-02-03T14:25:19.250Z,,,,,,,,,,,,,,,,,53,,,,,,,,,,,,,,820.9240000357677,,response,,,,99,,,,,,,Space,keypress(Space),,,,,,,,---- -- ----- -- ------ - ------- --- ----------<br>------------- ------ ------ ---- ---- ------- ----- -- ----<br>-------- partner -- ---------- --- - --- ----- ----- ----<br>---- --- --- ----- --- ---- ---- ------- ----- ---- -------<br>--- --- -- ----- -- --- ---- -- --- ---- -- ------ ------<br>--- ----- -- ----,195935.30000001192,195934.40000003576,195096.864,195109.69999998808,195113.476,195946.363,,19,partner
screen,html.Screen,2_1_0_1_20,2022-02-03T14:25:19.975Z,,,,,,,,,,,,,,,,,53,,,,,,,,,,,,,,712.1369999999879,,response,,,,99,,,,,,,Space,keypress(Space),,,,,,,,---- -- ----- -- ------ - ------- --- ----------<br>------------- ------ ------ ---- ---- ------- ----- -- ----<br>-------- ------- is ---------- --- - --- ----- ----- ----<br>---- --- --- ----- --- ---- ---- ------- ----- ---- -------<br>--- --- -- ----- -- --- ---- -- --- ---- -- ------ ------<br>--- ----- -- ----,196660,196658.5,195929.718,195935.40000003576,195946.363,196662.614,,20,is
screen,html.Screen,2_1_0_1_21,2022-02-03T14:25:21.005Z,,,,,,,,,,,,,,,,,53,,,,,,,,,,,,,,1026.7860000357614,,response,,,,99,,,,,,,Space,keypress(Space),,,,,,,,---- -- ----- -- ------ - ------- --- ----------<br>------------- ------ ------ ---- ---- ------- ----- -- ----<br>-------- ------- -- paramount. --- - --- ----- ----- ----<br>---- --- --- ----- --- ---- ---- ------- ----- ---- -------<br>--- --- -- ----- -- --- ---- -- --- ---- -- ------ ------<br>--- ----- -- ----,197690.30000001192,197689.40000003576,196645.969,196660.30000001192,196662.614,197695.334,,21,paramount.
screen,html.Screen,2_1_0_1_22,2022-02-03T14:25:21.894Z,,,,,,,,,,,,,,,,,53,,,,,,,,,,,,,,881.9660000119184,,response,,,,99,,,,,,,Space,keypress(Space),,,,,,,,---- -- ----- -- ------ - ------- --- ----------<br>------------- ------ ------ ---- ---- ------- ----- -- ----<br>-------- ------- -- ---------- But - --- ----- ----- ----<br>---- --- --- ----- --- ---- ---- ------- ----- ---- -------<br>--- --- -- ----- -- --- ---- -- --- ---- -- ------ ------<br>--- ----- -- ----,198579.5,198577.30000001192,197678.702,197690.5,197695.334,198594.81,,22,But
screen,html.Screen,2_1_0_1_23,2022-02-03T14:25:22.515Z,,,,,,,,,,,,,,,,,53,,,,,,,,,,,,,,604.2900000238442,,response,,,,99,,,,,,,Space,keypress(Space),,,,,,,,---- -- ----- -- ------ - ------- --- ----------<br>------------- ------ ------ ---- ---- ------- ----- -- ----<br>-------- ------- -- ---------- --- a --- ----- ----- ----<br>---- --- --- ----- --- ---- ---- ------- ----- ---- -------<br>--- --- -- ----- -- --- ---- -- --- ---- -- ------ ------<br>--- ----- -- ----,199200.30000001192,199199.10000002384,198578.287,198579.80000001192,198594.81,199211.124,,23,a
screen,html.Screen,2_1_0_1_24,2022-02-03T14:25:23.075Z,,,,,,,,,,,,,,,,,53,,,,,,,,,,,,,,548.0759999880684,,response,,,,99,,,,,,,Space,keypress(Space),,,,,,,,---- -- ----- -- ------ - ------- --- ----------<br>------------- ------ ------ ---- ---- ------- ----- -- ----<br>-------- ------- -- ---------- --- - new ----- ----- ----<br>---- --- --- ----- --- ---- ---- ------- ----- ---- -------<br>--- --- -- ----- -- --- ---- -- --- ---- -- ------ ------<br>--- ----- -- ----,199760,199759.19999998808,199194.471,199200.5,199211.124,199777.448,,24,new
screen,html.Screen,2_1_0_1_25,2022-02-03T14:25:23.565Z,,,,,,,,,,,,,,,,,53,,,,,,,,,,,,,,472.05199999999604,,response,,,,99,,,,,,,Space,keypress(Space),,,,,,,,---- -- ----- -- ------ - ------- --- ----------<br>------------- ------ ------ ---- ---- ------- ----- -- ----<br>-------- ------- -- ---------- --- - --- study ----- ----<br>---- --- --- ----- --- ---- ---- ------- ----- ---- -------<br>--- --- -- ----- -- --- ---- -- --- ---- -- ------ ------<br>--- ----- -- ----,200250.19999998808,200249.5,199760.724,199760.19999998808,199777.448,200260.548,,25,study
screen,html.Screen,2_1_0_1_26,2022-02-03T14:25:24.088Z,,,,,,,,,,,,,,,,,53,,,,,,,,,,,,,,510.6519999880693,,response,,,,99,,,,,,,Space,keypress(Space),,,,,,,,---- -- ----- -- ------ - ------- --- ----------<br>------------- ------ ------ ---- ---- ------- ----- -- ----<br>-------- ------- -- ---------- --- - --- ----- finds ----<br>---- --- --- ----- --- ---- ---- ------- ----- ---- -------<br>--- --- -- ----- -- --- ---- -- --- ---- -- ------ ------<br>--- ----- -- ----,200772.80000001192,200771.19999998808,200243.747,200250.30000001192,200260.548,200776.863,,26,finds
screen,html.Screen,2_1_0_1_27,2022-02-03T14:25:24.729Z,,,,,,,,,,,,,,,,,53,,,,,,,,,,,,,,636.0370000357507,,response,,,,99,,,,,,,Space,keypress(Space),,,,,,,,---- -- ----- -- ------ - ------- --- ----------<br>------------- ------ ------ ---- ---- ------- ----- -- ----<br>-------- ------- -- ---------- --- - --- ----- ----- that<br>---- --- --- ----- --- ---- ---- ------- ----- ---- -------<br>--- --- -- ----- -- --- ---- -- --- ---- -- ------ ------<br>--- ----- -- ----,201413.90000003576,201412.90000003576,200760.19,200773.5,200776.863,201426.481,,27,that
screen,html.Screen,2_1_0_1_28,2022-02-03T14:25:25.334Z,,,,,,,,,,,,,,,,,53,,,,,,,,,,,,,,590.7189999880793,,response,,,,99,,,,,,,Space,keypress(Space),,,,,,,,---- -- ----- -- ------ - ------- --- ----------<br>------------- ------ ------ ---- ---- ------- ----- -- ----<br>-------- ------- -- ---------- --- - --- ----- ----- ----<br>it's --- --- ----- --- ---- ---- ------- ----- ---- -------<br>--- --- -- ----- -- --- ---- -- --- ---- -- ------ ------<br>--- ----- -- ----,202019.10000002384,202017.19999998808,201409.827,201414.19999998808,201426.481,202026.106,,28,it's
screen,html.Screen,2_1_0_1_29,2022-02-03T14:25:25.938Z,,,,,,,,,,,,,,,,,53,,,,,,,,,,,,,,592.9940000238421,,response,,,,99,,,,,,,Space,keypress(Space),,,,,,,,---- -- ----- -- ------ - ------- --- ----------<br>------------- ------ ------ ---- ---- ------- ----- -- ----<br>-------- ------- -- ---------- --- - --- ----- ----- ----<br>---- not --- ----- --- ---- ---- ------- ----- ---- -------<br>--- --- -- ----- -- --- ---- -- --- ---- -- ------ ------<br>--- ----- -- ----,202623.10000002384,202619.10000002384,202009.438,202019.30000001192,202026.106,202625.766,,29,not
screen,html.Screen,2_1_0_1_30,2022-02-03T14:25:26.444Z,,,,,,,,,,,,,,,,,53,,,,,,,,,,,,,,502.73399999999674,,response,,,,99,,,,,,,Space,keypress(Space),,,,,,,,---- -- ----- -- ------ - ------- --- ----------<br>------------- ------ ------ ---- ---- ------- ----- -- ----<br>-------- ------- -- ---------- --- - --- ----- ----- ----<br>---- --- how ----- --- ---- ---- ------- ----- ---- -------<br>--- --- -- ----- -- --- ---- -- --- ---- -- ------ ------<br>--- ----- -- ----,203129.60000002384,203128.5,202609.168,202623.69999998808,202625.766,203142.176,,30,how
screen,html.Screen,2_1_0_1_31,2022-02-03T14:25:26.975Z,,,,,,,,,,,,,,,,,53,,,,,,,,,,,,,,516.4240000238351,,response,,,,99,,,,,,,Space,keypress(Space),,,,,,,,---- -- ----- -- ------ - ------- --- ----------<br>------------- ------ ------ ---- ---- ------- ----- -- ----<br>-------- ------- -- ---------- --- - --- ----- ----- ----<br>---- --- --- close --- ---- ---- ------- ----- ---- -------<br>--- --- -- ----- -- --- ---- -- --- ---- -- ------ ------<br>--- ----- -- ----,203660.30000001192,203658.60000002384,203125.524,203129.80000001192,203142.176,203675.186,,31,close
screen,html.Screen,2_1_0_1_32,2022-02-03T14:25:27.464Z,,,,,,,,,,,,,,,,,53,,,,,,,,,,,,,,473.61400001193397,,response,,,,99,,,,,,,Space,keypress(Space),,,,,,,,---- -- ----- -- ------ - ------- --- ----------<br>------------- ------ ------ ---- ---- ------- ----- -- ----<br>-------- ------- -- ---------- --- - --- ----- ----- ----<br>---- --- --- ----- you ---- ---- ------- ----- ---- -------<br>--- --- -- ----- -- --- ---- -- --- ---- -- ------ ------<br>--- ----- -- ----,204149.40000003576,204148.80000001192,203658.471,203660.5,203675.186,204158.144,,32,you
screen,html.Screen,2_1_0_1_33,2022-02-03T14:25:27.917Z,,,,,,,,,,,,,,,,,53,,,,,,,,,,,,,,440.6560000119207,,response,,,,99,,,,,,,Space,keypress(Space),,,,,,,,---- -- ----- -- ------ - ------- --- ----------<br>------------- ------ ------ ---- ---- ------- ----- -- ----<br>-------- ------- -- ---------- --- - --- ----- ----- ----<br>---- --- --- ----- --- feel ---- ------- ----- ---- -------<br>--- --- -- ----- -- --- ---- -- --- ---- -- ------ ------<br>--- ----- -- ----,204602.19999998808,204598.80000001192,204141.476,204149.5,204158.144,204608.624,,33,feel
screen,html.Screen,2_1_0_1_34,2022-02-03T14:25:28.363Z,,,,,,,,,,,,,,,,,53,,,,,,,,,,,,,,437.7760000357521,,response,,,,99,,,,,,,Space,keypress(Space),,,,,,,,---- -- ----- -- ------ - ------- --- ----------<br>------------- ------ ------ ---- ---- ------- ----- -- ----<br>-------- ------- -- ---------- --- - --- ----- ----- ----<br>---- --- --- ----- --- ---- that ------- ----- ---- -------<br>--- --- -- ----- -- --- ---- -- --- ---- -- ------ ------<br>--- ----- -- ----,205047.90000003576,205046.40000003576,204591.318,204602.5,204608.624,205058.409,,34,that
screen,html.Screen,2_1_0_1_35,2022-02-03T14:25:29.017Z,,,,,,,,,,,,,,,,,53,,,,,,,,,,,,,,641.9910000357486,,response,,,,99,,,,,,,Space,keypress(Space),,,,,,,,---- -- ----- -- ------ - ------- --- ----------<br>------------- ------ ------ ---- ---- ------- ----- -- ----<br>-------- ------- -- ---------- --- - --- ----- ----- ----<br>---- --- --- ----- --- ---- ---- matters ----- ---- -------<br>--- --- -- ----- -- --- ---- -- --- ---- -- ------ ------<br>--- ----- -- ----,205702,205700.40000003576,205041.06,205048.19999998808,205058.409,205707.311,,35,matters
screen,html.Screen,2_1_0_1_36,2022-02-03T14:25:29.617Z,,,,,,,,,,,,,,,,,53,,,,,,,,,,,,,,593.5890000357758,,response,,,,99,,,,,,,Space,keypress(Space),,,,,,,,"---- -- ----- -- ------ - ------- --- ----------<br>------------- ------ ------ ---- ---- ------- ----- -- ----<br>-------- ------- -- ---------- --- - --- ----- ----- ----<br>---- --- --- ----- --- ---- ---- ------- most, ---- -------<br>--- --- -- ----- -- --- ---- -- --- ---- -- ------ ------<br>--- ----- -- ----",206301.80000001192,206300.90000003576,205690.704,205702.40000003576,205707.311,206306.915,,36,"most,"
screen,html.Screen,2_1_0_1_37,2022-02-03T14:25:30.219Z,,,,,,,,,,,,,,,,,53,,,,,,,,,,,,,,596.1850000238337,,response,,,,99,,,,,,,Space,keypress(Space),,,,,,,,---- -- ----- -- ------ - ------- --- ----------<br>------------- ------ ------ ---- ---- ------- ----- -- ----<br>-------- ------- -- ---------- --- - --- ----- ----- ----<br>---- --- --- ----- --- ---- ---- ------- ----- it's -------<br>--- --- -- ----- -- --- ---- -- --- ---- -- ------ ------<br>--- ----- -- ----,206903.80000001192,206903.10000002384,206290.324,206302,206306.915,206906.525,,37,it's
screen,html.Screen,2_1_0_1_38,2022-02-03T14:25:30.799Z,,,,,,,,,,,,,,,,,53,,,,,,,,,,,,,,577.1749999880849,,response,,,,99,,,,,,,Space,keypress(Space),,,,,,,,---- -- ----- -- ------ - ------- --- ----------<br>------------- ------ ------ ---- ---- ------- ----- -- ----<br>-------- ------- -- ---------- --- - --- ----- ----- ----<br>---- --- --- ----- --- ---- ---- ------- ----- ---- whether<br>--- --- -- ----- -- --- ---- -- --- ---- -- ------ ------<br>--- ----- -- ----,207484.40000003576,207483.69999998808,206889.86,206903.90000003576,206906.525,207489.513,,38,whether
screen,html.Screen,2_1_0_1_39,2022-02-03T14:25:31.312Z,,,,,,,,,,,,,,,,,53,,,,,,,,,,,,,,506.58700002383557,,response,,,,99,,,,,,,Space,keypress(Space),,,,,,,,---- -- ----- -- ------ - ------- --- ----------<br>------------- ------ ------ ---- ---- ------- ----- -- ----<br>-------- ------- -- ---------- --- - --- ----- ----- ----<br>---- --- --- ----- --- ---- ---- ------- ----- ---- -------<br>you --- -- ----- -- --- ---- -- --- ---- -- ------ ------<br>--- ----- -- ----,207997,207996.10000002384,207472.876,207484.60000002384,207489.513,208005.962,,39,you
screen,html.Screen,2_1_0_1_40,2022-02-03T14:25:31.780Z,,,,,,,,,,,,,,,,,53,,,,,,,,,,,,,,458.3380000119214,,response,,,,99,,,,,,,Space,keypress(Space),,,,,,,,---- -- ----- -- ------ - ------- --- ----------<br>------------- ------ ------ ---- ---- ------- ----- -- ----<br>-------- ------- -- ---------- --- - --- ----- ----- ----<br>---- --- --- ----- --- ---- ---- ------- ----- ---- -------<br>--- are -- ----- -- --- ---- -- --- ---- -- ------ ------<br>--- ----- -- ----,208465.30000001192,208464.30000001192,207989.319,207997.10000002384,208005.962,208472.346,,40,are
screen,html.Screen,2_1_0_1_41,2022-02-03T14:25:32.382Z,,,,,,,,,,,,,,,,,53,,,,,,,,,,,,,,593.6540000000095,,response,,,,99,,,,,,,Space,keypress(Space),,,,,,,,---- -- ----- -- ------ - ------- --- ----------<br>------------- ------ ------ ---- ---- ------- ----- -- ----<br>-------- ------- -- ---------- --- - --- ----- ----- ----<br>---- --- --- ----- --- ---- ---- ------- ----- ---- -------<br>--- --- as ----- -- --- ---- -- --- ---- -- ------ ------<br>--- ----- -- ----,209067,209066,208455.726,208465.5,208472.346,209071.999,,41,as
screen,html.Screen,2_1_0_1_42,2022-02-03T14:25:33.122Z,,,,,,,,,,,,,,,,,53,,,,,,,,,,,,,,734.2009999880684,,response,,,,99,,,,,,,Space,keypress(Space),,,,,,,,---- -- ----- -- ------ - ------- --- ----------<br>------------- ------ ------ ---- ---- ------- ----- -- ----<br>-------- ------- -- ---------- --- - --- ----- ----- ----<br>---- --- --- ----- --- ---- ---- ------- ----- ---- -------<br>--- --- -- close -- --- ---- -- --- ---- -- ------ ------<br>--- ----- -- ----,209807,209806.19999998808,209055.376,209067.10000002384,209071.999,209821.579,,42,close
screen,html.Screen,2_1_0_1_43,2022-02-03T14:25:33.694Z,,,,,,,,,,,,,,,,,53,,,,,,,,,,,,,,556.721000011923,,response,,,,99,,,,,,,Space,keypress(Space),,,,,,,,---- -- ----- -- ------ - ------- --- ----------<br>------------- ------ ------ ---- ---- ------- ----- -- ----<br>-------- ------- -- ---------- --- - --- ----- ----- ----<br>---- --- --- ----- --- ---- ---- ------- ----- ---- -------<br>--- --- -- ----- as --- ---- -- --- ---- -- ------ ------<br>--- ----- -- ----,210379.19999998808,210378.30000001192,209804.866,209807.10000002384,209821.579,210387.853,,43,as
screen,html.Screen,2_1_0_1_44,2022-02-03T14:25:34.594Z,,,,,,,,,,,,,,,,,53,,,,,,,,,,,,,,889.9470000119181,,response,,,,99,,,,,,,Space,keypress(Space),,,,,,,,---- -- ----- -- ------ - ------- --- ----------<br>------------- ------ ------ ---- ---- ------- ----- -- ----<br>-------- ------- -- ---------- --- - --- ----- ----- ----<br>---- --- --- ----- --- ---- ---- ------- ----- ---- -------<br>--- --- -- ----- -- you ---- -- --- ---- -- ------ ------<br>--- ----- -- ----,211279.5,211277.80000001192,210371.192,210379.40000003576,210387.853,211287.376,,44,you
screen,html.Screen,2_1_0_1_45,2022-02-03T14:25:35.378Z,,,,,,,,,,,,,,,,,53,,,,,,,,,,,,,,774.6240000000107,,response,,,,99,,,,,,,Space,keypress(Space),,,,,,,,---- -- ----- -- ------ - ------- --- ----------<br>------------- ------ ------ ---- ---- ------- ----- -- ----<br>-------- ------- -- ---------- --- - --- ----- ----- ----<br>---- --- --- ----- --- ---- ---- ------- ----- ---- -------<br>--- --- -- ----- -- --- want -- --- ---- -- ------ ------<br>--- ----- -- ----,212062.69999998808,212062,211270.788,211279.90000003576,211287.376,212070.256,,45,want
screen,html.Screen,2_1_0_1_46,2022-02-03T14:25:36.001Z,,,,,,,,,,,,,,,,,53,,,,,,,,,,,,,,615.4439999880851,,response,,,,99,,,,,,,Space,keypress(Space),,,,,,,,---- -- ----- -- ------ - ------- --- ----------<br>------------- ------ ------ ---- ---- ------- ----- -- ----<br>-------- ------- -- ---------- --- - --- ----- ----- ----<br>---- --- --- ----- --- ---- ---- ------- ----- ---- -------<br>--- --- -- ----- -- --- ---- to --- ---- -- ------ ------<br>--- ----- -- ----,212686.40000003576,212685.69999998808,212053.554,212062.80000001192,212070.256,212703.158,,46,to
screen,html.Screen,2_1_0_1_47,2022-02-03T14:25:36.756Z,,,,,,,,,,,,,,,,,53,,,,,,,,,,,,,,737.0419999880833,,response,,,,99,,,,,,,Space,keypress(Space),,,,,,,,"---- -- ----- -- ------ - ------- --- ----------<br>------------- ------ ------ ---- ---- ------- ----- -- ----<br>-------- ------- -- ---------- --- - --- ----- ----- ----<br>---- --- --- ----- --- ---- ---- ------- ----- ---- -------<br>--- --- -- ----- -- --- ---- -- be, ---- -- ------ ------<br>--- ----- -- ----",213440.80000001192,213440.19999998808,212686.494,212686.5,212703.158,213452.814,,47,"be,"
screen,html.Screen,2_1_0_1_48,2022-02-03T14:25:37.594Z,,,,,,,,,,,,,,,,,53,,,,,,,,,,,,,,825.5860000357497,,response,,,,99,,,,,,,Space,keypress(Space),,,,,,,,---- -- ----- -- ------ - ------- --- ----------<br>------------- ------ ------ ---- ---- ------- ----- -- ----<br>-------- ------- -- ---------- --- - --- ----- ----- ----<br>---- --- --- ----- --- ---- ---- ------- ----- ---- -------<br>--- --- -- ----- -- --- ---- -- --- even -- ------ ------<br>--- ----- -- ----,214279.10000002384,214278.40000003576,213436.078,213440.90000003576,213452.814,214285.613,,48,even
screen,html.Screen,2_1_0_1_49,2022-02-03T14:25:38.521Z,,,,,,,,,,,,,,,,,53,,,,,,,,,,,,,,920.086999988067,,response,,,,99,,,,,,,Space,keypress(Space),,,,,,,,---- -- ----- -- ------ - ------- --- ----------<br>------------- ------ ------ ---- ---- ------- ----- -- ----<br>-------- ------- -- ---------- --- - --- ----- ----- ----<br>---- --- --- ----- --- ---- ---- ------- ----- ---- -------<br>--- --- -- ----- -- --- ---- -- --- ---- if ------ ------<br>--- ----- -- ----,215206.40000003576,215205.69999998808,214268.895,214279.19999998808,214285.613,215218.396,,49,if
screen,html.Screen,2_1_0_1_50,2022-02-03T14:25:39.278Z,,,,,,,,,,,,,,,,,53,,,,,,,,,,,,,,743.5040000357549,,response,,,,99,,,,,,,Space,keypress(Space),,,,,,,,---- -- ----- -- ------ - ------- --- ----------<br>------------- ------ ------ ---- ---- ------- ----- -- ----<br>-------- ------- -- ---------- --- - --- ----- ----- ----<br>---- --- --- ----- --- ---- ---- ------- ----- ---- -------<br>--- --- -- ----- -- --- ---- -- --- ---- -- that's ------<br>--- ----- -- ----,215963.30000001192,215961.90000003576,215201.76,215206.5,215218.396,215967.946,,50,that's
screen,html.Screen,2_1_0_1_51,2022-02-03T14:25:40.095Z,,,,,,,,,,,,,,,,,53,,,,,,,,,,,,,,811.0540000000037,,response,,,,99,,,,,,,Space,keypress(Space),,,,,,,,---- -- ----- -- ------ - ------- --- ----------<br>------------- ------ ------ ---- ---- ------- ----- -- ----<br>-------- ------- -- ---------- --- - --- ----- ----- ----<br>---- --- --- ----- --- ---- ---- ------- ----- ---- -------<br>--- --- -- ----- -- --- ---- -- --- ---- -- ------ really<br>--- ----- -- ----,216779.69999998808,216779,215951.354,215963.80000001192,215967.946,216784.086,,51,really
screen,html.Screen,2_1_0_1_52,2022-02-03T14:25:41.022Z,,,,,,,,,,,,,,,,,53,,,,,,,,,,,,,,922.4139999999898,,response,,,,99,,,,,,,Space,keypress(Space),,,,,,,,---- -- ----- -- ------ - ------- --- ----------<br>------------- ------ ------ ---- ---- ------- ----- -- ----<br>-------- ------- -- ---------- --- - --- ----- ----- ----<br>---- --- --- ----- --- ---- ---- ------- ----- ---- -------<br>--- --- -- ----- -- --- ---- -- --- ---- -- ------ ------<br>not ----- -- ----,217707.30000001192,217706.5,216767.448,216780,216784.086,217716.959,,52,not
screen,html.Screen,2_1_0_1_53,2022-02-03T14:25:41.861Z,,,,,,,,,,,,,,,,,53,,,,,,,,,,,,,,827.6410000238393,,response,,,,99,,,,,,,Space,keypress(Space),,,,,,,,---- -- ----- -- ------ - ------- --- ----------<br>------------- ------ ------ ---- ---- ------- ----- -- ----<br>-------- ------- -- ---------- --- - --- ----- ----- ----<br>---- --- --- ----- --- ---- ---- ------- ----- ---- -------<br>--- --- -- ----- -- --- ---- -- --- ---- -- ------ ------<br>--- close -- ----,218545.80000001192,218544.60000002384,217700.3,217707.5,217716.959,218549.757,,53,close
screen,html.Screen,2_1_0_1_54,2022-02-03T14:25:42.605Z,,,,,,,,,,,,,,,,,53,,,,,,,,,,,,,,740.3430000238295,,response,,,,99,,,,,,,Space,keypress(Space),,,,,,,,---- -- ----- -- ------ - ------- --- ----------<br>------------- ------ ------ ---- ---- ------- ----- -- ----<br>-------- ------- -- ---------- --- - --- ----- ----- ----<br>---- --- --- ----- --- ---- ---- ------- ----- ---- -------<br>--- --- -- ----- -- --- ---- -- --- ---- -- ------ ------<br>--- ----- at ----,219290.60000002384,219290.10000002384,218533.126,218546,218549.757,219299.301,,54,at
screen,html.Screen,2_1_0_1_55,2022-02-03T14:25:44.116Z,,,,,,,,,,,,,,,,,53,,,,,,,,,,,,,,1500.599000035756,,response,,,,99,,,,,,,Space,keypress(Space),,,,,,,,---- -- ----- -- ------ - ------- --- ----------<br>------------- ------ ------ ---- ---- ------- ----- -- ----<br>-------- ------- -- ---------- --- - --- ----- ----- ----<br>---- --- --- ----- --- ---- ---- ------- ----- ---- -------<br>--- --- -- ----- -- --- ---- -- --- ---- -- ------ ------<br>--- ----- -- all.,220800.69999998808,220799.90000003576,219282.706,219290.80000001192,219299.301,220815.08,,55,all.
Item 99,flow.Loop,2_1_0_1,2022-02-03T14:25:44.116Z,,,,,,,,,,,,,,,,,,,,,,,,,,,,,,,44775.29900003577,,completion,,,,,A,,,,,,,,,,,silence,,,,,220801,220799.90000003576,175991.35,175992.5,176024.601,220815.08,,,
Question 1,html.Screen,2_1_0_2,2022-02-03T14:25:57.814Z,,,,,,,,,,,,,,,,,,,,,,,,,,,,true,FALSE,,13682.619999988092,,response,,,,99,A,,,,,,FALSE,click #choice-2,,,,silence,,,,,234499.10000002384,234497.69999998808,220798.41,220801.10000002384,220815.08,234507.041,,,
Question 2,html.Screen,2_1_0_3,2022-02-03T14:26:08.368Z,,,,,,,,,,,,,,,,,,,,,,,,,,,,true,TRUE,,10545.059000023844,,response,,,,99,A,,,,,,TRUE,click #choice-1,,,,silence,,,,,245053.10000002384,245052.10000002384,234490.473,234499.19999998808,234507.041,245067.726,,,
Item 99,flow.Sequence,2_1_0,2022-02-03T14:26:08.368Z,,,,,,,,,,,,,,,,,,,,,,,,,,,,,,,79038.37000002383,,completion,,,,,,,,,,,,,,,,,,,,,245053.40000003576,245052.10000002384,165997.16,166005.5,166013.73,245067.726,,,
Holding screen,html.Screen,2_1_1_0,2022-02-03T14:26:18.361Z,,,,,,,,,,,,,,,,,,,,,,,,,,,,,,,9994.450000000012,,timeout,,,,,,,,,,,,,,,,,,,,,255046.80000001192,255045.217,245051,245053.5,245067.726,255062.176,,,
screen,html.Screen,2_1_1_1_0,2022-02-03T14:26:19.799Z,,,,,,,,,,,,,,,,,54,,,,,,,,,,,,,,1421.8239999999932,,response,,,,100,,,,,,,Space,keypress(Space),,,,,,,,At --- ---- --- ------ ----- ------- ---- -- --- ------- --<br>------- ---------- ------ -- ----- -- ----- -- ---- ------<br>--- ----- --- --- ------ -------- ----- --- ------ ----- --<br>----- ----- ---------- --- --- ------ ------ ---- -- ------<br>------- --- ------ ----- --- ---- ------- -- ---- --- --<br>------- ------,256484.60000002384,256484,255045.217,255047.30000001192,255062.176,256494.277,,0,At
screen,html.Screen,2_1_1_1_1,2022-02-03T14:26:20.962Z,,,,,,,,,,,,,,,,,54,,,,,,,,,,,,,,1152.2229999999981,,response,,,,100,,,,,,,Space,keypress(Space),,,,,,,,-- the ---- --- ------ ----- ------- ---- -- --- ------- --<br>------- ---------- ------ -- ----- -- ----- -- ---- ------<br>--- ----- --- --- ------ -------- ----- --- ------ ----- --<br>----- ----- ---------- --- --- ------ ------ ---- -- ------<br>------- --- ------ ----- --- ---- ------- -- ---- --- --<br>------- ------,257647.19999998808,257646.5,256477.635,256484.69999998808,256494.277,257660.338,,1,the
screen,html.Screen,2_1_1_1_2,2022-02-03T14:26:21.566Z,,,,,,,,,,,,,,,,,54,,,,,,,,,,,,,,589.562000035774,,response,,,,100,,,,,,,Space,keypress(Space),,,,,,,,-- --- time --- ------ ----- ------- ---- -- --- ------- --<br>------- ---------- ------ -- ----- -- ----- -- ---- ------<br>--- ----- --- --- ------ -------- ----- --- ------ ----- --<br>----- ----- ---------- --- --- ------ ------ ---- -- ------<br>------- --- ------ ----- --- ---- ------- -- ---- --- --<br>------- ------,258251.5,258249.90000003576,257643.593,257647.30000001192,257660.338,258259.949,,2,time
screen,html.Screen,2_1_1_1_3,2022-02-03T14:26:22.107Z,,,,,,,,,,,,,,,,,54,,,,,,,,,,,,,,531.3510000119277,,response,,,,100,,,,,,,Space,keypress(Space),,,,,,,,-- --- ---- the ------ ----- ------- ---- -- --- ------- --<br>------- ---------- ------ -- ----- -- ----- -- ---- ------<br>--- ----- --- --- ------ -------- ----- --- ------ ----- --<br>----- ----- ---------- --- --- ------ ------ ---- -- ------<br>------- --- ------ ----- --- ---- ------- -- ---- --- --<br>------- ------,258792.69999998808,258791.30000001192,258243.512,258251.80000001192,258259.949,258809.706,,3,the
screen,html.Screen,2_1_1_1_4,2022-02-03T14:26:22.770Z,,,,,,,,,,,,,,,,,54,,,,,,,,,,,,,,645.1940000357572,,response,,,,100,,,,,,,Space,keypress(Space),,,,,,,,-- --- ---- --- French ----- ------- ---- -- --- ------- --<br>------- ---------- ------ -- ----- -- ----- -- ---- ------<br>--- ----- --- --- ------ -------- ----- --- ------ ----- --<br>----- ----- ---------- --- --- ------ ------ ---- -- ------<br>------- --- ------ ----- --- ---- ------- -- ---- --- --<br>------- ------,259455.69999998808,259454.90000003576,258792.991,258794.19999998808,258809.706,259459.153,,4,French
screen,html.Screen,2_1_1_1_5,2022-02-03T14:26:23.303Z,,,,,,,,,,,,,,,,,54,,,,,,,,,,,,,,527.7470000357716,,response,,,,100,,,,,,,Space,keypress(Space),,,,,,,,-- --- ---- --- ------ crown ------- ---- -- --- ------- --<br>------- ---------- ------ -- ----- -- ----- -- ---- ------<br>--- ----- --- --- ------ -------- ----- --- ------ ----- --<br>----- ----- ---------- --- --- ------ ------ ---- -- ------<br>------- --- ------ ----- --- ---- ------- -- ---- --- --<br>------- ------,259988.80000001192,259986.90000003576,259442.554,259455.80000001192,259459.153,259992.276,,5,crown
screen,html.Screen,2_1_1_1_6,2022-02-03T14:26:24.219Z,,,,,,,,,,,,,,,,,54,,,,,,,,,,,,,,911.1240000357502,,response,,,,100,,,,,,,Space,keypress(Space),,,,,,,,-- --- ---- --- ------ ----- secured ---- -- --- ------- --<br>------- ---------- ------ -- ----- -- ----- -- ---- ------<br>--- ----- --- --- ------ -------- ----- --- ------ ----- --<br>----- ----- ---------- --- --- ------ ------ ---- -- ------<br>------- --- ------ ----- --- ---- ------- -- ---- --- --<br>------- ------,260904,260903.40000003576,259975.673,259989.10000002384,259992.276,260908.321,,6,secured
screen,html.Screen,2_1_1_1_7,2022-02-03T14:26:25.295Z,,,,,,,,,,,,,,,,,54,,,,,,,,,,,,,,1069.5790000357665,,response,,,,100,,,,,,,Space,keypress(Space),,,,,,,,-- --- ---- --- ------ ----- ------- much -- --- ------- --<br>------- ---------- ------ -- ----- -- ----- -- ---- ------<br>--- ----- --- --- ------ -------- ----- --- ------ ----- --<br>----- ----- ---------- --- --- ------ ------ ---- -- ------<br>------- --- ------ ----- --- ---- ------- -- ---- --- --<br>------- ------,261980,261977.90000003576,260891.678,260904.19999998808,260908.321,261991.066,,7,much
screen,html.Screen,2_1_1_1_8,2022-02-03T14:26:25.977Z,,,,,,,,,,,,,,,,,54,,,,,,,,,,,,,,669.5340000238502,,response,,,,100,,,,,,,Space,keypress(Space),,,,,,,,-- --- ---- --- ------ ----- ------- ---- of --- ------- --<br>------- ---------- ------ -- ----- -- ----- -- ---- ------<br>--- ----- --- --- ------ -------- ----- --- ------ ----- --<br>----- ----- ---------- --- --- ------ ------ ---- -- ------<br>------- --- ------ ----- --- ---- ------- -- ---- --- --<br>------- ------,262662.90000003576,262660.60000002384,261974.448,261980.19999998808,261991.066,262674.006,,8,of
screen,html.Screen,2_1_1_1_9,2022-02-03T14:26:26.700Z,,,,,,,,,,,,,,,,,54,,,,,,,,,,,,,,710.294000011927,,response,,,,100,,,,,,,Space,keypress(Space),,,,,,,,-- --- ---- --- ------ ----- ------- ---- -- its ------- --<br>------- ---------- ------ -- ----- -- ----- -- ---- ------<br>--- ----- --- --- ------ -------- ----- --- ------ ----- --<br>----- ----- ---------- --- --- ------ ------ ---- -- ------<br>------- --- ------ ----- --- ---- ------- -- ---- --- --<br>------- ------,263385.1999999881,263384.3000000119,262657.331,262663.60000002384,262674.006,263390.207,,9,its
screen,html.Screen,2_1_1_1_10,2022-02-03T14:26:27.487Z,,,,,,,,,,,,,,,,,54,,,,,,,,,,,,,,781.2930000000051,,response,,,,100,,,,,,,Space,keypress(Space),,,,,,,,-- --- ---- --- ------ ----- ------- ---- -- --- revenue --<br>------- ---------- ------ -- ----- -- ----- -- ---- ------<br>--- ----- --- --- ------ -------- ----- --- ------ ----- --<br>----- ----- ---------- --- --- ------ ------ ---- -- ------<br>------- --- ------ ----- --- ---- ------- -- ---- --- --<br>------- ------,264172.1999999881,264171.5,263373.567,263385.3000000119,263390.207,264173.043,,10,revenue
screen,html.Screen,2_1_1_1_11,2022-02-03T14:26:28.447Z,,,,,,,,,,,,,,,,,54,,,,,,,,,,,,,,958.4569999999949,,response,,,,100,,,,,,,Space,keypress(Space),,,,,,,,-- --- ---- --- ------ ----- ------- ---- -- --- ------- by<br>------- ---------- ------ -- ----- -- ----- -- ---- ------<br>--- ----- --- --- ------ -------- ----- --- ------ ----- --<br>----- ----- ---------- --- --- ------ ------ ---- -- ------<br>------- --- ------ ----- --- ---- ------- -- ---- --- --<br>------- ------,265132.6999999881,265131.5,264156.488,264172.1999999881,264173.043,265139.232,,11,by
screen,html.Screen,2_1_1_1_12,2022-02-03T14:26:29.192Z,,,,,,,,,,,,,,,,,54,,,,,,,,,,,,,,736.7679999999818,,response,,,,100,,,,,,,Space,keypress(Space),,,,,,,,-- --- ---- --- ------ ----- ------- ---- -- --- ------- --<br>issuing ---------- ------ -- ----- -- ----- -- ---- ------<br>--- ----- --- --- ------ -------- ----- --- ------ ----- --<br>----- ----- ---------- --- --- ------ ------ ---- -- ------<br>------- --- ------ ----- --- ---- ------- -- ---- --- --<br>------- ------,265877.3000000119,265876,265122.642,265133.10000002384,265139.232,265888.884,,12,issuing
screen,html.Screen,2_1_1_1_13,2022-02-03T14:26:29.772Z,,,,,,,,,,,,,,,,,54,,,,,,,,,,,,,,567.7160000238218,,response,,,,100,,,,,,,Space,keypress(Space),,,,,,,,-- --- ---- --- ------ ----- ------- ---- -- --- ------- --<br>------- government ------ -- ----- -- ----- -- ---- ------<br>--- ----- --- --- ------ -------- ----- --- ------ ----- --<br>----- ----- ---------- --- --- ------ ------ ---- -- ------<br>------- --- ------ ----- --- ---- ------- -- ---- --- --<br>------- ------,266457.1999999881,266456.60000002384,265872.202,265877.60000002384,265888.884,266471.768,,13,government
screen,html.Screen,2_1_1_1_14,2022-02-03T14:26:30.480Z,,,,,,,,,,,,,,,,,54,,,,,,,,,,,,,,692.7320000000182,,response,,,,100,,,,,,,Space,keypress(Space),,,,,,,,-- --- ---- --- ------ ----- ------- ---- -- --- ------- --<br>------- ---------- bonds. -- ----- -- ----- -- ---- ------<br>--- ----- --- --- ------ -------- ----- --- ------ ----- --<br>----- ----- ---------- --- --- ------ ------ ---- -- ------<br>------- --- ------ ----- --- ---- ------- -- ---- --- --<br>------- ------,267165,267164.5,266455.049,266457.40000003576,266471.768,267171.313,,14,bonds.
screen,html.Screen,2_1_1_1_15,2022-02-03T14:26:31.172Z,,,,,,,,,,,,,,,,,54,,,,,,,,,,,,,,685.9870000118972,,response,,,,100,,,,,,,Space,keypress(Space),,,,,,,,-- --- ---- --- ------ ----- ------- ---- -- --- ------- --<br>------- ---------- ------ In ----- -- ----- -- ---- ------<br>--- ----- --- --- ------ -------- ----- --- ------ ----- --<br>----- ----- ---------- --- --- ------ ------ ---- -- ------<br>------- --- ------ ----- --- ---- ------- -- ---- --- --<br>------- ------,267857.8000000119,267857.3000000119,267154.639,267165.1999999881,267171.313,267870.976,,15,In
screen,html.Screen,2_1_1_1_16,2022-02-03T14:26:32.102Z,,,,,,,,,,,,,,,,,54,,,,,,,,,,,,,,915.4240000357386,,response,,,,100,,,,,,,Space,keypress(Space),,,,,,,,"-- --- ---- --- ------ ----- ------- ---- -- --- ------- --<br>------- ---------- ------ -- 1727, -- ----- -- ---- ------<br>--- ----- --- --- ------ -------- ----- --- ------ ----- --<br>----- ----- ---------- --- --- ------ ------ ---- -- ------<br>------- --- ------ ----- --- ---- ------- -- ---- --- --<br>------- ------",268787.8000000119,268786.40000003576,267854.298,267857.90000003576,267870.976,268803.718,,16,"1727,"
screen,html.Screen,2_1_1_1_17,2022-02-03T14:26:32.985Z,,,,,,,,,,,,,,,,,54,,,,,,,,,,,,,,865.3820000238484,,response,,,,100,,,,,,,Space,keypress(Space),,,,,,,,-- --- ---- --- ------ ----- ------- ---- -- --- ------- --<br>------- ---------- ------ -- ----- in ----- -- ---- ------<br>--- ----- --- --- ------ -------- ----- --- ------ ----- --<br>----- ----- ---------- --- --- ------ ------ ---- -- ------<br>------- --- ------ ----- --- ---- ------- -- ---- --- --<br>------- ------,269670.1999999881,269669.10000002384,268787.045,268788.40000003576,268803.718,269686.58,,17,in
screen,html.Screen,2_1_1_1_18,2022-02-03T14:26:33.882Z,,,,,,,,,,,,,,,,,54,,,,,,,,,,,,,,879.9199999999837,,response,,,,100,,,,,,,Space,keypress(Space),,,,,,,,-- --- ---- --- ------ ----- ------- ---- -- --- ------- --<br>------- ---------- ------ -- ----- -- order -- ---- ------<br>--- ----- --- --- ------ -------- ----- --- ------ ----- --<br>----- ----- ---------- --- --- ------ ------ ---- -- ------<br>------- --- ------ ----- --- ---- ------- -- ---- --- --<br>------- ------,270567.40000003576,270566.5,269669.851,269670.40000003576,269686.58,270569.352,,18,order
screen,html.Screen,2_1_1_1_19,2022-02-03T14:26:34.649Z,,,,,,,,,,,,,,,,,54,,,,,,,,,,,,,,764.4480000119074,,response,,,,100,,,,,,,Space,keypress(Space),,,,,,,,-- --- ---- --- ------ ----- ------- ---- -- --- ------- --<br>------- ---------- ------ -- ----- -- ----- to ---- ------<br>--- ----- --- --- ------ -------- ----- --- ------ ----- --<br>----- ----- ---------- --- --- ------ ------ ---- -- ------<br>------- --- ------ ----- --- ---- ------- -- ---- --- --<br>------- ------,271334.8000000119,271333.8000000119,270552.709,270567.60000002384,270569.352,271335.565,,19,to
screen,html.Screen,2_1_1_1_20,2022-02-03T14:26:35.189Z,,,,,,,,,,,,,,,,,54,,,,,,,,,,,,,,538.2350000119186,,response,,,,100,,,,,,,Space,keypress(Space),,,,,,,,-- --- ---- --- ------ ----- ------- ---- -- --- ------- --<br>------- ---------- ------ -- ----- -- ----- -- save ------<br>--- ----- --- --- ------ -------- ----- --- ------ ----- --<br>----- ----- ---------- --- --- ------ ------ ---- -- ------<br>------- --- ------ ----- --- ---- ------- -- ---- --- --<br>------- ------,271874.5,271873.8000000119,271318.967,271335,271335.565,271885.317,,20,save
screen,html.Screen,2_1_1_1_21,2022-02-03T14:26:35.781Z,,,,,,,,,,,,,,,,,54,,,,,,,,,,,,,,579.8829999880982,,response,,,,100,,,,,,,Space,keypress(Space),,,,,,,,"-- --- ---- --- ------ ----- ------- ---- -- --- ------- --<br>------- ---------- ------ -- ----- -- ----- -- ---- money,<br>--- ----- --- --- ------ -------- ----- --- ------ ----- --<br>----- ----- ---------- --- --- ------ ------ ---- -- ------<br>------- --- ------ ----- --- ---- ------- -- ---- --- --<br>------- ------",272466.10000002384,272465.1999999881,271868.582,271874.60000002384,271885.317,272468.227,,21,"money,"
screen,html.Screen,2_1_1_1_22,2022-02-03T14:26:36.508Z,,,,,,,,,,,,,,,,,54,,,,,,,,,,,,,,724.1730000357493,,response,,,,100,,,,,,,Space,keypress(Space),,,,,,,,-- --- ---- --- ------ ----- ------- ---- -- --- ------- --<br>------- ---------- ------ -- ----- -- ----- -- ---- ------<br>the ----- --- --- ------ -------- ----- --- ------ ----- --<br>----- ----- ---------- --- --- ------ ------ ---- -- ------<br>------- --- ------ ----- --- ---- ------- -- ---- --- --<br>------- ------,273194,273192.40000003576,272451.582,272466.1999999881,272468.227,273201.194,,22,the
screen,html.Screen,2_1_1_1_23,2022-02-03T14:26:37.191Z,,,,,,,,,,,,,,,,,54,,,,,,,,,,,,,,674.0059999880614,,response,,,,100,,,,,,,Space,keypress(Space),,,,,,,,-- --- ---- --- ------ ----- ------- ---- -- --- ------- --<br>------- ---------- ------ -- ----- -- ----- -- ---- ------<br>--- state --- --- ------ -------- ----- --- ------ ----- --<br>----- ----- ---------- --- --- ------ ------ ---- -- ------<br>------- --- ------ ----- --- ---- ------- -- ---- --- --<br>------- ------,273876.6999999881,273875.1999999881,273184.598,273194.1999999881,273201.194,273884.137,,23,state
screen,html.Screen,2_1_1_1_24,2022-02-03T14:26:37.793Z,,,,,,,,,,,,,,,,,54,,,,,,,,,,,,,,593.0629999880912,,response,,,,100,,,,,,,Space,keypress(Space),,,,,,,,-- --- ---- --- ------ ----- ------- ---- -- --- ------- --<br>------- ---------- ------ -- ----- -- ----- -- ---- ------<br>--- ----- cut --- ------ -------- ----- --- ------ ----- --<br>----- ----- ---------- --- --- ------ ------ ---- -- ------<br>------- --- ------ ----- --- ---- ------- -- ---- --- --<br>------- ------,274478.5,274477.1999999881,273867.508,273876.90000003576,273884.137,274483.725,,24,cut
screen,html.Screen,2_1_1_1_25,2022-02-03T14:26:38.509Z,,,,,,,,,,,,,,,,,54,,,,,,,,,,,,,,709.8750000238651,,response,,,,100,,,,,,,Space,keypress(Space),,,,,,,,-- --- ---- --- ------ ----- ------- ---- -- --- ------- --<br>------- ---------- ------ -- ----- -- ----- -- ---- ------<br>--- ----- --- the ------ -------- ----- --- ------ ----- --<br>----- ----- ---------- --- --- ------ ------ ---- -- ------<br>------- --- ------ ----- --- ---- ------- -- ---- --- --<br>------- ------,275194.5,275193.60000002384,274467.13,274478.6999999881,274483.725,275200.177,,25,the
screen,html.Screen,2_1_1_1_26,2022-02-03T14:26:39.273Z,,,,,,,,,,,,,,,,,54,,,,,,,,,,,,,,757.1230000118958,,response,,,,100,,,,,,,Space,keypress(Space),,,,,,,,-- --- ---- --- ------ ----- ------- ---- -- --- ------- --<br>------- ---------- ------ -- ----- -- ----- -- ---- ------<br>--- ----- --- --- bonds' -------- ----- --- ------ ----- --<br>----- ----- ---------- --- --- ------ ------ ---- -- ------<br>------- --- ------ ----- --- ---- ------- -- ---- --- --<br>------- ------,275958.1999999881,275957.3000000119,275183.336,275194.6999999881,275200.177,275966.239,,26,bonds'
screen,html.Screen,2_1_1_1_27,2022-02-03T14:26:39.956Z,,,,,,,,,,,,,,,,,54,,,,,,,,,,,,,,674.7609999999986,,response,,,,100,,,,,,,Space,keypress(Space),,,,,,,,-- --- ---- --- ------ ----- ------- ---- -- --- ------- --<br>------- ---------- ------ -- ----- -- ----- -- ---- ------<br>--- ----- --- --- ------ interest ----- --- ------ ----- --<br>----- ----- ---------- --- --- ------ ------ ---- -- ------<br>------- --- ------ ----- --- ---- ------- -- ---- --- --<br>------- ------,276641.8000000119,276641,275949.569,275958.3000000119,275966.239,276649.12,,27,interest
screen,html.Screen,2_1_1_1_28,2022-02-03T14:26:40.625Z,,,,,,,,,,,,,,,,,54,,,,,,,,,,,,,,660.2800000357674,,response,,,,100,,,,,,,Space,keypress(Space),,,,,,,,-- --- ---- --- ------ ----- ------- ---- -- --- ------- --<br>------- ---------- ------ -- ----- -- ----- -- ---- ------<br>--- ----- --- --- ------ -------- rate. --- ------ ----- --<br>----- ----- ---------- --- --- ------ ------ ---- -- ------<br>------- --- ------ ----- --- ---- ------- -- ---- --- --<br>------- ------,277311,277309.40000003576,276632.454,276641.90000003576,276649.12,277315.491,,28,rate.
screen,html.Screen,2_1_1_1_29,2022-02-03T14:26:41.326Z,,,,,,,,,,,,,,,,,54,,,,,,,,,,,,,,695.2089999880991,,response,,,,100,,,,,,,Space,keypress(Space),,,,,,,,-- --- ---- --- ------ ----- ------- ---- -- --- ------- --<br>------- ---------- ------ -- ----- -- ----- -- ---- ------<br>--- ----- --- --- ------ -------- ----- The ------ ----- --<br>----- ----- ---------- --- --- ------ ------ ---- -- ------<br>------- --- ------ ----- --- ---- ------- -- ---- --- --<br>------- ------,278011.3000000119,278010.6999999881,277298.868,277311.3000000119,277315.491,278014.979,,29,The
screen,html.Screen,2_1_1_1_30,2022-02-03T14:26:41.938Z,,,,,,,,,,,,,,,,,54,,,,,,,,,,,,,,607.720999988087,,response,,,,100,,,,,,,Space,keypress(Space),,,,,,,,-- --- ---- --- ------ ----- ------- ---- -- --- ------- --<br>------- ---------- ------ -- ----- -- ----- -- ---- ------<br>--- ----- --- --- ------ -------- ----- --- market ----- --<br>----- ----- ---------- --- --- ------ ------ ---- -- ------<br>------- --- ------ ----- --- ---- ------- -- ---- --- --<br>------- ------,278623.8000000119,278622.6999999881,277998.312,278011.40000003576,278014.979,278631.365,,30,market
screen,html.Screen,2_1_1_1_31,2022-02-03T14:26:42.499Z,,,,,,,,,,,,,,,,,54,,,,,,,,,,,,,,552.8349999880884,,response,,,,100,,,,,,,Space,keypress(Space),,,,,,,,-- --- ---- --- ------ ----- ------- ---- -- --- ------- --<br>------- ---------- ------ -- ----- -- ----- -- ---- ------<br>--- ----- --- --- ------ -------- ----- --- ------ value --<br>----- ----- ---------- --- --- ------ ------ ---- -- ------<br>------- --- ------ ----- --- ---- ------- -- ---- --- --<br>------- ------,279184.90000003576,279184.1999999881,278614.692,278624,278631.365,279197.706,,31,value
screen,html.Screen,2_1_1_1_32,2022-02-03T14:26:43.020Z,,,,,,,,,,,,,,,,,54,,,,,,,,,,,,,,506.59400001191534,,response,,,,100,,,,,,,Space,keypress(Space),,,,,,,,-- --- ---- --- ------ ----- ------- ---- -- --- ------- --<br>------- ---------- ------ -- ----- -- ----- -- ---- ------<br>--- ----- --- --- ------ -------- ----- --- ------ ----- of<br>----- ----- ---------- --- --- ------ ------ ---- -- ------<br>------- --- ------ ----- --- ---- ------- -- ---- --- --<br>------- ------,279705.10000002384,279704.3000000119,279181.043,279185,279197.706,279714.052,,32,of
screen,html.Screen,2_1_1_1_33,2022-02-03T14:26:43.553Z,,,,,,,,,,,,,,,,,54,,,,,,,,,,,,,,523.6479999880539,,response,,,,100,,,,,,,Space,keypress(Space),,,,,,,,-- --- ---- --- ------ ----- ------- ---- -- --- ------- --<br>------- ---------- ------ -- ----- -- ----- -- ---- ------<br>--- ----- --- --- ------ -------- ----- --- ------ ----- --<br>these ----- ---------- --- --- ------ ------ ---- -- ------<br>------- --- ------ ----- --- ---- ------- -- ---- --- --<br>------- ------,280238.5,280237.6999999881,279697.421,279705.1999999881,279714.052,280247.054,,33,these
screen,html.Screen,2_1_1_1_34,2022-02-03T14:26:44.032Z,,,,,,,,,,,,,,,,,54,,,,,,,,,,,,,,469.14599998807535,,response,,,,100,,,,,,,Space,keypress(Space),,,,,,,,-- --- ---- --- ------ ----- ------- ---- -- --- ------- --<br>------- ---------- ------ -- ----- -- ----- -- ---- ------<br>--- ----- --- --- ------ -------- ----- --- ------ ----- --<br>----- bonds ---------- --- --- ------ ------ ---- -- ------<br>------- --- ------ ----- --- ---- ------- -- ---- --- --<br>------- ------,280717.8000000119,280716.1999999881,280230.409,280238.60000002384,280247.054,280730.078,,34,bonds
screen,html.Screen,2_1_1_1_35,2022-02-03T14:26:44.666Z,,,,,,,,,,,,,,,,,54,,,,,,,,,,,,,,620.2220000119414,,response,,,,100,,,,,,,Space,keypress(Space),,,,,,,,"-- --- ---- --- ------ ----- ------- ---- -- --- ------- --<br>------- ---------- ------ -- ----- -- ----- -- ---- ------<br>--- ----- --- --- ------ -------- ----- --- ------ ----- --<br>----- ----- plummeted, --- --- ------ ------ ---- -- ------<br>------- --- ------ ----- --- ---- ------- -- ---- --- --<br>------- ------",281351.3000000119,281350.3000000119,280713.477,280718.90000003576,280730.078,281363.114,,35,"plummeted,"
screen,html.Screen,2_1_1_1_36,2022-02-03T14:26:45.176Z,,,,,,,,,,,,,,,,,54,,,,,,,,,,,,,,497.3859999999986,,response,,,,100,,,,,,,Space,keypress(Space),,,,,,,,-- --- ---- --- ------ ----- ------- ---- -- --- ------- --<br>------- ---------- ------ -- ----- -- ----- -- ---- ------<br>--- ----- --- --- ------ -------- ----- --- ------ ----- --<br>----- ----- ---------- and --- ------ ------ ---- -- ------<br>------- --- ------ ----- --- ---- ------- -- ---- --- --<br>------- ------,281861.3000000119,281860.5,281346.467,281351.60000002384,281363.114,281862.753,,36,and
screen,html.Screen,2_1_1_1_37,2022-02-03T14:26:46.001Z,,,,,,,,,,,,,,,,,54,,,,,,,,,,,,,,823.446999988053,,response,,,,100,,,,,,,Space,keypress(Space),,,,,,,,-- --- ---- --- ------ ----- ------- ---- -- --- ------- --<br>------- ---------- ------ -- ----- -- ----- -- ---- ------<br>--- ----- --- --- ------ -------- ----- --- ------ ----- --<br>----- ----- ---------- --- the ------ ------ ---- -- ------<br>------- --- ------ ----- --- ---- ------- -- ---- --- --<br>------- ------,282686.90000003576,282686.1999999881,281846.174,281861.40000003576,281862.753,282695.602,,37,the
screen,html.Screen,2_1_1_1_38,2022-02-03T14:26:47.167Z,,,,,,,,,,,,,,,,,54,,,,,,,,,,,,,,1155.8979999999865,,response,,,,100,,,,,,,Space,keypress(Space),,,,,,,,-- --- ---- --- ------ ----- ------- ---- -- --- ------- --<br>------- ---------- ------ -- ----- -- ----- -- ---- ------<br>--- ----- --- --- ------ -------- ----- --- ------ ----- --<br>----- ----- ---------- --- --- market ------ ---- -- ------<br>------- --- ------ ----- --- ---- ------- -- ---- --- --<br>------- ------,283852.10000002384,283851.5,282678.911,282687.10000002384,282695.602,283861.615,,38,market
screen,html.Screen,2_1_1_1_39,2022-02-03T14:26:47.895Z,,,,,,,,,,,,,,,,,54,,,,,,,,,,,,,,718.4850000238512,,response,,,,100,,,,,,,Space,keypress(Space),,,,,,,,-- --- ---- --- ------ ----- ------- ---- -- --- ------- --<br>------- ---------- ------ -- ----- -- ----- -- ---- ------<br>--- ----- --- --- ------ -------- ----- --- ------ ----- --<br>----- ----- ---------- --- --- ------ became ---- -- ------<br>------- --- ------ ----- --- ---- ------- -- ---- --- --<br>------- ------,284580.8000000119,284580.10000002384,283844.939,283852.1999999881,283861.615,284594.515,,39,became
screen,html.Screen,2_1_1_1_40,2022-02-03T14:26:48.595Z,,,,,,,,,,,,,,,,,54,,,,,,,,,,,,,,681.5850000238279,,response,,,,100,,,,,,,Space,keypress(Space),,,,,,,,-- --- ---- --- ------ ----- ------- ---- -- --- ------- --<br>------- ---------- ------ -- ----- -- ----- -- ---- ------<br>--- ----- --- --- ------ -------- ----- --- ------ ----- --<br>----- ----- ---------- --- --- ------ ------ wary -- ------<br>------- --- ------ ----- --- ---- ------- -- ---- --- --<br>------- ------,285280,285276.10000002384,284577.819,284581,284594.515,285294.158,,40,wary
screen,html.Screen,2_1_1_1_41,2022-02-03T14:26:49.134Z,,,,,,,,,,,,,,,,,54,,,,,,,,,,,,,,524.5419999880833,,response,,,,100,,,,,,,Space,keypress(Space),,,,,,,,-- --- ---- --- ------ ----- ------- ---- -- --- ------- --<br>------- ---------- ------ -- ----- -- ----- -- ---- ------<br>--- ----- --- --- ------ -------- ----- --- ------ ----- --<br>----- ----- ---------- --- --- ------ ------ ---- of ------<br>------- --- ------ ----- --- ---- ------- -- ---- --- --<br>------- ------,285819.60000002384,285818.6999999881,285277.431,285280.3000000119,285294.158,285827.135,,41,of
screen,html.Screen,2_1_1_1_42,2022-02-03T14:26:49.837Z,,,,,,,,,,,,,,,,,54,,,,,,,,,,,,,,694.6650000119116,,response,,,,100,,,,,,,Space,keypress(Space),,,,,,,,-- --- ---- --- ------ ----- ------- ---- -- --- ------- --<br>------- ---------- ------ -- ----- -- ----- -- ---- ------<br>--- ----- --- --- ------ -------- ----- --- ------ ----- --<br>----- ----- ---------- --- --- ------ ------ ---- -- French<br>------- --- ------ ----- --- ---- ------- -- ---- --- --<br>------- ------,286522.8000000119,286521.8000000119,285810.508,285819.8000000119,285827.135,286526.698,,42,French
screen,html.Screen,2_1_1_1_43,2022-02-03T14:26:50.480Z,,,,,,,,,,,,,,,,,54,,,,,,,,,,,,,,638.1020000119461,,response,,,,100,,,,,,,Space,keypress(Space),,,,,,,,-- --- ---- --- ------ ----- ------- ---- -- --- ------- --<br>------- ---------- ------ -- ----- -- ----- -- ---- ------<br>--- ----- --- --- ------ -------- ----- --- ------ ----- --<br>----- ----- ---------- --- --- ------ ------ ---- -- ------<br>credit. --- ------ ----- --- ---- ------- -- ---- --- --<br>------- ------,287165.6999999881,287164.8000000119,286510.032,286523,286526.698,287176.383,,43,credit.
screen,html.Screen,2_1_1_1_44,2022-02-03T14:26:51.045Z,,,,,,,,,,,,,,,,,54,,,,,,,,,,,,,,552.6170000000275,,response,,,,100,,,,,,,Space,keypress(Space),,,,,,,,-- --- ---- --- ------ ----- ------- ---- -- --- ------- --<br>------- ---------- ------ -- ----- -- ----- -- ---- ------<br>--- ----- --- --- ------ -------- ----- --- ------ ----- --<br>----- ----- ---------- --- --- ------ ------ ---- -- ------<br>------- The ------ ----- --- ---- ------- -- ---- --- --<br>------- ------,287730.40000003576,287729,287159.674,287165.8000000119,287176.383,287742.733,,44,The
screen,html.Screen,2_1_1_1_45,2022-02-03T14:26:51.663Z,,,,,,,,,,,,,,,,,54,,,,,,,,,,,,,,604.9669999880716,,response,,,,100,,,,,,,Space,keypress(Space),,,,,,,,-- --- ---- --- ------ ----- ------- ---- -- --- ------- --<br>------- ---------- ------ -- ----- -- ----- -- ---- ------<br>--- ----- --- --- ------ -------- ----- --- ------ ----- --<br>----- ----- ---------- --- --- ------ ------ ---- -- ------<br>------- --- French ----- --- ---- ------- -- ---- --- --<br>------- ------,288348.6999999881,288347.6999999881,287726.05,287730.60000002384,287742.733,288358.978,,45,French
screen,html.Screen,2_1_1_1_46,2022-02-03T14:26:52.174Z,,,,,,,,,,,,,,,,,54,,,,,,,,,,,,,,498.5219999999972,,response,,,,100,,,,,,,Space,keypress(Space),,,,,,,,-- --- ---- --- ------ ----- ------- ---- -- --- ------- --<br>------- ---------- ------ -- ----- -- ----- -- ---- ------<br>--- ----- --- --- ------ -------- ----- --- ------ ----- --<br>----- ----- ---------- --- --- ------ ------ ---- -- ------<br>------- --- ------ state --- ---- ------- -- ---- --- --<br>------- ------,288859.8000000119,288857.5,288342.332,288348.8000000119,288358.978,288875.388,,46,state
screen,html.Screen,2_1_1_1_47,2022-02-03T14:26:52.710Z,,,,,,,,,,,,,,,,,54,,,,,,,,,,,,,,516.3119999881019,,response,,,,100,,,,,,,Space,keypress(Space),,,,,,,,-- --- ---- --- ------ ----- ------- ---- -- --- ------- --<br>------- ---------- ------ -- ----- -- ----- -- ---- ------<br>--- ----- --- --- ------ -------- ----- --- ------ ----- --<br>----- ----- ---------- --- --- ------ ------ ---- -- ------<br>------- --- ------ ----- was ---- ------- -- ---- --- --<br>------- ------,289395,289391.6999999881,288858.691,288860.10000002384,288875.388,289408.409,,47,was
screen,html.Screen,2_1_1_1_48,2022-02-03T14:26:53.249Z,,,,,,,,,,,,,,,,,54,,,,,,,,,,,,,,524.290999988094,,response,,,,100,,,,,,,Space,keypress(Space),,,,,,,,-- --- ---- --- ------ ----- ------- ---- -- --- ------- --<br>------- ---------- ------ -- ----- -- ----- -- ---- ------<br>--- ----- --- --- ------ -------- ----- --- ------ ----- --<br>----- ----- ---------- --- --- ------ ------ ---- -- ------<br>------- --- ------ ----- --- left ------- -- ---- --- --<br>------- ------,289934.90000003576,289932.6999999881,289391.77,289395.3000000119,289408.409,289941.401,,48,left
screen,html.Screen,2_1_1_1_49,2022-02-03T14:26:53.809Z,,,,,,,,,,,,,,,,,54,,,,,,,,,,,,,,552.2989999880665,,response,,,,100,,,,,,,Space,keypress(Space),,,,,,,,-- --- ---- --- ------ ----- ------- ---- -- --- ------- --<br>------- ---------- ------ -- ----- -- ----- -- ---- ------<br>--- ----- --- --- ------ -------- ----- --- ------ ----- --<br>----- ----- ---------- --- --- ------ ------ ---- -- ------<br>------- --- ------ ----- --- ---- without -- ---- --- --<br>------- ------,290494.90000003576,290493.6999999881,289924.843,289935.3000000119,289941.401,290507.779,,49,without
screen,html.Screen,2_1_1_1_50,2022-02-03T14:26:54.291Z,,,,,,,,,,,,,,,,,54,,,,,,,,,,,,,,466.0210000119405,,response,,,,100,,,,,,,Space,keypress(Space),,,,,,,,-- --- ---- --- ------ ----- ------- ---- -- --- ------- --<br>------- ---------- ------ -- ----- -- ----- -- ---- ------<br>--- ----- --- --- ------ -------- ----- --- ------ ----- --<br>----- ----- ---------- --- --- ------ ------ ---- -- ------<br>------- --- ------ ----- --- ---- ------- an ---- --- --<br>------- ------,290976.60000002384,290973.8000000119,290491.106,290495.10000002384,290507.779,290991.042,,50,an
screen,html.Screen,2_1_1_1_51,2022-02-03T14:26:54.820Z,,,,,,,,,,,,,,,,,54,,,,,,,,,,,,,,513.1579999880632,,response,,,,100,,,,,,,Space,keypress(Space),,,,,,,,-- --- ---- --- ------ ----- ------- ---- -- --- ------- --<br>------- ---------- ------ -- ----- -- ----- -- ---- ------<br>--- ----- --- --- ------ -------- ----- --- ------ ----- --<br>----- ----- ---------- --- --- ------ ------ ---- -- ------<br>------- --- ------ ----- --- ---- ------- -- easy --- --<br>------- ------,291505.10000002384,291504.1999999881,290974.136,290977,290991.042,291507.108,,51,easy
screen,html.Screen,2_1_1_1_52,2022-02-03T14:26:55.311Z,,,,,,,,,,,,,,,,,54,,,,,,,,,,,,,,487.6920000119135,,response,,,,100,,,,,,,Space,keypress(Space),,,,,,,,-- --- ---- --- ------ ----- ------- ---- -- --- ------- --<br>------- ---------- ------ -- ----- -- ----- -- ---- ------<br>--- ----- --- --- ------ -------- ----- --- ------ ----- --<br>----- ----- ---------- --- --- ------ ------ ---- -- ------<br>------- --- ------ ----- --- ---- ------- -- ---- way --<br>------- ------,291996.40000003576,291994.8000000119,291490.519,291505.5,291507.108,292006.877,,52,way
screen,html.Screen,2_1_1_1_53,2022-02-03T14:26:55.840Z,,,,,,,,,,,,,,,,,54,,,,,,,,,,,,,,517.5230000357842,,response,,,,100,,,,,,,Space,keypress(Space),,,,,,,,-- --- ---- --- ------ ----- ------- ---- -- --- ------- --<br>------- ---------- ------ -- ----- -- ----- -- ---- ------<br>--- ----- --- --- ------ -------- ----- --- ------ ----- --<br>----- ----- ---------- --- --- ------ ------ ---- -- ------<br>------- --- ------ ----- --- ---- ------- -- ---- --- of<br>------- ------,292525.3000000119,292524.40000003576,291990.273,291999.60000002384,292006.877,292539.943,,53,of
screen,html.Screen,2_1_1_1_54,2022-02-03T14:26:56.932Z,,,,,,,,,,,,,,,,,54,,,,,,,,,,,,,,1076.7569999880507,,response,,,,100,,,,,,,Space,keypress(Space),,,,,,,,-- --- ---- --- ------ ----- ------- ---- -- --- ------- --<br>------- ---------- ------ -- ----- -- ----- -- ---- ------<br>--- ----- --- --- ------ -------- ----- --- ------ ----- --<br>----- ----- ---------- --- --- ------ ------ ---- -- ------<br>------- --- ------ ----- --- ---- ------- -- ---- --- --<br>raising ------,293617.8000000119,293616.6999999881,292523.194,292525.60000002384,292539.943,293622.542,,54,raising
screen,html.Screen,2_1_1_1_55,2022-02-03T14:26:57.771Z,,,,,,,,,,,,,,,,,54,,,,,,,,,,,,,,832.358000035747,,response,,,,100,,,,,,,Space,keypress(Space),,,,,,,,-- --- ---- --- ------ ----- ------- ---- -- --- ------- --<br>------- ---------- ------ -- ----- -- ----- -- ---- ------<br>--- ----- --- --- ------ -------- ----- --- ------ ----- --<br>----- ----- ---------- --- --- ------ ------ ---- -- ------<br>------- --- ------ ----- --- ---- ------- -- ---- --- --<br>------- money.,294456.3000000119,294454.90000003576,293605.94,293618.10000002384,293622.542,294472.129,,55,money.
Item 100,flow.Loop,2_1_1_1,2022-02-03T14:26:57.771Z,,,,,,,,,,,,,,,,,,,,,,,,,,,,,,,39392.724000035756,,completion,,,,,A,,,,,,,,,,,silence,,,,,294456.6999999881,294454.90000003576,255045.217,255047.19999998808,255062.176,294472.129,,,
Question 1,html.Screen,2_1_1_2,2022-02-03T14:27:02.541Z,,,,,,,,,,,,,,,,,,,,,,,,,,,,true,TRUE,,4753.570999988064,,response,,,,100,A,,,,,,TRUE,click #choice-1,,,,silence,,,,,299226.5,299225.6999999881,294455.411,294456.90000003576,294472.129,299235.898,,,
Question 2,html.Screen,2_1_1_3,2022-02-03T14:27:09.107Z,,,,,,,,,,,,,,,,,,,,,,,,,,,,true,FALSE,,6556.1020000000135,,response,,,,100,A,,,,,,FALSE,click #choice-2,,,,silence,,,,,305792.90000003576,305792,299219.263,299226.8000000119,299235.898,305798.708,,,
Item 100,flow.Sequence,2_1_1,2022-02-03T14:27:09.108Z,,,,,,,,,,,,,,,,,,,,,,,,,,,,,,,60724.274000000005,,completion,,,,,,,,,,,,,,,,,,,,,305793.1999999881,305792,245051,245053.5,245067.726,305798.708,,,
End of Practice,html.Page,2_1_2,2022-02-03T14:27:18.189Z,,,,,,,,,,,,,,,,,,,,,,,,,,,,,,,9075.192000035779,,form submission,,,,,,,,,,,,,,,,,,,,,314874.1999999881,314873.90000003576,305782.178,305793.3000000119,305798.708,314876.755,,,
Practice,flow.Sequence,2_1,2022-02-03T14:27:18.189Z,,,,,,,,,,,,,,,,,,,,,,,,,,,,,,,148860.17000003575,,completion,,,,,,,,,,,,,,,,,,,,,314874.40000003576,314873.90000003576,165997.16,166005.30000001192,166013.73,314876.755,,,
Trap_instruction,html.Page,2_2_0,2022-02-03T14:27:26.591Z,,,,,,,,,,,,,,,,,,,,,,,,,,,,,,,8399.244999999995,,form submission,,,,,,,,,,,,,,,,,,,,,323276.40000003576,323276,314860.139,314874.5,314876.755,323288.514,,,
trap_trial,html.Screen,2_2_1,2022-02-03T14:27:29.151Z,,,,,,,,,,,,,,,,,,,,,,,,,,,,true,1,,2547.086000023817,,response,,,,,,,,,,,1,click #choice-1,,,,,,,,,325836.5,325835.60000002384,323271.955,323276.60000002384,323288.514,325837.056,,,
end of trap trial,html.Page,2_2_2,2022-02-03T14:27:32.337Z,,,,,,,,,,,,,,,,,,,,,,,,,,,,,,,3185.2440000119386,,form submission,,,,,,,,,,,,,,,,,,,,,329022.5,329022.3000000119,325820.418,325836.60000002384,325837.056,329035.326,,,
Trap 1,flow.Sequence,2_2,2022-02-03T14:27:32.337Z,,,,,,,,,,,,,,,,,,,,,,,,,,,,,,,14145.545000011916,,completion,,,,,,,,,,,,,,,,,,,,,329022.6999999881,329022.3000000119,314860.139,314874.40000003576,314876.755,329035.326,,,
Standby,html.Page,2_3_0,2022-02-03T14:27:40.330Z,,,,,,,,,,,,,,,,,,,,,,,,,,,,,,,7995.256999999983,,timeout,,,,,,,,,,,,,,,,,,,,,337015.6999999881,337013.938,329018.573,329022.8000000119,329035.326,337030.583,,,
Holding screen,html.Screen,2_3_1_0_0,2022-02-03T14:27:47.325Z,,,,,,,,,,,,,,,,,,,,,,,,,,,,,,,6995.888000000035,,timeout,,,,,,,,,,,,,,,,,,,,,344010.60000002384,344009.804,337013.938,337016.1999999881,337030.583,344026.471,,,
screen,html.Screen,2_3_1_0_1_0,2022-02-03T14:27:48.274Z,,,,,,,,,,,,,,,,,2,,,,,,,,,,,,,,932.4290000357432,,response,,,,1,A,,,,,,Space,keypress(Space),,,,silence,,,,Two ---- ------ --- ------- ---------- ------- ----------<br>--- --------- --- ----------- ------- ----- ------- ---<br>--------- ---- -- --- ---- -- --------- -- ---- -------<br>-- --------- ------ --- ----- ------ ---- --- --------- --<br>------ - ---- -- --- ----------- ------- ---- ----- -----<br>--- -------- - ------ ---- -- ----- ---- --- --- -----------<br>-- -------,344960,344958.90000003576,344009.804,344010.6999999881,344026.471,344975.934,,0,Two
screen,html.Screen,2_3_1_0_1_1,2022-02-03T14:27:48.846Z,,,,,,,,,,,,,,,,,2,,,,,,,,,,,,,,555.3660000119125,,response,,,,1,A,,,,,,Space,keypress(Space),,,,silence,,,,--- days ------ --- ------- ---------- ------- ----------<br>--- --------- --- ----------- ------- ----- ------- ---<br>--------- ---- -- --- ---- -- --------- -- ---- -------<br>-- --------- ------ --- ----- ------ ---- --- --------- --<br>------ - ---- -- --- ----------- ------- ---- ----- -----<br>--- -------- - ------ ---- -- ----- ---- --- --- -----------<br>-- -------,345531.8000000119,345531.3000000119,344959.19,344960.3000000119,344975.934,345542.209,,1,days
screen,html.Screen,2_3_1_0_1_2,2022-02-03T14:27:49.808Z,,,,,,,,,,,,,,,,,2,,,,,,,,,,,,,,949.5910000119475,,response,,,,1,A,,,,,,Space,keypress(Space),,,,silence,,,,"--- ---- later, --- ------- ---------- ------- ----------<br>--- --------- --- ----------- ------- ----- ------- ---<br>--------- ---- -- --- ---- -- --------- -- ---- -------<br>-- --------- ------ --- ----- ------ ---- --- --------- --<br>------ - ---- -- --- ----------- ------- ---- ----- -----<br>--- -------- - ------ ---- -- ----- ---- --- --- -----------<br>-- -------",346493.40000003576,346491.8000000119,345525.651,345532,345542.209,346508.317,,2,"later,"
screen,html.Screen,2_3_1_0_1_3,2022-02-03T14:27:50.370Z,,,,,,,,,,,,,,,,,2,,,,,,,,,,,,,,545.98300001194,,response,,,,1,A,,,,,,Space,keypress(Space),,,,silence,,,,--- ---- ------ the ------- ---------- ------- ----------<br>--- --------- --- ----------- ------- ----- ------- ---<br>--------- ---- -- --- ---- -- --------- -- ---- -------<br>-- --------- ------ --- ----- ------ ---- --- --------- --<br>------ - ---- -- --- ----------- ------- ---- ----- -----<br>--- -------- - ------ ---- -- ----- ---- --- --- -----------<br>-- -------,347055.5,347054.3000000119,346491.653,346493.5,346508.317,347058.085,,3,the
screen,html.Screen,2_3_1_0_1_4,2022-02-03T14:27:50.920Z,,,,,,,,,,,,,,,,,2,,,,,,,,,,,,,,546.5150000238209,,response,,,,1,A,,,,,,Space,keypress(Space),,,,silence,,,,--- ---- ------ --- British ---------- ------- ----------<br>--- --------- --- ----------- ------- ----- ------- ---<br>--------- ---- -- --- ---- -- --------- -- ---- -------<br>-- --------- ------ --- ----- ------ ---- --- --------- --<br>------ - ---- -- --- ----------- ------- ---- ----- -----<br>--- -------- - ------ ---- -- ----- ---- --- --- -----------<br>-- -------,347605.3000000119,347604.60000002384,347041.466,347055.6999999881,347058.085,347607.697,,4,British
screen,html.Screen,2_3_1_0_1_5,2022-02-03T14:27:51.829Z,,,,,,,,,,,,,,,,,2,,,,,,,,,,,,,,906.5029999880935,,response,,,,1,A,,,,,,Space,keypress(Space),,,,silence,,,,--- ---- ------ --- ------- astronomer ------- ----------<br>--- --------- --- ----------- ------- ----- ------- ---<br>--------- ---- -- --- ---- -- --------- -- ---- -------<br>-- --------- ------ --- ----- ------ ---- --- --------- --<br>------ - ---- -- --- ----------- ------- ---- ----- -----<br>--- -------- - ------ ---- -- ----- ---- --- --- -----------<br>-- -------,348515.10000002384,348514.1999999881,347591.101,347605.5,347607.697,348523.804,,5,astronomer
screen,html.Screen,2_3_1_0_1_6,2022-02-03T14:27:52.513Z,,,,,,,,,,,,,,,,,2,,,,,,,,,,,,,,673.8959999880753,,response,,,,1,A,,,,,,Space,keypress(Space),,,,silence,,,,--- ---- ------ --- ------- ---------- Richard ----------<br>--- --------- --- ----------- ------- ----- ------- ---<br>--------- ---- -- --- ---- -- --------- -- ---- -------<br>-- --------- ------ --- ----- ------ ---- --- --------- --<br>------ - ---- -- --- ----------- ------- ---- ----- -----<br>--- -------- - ------ ---- -- ----- ---- --- --- -----------<br>-- -------,349198.8000000119,349197.6999999881,348507.26,348515.1999999881,348523.804,349206.819,,6,Richard
screen,html.Screen,2_3_1_0_1_7,2022-02-03T14:27:53.555Z,,,,,,,,,,,,,,,,,2,,,,,,,,,,,,,,1033.081000035745,,response,,,,1,A,,,,,,Space,keypress(Space),,,,silence,,,,--- ---- ------ --- ------- ---------- ------- Carrington<br>--- --------- --- ----------- ------- ----- ------- ---<br>--------- ---- -- --- ---- -- --------- -- ---- -------<br>-- --------- ------ --- ----- ------ ---- --- --------- --<br>------ - ---- -- --- ----------- ------- ---- ----- -----<br>--- -------- - ------ ---- -- ----- ---- --- --- -----------<br>-- -------,350240.90000003576,350239.90000003576,349190.652,349199.1999999881,349206.819,350256.193,,7,Carrington
screen,html.Screen,2_3_1_0_1_8,2022-02-03T14:27:54.108Z,,,,,,,,,,,,,,,,,2,,,,,,,,,,,,,,535.5069999880507,,response,,,,1,A,,,,,,Space,keypress(Space),,,,silence,,,,--- ---- ------ --- ------- ---------- ------- ----------<br>was --------- --- ----------- ------- ----- ------- ---<br>--------- ---- -- --- ---- -- --------- -- ---- -------<br>-- --------- ------ --- ----- ------ ---- --- --------- --<br>------ - ---- -- --- ----------- ------- ---- ----- -----<br>--- -------- - ------ ---- -- ----- ---- --- --- -----------<br>-- -------,350793.5,350791.6999999881,350239.445,350241.10000002384,350256.193,350805.913,,8,was
screen,html.Screen,2_3_1_0_1_9,2022-02-03T14:27:54.724Z,,,,,,,,,,,,,,,,,2,,,,,,,,,,,,,,601.6870000238414,,response,,,,1,A,,,,,,Space,keypress(Space),,,,silence,,,,--- ---- ------ --- ------- ---------- ------- ----------<br>--- observing --- ----------- ------- ----- ------- ---<br>--------- ---- -- --- ---- -- --------- -- ---- -------<br>-- --------- ------ --- ----- ------ ---- --- --------- --<br>------ - ---- -- --- ----------- ------- ---- ----- -----<br>--- -------- - ------ ---- -- ----- ---- --- --- -----------<br>-- -------,351409.8000000119,351407.60000002384,350789.262,350793.8000000119,350805.913,351422.162,,9,observing
screen,html.Screen,2_3_1_0_1_10,2022-02-03T14:27:55.291Z,,,,,,,,,,,,,,,,,2,,,,,,,,,,,,,,554.1380000119098,,response,,,,1,A,,,,,,Space,keypress(Space),,,,silence,,,,--- ---- ------ --- ------- ---------- ------- ----------<br>--- --------- the ----------- ------- ----- ------- ---<br>--------- ---- -- --- ---- -- --------- -- ---- -------<br>-- --------- ------ --- ----- ------ ---- --- --------- --<br>------ - ---- -- --- ----------- ------- ---- ----- -----<br>--- -------- - ------ ---- -- ----- ---- --- --- -----------<br>-- -------,351977,351976.3000000119,351405.475,351410.10000002384,351422.162,351988.482,,10,the
screen,html.Screen,2_3_1_0_1_11,2022-02-03T14:27:56.324Z,,,,,,,,,,,,,,,,,2,,,,,,,,,,,,,,1019.9180000357446,,response,,,,1,A,,,,,,Space,keypress(Space),,,,silence,,,,--- ---- ------ --- ------- ---------- ------- ----------<br>--- --------- --- interesting ------- ----- ------- ---<br>--------- ---- -- --- ---- -- --------- -- ---- -------<br>-- --------- ------ --- ----- ------ ---- --- --------- --<br>------ - ---- -- --- ----------- ------- ---- ----- -----<br>--- -------- - ------ ---- -- ----- ---- --- --- -----------<br>-- -------,353009.60000002384,353008.40000003576,351971.837,351977.10000002384,351988.482,353021.295,,11,interesting
screen,html.Screen,2_3_1_0_1_12,2022-02-03T14:27:57.068Z,,,,,,,,,,,,,,,,,2,,,,,,,,,,,,,,731.4049999880954,,response,,,,1,A,,,,,,Space,keypress(Space),,,,silence,,,,--- ---- ------ --- ------- ---------- ------- ----------<br>--- --------- --- ----------- sunspot ----- ------- ---<br>--------- ---- -- --- ---- -- --------- -- ---- -------<br>-- --------- ------ --- ----- ------ ---- --- --------- --<br>------ - ---- -- --- ----------- ------- ---- ----- -----<br>--- -------- - ------ ---- -- ----- ---- --- --- -----------<br>-- -------,353753.6999999881,353752.6999999881,353004.629,353009.8000000119,353021.295,353770.771,,12,sunspot
screen,html.Screen,2_3_1_0_1_13,2022-02-03T14:27:58.713Z,,,,,,,,,,,,,,,,,2,,,,,,,,,,,,,,1626.4289999880712,,response,,,,1,A,,,,,,Space,keypress(Space),,,,silence,,,,--- ---- ------ --- ------- ---------- ------- ----------<br>--- --------- --- ----------- ------- group ------- ---<br>--------- ---- -- --- ---- -- --------- -- ---- -------<br>-- --------- ------ --- ----- ------ ---- --- --------- --<br>------ - ---- -- --- ----------- ------- ---- ----- -----<br>--- -------- - ------ ---- -- ----- ---- --- --- -----------<br>-- -------,355398.40000003576,355397.1999999881,353754.066,353753.6999999881,353770.771,355403.096,,13,group
screen,html.Screen,2_3_1_0_1_14,2022-02-03T14:27:59.438Z,,,,,,,,,,,,,,,,,2,,,,,,,,,,,,,,719.5040000238223,,response,,,,1,A,,,,,,Space,keypress(Space),,,,silence,,,,--- ---- ------ --- ------- ---------- ------- ----------<br>--- --------- --- ----------- ------- ----- through ---<br>--------- ---- -- --- ---- -- --------- -- ---- -------<br>-- --------- ------ --- ----- ------ ---- --- --------- --<br>------ - ---- -- --- ----------- ------- ---- ----- -----<br>--- -------- - ------ ---- -- ----- ---- --- --- -----------<br>-- -------,356123.3000000119,356122.60000002384,355386.459,355398.6999999881,355403.096,356136.101,,14,through
screen,html.Screen,2_3_1_0_1_15,2022-02-03T14:28:00.296Z,,,,,,,,,,,,,,,,,2,,,,,,,,,,,,,,845.1990000118967,,response,,,,1,A,,,,,,Space,keypress(Space),,,,silence,,,,--- ---- ------ --- ------- ---------- ------- ----------<br>--- --------- --- ----------- ------- ----- ------- his<br>--------- ---- -- --- ---- -- --------- -- ---- -------<br>-- --------- ------ --- ----- ------ ---- --- --------- --<br>------ - ---- -- --- ----------- ------- ---- ----- -----<br>--- -------- - ------ ---- -- ----- ---- --- --- -----------<br>-- -------,356982,356981.3000000119,356119.39,356123.40000003576,356136.101,356985.507,,15,his
screen,html.Screen,2_3_1_0_1_16,2022-02-03T14:28:01.085Z,,,,,,,,,,,,,,,,,2,,,,,,,,,,,,,,782.1929999880958,,response,,,,1,A,,,,,,Space,keypress(Space),,,,silence,,,,--- ---- ------ --- ------- ---------- ------- ----------<br>--- --------- --- ----------- ------- ----- ------- ---<br>telescope ---- -- --- ---- -- --------- -- ---- -------<br>-- --------- ------ --- ----- ------ ---- --- --------- --<br>------ - ---- -- --- ----------- ------- ---- ----- -----<br>--- -------- - ------ ---- -- ----- ---- --- --- -----------<br>-- -------,357770.3000000119,357767.6999999881,356968.863,356982.1999999881,356985.507,357785.205,,16,telescope
screen,html.Screen,2_3_1_0_1_17,2022-02-03T14:28:01.724Z,,,,,,,,,,,,,,,,,2,,,,,,,,,,,,,,623.6950000357465,,response,,,,1,A,,,,,,Space,keypress(Space),,,,silence,,,,--- ---- ------ --- ------- ---------- ------- ----------<br>--- --------- --- ----------- ------- ----- ------- ---<br>--------- when -- --- ---- -- --------- -- ---- -------<br>-- --------- ------ --- ----- ------ ---- --- --------- --<br>------ - ---- -- --- ----------- ------- ---- ----- -----<br>--- -------- - ------ ---- -- ----- ---- --- --- -----------<br>-- -------,358409.5,358408.90000003576,357768.606,357770.6999999881,357785.205,358418.051,,17,when
screen,html.Screen,2_3_1_0_1_18,2022-02-03T14:28:02.262Z,,,,,,,,,,,,,,,,,2,,,,,,,,,,,,,,528.2490000119433,,response,,,,1,A,,,,,,Space,keypress(Space),,,,silence,,,,--- ---- ------ --- ------- ---------- ------- ----------<br>--- --------- --- ----------- ------- ----- ------- ---<br>--------- ---- he --- ---- -- --------- -- ---- -------<br>-- --------- ------ --- ----- ------ ---- --- --------- --<br>------ - ---- -- --- ----------- ------- ---- ----- -----<br>--- -------- - ------ ---- -- ----- ---- --- --- -----------<br>-- -------,358947.90000003576,358946.3000000119,358401.398,358409.6999999881,358418.051,358951.096,,18,he
screen,html.Screen,2_3_1_0_1_19,2022-02-03T14:28:03.130Z,,,,,,,,,,,,,,,,,2,,,,,,,,,,,,,,863.4039999999804,,response,,,,1,A,,,,,,Space,keypress(Space),,,,silence,,,,--- ---- ------ --- ------- ---------- ------- ----------<br>--- --------- --- ----------- ------- ----- ------- ---<br>--------- ---- -- saw ---- -- --------- -- ---- -------<br>-- --------- ------ --- ----- ------ ---- --- --------- --<br>------ - ---- -- --- ----------- ------- ---- ----- -----<br>--- -------- - ------ ---- -- ----- ---- --- --- -----------<br>-- -------,359815.40000003576,359814.5,358934.481,358948.3000000119,358951.096,359817.183,,19,saw
screen,html.Screen,2_3_1_0_1_20,2022-02-03T14:28:03.951Z,,,,,,,,,,,,,,,,,2,,,,,,,,,,,,,,816.4170000238228,,response,,,,1,A,,,,,,Space,keypress(Space),,,,silence,,,,--- ---- ------ --- ------- ---------- ------- ----------<br>--- --------- --- ----------- ------- ----- ------- ---<br>--------- ---- -- --- what -- --------- -- ---- -------<br>-- --------- ------ --- ----- ------ ---- --- --------- --<br>------ - ---- -- --- ----------- ------- ---- ----- -----<br>--- -------- - ------ ---- -- ----- ---- --- --- -----------<br>-- -------,360636.40000003576,360633.60000002384,359800.558,359815.60000002384,359817.183,360650.066,,20,what
screen,html.Screen,2_3_1_0_1_21,2022-02-03T14:28:04.632Z,,,,,,,,,,,,,,,,,2,,,,,,,,,,,,,,665.6339999880875,,response,,,,1,A,,,,,,Space,keypress(Space),,,,silence,,,,--- ---- ------ --- ------- ---------- ------- ----------<br>--- --------- --- ----------- ------- ----- ------- ---<br>--------- ---- -- --- ---- he --------- -- ---- -------<br>-- --------- ------ --- ----- ------ ---- --- --------- --<br>------ - ---- -- --- ----------- ------- ---- ----- -----<br>--- -------- - ------ ---- -- ----- ---- --- --- -----------<br>-- -------,361317.1999999881,361315.6999999881,360633.762,360636.6999999881,360650.066,361333.257,,21,he
screen,html.Screen,2_3_1_0_1_22,2022-02-03T14:28:05.511Z,,,,,,,,,,,,,,,,,2,,,,,,,,,,,,,,862.4429999880958,,response,,,,1,A,,,,,,Space,keypress(Space),,,,silence,,,,--- ---- ------ --- ------- ---------- ------- ----------<br>--- --------- --- ----------- ------- ----- ------- ---<br>--------- ---- -- --- ---- -- described -- ---- -------<br>-- --------- ------ --- ----- ------ ---- --- --------- --<br>------ - ---- -- --- ----------- ------- ---- ----- -----<br>--- -------- - ------ ---- -- ----- ---- --- --- -----------<br>-- -------,362196.6999999881,362195.6999999881,361316.319,361317.6999999881,361333.257,362199.152,,22,described
screen,html.Screen,2_3_1_0_1_23,2022-02-03T14:28:06.480Z,,,,,,,,,,,,,,,,,2,,,,,,,,,,,,,,965.44800002384,,response,,,,1,A,,,,,,Space,keypress(Space),,,,silence,,,,--- ---- ------ --- ------- ---------- ------- ----------<br>--- --------- --- ----------- ------- ----- ------- ---<br>--------- ---- -- --- ---- -- --------- as ---- -------<br>-- --------- ------ --- ----- ------ ---- --- --------- --<br>------ - ---- -- --- ----------- ------- ---- ----- -----<br>--- -------- - ------ ---- -- ----- ---- --- --- -----------<br>-- -------,363166.10000002384,363164.60000002384,362182.587,362196.8000000119,362199.152,363181.988,,23,as
screen,html.Screen,2_3_1_0_1_24,2022-02-03T14:28:07.410Z,,,,,,,,,,,,,,,,,2,,,,,,,,,,,,,,912.211999988067,,response,,,,1,A,,,,,,Space,keypress(Space),,,,silence,,,,"--- ---- ------ --- ------- ---------- ------- ----------<br>--- --------- --- ----------- ------- ----- ------- ---<br>--------- ---- -- --- ---- -- --------- -- ""two -------<br>-- --------- ------ --- ----- ------ ---- --- --------- --<br>------ - ---- -- --- ----------- ------- ---- ----- -----<br>--- -------- - ------ ---- -- ----- ---- --- --- -----------<br>-- -------",364095.5,364094.1999999881,363165.245,363169,363181.988,364098.027,,24,"""two"
screen,html.Screen,2_3_1_0_1_25,2022-02-03T14:28:08.277Z,,,,,,,,,,,,,,,,,2,,,,,,,,,,,,,,863.07300002384,,response,,,,1,A,,,,,,Space,keypress(Space),,,,silence,,,,--- ---- ------ --- ------- ---------- ------- ----------<br>--- --------- --- ----------- ------- ----- ------- ---<br>--------- ---- -- --- ---- -- --------- -- ---- patches<br>-- --------- ------ --- ----- ------ ---- --- --------- --<br>------ - ---- -- --- ----------- ------- ---- ----- -----<br>--- -------- - ------ ---- -- ----- ---- --- --- -----------<br>-- -------,364962,364961.10000002384,364081.438,364095.6999999881,364098.027,364964.2,,25,patches
screen,html.Screen,2_3_1_0_1_26,2022-02-03T14:28:08.912Z,,,,,,,,,,,,,,,,,2,,,,,,,,,,,,,,631.9999999880674,,response,,,,1,A,,,,,,Space,keypress(Space),,,,silence,,,,--- ---- ------ --- ------- ---------- ------- ----------<br>--- --------- --- ----------- ------- ----- ------- ---<br>--------- ---- -- --- ---- -- --------- -- ---- -------<br>of --------- ------ --- ----- ------ ---- --- --------- --<br>------ - ---- -- --- ----------- ------- ---- ----- -----<br>--- -------- - ------ ---- -- ----- ---- --- --- -----------<br>-- -------,365597.10000002384,365596.1999999881,364947.607,364962.10000002384,364964.2,365614.007,,26,of
screen,html.Screen,2_3_1_0_1_27,2022-02-03T14:28:09.474Z,,,,,,,,,,,,,,,,,2,,,,,,,,,,,,,,543.9930000000168,,response,,,,1,A,,,,,,Space,keypress(Space),,,,silence,,,,--- ---- ------ --- ------- ---------- ------- ----------<br>--- --------- --- ----------- ------- ----- ------- ---<br>--------- ---- -- --- ---- -- --------- -- ---- -------<br>-- intensely ------ --- ----- ------ ---- --- --------- --<br>------ - ---- -- --- ----------- ------- ---- ----- -----<br>--- -------- - ------ ---- -- ----- ---- --- --- -----------<br>-- -------,366159.90000003576,366158,365597.144,365597.6999999881,365614.007,366163.515,,27,intensely
screen,html.Screen,2_3_1_0_1_28,2022-02-03T14:28:10.270Z,,,,,,,,,,,,,,,,,2,,,,,,,,,,,,,,790.285000011907,,response,,,,1,A,,,,,,Space,keypress(Space),,,,silence,,,,--- ---- ------ --- ------- ---------- ------- ----------<br>--- --------- --- ----------- ------- ----- ------- ---<br>--------- ---- -- --- ---- -- --------- -- ---- -------<br>-- --------- bright --- ----- ------ ---- --- --------- --<br>------ - ---- -- --- ----------- ------- ---- ----- -----<br>--- -------- - ------ ---- -- ----- ---- --- --- -----------<br>-- -------,366955.3000000119,366953.8000000119,366146.95,366160.10000002384,366163.515,366963.385,,28,bright
screen,html.Screen,2_3_1_0_1_29,2022-02-03T14:28:10.810Z,,,,,,,,,,,,,,,,,2,,,,,,,,,,,,,,531.4150000119116,,response,,,,1,A,,,,,,Space,keypress(Space),,,,silence,,,,--- ---- ------ --- ------- ---------- ------- ----------<br>--- --------- --- ----------- ------- ----- ------- ---<br>--------- ---- -- --- ---- -- --------- -- ---- -------<br>-- --------- ------ and ----- ------ ---- --- --------- --<br>------ - ---- -- --- ----------- ------- ---- ----- -----<br>--- -------- - ------ ---- -- ----- ---- --- --- -----------<br>-- -------,367495.6999999881,367494.8000000119,366946.492,366955.6999999881,366963.385,367512.727,,29,and
screen,html.Screen,2_3_1_0_1_30,2022-02-03T14:28:11.538Z,,,,,,,,,,,,,,,,,2,,,,,,,,,,,,,,708.4729999880656,,response,,,,1,A,,,,,,Space,keypress(Space),,,,silence,,,,--- ---- ------ --- ------- ---------- ------- ----------<br>--- --------- --- ----------- ------- ----- ------- ---<br>--------- ---- -- --- ---- -- --------- -- ---- -------<br>-- --------- ------ --- white ------ ---- --- --------- --<br>------ - ---- -- --- ----------- ------- ---- ----- -----<br>--- -------- - ------ ---- -- ----- ---- --- --- -----------<br>-- -------,368223,368221.1999999881,367496.036,367495.8000000119,367512.727,368228.942,,30,white
screen,html.Screen,2_3_1_0_1_31,2022-02-03T14:28:12.159Z,,,,,,,,,,,,,,,,,2,,,,,,,,,,,,,,614.5580000000191,,response,,,,1,A,,,,,,Space,keypress(Space),,,,silence,,,,"--- ---- ------ --- ------- ---------- ------- ----------<br>--- --------- --- ----------- ------- ----- ------- ---<br>--------- ---- -- --- ---- -- --------- -- ---- -------<br>-- --------- ------ --- ----- light"" ---- --- --------- --<br>------ - ---- -- --- ----------- ------- ---- ----- -----<br>--- -------- - ------ ---- -- ----- ---- --- --- -----------<br>-- -------",368844.5,368843.5,368212.322,368223.5,368228.942,368861.99,,31,"light"""
screen,html.Screen,2_3_1_0_1_32,2022-02-03T14:28:12.844Z,,,,,,,,,,,,,,,,,2,,,,,,,,,,,,,,665.5100000000093,,response,,,,1,A,,,,,,Space,keypress(Space),,,,silence,,,,--- ---- ------ --- ------- ---------- ------- ----------<br>--- --------- --- ----------- ------- ----- ------- ---<br>--------- ---- -- --- ---- -- --------- -- ---- -------<br>-- --------- ------ --- ----- ------ over --- --------- --<br>------ - ---- -- --- ----------- ------- ---- ----- -----<br>--- -------- - ------ ---- -- ----- ---- --- --- -----------<br>-- -------,369529.3000000119,369527.5,368845.244,368844.6999999881,368861.99,369544.866,,32,over
screen,html.Screen,2_3_1_0_1_33,2022-02-03T14:28:13.500Z,,,,,,,,,,,,,,,,,2,,,,,,,,,,,,,,639.2340000238619,,response,,,,1,A,,,,,,Space,keypress(Space),,,,silence,,,,--- ---- ------ --- ------- ---------- ------- ----------<br>--- --------- --- ----------- ------- ----- ------- ---<br>--------- ---- -- --- ---- -- --------- -- ---- -------<br>-- --------- ------ --- ----- ------ ---- the --------- --<br>------ - ---- -- --- ----------- ------- ---- ----- -----<br>--- -------- - ------ ---- -- ----- ---- --- --- -----------<br>-- -------,370185.8000000119,370184.10000002384,369528.173,369529.5,369544.866,370194.58,,33,the
screen,html.Screen,2_3_1_0_1_34,2022-02-03T14:28:14.745Z,,,,,,,,,,,,,,,,,2,,,,,,,,,,,,,,1235.3200000357465,,response,,,,1,A,,,,,,Space,keypress(Space),,,,silence,,,,--- ---- ------ --- ------- ---------- ------- ----------<br>--- --------- --- ----------- ------- ----- ------- ---<br>--------- ---- -- --- ---- -- --------- -- ---- -------<br>-- --------- ------ --- ----- ------ ---- --- sunspots. --<br>------ - ---- -- --- ----------- ------- ---- ----- -----<br>--- -------- - ------ ---- -- ----- ---- --- --- -----------<br>-- -------,371430.5,371429.90000003576,370177.919,370186.10000002384,370194.58,371443.751,,34,sunspots.
screen,html.Screen,2_3_1_0_1_35,2022-02-03T14:28:15.718Z,,,,,,,,,,,,,,,,,2,,,,,,,,,,,,,,958.2490000000107,,response,,,,1,A,,,,,,Space,keypress(Space),,,,silence,,,,--- ---- ------ --- ------- ---------- ------- ----------<br>--- --------- --- ----------- ------- ----- ------- ---<br>--------- ---- -- --- ---- -- --------- -- ---- -------<br>-- --------- ------ --- ----- ------ ---- --- --------- He<br>------ - ---- -- --- ----------- ------- ---- ----- -----<br>--- -------- - ------ ---- -- ----- ---- --- --- -----------<br>-- -------,372403.5,372402,371427.045,371430.60000002384,371443.751,372409.841,,35,He
screen,html.Screen,2_3_1_0_1_36,2022-02-03T14:28:16.502Z,,,,,,,,,,,,,,,,,2,,,,,,,,,,,,,,776.259000023827,,response,,,,1,A,,,,,,Space,keypress(Space),,,,silence,,,,--- ---- ------ --- ------- ---------- ------- ----------<br>--- --------- --- ----------- ------- ----- ------- ---<br>--------- ---- -- --- ---- -- --------- -- ---- -------<br>-- --------- ------ --- ----- ------ ---- --- --------- --<br>jotted - ---- -- --- ----------- ------- ---- ----- -----<br>--- -------- - ------ ---- -- ----- ---- --- --- -----------<br>-- -------,373187,373186.10000002384,372393.23,372403.8000000119,372409.841,373192.729,,36,jotted
screen,html.Screen,2_3_1_0_1_37,2022-02-03T14:28:17.176Z,,,,,,,,,,,,,,,,,2,,,,,,,,,,,,,,667.0710000119288,,response,,,,1,A,,,,,,Space,keypress(Space),,,,silence,,,,--- ---- ------ --- ------- ---------- ------- ----------<br>--- --------- --- ----------- ------- ----- ------- ---<br>--------- ---- -- --- ---- -- --------- -- ---- -------<br>-- --------- ------ --- ----- ------ ---- --- --------- --<br>------ a ---- -- --- ----------- ------- ---- ----- -----<br>--- -------- - ------ ---- -- ----- ---- --- --- -----------<br>-- -------,373861,373859.8000000119,373176.119,373187.10000002384,373192.729,373875.694,,37,a
screen,html.Screen,2_3_1_0_1_38,2022-02-03T14:28:17.849Z,,,,,,,,,,,,,,,,,2,,,,,,,,,,,,,,658.2060000357451,,response,,,,1,A,,,,,,Space,keypress(Space),,,,silence,,,,--- ---- ------ --- ------- ---------- ------- ----------<br>--- --------- --- ----------- ------- ----- ------- ---<br>--------- ---- -- --- ---- -- --------- -- ---- -------<br>-- --------- ------ --- ----- ------ ---- --- --------- --<br>------ - note -- --- ----------- ------- ---- ----- -----<br>--- -------- - ------ ---- -- ----- ---- --- --- -----------<br>-- -------,374534.90000003576,374533.90000003576,373858.964,373861.10000002384,373875.694,374542.004,,38,note
