sender,sender_type,sender_id,timestamp,meta,,Blues,Classical,Country,Dance,Electronic,Folk,Gospel,Hip-Hop,Jazz,Latin,Musical/Film,New-age,Pop,Prolific_id,Provo_ID,R&B,Rap,Reggae,Religious,Rock,Soul,Swing,Traditional,age,artist_name,correct,correctResponse,distraction,duration,education,ended_on,familiarity,gender,headphone_check_performance,item,list,music_frequency,offensiveness,pleasantness,position_correct,preference,response,response_action,snippet_file,song_name,song_rating,sound,stimulus_1,stimulus_2,stimulus_3,text,time_commit,time_end,time_render,time_run,time_show,time_switch,url,word,word_ID
Prolific ID,html.Form,0,2022-02-04T11:29:29.363Z,"{""labjs_version"":""20.2.2"",""labjs_build"":{""flavor"":""production"",""commit"":""a25486e0c714a0ae2ce03ff94b7bb6896854dcfa""},""location"":""https://run.pavlovia.org/mvasilev/prolific2_music_c/"",""userAgent"":""Mozilla/5.0 (Windows NT 10.0; Win64; x64) AppleWebKit/537.36 (KHTML, like Gecko) Chrome/97.0.4692.99 Safari/537.36"",""platform"":""Win32"",""language"":""en-US"",""locale"":""en-US"",""timeZone"":""Europe/London"",""timezoneOffset"":0,""screen_width"":1536,""screen_height"":864,""scroll_width"":1536,""scroll_height"":674,""window_innerWidth"":1536,""window_innerHeight"":722,""devicePixelRatio"":1.25}",,,,,,,,,,,,,,,5defac7e56b506000cdd3b32,,,,,,,,,,,,,,,8237.899000000745,,form submission,,,,,,,,,,,,,,,,,,,,,15879.100000000559,15878.800000000745,7607.588,7617.9000000003725,7640.901,15889.849,{},,
Introduction,html.Screen,1_0,2022-02-04T11:29:33.428Z,,,,,,,,,,,,,,,,,,,,,,,,,,,,,,,4051.951000000745,,response,,,,,,,,,,,continue,click button,,,,,,,,,19943.60000000056,19941.800000000745,15873.64,15879.300000000745,15889.849,19955.982,,,
Volume calibration,html.Screen,1_1,2022-02-04T11:29:47.602Z,,,,,,,,,,,,,,,,,,,,,,,,,,,,,,,14161.418000000373,,response,,,,,,,,,,,continue,click button,,,,,,,,,34118.20000000112,34117.40000000037,19939.671,19943.700000000186,19955.982,34120.845,,,
Task instructions,html.Screen,1_2,2022-02-04T11:29:55.986Z,,,,,,,,,,,,,,,,,,,,,,,,,,,,,,,8381.055000000371,,response,,,,,,,,,,,continue,click button,,,,,,,,,42502.59999999963,42501.90000000037,34104.664,34118.20000000112,34120.845,42503.1,,,
Sounds,html.Screen,1_3_0_0,2022-02-04T11:30:00.222Z,,,,,,,,,,,,,,,,,,,,,,,,,,,,,,,4249.461000000003,,timeout,,,,,,,,,1,,,,,,,,S,O,I,,46738.40000000037,46735.905,42486.494,42502.70000000112,42503.1,46752.561,,,
Judgement,html.Screen,1_3_0_1,2022-02-04T11:30:01.754Z,,,,,,,,,,,,,,,,,,,,,,,,,,,,true,1,,1517.2390000007435,,response,,,,,,,,,1,,1,click #choice-1,,,,,S,O,I,,48270.59999999963,48269.800000000745,46735.905,46738.40000000037,46752.561,48285.956,,,
Trial,flow.Sequence,1_3_0,2022-02-04T11:30:01.754Z,,,,,,,,,,,,,,,,,,,,,,,,,,,,,,,5766.7000000007465,,completion,,,,,,,,,1,,,,,,,,S,O,I,,48270.800000000745,48269.800000000745,42486.494,42502.70000000112,42503.1,48285.956,,,
Sounds,html.Screen,1_3_1_0,2022-02-04T11:30:06.003Z,,,,,,,,,,,,,,,,,,,,,,,,,,,,,,,4249.389999999999,,timeout,,,,,,,,,1,,,,,,,,S,I,O,,52519.40000000037,52518.937,48269.498,48271,48285.956,52535.346,,,
Judgement,html.Screen,1_3_1_1,2022-02-04T11:30:07.210Z,,,,,,,,,,,,,,,,,,,,,,,,,,,,true,1,,1190.5540000003748,,response,,,,,,,,,1,,1,click #choice-1,,,,,S,I,O,,53726.800000000745,53725.90000000037,52518.937,52519.5,52535.346,53735.17,,,
Trial,flow.Sequence,1_3_1,2022-02-04T11:30:07.210Z,,,,,,,,,,,,,,,,,,,,,,,,,,,,,,,5439.944000000374,,completion,,,,,,,,,1,,,,,,,,S,I,O,,53726.90000000037,53725.90000000037,48269.498,48270.800000000745,48285.956,53735.17,,,
Sounds,html.Screen,1_3_2_0,2022-02-04T11:30:11.453Z,,,,,,,,,,,,,,,,,,,,,,,,,,,,,,,4249.757000000005,,timeout,,,,,,,,,2,,,,,,,,O,S,I,,57969.800000000745,57968.081,53718.756,53727,53735.17,57984.927,,,
Judgement,html.Screen,1_3_2_1,2022-02-04T11:30:12.266Z,,,,,,,,,,,,,,,,,,,,,,,,,,,,true,2,,796.9730000003692,,response,,,,,,,,,2,,2,click #choice-2,,,,,O,S,I,,58782.59999999963,58781.90000000037,57968.081,57970,57984.927,58784.39,,,
Trial,flow.Sequence,1_3_2,2022-02-04T11:30:12.266Z,,,,,,,,,,,,,,,,,,,,,,,,,,,,,,,5046.730000000374,,completion,,,,,,,,,2,,,,,,,,O,S,I,,58782.800000000745,58781.90000000037,53718.756,53727,53735.17,58784.39,,,
Sounds,html.Screen,1_3_3_0,2022-02-04T11:30:16.502Z,,,,,,,,,,,,,,,,,,,,,,,,,,,,,,,4250.014000000003,,timeout,,,,,,,,,3,,,,,,,,I,O,S,,63018.70000000112,63017.154,58767.904,58782.800000000745,58784.39,63034.404,,,
Judgement,html.Screen,1_3_3_1,2022-02-04T11:30:17.178Z,,,,,,,,,,,,,,,,,,,,,,,,,,,,true,3,,659.4960000003703,,response,,,,,,,,,3,,3,click #choice-3,,,,,I,O,S,,63694.70000000112,63693.90000000037,63017.154,63018.70000000112,63034.404,63700.907,,,
Trial,flow.Sequence,1_3_3,2022-02-04T11:30:17.178Z,,,,,,,,,,,,,,,,,,,,,,,,,,,,,,,4909.510000000373,,completion,,,,,,,,,3,,,,,,,,I,O,S,,63694.90000000037,63693.90000000037,58767.904,58782.800000000745,58784.39,63700.907,,,
Sounds,html.Screen,1_3_4_0,2022-02-04T11:30:21.418Z,,,,,,,,,,,,,,,,,,,,,,,,,,,,,,,4248.999000000003,,timeout,,,,,,,,,2,,,,,,,,I,S,O,,67934.30000000075,67933.603,63684.2,63695,63700.907,67949.906,,,
Judgement,html.Screen,1_3_4_1,2022-02-04T11:30:22.001Z,,,,,,,,,,,,,,,,,,,,,,,,,,,,true,2,,567.6939999996248,,response,,,,,,,,,2,,2,click #choice-2,,,,,I,S,O,,68518.20000000112,68517.59999999963,67933.603,67934.5,67949.906,68533.389,,,
Trial,flow.Sequence,1_3_4,2022-02-04T11:30:22.002Z,,,,,,,,,,,,,,,,,,,,,,,,,,,,,,,4816.692999999628,,completion,,,,,,,,,2,,,,,,,,I,S,O,,68518.30000000075,68517.59999999963,63684.2,63695,63700.907,68533.389,,,
Sounds,html.Screen,1_3_5_0,2022-02-04T11:30:26.250Z,,,,,,,,,,,,,,,,,,,,,,,,,,,,,,,4249.180000000008,,timeout,,,,,,,,,3,,,,,,,,O,I,S,,72766.90000000037,72765.934,68516.539,68518.5,68533.389,72782.569,,,
Judgement,html.Screen,1_3_5_1,2022-02-04T11:30:26.746Z,,,,,,,,,,,,,,,,,,,,,,,,,,,,true,3,,479.3310000003694,,response,,,,,,,,,3,,3,click #choice-3,,,,,O,I,S,,73262.59999999963,73261.90000000037,72765.934,72767,72782.569,73265.874,,,
Trial,flow.Sequence,1_3_5,2022-02-04T11:30:26.746Z,,,,,,,,,,,,,,,,,,,,,,,,,,,,,,,4728.511000000377,,completion,,,,,,,,,3,,,,,,,,O,I,S,,73262.80000000075,73261.90000000037,68516.539,68518.40000000037,68533.389,73265.874,,,
Task,flow.Loop,1_3,2022-02-04T11:30:26.749Z,,,,,,,,,,,,,,,,,,,,,,,,,,,,,,,30758.800000000374,,completion,,,1,,,,,,,,,,,,,,,,,,73266.20000000112,73261.90000000037,42486.494,42502.70000000112,42503.1,73265.874,,,
Trap,html.Screen,1_4,2022-02-04T11:30:26.750Z,,,,,,,,,,,,,,,,,,,,,,,,,,,,,,,NaN,,skipped,,,,,,,,,,,,,,,,,,,,,73267,73261.90000000037,,73267,,73265.874,,,
Thanks,html.Screen,1_5,2022-02-04T11:30:31.098Z,,,,,,,,,,,,,,,,,,,,,,,,,,,,,,,4348.026000000376,,response,,,,,,,,,,,continue,click button,,,,,,,,,77614.5,77613.90000000037,73249.744,73267.09999999963,73265.874,81914.807,,,
Headphone screening,flow.Sequence,1,2022-02-04T11:30:31.098Z,,,,,,,,,,,,,,,,,,,,,,,,,,,,,,,61724.05100000037,,completion,,,,,,,,,,,,,,,,,,,,,77614.59999999963,77613.90000000037,15873.64,15879.300000000745,15889.849,81914.807,,,
Instructions,html.Page,2_0,2022-02-04T11:30:54.553Z,,,,,,,,,,,,,,,,,,,,,,,,,,,,,,,19155.993000000744,,form submission,,,,,,,,,,,,,,,,,,,,,101071,101070.80000000075,81898.107,81919,81914.807,101079.002,,,
Holding screen,html.Screen,2_1_0_0,2022-02-04T11:31:04.544Z,,,,,,,,,,,,,,,,,,,,,,,,,,,,,,,10015.367000000013,,timeout,,,,,,,,,,,,,,,,,,,,,111062,111061.529,101062.806,101071.09999999963,101079.002,111094.369,,,
screen,html.Screen,2_1_0_1_0,2022-02-04T11:31:05.268Z,,,,,,,,,,,,,,,,,53,,,,,,,,,,,,,,688.2309999996214,,response,,,,99,,,,,,,Space,keypress(Space),,,,,,,,When -- ----- -- ------ - ------- --- ----------<br>------------- ------ ------ ---- ---- ------- ----- -- ----<br>-------- ------- -- ---------- --- - --- ----- ----- ----<br>---- --- --- ----- --- ---- ---- ------- ----- ---- -------<br>--- --- -- ----- -- --- ---- -- --- ---- -- ------ ------<br>--- ----- -- ----,111786.20000000112,111782.59999999963,111061.529,111062.40000000037,111094.369,111794.523,,0,When
screen,html.Screen,2_1_0_1_1,2022-02-04T11:31:05.621Z,,,,,,,,,,,,,,,,,53,,,,,,,,,,,,,,344.17700000111654,,response,,,,99,,,,,,,Space,keypress(Space),,,,,,,,---- it ----- -- ------ - ------- --- ----------<br>------------- ------ ------ ---- ---- ------- ----- -- ----<br>-------- ------- -- ---------- --- - --- ----- ----- ----<br>---- --- --- ----- --- ---- ---- ------- ----- ---- -------<br>--- --- -- ----- -- --- ---- -- --- ---- -- ------ ------<br>--- ----- -- ----,112139.30000000075,112138.70000000112,111777.747,111786.30000000075,111794.523,112144.249,,1,it
screen,html.Screen,2_1_0_1_2,2022-02-04T11:31:05.999Z,,,,,,,,,,,,,,,,,53,,,,,,,,,,,,,,372.0510000007489,,response,,,,99,,,,,,,Space,keypress(Space),,,,,,,,---- -- comes -- ------ - ------- --- ----------<br>------------- ------ ------ ---- ---- ------- ----- -- ----<br>-------- ------- -- ---------- --- - --- ----- ----- ----<br>---- --- --- ----- --- ---- ---- ------- ----- ---- -------<br>--- --- -- ----- -- --- ---- -- --- ---- -- ------ ------<br>--- ----- -- ----,112516.80000000075,112516.30000000075,112127.633,112139.30000000075,112144.249,112527.598,,2,comes
screen,html.Screen,2_1_0_1_3,2022-02-04T11:31:06.332Z,,,,,,,,,,,,,,,,,53,,,,,,,,,,,,,,321.50199999962933,,response,,,,99,,,,,,,Space,keypress(Space),,,,,,,,---- -- ----- to ------ - ------- --- ----------<br>------------- ------ ------ ---- ---- ------- ----- -- ----<br>-------- ------- -- ---------- --- - --- ----- ----- ----<br>---- --- --- ----- --- ---- ---- ------- ----- ---- -------<br>--- --- -- ----- -- --- ---- -- --- ---- -- ------ ------<br>--- ----- -- ----,112850,112849.09999999963,112511.381,112516.80000000075,112527.598,112860.929,,3,to
screen,html.Screen,2_1_0_1_4,2022-02-04T11:31:06.749Z,,,,,,,,,,,,,,,,,53,,,,,,,,,,,,,,405.87100000074133,,response,,,,99,,,,,,,Space,keypress(Space),,,,,,,,---- -- ----- -- having - ------- --- ----------<br>------------- ------ ------ ---- ---- ------- ----- -- ----<br>-------- ------- -- ---------- --- - --- ----- ----- ----<br>---- --- --- ----- --- ---- ---- ------- ----- ---- -------<br>--- --- -- ----- -- --- ---- -- --- ---- -- ------ ------<br>--- ----- -- ----,113267.40000000037,113266.80000000075,112844.654,112850.40000000037,112860.929,113277.451,,4,having
screen,html.Screen,2_1_0_1_5,2022-02-04T11:31:07.093Z,,,,,,,,,,,,,,,,,53,,,,,,,,,,,,,,332.14899999962654,,response,,,,99,,,,,,,Space,keypress(Space),,,,,,,,---- -- ----- -- ------ a ------- --- ----------<br>------------- ------ ------ ---- ---- ------- ----- -- ----<br>-------- ------- -- ---------- --- - --- ----- ----- ----<br>---- --- --- ----- --- ---- ---- ------- ----- ---- -------<br>--- --- -- ----- -- --- ---- -- --- ---- -- ------ ------<br>--- ----- -- ----,113611,113609.59999999963,113261.338,113267.40000000037,113277.451,113627.584,,5,a
screen,html.Screen,2_1_0_1_6,2022-02-04T11:31:07.430Z,,,,,,,,,,,,,,,,,53,,,,,,,,,,,,,,319.616000001115,,response,,,,99,,,,,,,Space,keypress(Space),,,,,,,,---- -- ----- -- ------ - lasting --- ----------<br>------------- ------ ------ ---- ---- ------- ----- -- ----<br>-------- ------- -- ---------- --- - --- ----- ----- ----<br>---- --- --- ----- --- ---- ---- ------- ----- ---- -------<br>--- --- -- ----- -- --- ---- -- --- ---- -- ------ ------<br>--- ----- -- ----,113947.70000000112,113947.20000000112,113610.714,113611.09999999963,113627.584,113961.22,,6,lasting
screen,html.Screen,2_1_0_1_7,2022-02-04T11:31:07.797Z,,,,,,,,,,,,,,,,,53,,,,,,,,,,,,,,353.3799999996263,,response,,,,99,,,,,,,Space,keypress(Space),,,,,,,,---- -- ----- -- ------ - ------- and ----------<br>------------- ------ ------ ---- ---- ------- ----- -- ----<br>-------- ------- -- ---------- --- - --- ----- ----- ----<br>---- --- --- ----- --- ---- ---- ------- ----- ---- -------<br>--- --- -- ----- -- --- ---- -- --- ---- -- ------ ------<br>--- ----- -- ----,114315.30000000075,114314.59999999963,113944.501,113947.70000000112,113961.22,114327.304,,7,and
screen,html.Screen,2_1_0_1_8,2022-02-04T11:31:08.174Z,,,,,,,,,,,,,,,,,53,,,,,,,,,,,,,,363.5960000003688,,response,,,,99,,,,,,,Space,keypress(Space),,,,,,,,---- -- ----- -- ------ - ------- --- fulfilling<br>------------- ------ ------ ---- ---- ------- ----- -- ----<br>-------- ------- -- ---------- --- - --- ----- ----- ----<br>---- --- --- ----- --- ---- ---- ------- ----- ---- -------<br>--- --- -- ----- -- --- ---- -- --- ---- -- ------ ------<br>--- ----- -- ----,114691.59999999963,114690.90000000037,114311.103,114315.5,114327.304,114693.961,,8,fulfilling
screen,html.Screen,2_1_0_1_9,2022-02-04T11:31:08.569Z,,,,,,,,,,,,,,,,,53,,,,,,,,,,,,,,392.6389999996318,,response,,,,99,,,,,,,Space,keypress(Space),,,,,,,,"---- -- ----- -- ------ - ------- --- ----------<br>relationship, ------ ------ ---- ---- ------- ----- -- ----<br>-------- ------- -- ---------- --- - --- ----- ----- ----<br>---- --- --- ----- --- ---- ---- ------- ----- ---- -------<br>--- --- -- ----- -- --- ---- -- --- ---- -- ------ ------<br>--- ----- -- ----",115087.09999999963,115086.59999999963,114677.351,114691.59999999963,114693.961,115094.429,,9,"relationship,"
screen,html.Screen,2_1_0_1_10,2022-02-04T11:31:08.927Z,,,,,,,,,,,,,,,,,53,,,,,,,,,,,,,,350.17099999962375,,response,,,,99,,,,,,,Space,keypress(Space),,,,,,,,---- -- ----- -- ------ - ------- --- ----------<br>------------- common ------ ---- ---- ------- ----- -- ----<br>-------- ------- -- ---------- --- - --- ----- ----- ----<br>---- --- --- ----- --- ---- ---- ------- ----- ---- -------<br>--- --- -- ----- -- --- ---- -- --- ---- -- ------ ------<br>--- ----- -- ----,115445.30000000075,115444.59999999963,115077.402,115087.09999999963,115094.429,115460.66,,10,common
screen,html.Screen,2_1_0_1_11,2022-02-04T11:31:09.745Z,,,,,,,,,,,,,,,,,53,,,,,,,,,,,,,,801.8399999999965,,response,,,,99,,,,,,,Space,keypress(Space),,,,,,,,---- -- ----- -- ------ - ------- --- ----------<br>------------- ------ wisdom ---- ---- ------- ----- -- ----<br>-------- ------- -- ---------- --- - --- ----- ----- ----<br>---- --- --- ----- --- ---- ---- ------- ----- ---- -------<br>--- --- -- ----- -- --- ---- -- --- ---- -- ------ ------<br>--- ----- -- ----,116262.90000000037,116262.5,115443.934,115445.5,115460.66,116277.142,,11,wisdom
screen,html.Screen,2_1_0_1_12,2022-02-04T11:31:10.170Z,,,,,,,,,,,,,,,,,53,,,,,,,,,,,,,,410.7580000003654,,response,,,,99,,,,,,,Space,keypress(Space),,,,,,,,---- -- ----- -- ------ - ------- --- ----------<br>------------- ------ ------ says ---- ------- ----- -- ----<br>-------- ------- -- ---------- --- - --- ----- ----- ----<br>---- --- --- ----- --- ---- ---- ------- ----- ---- -------<br>--- --- -- ----- -- --- ---- -- --- ---- -- ------ ------<br>--- ----- -- ----,116688.30000000075,116687.90000000037,116260.991,116263,116277.142,116693.874,,12,says
screen,html.Screen,2_1_0_1_13,2022-02-04T11:31:10.448Z,,,,,,,,,,,,,,,,,53,,,,,,,,,,,,,,271.4260000007489,,response,,,,99,,,,,,,Space,keypress(Space),,,,,,,,---- -- ----- -- ------ - ------- --- ----------<br>------------- ------ ------ ---- that ------- ----- -- ----<br>-------- ------- -- ---------- --- - --- ----- ----- ----<br>---- --- --- ----- --- ---- ---- ------- ----- ---- -------<br>--- --- -- ----- -- --- ---- -- --- ---- -- ------ ------<br>--- ----- -- ----,116965.80000000075,116965.30000000075,116677.539,116688.40000000037,116693.874,116977.254,,13,that
screen,html.Screen,2_1_0_1_14,2022-02-04T11:31:10.763Z,,,,,,,,,,,,,,,,,53,,,,,,,,,,,,,,303.54600000074424,,response,,,,99,,,,,,,Space,keypress(Space),,,,,,,,---- -- ----- -- ------ - ------- --- ----------<br>------------- ------ ------ ---- ---- feeling ----- -- ----<br>-------- ------- -- ---------- --- - --- ----- ----- ----<br>---- --- --- ----- --- ---- ---- ------- ----- ---- -------<br>--- --- -- ----- -- --- ---- -- --- ---- -- ------ ------<br>--- ----- -- ----,117281.30000000075,117280.80000000075,116960.328,116965.80000000075,116977.254,117293.588,,14,feeling
screen,html.Screen,2_1_0_1_15,2022-02-04T11:31:11.070Z,,,,,,,,,,,,,,,,,53,,,,,,,,,,,,,,293.5119999996241,,response,,,,99,,,,,,,Space,keypress(Space),,,,,,,,---- -- ----- -- ------ - ------- --- ----------<br>------------- ------ ------ ---- ---- ------- close -- ----<br>-------- ------- -- ---------- --- - --- ----- ----- ----<br>---- --- --- ----- --- ---- ---- ------- ----- ---- -------<br>--- --- -- ----- -- --- ---- -- --- ---- -- ------ ------<br>--- ----- -- ----,117587.80000000075,117587.09999999963,117276.923,117281.30000000075,117293.588,117593.814,,15,close
screen,html.Screen,2_1_0_1_16,2022-02-04T11:31:11.366Z,,,,,,,,,,,,,,,,,53,,,,,,,,,,,,,,289.48600000074657,,response,,,,99,,,,,,,Space,keypress(Space),,,,,,,,---- -- ----- -- ------ - ------- --- ----------<br>------------- ------ ------ ---- ---- ------- ----- to ----<br>-------- ------- -- ---------- --- - --- ----- ----- ----<br>---- --- --- ----- --- ---- ---- ------- ----- ---- -------<br>--- --- -- ----- -- --- ---- -- --- ---- -- ------ ------<br>--- ----- -- ----,117884.20000000112,117883.30000000075,117576.903,117587.90000000037,117593.814,117893.581,,16,to
screen,html.Screen,2_1_0_1_17,2022-02-04T11:31:11.632Z,,,,,,,,,,,,,,,,,53,,,,,,,,,,,,,,255.4189999999944,,response,,,,99,,,,,,,Space,keypress(Space),,,,,,,,---- -- ----- -- ------ - ------- --- ----------<br>------------- ------ ------ ---- ---- ------- ----- -- your<br>-------- ------- -- ---------- --- - --- ----- ----- ----<br>---- --- --- ----- --- ---- ---- ------- ----- ---- -------<br>--- --- -- ----- -- --- ---- -- --- ---- -- ------ ------<br>--- ----- -- ----,118149.90000000037,118149,117877.408,117884.40000000037,117893.581,118160.658,,17,your
screen,html.Screen,2_1_0_1_18,2022-02-04T11:31:12.049Z,,,,,,,,,,,,,,,,,53,,,,,,,,,,,,,,406.2420000003767,,response,,,,99,,,,,,,Space,keypress(Space),,,,,,,,---- -- ----- -- ------ - ------- --- ----------<br>------------- ------ ------ ---- ---- ------- ----- -- ----<br>romantic ------- -- ---------- --- - --- ----- ----- ----<br>---- --- --- ----- --- ---- ---- ------- ----- ---- -------<br>--- --- -- ----- -- --- ---- -- --- ---- -- ------ ------<br>--- ----- -- ----,118567.5,118566.90000000037,118143.935,118150.09999999963,118160.658,118576.777,,18,romantic
screen,html.Screen,2_1_0_1_19,2022-02-04T11:31:12.367Z,,,,,,,,,,,,,,,,,53,,,,,,,,,,,,,,307.4230000011157,,response,,,,99,,,,,,,Space,keypress(Space),,,,,,,,---- -- ----- -- ------ - ------- --- ----------<br>------------- ------ ------ ---- ---- ------- ----- -- ----<br>-------- partner -- ---------- --- - --- ----- ----- ----<br>---- --- --- ----- --- ---- ---- ------- ----- ---- -------<br>--- --- -- ----- -- --- ---- -- --- ---- -- ------ ------<br>--- ----- -- ----,118884.90000000037,118884.20000000112,118560.314,118567.59999999963,118576.777,118893.451,,19,partner
screen,html.Screen,2_1_0_1_20,2022-02-04T11:31:12.729Z,,,,,,,,,,,,,,,,,53,,,,,,,,,,,,,,352.64899999962654,,response,,,,99,,,,,,,Space,keypress(Space),,,,,,,,---- -- ----- -- ------ - ------- --- ----------<br>------------- ------ ------ ---- ---- ------- ----- -- ----<br>-------- ------- is ---------- --- - --- ----- ----- ----<br>---- --- --- ----- --- ---- ---- ------- ----- ---- -------<br>--- --- -- ----- -- --- ---- -- --- ---- -- ------ ------<br>--- ----- -- ----,119246.90000000037,119246.09999999963,118876.895,118885.09999999963,118893.451,119260.512,,20,is
screen,html.Screen,2_1_0_1_21,2022-02-04T11:31:13.319Z,,,,,,,,,,,,,,,,,53,,,,,,,,,,,,,,576.3880000003701,,response,,,,99,,,,,,,Space,keypress(Space),,,,,,,,---- -- ----- -- ------ - ------- --- ----------<br>------------- ------ ------ ---- ---- ------- ----- -- ----<br>-------- ------- -- paramount. --- - --- ----- ----- ----<br>---- --- --- ----- --- ---- ---- ------- ----- ---- -------<br>--- --- -- ----- -- --- ---- -- --- ---- -- ------ ------<br>--- ----- -- ----,119837.5,119836.90000000037,119243.78,119247.20000000112,119260.512,119843.324,,21,paramount.
screen,html.Screen,2_1_0_1_22,2022-02-04T11:31:13.696Z,,,,,,,,,,,,,,,,,53,,,,,,,,,,,,,,370.5760000003793,,response,,,,99,,,,,,,Space,keypress(Space),,,,,,,,---- -- ----- -- ------ - ------- --- ----------<br>------------- ------ ------ ---- ---- ------- ----- -- ----<br>-------- ------- -- ---------- But - --- ----- ----- ----<br>---- --- --- ----- --- ---- ---- ------- ----- ---- -------<br>--- --- -- ----- -- --- ---- -- --- ---- -- ------ ------<br>--- ----- -- ----,120214.40000000037,120213.90000000037,119827.086,119837.59999999963,119843.324,120227.119,,22,But
screen,html.Screen,2_1_0_1_23,2022-02-04T11:31:14.052Z,,,,,,,,,,,,,,,,,53,,,,,,,,,,,,,,342.7810000003665,,response,,,,99,,,,,,,Space,keypress(Space),,,,,,,,---- -- ----- -- ------ - ------- --- ----------<br>------------- ------ ------ ---- ---- ------- ----- -- ----<br>-------- ------- -- ---------- --- a --- ----- ----- ----<br>---- --- --- ----- --- ---- ---- ------- ----- ---- -------<br>--- --- -- ----- -- --- ---- -- --- ---- -- ------ ------<br>--- ----- -- ----,120570.30000000075,120569.90000000037,120210.463,120214.5,120227.119,120577.017,,23,a
screen,html.Screen,2_1_0_1_24,2022-02-04T11:31:14.308Z,,,,,,,,,,,,,,,,,53,,,,,,,,,,,,,,248.88300000036543,,response,,,,99,,,,,,,Space,keypress(Space),,,,,,,,---- -- ----- -- ------ - ------- --- ----------<br>------------- ------ ------ ---- ---- ------- ----- -- ----<br>-------- ------- -- ---------- --- - new ----- ----- ----<br>---- --- --- ----- --- ---- ---- ------- ----- ---- -------<br>--- --- -- ----- -- --- ---- -- --- ---- -- ------ ------<br>--- ----- -- ----,120826.5,120825.90000000037,120560.319,120570.5,120577.017,120843.645,,24,new
screen,html.Screen,2_1_0_1_25,2022-02-04T11:31:14.645Z,,,,,,,,,,,,,,,,,53,,,,,,,,,,,,,,318.5550000011135,,response,,,,99,,,,,,,Space,keypress(Space),,,,,,,,---- -- ----- -- ------ - ------- --- ----------<br>------------- ------ ------ ---- ---- ------- ----- -- ----<br>-------- ------- -- ---------- --- - --- study ----- ----<br>---- --- --- ----- --- ---- ---- ------- ----- ---- -------<br>--- --- -- ----- -- --- ---- -- --- ---- -- ------ ------<br>--- ----- -- ----,121162.80000000075,121162.20000000112,120826.462,120826.59999999963,120843.645,121176.909,,25,study
screen,html.Screen,2_1_0_1_26,2022-02-04T11:31:14.943Z,,,,,,,,,,,,,,,,,53,,,,,,,,,,,,,,283.09100000000035,,response,,,,99,,,,,,,Space,keypress(Space),,,,,,,,---- -- ----- -- ------ - ------- --- ----------<br>------------- ------ ------ ---- ---- ------- ----- -- ----<br>-------- ------- -- ---------- --- - --- ----- finds ----<br>---- --- --- ----- --- ---- ---- ------- ----- ---- -------<br>--- --- -- ----- -- --- ---- -- --- ---- -- ------ ------<br>--- ----- -- ----,121460.59999999963,121460,121160.225,121163,121176.909,121476.82,,26,finds
screen,html.Screen,2_1_0_1_27,2022-02-04T11:31:15.241Z,,,,,,,,,,,,,,,,,53,,,,,,,,,,,,,,281.3800000011106,,response,,,,99,,,,,,,Space,keypress(Space),,,,,,,,---- -- ----- -- ------ - ------- --- ----------<br>------------- ------ ------ ---- ---- ------- ----- -- ----<br>-------- ------- -- ---------- --- - --- ----- ----- that<br>---- --- --- ----- --- ---- ---- ------- ----- ---- -------<br>--- --- -- ----- -- --- ---- -- --- ---- -- ------ ------<br>--- ----- -- ----,121759,121758.20000000112,121459.745,121460.70000000112,121476.82,121759.721,,27,that
screen,html.Screen,2_1_0_1_28,2022-02-04T11:31:15.623Z,,,,,,,,,,,,,,,,,53,,,,,,,,,,,,,,380.6790000003675,,response,,,,99,,,,,,,Space,keypress(Space),,,,,,,,---- -- ----- -- ------ - ------- --- ----------<br>------------- ------ ------ ---- ---- ------- ----- -- ----<br>-------- ------- -- ---------- --- - --- ----- ----- ----<br>it's --- --- ----- --- ---- ---- ------- ----- ---- -------<br>--- --- -- ----- -- --- ---- -- --- ---- -- ------ ------<br>--- ----- -- ----,122140.90000000037,122140.40000000037,121743.491,121759.09999999963,121759.721,122142.968,,28,it's
screen,html.Screen,2_1_0_1_29,2022-02-04T11:31:15.892Z,,,,,,,,,,,,,,,,,53,,,,,,,,,,,,,,266.3320000007516,,response,,,,99,,,,,,,Space,keypress(Space),,,,,,,,---- -- ----- -- ------ - ------- --- ----------<br>------------- ------ ------ ---- ---- ------- ----- -- ----<br>-------- ------- -- ---------- --- - --- ----- ----- ----<br>---- not --- ----- --- ---- ---- ------- ----- ---- -------<br>--- --- -- ----- -- --- ---- -- --- ---- -- ------ ------<br>--- ----- -- ----,122409.80000000075,122409.30000000075,122126.792,122141,122142.968,122426.3,,29,not
screen,html.Screen,2_1_0_1_30,2022-02-04T11:31:16.205Z,,,,,,,,,,,,,,,,,53,,,,,,,,,,,,,,295.6000000003696,,response,,,,99,,,,,,,Space,keypress(Space),,,,,,,,---- -- ----- -- ------ - ------- --- ----------<br>------------- ------ ------ ---- ---- ------- ----- -- ----<br>-------- ------- -- ---------- --- - --- ----- ----- ----<br>---- --- how ----- --- ---- ---- ------- ----- ---- -------<br>--- --- -- ----- -- --- ---- -- --- ---- -- ------ ------<br>--- ----- -- ----,122722.59999999963,122721.90000000037,122409.615,122409.90000000037,122426.3,122726.263,,30,how
screen,html.Screen,2_1_0_1_31,2022-02-04T11:31:16.551Z,,,,,,,,,,,,,,,,,53,,,,,,,,,,,,,,342.5370000007388,,response,,,,99,,,,,,,Space,keypress(Space),,,,,,,,---- -- ----- -- ------ - ------- --- ----------<br>------------- ------ ------ ---- ---- ------- ----- -- ----<br>-------- ------- -- ---------- --- - --- ----- ----- ----<br>---- --- --- close --- ---- ---- ------- ----- ---- -------<br>--- --- -- ----- -- --- ---- -- --- ---- -- ------ ------<br>--- ----- -- ----,123069.40000000037,123068.80000000075,122709.986,122722.70000000112,122726.263,123076.548,,31,close
screen,html.Screen,2_1_0_1_32,2022-02-04T11:31:16.876Z,,,,,,,,,,,,,,,,,53,,,,,,,,,,,,,,316.8520000003773,,response,,,,99,,,,,,,Space,keypress(Space),,,,,,,,---- -- ----- -- ------ - ------- --- ----------<br>------------- ------ ------ ---- ---- ------- ----- -- ----<br>-------- ------- -- ---------- --- - --- ----- ----- ----<br>---- --- --- ----- you ---- ---- ------- ----- ---- -------<br>--- --- -- ----- -- --- ---- -- --- ---- -- ------ ------<br>--- ----- -- ----,123393.80000000075,123393.40000000037,123059.93,123069.5,123076.548,123409.969,,32,you
screen,html.Screen,2_1_0_1_33,2022-02-04T11:31:17.149Z,,,,,,,,,,,,,,,,,53,,,,,,,,,,,,,,256.33100000074774,,response,,,,99,,,,,,,Space,keypress(Space),,,,,,,,---- -- ----- -- ------ - ------- --- ----------<br>------------- ------ ------ ---- ---- ------- ----- -- ----<br>-------- ------- -- ---------- --- - --- ----- ----- ----<br>---- --- --- ----- --- feel ---- ------- ----- ---- -------<br>--- --- -- ----- -- --- ---- -- --- ---- -- ------ ------<br>--- ----- -- ----,123666.90000000037,123666.30000000075,123392.876,123393.90000000037,123409.969,123676.581,,33,feel
screen,html.Screen,2_1_0_1_34,2022-02-04T11:31:17.456Z,,,,,,,,,,,,,,,,,53,,,,,,,,,,,,,,297.31900000036694,,response,,,,99,,,,,,,Space,keypress(Space),,,,,,,,---- -- ----- -- ------ - ------- --- ----------<br>------------- ------ ------ ---- ---- ------- ----- -- ----<br>-------- ------- -- ---------- --- - --- ----- ----- ----<br>---- --- --- ----- --- ---- that ------- ----- ---- -------<br>--- --- -- ----- -- --- ---- -- --- ---- -- ------ ------<br>--- ----- -- ----,123974.40000000037,123973.90000000037,123659.751,123667.09999999963,123676.581,123976.089,,34,that
screen,html.Screen,2_1_0_1_35,2022-02-04T11:31:17.731Z,,,,,,,,,,,,,,,,,53,,,,,,,,,,,,,,272.71100000073784,,response,,,,99,,,,,,,Space,keypress(Space),,,,,,,,---- -- ----- -- ------ - ------- --- ----------<br>------------- ------ ------ ---- ---- ------- ----- -- ----<br>-------- ------- -- ---------- --- - --- ----- ----- ----<br>---- --- --- ----- --- ---- ---- matters ----- ---- -------<br>--- --- -- ----- -- --- ---- -- --- ---- -- ------ ------<br>--- ----- -- ----,124249.40000000037,124248.80000000075,123959.833,123974.5,123976.089,124259.715,,35,matters
screen,html.Screen,2_1_0_1_36,2022-02-04T11:31:18.017Z,,,,,,,,,,,,,,,,,53,,,,,,,,,,,,,,274.4850000011211,,response,,,,99,,,,,,,Space,keypress(Space),,,,,,,,"---- -- ----- -- ------ - ------- --- ----------<br>------------- ------ ------ ---- ---- ------- ----- -- ----<br>-------- ------- -- ---------- --- - --- ----- ----- ----<br>---- --- --- ----- --- ---- ---- ------- most, ---- -------<br>--- --- -- ----- -- --- ---- -- --- ---- -- ------ ------<br>--- ----- -- ----",124534.70000000112,124534.20000000112,124243.189,124249.5,124259.715,124542.88,,36,"most,"
screen,html.Screen,2_1_0_1_37,2022-02-04T11:31:18.370Z,,,,,,,,,,,,,,,,,53,,,,,,,,,,,,,,345.11999999999534,,response,,,,99,,,,,,,Space,keypress(Space),,,,,,,,---- -- ----- -- ------ - ------- --- ----------<br>------------- ------ ------ ---- ---- ------- ----- -- ----<br>-------- ------- -- ---------- --- - --- ----- ----- ----<br>---- --- --- ----- --- ---- ---- ------- ----- it's -------<br>--- --- -- ----- -- --- ---- -- --- ---- -- ------ ------<br>--- ----- -- ----,124888.5,124888,124526.46,124534.80000000075,124542.88,124892.692,,37,it's
screen,html.Screen,2_1_0_1_38,2022-02-04T11:31:18.646Z,,,,,,,,,,,,,,,,,53,,,,,,,,,,,,,,271.20800000037707,,response,,,,99,,,,,,,Space,keypress(Space),,,,,,,,---- -- ----- -- ------ - ------- --- ----------<br>------------- ------ ------ ---- ---- ------- ----- -- ----<br>-------- ------- -- ---------- --- - --- ----- ----- ----<br>---- --- --- ----- --- ---- ---- ------- ----- ---- whether<br>--- --- -- ----- -- --- ---- -- --- ---- -- ------ ------<br>--- ----- -- ----,125164.30000000075,125163.90000000037,124876.192,124888.59999999963,124892.692,125176.479,,38,whether
screen,html.Screen,2_1_0_1_39,2022-02-04T11:31:18.924Z,,,,,,,,,,,,,,,,,53,,,,,,,,,,,,,,264.72100000111095,,response,,,,99,,,,,,,Space,keypress(Space),,,,,,,,---- -- ----- -- ------ - ------- --- ----------<br>------------- ------ ------ ---- ---- ------- ----- -- ----<br>-------- ------- -- ---------- --- - --- ----- ----- ----<br>---- --- --- ----- --- ---- ---- ------- ----- ---- -------<br>you --- -- ----- -- --- ---- -- --- ---- -- ------ ------<br>--- ----- -- ----,125441.80000000075,125441.20000000112,125159.675,125164.40000000037,125176.479,125442.562,,39,you
screen,html.Screen,2_1_0_1_40,2022-02-04T11:31:19.209Z,,,,,,,,,,,,,,,,,53,,,,,,,,,,,,,,283.8380000003672,,response,,,,99,,,,,,,Space,keypress(Space),,,,,,,,---- -- ----- -- ------ - ------- --- ----------<br>------------- ------ ------ ---- ---- ------- ----- -- ----<br>-------- ------- -- ---------- --- - --- ----- ----- ----<br>---- --- --- ----- --- ---- ---- ------- ----- ---- -------<br>--- are -- ----- -- --- ---- -- --- ---- -- ------ ------<br>--- ----- -- ----,125727,125726.40000000037,125426.455,125441.90000000037,125442.562,125742.668,,40,are
screen,html.Screen,2_1_0_1_41,2022-02-04T11:31:19.470Z,,,,,,,,,,,,,,,,,53,,,,,,,,,,,,,,245.03200000111246,,response,,,,99,,,,,,,Space,keypress(Space),,,,,,,,---- -- ----- -- ------ - ------- --- ----------<br>------------- ------ ------ ---- ---- ------- ----- -- ----<br>-------- ------- -- ---------- --- - --- ----- ----- ----<br>---- --- --- ----- --- ---- ---- ------- ----- ---- -------<br>--- --- as ----- -- --- ---- -- --- ---- -- ------ ------<br>--- ----- -- ----,125988.30000000075,125987.70000000112,125725.991,125727,125742.668,125992.681,,41,as
screen,html.Screen,2_1_0_1_42,2022-02-04T11:31:19.697Z,,,,,,,,,,,,,,,,,53,,,,,,,,,,,,,,221.9189999996306,,response,,,,99,,,,,,,Space,keypress(Space),,,,,,,,---- -- ----- -- ------ - ------- --- ----------<br>------------- ------ ------ ---- ---- ------- ----- -- ----<br>-------- ------- -- ---------- --- - --- ----- ----- ----<br>---- --- --- ----- --- ---- ---- ------- ----- ---- -------<br>--- --- -- close -- --- ---- -- --- ---- -- ------ ------<br>--- ----- -- ----,126215.20000000112,126214.59999999963,125976.309,125988.40000000037,125992.681,126225.803,,42,close
screen,html.Screen,2_1_0_1_43,2022-02-04T11:31:19.995Z,,,,,,,,,,,,,,,,,53,,,,,,,,,,,,,,286.7969999996276,,response,,,,99,,,,,,,Space,keypress(Space),,,,,,,,---- -- ----- -- ------ - ------- --- ----------<br>------------- ------ ------ ---- ---- ------- ----- -- ----<br>-------- ------- -- ---------- --- - --- ----- ----- ----<br>---- --- --- ----- --- ---- ---- ------- ----- ---- -------<br>--- --- -- ----- as --- ---- -- --- ---- -- ------ ------<br>--- ----- -- ----,126513.09999999963,126512.59999999963,126209.125,126215.30000000075,126225.803,126526.284,,43,as
screen,html.Screen,2_1_0_1_44,2022-02-04T11:31:20.303Z,,,,,,,,,,,,,,,,,53,,,,,,,,,,,,,,294.0160000007454,,response,,,,99,,,,,,,Space,keypress(Space),,,,,,,,---- -- ----- -- ------ - ------- --- ----------<br>------------- ------ ------ ---- ---- ------- ----- -- ----<br>-------- ------- -- ---------- --- - --- ----- ----- ----<br>---- --- --- ----- --- ---- ---- ------- ----- ---- -------<br>--- --- -- ----- -- you ---- -- --- ---- -- ------ ------<br>--- ----- -- ----,126820.80000000075,126820.30000000075,126509.452,126513.20000000112,126526.284,126825.799,,44,you
screen,html.Screen,2_1_0_1_45,2022-02-04T11:31:20.605Z,,,,,,,,,,,,,,,,,53,,,,,,,,,,,,,,296.9010000011185,,response,,,,99,,,,,,,Space,keypress(Space),,,,,,,,---- -- ----- -- ------ - ------- --- ----------<br>------------- ------ ------ ---- ---- ------- ----- -- ----<br>-------- ------- -- ---------- --- - --- ----- ----- ----<br>---- --- --- ----- --- ---- ---- ------- ----- ---- -------<br>--- --- -- ----- -- --- want -- --- ---- -- ------ ------<br>--- ----- -- ----,127123.30000000075,127122.70000000112,126809.304,126820.90000000037,126825.799,127125.663,,45,want
screen,html.Screen,2_1_0_1_46,2022-02-04T11:31:20.890Z,,,,,,,,,,,,,,,,,53,,,,,,,,,,,,,,282.33699999999953,,response,,,,99,,,,,,,Space,keypress(Space),,,,,,,,---- -- ----- -- ------ - ------- --- ----------<br>------------- ------ ------ ---- ---- ------- ----- -- ----<br>-------- ------- -- ---------- --- - --- ----- ----- ----<br>---- --- --- ----- --- ---- ---- ------- ----- ---- -------<br>--- --- -- ----- -- --- ---- to --- ---- -- ------ ------<br>--- ----- -- ----,127408.5,127408,127109.399,127123.30000000075,127125.663,127408.983,,46,to
screen,html.Screen,2_1_0_1_47,2022-02-04T11:31:21.156Z,,,,,,,,,,,,,,,,,53,,,,,,,,,,,,,,264.31700000075216,,response,,,,99,,,,,,,Space,keypress(Space),,,,,,,,"---- -- ----- -- ------ - ------- --- ----------<br>------------- ------ ------ ---- ---- ------- ----- -- ----<br>-------- ------- -- ---------- --- - --- ----- ----- ----<br>---- --- --- ----- --- ---- ---- ------- ----- ---- -------<br>--- --- -- ----- -- --- ---- -- be, ---- -- ------ ------<br>--- ----- -- ----",127673.80000000075,127673.30000000075,127392.951,127408.5,127408.983,127675.602,,47,"be,"
screen,html.Screen,2_1_0_1_48,2022-02-04T11:31:21.461Z,,,,,,,,,,,,,,,,,53,,,,,,,,,,,,,,302.89800000000105,,response,,,,99,,,,,,,Space,keypress(Space),,,,,,,,---- -- ----- -- ------ - ------- --- ----------<br>------------- ------ ------ ---- ---- ------- ----- -- ----<br>-------- ------- -- ---------- --- - --- ----- ----- ----<br>---- --- --- ----- --- ---- ---- ------- ----- ---- -------<br>--- --- -- ----- -- --- ---- -- --- even -- ------ ------<br>--- ----- -- ----,127979.09999999963,127978.5,127659.319,127673.90000000037,127675.602,127992.694,,48,even
screen,html.Screen,2_1_0_1_49,2022-02-04T11:31:21.742Z,,,,,,,,,,,,,,,,,53,,,,,,,,,,,,,,267.2060000003694,,response,,,,99,,,,,,,Space,keypress(Space),,,,,,,,---- -- ----- -- ------ - ------- --- ----------<br>------------- ------ ------ ---- ---- ------- ----- -- ----<br>-------- ------- -- ---------- --- - --- ----- ----- ----<br>---- --- --- ----- --- ---- ---- ------- ----- ---- -------<br>--- --- -- ----- -- --- ---- -- --- ---- if ------ ------<br>--- ----- -- ----,128260.5,128259.90000000037,127976.043,127979.20000000112,127992.694,128275.996,,49,if
screen,html.Screen,2_1_0_1_50,2022-02-04T11:31:21.981Z,,,,,,,,,,,,,,,,,53,,,,,,,,,,,,,,222.90400000037334,,response,,,,99,,,,,,,Space,keypress(Space),,,,,,,,---- -- ----- -- ------ - ------- --- ----------<br>------------- ------ ------ ---- ---- ------- ----- -- ----<br>-------- ------- -- ---------- --- - --- ----- ----- ----<br>---- --- --- ----- --- ---- ---- ------- ----- ---- -------<br>--- --- -- ----- -- --- ---- -- --- ---- -- that's ------<br>--- ----- -- ----,128499.40000000037,128498.90000000037,128259.231,128260.59999999963,128275.996,128509.04,,50,that's
screen,html.Screen,2_1_0_1_51,2022-02-04T11:31:22.319Z,,,,,,,,,,,,,,,,,53,,,,,,,,,,,,,,327.160000001124,,response,,,,99,,,,,,,Space,keypress(Space),,,,,,,,---- -- ----- -- ------ - ------- --- ----------<br>------------- ------ ------ ---- ---- ------- ----- -- ----<br>-------- ------- -- ---------- --- - --- ----- ----- ----<br>---- --- --- ----- --- ---- ---- ------- ----- ---- -------<br>--- --- -- ----- -- --- ---- -- --- ---- -- ------ really<br>--- ----- -- ----,128836.70000000112,128836.20000000112,128492.645,128499.5,128509.04,128842.312,,51,really
screen,html.Screen,2_1_0_1_52,2022-02-04T11:31:22.636Z,,,,,,,,,,,,,,,,,53,,,,,,,,,,,,,,310.5880000003672,,response,,,,99,,,,,,,Space,keypress(Space),,,,,,,,---- -- ----- -- ------ - ------- --- ----------<br>------------- ------ ------ ---- ---- ------- ----- -- ----<br>-------- ------- -- ---------- --- - --- ----- ----- ----<br>---- --- --- ----- --- ---- ---- ------- ----- ---- -------<br>--- --- -- ----- -- --- ---- -- --- ---- -- ------ ------<br>not ----- -- ----,129153.70000000112,129152.90000000037,128825.941,128836.80000000075,128842.312,129158.75,,52,not
screen,html.Screen,2_1_0_1_53,2022-02-04T11:31:22.955Z,,,,,,,,,,,,,,,,,53,,,,,,,,,,,,,,313.84999999962747,,response,,,,99,,,,,,,Space,keypress(Space),,,,,,,,---- -- ----- -- ------ - ------- --- ----------<br>------------- ------ ------ ---- ---- ------- ----- -- ----<br>-------- ------- -- ---------- --- - --- ----- ----- ----<br>---- --- --- ----- --- ---- ---- ------- ----- ---- -------<br>--- --- -- ----- -- --- ---- -- --- ---- -- ------ ------<br>--- close -- ----,129473.09999999963,129472.59999999963,129142.55,129153.90000000037,129158.75,129475.396,,53,close
screen,html.Screen,2_1_0_1_54,2022-02-04T11:31:23.242Z,,,,,,,,,,,,,,,,,53,,,,,,,,,,,,,,284.3040000011242,,response,,,,99,,,,,,,Space,keypress(Space),,,,,,,,---- -- ----- -- ------ - ------- --- ----------<br>------------- ------ ------ ---- ---- ------- ----- -- ----<br>-------- ------- -- ---------- --- - --- ----- ----- ----<br>---- --- --- ----- --- ---- ---- ------- ----- ---- -------<br>--- --- -- ----- -- --- ---- -- --- ---- -- ------ ------<br>--- ----- at ----,129760.30000000075,129759.70000000112,129459.083,129473.59999999963,129475.396,129775.807,,54,at
screen,html.Screen,2_1_0_1_55,2022-02-04T11:31:23.582Z,,,,,,,,,,,,,,,,,53,,,,,,,,,,,,,,323.6929999999993,,response,,,,99,,,,,,,Space,keypress(Space),,,,,,,,---- -- ----- -- ------ - ------- --- ----------<br>------------- ------ ------ ---- ---- ------- ----- -- ----<br>-------- ------- -- ---------- --- - --- ----- ----- ----<br>---- --- --- ----- --- ---- ---- ------- ----- ---- -------<br>--- --- -- ----- -- --- ---- -- --- ---- -- ------ ------<br>--- ----- -- all.,130100.09999999963,130099.5,129758.676,129760.40000000037,129775.807,130108.646,,55,all.
Item 99,flow.Loop,2_1_0_1,2022-02-04T11:31:23.582Z,,,,,,,,,,,,,,,,,,,,,,,,,,,,,,,19005.130999999994,,completion,,,,,C,,,,,,,,,,,silence,,,,,130100.30000000075,130099.5,111061.529,111062.30000000075,111094.369,130108.646,,,
Question 1,html.Screen,2_1_0_2,2022-02-04T11:31:27.585Z,,,,,,,,,,,,,,,,,,,,,,,,,,,,false,FALSE,,3993.3540000000066,,response,,,,99,C,,,,,,TRUE,click #choice-1,,,,silence,,,,,134102.59999999963,134102,130092.459,130100.30000000075,130108.646,134108.13,,,
Question 2,html.Screen,2_1_0_3,2022-02-04T11:31:32.040Z,,,,,,,,,,,,,,,,,,,,,,,,,,,,true,TRUE,,4449.570000001113,,response,,,,99,C,,,,,,TRUE,click #choice-1,,,,silence,,,,,138558.30000000075,138557.70000000112,134091.928,134102.70000000112,134108.13,138574.757,,,
Item 99,flow.Sequence,2_1_0,2022-02-04T11:31:32.040Z,,,,,,,,,,,,,,,,,,,,,,,,,,,,,,,37478.698000001124,,completion,,,,,,,,,,,,,,,,,,,,,138558.5,138557.70000000112,101062.806,101071.09999999963,101079.002,138574.757,,,
Holding screen,html.Screen,2_1_1_0,2022-02-04T11:31:42.040Z,,,,,,,,,,,,,,,,,,,,,,,,,,,,,,,9998.229999999981,,timeout,,,,,,,,,,,,,,,,,,,,,148558,148556.295,138557.564,138558.59999999963,138574.757,148572.987,,,
screen,html.Screen,2_1_1_1_0,2022-02-04T11:31:42.872Z,,,,,,,,,,,,,,,,,54,,,,,,,,,,,,,,816.7130000011239,,response,,,,100,,,,,,,Space,keypress(Space),,,,,,,,At --- ---- --- ------ ----- ------- ---- -- --- ------- --<br>------- ---------- ------ -- ----- -- ----- -- ---- ------<br>--- ----- --- --- ------ -------- ----- --- ------ ----- --<br>----- ----- ---------- --- --- ------ ------ ---- -- ------<br>------- --- ------ ----- --- ---- ------- -- ---- --- --<br>------- ------,149390.20000000112,149389.70000000112,148556.295,148558.20000000112,148572.987,149406.774,,0,At
screen,html.Screen,2_1_1_1_1,2022-02-04T11:31:43.194Z,,,,,,,,,,,,,,,,,54,,,,,,,,,,,,,,304.7259999999951,,response,,,,100,,,,,,,Space,keypress(Space),,,,,,,,-- the ---- --- ------ ----- ------- ---- -- --- ------- --<br>------- ---------- ------ -- ----- -- ----- -- ---- ------<br>--- ----- --- --- ------ -------- ----- --- ------ ----- --<br>----- ----- ---------- --- --- ------ ------ ---- -- ------<br>------- --- ------ ----- --- ---- ------- -- ---- --- --<br>------- ------,149712.09999999963,149711.5,149389.511,149390.20000000112,149406.774,149723.282,,1,the
screen,html.Screen,2_1_1_1_2,2022-02-04T11:31:43.479Z,,,,,,,,,,,,,,,,,54,,,,,,,,,,,,,,273.618000000366,,response,,,,100,,,,,,,Space,keypress(Space),,,,,,,,-- --- time --- ------ ----- ------- ---- -- --- ------- --<br>------- ---------- ------ -- ----- -- ----- -- ---- ------<br>--- ----- --- --- ------ -------- ----- --- ------ ----- --<br>----- ----- ---------- --- --- ------ ------ ---- -- ------<br>------- --- ------ ----- --- ---- ------- -- ---- --- --<br>------- ------,149997.5,149996.90000000037,149706.202,149712.30000000075,149723.282,150006.393,,2,time
screen,html.Screen,2_1_1_1_3,2022-02-04T11:31:43.779Z,,,,,,,,,,,,,,,,,54,,,,,,,,,,,,,,290.5070000003616,,response,,,,100,,,,,,,Space,keypress(Space),,,,,,,,-- --- ---- the ------ ----- ------- ---- -- --- ------- --<br>------- ---------- ------ -- ----- -- ----- -- ---- ------<br>--- ----- --- --- ------ -------- ----- --- ------ ----- --<br>----- ----- ---------- --- --- ------ ------ ---- -- ------<br>------- --- ------ ----- --- ---- ------- -- ---- --- --<br>------- ------,150297.5,150296.90000000037,149989.679,149997.59999999963,150006.393,150306.066,,3,the
screen,html.Screen,2_1_1_1_4,2022-02-04T11:31:44.191Z,,,,,,,,,,,,,,,,,54,,,,,,,,,,,,,,402.4340000000084,,response,,,,100,,,,,,,Space,keypress(Space),,,,,,,,-- --- ---- --- French ----- ------- ---- -- --- ------- --<br>------- ---------- ------ -- ----- -- ----- -- ---- ------<br>--- ----- --- --- ------ -------- ----- --- ------ ----- --<br>----- ----- ---------- --- --- ------ ------ ---- -- ------<br>------- --- ------ ----- --- ---- ------- -- ---- --- --<br>------- ------,150709.20000000112,150708.5,150289.873,150297.5,150306.066,150723.138,,4,French
screen,html.Screen,2_1_1_1_5,2022-02-04T11:31:44.540Z,,,,,,,,,,,,,,,,,54,,,,,,,,,,,,,,334.1620000007388,,response,,,,100,,,,,,,Space,keypress(Space),,,,,,,,-- --- ---- --- ------ crown ------- ---- -- --- ------- --<br>------- ---------- ------ -- ----- -- ----- -- ---- ------<br>--- ----- --- --- ------ -------- ----- --- ------ ----- --<br>----- ----- ---------- --- --- ------ ------ ---- -- ------<br>------- --- ------ ----- --- ---- ------- -- ---- --- --<br>------- ------,151057.90000000037,151057.30000000075,150706.168,150709.30000000075,150723.138,151073.098,,5,crown
screen,html.Screen,2_1_1_1_6,2022-02-04T11:31:44.864Z,,,,,,,,,,,,,,,,,54,,,,,,,,,,,,,,308.90200000000186,,response,,,,100,,,,,,,Space,keypress(Space),,,,,,,,-- --- ---- --- ------ ----- secured ---- -- --- ------- --<br>------- ---------- ------ -- ----- -- ----- -- ---- ------<br>--- ----- --- --- ------ -------- ----- --- ------ ----- --<br>----- ----- ---------- --- --- ------ ------ ---- -- ------<br>------- --- ------ ----- --- ---- ------- -- ---- --- --<br>------- ------,151382.5,151382,151056.436,151058,151073.098,151389.265,,6,secured
screen,html.Screen,2_1_1_1_7,2022-02-04T11:31:45.255Z,,,,,,,,,,,,,,,,,54,,,,,,,,,,,,,,382.9350000011036,,response,,,,100,,,,,,,Space,keypress(Space),,,,,,,,-- --- ---- --- ------ ----- ------- much -- --- ------- --<br>------- ---------- ------ -- ----- -- ----- -- ---- ------<br>--- ----- --- --- ------ -------- ----- --- ------ ----- --<br>----- ----- ---------- --- --- ------ ------ ---- -- ------<br>------- --- ------ ----- --- ---- ------- -- ---- --- --<br>------- ------,151773.09999999963,151772.20000000112,151372.756,151382.59999999963,151389.265,151789.464,,7,much
screen,html.Screen,2_1_1_1_8,2022-02-04T11:31:45.587Z,,,,,,,,,,,,,,,,,54,,,,,,,,,,,,,,315.4360000003653,,response,,,,100,,,,,,,Space,keypress(Space),,,,,,,,-- --- ---- --- ------ ----- ------- ---- of --- ------- --<br>------- ---------- ------ -- ----- -- ----- -- ---- ------<br>--- ----- --- --- ------ -------- ----- --- ------ ----- --<br>----- ----- ---------- --- --- ------ ------ ---- -- ------<br>------- --- ------ ----- --- ---- ------- -- ---- --- --<br>------- ------,152105.30000000075,152104.90000000037,151772.569,151773.30000000075,151789.464,152105.819,,8,of
screen,html.Screen,2_1_1_1_9,2022-02-04T11:31:45.809Z,,,,,,,,,,,,,,,,,54,,,,,,,,,,,,,,220.98100000075647,,response,,,,100,,,,,,,Space,keypress(Space),,,,,,,,-- --- ---- --- ------ ----- ------- ---- -- its ------- --<br>------- ---------- ------ -- ----- -- ----- -- ---- ------<br>--- ----- --- --- ------ -------- ----- --- ------ ----- --<br>----- ----- ---------- --- --- ------ ------ ---- -- ------<br>------- --- ------ ----- --- ---- ------- -- ---- --- --<br>------- ------,152327.20000000112,152326.80000000075,152089.452,152105.40000000037,152105.819,152339.241,,9,its
screen,html.Screen,2_1_1_1_10,2022-02-04T11:31:46.087Z,,,,,,,,,,,,,,,,,54,,,,,,,,,,,,,,265.059000000736,,response,,,,100,,,,,,,Space,keypress(Space),,,,,,,,-- --- ---- --- ------ ----- ------- ---- -- --- revenue --<br>------- ---------- ------ -- ----- -- ----- -- ---- ------<br>--- ----- --- --- ------ -------- ----- --- ------ ----- --<br>----- ----- ---------- --- --- ------ ------ ---- -- ------<br>------- --- ------ ----- --- ---- ------- -- ---- --- --<br>------- ------,152604.70000000112,152604.30000000075,152323.036,152327.30000000075,152339.241,152605.765,,10,revenue
screen,html.Screen,2_1_1_1_11,2022-02-04T11:31:46.417Z,,,,,,,,,,,,,,,,,54,,,,,,,,,,,,,,328.4350000011036,,response,,,,100,,,,,,,Space,keypress(Space),,,,,,,,-- --- ---- --- ------ ----- ------- ---- -- --- ------- by<br>------- ---------- ------ -- ----- -- ----- -- ---- ------<br>--- ----- --- --- ------ -------- ----- --- ------ ----- --<br>----- ----- ---------- --- --- ------ ------ ---- -- ------<br>------- --- ------ ----- --- ---- ------- -- ---- --- --<br>------- ------,152934.70000000112,152934.20000000112,152589.533,152604.80000000075,152605.765,152939.23,,11,by
screen,html.Screen,2_1_1_1_12,2022-02-04T11:31:46.687Z,,,,,,,,,,,,,,,,,54,,,,,,,,,,,,,,265.2699999999895,,response,,,,100,,,,,,,Space,keypress(Space),,,,,,,,-- --- ---- --- ------ ----- ------- ---- -- --- ------- --<br>issuing ---------- ------ -- ----- -- ----- -- ---- ------<br>--- ----- --- --- ------ -------- ----- --- ------ ----- --<br>----- ----- ---------- --- --- ------ ------ ---- -- ------<br>------- --- ------ ----- --- ---- ------- -- ---- --- --<br>------- ------,153205.09999999963,153204.5,152922.861,152934.80000000075,152939.23,153205.69,,12,issuing
screen,html.Screen,2_1_1_1_13,2022-02-04T11:31:47.068Z,,,,,,,,,,,,,,,,,54,,,,,,,,,,,,,,379.61000000074273,,response,,,,100,,,,,,,Space,keypress(Space),,,,,,,,-- --- ---- --- ------ ----- ------- ---- -- --- ------- --<br>------- government ------ -- ----- -- ----- -- ---- ------<br>--- ----- --- --- ------ -------- ----- --- ------ ----- --<br>----- ----- ---------- --- --- ------ ------ ---- -- ------<br>------- --- ------ ----- --- ---- ------- -- ---- --- --<br>------- ------,153585.90000000037,153585.30000000075,153189.024,153205.09999999963,153205.69,153589.012,,13,government
screen,html.Screen,2_1_1_1_14,2022-02-04T11:31:47.418Z,,,,,,,,,,,,,,,,,54,,,,,,,,,,,,,,346.6880000011297,,response,,,,100,,,,,,,Space,keypress(Space),,,,,,,,-- --- ---- --- ------ ----- ------- ---- -- --- ------- --<br>------- ---------- bonds. -- ----- -- ----- -- ---- ------<br>--- ----- --- --- ------ -------- ----- --- ------ ----- --<br>----- ----- ---------- --- --- ------ ------ ---- -- ------<br>------- --- ------ ----- --- ---- ------- -- ---- --- --<br>------- ------,153936.20000000112,153935.70000000112,153572.755,153586.09999999963,153589.012,153938.919,,14,bonds.
screen,html.Screen,2_1_1_1_15,2022-02-04T11:31:47.777Z,,,,,,,,,,,,,,,,,54,,,,,,,,,,,,,,355.9810000003781,,response,,,,100,,,,,,,Space,keypress(Space),,,,,,,,-- --- ---- --- ------ ----- ------- ---- -- --- ------- --<br>------- ---------- ------ In ----- -- ----- -- ---- ------<br>--- ----- --- --- ------ -------- ----- --- ------ ----- --<br>----- ----- ---------- --- --- ------ ------ ---- -- ------<br>------- --- ------ ----- --- ---- ------- -- ---- --- --<br>------- ------,154295.30000000075,154294.90000000037,153922.837,153936.30000000075,153938.919,154305.536,,15,In
screen,html.Screen,2_1_1_1_16,2022-02-04T11:31:48.077Z,,,,,,,,,,,,,,,,,54,,,,,,,,,,,,,,288.86400000037975,,response,,,,100,,,,,,,Space,keypress(Space),,,,,,,,"-- --- ---- --- ------ ----- ------- ---- -- --- ------- --<br>------- ---------- ------ -- 1727, -- ----- -- ---- ------<br>--- ----- --- --- ------ -------- ----- --- ------ ----- --<br>----- ----- ---------- --- --- ------ ------ ---- -- ------<br>------- --- ------ ----- --- ---- ------- -- ---- --- --<br>------- ------",154595,154594.40000000037,154289.18,154295.40000000037,154305.536,154606.023,,16,"1727,"
screen,html.Screen,2_1_1_1_17,2022-02-04T11:31:48.994Z,,,,,,,,,,,,,,,,,54,,,,,,,,,,,,,,905.2770000007586,,response,,,,100,,,,,,,Space,keypress(Space),,,,,,,,-- --- ---- --- ------ ----- ------- ---- -- --- ------- --<br>------- ---------- ------ -- ----- in ----- -- ---- ------<br>--- ----- --- --- ------ -------- ----- --- ------ ----- --<br>----- ----- ---------- --- --- ------ ------ ---- -- ------<br>------- --- ------ ----- --- ---- ------- -- ---- --- --<br>------- ------,155511.80000000075,155511.30000000075,154589.172,154595.20000000112,154606.023,155522.601,,17,in
screen,html.Screen,2_1_1_1_18,2022-02-04T11:31:49.341Z,,,,,,,,,,,,,,,,,54,,,,,,,,,,,,,,335.69900000074995,,response,,,,100,,,,,,,Space,keypress(Space),,,,,,,,-- --- ---- --- ------ ----- ------- ---- -- --- ------- --<br>------- ---------- ------ -- ----- -- order -- ---- ------<br>--- ----- --- --- ------ -------- ----- --- ------ ----- --<br>----- ----- ---------- --- --- ------ ------ ---- -- ------<br>------- --- ------ ----- --- ---- ------- -- ---- --- --<br>------- ------,155859,155858.30000000075,155505.967,155511.80000000075,155522.601,155872.689,,18,order
screen,html.Screen,2_1_1_1_19,2022-02-04T11:31:49.663Z,,,,,,,,,,,,,,,,,54,,,,,,,,,,,,,,307.7110000003595,,response,,,,100,,,,,,,Space,keypress(Space),,,,,,,,-- --- ---- --- ------ ----- ------- ---- -- --- ------- --<br>------- ---------- ------ -- ----- -- ----- to ---- ------<br>--- ----- --- --- ------ -------- ----- --- ------ ----- --<br>----- ----- ---------- --- --- ------ ------ ---- -- ------<br>------- --- ------ ----- --- ---- ------- -- ---- --- --<br>------- ------,156180.90000000037,156180.40000000037,155855.829,155859.20000000112,155872.689,156188.917,,19,to
screen,html.Screen,2_1_1_1_20,2022-02-04T11:31:49.995Z,,,,,,,,,,,,,,,,,54,,,,,,,,,,,,,,323.4830000003858,,response,,,,100,,,,,,,Space,keypress(Space),,,,,,,,-- --- ---- --- ------ ----- ------- ---- -- --- ------- --<br>------- ---------- ------ -- ----- -- ----- -- save ------<br>--- ----- --- --- ------ -------- ----- --- ------ ----- --<br>----- ----- ---------- --- --- ------ ------ ---- -- ------<br>------- --- ------ ----- --- ---- ------- -- ---- --- --<br>------- ------,156513,156512.40000000037,156172.542,156180.90000000037,156188.917,156521.968,,20,save
screen,html.Screen,2_1_1_1_21,2022-02-04T11:31:50.298Z,,,,,,,,,,,,,,,,,54,,,,,,,,,,,,,,293.631999999634,,response,,,,100,,,,,,,Space,keypress(Space),,,,,,,,"-- --- ---- --- ------ ----- ------- ---- -- --- ------- --<br>------- ---------- ------ -- ----- -- ----- -- ---- money,<br>--- ----- --- --- ------ -------- ----- --- ------ ----- --<br>----- ----- ---------- --- --- ------ ------ ---- -- ------<br>------- --- ------ ----- --- ---- ------- -- ---- --- --<br>------- ------",156815.90000000037,156815.59999999963,156505.429,156513.09999999963,156521.968,156822.431,,21,"money,"
screen,html.Screen,2_1_1_1_22,2022-02-04T11:31:50.658Z,,,,,,,,,,,,,,,,,54,,,,,,,,,,,,,,352.66899999961606,,response,,,,100,,,,,,,Space,keypress(Space),,,,,,,,-- --- ---- --- ------ ----- ------- ---- -- --- ------- --<br>------- ---------- ------ -- ----- -- ----- -- ---- ------<br>the ----- --- --- ------ -------- ----- --- ------ ----- --<br>----- ----- ---------- --- --- ------ ------ ---- -- ------<br>------- --- ------ ----- --- ---- ------- -- ---- --- --<br>------- ------,157175.70000000112,157175.09999999963,156805.784,156816,156822.431,157188.852,,22,the
screen,html.Screen,2_1_1_1_23,2022-02-04T11:31:51.021Z,,,,,,,,,,,,,,,,,54,,,,,,,,,,,,,,349.548000000359,,response,,,,100,,,,,,,Space,keypress(Space),,,,,,,,-- --- ---- --- ------ ----- ------- ---- -- --- ------- --<br>------- ---------- ------ -- ----- -- ----- -- ---- ------<br>--- state --- --- ------ -------- ----- --- ------ ----- --<br>----- ----- ---------- --- --- ------ ------ ---- -- ------<br>------- --- ------ ----- --- ---- ------- -- ---- --- --<br>------- ------,157538.90000000037,157538.40000000037,157172.297,157175.80000000075,157188.852,157555.747,,23,state
screen,html.Screen,2_1_1_1_24,2022-02-04T11:31:51.446Z,,,,,,,,,,,,,,,,,54,,,,,,,,,,,,,,407.252999999997,,response,,,,100,,,,,,,Space,keypress(Space),,,,,,,,-- --- ---- --- ------ ----- ------- ---- -- --- ------- --<br>------- ---------- ------ -- ----- -- ----- -- ---- ------<br>--- ----- cut --- ------ -------- ----- --- ------ ----- --<br>----- ----- ---------- --- --- ------ ------ ---- -- ------<br>------- --- ------ ----- --- ---- ------- -- ---- --- --<br>------- ------,157963.90000000037,157963,157538.481,157538.90000000037,157555.747,157972.03,,24,cut
screen,html.Screen,2_1_1_1_25,2022-02-04T11:31:51.855Z,,,,,,,,,,,,,,,,,54,,,,,,,,,,,,,,400.97000000000116,,response,,,,100,,,,,,,Space,keypress(Space),,,,,,,,-- --- ---- --- ------ ----- ------- ---- -- --- ------- --<br>------- ---------- ------ -- ----- -- ----- -- ---- ------<br>--- ----- --- the ------ -------- ----- --- ------ ----- --<br>----- ----- ---------- --- --- ------ ------ ---- -- ------<br>------- --- ------ ----- --- ---- ------- -- ---- --- --<br>------- ------,158373.5,158373,157955.548,157964.20000000112,157972.03,158388.73,,25,the
screen,html.Screen,2_1_1_1_26,2022-02-04T11:31:52.193Z,,,,,,,,,,,,,,,,,54,,,,,,,,,,,,,,321.369999999617,,response,,,,100,,,,,,,Space,keypress(Space),,,,,,,,-- --- ---- --- ------ ----- ------- ---- -- --- ------- --<br>------- ---------- ------ -- ----- -- ----- -- ---- ------<br>--- ----- --- --- bonds' -------- ----- --- ------ ----- --<br>----- ----- ---------- --- --- ------ ------ ---- -- ------<br>------- --- ------ ----- --- ---- ------- -- ---- --- --<br>------- ------,158710.70000000112,158710.09999999963,158372.17,158373.70000000112,158388.73,158722.138,,26,bonds'
screen,html.Screen,2_1_1_1_27,2022-02-04T11:31:52.673Z,,,,,,,,,,,,,,,,,54,,,,,,,,,,,,,,468.3619999999937,,response,,,,100,,,,,,,Space,keypress(Space),,,,,,,,-- --- ---- --- ------ ----- ------- ---- -- --- ------- --<br>------- ---------- ------ -- ----- -- ----- -- ---- ------<br>--- ----- --- --- ------ interest ----- --- ------ ----- --<br>----- ----- ---------- --- --- ------ ------ ---- -- ------<br>------- --- ------ ----- --- ---- ------- -- ---- --- --<br>------- ------,159191,159190.5,158705.447,158710.90000000037,158722.138,159204.996,,27,interest
screen,html.Screen,2_1_1_1_28,2022-02-04T11:31:53.008Z,,,,,,,,,,,,,,,,,54,,,,,,,,,,,,,,321.00399999998626,,response,,,,100,,,,,,,Space,keypress(Space),,,,,,,,-- --- ---- --- ------ ----- ------- ---- -- --- ------- --<br>------- ---------- ------ -- ----- -- ----- -- ---- ------<br>--- ----- --- --- ------ -------- rate. --- ------ ----- --<br>----- ----- ---------- --- --- ------ ------ ---- -- ------<br>------- --- ------ ----- --- ---- ------- -- ---- --- --<br>------- ------,159526.5,159526,159188.233,159191,159204.996,159538.509,,28,rate.
screen,html.Screen,2_1_1_1_29,2022-02-04T11:31:53.404Z,,,,,,,,,,,,,,,,,54,,,,,,,,,,,,,,383.59099999963655,,response,,,,100,,,,,,,Space,keypress(Space),,,,,,,,-- --- ---- --- ------ ----- ------- ---- -- --- ------- --<br>------- ---------- ------ -- ----- -- ----- -- ---- ------<br>--- ----- --- --- ------ -------- ----- The ------ ----- --<br>----- ----- ---------- --- --- ------ ------ ---- -- ------<br>------- --- ------ ----- --- ---- ------- -- ---- --- --<br>------- ------,159922.70000000112,159922.09999999963,159522.046,159526.59999999963,159538.509,159938.511,,29,The
screen,html.Screen,2_1_1_1_30,2022-02-04T11:31:53.776Z,,,,,,,,,,,,,,,,,54,,,,,,,,,,,,,,355.4890000000014,,response,,,,100,,,,,,,Space,keypress(Space),,,,,,,,-- --- ---- --- ------ ----- ------- ---- -- --- ------- --<br>------- ---------- ------ -- ----- -- ----- -- ---- ------<br>--- ----- --- --- ------ -------- ----- --- market ----- --<br>----- ----- ---------- --- --- ------ ------ ---- -- ------<br>------- --- ------ ----- --- ---- ------- -- ---- --- --<br>------- ------,160294.59999999963,160294,159921.546,159923.80000000075,159938.511,160305.035,,30,market
screen,html.Screen,2_1_1_1_31,2022-02-04T11:31:54.360Z,,,,,,,,,,,,,,,,,54,,,,,,,,,,,,,,572.6650000011141,,response,,,,100,,,,,,,Space,keypress(Space),,,,,,,,-- --- ---- --- ------ ----- ------- ---- -- --- ------- --<br>------- ---------- ------ -- ----- -- ----- -- ---- ------<br>--- ----- --- --- ------ -------- ----- --- ------ value --<br>----- ----- ---------- --- --- ------ ------ ---- -- ------<br>------- --- ------ ----- --- ---- ------- -- ---- --- --<br>------- ------,160878.5,160877.70000000112,160288.364,160294.70000000112,160305.035,160888.208,,31,value
screen,html.Screen,2_1_1_1_32,2022-02-04T11:31:54.660Z,,,,,,,,,,,,,,,,,54,,,,,,,,,,,,,,290.0920000007318,,response,,,,100,,,,,,,Space,keypress(Space),,,,,,,,-- --- ---- --- ------ ----- ------- ---- -- --- ------- --<br>------- ---------- ------ -- ----- -- ----- -- ---- ------<br>--- ----- --- --- ------ -------- ----- --- ------ ----- of<br>----- ----- ---------- --- --- ------ ------ ---- -- ------<br>------- --- ------ ----- --- ---- ------- -- ---- --- --<br>------- ------,161178.59999999963,161178.30000000075,160871.843,160878.80000000075,160888.208,161188.23,,32,of
screen,html.Screen,2_1_1_1_33,2022-02-04T11:31:54.986Z,,,,,,,,,,,,,,,,,54,,,,,,,,,,,,,,315.67000000036205,,response,,,,100,,,,,,,Space,keypress(Space),,,,,,,,-- --- ---- --- ------ ----- ------- ---- -- --- ------- --<br>------- ---------- ------ -- ----- -- ----- -- ---- ------<br>--- ----- --- --- ------ -------- ----- --- ------ ----- --<br>these ----- ---------- --- --- ------ ------ ---- -- ------<br>------- --- ------ ----- --- ---- ------- -- ---- --- --<br>------- ------,161504.59999999963,161503.90000000037,161171.898,161178.80000000075,161188.23,161521.722,,33,these
screen,html.Screen,2_1_1_1_34,2022-02-04T11:31:55.297Z,,,,,,,,,,,,,,,,,54,,,,,,,,,,,,,,293.77799999999115,,response,,,,100,,,,,,,Space,keypress(Space),,,,,,,,-- --- ---- --- ------ ----- ------- ---- -- --- ------- --<br>------- ---------- ------ -- ----- -- ----- -- ---- ------<br>--- ----- --- --- ------ -------- ----- --- ------ ----- --<br>----- bonds ---------- --- --- ------ ------ ---- -- ------<br>------- --- ------ ----- --- ---- ------- -- ---- --- --<br>------- ------,161816,161815.5,161504.665,161504.80000000075,161521.722,161821.274,,34,bonds
screen,html.Screen,2_1_1_1_35,2022-02-04T11:31:55.664Z,,,,,,,,,,,,,,,,,54,,,,,,,,,,,,,,361.52600000074017,,response,,,,100,,,,,,,Space,keypress(Space),,,,,,,,"-- --- ---- --- ------ ----- ------- ---- -- --- ------- --<br>------- ---------- ------ -- ----- -- ----- -- ---- ------<br>--- ----- --- --- ------ -------- ----- --- ------ ----- --<br>----- ----- plummeted, --- --- ------ ------ ---- -- ------<br>------- --- ------ ----- --- ---- ------- -- ---- --- --<br>------- ------",162183.30000000075,162182.80000000075,161805.059,161816.09999999963,161821.274,162188.194,,35,"plummeted,"
screen,html.Screen,2_1_1_1_36,2022-02-04T11:31:56.326Z,,,,,,,,,,,,,,,,,54,,,,,,,,,,,,,,656.506000001129,,response,,,,100,,,,,,,Space,keypress(Space),,,,,,,,-- --- ---- --- ------ ----- ------- ---- -- --- ------- --<br>------- ---------- ------ -- ----- -- ----- -- ---- ------<br>--- ----- --- --- ------ -------- ----- --- ------ ----- --<br>----- ----- ---------- and --- ------ ------ ---- -- ------<br>------- --- ------ ----- --- ---- ------- -- ---- --- --<br>------- ------,162845.40000000037,162844.70000000112,162171.778,162183.30000000075,162188.194,162854.999,,36,and
screen,html.Screen,2_1_1_1_37,2022-02-04T11:31:56.780Z,,,,,,,,,,,,,,,,,54,,,,,,,,,,,,,,442.80100000073435,,response,,,,100,,,,,,,Space,keypress(Space),,,,,,,,-- --- ---- --- ------ ----- ------- ---- -- --- ------- --<br>------- ---------- ------ -- ----- -- ----- -- ---- ------<br>--- ----- --- --- ------ -------- ----- --- ------ ----- --<br>----- ----- ---------- --- the ------ ------ ---- -- ------<br>------- --- ------ ----- --- ---- ------- -- ---- --- --<br>------- ------,163298.5,163297.80000000075,162837.862,162845.5,162854.999,163304.607,,37,the
screen,html.Screen,2_1_1_1_38,2022-02-04T11:31:58.312Z,,,,,,,,,,,,,,,,,54,,,,,,,,,,,,,,1525.5930000011285,,response,,,,100,,,,,,,Space,keypress(Space),,,,,,,,-- --- ---- --- ------ ----- ------- ---- -- --- ------- --<br>------- ---------- ------ -- ----- -- ----- -- ---- ------<br>--- ----- --- --- ------ -------- ----- --- ------ ----- --<br>----- ----- ---------- --- --- market ------ ---- -- ------<br>------- --- ------ ----- --- ---- ------- -- ---- --- --<br>------- ------,164831,164830.20000000112,163287.75,163298.59999999963,163304.607,164837.805,,38,market
screen,html.Screen,2_1_1_1_39,2022-02-04T11:31:59.122Z,,,,,,,,,,,,,,,,,54,,,,,,,,,,,,,,802.695000000007,,response,,,,100,,,,,,,Space,keypress(Space),,,,,,,,-- --- ---- --- ------ ----- ------- ---- -- --- ------- --<br>------- ---------- ------ -- ----- -- ----- -- ---- ------<br>--- ----- --- --- ------ -------- ----- --- ------ ----- --<br>----- ----- ---------- --- --- ------ became ---- -- ------<br>------- --- ------ ----- --- ---- ------- -- ---- --- --<br>------- ------,165640.90000000037,165640.5,164821.36,164831.20000000112,164837.805,165654.125,,39,became
screen,html.Screen,2_1_1_1_40,2022-02-04T11:32:00.066Z,,,,,,,,,,,,,,,,,54,,,,,,,,,,,,,,930.0750000011176,,response,,,,100,,,,,,,Space,keypress(Space),,,,,,,,-- --- ---- --- ------ ----- ------- ---- -- --- ------- --<br>------- ---------- ------ -- ----- -- ----- -- ---- ------<br>--- ----- --- --- ------ -------- ----- --- ------ ----- --<br>----- ----- ---------- --- --- ------ ------ wary -- ------<br>------- --- ------ ----- --- ---- ------- -- ---- --- --<br>------- ------,166584.70000000112,166584.20000000112,165637.591,165641,165654.125,166587.339,,40,wary
screen,html.Screen,2_1_1_1_41,2022-02-04T11:32:00.433Z,,,,,,,,,,,,,,,,,54,,,,,,,,,,,,,,363.96100000073784,,response,,,,100,,,,,,,Space,keypress(Space),,,,,,,,-- --- ---- --- ------ ----- ------- ---- -- --- ------- --<br>------- ---------- ------ -- ----- -- ----- -- ---- ------<br>--- ----- --- --- ------ -------- ----- --- ------ ----- --<br>----- ----- ---------- --- --- ------ ------ ---- of ------<br>------- --- ------ ----- --- ---- ------- -- ---- --- --<br>------- ------,166951.70000000112,166951.30000000075,166570.889,166584.80000000075,166587.339,166953.938,,41,of
screen,html.Screen,2_1_1_1_42,2022-02-04T11:32:00.818Z,,,,,,,,,,,,,,,,,54,,,,,,,,,,,,,,382.6619999996328,,response,,,,100,,,,,,,Space,keypress(Space),,,,,,,,-- --- ---- --- ------ ----- ------- ---- -- --- ------- --<br>------- ---------- ------ -- ----- -- ----- -- ---- ------<br>--- ----- --- --- ------ -------- ----- --- ------ ----- --<br>----- ----- ---------- --- --- ------ ------ ---- -- French<br>------- --- ------ ----- --- ---- ------- -- ---- --- --<br>------- ------,167337,167336.59999999963,166937.722,166951.90000000037,166953.938,167354.47,,42,French
screen,html.Screen,2_1_1_1_43,2022-02-04T11:32:01.194Z,,,,,,,,,,,,,,,,,54,,,,,,,,,,,,,,358.3300000007439,,response,,,,100,,,,,,,Space,keypress(Space),,,,,,,,-- --- ---- --- ------ ----- ------- ---- -- --- ------- --<br>------- ---------- ------ -- ----- -- ----- -- ---- ------<br>--- ----- --- --- ------ -------- ----- --- ------ ----- --<br>----- ----- ---------- --- --- ------ ------ ---- -- ------<br>credit. --- ------ ----- --- ---- ------- -- ---- --- --<br>------- ------,167713.30000000075,167712.80000000075,167337.215,167337.20000000112,167354.47,167720.505,,43,credit.
screen,html.Screen,2_1_1_1_44,2022-02-04T11:32:01.531Z,,,,,,,,,,,,,,,,,54,,,,,,,,,,,,,,329.19500000111293,,response,,,,100,,,,,,,Space,keypress(Space),,,,,,,,-- --- ---- --- ------ ----- ------- ---- -- --- ------- --<br>------- ---------- ------ -- ----- -- ----- -- ---- ------<br>--- ----- --- --- ------ -------- ----- --- ------ ----- --<br>----- ----- ---------- --- --- ------ ------ ---- -- ------<br>------- The ------ ----- --- ---- ------- -- ---- --- --<br>------- ------,168050.30000000075,168049.70000000112,167704.329,167713.40000000037,167720.505,168053.804,,44,The
screen,html.Screen,2_1_1_1_45,2022-02-04T11:32:01.916Z,,,,,,,,,,,,,,,,,54,,,,,,,,,,,,,,380.99600000074133,,response,,,,100,,,,,,,Space,keypress(Space),,,,,,,,-- --- ---- --- ------ ----- ------- ---- -- --- ------- --<br>------- ---------- ------ -- ----- -- ----- -- ---- ------<br>--- ----- --- --- ------ -------- ----- --- ------ ----- --<br>----- ----- ---------- --- --- ------ ------ ---- -- ------<br>------- --- French ----- --- ---- ------- -- ---- --- --<br>------- ------,168435.20000000112,168434.80000000075,168037.179,168050.5,168053.804,168437.074,,45,French
screen,html.Screen,2_1_1_1_46,2022-02-04T11:32:02.276Z,,,,,,,,,,,,,,,,,54,,,,,,,,,,,,,,356.92600000000675,,response,,,,100,,,,,,,Space,keypress(Space),,,,,,,,-- --- ---- --- ------ ----- ------- ---- -- --- ------- --<br>------- ---------- ------ -- ----- -- ----- -- ---- ------<br>--- ----- --- --- ------ -------- ----- --- ------ ----- --<br>----- ----- ---------- --- --- ------ ------ ---- -- ------<br>------- --- ------ state --- ---- ------- -- ---- --- --<br>------- ------,168794.59999999963,168794,168420.871,168435.30000000075,168437.074,168804.303,,46,state
screen,html.Screen,2_1_1_1_47,2022-02-04T11:32:02.669Z,,,,,,,,,,,,,,,,,54,,,,,,,,,,,,,,383.5970000003581,,response,,,,100,,,,,,,Space,keypress(Space),,,,,,,,-- --- ---- --- ------ ----- ------- ---- -- --- ------- --<br>------- ---------- ------ -- ----- -- ----- -- ---- ------<br>--- ----- --- --- ------ -------- ----- --- ------ ----- --<br>----- ----- ---------- --- --- ------ ------ ---- -- ------<br>------- --- ------ ----- was ---- ------- -- ---- --- --<br>------- ------,169188.30000000075,169187.90000000037,168787.218,168794.70000000112,168804.303,169204.257,,47,was
screen,html.Screen,2_1_1_1_48,2022-02-04T11:32:03.389Z,,,,,,,,,,,,,,,,,54,,,,,,,,,,,,,,703.2429999999877,,response,,,,100,,,,,,,Space,keypress(Space),,,,,,,,-- --- ---- --- ------ ----- ------- ---- -- --- ------- --<br>------- ---------- ------ -- ----- -- ----- -- ---- ------<br>--- ----- --- --- ------ -------- ----- --- ------ ----- --<br>----- ----- ---------- --- --- ------ ------ ---- -- ------<br>------- --- ------ ----- --- left ------- -- ---- --- --<br>------- ------,169908.30000000075,169907.5,169187.428,169188.40000000037,169204.257,169920.669,,48,left
screen,html.Screen,2_1_1_1_49,2022-02-04T11:32:03.834Z,,,,,,,,,,,,,,,,,54,,,,,,,,,,,,,,431.93099999963306,,response,,,,100,,,,,,,Space,keypress(Space),,,,,,,,-- --- ---- --- ------ ----- ------- ---- -- --- ------- --<br>------- ---------- ------ -- ----- -- ----- -- ---- ------<br>--- ----- --- --- ------ -------- ----- --- ------ ----- --<br>----- ----- ---------- --- --- ------ ------ ---- -- ------<br>------- --- ------ ----- --- ---- without -- ---- --- --<br>------- ------,170353.20000000112,170352.59999999963,169904.046,169908.5,169920.669,170370.277,,49,without
screen,html.Screen,2_1_1_1_50,2022-02-04T11:32:04.113Z,,,,,,,,,,,,,,,,,54,,,,,,,,,,,,,,261.5230000007432,,response,,,,100,,,,,,,Space,keypress(Space),,,,,,,,-- --- ---- --- ------ ----- ------- ---- -- --- ------- --<br>------- ---------- ------ -- ----- -- ----- -- ---- ------<br>--- ----- --- --- ------ -------- ----- --- ------ ----- --<br>----- ----- ---------- --- --- ------ ------ ---- -- ------<br>------- --- ------ ----- --- ---- ------- an ---- --- --<br>------- ------,170632.40000000037,170631.80000000075,170353.529,170353.30000000075,170370.277,170637.05,,50,an
screen,html.Screen,2_1_1_1_51,2022-02-04T11:32:04.446Z,,,,,,,,,,,,,,,,,54,,,,,,,,,,,,,,327.45000000001164,,response,,,,100,,,,,,,Space,keypress(Space),,,,,,,,-- --- ---- --- ------ ----- ------- ---- -- --- ------- --<br>------- ---------- ------ -- ----- -- ----- -- ---- ------<br>--- ----- --- --- ------ -------- ----- --- ------ ----- --<br>----- ----- ---------- --- --- ------ ------ ---- -- ------<br>------- --- ------ ----- --- ---- ------- -- easy --- --<br>------- ------,170965,170964.5,170620.563,170632.5,170637.05,170970.413,,51,easy
screen,html.Screen,2_1_1_1_52,2022-02-04T11:32:04.805Z,,,,,,,,,,,,,,,,,54,,,,,,,,,,,,,,353.186999999627,,response,,,,100,,,,,,,Space,keypress(Space),,,,,,,,-- --- ---- --- ------ ----- ------- ---- -- --- ------- --<br>------- ---------- ------ -- ----- -- ----- -- ---- ------<br>--- ----- --- --- ------ -------- ----- --- ------ ----- --<br>----- ----- ---------- --- --- ------ ------ ---- -- ------<br>------- --- ------ ----- --- ---- ------- -- ---- way --<br>------- ------,171324.09999999963,171323.59999999963,170953.483,170965.09999999963,170970.413,171336.729,,52,way
screen,html.Screen,2_1_1_1_53,2022-02-04T11:32:05.128Z,,,,,,,,,,,,,,,,,54,,,,,,,,,,,,,,309.7710000000079,,response,,,,100,,,,,,,Space,keypress(Space),,,,,,,,-- --- ---- --- ------ ----- ------- ---- -- --- ------- --<br>------- ---------- ------ -- ----- -- ----- -- ---- ------<br>--- ----- --- --- ------ -------- ----- --- ------ ----- --<br>----- ----- ---------- --- --- ------ ------ ---- -- ------<br>------- --- ------ ----- --- ---- ------- -- ---- --- of<br>------- ------,171647.30000000075,171646.5,171320.637,171324.09999999963,171336.729,171653.726,,53,of
screen,html.Screen,2_1_1_1_54,2022-02-04T11:32:05.523Z,,,,,,,,,,,,,,,,,54,,,,,,,,,,,,,,388.07400000074995,,response,,,,100,,,,,,,Space,keypress(Space),,,,,,,,-- --- ---- --- ------ ----- ------- ---- -- --- ------- --<br>------- ---------- ------ -- ----- -- ----- -- ---- ------<br>--- ----- --- --- ------ -------- ----- --- ------ ----- --<br>----- ----- ---------- --- --- ------ ------ ---- -- ------<br>------- --- ------ ----- --- ---- ------- -- ---- --- --<br>raising ------,172042.20000000112,172041.80000000075,171637.128,171647.40000000037,171653.726,172053.314,,54,raising
screen,html.Screen,2_1_1_1_55,2022-02-04T11:32:05.850Z,,,,,,,,,,,,,,,,,54,,,,,,,,,,,,,,315.0860000003595,,response,,,,100,,,,,,,Space,keypress(Space),,,,,,,,-- --- ---- --- ------ ----- ------- ---- -- --- ------- --<br>------- ---------- ------ -- ----- -- ----- -- ---- ------<br>--- ----- --- --- ------ -------- ----- --- ------ ----- --<br>----- ----- ---------- --- --- ------ ------ ---- -- ------<br>------- --- ------ ----- --- ---- ------- -- ---- --- --<br>------- money.,172368.80000000075,172368.40000000037,172036.788,172042.40000000037,172053.314,172369.909,,55,money.
Item 100,flow.Loop,2_1_1_1,2022-02-04T11:32:05.850Z,,,,,,,,,,,,,,,,,,,,,,,,,,,,,,,23795.41300000038,,completion,,,,,C,,,,,,,,,,,silence,,,,,172369,172368.40000000037,148556.295,148558.09999999963,148572.987,172369.909,,,
Question 1,html.Screen,2_1_1_2,2022-02-04T11:32:09.295Z,,,,,,,,,,,,,,,,,,,,,,,,,,,,false,TRUE,,3443.6909999996133,,response,,,,100,C,,,,,,FALSE,click #choice-2,,,,silence,,,,,175814.30000000075,175813.59999999963,172353.239,172369.09999999963,172369.909,175819.502,,,
Question 2,html.Screen,2_1_1_3,2022-02-04T11:32:11.344Z,,,,,,,,,,,,,,,,,,,,,,,,,,,,true,FALSE,,2042.5979999996198,,response,,,,100,C,,,,,,FALSE,click #choice-2,,,,silence,,,,,177862.70000000112,177862.09999999963,175803.093,175814.40000000037,175819.502,177869.213,,,
Item 100,flow.Sequence,2_1_1,2022-02-04T11:32:11.344Z,,,,,,,,,,,,,,,,,,,,,,,,,,,,,,,39287.342999999615,,completion,,,,,,,,,,,,,,,,,,,,,177862.90000000037,177862.09999999963,138557.564,138558.5,138574.757,177869.213,,,
End of Practice,html.Page,2_1_2,2022-02-04T11:32:22.727Z,,,,,,,,,,,,,,,,,,,,,,,,,,,,,,,11376.987000001129,,form submission,,,,,,,,,,,,,,,,,,,,,189246.40000000037,189246.20000000112,177852.697,177862.90000000037,177869.213,189251.233,,,
Practice,flow.Sequence,2_1,2022-02-04T11:32:22.728Z,,,,,,,,,,,,,,,,,,,,,,,,,,,,,,,88167.19800000112,,completion,,,,,,,,,,,,,,,,,,,,,189246.5,189246.20000000112,101062.806,101071.09999999963,101079.002,189251.233,,,
Trap_instruction,html.Page,2_2_0,2022-02-04T11:32:27.224Z,,,,,,,,,,,,,,,,,,,,,,,,,,,,,,,4491.167000000365,,form submission,,,,,,,,,,,,,,,,,,,,,193742.59999999963,193742.40000000037,189234.636,189246.59999999963,189251.233,193750.559,,,
trap_trial,html.Screen,2_2_1,2022-02-04T11:32:29.975Z,,,,,,,,,,,,,,,,,,,,,,,,,,,,true,1,,2742.841000000364,,response,,,,,,,,,,,1,click #choice-1,,,,,,,,,196494.09999999963,196493.40000000037,193734.352,193742.70000000112,193750.559,196500.211,,,
end of trap trial,html.Page,2_2_2,2022-02-04T11:32:31.599Z,,,,,,,,,,,,,,,,,,,,,,,,,,,,,,,1617.7889999999898,,form submission,,,,,,,,,,,,,,,,,,,,,198118.30000000075,198118,196483.503,196494.20000000112,196500.211,198133.342,,,
Trap 1,flow.Sequence,2_2,2022-02-04T11:32:31.599Z,,,,,,,,,,,,,,,,,,,,,,,,,,,,,,,8866.766999999993,,completion,,,,,,,,,,,,,,,,,,,,,198118.30000000075,198118,189234.636,189246.59999999963,189251.233,198133.342,,,
Standby,html.Page,2_3_0,2022-02-04T11:32:39.597Z,,,,,,,,,,,,,,,,,,,,,,,,,,,,,,,7998.945000000007,,timeout,,,,,,,,,,,,,,,,,,,,,206116,206115.623,198116.627,198118.40000000037,198133.342,206132.287,,,
Holding screen,html.Screen,2_3_1_0_0,2022-02-04T11:32:46.596Z,,,,,,,,,,,,,,,,,,,,,,,,,,,,,,,6999.11599999998,,timeout,,,,,,,,,,,,,,,,,,,,,213115.09999999963,213114.736,206115.623,206116,206132.287,213131.403,,,
screen,html.Screen,2_3_1_0_1_0,2022-02-04T11:32:47.314Z,,,,,,,,,,,,,,,,,51,,,,,,,,,,,,,,700.9970000003814,,response,,,,13,C,,,,,,Space,keypress(Space),,,,instrumental,,,,American -------- --- --- ---- --- --- ------ -- --------<br>---- --------- --- ------- ------------ ---------- ---------<br>--- ---------- ------- ---------- ------- -- -------- ----<br>---- --- ------ ----- ------ -- ---- --- ----- -- - -------<br>-------- -- --- --- -- ----- ----------- ----- -----------<br>---- --- ---------- --- ---- --- -- ----------,213832.90000000037,213832.40000000037,213114.736,213115.30000000075,213131.403,213847.988,,0,American
screen,html.Screen,2_3_1_0_1_1,2022-02-04T11:32:47.663Z,,,,,,,,,,,,,,,,,51,,,,,,,,,,,,,,333.5119999999879,,response,,,,13,C,,,,,,Space,keypress(Space),,,,instrumental,,,,-------- industry --- --- ---- --- --- ------ -- --------<br>---- --------- --- ------- ------------ ---------- ---------<br>--- ---------- ------- ---------- ------- -- -------- ----<br>---- --- ------ ----- ------ -- ---- --- ----- -- - -------<br>-------- -- --- --- -- ----- ----------- ----- -----------<br>---- --- ---------- --- ---- --- -- ----------,214181.90000000037,214181.5,213831.326,213833,213847.988,214197.941,,1,industry
screen,html.Screen,2_3_1_0_1_2,2022-02-04T11:32:48.098Z,,,,,,,,,,,,,,,,,51,,,,,,,,,,,,,,418.5590000000084,,response,,,,13,C,,,,,,Space,keypress(Space),,,,instrumental,,,,-------- -------- may --- ---- --- --- ------ -- --------<br>---- --------- --- ------- ------------ ---------- ---------<br>--- ---------- ------- ---------- ------- -- -------- ----<br>---- --- ------ ----- ------ -- ---- --- ----- -- - -------<br>-------- -- --- --- -- ----- ----------- ----- -----------<br>---- --- ---------- --- ---- --- -- ----------,214617,214616.5,214181.253,214181.90000000037,214197.941,214631.235,,2,may
screen,html.Screen,2_3_1_0_1_3,2022-02-04T11:32:48.423Z,,,,,,,,,,,,,,,,,51,,,,,,,,,,,,,,310.565000000759,,response,,,,13,C,,,,,,Space,keypress(Space),,,,instrumental,,,,-------- -------- --- not ---- --- --- ------ -- --------<br>---- --------- --- ------- ------------ ---------- ---------<br>--- ---------- ------- ---------- ------- -- -------- ----<br>---- --- ------ ----- ------ -- ---- --- ----- -- - -------<br>-------- -- --- --- -- ----- ----------- ----- -----------<br>---- --- ---------- --- ---- --- -- ----------,214942.20000000112,214941.80000000075,214614.563,214617.09999999963,214631.235,214947.828,,3,not
screen,html.Screen,2_3_1_0_1_4,2022-02-04T11:32:48.746Z,,,,,,,,,,,,,,,,,51,,,,,,,,,,,,,,316.77199999961886,,response,,,,13,C,,,,,,Space,keypress(Space),,,,instrumental,,,,-------- -------- --- --- know --- --- ------ -- --------<br>---- --------- --- ------- ------------ ---------- ---------<br>--- ---------- ------- ---------- ------- -- -------- ----<br>---- --- ------ ----- ------ -- ---- --- ----- -- - -------<br>-------- -- --- --- -- ----- ----------- ----- -----------<br>---- --- ---------- --- ---- --- -- ----------,215265.09999999963,215264.59999999963,214931.169,214942.30000000075,214947.828,215281.136,,4,know
screen,html.Screen,2_3_1_0_1_5,2022-02-04T11:32:49.078Z,,,,,,,,,,,,,,,,,51,,,,,,,,,,,,,,315.3640000000014,,response,,,,13,C,,,,,,Space,keypress(Space),,,,instrumental,,,,"-------- -------- --- --- ---- it, --- ------ -- --------<br>---- --------- --- ------- ------------ ---------- ---------<br>--- ---------- ------- ---------- ------- -- -------- ----<br>---- --- ------ ----- ------ -- ---- --- ----- -- - -------<br>-------- -- --- --- -- ----- ----------- ----- -----------<br>---- --- ---------- --- ---- --- -- ----------",215597.09999999963,215596.5,215264.45,215265.20000000112,215281.136,215597.733,,5,"it,"
screen,html.Screen,2_3_1_0_1_6,2022-02-04T11:32:49.424Z,,,,,,,,,,,,,,,,,51,,,,,,,,,,,,,,344.86699999962,,response,,,,13,C,,,,,,Space,keypress(Space),,,,instrumental,,,,-------- -------- --- --- ---- --- but ------ -- --------<br>---- --------- --- ------- ------------ ---------- ---------<br>--- ---------- ------- ---------- ------- -- -------- ----<br>---- --- ------ ----- ------ -- ---- --- ----- -- - -------<br>-------- -- --- --- -- ----- ----------- ----- -----------<br>---- --- ---------- --- ---- --- -- ----------,215943,215942.59999999963,215581.075,215597.30000000075,215597.733,215947.686,,6,but
screen,html.Screen,2_3_1_0_1_7,2022-02-04T11:32:49.762Z,,,,,,,,,,,,,,,,,51,,,,,,,,,,,,,,332.31400000001304,,response,,,,13,C,,,,,,Space,keypress(Space),,,,instrumental,,,,-------- -------- --- --- ---- --- --- debate -- --------<br>---- --------- --- ------- ------------ ---------- ---------<br>--- ---------- ------- ---------- ------- -- -------- ----<br>---- --- ------ ----- ------ -- ---- --- ----- -- - -------<br>-------- -- --- --- -- ----- ----------- ----- -----------<br>---- --- ---------- --- ---- --- -- ----------,216280.5,216280,215931.083,215943.09999999963,215947.686,216280.987,,7,debate
screen,html.Screen,2_3_1_0_1_8,2022-02-04T11:32:50.196Z,,,,,,,,,,,,,,,,,51,,,,,,,,,,,,,,433.31300000075134,,response,,,,13,C,,,,,,Space,keypress(Space),,,,instrumental,,,,-------- -------- --- --- ---- --- --- ------ in --------<br>---- --------- --- ------- ------------ ---------- ---------<br>--- ---------- ------- ---------- ------- -- -------- ----<br>---- --- ------ ----- ------ -- ---- --- ----- -- - -------<br>-------- -- --- --- -- ----- ----------- ----- -----------<br>---- --- ---------- --- ---- --- -- ----------,216714.70000000112,216714.30000000075,216264.335,216280.5,216280.987,216730.938,,8,in
screen,html.Screen,2_3_1_0_1_9,2022-02-04T11:32:50.619Z,,,,,,,,,,,,,,,,,51,,,,,,,,,,,,,,406.4620000003779,,response,,,,13,C,,,,,,Space,keypress(Space),,,,instrumental,,,,-------- -------- --- --- ---- --- --- ------ -- Congress<br>---- --------- --- ------- ------------ ---------- ---------<br>--- ---------- ------- ---------- ------- -- -------- ----<br>---- --- ------ ----- ------ -- ---- --- ----- -- - -------<br>-------- -- --- --- -- ----- ----------- ----- -----------<br>---- --- ---------- --- ---- --- -- ----------,217137.80000000075,217137.40000000037,216714.256,216714.80000000075,216730.938,217147.519,,9,Congress
screen,html.Screen,2_3_1_0_1_10,2022-02-04T11:32:50.901Z,,,,,,,,,,,,,,,,,51,,,,,,,,,,,,,,272.2810000007448,,response,,,,13,C,,,,,,Space,keypress(Space),,,,instrumental,,,,-------- -------- --- --- ---- --- --- ------ -- --------<br>over --------- --- ------- ------------ ---------- ---------<br>--- ---------- ------- ---------- ------- -- -------- ----<br>---- --- ------ ----- ------ -- ---- --- ----- -- - -------<br>-------- -- --- --- -- ----- ----------- ----- -----------<br>---- --- ---------- --- ---- --- -- ----------,217420.20000000112,217419.80000000075,217130.89,217137.90000000037,217147.519,217430.842,,10,over
screen,html.Screen,2_3_1_0_1_11,2022-02-04T11:32:51.244Z,,,,,,,,,,,,,,,,,51,,,,,,,,,,,,,,331.2579999996233,,response,,,,13,C,,,,,,Space,keypress(Space),,,,instrumental,,,,-------- -------- --- --- ---- --- --- ------ -- --------<br>---- reforming --- ------- ------------ ---------- ---------<br>--- ---------- ------- ---------- ------- -- -------- ----<br>---- --- ------ ----- ------ -- ---- --- ----- -- - -------<br>-------- -- --- --- -- ----- ----------- ----- -----------<br>---- --- ---------- --- ---- --- -- ----------,217762.5,217762.09999999963,217414.201,217420.30000000075,217430.842,217764.117,,11,reforming
screen,html.Screen,2_3_1_0_1_12,2022-02-04T11:32:51.608Z,,,,,,,,,,,,,,,,,51,,,,,,,,,,,,,,362.38300000000163,,response,,,,13,C,,,,,,Space,keypress(Space),,,,instrumental,,,,-------- -------- --- --- ---- --- --- ------ -- --------<br>---- --------- the ------- ------------ ---------- ---------<br>--- ---------- ------- ---------- ------- -- -------- ----<br>---- --- ------ ----- ------ -- ---- --- ----- -- - -------<br>-------- -- --- --- -- ----- ----------- ----- -----------<br>---- --- ---------- --- ---- --- -- ----------,218127.09999999963,218126.5,217747.481,217762.5,217764.117,218130.924,,12,the
screen,html.Screen,2_3_1_0_1_13,2022-02-04T11:32:51.960Z,,,,,,,,,,,,,,,,,51,,,,,,,,,,,,,,347.57600000000093,,response,,,,13,C,,,,,,Space,keypress(Space),,,,instrumental,,,,-------- -------- --- --- ---- --- --- ------ -- --------<br>---- --------- --- federal ------------ ---------- ---------<br>--- ---------- ------- ---------- ------- -- -------- ----<br>---- --- ------ ----- ------ -- ---- --- ----- -- - -------<br>-------- -- --- --- -- ----- ----------- ----- -----------<br>---- --- ---------- --- ---- --- -- ----------,218479.20000000112,218478.5,218114.089,218127.20000000112,218130.924,218480.699,,13,federal
screen,html.Screen,2_3_1_0_1_14,2022-02-04T11:32:52.376Z,,,,,,,,,,,,,,,,,51,,,,,,,,,,,,,,413.50100000112434,,response,,,,13,C,,,,,,Space,keypress(Space),,,,instrumental,,,,-------- -------- --- --- ---- --- --- ------ -- --------<br>---- --------- --- ------- government's ---------- ---------<br>--- ---------- ------- ---------- ------- -- -------- ----<br>---- --- ------ ----- ------ -- ---- --- ----- -- - -------<br>-------- -- --- --- -- ----- ----------- ----- -----------<br>---- --- ---------- --- ---- --- -- ----------,218894.80000000075,218894.20000000112,218464.051,218479.20000000112,218480.699,218897.301,,14,government's
screen,html.Screen,2_3_1_0_1_15,2022-02-04T11:32:52.788Z,,,,,,,,,,,,,,,,,51,,,,,,,,,,,,,,408.9990000007383,,response,,,,13,C,,,,,,Space,keypress(Space),,,,instrumental,,,,-------- -------- --- --- ---- --- --- ------ -- --------<br>---- --------- --- ------- ------------ regulatory ---------<br>--- ---------- ------- ---------- ------- -- -------- ----<br>---- --- ------ ----- ------ -- ---- --- ----- -- - -------<br>-------- -- --- --- -- ----- ----------- ----- -----------<br>---- --- ---------- --- ---- --- -- ----------,219306.80000000075,219306.30000000075,218880.687,218894.80000000075,218897.301,219313.937,,15,regulatory
screen,html.Screen,2_3_1_0_1_16,2022-02-04T11:32:53.201Z,,,,,,,,,,,,,,,,,51,,,,,,,,,,,,,,410.76300000111223,,response,,,,13,C,,,,,,Space,keypress(Space),,,,instrumental,,,,-------- -------- --- --- ---- --- --- ------ -- --------<br>---- --------- --- ------- ------------ ---------- apparatus<br>--- ---------- ------- ---------- ------- -- -------- ----<br>---- --- ------ ----- ------ -- ---- --- ----- -- - -------<br>-------- -- --- --- -- ----- ----------- ----- -----------<br>---- --- ---------- --- ---- --- -- ----------,219725.09999999963,219724.70000000112,219297.273,219306.80000000075,219313.937,219730.55,,16,apparatus
screen,html.Screen,2_3_1_0_1_17,2022-02-04T11:32:53.538Z,,,,,,,,,,,,,,,,,51,,,,,,,,,,,,,,331.35000000038417,,response,,,,13,C,,,,,,Space,keypress(Space),,,,instrumental,,,,-------- -------- --- --- ---- --- --- ------ -- --------<br>---- --------- --- ------- ------------ ---------- ---------<br>may ---------- ------- ---------- ------- -- -------- ----<br>---- --- ------ ----- ------ -- ---- --- ----- -- - -------<br>-------- -- --- --- -- ----- ----------- ----- -----------<br>---- --- ---------- --- ---- --- -- ----------,220062.40000000037,220061.90000000037,219713.856,219725.20000000112,219730.55,220063.838,,17,may
screen,html.Screen,2_3_1_0_1_18,2022-02-04T11:32:53.910Z,,,,,,,,,,,,,,,,,51,,,,,,,,,,,,,,369.46200000075623,,response,,,,13,C,,,,,,Space,keypress(Space),,,,instrumental,,,,-------- -------- --- --- ---- --- --- ------ -- --------<br>---- --------- --- ------- ------------ ---------- ---------<br>--- profoundly ------- ---------- ------- -- -------- ----<br>---- --- ------ ----- ------ -- ---- --- ----- -- - -------<br>-------- -- --- --- -- ----- ----------- ----- -----------<br>---- --- ---------- --- ---- --- -- ----------,220433.90000000037,220433.30000000075,220047.167,220062.5,220063.838,220447.162,,18,profoundly
screen,html.Screen,2_3_1_0_1_19,2022-02-04T11:32:54.314Z,,,,,,,,,,,,,,,,,51,,,,,,,,,,,,,,390.6380000007339,,response,,,,13,C,,,,,,Space,keypress(Space),,,,instrumental,,,,-------- -------- --- --- ---- --- --- ------ -- --------<br>---- --------- --- ------- ------------ ---------- ---------<br>--- ---------- improve ---------- ------- -- -------- ----<br>---- --- ------ ----- ------ -- ---- --- ----- -- - -------<br>-------- -- --- --- -- ----- ----------- ----- -----------<br>---- --- ---------- --- ---- --- -- ----------,220838.30000000075,220837.80000000075,220430.491,220434,220447.162,220847.062,,19,improve
screen,html.Screen,2_3_1_0_1_20,2022-02-04T11:32:54.944Z,,,,,,,,,,,,,,,,,51,,,,,,,,,,,,,,620.4379999999946,,response,,,,13,C,,,,,,Space,keypress(Space),,,,instrumental,,,,-------- -------- --- --- ---- --- --- ------ -- --------<br>---- --------- --- ------- ------------ ---------- ---------<br>--- ---------- ------- companies' ------- -- -------- ----<br>---- --- ------ ----- ------ -- ---- --- ----- -- - -------<br>-------- -- --- --- -- ----- ----------- ----- -----------<br>---- --- ---------- --- ---- --- -- ----------,221467.90000000037,221467.5,220830.4,220838.40000000037,220847.062,221480.317,,20,companies'
screen,html.Screen,2_3_1_0_1_21,2022-02-04T11:32:55.791Z,,,,,,,,,,,,,,,,,51,,,,,,,,,,,,,,834.5830000003625,,response,,,,13,C,,,,,,Space,keypress(Space),,,,instrumental,,,,-------- -------- --- --- ---- --- --- ------ -- --------<br>---- --------- --- ------- ------------ ---------- ---------<br>--- ---------- ------- ---------- ability -- -------- ----<br>---- --- ------ ----- ------ -- ---- --- ----- -- - -------<br>-------- -- --- --- -- ----- ----------- ----- -----------<br>---- --- ---------- --- ---- --- -- ----------,222315.59999999963,222314.90000000037,221463.677,221468.09999999963,221480.317,222330.228,,21,ability
screen,html.Screen,2_3_1_0_1_22,2022-02-04T11:32:56.166Z,,,,,,,,,,,,,,,,,51,,,,,,,,,,,,,,358.8719999996247,,response,,,,13,C,,,,,,Space,keypress(Space),,,,instrumental,,,,-------- -------- --- --- ---- --- --- ------ -- --------<br>---- --------- --- ------- ------------ ---------- ---------<br>--- ---------- ------- ---------- ------- to -------- ----<br>---- --- ------ ----- ------ -- ---- --- ----- -- - -------<br>-------- -- --- --- -- ----- ----------- ----- -----------<br>---- --- ---------- --- ---- --- -- ----------,222689.80000000075,222689.09999999963,222313.564,222315.59999999963,222330.228,222696.807,,22,to
screen,html.Screen,2_3_1_0_1_23,2022-02-04T11:32:57.037Z,,,,,,,,,,,,,,,,,51,,,,,,,,,,,,,,863.2929999996268,,response,,,,13,C,,,,,,Space,keypress(Space),,,,instrumental,,,,-------- -------- --- --- ---- --- --- ------ -- --------<br>---- --------- --- ------- ------------ ---------- ---------<br>--- ---------- ------- ---------- ------- -- survive. ----<br>---- --- ------ ----- ------ -- ---- --- ----- -- - -------<br>-------- -- --- --- -- ----- ----------- ----- -----------<br>---- --- ---------- --- ---- --- -- ----------,223560.70000000112,223560.09999999963,222680.179,222689.90000000037,222696.807,223563.444,,23,survive.
screen,html.Screen,2_3_1_0_1_24,2022-02-04T11:32:57.373Z,,,,,,,,,,,,,,,,,51,,,,,,,,,,,,,,333.45600000038394,,response,,,,13,C,,,,,,Space,keypress(Space),,,,instrumental,,,,-------- -------- --- --- ---- --- --- ------ -- --------<br>---- --------- --- ------- ------------ ---------- ---------<br>--- ---------- ------- ---------- ------- -- -------- This<br>---- --- ------ ----- ------ -- ---- --- ----- -- - -------<br>-------- -- --- --- -- ----- ----------- ----- -----------<br>---- --- ---------- --- ---- --- -- ----------,223897.30000000075,223896.90000000037,223546.731,223560.80000000075,223563.444,223913.365,,24,This
screen,html.Screen,2_3_1_0_1_25,2022-02-04T11:32:57.734Z,,,,,,,,,,,,,,,,,51,,,,,,,,,,,,,,344.53500000038184,,response,,,,13,C,,,,,,Space,keypress(Space),,,,instrumental,,,,-------- -------- --- --- ---- --- --- ------ -- --------<br>---- --------- --- ------- ------------ ---------- ---------<br>--- ---------- ------- ---------- ------- -- -------- ----<br>week --- ------ ----- ------ -- ---- --- ----- -- - -------<br>-------- -- --- --- -- ----- ----------- ----- -----------<br>---- --- ---------- --- ---- --- -- ----------,224258.40000000037,224257.90000000037,223896.698,223897.40000000037,223913.365,224263.268,,25,week
screen,html.Screen,2_3_1_0_1_26,2022-02-04T11:32:58.040Z,,,,,,,,,,,,,,,,,51,,,,,,,,,,,,,,300.5320000007341,,response,,,,13,C,,,,,,Space,keypress(Space),,,,instrumental,,,,-------- -------- --- --- ---- --- --- ------ -- --------<br>---- --------- --- ------- ------------ ---------- ---------<br>--- ---------- ------- ---------- ------- -- -------- ----<br>---- the ------ ----- ------ -- ---- --- ----- -- - -------<br>-------- -- --- --- -- ----- ----------- ----- -----------<br>---- --- ---------- --- ---- --- -- ----------,224564.20000000112,224563.80000000075,224246.648,224258.5,224263.268,224579.939,,26,the
screen,html.Screen,2_3_1_0_1_27,2022-02-04T11:32:58.305Z,,,,,,,,,,,,,,,,,51,,,,,,,,,,,,,,248.76100000110455,,response,,,,13,C,,,,,,Space,keypress(Space),,,,instrumental,,,,-------- -------- --- --- ---- --- --- ------ -- --------<br>---- --------- --- ------- ------------ ---------- ---------<br>--- ---------- ------- ---------- ------- -- -------- ----<br>---- --- Senate ----- ------ -- ---- --- ----- -- - -------<br>-------- -- --- --- -- ----- ----------- ----- -----------<br>---- --- ---------- --- ---- --- -- ----------,224829.09999999963,224828.70000000112,224563.307,224564.30000000075,224579.939,224829.898,,27,Senate
screen,html.Screen,2_3_1_0_1_28,2022-02-04T11:32:58.630Z,,,,,,,,,,,,,,,,,51,,,,,,,,,,,,,,323.40200000075856,,response,,,,13,C,,,,,,Space,keypress(Space),,,,instrumental,,,,-------- -------- --- --- ---- --- --- ------ -- --------<br>---- --------- --- ------- ------------ ---------- ---------<br>--- ---------- ------- ---------- ------- -- -------- ----<br>---- --- ------ seems ------ -- ---- --- ----- -- - -------<br>-------- -- --- --- -- ----- ----------- ----- -----------<br>---- --- ---------- --- ---- --- -- ----------,225153.90000000037,225153.30000000075,224813.225,224829.20000000112,224829.898,225163.176,,28,seems
screen,html.Screen,2_3_1_0_1_29,2022-02-04T11:32:58.950Z,,,,,,,,,,,,,,,,,51,,,,,,,,,,,,,,310.2240000003658,,response,,,,13,C,,,,,,Space,keypress(Space),,,,instrumental,,,,-------- -------- --- --- ---- --- --- ------ -- --------<br>---- --------- --- ------- ------------ ---------- ---------<br>--- ---------- ------- ---------- ------- -- -------- ----<br>---- --- ------ ----- poised -- ---- --- ----- -- - -------<br>-------- -- --- --- -- ----- ----------- ----- -----------<br>---- --- ---------- --- ---- --- -- ----------,225473.90000000037,225473.40000000037,225146.562,225154,225163.176,225479.812,,29,poised
screen,html.Screen,2_3_1_0_1_30,2022-02-04T11:32:59.249Z,,,,,,,,,,,,,,,,,51,,,,,,,,,,,,,,293.2879999996221,,response,,,,13,C,,,,,,Space,keypress(Space),,,,instrumental,,,,-------- -------- --- --- ---- --- --- ------ -- --------<br>---- --------- --- ------- ------------ ---------- ---------<br>--- ---------- ------- ---------- ------- -- -------- ----<br>---- --- ------ ----- ------ to ---- --- ----- -- - -------<br>-------- -- --- --- -- ----- ----------- ----- -----------<br>---- --- ---------- --- ---- --- -- ----------,225773.5,225773.09999999963,225463.157,225474,225479.812,225779.794,,30,to
screen,html.Screen,2_3_1_0_1_31,2022-02-04T11:32:59.526Z,,,,,,,,,,,,,,,,,51,,,,,,,,,,,,,,269.4060000011232,,response,,,,13,C,,,,,,Space,keypress(Space),,,,instrumental,,,,-------- -------- --- --- ---- --- --- ------ -- --------<br>---- --------- --- ------- ------------ ---------- ---------<br>--- ---------- ------- ---------- ------- -- -------- ----<br>---- --- ------ ----- ------ -- join --- ----- -- - -------<br>-------- -- --- --- -- ----- ----------- ----- -----------<br>---- --- ---------- --- ---- --- -- ----------,226049.70000000112,226049.20000000112,225763.103,225773.59999999963,225779.794,226063.103,,31,join
screen,html.Screen,2_3_1_0_1_32,2022-02-04T11:32:59.784Z,,,,,,,,,,,,,,,,,51,,,,,,,,,,,,,,244.5970000011148,,response,,,,13,C,,,,,,Space,keypress(Space),,,,instrumental,,,,-------- -------- --- --- ---- --- --- ------ -- --------<br>---- --------- --- ------- ------------ ---------- ---------<br>--- ---------- ------- ---------- ------- -- -------- ----<br>---- --- ------ ----- ------ -- ---- the ----- -- - -------<br>-------- -- --- --- -- ----- ----------- ----- -----------<br>---- --- ---------- --- ---- --- -- ----------,226308.30000000075,226307.70000000112,226046.45,226049.70000000112,226063.103,226313.27,,32,the
screen,html.Screen,2_3_1_0_1_33,2022-02-04T11:33:00.115Z,,,,,,,,,,,,,,,,,51,,,,,,,,,,,,,,325.43000000112806,,response,,,,13,C,,,,,,Space,keypress(Space),,,,instrumental,,,,-------- -------- --- --- ---- --- --- ------ -- --------<br>---- --------- --- ------- ------------ ---------- ---------<br>--- ---------- ------- ---------- ------- -- -------- ----<br>---- --- ------ ----- ------ -- ---- --- House -- - -------<br>-------- -- --- --- -- ----- ----------- ----- -----------<br>---- --- ---------- --- ---- --- -- ----------,226639.09999999963,226638.70000000112,226296.409,226308.40000000037,226313.27,226646.331,,33,House
screen,html.Screen,2_3_1_0_1_34,2022-02-04T11:33:00.420Z,,,,,,,,,,,,,,,,,51,,,,,,,,,,,,,,297.06900000036694,,response,,,,13,C,,,,,,Space,keypress(Space),,,,instrumental,,,,-------- -------- --- --- ---- --- --- ------ -- --------<br>---- --------- --- ------- ------------ ---------- ---------<br>--- ---------- ------- ---------- ------- -- -------- ----<br>---- --- ------ ----- ------ -- ---- --- ----- in - -------<br>-------- -- --- --- -- ----- ----------- ----- -----------<br>---- --- ---------- --- ---- --- -- ----------,226943.90000000037,226943.40000000037,226629.671,226639.20000000112,226646.331,226946.286,,34,in
screen,html.Screen,2_3_1_0_1_35,2022-02-04T11:33:00.689Z,,,,,,,,,,,,,,,,,51,,,,,,,,,,,,,,266.7140000000072,,response,,,,13,C,,,,,,Space,keypress(Space),,,,instrumental,,,,-------- -------- --- --- ---- --- --- ------ -- --------<br>---- --------- --- ------- ------------ ---------- ---------<br>--- ---------- ------- ---------- ------- -- -------- ----<br>---- --- ------ ----- ------ -- ---- --- ----- -- a -------<br>-------- -- --- --- -- ----- ----------- ----- -----------<br>---- --- ---------- --- ---- --- -- ----------,227213.59999999963,227213,226929.634,226944,226946.286,227229.634,,35,a
screen,html.Screen,2_3_1_0_1_36,2022-02-04T11:33:00.965Z,,,,,,,,,,,,,,,,,51,,,,,,,,,,,,,,259.06600000112667,,response,,,,13,C,,,,,,Space,keypress(Space),,,,instrumental,,,,-------- -------- --- --- ---- --- --- ------ -- --------<br>---- --------- --- ------- ------------ ---------- ---------<br>--- ---------- ------- ---------- ------- -- -------- ----<br>---- --- ------ ----- ------ -- ---- --- ----- -- - massive<br>-------- -- --- --- -- ----- ----------- ----- -----------<br>---- --- ---------- --- ---- --- -- ----------,227489.30000000075,227488.70000000112,227212.916,227213.70000000112,227229.634,227496.226,,36,massive
screen,html.Screen,2_3_1_0_1_37,2022-02-04T11:33:01.272Z,,,,,,,,,,,,,,,,,51,,,,,,,,,,,,,,299.6740000003774,,response,,,,13,C,,,,,,Space,keypress(Space),,,,instrumental,,,,-------- -------- --- --- ---- --- --- ------ -- --------<br>---- --------- --- ------- ------------ ---------- ---------<br>--- ---------- ------- ---------- ------- -- -------- ----<br>---- --- ------ ----- ------ -- ---- --- ----- -- - -------<br>overhaul -- --- --- -- ----- ----------- ----- -----------<br>---- --- ---------- --- ---- --- -- ----------,227796.5,227795.90000000037,227479.557,227489.30000000075,227496.226,227812.874,,37,overhaul
screen,html.Screen,2_3_1_0_1_38,2022-02-04T11:33:01.612Z,,,,,,,,,,,,,,,,,51,,,,,,,,,,,,,,322.42600000073435,,response,,,,13,C,,,,,,Space,keypress(Space),,,,instrumental,,,,-------- -------- --- --- ---- --- --- ------ -- --------<br>---- --------- --- ------- ------------ ---------- ---------<br>--- ---------- ------- ---------- ------- -- -------- ----<br>---- --- ------ ----- ------ -- ---- --- ----- -- - -------<br>-------- of --- --- -- ----- ----------- ----- -----------<br>---- --- ---------- --- ---- --- -- ----------,228135.80000000075,228135.30000000075,227796.184,227796.59999999963,227812.874,228146.13,,38,of
