sender,sender_type,sender_id,timestamp,meta,,Blues,Classical,Country,Dance,Electronic,Folk,Gospel,Hip-Hop,Jazz,Latin,Musical/Film,New-age,Pop,Prolific_id,Provo_ID,R&B,Rap,Reggae,Religious,Rock,Soul,Swing,Traditional,age,artist_name,correct,correctResponse,distraction,duration,education,ended_on,familiarity,gender,headphone_check_performance,item,list,music_frequency,offensiveness,pleasantness,position_correct,preference,response,response_action,snippet_file,song_name,song_rating,sound,stimulus_1,stimulus_2,stimulus_3,text,time_commit,time_end,time_render,time_run,time_show,time_switch,url,word,word_ID
Prolific ID,html.Form,0,2022-05-11T13:11:54.174Z,"{""labjs_version"":""20.2.2"",""labjs_build"":{""flavor"":""production"",""commit"":""a25486e0c714a0ae2ce03ff94b7bb6896854dcfa""},""location"":""https://run.pavlovia.org/mvasilev/prolific2_music_e/"",""userAgent"":""Mozilla/5.0 (Macintosh; Intel Mac OS X 10_15_7) AppleWebKit/605.1.15 (KHTML, like Gecko) Version/15.4 Safari/605.1.15"",""platform"":""MacIntel"",""language"":""en-GB"",""locale"":""en-GB"",""timeZone"":""Europe/London"",""timezoneOffset"":-60,""screen_width"":1728,""screen_height"":1117,""scroll_width"":1728,""scroll_height"":920,""window_innerWidth"":1728,""window_innerHeight"":968,""devicePixelRatio"":2}",,,,,,,,,,,,,,,5a870482f49c9a0001f3941b,,,,,,,,,,,,,,,3374,,form submission,,,,,,,,,,,,,,,,,,,,,6972,6972,3589,3576,3598,6990,{},,
Introduction,html.Screen,1_0,2022-05-11T13:11:58.064Z,,,,,,,,,,,,,,,,,,,,,,,,,,,,,,,3877,,response,,,,,,,,,,,continue,click button,,,,,,,,,10862,10851,6974,6972,6990,10890,,,
Volume calibration,html.Screen,1_1,2022-05-11T13:12:13.454Z,,,,,,,,,,,,,,,,,,,,,,,,,,,,,,,15370.000000000004,,response,,,,,,,,,,,continue,click button,,,,,,,,,26253,26243.000000000004,10873,10863,10890,26275,,,
Task instructions,html.Screen,1_2,2022-05-11T13:12:17.896Z,,,,,,,,,,,,,,,,,,,,,,,,,,,,,,,4428,,response,,,,,,,,,,,continue,click button,,,,,,,,,30694,30684,26256,26253,26275,30721,,,
Sounds,html.Screen,1_3_0_0,2022-05-11T13:12:22.152Z,,,,,,,,,,,,,,,,,,,,,,,,,,,,,,,4244,,timeout,,,,,,,,,1,,,,,,,,S,I,O,,34950,34948,30706,30696,30721,34965,,,
Judgement,html.Screen,1_3_0_1,2022-05-11T13:12:23.305Z,,,,,,,,,,,,,,,,,,,,,,,,,,,,true,1,,1144,,response,,,,,,,,,1,,1,click #choice-1,,,,,S,I,O,,36103,36092,34948,34951,34965,36121,,,
Trial,flow.Sequence,1_3_0,2022-05-11T13:12:23.305Z,,,,,,,,,,,,,,,,,,,,,,,,,,,,,,,5371,,completion,,,,,,,,,1,,,,,,,,S,I,O,,36104,36092,30706,30696,30721,36121,,,
Sounds,html.Screen,1_3_1_0,2022-05-11T13:12:27.552Z,,,,,,,,,,,,,,,,,,,,,,,,,,,,,,,4244,,timeout,,,,,,,,,1,,,,,,,,S,O,I,,40350,40348,36106,36104,36121,40365,,,
Judgement,html.Screen,1_3_1_1,2022-05-11T13:12:28.571Z,,,,,,,,,,,,,,,,,,,,,,,,,,,,true,1,,1011,,response,,,,,,,,,1,,1,click #choice-1,,,,,S,O,I,,41369,41359,40348,40350,40365,41397,,,
Trial,flow.Sequence,1_3_1,2022-05-11T13:12:28.572Z,,,,,,,,,,,,,,,,,,,,,,,,,,,,,,,5238,,completion,,,,,,,,,1,,,,,,,,S,O,I,,41370,41359,36106,36104,36121,41397,,,
Sounds,html.Screen,1_3_2_0,2022-05-11T13:12:32.826Z,,,,,,,,,,,,,,,,,,,,,,,,,,,,,,,4242,,timeout,,,,,,,,,3,,,,,,,,O,I,S,,45624,45623,41382,41370,41397,45639,,,
Judgement,html.Screen,1_3_2_1,2022-05-11T13:12:33.731Z,,,,,,,,,,,,,,,,,,,,,,,,,,,,true,3,,894,,response,,,,,,,,,3,,3,click #choice-3,,,,,O,I,S,,46529,46517,45623,45625,45639,46556,,,
Trial,flow.Sequence,1_3_2,2022-05-11T13:12:33.731Z,,,,,,,,,,,,,,,,,,,,,,,,,,,,,,,5120,,completion,,,,,,,,,3,,,,,,,,O,I,S,,46529,46517,41382,41370,41397,46556,,,
Sounds,html.Screen,1_3_3_0,2022-05-11T13:12:37.993Z,,,,,,,,,,,,,,,,,,,,,,,,,,,,,,,4250,,timeout,,,,,,,,,3,,,,,,,,I,O,S,,50791.00000000001,50790,46539,46529,46556,50806,,,
Judgement,html.Screen,1_3_3_1,2022-05-11T13:12:38.435Z,,,,,,,,,,,,,,,,,,,,,,,,,,,,true,3,,436,,response,,,,,,,,,3,,3,click #choice-3,,,,,I,O,S,,51234,51226,50790,50792,50806,51255,,,
Trial,flow.Sequence,1_3_3,2022-05-11T13:12:38.436Z,,,,,,,,,,,,,,,,,,,,,,,,,,,,,,,4670,,completion,,,,,,,,,3,,,,,,,,I,O,S,,51234,51226,46539,46529,46556,51255,,,
Sounds,html.Screen,1_3_4_0,2022-05-11T13:12:42.684Z,,,,,,,,,,,,,,,,,,,,,,,,,,,,,,,4243,,timeout,,,,,,,,,2,,,,,,,,O,S,I,,55482,55481,51239,51234,51255,55498,,,
Judgement,html.Screen,1_3_4_1,2022-05-11T13:12:43.213Z,,,,,,,,,,,,,,,,,,,,,,,,,,,,true,2,,519,,response,,,,,,,,,2,,2,click #choice-2,,,,,O,S,I,,56011,56000,55481,55482,55498,56031,,,
Trial,flow.Sequence,1_3_4,2022-05-11T13:12:43.214Z,,,,,,,,,,,,,,,,,,,,,,,,,,,,,,,4745,,completion,,,,,,,,,2,,,,,,,,O,S,I,,56012,56000,51239,51234,51255,56031,,,
Sounds,html.Screen,1_3_5_0,2022-05-11T13:12:47.459Z,,,,,,,,,,,,,,,,,,,,,,,,,,,,,,,4242,,timeout,,,,,,,,,2,,,,,,,,I,S,O,,60257,60257,56014,56012,56031,60273,,,
Judgement,html.Screen,1_3_5_1,2022-05-11T13:12:47.956Z,,,,,,,,,,,,,,,,,,,,,,,,,,,,true,2,,485.0000000000073,,response,,,,,,,,,2,,2,click #choice-2,,,,,I,S,O,,60754,60742.00000000001,60257,60258,60273,60781,,,
Trial,flow.Sequence,1_3_5,2022-05-11T13:12:47.957Z,,,,,,,,,,,,,,,,,,,,,,,,,,,,,,,4711.000000000007,,completion,,,,,,,,,2,,,,,,,,I,S,O,,60755,60742.00000000001,56014,56012,56031,60781,,,
Task,flow.Loop,1_3,2022-05-11T13:12:47.959Z,,,,,,,,,,,,,,,,,,,,,,,,,,,,,,,30021.000000000007,,completion,,,1,,,,,,,,,,,,,,,,,,60757,60742.00000000001,30706,30695,30721,60781,,,
Trap,html.Screen,1_4,2022-05-11T13:12:47.960Z,,,,,,,,,,,,,,,,,,,,,,,,,,,,,,,NaN,,skipped,,,,,,,,,,,,,,,,,,,,,60758,60742.00000000001,,60758,,60781,,,
Thanks,html.Screen,1_5,2022-05-11T13:12:50.746Z,,,,,,,,,,,,,,,,,,,,,,,,,,,,,,,2770,,response,,,,,,,,,,,continue,click button,,,,,,,,,63544.00000000001,63534,60764,60758,60781,66162,,,
Headphone screening,flow.Sequence,1,2022-05-11T13:12:50.748Z,,,,,,,,,,,,,,,,,,,,,,,,,,,,,,,56544,,completion,,,,,,,,,,,,,,,,,,,,,63546,63534,6974,6972,6990,66162,,,
Instructions,html.Page,2_0,2022-05-11T13:13:26.747Z,,,,,,,,,,,,,,,,,,,,,,,,,,,,,,,33383,,form submission,,,,,,,,,,,,,,,,,,,,,99545,99545,66147,66138,66162,99573,,,
Holding screen,html.Screen,2_1_0_0,2022-05-11T13:13:36.761Z,,,,,,,,,,,,,,,,,,,,,,,,,,,,,,,10000,,timeout,,,,,,,,,,,,,,,,,,,,,109558,109557,99556,99546,99573,109573,,,
screen,html.Screen,2_1_0_1_0,2022-05-11T13:13:38.162Z,,,,,,,,,,,,,,,,,53,,,,,,,,,,,,,,1388.0000000000146,,response,,,,99,,,,,,,Space,keypress(Space),,,,,,,,When -- ----- -- ------ - ------- --- ----------<br>------------- ------ ------ ---- ---- ------- ----- -- ----<br>-------- ------- -- ---------- --- - --- ----- ----- ----<br>---- --- --- ----- --- ---- ---- ------- ----- ---- -------<br>--- --- -- ----- -- --- ---- -- --- ---- -- ------ ------<br>--- ----- -- ----,110960.00000000001,110945.00000000001,109557,109559,109573,110981,,0,When
screen,html.Screen,2_1_0_1_1,2022-05-11T13:13:38.663Z,,,,,,,,,,,,,,,,,53,,,,,,,,,,,,,,482,,response,,,,99,,,,,,,Space,keypress(Space),,,,,,,,---- it ----- -- ------ - ------- --- ----------<br>------------- ------ ------ ---- ---- ------- ----- -- ----<br>-------- ------- -- ---------- --- - --- ----- ----- ----<br>---- --- --- ----- --- ---- ---- ------- ----- ---- -------<br>--- --- -- ----- -- --- ---- -- --- ---- -- ------ ------<br>--- ----- -- ----,111461,111446,110964,110961,110981,111481,,1,it
screen,html.Screen,2_1_0_1_2,2022-05-11T13:13:39.254Z,,,,,,,,,,,,,,,,,53,,,,,,,,,,,,,,573,,response,,,,99,,,,,,,Space,keypress(Space),,,,,,,,---- -- comes -- ------ - ------- --- ----------<br>------------- ------ ------ ---- ---- ------- ----- -- ----<br>-------- ------- -- ---------- --- - --- ----- ----- ----<br>---- --- --- ----- --- ---- ---- ------- ----- ---- -------<br>--- --- -- ----- -- --- ---- -- --- ---- -- ------ ------<br>--- ----- -- ----,112052,112037,111464,111461,111481,112073,,2,comes
screen,html.Screen,2_1_0_1_3,2022-05-11T13:13:39.793Z,,,,,,,,,,,,,,,,,53,,,,,,,,,,,,,,521.0000000000146,,response,,,,99,,,,,,,Space,keypress(Space),,,,,,,,---- -- ----- to ------ - ------- --- ----------<br>------------- ------ ------ ---- ---- ------- ----- -- ----<br>-------- ------- -- ---------- --- - --- ----- ----- ----<br>---- --- --- ----- --- ---- ---- ------- ----- ---- -------<br>--- --- -- ----- -- --- ---- -- --- ---- -- ------ ------<br>--- ----- -- ----,112591.00000000001,112576.00000000001,112055,112052,112073,112615,,3,to
screen,html.Screen,2_1_0_1_4,2022-05-11T13:13:40.348Z,,,,,,,,,,,,,,,,,53,,,,,,,,,,,,,,534,,response,,,,99,,,,,,,Space,keypress(Space),,,,,,,,---- -- ----- -- having - ------- --- ----------<br>------------- ------ ------ ---- ---- ------- ----- -- ----<br>-------- ------- -- ---------- --- - --- ----- ----- ----<br>---- --- --- ----- --- ---- ---- ------- ----- ---- -------<br>--- --- -- ----- -- --- ---- -- --- ---- -- ------ ------<br>--- ----- -- ----,113146,113131,112597,112592,112615,113172,,4,having
screen,html.Screen,2_1_0_1_5,2022-05-11T13:13:40.960Z,,,,,,,,,,,,,,,,,53,,,,,,,,,,,,,,587.0000000000146,,response,,,,99,,,,,,,Space,keypress(Space),,,,,,,,---- -- ----- -- ------ a ------- --- ----------<br>------------- ------ ------ ---- ---- ------- ----- -- ----<br>-------- ------- -- ---------- --- - --- ----- ----- ----<br>---- --- --- ----- --- ---- ---- ------- ----- ---- -------<br>--- --- -- ----- -- --- ---- -- --- ---- -- ------ ------<br>--- ----- -- ----,113758,113743.00000000001,113156,113146,113172,113781,,5,a
screen,html.Screen,2_1_0_1_6,2022-05-11T13:13:41.496Z,,,,,,,,,,,,,,,,,53,,,,,,,,,,,,,,514,,response,,,,99,,,,,,,Space,keypress(Space),,,,,,,,---- -- ----- -- ------ - lasting --- ----------<br>------------- ------ ------ ---- ---- ------- ----- -- ----<br>-------- ------- -- ---------- --- - --- ----- ----- ----<br>---- --- --- ----- --- ---- ---- ------- ----- ---- -------<br>--- --- -- ----- -- --- ---- -- --- ---- -- ------ ------<br>--- ----- -- ----,114294,114278,113764,113758,113781,114314,,6,lasting
screen,html.Screen,2_1_0_1_7,2022-05-11T13:13:41.960Z,,,,,,,,,,,,,,,,,53,,,,,,,,,,,,,,447,,response,,,,99,,,,,,,Space,keypress(Space),,,,,,,,---- -- ----- -- ------ - ------- and ----------<br>------------- ------ ------ ---- ---- ------- ----- -- ----<br>-------- ------- -- ---------- --- - --- ----- ----- ----<br>---- --- --- ----- --- ---- ---- ------- ----- ---- -------<br>--- --- -- ----- -- --- ---- -- --- ---- -- ------ ------<br>--- ----- -- ----,114758,114744,114297,114294,114314,114781,,7,and
screen,html.Screen,2_1_0_1_8,2022-05-11T13:13:42.482Z,,,,,,,,,,,,,,,,,53,,,,,,,,,,,,,,503,,response,,,,99,,,,,,,Space,keypress(Space),,,,,,,,---- -- ----- -- ------ - ------- --- fulfilling<br>------------- ------ ------ ---- ---- ------- ----- -- ----<br>-------- ------- -- ---------- --- - --- ----- ----- ----<br>---- --- --- ----- --- ---- ---- ------- ----- ---- -------<br>--- --- -- ----- -- --- ---- -- --- ---- -- ------ ------<br>--- ----- -- ----,115280,115267,114764,114758,114781,115306,,8,fulfilling
screen,html.Screen,2_1_0_1_9,2022-05-11T13:13:43.064Z,,,,,,,,,,,,,,,,,53,,,,,,,,,,,,,,557,,response,,,,99,,,,,,,Space,keypress(Space),,,,,,,,"---- -- ----- -- ------ - ------- --- ----------<br>relationship, ------ ------ ---- ---- ------- ----- -- ----<br>-------- ------- -- ---------- --- - --- ----- ----- ----<br>---- --- --- ----- --- ---- ---- ------- ----- ---- -------<br>--- --- -- ----- -- --- ---- -- --- ---- -- ------ ------<br>--- ----- -- ----",115862.00000000001,115846,115289,115280,115306,115890,,9,"relationship,"
screen,html.Screen,2_1_0_1_10,2022-05-11T13:13:43.675Z,,,,,,,,,,,,,,,,,53,,,,,,,,,,,,,,586,,response,,,,99,,,,,,,Space,keypress(Space),,,,,,,,---- -- ----- -- ------ - ------- --- ----------<br>------------- common ------ ---- ---- ------- ----- -- ----<br>-------- ------- -- ---------- --- - --- ----- ----- ----<br>---- --- --- ----- --- ---- ---- ------- ----- ---- -------<br>--- --- -- ----- -- --- ---- -- --- ---- -- ------ ------<br>--- ----- -- ----,116473,116459,115873,115862.00000000001,115890,116498,,10,common
screen,html.Screen,2_1_0_1_11,2022-05-11T13:13:44.206Z,,,,,,,,,,,,,,,,,53,,,,,,,,,,,,,,510,,response,,,,99,,,,,,,Space,keypress(Space),,,,,,,,---- -- ----- -- ------ - ------- --- ----------<br>------------- ------ wisdom ---- ---- ------- ----- -- ----<br>-------- ------- -- ---------- --- - --- ----- ----- ----<br>---- --- --- ----- --- ---- ---- ------- ----- ---- -------<br>--- --- -- ----- -- --- ---- -- --- ---- -- ------ ------<br>--- ----- -- ----,117004,116991,116481,116473,116498,117031,,11,wisdom
screen,html.Screen,2_1_0_1_12,2022-05-11T13:13:44.654Z,,,,,,,,,,,,,,,,,53,,,,,,,,,,,,,,421,,response,,,,99,,,,,,,Space,keypress(Space),,,,,,,,---- -- ----- -- ------ - ------- --- ----------<br>------------- ------ ------ says ---- ------- ----- -- ----<br>-------- ------- -- ---------- --- - --- ----- ----- ----<br>---- --- --- ----- --- ---- ---- ------- ----- ---- -------<br>--- --- -- ----- -- --- ---- -- --- ---- -- ------ ------<br>--- ----- -- ----,117451.00000000001,117436,117015,117004,117031,117473,,12,says
screen,html.Screen,2_1_0_1_13,2022-05-11T13:13:45.038Z,,,,,,,,,,,,,,,,,53,,,,,,,,,,,,,,365,,response,,,,99,,,,,,,Space,keypress(Space),,,,,,,,---- -- ----- -- ------ - ------- --- ----------<br>------------- ------ ------ ---- that ------- ----- -- ----<br>-------- ------- -- ---------- --- - --- ----- ----- ----<br>---- --- --- ----- --- ---- ---- ------- ----- ---- -------<br>--- --- -- ----- -- --- ---- -- --- ---- -- ------ ------<br>--- ----- -- ----,117835.00000000001,117821,117456,117452,117473,117864,,13,that
screen,html.Screen,2_1_0_1_14,2022-05-11T13:13:45.557Z,,,,,,,,,,,,,,,,,53,,,,,,,,,,,,,,493.00000000001455,,response,,,,99,,,,,,,Space,keypress(Space),,,,,,,,---- -- ----- -- ------ - ------- --- ----------<br>------------- ------ ------ ---- ---- feeling ----- -- ----<br>-------- ------- -- ---------- --- - --- ----- ----- ----<br>---- --- --- ----- --- ---- ---- ------- ----- ---- -------<br>--- --- -- ----- -- --- ---- -- --- ---- -- ------ ------<br>--- ----- -- ----,118354,118341.00000000001,117848,117836,117864,118380,,14,feeling
screen,html.Screen,2_1_0_1_15,2022-05-11T13:13:46.010Z,,,,,,,,,,,,,,,,,53,,,,,,,,,,,,,,429,,response,,,,99,,,,,,,Space,keypress(Space),,,,,,,,---- -- ----- -- ------ - ------- --- ----------<br>------------- ------ ------ ---- ---- ------- close -- ----<br>-------- ------- -- ---------- --- - --- ----- ----- ----<br>---- --- --- ----- --- ---- ---- ------- ----- ---- -------<br>--- --- -- ----- -- --- ---- -- --- ---- -- ------ ------<br>--- ----- -- ----,118808,118793,118364,118355,118380,118831,,15,close
screen,html.Screen,2_1_0_1_16,2022-05-11T13:13:46.347Z,,,,,,,,,,,,,,,,,53,,,,,,,,,,,,,,318,,response,,,,99,,,,,,,Space,keypress(Space),,,,,,,,---- -- ----- -- ------ - ------- --- ----------<br>------------- ------ ------ ---- ---- ------- ----- to ----<br>-------- ------- -- ---------- --- - --- ----- ----- ----<br>---- --- --- ----- --- ---- ---- ------- ----- ---- -------<br>--- --- -- ----- -- --- ---- -- --- ---- -- ------ ------<br>--- ----- -- ----,119144,119132,118814,118808,118831,119173,,16,to
screen,html.Screen,2_1_0_1_17,2022-05-11T13:13:46.770Z,,,,,,,,,,,,,,,,,53,,,,,,,,,,,,,,400,,response,,,,99,,,,,,,Space,keypress(Space),,,,,,,,---- -- ----- -- ------ - ------- --- ----------<br>------------- ------ ------ ---- ---- ------- ----- -- your<br>-------- ------- -- ---------- --- - --- ----- ----- ----<br>---- --- --- ----- --- ---- ---- ------- ----- ---- -------<br>--- --- -- ----- -- --- ---- -- --- ---- -- ------ ------<br>--- ----- -- ----,119567,119556,119156,119145,119173,119589,,17,your
screen,html.Screen,2_1_0_1_18,2022-05-11T13:13:47.200Z,,,,,,,,,,,,,,,,,53,,,,,,,,,,,,,,414,,response,,,,99,,,,,,,Space,keypress(Space),,,,,,,,---- -- ----- -- ------ - ------- --- ----------<br>------------- ------ ------ ---- ---- ------- ----- -- ----<br>romantic ------- -- ---------- --- - --- ----- ----- ----<br>---- --- --- ----- --- ---- ---- ------- ----- ---- -------<br>--- --- -- ----- -- --- ---- -- --- ---- -- ------ ------<br>--- ----- -- ----,119998,119986,119572,119568,119589,120023,,18,romantic
screen,html.Screen,2_1_0_1_19,2022-05-11T13:13:47.565Z,,,,,,,,,,,,,,,,,53,,,,,,,,,,,,,,341.00000000001455,,response,,,,99,,,,,,,Space,keypress(Space),,,,,,,,---- -- ----- -- ------ - ------- --- ----------<br>------------- ------ ------ ---- ---- ------- ----- -- ----<br>-------- partner -- ---------- --- - --- ----- ----- ----<br>---- --- --- ----- --- ---- ---- ------- ----- ---- -------<br>--- --- -- ----- -- --- ---- -- --- ---- -- ------ ------<br>--- ----- -- ----,120362.00000000001,120347.00000000001,120006,119998,120023,120389,,19,partner
screen,html.Screen,2_1_0_1_20,2022-05-11T13:13:47.941Z,,,,,,,,,,,,,,,,,53,,,,,,,,,,,,,,350,,response,,,,99,,,,,,,Space,keypress(Space),,,,,,,,---- -- ----- -- ------ - ------- --- ----------<br>------------- ------ ------ ---- ---- ------- ----- -- ----<br>-------- ------- is ---------- --- - --- ----- ----- ----<br>---- --- --- ----- --- ---- ---- ------- ----- ---- -------<br>--- --- -- ----- -- --- ---- -- --- ---- -- ------ ------<br>--- ----- -- ----,120738,120723,120373,120363,120389,120764,,20,is
screen,html.Screen,2_1_0_1_21,2022-05-11T13:13:48.304Z,,,,,,,,,,,,,,,,,53,,,,,,,,,,,,,,339,,response,,,,99,,,,,,,Space,keypress(Space),,,,,,,,---- -- ----- -- ------ - ------- --- ----------<br>------------- ------ ------ ---- ---- ------- ----- -- ----<br>-------- ------- -- paramount. --- - --- ----- ----- ----<br>---- --- --- ----- --- ---- ---- ------- ----- ---- -------<br>--- --- -- ----- -- --- ---- -- --- ---- -- ------ ------<br>--- ----- -- ----,121102,121087,120748,120738,120764,121131,,21,paramount.
screen,html.Screen,2_1_0_1_22,2022-05-11T13:13:48.793Z,,,,,,,,,,,,,,,,,53,,,,,,,,,,,,,,461.00000000001455,,response,,,,99,,,,,,,Space,keypress(Space),,,,,,,,---- -- ----- -- ------ - ------- --- ----------<br>------------- ------ ------ ---- ---- ------- ----- -- ----<br>-------- ------- -- ---------- But - --- ----- ----- ----<br>---- --- --- ----- --- ---- ---- ------- ----- ---- -------<br>--- --- -- ----- -- --- ---- -- --- ---- -- ------ ------<br>--- ----- -- ----,121591.00000000001,121576.00000000001,121115,121102,121131,121614,,22,But
screen,html.Screen,2_1_0_1_23,2022-05-11T13:13:49.137Z,,,,,,,,,,,,,,,,,53,,,,,,,,,,,,,,324,,response,,,,99,,,,,,,Space,keypress(Space),,,,,,,,---- -- ----- -- ------ - ------- --- ----------<br>------------- ------ ------ ---- ---- ------- ----- -- ----<br>-------- ------- -- ---------- --- a --- ----- ----- ----<br>---- --- --- ----- --- ---- ---- ------- ----- ---- -------<br>--- --- -- ----- -- --- ---- -- --- ---- -- ------ ------<br>--- ----- -- ----,121935,121921,121597,121591.00000000001,121614,121956,,23,a
screen,html.Screen,2_1_0_1_24,2022-05-11T13:13:49.520Z,,,,,,,,,,,,,,,,,53,,,,,,,,,,,,,,365,,response,,,,99,,,,,,,Space,keypress(Space),,,,,,,,---- -- ----- -- ------ - ------- --- ----------<br>------------- ------ ------ ---- ---- ------- ----- -- ----<br>-------- ------- -- ---------- --- - new ----- ----- ----<br>---- --- --- ----- --- ---- ---- ------- ----- ---- -------<br>--- --- -- ----- -- --- ---- -- --- ---- -- ------ ------<br>--- ----- -- ----,122318,122304,121939,121935,121956,122339,,24,new
screen,html.Screen,2_1_0_1_25,2022-05-11T13:13:49.913Z,,,,,,,,,,,,,,,,,53,,,,,,,,,,,,,,373.00000000001455,,response,,,,99,,,,,,,Space,keypress(Space),,,,,,,,---- -- ----- -- ------ - ------- --- ----------<br>------------- ------ ------ ---- ---- ------- ----- -- ----<br>-------- ------- -- ---------- --- - --- study ----- ----<br>---- --- --- ----- --- ---- ---- ------- ----- ---- -------<br>--- --- -- ----- -- --- ---- -- --- ---- -- ------ ------<br>--- ----- -- ----,122710.00000000001,122695.00000000001,122322,122318,122339,122735,,25,study
screen,html.Screen,2_1_0_1_26,2022-05-11T13:13:50.268Z,,,,,,,,,,,,,,,,,53,,,,,,,,,,,,,,334,,response,,,,99,,,,,,,Space,keypress(Space),,,,,,,,---- -- ----- -- ------ - ------- --- ----------<br>------------- ------ ------ ---- ---- ------- ----- -- ----<br>-------- ------- -- ---------- --- - --- ----- finds ----<br>---- --- --- ----- --- ---- ---- ------- ----- ---- -------<br>--- --- -- ----- -- --- ---- -- --- ---- -- ------ ------<br>--- ----- -- ----,123066,123052,122718,122711,122735,123089,,26,finds
screen,html.Screen,2_1_0_1_27,2022-05-11T13:13:50.671Z,,,,,,,,,,,,,,,,,53,,,,,,,,,,,,,,383,,response,,,,99,,,,,,,Space,keypress(Space),,,,,,,,---- -- ----- -- ------ - ------- --- ----------<br>------------- ------ ------ ---- ---- ------- ----- -- ----<br>-------- ------- -- ---------- --- - --- ----- ----- that<br>---- --- --- ----- --- ---- ---- ------- ----- ---- -------<br>--- --- -- ----- -- --- ---- -- --- ---- -- ------ ------<br>--- ----- -- ----,123468,123455,123072,123066,123089,123489,,27,that
screen,html.Screen,2_1_0_1_28,2022-05-11T13:13:51.136Z,,,,,,,,,,,,,,,,,53,,,,,,,,,,,,,,448,,response,,,,99,,,,,,,Space,keypress(Space),,,,,,,,---- -- ----- -- ------ - ------- --- ----------<br>------------- ------ ------ ---- ---- ------- ----- -- ----<br>-------- ------- -- ---------- --- - --- ----- ----- ----<br>it's --- --- ----- --- ---- ---- ------- ----- ---- -------<br>--- --- -- ----- -- --- ---- -- --- ---- -- ------ ------<br>--- ----- -- ----,123934,123920,123472,123469.00000000001,123489,123956,,28,it's
screen,html.Screen,2_1_0_1_29,2022-05-11T13:13:51.489Z,,,,,,,,,,,,,,,,,53,,,,,,,,,,,,,,333,,response,,,,99,,,,,,,Space,keypress(Space),,,,,,,,---- -- ----- -- ------ - ------- --- ----------<br>------------- ------ ------ ---- ---- ------- ----- -- ----<br>-------- ------- -- ---------- --- - --- ----- ----- ----<br>---- not --- ----- --- ---- ---- ------- ----- ---- -------<br>--- --- -- ----- -- --- ---- -- --- ---- -- ------ ------<br>--- ----- -- ----,124287,124272,123939,123934,123956,124314,,29,not
screen,html.Screen,2_1_0_1_30,2022-05-11T13:13:51.819Z,,,,,,,,,,,,,,,,,53,,,,,,,,,,,,,,306,,response,,,,99,,,,,,,Space,keypress(Space),,,,,,,,---- -- ----- -- ------ - ------- --- ----------<br>------------- ------ ------ ---- ---- ------- ----- -- ----<br>-------- ------- -- ---------- --- - --- ----- ----- ----<br>---- --- how ----- --- ---- ---- ------- ----- ---- -------<br>--- --- -- ----- -- --- ---- -- --- ---- -- ------ ------<br>--- ----- -- ----,124616,124604,124298,124288,124314,124639,,30,how
screen,html.Screen,2_1_0_1_31,2022-05-11T13:13:52.238Z,,,,,,,,,,,,,,,,,53,,,,,,,,,,,,,,399,,response,,,,99,,,,,,,Space,keypress(Space),,,,,,,,---- -- ----- -- ------ - ------- --- ----------<br>------------- ------ ------ ---- ---- ------- ----- -- ----<br>-------- ------- -- ---------- --- - --- ----- ----- ----<br>---- --- --- close --- ---- ---- ------- ----- ---- -------<br>--- --- -- ----- -- --- ---- -- --- ---- -- ------ ------<br>--- ----- -- ----,125035,125021,124622,124617,124639,125056,,31,close
screen,html.Screen,2_1_0_1_32,2022-05-11T13:13:52.597Z,,,,,,,,,,,,,,,,,53,,,,,,,,,,,,,,342,,response,,,,99,,,,,,,Space,keypress(Space),,,,,,,,---- -- ----- -- ------ - ------- --- ----------<br>------------- ------ ------ ---- ---- ------- ----- -- ----<br>-------- ------- -- ---------- --- - --- ----- ----- ----<br>---- --- --- ----- you ---- ---- ------- ----- ---- -------<br>--- --- -- ----- -- --- ---- -- --- ---- -- ------ ------<br>--- ----- -- ----,125394,125381,125039,125036,125056,125414,,32,you
screen,html.Screen,2_1_0_1_33,2022-05-11T13:13:52.982Z,,,,,,,,,,,,,,,,,53,,,,,,,,,,,,,,371,,response,,,,99,,,,,,,Space,keypress(Space),,,,,,,,---- -- ----- -- ------ - ------- --- ----------<br>------------- ------ ------ ---- ---- ------- ----- -- ----<br>-------- ------- -- ---------- --- - --- ----- ----- ----<br>---- --- --- ----- --- feel ---- ------- ----- ---- -------<br>--- --- -- ----- -- --- ---- -- --- ---- -- ------ ------<br>--- ----- -- ----,125780,125768,125397,125394,125414,125806,,33,feel
screen,html.Screen,2_1_0_1_34,2022-05-11T13:13:53.367Z,,,,,,,,,,,,,,,,,53,,,,,,,,,,,,,,364,,response,,,,99,,,,,,,Space,keypress(Space),,,,,,,,---- -- ----- -- ------ - ------- --- ----------<br>------------- ------ ------ ---- ---- ------- ----- -- ----<br>-------- ------- -- ---------- --- - --- ----- ----- ----<br>---- --- --- ----- --- ---- that ------- ----- ---- -------<br>--- --- -- ----- -- --- ---- -- --- ---- -- ------ ------<br>--- ----- -- ----,126165,126153,125789,125780,125806,126190,,34,that
screen,html.Screen,2_1_0_1_35,2022-05-11T13:13:53.713Z,,,,,,,,,,,,,,,,,53,,,,,,,,,,,,,,324.00000000001455,,response,,,,99,,,,,,,Space,keypress(Space),,,,,,,,---- -- ----- -- ------ - ------- --- ----------<br>------------- ------ ------ ---- ---- ------- ----- -- ----<br>-------- ------- -- ---------- --- - --- ----- ----- ----<br>---- --- --- ----- --- ---- ---- matters ----- ---- -------<br>--- --- -- ----- -- --- ---- -- --- ---- -- ------ ------<br>--- ----- -- ----,126511,126496.00000000001,126172,126165,126190,126530,,35,matters
screen,html.Screen,2_1_0_1_36,2022-05-11T13:13:54.081Z,,,,,,,,,,,,,,,,,53,,,,,,,,,,,,,,350,,response,,,,99,,,,,,,Space,keypress(Space),,,,,,,,"---- -- ----- -- ------ - ------- --- ----------<br>------------- ------ ------ ---- ---- ------- ----- -- ----<br>-------- ------- -- ---------- --- - --- ----- ----- ----<br>---- --- --- ----- --- ---- ---- ------- most, ---- -------<br>--- --- -- ----- -- --- ---- -- --- ---- -- ------ ------<br>--- ----- -- ----",126879,126863,126513,126511,126530,126906,,36,"most,"
screen,html.Screen,2_1_0_1_37,2022-05-11T13:13:54.502Z,,,,,,,,,,,,,,,,,53,,,,,,,,,,,,,,396,,response,,,,99,,,,,,,Space,keypress(Space),,,,,,,,---- -- ----- -- ------ - ------- --- ----------<br>------------- ------ ------ ---- ---- ------- ----- -- ----<br>-------- ------- -- ---------- --- - --- ----- ----- ----<br>---- --- --- ----- --- ---- ---- ------- ----- it's -------<br>--- --- -- ----- -- --- ---- -- --- ---- -- ------ ------<br>--- ----- -- ----,127300,127285,126889,126879,126906,127323,,37,it's
screen,html.Screen,2_1_0_1_38,2022-05-11T13:13:54.883Z,,,,,,,,,,,,,,,,,53,,,,,,,,,,,,,,361,,response,,,,99,,,,,,,Space,keypress(Space),,,,,,,,---- -- ----- -- ------ - ------- --- ----------<br>------------- ------ ------ ---- ---- ------- ----- -- ----<br>-------- ------- -- ---------- --- - --- ----- ----- ----<br>---- --- --- ----- --- ---- ---- ------- ----- ---- whether<br>--- --- -- ----- -- --- ---- -- --- ---- -- ------ ------<br>--- ----- -- ----,127680,127666,127305,127300,127323,127706,,38,whether
screen,html.Screen,2_1_0_1_39,2022-05-11T13:13:55.257Z,,,,,,,,,,,,,,,,,53,,,,,,,,,,,,,,350.99999999998545,,response,,,,99,,,,,,,Space,keypress(Space),,,,,,,,---- -- ----- -- ------ - ------- --- ----------<br>------------- ------ ------ ---- ---- ------- ----- -- ----<br>-------- ------- -- ---------- --- - --- ----- ----- ----<br>---- --- --- ----- --- ---- ---- ------- ----- ---- -------<br>you --- -- ----- -- --- ---- -- --- ---- -- ------ ------<br>--- ----- -- ----,128055,128039.99999999999,127689,127681,127706,128081,,39,you
screen,html.Screen,2_1_0_1_40,2022-05-11T13:13:55.664Z,,,,,,,,,,,,,,,,,53,,,,,,,,,,,,,,385.00000000001455,,response,,,,99,,,,,,,Space,keypress(Space),,,,,,,,---- -- ----- -- ------ - ------- --- ----------<br>------------- ------ ------ ---- ---- ------- ----- -- ----<br>-------- ------- -- ---------- --- - --- ----- ----- ----<br>---- --- --- ----- --- ---- ---- ------- ----- ---- -------<br>--- are -- ----- -- --- ---- -- --- ---- -- ------ ------<br>--- ----- -- ----,128461.00000000001,128449.00000000001,128064,128056.00000000001,128081,128489,,40,are
screen,html.Screen,2_1_0_1_41,2022-05-11T13:13:56.952Z,,,,,,,,,,,,,,,,,53,,,,,,,,,,,,,,1262.0000000000146,,response,,,,99,,,,,,,Space,keypress(Space),,,,,,,,---- -- ----- -- ------ - ------- --- ----------<br>------------- ------ ------ ---- ---- ------- ----- -- ----<br>-------- ------- -- ---------- --- - --- ----- ----- ----<br>---- --- --- ----- --- ---- ---- ------- ----- ---- -------<br>--- --- as ----- -- --- ---- -- --- ---- -- ------ ------<br>--- ----- -- ----,129750,129734.00000000001,128472,128461.99999999999,128489,129773,,41,as
screen,html.Screen,2_1_0_1_42,2022-05-11T13:13:57.574Z,,,,,,,,,,,,,,,,,53,,,,,,,,,,,,,,604.0000000000146,,response,,,,99,,,,,,,Space,keypress(Space),,,,,,,,---- -- ----- -- ------ - ------- --- ----------<br>------------- ------ ------ ---- ---- ------- ----- -- ----<br>-------- ------- -- ---------- --- - --- ----- ----- ----<br>---- --- --- ----- --- ---- ---- ------- ----- ---- -------<br>--- --- -- close -- --- ---- -- --- ---- -- ------ ------<br>--- ----- -- ----,130372.00000000001,130360.00000000001,129756,129750,129773,130398,,42,close
screen,html.Screen,2_1_0_1_43,2022-05-11T13:13:58.061Z,,,,,,,,,,,,,,,,,53,,,,,,,,,,,,,,461.99999999998545,,response,,,,99,,,,,,,Space,keypress(Space),,,,,,,,---- -- ----- -- ------ - ------- --- ----------<br>------------- ------ ------ ---- ---- ------- ----- -- ----<br>-------- ------- -- ---------- --- - --- ----- ----- ----<br>---- --- --- ----- --- ---- ---- ------- ----- ---- -------<br>--- --- -- ----- as --- ---- -- --- ---- -- ------ ------<br>--- ----- -- ----,130859.00000000001,130842.99999999999,130381,130372.00000000001,130398,130881,,43,as
screen,html.Screen,2_1_0_1_44,2022-05-11T13:13:58.452Z,,,,,,,,,,,,,,,,,53,,,,,,,,,,,,,,370,,response,,,,99,,,,,,,Space,keypress(Space),,,,,,,,---- -- ----- -- ------ - ------- --- ----------<br>------------- ------ ------ ---- ---- ------- ----- -- ----<br>-------- ------- -- ---------- --- - --- ----- ----- ----<br>---- --- --- ----- --- ---- ---- ------- ----- ---- -------<br>--- --- -- ----- -- you ---- -- --- ---- -- ------ ------<br>--- ----- -- ----,131249,131234,130864,130859.00000000001,130881,131273,,44,you
screen,html.Screen,2_1_0_1_45,2022-05-11T13:13:58.897Z,,,,,,,,,,,,,,,,,53,,,,,,,,,,,,,,429,,response,,,,99,,,,,,,Space,keypress(Space),,,,,,,,---- -- ----- -- ------ - ------- --- ----------<br>------------- ------ ------ ---- ---- ------- ----- -- ----<br>-------- ------- -- ---------- --- - --- ----- ----- ----<br>---- --- --- ----- --- ---- ---- ------- ----- ---- -------<br>--- --- -- ----- -- --- want -- --- ---- -- ------ ------<br>--- ----- -- ----,131695,131685,131256,131250,131273,131723,,45,want
screen,html.Screen,2_1_0_1_46,2022-05-11T13:13:59.545Z,,,,,,,,,,,,,,,,,53,,,,,,,,,,,,,,623,,response,,,,99,,,,,,,Space,keypress(Space),,,,,,,,---- -- ----- -- ------ - ------- --- ----------<br>------------- ------ ------ ---- ---- ------- ----- -- ----<br>-------- ------- -- ---------- --- - --- ----- ----- ----<br>---- --- --- ----- --- ---- ---- ------- ----- ---- -------<br>--- --- -- ----- -- --- ---- to --- ---- -- ------ ------<br>--- ----- -- ----,132343,132328,131705,131695,131723,132364,,46,to
screen,html.Screen,2_1_0_1_47,2022-05-11T13:13:59.929Z,,,,,,,,,,,,,,,,,53,,,,,,,,,,,,,,365,,response,,,,99,,,,,,,Space,keypress(Space),,,,,,,,"---- -- ----- -- ------ - ------- --- ----------<br>------------- ------ ------ ---- ---- ------- ----- -- ----<br>-------- ------- -- ---------- --- - --- ----- ----- ----<br>---- --- --- ----- --- ---- ---- ------- ----- ---- -------<br>--- --- -- ----- -- --- ---- -- be, ---- -- ------ ------<br>--- ----- -- ----",132727,132712,132347,132343,132364,132752,,47,"be,"
screen,html.Screen,2_1_0_1_48,2022-05-11T13:14:00.424Z,,,,,,,,,,,,,,,,,53,,,,,,,,,,,,,,472,,response,,,,99,,,,,,,Space,keypress(Space),,,,,,,,---- -- ----- -- ------ - ------- --- ----------<br>------------- ------ ------ ---- ---- ------- ----- -- ----<br>-------- ------- -- ---------- --- - --- ----- ----- ----<br>---- --- --- ----- --- ---- ---- ------- ----- ---- -------<br>--- --- -- ----- -- --- ---- -- --- even -- ------ ------<br>--- ----- -- ----,133222,133207,132735,132727,132752,133248,,48,even
screen,html.Screen,2_1_0_1_49,2022-05-11T13:14:00.937Z,,,,,,,,,,,,,,,,,53,,,,,,,,,,,,,,489,,response,,,,99,,,,,,,Space,keypress(Space),,,,,,,,---- -- ----- -- ------ - ------- --- ----------<br>------------- ------ ------ ---- ---- ------- ----- -- ----<br>-------- ------- -- ---------- --- - --- ----- ----- ----<br>---- --- --- ----- --- ---- ---- ------- ----- ---- -------<br>--- --- -- ----- -- --- ---- -- --- ---- if ------ ------<br>--- ----- -- ----,133735,133720,133231,133222,133248,133756,,49,if
screen,html.Screen,2_1_0_1_50,2022-05-11T13:14:01.353Z,,,,,,,,,,,,,,,,,53,,,,,,,,,,,,,,397,,response,,,,99,,,,,,,Space,keypress(Space),,,,,,,,---- -- ----- -- ------ - ------- --- ----------<br>------------- ------ ------ ---- ---- ------- ----- -- ----<br>-------- ------- -- ---------- --- - --- ----- ----- ----<br>---- --- --- ----- --- ---- ---- ------- ----- ---- -------<br>--- --- -- ----- -- --- ---- -- --- ---- -- that's ------<br>--- ----- -- ----,134151,134136,133739,133735,133756,134172,,50,that's
screen,html.Screen,2_1_0_1_51,2022-05-11T13:14:01.934Z,,,,,,,,,,,,,,,,,53,,,,,,,,,,,,,,561,,response,,,,99,,,,,,,Space,keypress(Space),,,,,,,,---- -- ----- -- ------ - ------- --- ----------<br>------------- ------ ------ ---- ---- ------- ----- -- ----<br>-------- ------- -- ---------- --- - --- ----- ----- ----<br>---- --- --- ----- --- ---- ---- ------- ----- ---- -------<br>--- --- -- ----- -- --- ---- -- --- ---- -- ------ really<br>--- ----- -- ----,134731,134716,134155,134151,134172,134756,,51,really
screen,html.Screen,2_1_0_1_52,2022-05-11T13:14:02.404Z,,,,,,,,,,,,,,,,,53,,,,,,,,,,,,,,447,,response,,,,99,,,,,,,Space,keypress(Space),,,,,,,,---- -- ----- -- ------ - ------- --- ----------<br>------------- ------ ------ ---- ---- ------- ----- -- ----<br>-------- ------- -- ---------- --- - --- ----- ----- ----<br>---- --- --- ----- --- ---- ---- ------- ----- ---- -------<br>--- --- -- ----- -- --- ---- -- --- ---- -- ------ ------<br>not ----- -- ----,135202,135186,134739,134732,134756,135223,,52,not
screen,html.Screen,2_1_0_1_53,2022-05-11T13:14:02.836Z,,,,,,,,,,,,,,,,,53,,,,,,,,,,,,,,417,,response,,,,99,,,,,,,Space,keypress(Space),,,,,,,,---- -- ----- -- ------ - ------- --- ----------<br>------------- ------ ------ ---- ---- ------- ----- -- ----<br>-------- ------- -- ---------- --- - --- ----- ----- ----<br>---- --- --- ----- --- ---- ---- ------- ----- ---- -------<br>--- --- -- ----- -- --- ---- -- --- ---- -- ------ ------<br>--- close -- ----,135634,135622,135205,135203,135223,135656,,53,close
screen,html.Screen,2_1_0_1_54,2022-05-11T13:14:03.255Z,,,,,,,,,,,,,,,,,53,,,,,,,,,,,,,,403,,response,,,,99,,,,,,,Space,keypress(Space),,,,,,,,---- -- ----- -- ------ - ------- --- ----------<br>------------- ------ ------ ---- ---- ------- ----- -- ----<br>-------- ------- -- ---------- --- - --- ----- ----- ----<br>---- --- --- ----- --- ---- ---- ------- ----- ---- -------<br>--- --- -- ----- -- --- ---- -- --- ---- -- ------ ------<br>--- ----- at ----,136053,136041,135638,135634,135656,136080,,54,at
screen,html.Screen,2_1_0_1_55,2022-05-11T13:14:04.039Z,,,,,,,,,,,,,,,,,53,,,,,,,,,,,,,,758,,response,,,,99,,,,,,,Space,keypress(Space),,,,,,,,---- -- ----- -- ------ - ------- --- ----------<br>------------- ------ ------ ---- ---- ------- ----- -- ----<br>-------- ------- -- ---------- --- - --- ----- ----- ----<br>---- --- --- ----- --- ---- ---- ------- ----- ---- -------<br>--- --- -- ----- -- --- ---- -- --- ---- -- ------ ------<br>--- ----- -- all.,136837,136822,136064,136053,136080,136864,,55,all.
Item 99,flow.Loop,2_1_0_1,2022-05-11T13:14:04.040Z,,,,,,,,,,,,,,,,,,,,,,,,,,,,,,,27249,,completion,,,,,E,,,,,,,,,,,silence,,,,,136837,136822,109557,109559,109573,136864,,,
Question 1,html.Screen,2_1_0_2,2022-05-11T13:14:16.217Z,,,,,,,,,,,,,,,,,,,,,,,,,,,,true,FALSE,,12156,,response,,,,99,E,,,,,,FALSE,click #choice-2,,,,silence,,,,,149015.00000000003,149004,136848,136837,136864,149051,,,
Question 2,html.Screen,2_1_0_3,2022-05-11T13:14:21.372Z,,,,,,,,,,,,,,,,,,,,,,,,,,,,true,TRUE,,5127.000000000029,,response,,,,99,E,,,,,,TRUE,click #choice-1,,,,silence,,,,,154169,154158.00000000003,149031,149015.00000000003,149051,154197,,,
Item 99,flow.Sequence,2_1_0,2022-05-11T13:14:21.372Z,,,,,,,,,,,,,,,,,,,,,,,,,,,,,,,54585.00000000003,,completion,,,,,,,,,,,,,,,,,,,,,154169,154158.00000000003,99556,99546,99573,154197,,,
Holding screen,html.Screen,2_1_1_0,2022-05-11T13:14:31.384Z,,,,,,,,,,,,,,,,,,,,,,,,,,,,,,,10000,,timeout,,,,,,,,,,,,,,,,,,,,,164181,164180,154181,154170.00000000003,154197,164197,,,
screen,html.Screen,2_1_1_1_0,2022-05-11T13:14:32.892Z,,,,,,,,,,,,,,,,,54,,,,,,,,,,,,,,1495,,response,,,,100,,,,,,,Space,keypress(Space),,,,,,,,At --- ---- --- ------ ----- ------- ---- -- --- ------- --<br>------- ---------- ------ -- ----- -- ----- -- ---- ------<br>--- ----- --- --- ------ -------- ----- --- ------ ----- --<br>----- ----- ---------- --- --- ------ ------ ---- -- ------<br>------- --- ------ ----- --- ---- ------- -- ---- --- --<br>------- ------,165690,165675,164180,164182.00000000003,164197,165714,,0,At
screen,html.Screen,2_1_1_1_1,2022-05-11T13:14:33.343Z,,,,,,,,,,,,,,,,,54,,,,,,,,,,,,,,428,,response,,,,100,,,,,,,Space,keypress(Space),,,,,,,,-- the ---- --- ------ ----- ------- ---- -- --- ------- --<br>------- ---------- ------ -- ----- -- ----- -- ---- ------<br>--- ----- --- --- ------ -------- ----- --- ------ ----- --<br>----- ----- ---------- --- --- ------ ------ ---- -- ------<br>------- --- ------ ----- --- ---- ------- -- ---- --- --<br>------- ------,166141,166125,165697,165690,165714,166163,,1,the
screen,html.Screen,2_1_1_1_2,2022-05-11T13:14:34.058Z,,,,,,,,,,,,,,,,,54,,,,,,,,,,,,,,693,,response,,,,100,,,,,,,Space,keypress(Space),,,,,,,,-- --- time --- ------ ----- ------- ---- -- --- ------- --<br>------- ---------- ------ -- ----- -- ----- -- ---- ------<br>--- ----- --- --- ------ -------- ----- --- ------ ----- --<br>----- ----- ---------- --- --- ------ ------ ---- -- ------<br>------- --- ------ ----- --- ---- ------- -- ---- --- --<br>------- ------,166855,166840,166147,166141,166163,166881,,2,time
screen,html.Screen,2_1_1_1_3,2022-05-11T13:14:34.538Z,,,,,,,,,,,,,,,,,54,,,,,,,,,,,,,,458,,response,,,,100,,,,,,,Space,keypress(Space),,,,,,,,-- --- ---- the ------ ----- ------- ---- -- --- ------- --<br>------- ---------- ------ -- ----- -- ----- -- ---- ------<br>--- ----- --- --- ------ -------- ----- --- ------ ----- --<br>----- ----- ---------- --- --- ------ ------ ---- -- ------<br>------- --- ------ ----- --- ---- ------- -- ---- --- --<br>------- ------,167336,167321,166863,166856,166881,167356,,3,the
screen,html.Screen,2_1_1_1_4,2022-05-11T13:14:34.937Z,,,,,,,,,,,,,,,,,54,,,,,,,,,,,,,,384,,response,,,,100,,,,,,,Space,keypress(Space),,,,,,,,-- --- ---- --- French ----- ------- ---- -- --- ------- --<br>------- ---------- ------ -- ----- -- ----- -- ---- ------<br>--- ----- --- --- ------ -------- ----- --- ------ ----- --<br>----- ----- ---------- --- --- ------ ------ ---- -- ------<br>------- --- ------ ----- --- ---- ------- -- ---- --- --<br>------- ------,167734,167722,167338,167336,167356,167756,,4,French
screen,html.Screen,2_1_1_1_5,2022-05-11T13:14:35.352Z,,,,,,,,,,,,,,,,,54,,,,,,,,,,,,,,398,,response,,,,100,,,,,,,Space,keypress(Space),,,,,,,,-- --- ---- --- ------ crown ------- ---- -- --- ------- --<br>------- ---------- ------ -- ----- -- ----- -- ---- ------<br>--- ----- --- --- ------ -------- ----- --- ------ ----- --<br>----- ----- ---------- --- --- ------ ------ ---- -- ------<br>------- --- ------ ----- --- ---- ------- -- ---- --- --<br>------- ------,168149,168136,167738,167735,167756,168172,,5,crown
screen,html.Screen,2_1_1_1_6,2022-05-11T13:14:35.855Z,,,,,,,,,,,,,,,,,54,,,,,,,,,,,,,,484,,response,,,,100,,,,,,,Space,keypress(Space),,,,,,,,-- --- ---- --- ------ ----- secured ---- -- --- ------- --<br>------- ---------- ------ -- ----- -- ----- -- ---- ------<br>--- ----- --- --- ------ -------- ----- --- ------ ----- --<br>----- ----- ---------- --- --- ------ ------ ---- -- ------<br>------- --- ------ ----- --- ---- ------- -- ---- --- --<br>------- ------,168653,168639,168155,168150,168172,168681,,6,secured
screen,html.Screen,2_1_1_1_7,2022-05-11T13:14:36.269Z,,,,,,,,,,,,,,,,,54,,,,,,,,,,,,,,390,,response,,,,100,,,,,,,Space,keypress(Space),,,,,,,,-- --- ---- --- ------ ----- ------- much -- --- ------- --<br>------- ---------- ------ -- ----- -- ----- -- ---- ------<br>--- ----- --- --- ------ -------- ----- --- ------ ----- --<br>----- ----- ---------- --- --- ------ ------ ---- -- ------<br>------- --- ------ ----- --- ---- ------- -- ---- --- --<br>------- ------,169066,169053,168663,168653,168681,169089,,7,much
screen,html.Screen,2_1_1_1_8,2022-05-11T13:14:36.698Z,,,,,,,,,,,,,,,,,54,,,,,,,,,,,,,,408,,response,,,,100,,,,,,,Space,keypress(Space),,,,,,,,-- --- ---- --- ------ ----- ------- ---- of --- ------- --<br>------- ---------- ------ -- ----- -- ----- -- ---- ------<br>--- ----- --- --- ------ -------- ----- --- ------ ----- --<br>----- ----- ---------- --- --- ------ ------ ---- -- ------<br>------- --- ------ ----- --- ---- ------- -- ---- --- --<br>------- ------,169495,169480,169072,169066,169089,169522,,8,of
screen,html.Screen,2_1_1_1_9,2022-05-11T13:14:37.067Z,,,,,,,,,,,,,,,,,54,,,,,,,,,,,,,,345,,response,,,,100,,,,,,,Space,keypress(Space),,,,,,,,-- --- ---- --- ------ ----- ------- ---- -- its ------- --<br>------- ---------- ------ -- ----- -- ----- -- ---- ------<br>--- ----- --- --- ------ -------- ----- --- ------ ----- --<br>----- ----- ---------- --- --- ------ ------ ---- -- ------<br>------- --- ------ ----- --- ---- ------- -- ---- --- --<br>------- ------,169864,169850,169505,169495,169522,169888,,9,its
screen,html.Screen,2_1_1_1_10,2022-05-11T13:14:37.683Z,,,,,,,,,,,,,,,,,54,,,,,,,,,,,,,,597,,response,,,,100,,,,,,,Space,keypress(Space),,,,,,,,-- --- ---- --- ------ ----- ------- ---- -- --- revenue --<br>------- ---------- ------ -- ----- -- ----- -- ---- ------<br>--- ----- --- --- ------ -------- ----- --- ------ ----- --<br>----- ----- ---------- --- --- ------ ------ ---- -- ------<br>------- --- ------ ----- --- ---- ------- -- ---- --- --<br>------- ------,170480,170469,169872,169865,169888,170506,,10,revenue
screen,html.Screen,2_1_1_1_11,2022-05-11T13:14:38.145Z,,,,,,,,,,,,,,,,,54,,,,,,,,,,,,,,437.0000000000291,,response,,,,100,,,,,,,Space,keypress(Space),,,,,,,,-- --- ---- --- ------ ----- ------- ---- -- --- ------- by<br>------- ---------- ------ -- ----- -- ----- -- ---- ------<br>--- ----- --- --- ------ -------- ----- --- ------ ----- --<br>----- ----- ---------- --- --- ------ ------ ---- -- ------<br>------- --- ------ ----- --- ---- ------- -- ---- --- --<br>------- ------,170942,170926.00000000003,170489,170480,170506,170964,,11,by
screen,html.Screen,2_1_1_1_12,2022-05-11T13:14:38.782Z,,,,,,,,,,,,,,,,,54,,,,,,,,,,,,,,617,,response,,,,100,,,,,,,Space,keypress(Space),,,,,,,,-- --- ---- --- ------ ----- ------- ---- -- --- ------- --<br>issuing ---------- ------ -- ----- -- ----- -- ---- ------<br>--- ----- --- --- ------ -------- ----- --- ------ ----- --<br>----- ----- ---------- --- --- ------ ------ ---- -- ------<br>------- --- ------ ----- --- ---- ------- -- ---- --- --<br>------- ------,171580,171564,170947,170942,170964,171606,,12,issuing
screen,html.Screen,2_1_1_1_13,2022-05-11T13:14:39.465Z,,,,,,,,,,,,,,,,,54,,,,,,,,,,,,,,659,,response,,,,100,,,,,,,Space,keypress(Space),,,,,,,,-- --- ---- --- ------ ----- ------- ---- -- --- ------- --<br>------- government ------ -- ----- -- ----- -- ---- ------<br>--- ----- --- --- ------ -------- ----- --- ------ ----- --<br>----- ----- ---------- --- --- ------ ------ ---- -- ------<br>------- --- ------ ----- --- ---- ------- -- ---- --- --<br>------- ------,172262,172248,171589,171580,171606,172289,,13,government
screen,html.Screen,2_1_1_1_14,2022-05-11T13:14:40.375Z,,,,,,,,,,,,,,,,,54,,,,,,,,,,,,,,885.0000000000291,,response,,,,100,,,,,,,Space,keypress(Space),,,,,,,,-- --- ---- --- ------ ----- ------- ---- -- --- ------- --<br>------- ---------- bonds. -- ----- -- ----- -- ---- ------<br>--- ----- --- --- ------ -------- ----- --- ------ ----- --<br>----- ----- ---------- --- --- ------ ------ ---- -- ------<br>------- --- ------ ----- --- ---- ------- -- ---- --- --<br>------- ------,173173,173158.00000000003,172273,172262,172289,173192,,14,bonds.
screen,html.Screen,2_1_1_1_15,2022-05-11T13:14:41.656Z,,,,,,,,,,,,,,,,,54,,,,,,,,,,,,,,1262.000000000029,,response,,,,100,,,,,,,Space,keypress(Space),,,,,,,,-- --- ---- --- ------ ----- ------- ---- -- --- ------- --<br>------- ---------- ------ In ----- -- ----- -- ---- ------<br>--- ----- --- --- ------ -------- ----- --- ------ ----- --<br>----- ----- ---------- --- --- ------ ------ ---- -- ------<br>------- --- ------ ----- --- ---- ------- -- ---- --- --<br>------- ------,174454,174438.00000000003,173176,173173,173192,174476,,15,In
screen,html.Screen,2_1_1_1_16,2022-05-11T13:14:42.612Z,,,,,,,,,,,,,,,,,54,,,,,,,,,,,,,,936,,response,,,,100,,,,,,,Space,keypress(Space),,,,,,,,"-- --- ---- --- ------ ----- ------- ---- -- --- ------- --<br>------- ---------- ------ -- 1727, -- ----- -- ---- ------<br>--- ----- --- --- ------ -------- ----- --- ------ ----- --<br>----- ----- ---------- --- --- ------ ------ ---- -- ------<br>------- --- ------ ----- --- ---- ------- -- ---- --- --<br>------- ------",175409,175395,174459,174454,174476,175431,,16,"1727,"
screen,html.Screen,2_1_1_1_17,2022-05-11T13:14:43.123Z,,,,,,,,,,,,,,,,,54,,,,,,,,,,,,,,493,,response,,,,100,,,,,,,Space,keypress(Space),,,,,,,,-- --- ---- --- ------ ----- ------- ---- -- --- ------- --<br>------- ---------- ------ -- ----- in ----- -- ---- ------<br>--- ----- --- --- ------ -------- ----- --- ------ ----- --<br>----- ----- ---------- --- --- ------ ------ ---- -- ------<br>------- --- ------ ----- --- ---- ------- -- ---- --- --<br>------- ------,175921,175906,175413,175410,175431,175947,,17,in
screen,html.Screen,2_1_1_1_18,2022-05-11T13:14:43.626Z,,,,,,,,,,,,,,,,,54,,,,,,,,,,,,,,479,,response,,,,100,,,,,,,Space,keypress(Space),,,,,,,,-- --- ---- --- ------ ----- ------- ---- -- --- ------- --<br>------- ---------- ------ -- ----- -- order -- ---- ------<br>--- ----- --- --- ------ -------- ----- --- ------ ----- --<br>----- ----- ---------- --- --- ------ ------ ---- -- ------<br>------- --- ------ ----- --- ---- ------- -- ---- --- --<br>------- ------,176424,176410,175931,175921,175947,176447,,18,order
screen,html.Screen,2_1_1_1_19,2022-05-11T13:14:44.068Z,,,,,,,,,,,,,,,,,54,,,,,,,,,,,,,,420,,response,,,,100,,,,,,,Space,keypress(Space),,,,,,,,-- --- ---- --- ------ ----- ------- ---- -- --- ------- --<br>------- ---------- ------ -- ----- -- ----- to ---- ------<br>--- ----- --- --- ------ -------- ----- --- ------ ----- --<br>----- ----- ---------- --- --- ------ ------ ---- -- ------<br>------- --- ------ ----- --- ---- ------- -- ---- --- --<br>------- ------,176865,176850,176430,176424,176447,176889,,19,to
screen,html.Screen,2_1_1_1_20,2022-05-11T13:14:44.456Z,,,,,,,,,,,,,,,,,54,,,,,,,,,,,,,,367,,response,,,,100,,,,,,,Space,keypress(Space),,,,,,,,-- --- ---- --- ------ ----- ------- ---- -- --- ------- --<br>------- ---------- ------ -- ----- -- ----- -- save ------<br>--- ----- --- --- ------ -------- ----- --- ------ ----- --<br>----- ----- ---------- --- --- ------ ------ ---- -- ------<br>------- --- ------ ----- --- ---- ------- -- ---- --- --<br>------- ------,177253,177239,176872,176866,176889,177281,,20,save
screen,html.Screen,2_1_1_1_21,2022-05-11T13:14:44.870Z,,,,,,,,,,,,,,,,,54,,,,,,,,,,,,,,391,,response,,,,100,,,,,,,Space,keypress(Space),,,,,,,,"-- --- ---- --- ------ ----- ------- ---- -- --- ------- --<br>------- ---------- ------ -- ----- -- ----- -- ---- money,<br>--- ----- --- --- ------ -------- ----- --- ------ ----- --<br>----- ----- ---------- --- --- ------ ------ ---- -- ------<br>------- --- ------ ----- --- ---- ------- -- ---- --- --<br>------- ------",177668,177654,177263,177254,177281,177689,,21,"money,"
screen,html.Screen,2_1_1_1_22,2022-05-11T13:14:45.315Z,,,,,,,,,,,,,,,,,54,,,,,,,,,,,,,,427,,response,,,,100,,,,,,,Space,keypress(Space),,,,,,,,-- --- ---- --- ------ ----- ------- ---- -- --- ------- --<br>------- ---------- ------ -- ----- -- ----- -- ---- ------<br>the ----- --- --- ------ -------- ----- --- ------ ----- --<br>----- ----- ---------- --- --- ------ ------ ---- -- ------<br>------- --- ------ ----- --- ---- ------- -- ---- --- --<br>------- ------,178112,178099,177672,177668,177689,178139,,22,the
screen,html.Screen,2_1_1_1_23,2022-05-11T13:14:45.650Z,,,,,,,,,,,,,,,,,54,,,,,,,,,,,,,,312,,response,,,,100,,,,,,,Space,keypress(Space),,,,,,,,-- --- ---- --- ------ ----- ------- ---- -- --- ------- --<br>------- ---------- ------ -- ----- -- ----- -- ---- ------<br>--- state --- --- ------ -------- ----- --- ------ ----- --<br>----- ----- ---------- --- --- ------ ------ ---- -- ------<br>------- --- ------ ----- --- ---- ------- -- ---- --- --<br>------- ------,178447,178434,178122,178113,178139,178472,,23,state
screen,html.Screen,2_1_1_1_24,2022-05-11T13:14:45.970Z,,,,,,,,,,,,,,,,,54,,,,,,,,,,,,,,298,,response,,,,100,,,,,,,Space,keypress(Space),,,,,,,,-- --- ---- --- ------ ----- ------- ---- -- --- ------- --<br>------- ---------- ------ -- ----- -- ----- -- ---- ------<br>--- ----- cut --- ------ -------- ----- --- ------ ----- --<br>----- ----- ---------- --- --- ------ ------ ---- -- ------<br>------- --- ------ ----- --- ---- ------- -- ---- --- --<br>------- ------,178767,178754,178456,178447,178472,178789,,24,cut
screen,html.Screen,2_1_1_1_25,2022-05-11T13:14:46.336Z,,,,,,,,,,,,,,,,,54,,,,,,,,,,,,,,350,,response,,,,100,,,,,,,Space,keypress(Space),,,,,,,,-- --- ---- --- ------ ----- ------- ---- -- --- ------- --<br>------- ---------- ------ -- ----- -- ----- -- ---- ------<br>--- ----- --- the ------ -------- ----- --- ------ ----- --<br>----- ----- ---------- --- --- ------ ------ ---- -- ------<br>------- --- ------ ----- --- ---- ------- -- ---- --- --<br>------- ------,179133,179122,178772,178767,178789,179155,,25,the
screen,html.Screen,2_1_1_1_26,2022-05-11T13:14:46.575Z,,,,,,,,,,,,,,,,,54,,,,,,,,,,,,,,221,,response,,,,100,,,,,,,Space,keypress(Space),,,,,,,,-- --- ---- --- ------ ----- ------- ---- -- --- ------- --<br>------- ---------- ------ -- ----- -- ----- -- ---- ------<br>--- ----- --- --- bonds' -------- ----- --- ------ ----- --<br>----- ----- ---------- --- --- ------ ------ ---- -- ------<br>------- --- ------ ----- --- ---- ------- -- ---- --- --<br>------- ------,179373,179359,179138,179133,179155,179397,,26,bonds'
screen,html.Screen,2_1_1_1_27,2022-05-11T13:14:46.965Z,,,,,,,,,,,,,,,,,54,,,,,,,,,,,,,,367,,response,,,,100,,,,,,,Space,keypress(Space),,,,,,,,-- --- ---- --- ------ ----- ------- ---- -- --- ------- --<br>------- ---------- ------ -- ----- -- ----- -- ---- ------<br>--- ----- --- --- ------ interest ----- --- ------ ----- --<br>----- ----- ---------- --- --- ------ ------ ---- -- ------<br>------- --- ------ ----- --- ---- ------- -- ---- --- --<br>------- ------,179762,179747,179380,179373,179397,179789,,27,interest
screen,html.Screen,2_1_1_1_28,2022-05-11T13:14:47.262Z,,,,,,,,,,,,,,,,,54,,,,,,,,,,,,,,274,,response,,,,100,,,,,,,Space,keypress(Space),,,,,,,,-- --- ---- --- ------ ----- ------- ---- -- --- ------- --<br>------- ---------- ------ -- ----- -- ----- -- ---- ------<br>--- ----- --- --- ------ -------- rate. --- ------ ----- --<br>----- ----- ---------- --- --- ------ ------ ---- -- ------<br>------- --- ------ ----- --- ---- ------- -- ---- --- --<br>------- ------,180060,180046,179772,179762,179789,180081,,28,rate.
screen,html.Screen,2_1_1_1_29,2022-05-11T13:14:47.684Z,,,,,,,,,,,,,,,,,54,,,,,,,,,,,,,,403,,response,,,,100,,,,,,,Space,keypress(Space),,,,,,,,-- --- ---- --- ------ ----- ------- ---- -- --- ------- --<br>------- ---------- ------ -- ----- -- ----- -- ---- ------<br>--- ----- --- --- ------ -------- ----- The ------ ----- --<br>----- ----- ---------- --- --- ------ ------ ---- -- ------<br>------- --- ------ ----- --- ---- ------- -- ---- --- --<br>------- ------,180481,180466,180063,180060,180081,180506,,29,The
screen,html.Screen,2_1_1_1_30,2022-05-11T13:14:48.011Z,,,,,,,,,,,,,,,,,54,,,,,,,,,,,,,,305,,response,,,,100,,,,,,,Space,keypress(Space),,,,,,,,-- --- ---- --- ------ ----- ------- ---- -- --- ------- --<br>------- ---------- ------ -- ----- -- ----- -- ---- ------<br>--- ----- --- --- ------ -------- ----- --- market ----- --<br>----- ----- ---------- --- --- ------ ------ ---- -- ------<br>------- --- ------ ----- --- ---- ------- -- ---- --- --<br>------- ------,180808,180794,180489,180481,180506,180831,,30,market
screen,html.Screen,2_1_1_1_31,2022-05-11T13:14:48.265Z,,,,,,,,,,,,,,,,,54,,,,,,,,,,,,,,235,,response,,,,100,,,,,,,Space,keypress(Space),,,,,,,,-- --- ---- --- ------ ----- ------- ---- -- --- ------- --<br>------- ---------- ------ -- ----- -- ----- -- ---- ------<br>--- ----- --- --- ------ -------- ----- --- ------ value --<br>----- ----- ---------- --- --- ------ ------ ---- -- ------<br>------- --- ------ ----- --- ---- ------- -- ---- --- --<br>------- ------,181062,181048,180813,180809,180831,181089,,31,value
screen,html.Screen,2_1_1_1_32,2022-05-11T13:14:48.603Z,,,,,,,,,,,,,,,,,54,,,,,,,,,,,,,,316,,response,,,,100,,,,,,,Space,keypress(Space),,,,,,,,-- --- ---- --- ------ ----- ------- ---- -- --- ------- --<br>------- ---------- ------ -- ----- -- ----- -- ---- ------<br>--- ----- --- --- ------ -------- ----- --- ------ ----- of<br>----- ----- ---------- --- --- ------ ------ ---- -- ------<br>------- --- ------ ----- --- ---- ------- -- ---- --- --<br>------- ------,181401,181388,181072,181063.00000000003,181089,181422,,32,of
screen,html.Screen,2_1_1_1_33,2022-05-11T13:14:48.953Z,,,,,,,,,,,,,,,,,54,,,,,,,,,,,,,,329,,response,,,,100,,,,,,,Space,keypress(Space),,,,,,,,-- --- ---- --- ------ ----- ------- ---- -- --- ------- --<br>------- ---------- ------ -- ----- -- ----- -- ---- ------<br>--- ----- --- --- ------ -------- ----- --- ------ ----- --<br>these ----- ---------- --- --- ------ ------ ---- -- ------<br>------- --- ------ ----- --- ---- ------- -- ---- --- --<br>------- ------,181751,181734,181405,181401,181422,181772,,33,these
screen,html.Screen,2_1_1_1_34,2022-05-11T13:14:49.282Z,,,,,,,,,,,,,,,,,54,,,,,,,,,,,,,,310,,response,,,,100,,,,,,,Space,keypress(Space),,,,,,,,-- --- ---- --- ------ ----- ------- ---- -- --- ------- --<br>------- ---------- ------ -- ----- -- ----- -- ---- ------<br>--- ----- --- --- ------ -------- ----- --- ------ ----- --<br>----- bonds ---------- --- --- ------ ------ ---- -- ------<br>------- --- ------ ----- --- ---- ------- -- ---- --- --<br>------- ------,182080,182065,181755,181751,181772,182105,,34,bonds
screen,html.Screen,2_1_1_1_35,2022-05-11T13:14:49.681Z,,,,,,,,,,,,,,,,,54,,,,,,,,,,,,,,377,,response,,,,100,,,,,,,Space,keypress(Space),,,,,,,,"-- --- ---- --- ------ ----- ------- ---- -- --- ------- --<br>------- ---------- ------ -- ----- -- ----- -- ---- ------<br>--- ----- --- --- ------ -------- ----- --- ------ ----- --<br>----- ----- plummeted, --- --- ------ ------ ---- -- ------<br>------- --- ------ ----- --- ---- ------- -- ---- --- --<br>------- ------",182478,182466,182089,182080,182105,182506,,35,"plummeted,"
screen,html.Screen,2_1_1_1_36,2022-05-11T13:14:50.102Z,,,,,,,,,,,,,,,,,54,,,,,,,,,,,,,,396,,response,,,,100,,,,,,,Space,keypress(Space),,,,,,,,-- --- ---- --- ------ ----- ------- ---- -- --- ------- --<br>------- ---------- ------ -- ----- -- ----- -- ---- ------<br>--- ----- --- --- ------ -------- ----- --- ------ ----- --<br>----- ----- ---------- and --- ------ ------ ---- -- ------<br>------- --- ------ ----- --- ---- ------- -- ---- --- --<br>------- ------,182899,182885,182489,182478,182506,182922,,36,and
screen,html.Screen,2_1_1_1_37,2022-05-11T13:14:50.373Z,,,,,,,,,,,,,,,,,54,,,,,,,,,,,,,,252,,response,,,,100,,,,,,,Space,keypress(Space),,,,,,,,-- --- ---- --- ------ ----- ------- ---- -- --- ------- --<br>------- ---------- ------ -- ----- -- ----- -- ---- ------<br>--- ----- --- --- ------ -------- ----- --- ------ ----- --<br>----- ----- ---------- --- the ------ ------ ---- -- ------<br>------- --- ------ ----- --- ---- ------- -- ---- --- --<br>------- ------,183170.00000000003,183157,182905,182900,182922,183197,,37,the
screen,html.Screen,2_1_1_1_38,2022-05-11T13:14:50.586Z,,,,,,,,,,,,,,,,,54,,,,,,,,,,,,,,189,,response,,,,100,,,,,,,Space,keypress(Space),,,,,,,,-- --- ---- --- ------ ----- ------- ---- -- --- ------- --<br>------- ---------- ------ -- ----- -- ----- -- ---- ------<br>--- ----- --- --- ------ -------- ----- --- ------ ----- --<br>----- ----- ---------- --- --- market ------ ---- -- ------<br>------- --- ------ ----- --- ---- ------- -- ---- --- --<br>------- ------,183383,183370,183181,183171,183197,183414,,38,market
screen,html.Screen,2_1_1_1_39,2022-05-11T13:14:51.082Z,,,,,,,,,,,,,,,,,54,,,,,,,,,,,,,,467,,response,,,,100,,,,,,,Space,keypress(Space),,,,,,,,-- --- ---- --- ------ ----- ------- ---- -- --- ------- --<br>------- ---------- ------ -- ----- -- ----- -- ---- ------<br>--- ----- --- --- ------ -------- ----- --- ------ ----- --<br>----- ----- ---------- --- --- ------ became ---- -- ------<br>------- --- ------ ----- --- ---- ------- -- ---- --- --<br>------- ------,183879,183864,183397,183384,183414,183905,,39,became
screen,html.Screen,2_1_1_1_40,2022-05-11T13:14:51.459Z,,,,,,,,,,,,,,,,,54,,,,,,,,,,,,,,353,,response,,,,100,,,,,,,Space,keypress(Space),,,,,,,,-- --- ---- --- ------ ----- ------- ---- -- --- ------- --<br>------- ---------- ------ -- ----- -- ----- -- ---- ------<br>--- ----- --- --- ------ -------- ----- --- ------ ----- --<br>----- ----- ---------- --- --- ------ ------ wary -- ------<br>------- --- ------ ----- --- ---- ------- -- ---- --- --<br>------- ------,184256,184242,183889,183879,183905,184281,,40,wary
screen,html.Screen,2_1_1_1_41,2022-05-11T13:14:51.757Z,,,,,,,,,,,,,,,,,54,,,,,,,,,,,,,,276,,response,,,,100,,,,,,,Space,keypress(Space),,,,,,,,-- --- ---- --- ------ ----- ------- ---- -- --- ------- --<br>------- ---------- ------ -- ----- -- ----- -- ---- ------<br>--- ----- --- --- ------ -------- ----- --- ------ ----- --<br>----- ----- ---------- --- --- ------ ------ ---- of ------<br>------- --- ------ ----- --- ---- ------- -- ---- --- --<br>------- ------,184555,184540,184264,184257,184281,184580,,41,of
screen,html.Screen,2_1_1_1_42,2022-05-11T13:14:52.450Z,,,,,,,,,,,,,,,,,54,,,,,,,,,,,,,,669,,response,,,,100,,,,,,,Space,keypress(Space),,,,,,,,-- --- ---- --- ------ ----- ------- ---- -- --- ------- --<br>------- ---------- ------ -- ----- -- ----- -- ---- ------<br>--- ----- --- --- ------ -------- ----- --- ------ ----- --<br>----- ----- ---------- --- --- ------ ------ ---- -- French<br>------- --- ------ ----- --- ---- ------- -- ---- --- --<br>------- ------,185248,185233,184564,184555,184580,185272,,42,French
screen,html.Screen,2_1_1_1_43,2022-05-11T13:14:53.214Z,,,,,,,,,,,,,,,,,54,,,,,,,,,,,,,,744,,response,,,,100,,,,,,,Space,keypress(Space),,,,,,,,-- --- ---- --- ------ ----- ------- ---- -- --- ------- --<br>------- ---------- ------ -- ----- -- ----- -- ---- ------<br>--- ----- --- --- ------ -------- ----- --- ------ ----- --<br>----- ----- ---------- --- --- ------ ------ ---- -- ------<br>credit. --- ------ ----- --- ---- ------- -- ---- --- --<br>------- ------,186012,185999,185255,185248,185272,186039,,43,credit.
screen,html.Screen,2_1_1_1_44,2022-05-11T13:14:53.680Z,,,,,,,,,,,,,,,,,54,,,,,,,,,,,,,,440.0000000000291,,response,,,,100,,,,,,,Space,keypress(Space),,,,,,,,-- --- ---- --- ------ ----- ------- ---- -- --- ------- --<br>------- ---------- ------ -- ----- -- ----- -- ---- ------<br>--- ----- --- --- ------ -------- ----- --- ------ ----- --<br>----- ----- ---------- --- --- ------ ------ ---- -- ------<br>------- The ------ ----- --- ---- ------- -- ---- --- --<br>------- ------,186477,186462.00000000003,186022,186012,186039,186497,,44,The
screen,html.Screen,2_1_1_1_45,2022-05-11T13:14:54.022Z,,,,,,,,,,,,,,,,,54,,,,,,,,,,,,,,324,,response,,,,100,,,,,,,Space,keypress(Space),,,,,,,,-- --- ---- --- ------ ----- ------- ---- -- --- ------- --<br>------- ---------- ------ -- ----- -- ----- -- ---- ------<br>--- ----- --- --- ------ -------- ----- --- ------ ----- --<br>----- ----- ---------- --- --- ------ ------ ---- -- ------<br>------- --- French ----- --- ---- ------- -- ---- --- --<br>------- ------,186819.00000000003,186804,186480,186477,186497,186847,,45,French
screen,html.Screen,2_1_1_1_46,2022-05-11T13:14:54.412Z,,,,,,,,,,,,,,,,,54,,,,,,,,,,,,,,364,,response,,,,100,,,,,,,Space,keypress(Space),,,,,,,,-- --- ---- --- ------ ----- ------- ---- -- --- ------- --<br>------- ---------- ------ -- ----- -- ----- -- ---- ------<br>--- ----- --- --- ------ -------- ----- --- ------ ----- --<br>----- ----- ---------- --- --- ------ ------ ---- -- ------<br>------- --- ------ state --- ---- ------- -- ---- --- --<br>------- ------,187209,187195,186831,186819.00000000003,186847,187231,,46,state
screen,html.Screen,2_1_1_1_47,2022-05-11T13:14:54.833Z,,,,,,,,,,,,,,,,,54,,,,,,,,,,,,,,403,,response,,,,100,,,,,,,Space,keypress(Space),,,,,,,,-- --- ---- --- ------ ----- ------- ---- -- --- ------- --<br>------- ---------- ------ -- ----- -- ----- -- ---- ------<br>--- ----- --- --- ------ -------- ----- --- ------ ----- --<br>----- ----- ---------- --- --- ------ ------ ---- -- ------<br>------- --- ------ ----- was ---- ------- -- ---- --- --<br>------- ------,187631,187616,187213,187209,187231,187655,,47,was
screen,html.Screen,2_1_1_1_48,2022-05-11T13:14:55.283Z,,,,,,,,,,,,,,,,,54,,,,,,,,,,,,,,428,,response,,,,100,,,,,,,Space,keypress(Space),,,,,,,,-- --- ---- --- ------ ----- ------- ---- -- --- ------- --<br>------- ---------- ------ -- ----- -- ----- -- ---- ------<br>--- ----- --- --- ------ -------- ----- --- ------ ----- --<br>----- ----- ---------- --- --- ------ ------ ---- -- ------<br>------- --- ------ ----- --- left ------- -- ---- --- --<br>------- ------,188080,188066,187638,187631,187655,188105,,48,left
screen,html.Screen,2_1_1_1_49,2022-05-11T13:14:55.644Z,,,,,,,,,,,,,,,,,54,,,,,,,,,,,,,,338,,response,,,,100,,,,,,,Space,keypress(Space),,,,,,,,-- --- ---- --- ------ ----- ------- ---- -- --- ------- --<br>------- ---------- ------ -- ----- -- ----- -- ---- ------<br>--- ----- --- --- ------ -------- ----- --- ------ ----- --<br>----- ----- ---------- --- --- ------ ------ ---- -- ------<br>------- --- ------ ----- --- ---- without -- ---- --- --<br>------- ------,188441,188427,188089,188080,188105,188463,,49,without
screen,html.Screen,2_1_1_1_50,2022-05-11T13:14:55.992Z,,,,,,,,,,,,,,,,,54,,,,,,,,,,,,,,327,,response,,,,100,,,,,,,Space,keypress(Space),,,,,,,,-- --- ---- --- ------ ----- ------- ---- -- --- ------- --<br>------- ---------- ------ -- ----- -- ----- -- ---- ------<br>--- ----- --- --- ------ -------- ----- --- ------ ----- --<br>----- ----- ---------- --- --- ------ ------ ---- -- ------<br>------- --- ------ ----- --- ---- ------- an ---- --- --<br>------- ------,188789.00000000003,188774,188447,188442,188463,188814,,50,an
screen,html.Screen,2_1_1_1_51,2022-05-11T13:14:56.370Z,,,,,,,,,,,,,,,,,54,,,,,,,,,,,,,,356,,response,,,,100,,,,,,,Space,keypress(Space),,,,,,,,-- --- ---- --- ------ ----- ------- ---- -- --- ------- --<br>------- ---------- ------ -- ----- -- ----- -- ---- ------<br>--- ----- --- --- ------ -------- ----- --- ------ ----- --<br>----- ----- ---------- --- --- ------ ------ ---- -- ------<br>------- --- ------ ----- --- ---- ------- -- easy --- --<br>------- ------,189167,189153,188797,188789.00000000003,188814,189189,,51,easy
screen,html.Screen,2_1_1_1_52,2022-05-11T13:14:56.787Z,,,,,,,,,,,,,,,,,54,,,,,,,,,,,,,,398,,response,,,,100,,,,,,,Space,keypress(Space),,,,,,,,-- --- ---- --- ------ ----- ------- ---- -- --- ------- --<br>------- ---------- ------ -- ----- -- ----- -- ---- ------<br>--- ----- --- --- ------ -------- ----- --- ------ ----- --<br>----- ----- ---------- --- --- ------ ------ ---- -- ------<br>------- --- ------ ----- --- ---- ------- -- ---- way --<br>------- ------,189584,189570,189172,189167,189189,189606,,52,way
screen,html.Screen,2_1_1_1_53,2022-05-11T13:14:57.280Z,,,,,,,,,,,,,,,,,54,,,,,,,,,,,,,,475.0000000000291,,response,,,,100,,,,,,,Space,keypress(Space),,,,,,,,-- --- ---- --- ------ ----- ------- ---- -- --- ------- --<br>------- ---------- ------ -- ----- -- ----- -- ---- ------<br>--- ----- --- --- ------ -------- ----- --- ------ ----- --<br>----- ----- ---------- --- --- ------ ------ ---- -- ------<br>------- --- ------ ----- --- ---- ------- -- ---- --- of<br>------- ------,190077,190063.00000000003,189588,189585,189606,190097,,53,of
screen,html.Screen,2_1_1_1_54,2022-05-11T13:14:57.815Z,,,,,,,,,,,,,,,,,54,,,,,,,,,,,,,,518,,response,,,,100,,,,,,,Space,keypress(Space),,,,,,,,-- --- ---- --- ------ ----- ------- ---- -- --- ------- --<br>------- ---------- ------ -- ----- -- ----- -- ---- ------<br>--- ----- --- --- ------ -------- ----- --- ------ ----- --<br>----- ----- ---------- --- --- ------ ------ ---- -- ------<br>------- --- ------ ----- --- ---- ------- -- ---- --- --<br>raising ------,190612,190598,190080,190077,190097,190639,,54,raising
screen,html.Screen,2_1_1_1_55,2022-05-11T13:14:59.089Z,,,,,,,,,,,,,,,,,54,,,,,,,,,,,,,,1250,,response,,,,100,,,,,,,Space,keypress(Space),,,,,,,,-- --- ---- --- ------ ----- ------- ---- -- --- ------- --<br>------- ---------- ------ -- ----- -- ----- -- ---- ------<br>--- ----- --- --- ------ -------- ----- --- ------ ----- --<br>----- ----- ---------- --- --- ------ ------ ---- -- ------<br>------- --- ------ ----- --- ---- ------- -- ---- --- --<br>------- money.,191887,191872,190622,190612,190639,191914,,55,money.
Item 100,flow.Loop,2_1_1_1,2022-05-11T13:14:59.090Z,,,,,,,,,,,,,,,,,,,,,,,,,,,,,,,27675,,completion,,,,,E,,,,,,,,,,,silence,,,,,191887,191872,164180,164182.00000000003,164197,191914,,,
Question 1,html.Screen,2_1_1_2,2022-05-11T13:15:02.604Z,,,,,,,,,,,,,,,,,,,,,,,,,,,,true,TRUE,,3494.000000000029,,response,,,,100,E,,,,,,TRUE,click #choice-1,,,,silence,,,,,195402.00000000003,195390.00000000003,191896,191888,191914,195422,,,
Question 2,html.Screen,2_1_1_3,2022-05-11T13:15:05.563Z,,,,,,,,,,,,,,,,,,,,,,,,,,,,true,FALSE,,2944.000000000029,,response,,,,100,E,,,,,,FALSE,click #choice-2,,,,silence,,,,,198361,198349.00000000003,195405,195402.00000000003,195422,198389,,,
Item 100,flow.Sequence,2_1_1,2022-05-11T13:15:05.564Z,,,,,,,,,,,,,,,,,,,,,,,,,,,,,,,44152.00000000003,,completion,,,,,,,,,,,,,,,,,,,,,198361,198349.00000000003,154181,154169,154197,198389,,,
End of Practice,html.Page,2_1_2,2022-05-11T13:15:12.897Z,,,,,,,,,,,,,,,,,,,,,,,,,,,,,,,7305.000000000029,,form submission,,,,,,,,,,,,,,,,,,,,,205694.00000000003,205694.00000000003,198372,198361,198389,205714,,,
Practice,flow.Sequence,2_1,2022-05-11T13:15:12.897Z,,,,,,,,,,,,,,,,,,,,,,,,,,,,,,,106121.00000000003,,completion,,,,,,,,,,,,,,,,,,,,,205694.00000000003,205694.00000000003,99556,99545,99573,205714,,,
Trap_instruction,html.Page,2_2_0,2022-05-11T13:15:17.447Z,,,,,,,,,,,,,,,,,,,,,,,,,,,,,,,4530,,form submission,,,,,,,,,,,,,,,,,,,,,210244,210244,205696,205694.00000000003,205714,210272,,,
trap_trial,html.Screen,2_2_1,2022-05-11T13:15:20.197Z,,,,,,,,,,,,,,,,,,,,,,,,,,,,true,1,,2727,,response,,,,,,,,,,,1,click #choice-1,,,,,,,,,212995,212982,210255,210245,210272,213005,,,
end of trap trial,html.Page,2_2_2,2022-05-11T13:15:21.932Z,,,,,,,,,,,,,,,,,,,,,,,,,,,,,,,1724,,form submission,,,,,,,,,,,,,,,,,,,,,214730.00000000003,214729,213000,212995,213005,214751,,,
Trap 1,flow.Sequence,2_2,2022-05-11T13:15:21.933Z,,,,,,,,,,,,,,,,,,,,,,,,,,,,,,,9015,,completion,,,,,,,,,,,,,,,,,,,,,214730.00000000003,214729,205696,205694.00000000003,205714,214751,,,
Standby,html.Page,2_3_0,2022-05-11T13:15:29.934Z,,,,,,,,,,,,,,,,,,,,,,,,,,,,,,,7996,,timeout,,,,,,,,,,,,,,,,,,,,,222732,222730,214738,214730.00000000003,214751,222747,,,
Holding screen,html.Screen,2_3_1_0_0,2022-05-11T13:15:36.926Z,,,,,,,,,,,,,,,,,,,,,,,,,,,,,,,6992,,timeout,,,,,,,,,,,,,,,,,,,,,229723,229722,222730,222732,222747,229739,,,
screen,html.Screen,2_3_1_0_1_0,2022-05-11T13:15:38.383Z,,,,,,,,,,,,,,,,,51,,,,,,,,,,,,,,1441,,response,,,,13,E,,,,,,Space,keypress(Space),,,,lyrical,,,,American -------- --- --- ---- --- --- ------ -- --------<br>---- --------- --- ------- ------------ ---------- ---------<br>--- ---------- ------- ---------- ------- -- -------- ----<br>---- --- ------ ----- ------ -- ---- --- ----- -- - -------<br>-------- -- --- --- -- ----- ----------- ----- -----------<br>---- --- ---------- --- ---- --- -- ----------,231180,231163,229722,229724.00000000003,229739,231205,,0,American
screen,html.Screen,2_3_1_0_1_1,2022-05-11T13:15:39.438Z,,,,,,,,,,,,,,,,,51,,,,,,,,,,,,,,1029.000000000029,,response,,,,13,E,,,,,,Space,keypress(Space),,,,lyrical,,,,-------- industry --- --- ---- --- --- ------ -- --------<br>---- --------- --- ------- ------------ ---------- ---------<br>--- ---------- ------- ---------- ------- -- -------- ----<br>---- --- ------ ----- ------ -- ---- --- ----- -- - -------<br>-------- -- --- --- -- ----- ----------- ----- -----------<br>---- --- ---------- --- ---- --- -- ----------,232235,232218.00000000003,231189,231180,231205,232255,,1,industry
screen,html.Screen,2_3_1_0_1_2,2022-05-11T13:15:40.740Z,,,,,,,,,,,,,,,,,51,,,,,,,,,,,,,,1282,,response,,,,13,E,,,,,,Space,keypress(Space),,,,lyrical,,,,-------- -------- may --- ---- --- --- ------ -- --------<br>---- --------- --- ------- ------------ ---------- ---------<br>--- ---------- ------- ---------- ------- -- -------- ----<br>---- --- ------ ----- ------ -- ---- --- ----- -- - -------<br>-------- -- --- --- -- ----- ----------- ----- -----------<br>---- --- ---------- --- ---- --- -- ----------,233537,233520,232238,232235,232255,233564,,2,may
screen,html.Screen,2_3_1_0_1_3,2022-05-11T13:15:41.193Z,,,,,,,,,,,,,,,,,51,,,,,,,,,,,,,,428,,response,,,,13,E,,,,,,Space,keypress(Space),,,,lyrical,,,,-------- -------- --- not ---- --- --- ------ -- --------<br>---- --------- --- ------- ------------ ---------- ---------<br>--- ---------- ------- ---------- ------- -- -------- ----<br>---- --- ------ ----- ------ -- ---- --- ----- -- - -------<br>-------- -- --- --- -- ----- ----------- ----- -----------<br>---- --- ---------- --- ---- --- -- ----------,233990,233975,233547,233538,233564,234014,,3,not
screen,html.Screen,2_3_1_0_1_4,2022-05-11T13:15:42.067Z,,,,,,,,,,,,,,,,,51,,,,,,,,,,,,,,852,,response,,,,13,E,,,,,,Space,keypress(Space),,,,lyrical,,,,-------- -------- --- --- know --- --- ------ -- --------<br>---- --------- --- ------- ------------ ---------- ---------<br>--- ---------- ------- ---------- ------- -- -------- ----<br>---- --- ------ ----- ------ -- ---- --- ----- -- - -------<br>-------- -- --- --- -- ----- ----------- ----- -----------<br>---- --- ---------- --- ---- --- -- ----------,234864,234848,233996,233990,234014,234889,,4,know
screen,html.Screen,2_3_1_0_1_5,2022-05-11T13:15:42.419Z,,,,,,,,,,,,,,,,,51,,,,,,,,,,,,,,330,,response,,,,13,E,,,,,,Space,keypress(Space),,,,lyrical,,,,"-------- -------- --- --- ---- it, --- ------ -- --------<br>---- --------- --- ------- ------------ ---------- ---------<br>--- ---------- ------- ---------- ------- -- -------- ----<br>---- --- ------ ----- ------ -- ---- --- ----- -- - -------<br>-------- -- --- --- -- ----- ----------- ----- -----------<br>---- --- ---------- --- ---- --- -- ----------",235216,235202,234872,234864,234889,235238,,5,"it,"
screen,html.Screen,2_3_1_0_1_6,2022-05-11T13:15:42.902Z,,,,,,,,,,,,,,,,,51,,,,,,,,,,,,,,466,,response,,,,13,E,,,,,,Space,keypress(Space),,,,lyrical,,,,-------- -------- --- --- ---- --- but ------ -- --------<br>---- --------- --- ------- ------------ ---------- ---------<br>--- ---------- ------- ---------- ------- -- -------- ----<br>---- --- ------ ----- ------ -- ---- --- ----- -- - -------<br>-------- -- --- --- -- ----- ----------- ----- -----------<br>---- --- ---------- --- ---- --- -- ----------,235699,235687,235221,235216,235238,235721,,6,but
screen,html.Screen,2_3_1_0_1_7,2022-05-11T13:15:43.222Z,,,,,,,,,,,,,,,,,51,,,,,,,,,,,,,,299.0000000000291,,response,,,,13,E,,,,,,Space,keypress(Space),,,,lyrical,,,,-------- -------- --- --- ---- --- --- debate -- --------<br>---- --------- --- ------- ------------ ---------- ---------<br>--- ---------- ------- ---------- ------- -- -------- ----<br>---- --- ------ ----- ------ -- ---- --- ----- -- - -------<br>-------- -- --- --- -- ----- ----------- ----- -----------<br>---- --- ---------- --- ---- --- -- ----------,236019,236004.00000000003,235705,235699,235721,236047,,7,debate
screen,html.Screen,2_3_1_0_1_8,2022-05-11T13:15:43.554Z,,,,,,,,,,,,,,,,,51,,,,,,,,,,,,,,306,,response,,,,13,E,,,,,,Space,keypress(Space),,,,lyrical,,,,-------- -------- --- --- ---- --- --- ------ in --------<br>---- --------- --- ------- ------------ ---------- ---------<br>--- ---------- ------- ---------- ------- -- -------- ----<br>---- --- ------ ----- ------ -- ---- --- ----- -- - -------<br>-------- -- --- --- -- ----- ----------- ----- -----------<br>---- --- ---------- --- ---- --- -- ----------,236351,236336,236030,236019,236047,236372,,8,in
screen,html.Screen,2_3_1_0_1_9,2022-05-11T13:15:43.970Z,,,,,,,,,,,,,,,,,51,,,,,,,,,,,,,,398,,response,,,,13,E,,,,,,Space,keypress(Space),,,,lyrical,,,,-------- -------- --- --- ---- --- --- ------ -- Congress<br>---- --------- --- ------- ------------ ---------- ---------<br>--- ---------- ------- ---------- ------- -- -------- ----<br>---- --- ------ ----- ------ -- ---- --- ----- -- - -------<br>-------- -- --- --- -- ----- ----------- ----- -----------<br>---- --- ---------- --- ---- --- -- ----------,236767,236752,236354,236352,236372,236788,,9,Congress
screen,html.Screen,2_3_1_0_1_10,2022-05-11T13:15:44.492Z,,,,,,,,,,,,,,,,,51,,,,,,,,,,,,,,503,,response,,,,13,E,,,,,,Space,keypress(Space),,,,lyrical,,,,-------- -------- --- --- ---- --- --- ------ -- --------<br>over --------- --- ------- ------------ ---------- ---------<br>--- ---------- ------- ---------- ------- -- -------- ----<br>---- --- ------ ----- ------ -- ---- --- ----- -- - -------<br>-------- -- --- --- -- ----- ----------- ----- -----------<br>---- --- ---------- --- ---- --- -- ----------,237289.00000000003,237274,236771,236768,236788,237314,,10,over
screen,html.Screen,2_3_1_0_1_11,2022-05-11T13:15:44.836Z,,,,,,,,,,,,,,,,,51,,,,,,,,,,,,,,323,,response,,,,13,E,,,,,,Space,keypress(Space),,,,lyrical,,,,-------- -------- --- --- ---- --- --- ------ -- --------<br>---- reforming --- ------- ------------ ---------- ---------<br>--- ---------- ------- ---------- ------- -- -------- ----<br>---- --- ------ ----- ------ -- ---- --- ----- -- - -------<br>-------- -- --- --- -- ----- ----------- ----- -----------<br>---- --- ---------- --- ---- --- -- ----------,237633,237619,237296,237290,237314,237655,,11,reforming
screen,html.Screen,2_3_1_0_1_12,2022-05-11T13:15:45.195Z,,,,,,,,,,,,,,,,,51,,,,,,,,,,,,,,343,,response,,,,13,E,,,,,,Space,keypress(Space),,,,lyrical,,,,-------- -------- --- --- ---- --- --- ------ -- --------<br>---- --------- the ------- ------------ ---------- ---------<br>--- ---------- ------- ---------- ------- -- -------- ----<br>---- --- ------ ----- ------ -- ---- --- ----- -- - -------<br>-------- -- --- --- -- ----- ----------- ----- -----------<br>---- --- ---------- --- ---- --- -- ----------,237992.00000000003,237981,237638,237634,237655,238014,,12,the
screen,html.Screen,2_3_1_0_1_13,2022-05-11T13:15:45.687Z,,,,,,,,,,,,,,,,,51,,,,,,,,,,,,,,472.0000000000291,,response,,,,13,E,,,,,,Space,keypress(Space),,,,lyrical,,,,-------- -------- --- --- ---- --- --- ------ -- --------<br>---- --------- --- federal ------------ ---------- ---------<br>--- ---------- ------- ---------- ------- -- -------- ----<br>---- --- ------ ----- ------ -- ---- --- ----- -- - -------<br>-------- -- --- --- -- ----- ----------- ----- -----------<br>---- --- ---------- --- ---- --- -- ----------,238484,238468.00000000003,237996,237992.00000000003,238014,238505,,13,federal
screen,html.Screen,2_3_1_0_1_14,2022-05-11T13:15:46.061Z,,,,,,,,,,,,,,,,,51,,,,,,,,,,,,,,356,,response,,,,13,E,,,,,,Space,keypress(Space),,,,lyrical,,,,-------- -------- --- --- ---- --- --- ------ -- --------<br>---- --------- --- ------- government's ---------- ---------<br>--- ---------- ------- ---------- ------- -- -------- ----<br>---- --- ------ ----- ------ -- ---- --- ----- -- - -------<br>-------- -- --- --- -- ----- ----------- ----- -----------<br>---- --- ---------- --- ---- --- -- ----------,238858,238844,238488,238484,238505,238880,,14,government's
screen,html.Screen,2_3_1_0_1_15,2022-05-11T13:15:46.589Z,,,,,,,,,,,,,,,,,51,,,,,,,,,,,,,,509,,response,,,,13,E,,,,,,Space,keypress(Space),,,,lyrical,,,,-------- -------- --- --- ---- --- --- ------ -- --------<br>---- --------- --- ------- ------------ regulatory ---------<br>--- ---------- ------- ---------- ------- -- -------- ----<br>---- --- ------ ----- ------ -- ---- --- ----- -- - -------<br>-------- -- --- --- -- ----- ----------- ----- -----------<br>---- --- ---------- --- ---- --- -- ----------,239386,239372,238863,238859,238880,239414,,15,regulatory
screen,html.Screen,2_3_1_0_1_16,2022-05-11T13:15:47.227Z,,,,,,,,,,,,,,,,,51,,,,,,,,,,,,,,616,,response,,,,13,E,,,,,,Space,keypress(Space),,,,lyrical,,,,-------- -------- --- --- ---- --- --- ------ -- --------<br>---- --------- --- ------- ------------ ---------- apparatus<br>--- ---------- ------- ---------- ------- -- -------- ----<br>---- --- ------ ----- ------ -- ---- --- ----- -- - -------<br>-------- -- --- --- -- ----- ----------- ----- -----------<br>---- --- ---------- --- ---- --- -- ----------,240024,240012,239396,239387,239414,240047,,16,apparatus
screen,html.Screen,2_3_1_0_1_17,2022-05-11T13:15:47.917Z,,,,,,,,,,,,,,,,,51,,,,,,,,,,,,,,671,,response,,,,13,E,,,,,,Space,keypress(Space),,,,lyrical,,,,-------- -------- --- --- ---- --- --- ------ -- --------<br>---- --------- --- ------- ------------ ---------- ---------<br>may ---------- ------- ---------- ------- -- -------- ----<br>---- --- ------ ----- ------ -- ---- --- ----- -- - -------<br>-------- -- --- --- -- ----- ----------- ----- -----------<br>---- --- ---------- --- ---- --- -- ----------,240714,240701,240030,240024,240047,240739,,17,may
screen,html.Screen,2_3_1_0_1_18,2022-05-11T13:15:48.612Z,,,,,,,,,,,,,,,,,51,,,,,,,,,,,,,,676,,response,,,,13,E,,,,,,Space,keypress(Space),,,,lyrical,,,,-------- -------- --- --- ---- --- --- ------ -- --------<br>---- --------- --- ------- ------------ ---------- ---------<br>--- profoundly ------- ---------- ------- -- -------- ----<br>---- --- ------ ----- ------ -- ---- --- ----- -- - -------<br>-------- -- --- --- -- ----- ----------- ----- -----------<br>---- --- ---------- --- ---- --- -- ----------,241409,241397,240721,240715,240739,241430,,18,profoundly
screen,html.Screen,2_3_1_0_1_19,2022-05-11T13:15:49.341Z,,,,,,,,,,,,,,,,,51,,,,,,,,,,,,,,710.0000000000291,,response,,,,13,E,,,,,,Space,keypress(Space),,,,lyrical,,,,-------- -------- --- --- ---- --- --- ------ -- --------<br>---- --------- --- ------- ------------ ---------- ---------<br>--- ---------- improve ---------- ------- -- -------- ----<br>---- --- ------ ----- ------ -- ---- --- ----- -- - -------<br>-------- -- --- --- -- ----- ----------- ----- -----------<br>---- --- ---------- --- ---- --- -- ----------,242138,242123.00000000003,241413,241409,241430,242163,,19,improve
screen,html.Screen,2_3_1_0_1_20,2022-05-11T13:15:49.912Z,,,,,,,,,,,,,,,,,51,,,,,,,,,,,,,,548,,response,,,,13,E,,,,,,Space,keypress(Space),,,,lyrical,,,,-------- -------- --- --- ---- --- --- ------ -- --------<br>---- --------- --- ------- ------------ ---------- ---------<br>--- ---------- ------- companies' ------- -- -------- ----<br>---- --- ------ ----- ------ -- ---- --- ----- -- - -------<br>-------- -- --- --- -- ----- ----------- ----- -----------<br>---- --- ---------- --- ---- --- -- ----------,242709,242695,242147,242139,242163,242734,,20,companies'
screen,html.Screen,2_3_1_0_1_21,2022-05-11T13:15:50.739Z,,,,,,,,,,,,,,,,,51,,,,,,,,,,,,,,803.0000000000291,,response,,,,13,E,,,,,,Space,keypress(Space),,,,lyrical,,,,-------- -------- --- --- ---- --- --- ------ -- --------<br>---- --------- --- ------- ------------ ---------- ---------<br>--- ---------- ------- ---------- ability -- -------- ----<br>---- --- ------ ----- ------ -- ---- --- ----- -- - -------<br>-------- -- --- --- -- ----- ----------- ----- -----------<br>---- --- ---------- --- ---- --- -- ----------,243536,243521.00000000003,242718,242709,242734,243565,,21,ability
screen,html.Screen,2_3_1_0_1_22,2022-05-11T13:15:51.136Z,,,,,,,,,,,,,,,,,51,,,,,,,,,,,,,,371,,response,,,,13,E,,,,,,Space,keypress(Space),,,,lyrical,,,,-------- -------- --- --- ---- --- --- ------ -- --------<br>---- --------- --- ------- ------------ ---------- ---------<br>--- ---------- ------- ---------- ------- to -------- ----<br>---- --- ------ ----- ------ -- ---- --- ----- -- - -------<br>-------- -- --- --- -- ----- ----------- ----- -----------<br>---- --- ---------- --- ---- --- -- ----------,243933,243918,243547,243536,243565,243955,,22,to
screen,html.Screen,2_3_1_0_1_23,2022-05-11T13:15:52.855Z,,,,,,,,,,,,,,,,,51,,,,,,,,,,,,,,1700,,response,,,,13,E,,,,,,Space,keypress(Space),,,,lyrical,,,,-------- -------- --- --- ---- --- --- ------ -- --------<br>---- --------- --- ------- ------------ ---------- ---------<br>--- ---------- ------- ---------- ------- -- survive. ----<br>---- --- ------ ----- ------ -- ---- --- ----- -- - -------<br>-------- -- --- --- -- ----- ----------- ----- -----------<br>---- --- ---------- --- ---- --- -- ----------,245652.00000000003,245638,243938,243933,243955,245680,,23,survive.
screen,html.Screen,2_3_1_0_1_24,2022-05-11T13:15:53.277Z,,,,,,,,,,,,,,,,,51,,,,,,,,,,,,,,395,,response,,,,13,E,,,,,,Space,keypress(Space),,,,lyrical,,,,-------- -------- --- --- ---- --- --- ------ -- --------<br>---- --------- --- ------- ------------ ---------- ---------<br>--- ---------- ------- ---------- ------- -- -------- This<br>---- --- ------ ----- ------ -- ---- --- ----- -- - -------<br>-------- -- --- --- -- ----- ----------- ----- -----------<br>---- --- ---------- --- ---- --- -- ----------,246074,246058,245663,245652.00000000003,245680,246098,,24,This
screen,html.Screen,2_3_1_0_1_25,2022-05-11T13:15:54.240Z,,,,,,,,,,,,,,,,,51,,,,,,,,,,,,,,941.0000000000291,,response,,,,13,E,,,,,,Space,keypress(Space),,,,lyrical,,,,-------- -------- --- --- ---- --- --- ------ -- --------<br>---- --------- --- ------- ------------ ---------- ---------<br>--- ---------- ------- ---------- ------- -- -------- ----<br>week --- ------ ----- ------ -- ---- --- ----- -- - -------<br>-------- -- --- --- -- ----- ----------- ----- -----------<br>---- --- ---------- --- ---- --- -- ----------,247038,247021.00000000003,246080,246074,246098,247064,,25,week
screen,html.Screen,2_3_1_0_1_26,2022-05-11T13:15:54.775Z,,,,,,,,,,,,,,,,,51,,,,,,,,,,,,,,511,,response,,,,13,E,,,,,,Space,keypress(Space),,,,lyrical,,,,-------- -------- --- --- ---- --- --- ------ -- --------<br>---- --------- --- ------- ------------ ---------- ---------<br>--- ---------- ------- ---------- ------- -- -------- ----<br>---- the ------ ----- ------ -- ---- --- ----- -- - -------<br>-------- -- --- --- -- ----- ----------- ----- -----------<br>---- --- ---------- --- ---- --- -- ----------,247572,247558,247047,247038,247064,247597,,26,the
screen,html.Screen,2_3_1_0_1_27,2022-05-11T13:15:55.129Z,,,,,,,,,,,,,,,,,51,,,,,,,,,,,,,,332,,response,,,,13,E,,,,,,Space,keypress(Space),,,,lyrical,,,,-------- -------- --- --- ---- --- --- ------ -- --------<br>---- --------- --- ------- ------------ ---------- ---------<br>--- ---------- ------- ---------- ------- -- -------- ----<br>---- --- Senate ----- ------ -- ---- --- ----- -- - -------<br>-------- -- --- --- -- ----- ----------- ----- -----------<br>---- --- ---------- --- ---- --- -- ----------,247926.00000000003,247912,247580,247572,247597,247947,,27,Senate
screen,html.Screen,2_3_1_0_1_28,2022-05-11T13:15:55.452Z,,,,,,,,,,,,,,,,,51,,,,,,,,,,,,,,306,,response,,,,13,E,,,,,,Space,keypress(Space),,,,lyrical,,,,-------- -------- --- --- ---- --- --- ------ -- --------<br>---- --------- --- ------- ------------ ---------- ---------<br>--- ---------- ------- ---------- ------- -- -------- ----<br>---- --- ------ seems ------ -- ---- --- ----- -- - -------<br>-------- -- --- --- -- ----- ----------- ----- -----------<br>---- --- ---------- --- ---- --- -- ----------,248249,248235,247929,247926.00000000003,247947,248272,,28,seems
screen,html.Screen,2_3_1_0_1_29,2022-05-11T13:15:55.755Z,,,,,,,,,,,,,,,,,51,,,,,,,,,,,,,,284.0000000000291,,response,,,,13,E,,,,,,Space,keypress(Space),,,,lyrical,,,,-------- -------- --- --- ---- --- --- ------ -- --------<br>---- --------- --- ------- ------------ ---------- ---------<br>--- ---------- ------- ---------- ------- -- -------- ----<br>---- --- ------ ----- poised -- ---- --- ----- -- - -------<br>-------- -- --- --- -- ----- ----------- ----- -----------<br>---- --- ---------- --- ---- --- -- ----------,248552,248539.00000000003,248255,248250,248272,248580,,29,poised
screen,html.Screen,2_3_1_0_1_30,2022-05-11T13:15:56.123Z,,,,,,,,,,,,,,,,,51,,,,,,,,,,,,,,341,,response,,,,13,E,,,,,,Space,keypress(Space),,,,lyrical,,,,-------- -------- --- --- ---- --- --- ------ -- --------<br>---- --------- --- ------- ------------ ---------- ---------<br>--- ---------- ------- ---------- ------- -- -------- ----<br>---- --- ------ ----- ------ to ---- --- ----- -- - -------<br>-------- -- --- --- -- ----- ----------- ----- -----------<br>---- --- ---------- --- ---- --- -- ----------,248920.00000000003,248905,248564,248553,248580,248947,,30,to
screen,html.Screen,2_3_1_0_1_31,2022-05-11T13:15:56.642Z,,,,,,,,,,,,,,,,,51,,,,,,,,,,,,,,495,,response,,,,13,E,,,,,,Space,keypress(Space),,,,lyrical,,,,-------- -------- --- --- ---- --- --- ------ -- --------<br>---- --------- --- ------- ------------ ---------- ---------<br>--- ---------- ------- ---------- ------- -- -------- ----<br>---- --- ------ ----- ------ -- join --- ----- -- - -------<br>-------- -- --- --- -- ----- ----------- ----- -----------<br>---- --- ---------- --- ---- --- -- ----------,249439,249425,248930,248920.00000000003,248947,249463,,31,join
screen,html.Screen,2_3_1_0_1_32,2022-05-11T13:15:57.130Z,,,,,,,,,,,,,,,,,51,,,,,,,,,,,,,,467,,response,,,,13,E,,,,,,Space,keypress(Space),,,,lyrical,,,,-------- -------- --- --- ---- --- --- ------ -- --------<br>---- --------- --- ------- ------------ ---------- ---------<br>--- ---------- ------- ---------- ------- -- -------- ----<br>---- --- ------ ----- ------ -- ---- the ----- -- - -------<br>-------- -- --- --- -- ----- ----------- ----- -----------<br>---- --- ---------- --- ---- --- -- ----------,249927,249913,249446,249439,249463,249955,,32,the
screen,html.Screen,2_3_1_0_1_33,2022-05-11T13:15:57.474Z,,,,,,,,,,,,,,,,,51,,,,,,,,,,,,,,317,,response,,,,13,E,,,,,,Space,keypress(Space),,,,lyrical,,,,-------- -------- --- --- ---- --- --- ------ -- --------<br>---- --------- --- ------- ------------ ---------- ---------<br>--- ---------- ------- ---------- ------- -- -------- ----<br>---- --- ------ ----- ------ -- ---- --- House -- - -------<br>-------- -- --- --- -- ----- ----------- ----- -----------<br>---- --- ---------- --- ---- --- -- ----------,250271.00000000003,250256,249939,249927,249955,250297,,33,House
screen,html.Screen,2_3_1_0_1_34,2022-05-11T13:15:57.856Z,,,,,,,,,,,,,,,,,51,,,,,,,,,,,,,,358,,response,,,,13,E,,,,,,Space,keypress(Space),,,,lyrical,,,,-------- -------- --- --- ---- --- --- ------ -- --------<br>---- --------- --- ------- ------------ ---------- ---------<br>--- ---------- ------- ---------- ------- -- -------- ----<br>---- --- ------ ----- ------ -- ---- --- ----- in - -------<br>-------- -- --- --- -- ----- ----------- ----- -----------<br>---- --- ---------- --- ---- --- -- ----------,250653,250638,250280,250272,250297,250680,,34,in
screen,html.Screen,2_3_1_0_1_35,2022-05-11T13:15:58.071Z,,,,,,,,,,,,,,,,,51,,,,,,,,,,,,,,190,,response,,,,13,E,,,,,,Space,keypress(Space),,,,lyrical,,,,-------- -------- --- --- ---- --- --- ------ -- --------<br>---- --------- --- ------- ------------ ---------- ---------<br>--- ---------- ------- ---------- ------- -- -------- ----<br>---- --- ------ ----- ------ -- ---- --- ----- -- a -------<br>-------- -- --- --- -- ----- ----------- ----- -----------<br>---- --- ---------- --- ---- --- -- ----------,250868,250854,250664,250653,250680,250898,,35,a
screen,html.Screen,2_3_1_0_1_36,2022-05-11T13:15:58.503Z,,,,,,,,,,,,,,,,,51,,,,,,,,,,,,,,405,,response,,,,13,E,,,,,,Space,keypress(Space),,,,lyrical,,,,-------- -------- --- --- ---- --- --- ------ -- --------<br>---- --------- --- ------- ------------ ---------- ---------<br>--- ---------- ------- ---------- ------- -- -------- ----<br>---- --- ------ ----- ------ -- ---- --- ----- -- - massive<br>-------- -- --- --- -- ----- ----------- ----- -----------<br>---- --- ---------- --- ---- --- -- ----------,251300,251285,250880,250868,250898,251322,,36,massive
screen,html.Screen,2_3_1_0_1_37,2022-05-11T13:15:58.923Z,,,,,,,,,,,,,,,,,51,,,,,,,,,,,,,,399,,response,,,,13,E,,,,,,Space,keypress(Space),,,,lyrical,,,,-------- -------- --- --- ---- --- --- ------ -- --------<br>---- --------- --- ------- ------------ ---------- ---------<br>--- ---------- ------- ---------- ------- -- -------- ----<br>---- --- ------ ----- ------ -- ---- --- ----- -- - -------<br>overhaul -- --- --- -- ----- ----------- ----- -----------<br>---- --- ---------- --- ---- --- -- ----------,251720,251704,251305,251300,251322,251746,,37,overhaul
screen,html.Screen,2_3_1_0_1_38,2022-05-11T13:15:59.330Z,,,,,,,,,,,,,,,,,51,,,,,,,,,,,,,,384,,response,,,,13,E,,,,,,Space,keypress(Space),,,,lyrical,,,,-------- -------- --- --- ---- --- --- ------ -- --------<br>---- --------- --- ------- ------------ ---------- ---------<br>--- ---------- ------- ---------- ------- -- -------- ----<br>---- --- ------ ----- ------ -- ---- --- ----- -- - -------<br>-------- of --- --- -- ----- ----------- ----- -----------<br>---- --- ---------- --- ---- --- -- ----------,252127,252114,251730,251721,251746,252147,,38,of
screen,html.Screen,2_3_1_0_1_39,2022-05-11T13:15:59.616Z,,,,,,,,,,,,,,,,,51,,,,,,,,,,,,,,272,,response,,,,13,E,,,,,,Space,keypress(Space),,,,lyrical,,,,-------- -------- --- --- ---- --- --- ------ -- --------<br>---- --------- --- ------- ------------ ---------- ---------<br>--- ---------- ------- ---------- ------- -- -------- ----<br>---- --- ------ ----- ------ -- ---- --- ----- -- - -------<br>-------- -- the --- -- ----- ----------- ----- -----------<br>---- --- ---------- --- ---- --- -- ----------,252413,252401,252129,252127,252147,252438,,39,the
screen,html.Screen,2_3_1_0_1_40,2022-05-11T13:16:00.079Z,,,,,,,,,,,,,,,,,51,,,,,,,,,,,,,,441,,response,,,,13,E,,,,,,Space,keypress(Space),,,,lyrical,,,,-------- -------- --- --- ---- --- --- ------ -- --------<br>---- --------- --- ------- ------------ ---------- ---------<br>--- ---------- ------- ---------- ------- -- -------- ----<br>---- --- ------ ----- ------ -- ---- --- ----- -- - -------<br>-------- -- --- way -- ----- ----------- ----- -----------<br>---- --- ---------- --- ---- --- -- ----------,252876,252863,252422,252414.00000000003,252438,252905,,40,way
screen,html.Screen,2_3_1_0_1_41,2022-05-11T13:16:00.460Z,,,,,,,,,,,,,,,,,51,,,,,,,,,,,,,,353.0000000000291,,response,,,,13,E,,,,,,Space,keypress(Space),,,,lyrical,,,,-------- -------- --- --- ---- --- --- ------ -- --------<br>---- --------- --- ------- ------------ ---------- ---------<br>--- ---------- ------- ---------- ------- -- -------- ----<br>---- --- ------ ----- ------ -- ---- --- ----- -- - -------<br>-------- -- --- --- in ----- ----------- ----- -----------<br>---- --- ---------- --- ---- --- -- ----------,253257,253242.00000000003,252889,252877,252905,253280,,41,in
screen,html.Screen,2_3_1_0_1_42,2022-05-11T13:16:00.863Z,,,,,,,,,,,,,,,,,51,,,,,,,,,,,,,,382,,response,,,,13,E,,,,,,Space,keypress(Space),,,,lyrical,,,,-------- -------- --- --- ---- --- --- ------ -- --------<br>---- --------- --- ------- ------------ ---------- ---------<br>--- ---------- ------- ---------- ------- -- -------- ----<br>---- --- ------ ----- ------ -- ---- --- ----- -- - -------<br>-------- -- --- --- -- which ----------- ----- -----------<br>---- --- ---------- --- ---- --- -- ----------,253660,253645,253263,253257,253280,253689,,42,which
screen,html.Screen,2_3_1_0_1_43,2022-05-11T13:16:01.422Z,,,,,,,,,,,,,,,,,51,,,,,,,,,,,,,,532,,response,,,,13,E,,,,,,Space,keypress(Space),,,,lyrical,,,,-------- -------- --- --- ---- --- --- ------ -- --------<br>---- --------- --- ------- ------------ ---------- ---------<br>--- ---------- ------- ---------- ------- -- -------- ----<br>---- --- ------ ----- ------ -- ---- --- ----- -- - -------<br>-------- -- --- --- -- ----- bureaucrats ----- -----------<br>---- --- ---------- --- ---- --- -- ----------,254219,254204,253672,253661,253689,254247,,43,bureaucrats
screen,html.Screen,2_3_1_0_1_44,2022-05-11T13:16:02.038Z,,,,,,,,,,,,,,,,,51,,,,,,,,,,,,,,589.0000000000291,,response,,,,13,E,,,,,,Space,keypress(Space),,,,lyrical,,,,-------- -------- --- --- ---- --- --- ------ -- --------<br>---- --------- --- ------- ------------ ---------- ---------<br>--- ---------- ------- ---------- ------- -- -------- ----<br>---- --- ------ ----- ------ -- ---- --- ----- -- - -------<br>-------- -- --- --- -- ----- ----------- enact -----------<br>---- --- ---------- --- ---- --- -- ----------,254835,254819.00000000003,254230,254219,254247,254864,,44,enact
screen,html.Screen,2_3_1_0_1_45,2022-05-11T13:16:02.828Z,,,,,,,,,,,,,,,,,51,,,,,,,,,,,,,,764.0000000000291,,response,,,,13,E,,,,,,Space,keypress(Space),,,,lyrical,,,,-------- -------- --- --- ---- --- --- ------ -- --------<br>---- --------- --- ------- ------------ ---------- ---------<br>--- ---------- ------- ---------- ------- -- -------- ----<br>---- --- ------ ----- ------ -- ---- --- ----- -- - -------<br>-------- -- --- --- -- ----- ----------- ----- regulations<br>---- --- ---------- --- ---- --- -- ----------,255625,255611.00000000003,254847,254836,254864,255647,,45,regulations
screen,html.Screen,2_3_1_0_1_46,2022-05-11T13:16:03.599Z,,,,,,,,,,,,,,,,,51,,,,,,,,,,,,,,749.0000000000291,,response,,,,13,E,,,,,,Space,keypress(Space),,,,lyrical,,,,-------- -------- --- --- ---- --- --- ------ -- --------<br>---- --------- --- ------- ------------ ---------- ---------<br>--- ---------- ------- ---------- ------- -- -------- ----<br>---- --- ------ ----- ------ -- ---- --- ----- -- - -------<br>-------- -- --- --- -- ----- ----------- ----- -----------<br>that --- ---------- --- ---- --- -- ----------,256396.00000000003,256379.00000000003,255630,255625,255647,256422,,46,that
screen,html.Screen,2_3_1_0_1_47,2022-05-11T13:16:04.061Z,,,,,,,,,,,,,,,,,51,,,,,,,,,,,,,,438.0000000000291,,response,,,,13,E,,,,,,Space,keypress(Space),,,,lyrical,,,,-------- -------- --- --- ---- --- --- ------ -- --------<br>---- --------- --- ------- ------------ ---------- ---------<br>--- ---------- ------- ---------- ------- -- -------- ----<br>---- --- ------ ----- ------ -- ---- --- ----- -- - -------<br>-------- -- --- --- -- ----- ----------- ----- -----------<br>---- are ---------- --- ---- --- -- ----------,256858,256843.00000000003,256405,256396.00000000003,256422,256880,,47,are
screen,html.Screen,2_3_1_0_1_48,2022-05-11T13:16:04.301Z,,,,,,,,,,,,,,,,,51,,,,,,,,,,,,,,223,,response,,,,13,E,,,,,,Space,keypress(Space),,,,lyrical,,,,-------- -------- --- --- ---- --- --- ------ -- --------<br>---- --------- --- ------- ------------ ---------- ---------<br>--- ---------- ------- ---------- ------- -- -------- ----<br>---- --- ------ ----- ------ -- ---- --- ----- -- - -------<br>-------- -- --- --- -- ----- ----------- ----- -----------<br>---- --- strangling --- ---- --- -- ----------,257098,257086,256863,256858,256880,257121,,48,strangling
screen,html.Screen,2_3_1_0_1_49,2022-05-11T13:16:04.722Z,,,,,,,,,,,,,,,,,51,,,,,,,,,,,,,,400,,response,,,,13,E,,,,,,Space,keypress(Space),,,,lyrical,,,,-------- -------- --- --- ---- --- --- ------ -- --------<br>---- --------- --- ------- ------------ ---------- ---------<br>--- ---------- ------- ---------- ------- -- -------- ----<br>---- --- ------ ----- ------ -- ---- --- ----- -- - -------<br>-------- -- --- --- -- ----- ----------- ----- -----------<br>---- --- ---------- the ---- --- -- ----------,257519,257505,257105,257098,257121,257546,,49,the
screen,html.Screen,2_3_1_0_1_50,2022-05-11T13:16:05.041Z,,,,,,,,,,,,,,,,,51,,,,,,,,,,,,,,292.9999999999709,,response,,,,13,E,,,,,,Space,keypress(Space),,,,lyrical,,,,-------- -------- --- --- ---- --- --- ------ -- --------<br>---- --------- --- ------- ------------ ---------- ---------<br>--- ---------- ------- ---------- ------- -- -------- ----<br>---- --- ------ ----- ------ -- ---- --- ----- -- - -------<br>-------- -- --- --- -- ----- ----------- ----- -----------<br>---- --- ---------- --- life --- -- ----------,257838.00000000003,257822.99999999997,257530,257519,257546,257863,,50,life
screen,html.Screen,2_3_1_0_1_51,2022-05-11T13:16:05.405Z,,,,,,,,,,,,,,,,,51,,,,,,,,,,,,,,341,,response,,,,13,E,,,,,,Space,keypress(Space),,,,lyrical,,,,-------- -------- --- --- ---- --- --- ------ -- --------<br>---- --------- --- ------- ------------ ---------- ---------<br>--- ---------- ------- ---------- ------- -- -------- ----<br>---- --- ------ ----- ------ -- ---- --- ----- -- - -------<br>-------- -- --- --- -- ----- ----------- ----- -----------<br>---- --- ---------- --- ---- out -- ----------,258202,258188,257847,257839,257863,258230,,51,out
screen,html.Screen,2_3_1_0_1_52,2022-05-11T13:16:05.779Z,,,,,,,,,,,,,,,,,51,,,,,,,,,,,,,,349,,response,,,,13,E,,,,,,Space,keypress(Space),,,,lyrical,,,,-------- -------- --- --- ---- --- --- ------ -- --------<br>---- --------- --- ------- ------------ ---------- ---------<br>--- ---------- ------- ---------- ------- -- -------- ----<br>---- --- ------ ----- ------ -- ---- --- ----- -- - -------<br>-------- -- --- --- -- ----- ----------- ----- -----------<br>---- --- ---------- --- ---- --- of ----------,258576.00000000003,258562,258213,258203.00000000003,258230,258596,,52,of
screen,html.Screen,2_3_1_0_1_53,2022-05-11T13:16:06.262Z,,,,,,,,,,,,,,,,,51,,,,,,,,,,,,,,464.9999999999709,,response,,,,13,E,,,,,,Space,keypress(Space),,,,lyrical,,,,-------- -------- --- --- ---- --- --- ------ -- --------<br>---- --------- --- ------- ------------ ---------- ---------<br>--- ---------- ------- ---------- ------- -- -------- ----<br>---- --- ------ ----- ------ -- ---- --- ----- -- - -------<br>-------- -- --- --- -- ----- ----------- ----- -----------<br>---- --- ---------- --- ---- --- -- companies.,259059.00000000003,259043.99999999997,258579,258576.00000000003,258596,259080,,53,companies.
Item 13,flow.Loop,2_3_1_0_1,2022-05-11T13:16:06.263Z,,,,,,,,,,,,,,,,,,,,,,,,,,,,,,,29304.99999999997,,completion,,,,,,,,,,,,,,,,,,,,,259060,259043.99999999997,229722,229724.00000000003,229739,259080,,,
Question 1,html.Screen,2_3_1_0_2,2022-05-11T13:16:10.012Z,,,,,,,,,,,,,,,,,,,,,,,,,,,,true,FALSE,,3734,,response,,,,13,E,,,,,,FALSE,click #choice-2,,,,lyrical,,,,,262809,262798,259064,259060,259080,262829,,,
Question 2,html.Screen,2_3_1_0_3,2022-05-11T13:16:13.746Z,,,,,,,,,,,,,,,,,,,,,,,,,,,,false,TRUE,,3718,,response,,,,13,E,,,,,,FALSE,click #choice-2,,,,lyrical,,,,,266543,266531,262813,262810,262829,266563,,,
Item 13,flow.Sequence,2_3_1_0,2022-05-11T13:16:13.746Z,,,,,,,,,,,,,,,,,,,,,,,,,,,,,,,43784,,completion,,,,,,,,,,,,,,,,,,,,,266543,266531,222730,222732,222747,266563,,,
Holding screen,html.Screen,2_3_1_1_0,2022-05-11T13:16:20.743Z,,,,,,,,,,,,,,,,,,,,,,,,,,,,,,,6991,,timeout,,,,,,,,,,,,,,,,,,,,,273540,273539,266546,266543,266563,273554,,,
