sender,sender_type,sender_id,timestamp,meta,,Blues,Classical,Country,Dance,Electronic,Folk,Gospel,Hip-Hop,Jazz,Latin,Musical/Film,New-age,Pop,Prolific_id,Provo_ID,R&B,Rap,Reggae,Religious,Rock,Soul,Swing,Traditional,age,artist_name,correct,correctResponse,distraction,duration,education,ended_on,familiarity,gender,headphone_check_performance,item,list,music_frequency,offensiveness,pleasantness,position_correct,preference,response,response_action,snippet_file,song_name,song_rating,sound,stimulus_1,stimulus_2,stimulus_3,text,time_commit,time_end,time_render,time_run,time_show,time_switch,url,word,word_ID
Prolific ID,html.Form,0,2022-02-02T14:35:14.117Z,"{""labjs_version"":""20.2.2"",""labjs_build"":{""flavor"":""production"",""commit"":""a25486e0c714a0ae2ce03ff94b7bb6896854dcfa""},""location"":""https://run.pavlovia.org/mvasilev/prolific2_music_c/"",""userAgent"":""Mozilla/5.0 (Macintosh; Intel Mac OS X 10_14_6) AppleWebKit/537.36 (KHTML, like Gecko) Chrome/97.0.4692.99 Safari/537.36"",""platform"":""MacIntel"",""language"":""en-US"",""locale"":""en-GB"",""timeZone"":""Europe/London"",""timezoneOffset"":0,""screen_width"":1440,""screen_height"":900,""scroll_width"":1440,""scroll_height"":653,""window_innerWidth"":1440,""window_innerHeight"":701,""devicePixelRatio"":1}",,,,,,,,,,,,,,,5ca5ad40d8f9770001ffd7de,,,,,,,,,,,,,,,3200.020999982118,,form submission,,,,,,,,,,,,,,,,,,,,,12636.399999976158,12635.799999982119,9285.776,9414.899999976158,9435.779,12652.51,{},,
Introduction,html.Screen,1_0,2022-02-02T14:35:18.284Z,,,,,,,,,,,,,,,,,,,,,,,,,,,,,,,4146.49,,response,,,,,,,,,,,continue,click button,,,,,,,,,16802.5,16799,12619.176,12636.699999988079,12652.51,16802.593,,,
Volume calibration,html.Screen,1_1,2022-02-02T14:35:49.815Z,,,,,,,,,,,,,,,,,,,,,,,,,,,,,,,31525.706999982118,,response,,,,,,,,,,,continue,click button,,,,,,,,,48333.29999998212,48328.29999998212,16785.926,16802.59999999404,16802.593,48338.177,,,
Task instructions,html.Screen,1_2,2022-02-02T14:36:05.805Z,,,,,,,,,,,,,,,,,,,,,,,,,,,,,,,15982.122999982115,,response,,,,,,,,,,,continue,click button,,,,,,,,,64322.79999998212,64320.29999998212,48321.51,48333.39999997616,48338.177,64322.754,,,
Sounds,html.Screen,1_3_0_0,2022-02-02T14:36:10.043Z,,,,,,,,,,,,,,,,,,,,,,,,,,,,,,,4250.085000000006,,timeout,,,,,,,,,1,,,,,,,,S,I,O,,68560.19999998808,68556.172,64306.087,64323.19999998808,64322.754,68572.839,,,
Judgement,html.Screen,1_3_0_1,2022-02-02T14:36:12.251Z,,,,,,,,,,,,,,,,,,,,,,,,,,,,true,1,,2193.2609999940323,,response,,,,,,,,,1,,1,click #choice-1,,,,,S,I,O,,70768.29999998212,70766.09999999404,68556.172,68560.39999997616,68572.839,70773.395,,,
Trial,flow.Sequence,1_3_0,2022-02-02T14:36:12.251Z,,,,,,,,,,,,,,,,,,,,,,,,,,,,,,,6443.345999994039,,completion,,,,,,,,,1,,,,,,,,S,I,O,,70768.5,70766.09999999404,64306.087,64323.09999999404,64322.754,70773.395,,,
Sounds,html.Screen,1_3_1_0,2022-02-02T14:36:16.492Z,,,,,,,,,,,,,,,,,,,,,,,,,,,,,,,4250.084999999992,,timeout,,,,,,,,,2,,,,,,,,O,S,I,,75009.29999998212,75006.813,70756.728,70768.79999998212,70773.395,75023.48,,,
Judgement,html.Screen,1_3_1_1,2022-02-02T14:36:17.117Z,,,,,,,,,,,,,,,,,,,,,,,,,,,,true,2,,608.2199999880831,,response,,,,,,,,,2,,2,click #choice-2,,,,,O,S,I,,75634.19999998808,75631.69999998808,75006.813,75009.59999999404,75023.48,75640.159,,,
Trial,flow.Sequence,1_3_1,2022-02-02T14:36:17.117Z,,,,,,,,,,,,,,,,,,,,,,,,,,,,,,,4858.304999988075,,completion,,,,,,,,,2,,,,,,,,O,S,I,,75634.5,75631.69999998808,70756.728,70768.59999999404,70773.395,75640.159,,,
Sounds,html.Screen,1_3_2_0,2022-02-02T14:36:21.359Z,,,,,,,,,,,,,,,,,,,,,,,,,,,,,,,4250.085000000006,,timeout,,,,,,,,,2,,,,,,,,I,S,O,,79875.89999997616,79873.577,75623.492,75634.69999998808,75640.159,79890.244,,,
Judgement,html.Screen,1_3_2_1,2022-02-02T14:36:22.036Z,,,,,,,,,,,,,,,,,,,,,,,,,,,,true,2,,660.0559999821126,,response,,,,,,,,,2,,2,click #choice-2,,,,,I,S,O,,80552.79999998212,80550.29999998212,79873.577,79876.09999999404,79890.244,80556.924,,,
Trial,flow.Sequence,1_3_2,2022-02-02T14:36:22.036Z,,,,,,,,,,,,,,,,,,,,,,,,,,,,,,,4910.140999982119,,completion,,,,,,,,,2,,,,,,,,I,S,O,,80553,80550.29999998212,75623.492,75634.59999999404,75640.159,80556.924,,,
Sounds,html.Screen,1_3_3_0,2022-02-02T14:36:26.276Z,,,,,,,,,,,,,,,,,,,,,,,,,,,,,,,4250.521999999997,,timeout,,,,,,,,,3,,,,,,,,I,O,S,,84792.59999999404,84790.779,80540.257,80553.09999999404,80556.924,84807.446,,,
Judgement,html.Screen,1_3_3_1,2022-02-02T14:36:26.941Z,,,,,,,,,,,,,,,,,,,,,,,,,,,,true,3,,647.1539999940433,,response,,,,,,,,,3,,3,click #choice-3,,,,,I,O,S,,85457.5,85454.59999999404,84790.779,84792.59999999404,84807.446,85457.459,,,
Trial,flow.Sequence,1_3_3,2022-02-02T14:36:26.941Z,,,,,,,,,,,,,,,,,,,,,,,,,,,,,,,4897.6759999940405,,completion,,,,,,,,,3,,,,,,,,I,O,S,,85457.69999998808,85454.59999999404,80540.257,80553.09999999404,80556.924,85457.459,,,
Sounds,html.Screen,1_3_4_0,2022-02-02T14:36:31.177Z,,,,,,,,,,,,,,,,,,,,,,,,,,,,,,,4250.084999999992,,timeout,,,,,,,,,3,,,,,,,,O,I,S,,89693.69999998808,89690.877,85440.792,85457.79999998212,85457.459,89707.544,,,
Judgement,html.Screen,1_3_4_1,2022-02-02T14:36:31.870Z,,,,,,,,,,,,,,,,,,,,,,,,,,,,true,3,,676.9560000000056,,response,,,,,,,,,3,,3,click #choice-3,,,,,O,I,S,,90386.5,90384.5,89690.877,89693.89999997616,89707.544,90390.891,,,
Trial,flow.Sequence,1_3_4,2022-02-02T14:36:31.870Z,,,,,,,,,,,,,,,,,,,,,,,,,,,,,,,4927.040999999997,,completion,,,,,,,,,3,,,,,,,,O,I,S,,90386.79999998212,90384.5,85440.792,85457.69999998808,85457.459,90390.891,,,
Sounds,html.Screen,1_3_5_0,2022-02-02T14:36:36.110Z,,,,,,,,,,,,,,,,,,,,,,,,,,,,,,,4250.084999999992,,timeout,,,,,,,,,1,,,,,,,,S,O,I,,94626,94624.309,90374.224,90386.79999998212,90390.891,94640.976,,,
Judgement,html.Screen,1_3_5_1,2022-02-02T14:36:36.640Z,,,,,,,,,,,,,,,,,,,,,,,,,,,,true,1,,512.3239999821235,,response,,,,,,,,,1,,1,click #choice-1,,,,,S,O,I,,95156.19999998808,95153.29999998212,94624.309,94626.09999999404,94640.976,95158.265,,,
Trial,flow.Sequence,1_3_5,2022-02-02T14:36:36.640Z,,,,,,,,,,,,,,,,,,,,,,,,,,,,,,,4762.408999982115,,completion,,,,,,,,,1,,,,,,,,S,O,I,,95156.59999999404,95153.29999998212,90374.224,90386.79999998212,90390.891,95158.265,,,
Task,flow.Loop,1_3,2022-02-02T14:36:36.647Z,,,,,,,,,,,,,,,,,,,,,,,,,,,,,,,30830.545999982118,,completion,,,1,,,,,,,,,,,,,,,,,,95163.39999997616,95153.29999998212,64306.087,64323,64322.754,95158.265,,,
Trap,html.Screen,1_4,2022-02-02T14:36:36.648Z,,,,,,,,,,,,,,,,,,,,,,,,,,,,,,,NaN,,skipped,,,,,,,,,,,,,,,,,,,,,95164.79999998212,95153.29999998212,,95164.59999999404,,95158.265,,,
Thanks,html.Screen,1_5,2022-02-02T14:36:39.788Z,,,,,,,,,,,,,,,,,,,,,,,,,,,,,,,3144.034999982119,,response,,,,,,,,,,,continue,click button,,,,,,,,,98304.29999998212,98302.29999998212,95141.598,95164.89999997616,95158.265,100875.046,,,
Headphone screening,flow.Sequence,1,2022-02-02T14:36:39.788Z,,,,,,,,,,,,,,,,,,,,,,,,,,,,,,,85649.78999998212,,completion,,,,,,,,,,,,,,,,,,,,,98304.5,98302.29999998212,12619.176,12636.699999988079,12652.51,100875.046,,,
Instructions,html.Page,2_0,2022-02-02T14:36:59.720Z,,,,,,,,,,,,,,,,,,,,,,,,,,,,,,,17360.253999982117,,form submission,,,,,,,,,,,,,,,,,,,,,118235.79999998212,118235.29999998212,100858.379,100879,100875.046,118243.173,,,
Holding screen,html.Screen,2_1_0_0,2022-02-02T14:37:09.714Z,,,,,,,,,,,,,,,,,,,,,,,,,,,,,,,10034.072,,timeout,,,,,,,,,,,,,,,,,,,,,128229.5,128227.244,118226.506,118236.09999999404,118243.173,128277.245,,,
screen,html.Screen,2_1_0_1_0,2022-02-02T14:37:10.637Z,,,,,,,,,,,,,,,,,53,,,,,,,,,,,,,,865.4549999880837,,response,,,,99,,,,,,,Space,keypress(Space),,,,,,,,When -- ----- -- ------ - ------- --- ----------<br>------------- ------ ------ ---- ---- ------- ----- -- ----<br>-------- ------- -- ---------- --- - --- ----- ----- ----<br>---- --- --- ----- --- ---- ---- ------- ----- ---- -------<br>--- --- -- ----- -- --- ---- -- --- ---- -- ------ ------<br>--- ----- -- ----,129152.29999998212,129142.69999998808,128227.244,128229.69999998808,128277.245,129160.596,,0,When
screen,html.Screen,2_1_0_1_1,2022-02-02T14:37:11.117Z,,,,,,,,,,,,,,,,,53,,,,,,,,,,,,,,468.00399999403453,,response,,,,99,,,,,,,Space,keypress(Space),,,,,,,,---- it ----- -- ------ - ------- --- ----------<br>------------- ------ ------ ---- ---- ------- ----- -- ----<br>-------- ------- -- ---------- --- - --- ----- ----- ----<br>---- --- --- ----- --- ---- ---- ------- ----- ---- -------<br>--- --- -- ----- -- --- ---- -- --- ---- -- ------ ------<br>--- ----- -- ----,129632.69999998808,129628.59999999404,129143.929,129152.5,129160.596,129643.939,,1,it
screen,html.Screen,2_1_0_1_2,2022-02-02T14:37:11.959Z,,,,,,,,,,,,,,,,,53,,,,,,,,,,,,,,825.660999994041,,response,,,,99,,,,,,,Space,keypress(Space),,,,,,,,---- -- comes -- ------ - ------- --- ----------<br>------------- ------ ------ ---- ---- ------- ----- -- ----<br>-------- ------- -- ---------- --- - --- ----- ----- ----<br>---- --- --- ----- --- ---- ---- ------- ----- ---- -------<br>--- --- -- ----- -- --- ---- -- --- ---- -- ------ ------<br>--- ----- -- ----,130474,130469.59999999404,129627.272,129632.89999997616,129643.939,130477.289,,2,comes
screen,html.Screen,2_1_0_1_3,2022-02-02T14:37:12.427Z,,,,,,,,,,,,,,,,,53,,,,,,,,,,,,,,461.3109999940352,,response,,,,99,,,,,,,Space,keypress(Space),,,,,,,,---- -- ----- to ------ - ------- --- ----------<br>------------- ------ ------ ---- ---- ------- ----- -- ----<br>-------- ------- -- ---------- --- - --- ----- ----- ----<br>---- --- --- ----- --- ---- ---- ------- ----- ---- -------<br>--- --- -- ----- -- --- ---- -- --- ---- -- ------ ------<br>--- ----- -- ----,130942.59999999404,130938.59999999404,130460.622,130474.29999998212,130477.289,130943.965,,3,to
screen,html.Screen,2_1_0_1_4,2022-02-02T14:37:12.853Z,,,,,,,,,,,,,,,,,53,,,,,,,,,,,,,,420.634999994043,,response,,,,99,,,,,,,Space,keypress(Space),,,,,,,,---- -- ----- -- having - ------- --- ----------<br>------------- ------ ------ ---- ---- ------- ----- -- ----<br>-------- ------- -- ---------- --- - --- ----- ----- ----<br>---- --- --- ----- --- ---- ---- ------- ----- ---- -------<br>--- --- -- ----- -- --- ---- -- --- ---- -- ------ ------<br>--- ----- -- ----,131368.59999999404,131364.59999999404,130927.298,130942.79999998212,130943.965,131377.307,,4,having
screen,html.Screen,2_1_0_1_5,2022-02-02T14:37:13.268Z,,,,,,,,,,,,,,,,,53,,,,,,,,,,,,,,401.29299999403884,,response,,,,99,,,,,,,Space,keypress(Space),,,,,,,,---- -- ----- -- ------ a ------- --- ----------<br>------------- ------ ------ ---- ---- ------- ----- -- ----<br>-------- ------- -- ---------- --- - --- ----- ----- ----<br>---- --- --- ----- --- ---- ---- ------- ----- ---- -------<br>--- --- -- ----- -- --- ---- -- --- ---- -- ------ ------<br>--- ----- -- ----,131783.39999997616,131778.59999999404,131360.64,131368.79999998212,131377.307,131793.982,,5,a
screen,html.Screen,2_1_0_1_6,2022-02-02T14:37:13.802Z,,,,,,,,,,,,,,,,,53,,,,,,,,,,,,,,519.4179999761691,,response,,,,99,,,,,,,Space,keypress(Space),,,,,,,,---- -- ----- -- ------ - lasting --- ----------<br>------------- ------ ------ ---- ---- ------- ----- -- ----<br>-------- ------- -- ---------- --- - --- ----- ----- ----<br>---- --- --- ----- --- ---- ---- ------- ----- ---- -------<br>--- --- -- ----- -- --- ---- -- --- ---- -- ------ ------<br>--- ----- -- ----,132317.39999997616,132313.39999997616,131777.315,131783.59999999404,131793.982,132327.326,,6,lasting
screen,html.Screen,2_1_0_1_7,2022-02-02T14:37:14.369Z,,,,,,,,,,,,,,,,,53,,,,,,,,,,,,,,552.0739999761572,,response,,,,99,,,,,,,Space,keypress(Space),,,,,,,,---- -- ----- -- ------ - ------- and ----------<br>------------- ------ ------ ---- ---- ------- ----- -- ----<br>-------- ------- -- ---------- --- - --- ----- ----- ----<br>---- --- --- ----- --- ---- ---- ------- ----- ---- -------<br>--- --- -- ----- -- --- ---- -- --- ---- -- ------ ------<br>--- ----- -- ----,132884.59999999404,132879.39999997616,132310.659,132317.5,132327.326,132894.004,,7,and
screen,html.Screen,2_1_0_1_8,2022-02-02T14:37:14.845Z,,,,,,,,,,,,,,,,,53,,,,,,,,,,,,,,460.6959999880928,,response,,,,99,,,,,,,Space,keypress(Space),,,,,,,,---- -- ----- -- ------ - ------- --- fulfilling<br>------------- ------ ------ ---- ---- ------- ----- -- ----<br>-------- ------- -- ---------- --- - --- ----- ----- ----<br>---- --- --- ----- --- ---- ---- ------- ----- ---- -------<br>--- --- -- ----- -- --- ---- -- --- ---- -- ------ ------<br>--- ----- -- ----,133360.59999999404,133354.69999998808,132877.337,132884.79999998212,132894.004,133377.347,,8,fulfilling
screen,html.Screen,2_1_0_1_9,2022-02-02T14:37:15.320Z,,,,,,,,,,,,,,,,,53,,,,,,,,,,,,,,454.0529999761493,,response,,,,99,,,,,,,Space,keypress(Space),,,,,,,,"---- -- ----- -- ------ - ------- --- ----------<br>relationship, ------ ------ ---- ---- ------- ----- -- ----<br>-------- ------- -- ---------- --- - --- ----- ----- ----<br>---- --- --- ----- --- ---- ---- ------- ----- ---- -------<br>--- --- -- ----- -- --- ---- -- --- ---- -- ------ ------<br>--- ----- -- ----",133835.59999999404,133831.39999997616,133360.68,133360.79999998212,133377.347,133844.023,,9,"relationship,"
screen,html.Screen,2_1_0_1_10,2022-02-02T14:37:15.782Z,,,,,,,,,,,,,,,,,53,,,,,,,,,,,,,,448.4770000000135,,response,,,,99,,,,,,,Space,keypress(Space),,,,,,,,---- -- ----- -- ------ - ------- --- ----------<br>------------- common ------ ---- ---- ------- ----- -- ----<br>-------- ------- -- ---------- --- - --- ----- ----- ----<br>---- --- --- ----- --- ---- ---- ------- ----- ---- -------<br>--- --- -- ----- -- --- ---- -- --- ---- -- ------ ------<br>--- ----- -- ----,134296.59999999404,134292.5,133827.356,133835.69999998808,133844.023,134310.699,,10,common
screen,html.Screen,2_1_0_1_11,2022-02-02T14:37:16.210Z,,,,,,,,,,,,,,,,,53,,,,,,,,,,,,,,409.60099998212536,,response,,,,99,,,,,,,Space,keypress(Space),,,,,,,,---- -- ----- -- ------ - ------- --- ----------<br>------------- ------ wisdom ---- ---- ------- ----- -- ----<br>-------- ------- -- ---------- --- - --- ----- ----- ----<br>---- --- --- ----- --- ---- ---- ------- ----- ---- -------<br>--- --- -- ----- -- --- ---- -- --- ---- -- ------ ------<br>--- ----- -- ----,134724.69999998808,134720.29999998212,134294.032,134296.79999998212,134310.699,134727.374,,11,wisdom
screen,html.Screen,2_1_0_1_12,2022-02-02T14:37:16.720Z,,,,,,,,,,,,,,,,,53,,,,,,,,,,,,,,502.9259999821079,,response,,,,99,,,,,,,Space,keypress(Space),,,,,,,,---- -- ----- -- ------ - ------- --- ----------<br>------------- ------ ------ says ---- ------- ----- -- ----<br>-------- ------- -- ---------- --- - --- ----- ----- ----<br>---- --- --- ----- --- ---- ---- ------- ----- ---- -------<br>--- --- -- ----- -- --- ---- -- --- ---- -- ------ ------<br>--- ----- -- ----,135234.19999998808,135230.29999998212,134710.707,134724.89999997616,134727.374,135244.561,,12,says
screen,html.Screen,2_1_0_1_13,2022-02-02T14:37:17.125Z,,,,,,,,,,,,,,,,,53,,,,,,,,,,,,,,389.6389999880921,,response,,,,99,,,,,,,Space,keypress(Space),,,,,,,,---- -- ----- -- ------ - ------- --- ----------<br>------------- ------ ------ ---- that ------- ----- -- ----<br>-------- ------- -- ---------- --- - --- ----- ----- ----<br>---- --- --- ----- --- ---- ---- ------- ----- ---- -------<br>--- --- -- ----- -- --- ---- -- --- ---- -- ------ ------<br>--- ----- -- ----,135638.79999998212,135634.19999998808,135227.894,135234.29999998212,135244.561,135644.569,,13,that
screen,html.Screen,2_1_0_1_14,2022-02-02T14:37:17.522Z,,,,,,,,,,,,,,,,,53,,,,,,,,,,,,,,386.83099997616955,,response,,,,99,,,,,,,Space,keypress(Space),,,,,,,,---- -- ----- -- ------ - ------- --- ----------<br>------------- ------ ------ ---- ---- feeling ----- -- ----<br>-------- ------- -- ---------- --- - --- ----- ----- ----<br>---- --- --- ----- --- ---- ---- ------- ----- ---- -------<br>--- --- -- ----- -- --- ---- -- --- ---- -- ------ ------<br>--- ----- -- ----,136035.39999997616,136031.39999997616,135627.902,135639,135644.569,136044.577,,14,feeling
screen,html.Screen,2_1_0_1_15,2022-02-02T14:37:17.920Z,,,,,,,,,,,,,,,,,53,,,,,,,,,,,,,,383.7229999821284,,response,,,,99,,,,,,,Space,keypress(Space),,,,,,,,---- -- ----- -- ------ - ------- --- ----------<br>------------- ------ ------ ---- ---- ------- close -- ----<br>-------- ------- -- ---------- --- - --- ----- ----- ----<br>---- --- --- ----- --- ---- ---- ------- ----- ---- -------<br>--- --- -- ----- -- --- ---- -- --- ---- -- ------ ------<br>--- ----- -- ----,136432.39999997616,136428.29999998212,136027.91,136035.59999999404,136044.577,136444.585,,15,close
screen,html.Screen,2_1_0_1_16,2022-02-02T14:37:18.337Z,,,,,,,,,,,,,,,,,53,,,,,,,,,,,,,,400.6149999880872,,response,,,,99,,,,,,,Space,keypress(Space),,,,,,,,---- -- ----- -- ------ - ------- --- ----------<br>------------- ------ ------ ---- ---- ------- ----- to ----<br>-------- ------- -- ---------- --- - --- ----- ----- ----<br>---- --- --- ----- --- ---- ---- ------- ----- ---- -------<br>--- --- -- ----- -- --- ---- -- --- ---- -- ------ ------<br>--- ----- -- ----,136849.29999998212,136845.19999998808,136427.918,136432.59999999404,136444.585,136861.26,,16,to
screen,html.Screen,2_1_0_1_17,2022-02-02T14:37:18.737Z,,,,,,,,,,,,,,,,,53,,,,,,,,,,,,,,383.93999998806976,,response,,,,99,,,,,,,Space,keypress(Space),,,,,,,,---- -- ----- -- ------ - ------- --- ----------<br>------------- ------ ------ ---- ---- ------- ----- -- your<br>-------- ------- -- ---------- --- - --- ----- ----- ----<br>---- --- --- ----- --- ---- ---- ------- ----- ---- -------<br>--- --- -- ----- -- --- ---- -- --- ---- -- ------ ------<br>--- ----- -- ----,137249.5,137245.19999998808,136844.593,136849.5,136861.26,137261.268,,17,your
screen,html.Screen,2_1_0_1_18,2022-02-02T14:37:19.219Z,,,,,,,,,,,,,,,,,53,,,,,,,,,,,,,,464.8319999940286,,response,,,,99,,,,,,,Space,keypress(Space),,,,,,,,---- -- ----- -- ------ - ------- --- ----------<br>------------- ------ ------ ---- ---- ------- ----- -- ----<br>romantic ------- -- ---------- --- - --- ----- ----- ----<br>---- --- --- ----- --- ---- ---- ------- ----- ---- -------<br>--- --- -- ----- -- --- ---- -- --- ---- -- ------ ------<br>--- ----- -- ----,137730.5,137726.09999999404,137244.601,137249.59999999404,137261.268,137744.611,,18,romantic
screen,html.Screen,2_1_0_1_19,2022-02-02T14:37:19.681Z,,,,,,,,,,,,,,,,,53,,,,,,,,,,,,,,443.6889999821142,,response,,,,99,,,,,,,Space,keypress(Space),,,,,,,,---- -- ----- -- ------ - ------- --- ----------<br>------------- ------ ------ ---- ---- ------- ----- -- ----<br>-------- partner -- ---------- --- - --- ----- ----- ----<br>---- --- --- ----- --- ---- ---- ------- ----- ---- -------<br>--- --- -- ----- -- --- ---- -- --- ---- -- ------ ------<br>--- ----- -- ----,138192.79999998212,138188.29999998212,137727.944,137730.79999998212,137744.611,138194.62,,19,partner
screen,html.Screen,2_1_0_1_20,2022-02-02T14:37:20.077Z,,,,,,,,,,,,,,,,,53,,,,,,,,,,,,,,389.4799999940442,,response,,,,99,,,,,,,Space,keypress(Space),,,,,,,,---- -- ----- -- ------ - ------- --- ----------<br>------------- ------ ------ ---- ---- ------- ----- -- ----<br>-------- ------- is ---------- --- - --- ----- ----- ----<br>---- --- --- ----- --- ---- ---- ------- ----- ---- -------<br>--- --- -- ----- -- --- ---- -- --- ---- -- ------ ------<br>--- ----- -- ----,138588.39999997616,138584.09999999404,138177.953,138193,138194.62,138594.628,,20,is
screen,html.Screen,2_1_0_1_21,2022-02-02T14:37:20.539Z,,,,,,,,,,,,,,,,,53,,,,,,,,,,,,,,450.5719999880821,,response,,,,99,,,,,,,Space,keypress(Space),,,,,,,,---- -- ----- -- ------ - ------- --- ----------<br>------------- ------ ------ ---- ---- ------- ----- -- ----<br>-------- ------- -- paramount. --- - --- ----- ----- ----<br>---- --- --- ----- --- ---- ---- ------- ----- ---- -------<br>--- --- -- ----- -- --- ---- -- --- ---- -- ------ ------<br>--- ----- -- ----,139049.19999998808,139045.19999998808,138577.961,138588.59999999404,138594.628,139061.304,,21,paramount.
screen,html.Screen,2_1_0_1_22,2022-02-02T14:37:20.965Z,,,,,,,,,,,,,,,,,53,,,,,,,,,,,,,,408.89599998807535,,response,,,,99,,,,,,,Space,keypress(Space),,,,,,,,---- -- ----- -- ------ - ------- --- ----------<br>------------- ------ ------ ---- ---- ------- ----- -- ----<br>-------- ------- -- ---------- But - --- ----- ----- ----<br>---- --- --- ----- --- ---- ---- ------- ----- ---- -------<br>--- --- -- ----- -- --- ---- -- --- ---- -- ------ ------<br>--- ----- -- ----,139475.09999999404,139470.19999998808,139044.637,139049.5,139061.304,139477.979,,22,But
screen,html.Screen,2_1_0_1_23,2022-02-02T14:37:21.346Z,,,,,,,,,,,,,,,,,53,,,,,,,,,,,,,,374.0210000000079,,response,,,,99,,,,,,,Space,keypress(Space),,,,,,,,---- -- ----- -- ------ - ------- --- ----------<br>------------- ------ ------ ---- ---- ------- ----- -- ----<br>-------- ------- -- ---------- --- a --- ----- ----- ----<br>---- --- --- ----- --- ---- ---- ------- ----- ---- -------<br>--- --- -- ----- -- --- ---- -- --- ---- -- ------ ------<br>--- ----- -- ----,139856.09999999404,139852,139461.312,139475.29999998212,139477.979,139861.32,,23,a
screen,html.Screen,2_1_0_1_24,2022-02-02T14:37:21.710Z,,,,,,,,,,,,,,,,,53,,,,,,,,,,,,,,354.679999999993,,response,,,,99,,,,,,,Space,keypress(Space),,,,,,,,---- -- ----- -- ------ - ------- --- ----------<br>------------- ------ ------ ---- ---- ------- ----- -- ----<br>-------- ------- -- ---------- --- - new ----- ----- ----<br>---- --- --- ----- --- ---- ---- ------- ----- ---- -------<br>--- --- -- ----- -- --- ---- -- --- ---- -- ------ ------<br>--- ----- -- ----,140220.19999998808,140216,139844.653,139856.19999998808,139861.32,140227.994,,24,new
screen,html.Screen,2_1_0_1_25,2022-02-02T14:37:22.114Z,,,,,,,,,,,,,,,,,53,,,,,,,,,,,,,,392.00599999999395,,response,,,,99,,,,,,,Space,keypress(Space),,,,,,,,---- -- ----- -- ------ - ------- --- ----------<br>------------- ------ ------ ---- ---- ------- ----- -- ----<br>-------- ------- -- ---------- --- - --- study ----- ----<br>---- --- --- ----- --- ---- ---- ------- ----- ---- -------<br>--- --- -- ----- -- --- ---- -- --- ---- -- ------ ------<br>--- ----- -- ----,140624,140620,140211.327,140220.29999998212,140227.994,140628.002,,25,study
screen,html.Screen,2_1_0_1_26,2022-02-02T14:37:22.534Z,,,,,,,,,,,,,,,,,53,,,,,,,,,,,,,,410.9979999999923,,response,,,,99,,,,,,,Space,keypress(Space),,,,,,,,---- -- ----- -- ------ - ------- --- ----------<br>------------- ------ ------ ---- ---- ------- ----- -- ----<br>-------- ------- -- ---------- --- - --- ----- finds ----<br>---- --- --- ----- --- ---- ---- ------- ----- ---- -------<br>--- --- -- ----- -- --- ---- -- --- ---- -- ------ ------<br>--- ----- -- ----,141043.09999999404,141039,140611.335,140624.29999998212,140628.002,141044.677,,26,finds
screen,html.Screen,2_1_0_1_27,2022-02-02T14:37:22.958Z,,,,,,,,,,,,,,,,,53,,,,,,,,,,,,,,418.12299998212256,,response,,,,99,,,,,,,Space,keypress(Space),,,,,,,,---- -- ----- -- ------ - ------- --- ----------<br>------------- ------ ------ ---- ---- ------- ----- -- ----<br>-------- ------- -- ---------- --- - --- ----- ----- that<br>---- --- --- ----- --- ---- ---- ------- ----- ---- -------<br>--- --- -- ----- -- --- ---- -- --- ---- -- ------ ------<br>--- ----- -- ----,141466.89999997616,141462.79999998212,141028.01,141043.19999998808,141044.677,141478.019,,27,that
screen,html.Screen,2_1_0_1_28,2022-02-02T14:37:23.437Z,,,,,,,,,,,,,,,,,53,,,,,,,,,,,,,,461.98099999999977,,response,,,,99,,,,,,,Space,keypress(Space),,,,,,,,---- -- ----- -- ------ - ------- --- ----------<br>------------- ------ ------ ---- ---- ------- ----- -- ----<br>-------- ------- -- ---------- --- - --- ----- ----- ----<br>it's --- --- ----- --- ---- ---- ------- ----- ---- -------<br>--- --- -- ----- -- --- ---- -- --- ---- -- ------ ------<br>--- ----- -- ----,141946.09999999404,141940,141461.352,141467.09999999404,141478.019,141961.362,,28,it's
screen,html.Screen,2_1_0_1_29,2022-02-02T14:37:23.859Z,,,,,,,,,,,,,,,,,53,,,,,,,,,,,,,,402.4379999821249,,response,,,,99,,,,,,,Space,keypress(Space),,,,,,,,---- -- ----- -- ------ - ------- --- ----------<br>------------- ------ ------ ---- ---- ------- ----- -- ----<br>-------- ------- -- ---------- --- - --- ----- ----- ----<br>---- not --- ----- --- ---- ---- ------- ----- ---- -------<br>--- --- -- ----- -- --- ---- -- --- ---- -- ------ ------<br>--- ----- -- ----,142367.5,142363.79999998212,141944.695,141946.29999998212,141961.362,142378.037,,29,not
screen,html.Screen,2_1_0_1_30,2022-02-02T14:37:24.276Z,,,,,,,,,,,,,,,,,53,,,,,,,,,,,,,,401.86299997614697,,response,,,,99,,,,,,,Space,keypress(Space),,,,,,,,---- -- ----- -- ------ - ------- --- ----------<br>------------- ------ ------ ---- ---- ------- ----- -- ----<br>-------- ------- -- ---------- --- - --- ----- ----- ----<br>---- --- how ----- --- ---- ---- ------- ----- ---- -------<br>--- --- -- ----- -- --- ---- -- --- ---- -- ------ ------<br>--- ----- -- ----,142783.79999998212,142779.89999997616,142361.37,142367.79999998212,142378.037,142794.712,,30,how
screen,html.Screen,2_1_0_1_31,2022-02-02T14:37:24.658Z,,,,,,,,,,,,,,,,,53,,,,,,,,,,,,,,367.1879999761586,,response,,,,99,,,,,,,Space,keypress(Space),,,,,,,,---- -- ----- -- ------ - ------- --- ----------<br>------------- ------ ------ ---- ---- ------- ----- -- ----<br>-------- ------- -- ---------- --- - --- ----- ----- ----<br>---- --- --- close --- ---- ---- ------- ----- ---- -------<br>--- --- -- ----- -- --- ---- -- --- ---- -- ------ ------<br>--- ----- -- ----,143166.39999997616,143161.89999997616,142778.045,142784.09999999404,142794.712,143178.053,,31,close
screen,html.Screen,2_1_0_1_32,2022-02-02T14:37:25.004Z,,,,,,,,,,,,,,,,,53,,,,,,,,,,,,,,329.74699998210417,,response,,,,99,,,,,,,Space,keypress(Space),,,,,,,,---- -- ----- -- ------ - ------- --- ----------<br>------------- ------ ------ ---- ---- ------- ----- -- ----<br>-------- ------- -- ---------- --- - --- ----- ----- ----<br>---- --- --- ----- you ---- ---- ------- ----- ---- -------<br>--- --- -- ----- -- --- ---- -- --- ---- -- ------ ------<br>--- ----- -- ----,143511.79999998212,143507.79999998212,143161.386,143166.59999999404,143178.053,143528.06,,32,you
screen,html.Screen,2_1_0_1_33,2022-02-02T14:37:25.473Z,,,,,,,,,,,,,,,,,53,,,,,,,,,,,,,,447.73999998212093,,response,,,,99,,,,,,,Space,keypress(Space),,,,,,,,---- -- ----- -- ------ - ------- --- ----------<br>------------- ------ ------ ---- ---- ------- ----- -- ----<br>-------- ------- -- ---------- --- - --- ----- ----- ----<br>---- --- --- ----- --- feel ---- ------- ----- ---- -------<br>--- --- -- ----- -- --- ---- -- --- ---- -- ------ ------<br>--- ----- -- ----,143980.09999999404,143975.79999998212,143511.393,143512,143528.06,143994.736,,33,feel
screen,html.Screen,2_1_0_1_34,2022-02-02T14:37:25.837Z,,,,,,,,,,,,,,,,,53,,,,,,,,,,,,,,345.0639999821142,,response,,,,99,,,,,,,Space,keypress(Space),,,,,,,,---- -- ----- -- ------ - ------- --- ----------<br>------------- ------ ------ ---- ---- ------- ----- -- ----<br>-------- ------- -- ---------- --- - --- ----- ----- ----<br>---- --- --- ----- --- ---- that ------- ----- ---- -------<br>--- --- -- ----- -- --- ---- -- --- ---- -- ------ ------<br>--- ----- -- ----,144344.19999998808,144339.79999998212,143978.069,143980.29999998212,143994.736,144361.41,,34,that
screen,html.Screen,2_1_0_1_35,2022-02-02T14:37:26.250Z,,,,,,,,,,,,,,,,,53,,,,,,,,,,,,,,391.2899999880756,,response,,,,99,,,,,,,Space,keypress(Space),,,,,,,,---- -- ----- -- ------ - ------- --- ----------<br>------------- ------ ------ ---- ---- ------- ----- -- ----<br>-------- ------- -- ---------- --- - --- ----- ----- ----<br>---- --- --- ----- --- ---- ---- matters ----- ---- -------<br>--- --- -- ----- -- --- ---- -- --- ---- -- ------ ------<br>--- ----- -- ----,144756.69999998808,144752.69999998808,144344.743,144344.29999998212,144361.41,144761.418,,35,matters
screen,html.Screen,2_1_0_1_36,2022-02-02T14:37:26.657Z,,,,,,,,,,,,,,,,,53,,,,,,,,,,,,,,398.1819999940344,,response,,,,99,,,,,,,Space,keypress(Space),,,,,,,,"---- -- ----- -- ------ - ------- --- ----------<br>------------- ------ ------ ---- ---- ------- ----- -- ----<br>-------- ------- -- ---------- --- - --- ----- ----- ----<br>---- --- --- ----- --- ---- ---- ------- most, ---- -------<br>--- --- -- ----- -- --- ---- -- --- ---- -- ------ ------<br>--- ----- -- ----",145164.19999998808,145159.59999999404,144744.751,144757,144761.418,145178.568,,36,"most,"
screen,html.Screen,2_1_0_1_37,2022-02-02T14:37:27.039Z,,,,,,,,,,,,,,,,,53,,,,,,,,,,,,,,363.13199998807977,,response,,,,99,,,,,,,Space,keypress(Space),,,,,,,,---- -- ----- -- ------ - ------- --- ----------<br>------------- ------ ------ ---- ---- ------- ----- -- ----<br>-------- ------- -- ---------- --- - --- ----- ----- ----<br>---- --- --- ----- --- ---- ---- ------- ----- it's -------<br>--- --- -- ----- -- --- ---- -- --- ---- -- ------ ------<br>--- ----- -- ----,145545.79999998212,145541.69999998808,145161.901,145164.39999997616,145178.568,145561.909,,37,it's
screen,html.Screen,2_1_0_1_38,2022-02-02T14:37:27.547Z,,,,,,,,,,,,,,,,,53,,,,,,,,,,,,,,487.5909999999858,,response,,,,99,,,,,,,Space,keypress(Space),,,,,,,,---- -- ----- -- ------ - ------- --- ----------<br>------------- ------ ------ ---- ---- ------- ----- -- ----<br>-------- ------- -- ---------- --- - --- ----- ----- ----<br>---- --- --- ----- --- ---- ---- ------- ----- ---- whether<br>--- --- -- ----- -- --- ---- -- --- ---- -- ------ ------<br>--- ----- -- ----,146053.79999998212,146049.5,145545.242,145546,145561.909,146061.919,,38,whether
screen,html.Screen,2_1_0_1_39,2022-02-02T14:37:27.908Z,,,,,,,,,,,,,,,,,53,,,,,,,,,,,,,,347.78099998808466,,response,,,,99,,,,,,,Space,keypress(Space),,,,,,,,---- -- ----- -- ------ - ------- --- ----------<br>------------- ------ ------ ---- ---- ------- ----- -- ----<br>-------- ------- -- ---------- --- - --- ----- ----- ----<br>---- --- --- ----- --- ---- ---- ------- ----- ---- -------<br>you --- -- ----- -- --- ---- -- --- ---- -- ------ ------<br>--- ----- -- ----,146414,146409.69999998808,146045.252,146054,146061.919,146428.593,,39,you
screen,html.Screen,2_1_0_1_40,2022-02-02T14:37:28.290Z,,,,,,,,,,,,,,,,,53,,,,,,,,,,,,,,363.30699997616466,,response,,,,99,,,,,,,Space,keypress(Space),,,,,,,,---- -- ----- -- ------ - ------- --- ----------<br>------------- ------ ------ ---- ---- ------- ----- -- ----<br>-------- ------- -- ---------- --- - --- ----- ----- ----<br>---- --- --- ----- --- ---- ---- ------- ----- ---- -------<br>--- are -- ----- -- --- ---- -- --- ---- -- ------ ------<br>--- ----- -- ----,146795.69999998808,146791.89999997616,146411.926,146414.29999998212,146428.593,146811.934,,40,are
screen,html.Screen,2_1_0_1_41,2022-02-02T14:37:28.803Z,,,,,,,,,,,,,,,,,53,,,,,,,,,,,,,,492.66599999403115,,response,,,,99,,,,,,,Space,keypress(Space),,,,,,,,---- -- ----- -- ------ - ------- --- ----------<br>------------- ------ ------ ---- ---- ------- ----- -- ----<br>-------- ------- -- ---------- --- - --- ----- ----- ----<br>---- --- --- ----- --- ---- ---- ------- ----- ---- -------<br>--- --- as ----- -- --- ---- -- --- ---- -- ------ ------<br>--- ----- -- ----,147308.5,147304.59999999404,146795.267,146795.89999997616,146811.934,147311.944,,41,as
screen,html.Screen,2_1_0_1_42,2022-02-02T14:37:29.218Z,,,,,,,,,,,,,,,,,53,,,,,,,,,,,,,,407.65599999405094,,response,,,,99,,,,,,,Space,keypress(Space),,,,,,,,---- -- ----- -- ------ - ------- --- ----------<br>------------- ------ ------ ---- ---- ------- ----- -- ----<br>-------- ------- -- ---------- --- - --- ----- ----- ----<br>---- --- --- ----- --- ---- ---- ------- ----- ---- -------<br>--- --- -- close -- --- ---- -- --- ---- -- ------ ------<br>--- ----- -- ----,147723.5,147719.59999999404,147295.277,147308.69999998808,147311.944,147728.619,,42,close
screen,html.Screen,2_1_0_1_43,2022-02-02T14:37:29.597Z,,,,,,,,,,,,,,,,,53,,,,,,,,,,,,,,368.9809999940335,,response,,,,99,,,,,,,Space,keypress(Space),,,,,,,,---- -- ----- -- ------ - ------- --- ----------<br>------------- ------ ------ ---- ---- ------- ----- -- ----<br>-------- ------- -- ---------- --- - --- ----- ----- ----<br>---- --- --- ----- --- ---- ---- ------- ----- ---- -------<br>--- --- -- ----- as --- ---- -- --- ---- -- ------ ------<br>--- ----- -- ----,148102.29999998212,148097.59999999404,147711.952,147723.69999998808,147728.619,148111.96,,43,as
screen,html.Screen,2_1_0_1_44,2022-02-02T14:37:29.969Z,,,,,,,,,,,,,,,,,53,,,,,,,,,,,,,,357.54000000000815,,response,,,,99,,,,,,,Space,keypress(Space),,,,,,,,---- -- ----- -- ------ - ------- --- ----------<br>------------- ------ ------ ---- ---- ------- ----- -- ----<br>-------- ------- -- ---------- --- - --- ----- ----- ----<br>---- --- --- ----- --- ---- ---- ------- ----- ---- -------<br>--- --- -- ----- -- you ---- -- --- ---- -- ------ ------<br>--- ----- -- ----,148474,148469.5,148095.293,148102.39999997616,148111.96,148478.634,,44,you
screen,html.Screen,2_1_0_1_45,2022-02-02T14:37:30.343Z,,,,,,,,,,,,,,,,,53,,,,,,,,,,,,,,365.7659999761672,,response,,,,99,,,,,,,Space,keypress(Space),,,,,,,,---- -- ----- -- ------ - ------- --- ----------<br>------------- ------ ------ ---- ---- ------- ----- -- ----<br>-------- ------- -- ---------- --- - --- ----- ----- ----<br>---- --- --- ----- --- ---- ---- ------- ----- ---- -------<br>--- --- -- ----- -- --- want -- --- ---- -- ------ ------<br>--- ----- -- ----,148848.39999997616,148844.39999997616,148461.967,148474.19999998808,148478.634,148861.975,,45,want
screen,html.Screen,2_1_0_1_46,2022-02-02T14:37:30.704Z,,,,,,,,,,,,,,,,,53,,,,,,,,,,,,,,343.5249999999942,,response,,,,99,,,,,,,Space,keypress(Space),,,,,,,,---- -- ----- -- ------ - ------- --- ----------<br>------------- ------ ------ ---- ---- ------- ----- -- ----<br>-------- ------- -- ---------- --- - --- ----- ----- ----<br>---- --- --- ----- --- ---- ---- ------- ----- ---- -------<br>--- --- -- ----- -- --- ---- to --- ---- -- ------ ------<br>--- ----- -- ----,149209.39999997616,149205.5,148845.308,148848.59999999404,148861.975,149211.982,,46,to
screen,html.Screen,2_1_0_1_47,2022-02-02T14:37:31.080Z,,,,,,,,,,,,,,,,,53,,,,,,,,,,,,,,368.51800000001094,,response,,,,99,,,,,,,Space,keypress(Space),,,,,,,,"---- -- ----- -- ------ - ------- --- ----------<br>------------- ------ ------ ---- ---- ------- ----- -- ----<br>-------- ------- -- ---------- --- - --- ----- ----- ----<br>---- --- --- ----- --- ---- ---- ------- ----- ---- -------<br>--- --- -- ----- -- --- ---- -- be, ---- -- ------ ------<br>--- ----- -- ----",149584.89999997616,149580.5,149195.315,149209.5,149211.982,149595.323,,47,"be,"
screen,html.Screen,2_1_0_1_48,2022-02-02T14:37:31.463Z,,,,,,,,,,,,,,,,,53,,,,,,,,,,,,,,367.97699998211465,,response,,,,99,,,,,,,Space,keypress(Space),,,,,,,,---- -- ----- -- ------ - ------- --- ----------<br>------------- ------ ------ ---- ---- ------- ----- -- ----<br>-------- ------- -- ---------- --- - --- ----- ----- ----<br>---- --- --- ----- --- ---- ---- ------- ----- ---- -------<br>--- --- -- ----- -- --- ---- -- --- even -- ------ ------<br>--- ----- -- ----,149967.39999997616,149963.29999998212,149578.656,149585.09999999404,149595.323,149978.664,,48,even
screen,html.Screen,2_1_0_1_49,2022-02-02T14:37:31.861Z,,,,,,,,,,,,,,,,,53,,,,,,,,,,,,,,381.7359999761684,,response,,,,99,,,,,,,Space,keypress(Space),,,,,,,,---- -- ----- -- ------ - ------- --- ----------<br>------------- ------ ------ ---- ---- ------- ----- -- ----<br>-------- ------- -- ---------- --- - --- ----- ----- ----<br>---- --- --- ----- --- ---- ---- ------- ----- ---- -------<br>--- --- -- ----- -- --- ---- -- --- ---- if ------ ------<br>--- ----- -- ----,150365.09999999404,150360.39999997616,149961.997,149967.59999999404,149978.664,150378.672,,49,if
screen,html.Screen,2_1_0_1_50,2022-02-02T14:37:32.266Z,,,,,,,,,,,,,,,,,53,,,,,,,,,,,,,,387.72799997616676,,response,,,,99,,,,,,,Space,keypress(Space),,,,,,,,---- -- ----- -- ------ - ------- --- ----------<br>------------- ------ ------ ---- ---- ------- ----- -- ----<br>-------- ------- -- ---------- --- - --- ----- ----- ----<br>---- --- --- ----- --- ---- ---- ------- ----- ---- -------<br>--- --- -- ----- -- --- ---- -- --- ---- -- that's ------<br>--- ----- -- ----,150770.29999998212,150766.39999997616,150362.005,150365.19999998808,150378.672,150778.68,,50,that's
screen,html.Screen,2_1_0_1_51,2022-02-02T14:37:32.656Z,,,,,,,,,,,,,,,,,53,,,,,,,,,,,,,,378.4199999940465,,response,,,,99,,,,,,,Space,keypress(Space),,,,,,,,---- -- ----- -- ------ - ------- --- ----------<br>------------- ------ ------ ---- ---- ------- ----- -- ----<br>-------- ------- -- ---------- --- - --- ----- ----- ----<br>---- --- --- ----- --- ---- ---- ------- ----- ---- -------<br>--- --- -- ----- -- --- ---- -- --- ---- -- ------ really<br>--- ----- -- ----,151160.09999999404,151157.09999999404,150762.013,150770.5,150778.68,151162.021,,51,really
screen,html.Screen,2_1_0_1_52,2022-02-02T14:37:33.064Z,,,,,,,,,,,,,,,,,53,,,,,,,,,,,,,,401.2789999821107,,response,,,,99,,,,,,,Space,keypress(Space),,,,,,,,---- -- ----- -- ------ - ------- --- ----------<br>------------- ------ ------ ---- ---- ------- ----- -- ----<br>-------- ------- -- ---------- --- - --- ----- ----- ----<br>---- --- --- ----- --- ---- ---- ------- ----- ---- -------<br>--- --- -- ----- -- --- ---- -- --- ---- -- ------ ------<br>not ----- -- ----,151567.79999998212,151563.29999998212,151145.354,151160.09999999404,151162.021,151578.696,,52,not
screen,html.Screen,2_1_0_1_53,2022-02-02T14:37:33.433Z,,,,,,,,,,,,,,,,,53,,,,,,,,,,,,,,354.60399998212233,,response,,,,99,,,,,,,Space,keypress(Space),,,,,,,,---- -- ----- -- ------ - ------- --- ----------<br>------------- ------ ------ ---- ---- ------- ----- -- ----<br>-------- ------- -- ---------- --- - --- ----- ----- ----<br>---- --- --- ----- --- ---- ---- ------- ----- ---- -------<br>--- --- -- ----- -- --- ---- -- --- ---- -- ------ ------<br>--- close -- ----,151937.19999998808,151933.29999998212,151562.029,151568,151578.696,151945.37,,53,close
screen,html.Screen,2_1_0_1_54,2022-02-02T14:37:33.758Z,,,,,,,,,,,,,,,,,53,,,,,,,,,,,,,,312.13000000000466,,response,,,,99,,,,,,,Space,keypress(Space),,,,,,,,---- -- ----- -- ------ - ------- --- ----------<br>------------- ------ ------ ---- ---- ------- ----- -- ----<br>-------- ------- -- ---------- --- - --- ----- ----- ----<br>---- --- --- ----- --- ---- ---- ------- ----- ---- -------<br>--- --- -- ----- -- --- ---- -- --- ---- -- ------ ------<br>--- ----- at ----,152261.29999998212,152257.5,151928.703,151937.39999997616,151945.37,152278.71,,54,at
screen,html.Screen,2_1_0_1_55,2022-02-02T14:37:34.226Z,,,,,,,,,,,,,,,,,53,,,,,,,,,,,,,,446.4899999880872,,response,,,,99,,,,,,,Space,keypress(Space),,,,,,,,---- -- ----- -- ------ - ------- --- ----------<br>------------- ------ ------ ---- ---- ------- ----- -- ----<br>-------- ------- -- ---------- --- - --- ----- ----- ----<br>---- --- --- ----- --- ---- ---- ------- ----- ---- -------<br>--- --- -- ----- -- --- ---- -- --- ---- -- ------ ------<br>--- ----- -- all.,152729.29999998212,152725.19999998808,152262.043,152261.5,152278.71,152745.386,,55,all.
Item 99,flow.Loop,2_1_0_1,2022-02-02T14:37:34.226Z,,,,,,,,,,,,,,,,,,,,,,,,,,,,,,,24447.954999988084,,completion,,,,,C,,,,,,,,,,,silence,,,,,152729.79999998212,152725.19999998808,128227.244,128229.59999999404,128277.245,152745.386,,,
Question 1,html.Screen,2_1_0_2,2022-02-02T14:37:38.420Z,,,,,,,,,,,,,,,,,,,,,,,,,,,,true,FALSE,,4174.41399998212,,response,,,,99,C,,,,,,FALSE,click #choice-2,,,,silence,,,,,156922.29999998212,156919.79999998212,152728.719,152729.89999997616,152745.386,156929.226,,,
Question 2,html.Screen,2_1_0_3,2022-02-02T14:37:41.827Z,,,,,,,,,,,,,,,,,,,,,,,,,,,,true,TRUE,,3396.3739999940444,,response,,,,99,C,,,,,,TRUE,click #choice-1,,,,silence,,,,,160328.29999998212,160325.59999999404,156912.559,156922.5,156929.226,160329.294,,,
Item 99,flow.Sequence,2_1_0,2022-02-02T14:37:41.827Z,,,,,,,,,,,,,,,,,,,,,,,,,,,,,,,42082.426999994044,,completion,,,,,,,,,,,,,,,,,,,,,160328.59999999404,160325.59999999404,118226.506,118236,118243.173,160329.294,,,
Holding screen,html.Screen,2_1_1_0,2022-02-02T14:37:51.816Z,,,,,,,,,,,,,,,,,,,,,,,,,,,,,,,10000.717000000004,,timeout,,,,,,,,,,,,,,,,,,,,,170315.59999999404,170313.344,160312.627,160328.79999998212,160329.294,170330.011,,,
screen,html.Screen,2_1_1_1_0,2022-02-02T14:37:52.371Z,,,,,,,,,,,,,,,,,54,,,,,,,,,,,,,,533.3889999761595,,response,,,,100,,,,,,,Space,keypress(Space),,,,,,,,At --- ---- --- ------ ----- ------- ---- -- --- ------- --<br>------- ---------- ------ -- ----- -- ----- -- ---- ------<br>--- ----- --- --- ------ -------- ----- --- ------ ----- --<br>----- ----- ---------- --- --- ------ ------ ---- -- ------<br>------- --- ------ ----- --- ---- ------- -- ---- --- --<br>------- ------,170870.29999998212,170863.39999997616,170313.344,170315.79999998212,170330.011,170880.022,,0,At
screen,html.Screen,2_1_1_1_1,2022-02-02T14:37:52.800Z,,,,,,,,,,,,,,,,,54,,,,,,,,,,,,,,415.57799999404233,,response,,,,100,,,,,,,Space,keypress(Space),,,,,,,,-- the ---- --- ------ ----- ------- ---- -- --- ------- --<br>------- ---------- ------ -- ----- -- ----- -- ---- ------<br>--- ----- --- --- ------ -------- ----- --- ------ ----- --<br>----- ----- ---------- --- --- ------ ------ ---- -- ------<br>------- --- ------ ----- --- ---- ------- -- ---- --- --<br>------- ------,171299.5,171295.59999999404,170863.355,170870.5,170880.022,171313.364,,1,the
screen,html.Screen,2_1_1_1_2,2022-02-02T14:37:53.181Z,,,,,,,,,,,,,,,,,54,,,,,,,,,,,,,,363.23599999403814,,response,,,,100,,,,,,,Space,keypress(Space),,,,,,,,-- --- time --- ------ ----- ------- ---- -- --- ------- --<br>------- ---------- ------ -- ----- -- ----- -- ---- ------<br>--- ----- --- --- ------ -------- ----- --- ------ ----- --<br>----- ----- ---------- --- --- ------ ------ ---- -- ------<br>------- --- ------ ----- --- ---- ------- -- ---- --- --<br>------- ------,171680.5,171676.59999999404,171296.697,171299.69999998808,171313.364,171696.705,,2,time
screen,html.Screen,2_1_1_1_3,2022-02-02T14:37:53.556Z,,,,,,,,,,,,,,,,,54,,,,,,,,,,,,,,354.7950000000128,,response,,,,100,,,,,,,Space,keypress(Space),,,,,,,,-- --- ---- the ------ ----- ------- ---- -- --- ------- --<br>------- ---------- ------ -- ----- -- ----- -- ---- ------<br>--- ----- --- --- ------ -------- ----- --- ------ ----- --<br>----- ----- ---------- --- --- ------ ------ ---- -- ------<br>------- --- ------ ----- --- ---- ------- -- ---- --- --<br>------- ------,172055.39999997616,172051.5,171680.038,171680.59999999404,171696.705,172063.379,,3,the
screen,html.Screen,2_1_1_1_4,2022-02-02T14:37:53.930Z,,,,,,,,,,,,,,,,,54,,,,,,,,,,,,,,362.2209999940533,,response,,,,100,,,,,,,Space,keypress(Space),,,,,,,,-- --- ---- --- French ----- ------- ---- -- --- ------- --<br>------- ---------- ------ -- ----- -- ----- -- ---- ------<br>--- ----- --- --- ------ -------- ----- --- ------ ----- --<br>----- ----- ---------- --- --- ------ ------ ---- -- ------<br>------- --- ------ ----- --- ---- ------- -- ---- --- --<br>------- ------,172429.39999997616,172425.59999999404,172046.712,172055.5,172063.379,172430.053,,4,French
screen,html.Screen,2_1_1_1_5,2022-02-02T14:37:54.330Z,,,,,,,,,,,,,,,,,54,,,,,,,,,,,,,,395.44699999998556,,response,,,,100,,,,,,,Space,keypress(Space),,,,,,,,-- --- ---- --- ------ crown ------- ---- -- --- ------- --<br>------- ---------- ------ -- ----- -- ----- -- ---- ------<br>--- ----- --- --- ------ -------- ----- --- ------ ----- --<br>----- ----- ---------- --- --- ------ ------ ---- -- ------<br>------- --- ------ ----- --- ---- ------- -- ---- --- --<br>------- ------,172829.39999997616,172825.5,172413.386,172429.5,172430.053,172846.728,,5,crown
screen,html.Screen,2_1_1_1_6,2022-02-02T14:37:54.967Z,,,,,,,,,,,,,,,,,54,,,,,,,,,,,,,,615.7719999999972,,response,,,,100,,,,,,,Space,keypress(Space),,,,,,,,-- --- ---- --- ------ ----- secured ---- -- --- ------- --<br>------- ---------- ------ -- ----- -- ----- -- ---- ------<br>--- ----- --- --- ------ -------- ----- --- ------ ----- --<br>----- ----- ---------- --- --- ------ ------ ---- -- ------<br>------- --- ------ ----- --- ---- ------- -- ---- --- --<br>------- ------,173466.69999998808,173462.5,172830.061,172829.5,172846.728,173480.074,,6,secured
screen,html.Screen,2_1_1_1_7,2022-02-02T14:37:55.599Z,,,,,,,,,,,,,,,,,54,,,,,,,,,,,,,,614.2259999821254,,response,,,,100,,,,,,,Space,keypress(Space),,,,,,,,-- --- ---- --- ------ ----- ------- much -- --- ------- --<br>------- ---------- ------ -- ----- -- ----- -- ---- ------<br>--- ----- --- --- ------ -------- ----- --- ------ ----- --<br>----- ----- ---------- --- --- ------ ------ ---- -- ------<br>------- --- ------ ----- --- ---- ------- -- ---- --- --<br>------- ------,174098.39999997616,174094.29999998212,173463.407,173466.89999997616,173480.074,174113.42,,7,much
screen,html.Screen,2_1_1_1_8,2022-02-02T14:37:56.020Z,,,,,,,,,,,,,,,,,54,,,,,,,,,,,,,,401.97999997614534,,response,,,,100,,,,,,,Space,keypress(Space),,,,,,,,-- --- ---- --- ------ ----- ------- ---- of --- ------- --<br>------- ---------- ------ -- ----- -- ----- -- ---- ------<br>--- ----- --- --- ------ -------- ----- --- ------ ----- --<br>----- ----- ---------- --- --- ------ ------ ---- -- ------<br>------- --- ------ ----- --- ---- ------- -- ---- --- --<br>------- ------,174519.39999997616,174515.39999997616,174096.753,174098.59999999404,174113.42,174530.095,,8,of
screen,html.Screen,2_1_1_1_9,2022-02-02T14:37:56.466Z,,,,,,,,,,,,,,,,,54,,,,,,,,,,,,,,431.304999976157,,response,,,,100,,,,,,,Space,keypress(Space),,,,,,,,-- --- ---- --- ------ ----- ------- ---- -- its ------- --<br>------- ---------- ------ -- ----- -- ----- -- ---- ------<br>--- ----- --- --- ------ -------- ----- --- ------ ----- --<br>----- ----- ---------- --- --- ------ ------ ---- -- ------<br>------- --- ------ ----- --- ---- ------- -- ---- --- --<br>------- ------,174965.29999998212,174961.39999997616,174513.428,174519.5,174530.095,174980.104,,9,its
screen,html.Screen,2_1_1_1_10,2022-02-02T14:37:56.904Z,,,,,,,,,,,,,,,,,54,,,,,,,,,,,,,,419.1959999821265,,response,,,,100,,,,,,,Space,keypress(Space),,,,,,,,-- --- ---- --- ------ ----- ------- ---- -- --- revenue --<br>------- ---------- ------ -- ----- -- ----- -- ---- ------<br>--- ----- --- --- ------ -------- ----- --- ------ ----- --<br>----- ----- ---------- --- --- ------ ------ ---- -- ------<br>------- --- ------ ----- --- ---- ------- -- ---- --- --<br>------- ------,175403.09999999404,175399.29999998212,174963.437,174965.39999997616,174980.104,175413.446,,10,revenue
screen,html.Screen,2_1_1_1_11,2022-02-02T14:37:57.374Z,,,,,,,,,,,,,,,,,54,,,,,,,,,,,,,,455.85399998212233,,response,,,,100,,,,,,,Space,keypress(Space),,,,,,,,-- --- ---- --- ------ ----- ------- ---- -- --- ------- by<br>------- ---------- ------ -- ----- -- ----- -- ---- ------<br>--- ----- --- --- ------ -------- ----- --- ------ ----- --<br>----- ----- ---------- --- --- ------ ------ ---- -- ------<br>------- --- ------ ----- --- ---- ------- -- ---- --- --<br>------- ------,175873.29999998212,175869.29999998212,175396.779,175403.19999998808,175413.446,175880.122,,11,by
screen,html.Screen,2_1_1_1_12,2022-02-02T14:37:57.832Z,,,,,,,,,,,,,,,,,54,,,,,,,,,,,,,,446.9779999940365,,response,,,,100,,,,,,,Space,keypress(Space),,,,,,,,-- --- ---- --- ------ ----- ------- ---- -- --- ------- --<br>issuing ---------- ------ -- ----- -- ----- -- ---- ------<br>--- ----- --- --- ------ -------- ----- --- ------ ----- --<br>----- ----- ---------- --- --- ------ ------ ---- -- ------<br>------- --- ------ ----- --- ---- ------- -- ---- --- --<br>------- ------,176331.09999999404,176327.09999999404,175863.455,175873.39999997616,175880.122,176347.293,,12,issuing
screen,html.Screen,2_1_1_1_13,2022-02-02T14:37:58.619Z,,,,,,,,,,,,,,,,,54,,,,,,,,,,,,,,766.906999988074,,response,,,,100,,,,,,,Space,keypress(Space),,,,,,,,-- --- ---- --- ------ ----- ------- ---- -- --- ------- --<br>------- government ------ -- ----- -- ----- -- ---- ------<br>--- ----- --- --- ------ -------- ----- --- ------ ----- --<br>----- ----- ---------- --- --- ------ ------ ---- -- ------<br>------- --- ------ ----- --- ---- ------- -- ---- --- --<br>------- ------,177118.19999998808,177114.19999998808,176330.626,176331.39999997616,176347.293,177130.642,,13,government
screen,html.Screen,2_1_1_1_14,2022-02-02T14:37:59.110Z,,,,,,,,,,,,,,,,,54,,,,,,,,,,,,,,474.5579999880865,,response,,,,100,,,,,,,Space,keypress(Space),,,,,,,,-- --- ---- --- ------ ----- ------- ---- -- --- ------- --<br>------- ---------- bonds. -- ----- -- ----- -- ---- ------<br>--- ----- --- --- ------ -------- ----- --- ------ ----- --<br>----- ----- ---------- --- --- ------ ------ ---- -- ------<br>------- --- ------ ----- --- ---- ------- -- ---- --- --<br>------- ------,177609.09999999404,177605.19999998808,177113.975,177118.39999997616,177130.642,177613.985,,14,bonds.
screen,html.Screen,2_1_1_1_15,2022-02-02T14:37:59.713Z,,,,,,,,,,,,,,,,,54,,,,,,,,,,,,,,594.214999988093,,response,,,,100,,,,,,,Space,keypress(Space),,,,,,,,-- --- ---- --- ------ ----- ------- ---- -- --- ------- --<br>------- ---------- ------ In ----- -- ----- -- ---- ------<br>--- ----- --- --- ------ -------- ----- --- ------ ----- --<br>----- ----- ---------- --- --- ------ ------ ---- -- ------<br>------- --- ------ ----- --- ---- ------- -- ---- --- --<br>------- ------,178212.09999999404,178208.19999998808,177597.318,177609.19999998808,177613.985,178213.997,,15,In
screen,html.Screen,2_1_1_1_16,2022-02-02T14:38:00.854Z,,,,,,,,,,,,,,,,,54,,,,,,,,,,,,,,1135.002999999997,,response,,,,100,,,,,,,Space,keypress(Space),,,,,,,,"-- --- ---- --- ------ ----- ------- ---- -- --- ------- --<br>------- ---------- ------ -- 1727, -- ----- -- ---- ------<br>--- ----- --- --- ------ -------- ----- --- ------ ----- --<br>----- ----- ---------- --- --- ------ ------ ---- -- ------<br>------- --- ------ ----- --- ---- ------- -- ---- --- --<br>------- ------",179352.89999997616,179349,178197.33,178212.29999998212,178213.997,179364.02,,16,"1727,"
screen,html.Screen,2_1_1_1_17,2022-02-02T14:38:01.729Z,,,,,,,,,,,,,,,,,54,,,,,,,,,,,,,,859.9800000000105,,response,,,,100,,,,,,,Space,keypress(Space),,,,,,,,-- --- ---- --- ------ ----- ------- ---- -- --- ------- --<br>------- ---------- ------ -- ----- in ----- -- ---- ------<br>--- ----- --- --- ------ -------- ----- --- ------ ----- --<br>----- ----- ---------- --- --- ------ ------ ---- -- ------<br>------- --- ------ ----- --- ---- ------- -- ---- --- --<br>------- ------,180227.79999998212,180224,179347.353,179353.09999999404,179364.02,180230.704,,17,in
screen,html.Screen,2_1_1_1_18,2022-02-02T14:38:02.155Z,,,,,,,,,,,,,,,,,54,,,,,,,,,,,,,,419.2960000000021,,response,,,,100,,,,,,,Space,keypress(Space),,,,,,,,-- --- ---- --- ------ ----- ------- ---- -- --- ------- --<br>------- ---------- ------ -- ----- -- order -- ---- ------<br>--- ----- --- --- ------ -------- ----- --- ------ ----- --<br>----- ----- ---------- --- --- ------ ------ ---- -- ------<br>------- --- ------ ----- --- ---- ------- -- ---- --- --<br>------- ------,180653.79999998212,180650,180214.037,180228,180230.704,180664.046,,18,order
screen,html.Screen,2_1_1_1_19,2022-02-02T14:38:02.727Z,,,,,,,,,,,,,,,,,54,,,,,,,,,,,,,,557.853999976156,,response,,,,100,,,,,,,Space,keypress(Space),,,,,,,,-- --- ---- --- ------ ----- ------- ---- -- --- ------- --<br>------- ---------- ------ -- ----- -- ----- to ---- ------<br>--- ----- --- --- ------ -------- ----- --- ------ ----- --<br>----- ----- ---------- --- --- ------ ------ ---- -- ------<br>------- --- ------ ----- --- ---- ------- -- ---- --- --<br>------- ------,181226.19999998808,181221.89999997616,180647.379,180653.89999997616,180664.046,181230.724,,19,to
screen,html.Screen,2_1_1_1_20,2022-02-02T14:38:03.192Z,,,,,,,,,,,,,,,,,54,,,,,,,,,,,,,,457.0759999821312,,response,,,,100,,,,,,,Space,keypress(Space),,,,,,,,-- --- ---- --- ------ ----- ------- ---- -- --- ------- --<br>------- ---------- ------ -- ----- -- ----- -- save ------<br>--- ----- --- --- ------ -------- ----- --- ------ ----- --<br>----- ----- ---------- --- --- ------ ------ ---- -- ------<br>------- --- ------ ----- --- ---- ------- -- ---- --- --<br>------- ------,181691,181687.79999998212,181214.057,181226.39999997616,181230.724,181697.4,,20,save
screen,html.Screen,2_1_1_1_21,2022-02-02T14:38:03.680Z,,,,,,,,,,,,,,,,,54,,,,,,,,,,,,,,477.3999999821244,,response,,,,100,,,,,,,Space,keypress(Space),,,,,,,,"-- --- ---- --- ------ ----- ------- ---- -- --- ------- --<br>------- ---------- ------ -- ----- -- ----- -- ---- money,<br>--- ----- --- --- ------ -------- ----- --- ------ ----- --<br>----- ----- ---------- --- --- ------ ------ ---- -- ------<br>------- --- ------ ----- --- ---- ------- -- ---- --- --<br>------- ------",182178.59999999404,182174.79999998212,181680.733,181691.09999999404,181697.4,182180.743,,21,"money,"
screen,html.Screen,2_1_1_1_22,2022-02-02T14:38:04.108Z,,,,,,,,,,,,,,,,,54,,,,,,,,,,,,,,422.1569999761705,,response,,,,100,,,,,,,Space,keypress(Space),,,,,,,,-- --- ---- --- ------ ----- ------- ---- -- --- ------- --<br>------- ---------- ------ -- ----- -- ----- -- ---- ------<br>the ----- --- --- ------ -------- ----- --- ------ ----- --<br>----- ----- ---------- --- --- ------ ------ ---- -- ------<br>------- --- ------ ----- --- ---- ------- -- ---- --- --<br>------- ------,182606.69999998808,182602.89999997616,182164.076,182178.79999998212,182180.743,182614.085,,22,the
screen,html.Screen,2_1_1_1_23,2022-02-02T14:38:04.529Z,,,,,,,,,,,,,,,,,54,,,,,,,,,,,,,,409.8149999761663,,response,,,,100,,,,,,,Space,keypress(Space),,,,,,,,-- --- ---- --- ------ ----- ------- ---- -- --- ------- --<br>------- ---------- ------ -- ----- -- ----- -- ---- ------<br>--- state --- --- ------ -------- ----- --- ------ ----- --<br>----- ----- ---------- --- --- ------ ------ ---- -- ------<br>------- --- ------ ----- --- ---- ------- -- ---- --- --<br>------- ------,183027.89999997616,183023.89999997616,182597.418,182606.79999998212,182614.085,183030.76,,23,state
screen,html.Screen,2_1_1_1_24,2022-02-02T14:38:04.956Z,,,,,,,,,,,,,,,,,54,,,,,,,,,,,,,,420.0399999821093,,response,,,,100,,,,,,,Space,keypress(Space),,,,,,,,-- --- ---- --- ------ ----- ------- ---- -- --- ------- --<br>------- ---------- ------ -- ----- -- ----- -- ---- ------<br>--- ----- cut --- ------ -------- ----- --- ------ ----- --<br>----- ----- ---------- --- --- ------ ------ ---- -- ------<br>------- --- ------ ----- --- ---- ------- -- ---- --- --<br>------- ------,183454.69999998808,183450.79999998212,183014.093,183028,183030.76,183464.102,,24,cut
screen,html.Screen,2_1_1_1_25,2022-02-02T14:38:05.397Z,,,,,,,,,,,,,,,,,54,,,,,,,,,,,,,,427.6979999821051,,response,,,,100,,,,,,,Space,keypress(Space),,,,,,,,-- --- ---- --- ------ ----- ------- ---- -- --- ------- --<br>------- ---------- ------ -- ----- -- ----- -- ---- ------<br>--- ----- --- the ------ -------- ----- --- ------ ----- --<br>----- ----- ---------- --- --- ------ ------ ---- -- ------<br>------- --- ------ ----- --- ---- ------- -- ---- --- --<br>------- ------,183895.69999998808,183891.79999998212,183447.435,183454.89999997616,183464.102,183897.444,,25,the
screen,html.Screen,2_1_1_1_26,2022-02-02T14:38:05.959Z,,,,,,,,,,,,,,,,,54,,,,,,,,,,,,,,556.35599998213,,response,,,,100,,,,,,,Space,keypress(Space),,,,,,,,-- --- ---- --- ------ ----- ------- ---- -- --- ------- --<br>------- ---------- ------ -- ----- -- ----- -- ---- ------<br>--- ----- --- --- bonds' -------- ----- --- ------ ----- --<br>----- ----- ---------- --- --- ------ ------ ---- -- ------<br>------- --- ------ ----- --- ---- ------- -- ---- --- --<br>------- ------,184457.59999999404,184453.79999998212,183880.777,183895.79999998212,183897.444,184464.122,,26,bonds'
screen,html.Screen,2_1_1_1_27,2022-02-02T14:38:06.431Z,,,,,,,,,,,,,,,,,54,,,,,,,,,,,,,,461.6779999821156,,response,,,,100,,,,,,,Space,keypress(Space),,,,,,,,-- --- ---- --- ------ ----- ------- ---- -- --- ------- --<br>------- ---------- ------ -- ----- -- ----- -- ---- ------<br>--- ----- --- --- ------ interest ----- --- ------ ----- --<br>----- ----- ---------- --- --- ------ ------ ---- -- ------<br>------- --- ------ ----- --- ---- ------- -- ---- --- --<br>------- ------,184929.69999998808,184925.79999998212,184447.455,184457.79999998212,184464.122,184930.798,,27,interest
screen,html.Screen,2_1_1_1_28,2022-02-02T14:38:07.004Z,,,,,,,,,,,,,,,,,54,,,,,,,,,,,,,,566.9019999880693,,response,,,,100,,,,,,,Space,keypress(Space),,,,,,,,-- --- ---- --- ------ ----- ------- ---- -- --- ------- --<br>------- ---------- ------ -- ----- -- ----- -- ---- ------<br>--- ----- --- --- ------ -------- rate. --- ------ ----- --<br>----- ----- ---------- --- --- ------ ------ ---- -- ------<br>------- --- ------ ----- --- ---- ------- -- ---- --- --<br>------- ------,185502.19999998808,185497.69999998808,184914.131,184929.79999998212,184930.798,185514.143,,28,rate.
screen,html.Screen,2_1_1_1_29,2022-02-02T14:38:07.484Z,,,,,,,,,,,,,,,,,54,,,,,,,,,,,,,,464.5569999880681,,response,,,,100,,,,,,,Space,keypress(Space),,,,,,,,-- --- ---- --- ------ ----- ------- ---- -- --- ------- --<br>------- ---------- ------ -- ----- -- ----- -- ---- ------<br>--- ----- --- --- ------ -------- ----- The ------ ----- --<br>----- ----- ---------- --- --- ------ ------ ---- -- ------<br>------- --- ------ ----- --- ---- ------- -- ---- --- --<br>------- ------,185982.79999998212,185978.69999998808,185497.476,185502.39999997616,185514.143,185997.486,,29,The
screen,html.Screen,2_1_1_1_30,2022-02-02T14:38:07.955Z,,,,,,,,,,,,,,,,,54,,,,,,,,,,,,,,452.1139999940351,,response,,,,100,,,,,,,Space,keypress(Space),,,,,,,,-- --- ---- --- ------ ----- ------- ---- -- --- ------- --<br>------- ---------- ------ -- ----- -- ----- -- ---- ------<br>--- ----- --- --- ------ -------- ----- --- market ----- --<br>----- ----- ---------- --- --- ------ ------ ---- -- ------<br>------- --- ------ ----- --- ---- ------- -- ---- --- --<br>------- ------,186453.59999999404,186449.59999999404,185980.819,185982.89999997616,185997.486,186464.737,,30,market
screen,html.Screen,2_1_1_1_31,2022-02-02T14:38:08.372Z,,,,,,,,,,,,,,,,,54,,,,,,,,,,,,,,401.7630000000063,,response,,,,100,,,,,,,Space,keypress(Space),,,,,,,,-- --- ---- --- ------ ----- ------- ---- -- --- ------- --<br>------- ---------- ------ -- ----- -- ----- -- ---- ------<br>--- ----- --- --- ------ -------- ----- --- ------ value --<br>----- ----- ---------- --- --- ------ ------ ---- -- ------<br>------- --- ------ ----- --- ---- ------- -- ---- --- --<br>------- ------,186870.69999998808,186866.5,186448.07,186453.79999998212,186464.737,186881.412,,31,value
screen,html.Screen,2_1_1_1_32,2022-02-02T14:38:08.812Z,,,,,,,,,,,,,,,,,54,,,,,,,,,,,,,,424.98799997614697,,response,,,,100,,,,,,,Space,keypress(Space),,,,,,,,-- --- ---- --- ------ ----- ------- ---- -- --- ------- --<br>------- ---------- ------ -- ----- -- ----- -- ---- ------<br>--- ----- --- --- ------ -------- ----- --- ------ ----- of<br>----- ----- ---------- --- --- ------ ------ ---- -- ------<br>------- --- ------ ----- --- ---- ------- -- ---- --- --<br>------- ------,187310.5,187306.39999997616,186864.745,186870.89999997616,186881.412,187314.754,,32,of
screen,html.Screen,2_1_1_1_33,2022-02-02T14:38:09.203Z,,,,,,,,,,,,,,,,,54,,,,,,,,,,,,,,382.74600000001374,,response,,,,100,,,,,,,Space,keypress(Space),,,,,,,,-- --- ---- --- ------ ----- ------- ---- -- --- ------- --<br>------- ---------- ------ -- ----- -- ----- -- ---- ------<br>--- ----- --- --- ------ -------- ----- --- ------ ----- --<br>these ----- ---------- --- --- ------ ------ ---- -- ------<br>------- --- ------ ----- --- ---- ------- -- ---- --- --<br>------- ------,187701.5,187697.5,187298.087,187310.69999998808,187314.754,187714.762,,33,these
screen,html.Screen,2_1_1_1_34,2022-02-02T14:38:09.674Z,,,,,,,,,,,,,,,,,54,,,,,,,,,,,,,,453.83799999405164,,response,,,,100,,,,,,,Space,keypress(Space),,,,,,,,-- --- ---- --- ------ ----- ------- ---- -- --- ------- --<br>------- ---------- ------ -- ----- -- ----- -- ---- ------<br>--- ----- --- --- ------ -------- ----- --- ------ ----- --<br>----- bonds ---------- --- --- ------ ------ ---- -- ------<br>------- --- ------ ----- --- ---- ------- -- ---- --- --<br>------- ------,188172.5,188168.59999999404,187698.095,187701.69999998808,187714.762,188181.438,,34,bonds
screen,html.Screen,2_1_1_1_35,2022-02-02T14:38:10.161Z,,,,,,,,,,,,,,,,,54,,,,,,,,,,,,,,474.06200000000536,,response,,,,100,,,,,,,Space,keypress(Space),,,,,,,,"-- --- ---- --- ------ ----- ------- ---- -- --- ------- --<br>------- ---------- ------ -- ----- -- ----- -- ---- ------<br>--- ----- --- --- ------ -------- ----- --- ------ ----- --<br>----- ----- plummeted, --- --- ------ ------ ---- -- ------<br>------- --- ------ ----- --- ---- ------- -- ---- --- --<br>------- ------",188659.39999997616,188655.5,188164.771,188172.59999999404,188181.438,188664.781,,35,"plummeted,"
screen,html.Screen,2_1_1_1_36,2022-02-02T14:38:10.607Z,,,,,,,,,,,,,,,,,54,,,,,,,,,,,,,,436.7190000000119,,response,,,,100,,,,,,,Space,keypress(Space),,,,,,,,-- --- ---- --- ------ ----- ------- ---- -- --- ------- --<br>------- ---------- ------ -- ----- -- ----- -- ---- ------<br>--- ----- --- --- ------ -------- ----- --- ------ ----- --<br>----- ----- ---------- and --- ------ ------ ---- -- ------<br>------- --- ------ ----- --- ---- ------- -- ---- --- --<br>------- ------,189105.19999998808,189101.5,188648.114,188659.5,188664.781,189114.79,,36,and
screen,html.Screen,2_1_1_1_37,2022-02-02T14:38:10.977Z,,,,,,,,,,,,,,,,,54,,,,,,,,,,,,,,355.60999997615,,response,,,,100,,,,,,,Space,keypress(Space),,,,,,,,-- --- ---- --- ------ ----- ------- ---- -- --- ------- --<br>------- ---------- ------ -- ----- -- ----- -- ---- ------<br>--- ----- --- --- ------ -------- ----- --- ------ ----- --<br>----- ----- ---------- --- the ------ ------ ---- -- ------<br>------- --- ------ ----- --- ---- ------- -- ---- --- --<br>------- ------,189474.79999998212,189470.39999997616,189098.123,189105.39999997616,189114.79,189481.464,,37,the
screen,html.Screen,2_1_1_1_38,2022-02-02T14:38:11.363Z,,,,,,,,,,,,,,,,,54,,,,,,,,,,,,,,375.0359999999928,,response,,,,100,,,,,,,Space,keypress(Space),,,,,,,,-- --- ---- --- ------ ----- ------- ---- -- --- ------- --<br>------- ---------- ------ -- ----- -- ----- -- ---- ------<br>--- ----- --- --- ------ -------- ----- --- ------ ----- --<br>----- ----- ---------- --- --- market ------ ---- -- ------<br>------- --- ------ ----- --- ---- ------- -- ---- --- --<br>------- ------,189860.69999998808,189856.5,189464.797,189475,189481.464,189864.805,,38,market
screen,html.Screen,2_1_1_1_39,2022-02-02T14:38:11.714Z,,,,,,,,,,,,,,,,,54,,,,,,,,,,,,,,344.5949999761651,,response,,,,100,,,,,,,Space,keypress(Space),,,,,,,,-- --- ---- --- ------ ----- ------- ---- -- --- ------- --<br>------- ---------- ------ -- ----- -- ----- -- ---- ------<br>--- ----- --- --- ------ -------- ----- --- ------ ----- --<br>----- ----- ---------- --- --- ------ became ---- -- ------<br>------- --- ------ ----- --- ---- ------- -- ---- --- --<br>------- ------,190212.5,190209.39999997616,189848.138,189861,189864.805,190214.812,,39,became
screen,html.Screen,2_1_1_1_40,2022-02-02T14:38:12.088Z,,,,,,,,,,,,,,,,,54,,,,,,,,,,,,,,367.5879999761528,,response,,,,100,,,,,,,Space,keypress(Space),,,,,,,,-- --- ---- --- ------ ----- ------- ---- -- --- ------- --<br>------- ---------- ------ -- ----- -- ----- -- ---- ------<br>--- ----- --- --- ------ -------- ----- --- ------ ----- --<br>----- ----- ---------- --- --- ------ ------ wary -- ------<br>------- --- ------ ----- --- ---- ------- -- ---- --- --<br>------- ------,190586.59999999404,190582.39999997616,190198.145,190212.5,190214.812,190598.153,,40,wary
screen,html.Screen,2_1_1_1_41,2022-02-02T14:38:12.619Z,,,,,,,,,,,,,,,,,54,,,,,,,,,,,,,,514.1469999821275,,response,,,,100,,,,,,,Space,keypress(Space),,,,,,,,-- --- ---- --- ------ ----- ------- ---- -- --- ------- --<br>------- ---------- ------ -- ----- -- ----- -- ---- ------<br>--- ----- --- --- ------ -------- ----- --- ------ ----- --<br>----- ----- ---------- --- --- ------ ------ ---- of ------<br>------- --- ------ ----- --- ---- ------- -- ---- --- --<br>------- ------,191116.69999998808,191112.29999998212,190581.486,190586.69999998808,190598.153,191131.497,,41,of
screen,html.Screen,2_1_1_1_42,2022-02-02T14:38:13.077Z,,,,,,,,,,,,,,,,,54,,,,,,,,,,,,,,438.8029999821156,,response,,,,100,,,,,,,Space,keypress(Space),,,,,,,,-- --- ---- --- ------ ----- ------- ---- -- --- ------- --<br>------- ---------- ------ -- ----- -- ----- -- ---- ------<br>--- ----- --- --- ------ -------- ----- --- ------ ----- --<br>----- ----- ---------- --- --- ------ ------ ---- -- French<br>------- --- ------ ----- --- ---- ------- -- ---- --- --<br>------- ------,191574.59999999404,191570.29999998212,191114.83,191116.89999997616,191131.497,191581.506,,42,French
screen,html.Screen,2_1_1_1_43,2022-02-02T14:38:13.505Z,,,,,,,,,,,,,,,,,54,,,,,,,,,,,,,,417.79399998212466,,response,,,,100,,,,,,,Space,keypress(Space),,,,,,,,-- --- ---- --- ------ ----- ------- ---- -- --- ------- --<br>------- ---------- ------ -- ----- -- ----- -- ---- ------<br>--- ----- --- --- ------ -------- ----- --- ------ ----- --<br>----- ----- ---------- --- --- ------ ------ ---- -- ------<br>credit. --- ------ ----- --- ---- ------- -- ---- --- --<br>------- ------,192003.09999999404,191999.29999998212,191564.839,191574.79999998212,191581.506,192014.848,,43,credit.
screen,html.Screen,2_1_1_1_44,2022-02-02T14:38:13.971Z,,,,,,,,,,,,,,,,,54,,,,,,,,,,,,,,450.35199998808093,,response,,,,100,,,,,,,Space,keypress(Space),,,,,,,,-- --- ---- --- ------ ----- ------- ---- -- --- ------- --<br>------- ---------- ------ -- ----- -- ----- -- ---- ------<br>--- ----- --- --- ------ -------- ----- --- ------ ----- --<br>----- ----- ---------- --- --- ------ ------ ---- -- ------<br>------- The ------ ----- --- ---- ------- -- ---- --- --<br>------- ------,192469.19999998808,192465.19999998808,191998.181,192003.39999997616,192014.848,192481.524,,44,The
screen,html.Screen,2_1_1_1_45,2022-02-02T14:38:14.341Z,,,,,,,,,,,,,,,,,54,,,,,,,,,,,,,,353.7759999821137,,response,,,,100,,,,,,,Space,keypress(Space),,,,,,,,-- --- ---- --- ------ ----- ------- ---- -- --- ------- --<br>------- ---------- ------ -- ----- -- ----- -- ---- ------<br>--- ----- --- --- ------ -------- ----- --- ------ ----- --<br>----- ----- ---------- --- --- ------ ------ ---- -- ------<br>------- --- French ----- --- ---- ------- -- ---- --- --<br>------- ------,192839.09999999404,192835.29999998212,192464.857,192469.29999998212,192481.524,192848.198,,45,French
screen,html.Screen,2_1_1_1_46,2022-02-02T14:38:14.793Z,,,,,,,,,,,,,,,,,54,,,,,,,,,,,,,,439.0019999880751,,response,,,,100,,,,,,,Space,keypress(Space),,,,,,,,-- --- ---- --- ------ ----- ------- ---- -- --- ------- --<br>------- ---------- ------ -- ----- -- ----- -- ---- ------<br>--- ----- --- --- ------ -------- ----- --- ------ ----- --<br>----- ----- ---------- --- --- ------ ------ ---- -- ------<br>------- --- ------ state --- ---- ------- -- ---- --- --<br>------- ------,193291.29999998212,193287.19999998808,192831.531,192839.29999998212,192848.198,193298.207,,46,state
screen,html.Screen,2_1_1_1_47,2022-02-02T14:38:15.181Z,,,,,,,,,,,,,,,,,54,,,,,,,,,,,,,,376.9929999880842,,response,,,,100,,,,,,,Space,keypress(Space),,,,,,,,-- --- ---- --- ------ ----- ------- ---- -- --- ------- --<br>------- ---------- ------ -- ----- -- ----- -- ---- ------<br>--- ----- --- --- ------ -------- ----- --- ------ ----- --<br>----- ----- ---------- --- --- ------ ------ ---- -- ------<br>------- --- ------ ----- was ---- ------- -- ---- --- --<br>------- ------,193679,193675.19999998808,193281.54,193291.39999997616,193298.207,193681.548,,47,was
screen,html.Screen,2_1_1_1_48,2022-02-02T14:38:15.704Z,,,,,,,,,,,,,,,,,54,,,,,,,,,,,,,,515.4519999999902,,response,,,,100,,,,,,,Space,keypress(Space),,,,,,,,-- --- ---- --- ------ ----- ------- ---- -- --- ------- --<br>------- ---------- ------ -- ----- -- ----- -- ---- ------<br>--- ----- --- --- ------ -------- ----- --- ------ ----- --<br>----- ----- ---------- --- --- ------ ------ ---- -- ------<br>------- --- ------ ----- --- left ------- -- ---- --- --<br>------- ------,194201.59999999404,194197,193664.881,193679.09999999404,193681.548,194214.892,,48,left
screen,html.Screen,2_1_1_1_49,2022-02-02T14:38:16.104Z,,,,,,,,,,,,,,,,,54,,,,,,,,,,,,,,383.10800000000745,,response,,,,100,,,,,,,Space,keypress(Space),,,,,,,,-- --- ---- --- ------ ----- ------- ---- -- --- ------- --<br>------- ---------- ------ -- ----- -- ----- -- ---- ------<br>--- ----- --- --- ------ -------- ----- --- ------ ----- --<br>----- ----- ---------- --- --- ------ ------ ---- -- ------<br>------- --- ------ ----- --- ---- without -- ---- --- --<br>------- ------,194602.09999999404,194598,194198.225,194201.79999998212,194214.892,194631.567,,49,without
screen,html.Screen,2_1_1_1_50,2022-02-02T14:38:16.605Z,,,,,,,,,,,,,,,,,54,,,,,,,,,,,,,,467.33299997614813,,response,,,,100,,,,,,,Space,keypress(Space),,,,,,,,-- --- ---- --- ------ ----- ------- ---- -- --- ------- --<br>------- ---------- ------ -- ----- -- ----- -- ---- ------<br>--- ----- --- --- ------ -------- ----- --- ------ ----- --<br>----- ----- ---------- --- --- ------ ------ ---- -- ------<br>------- --- ------ ----- --- ---- ------- an ---- --- --<br>------- ------,195102.89999997616,195098.89999997616,194614.9,194602.29999998212,194631.567,195114.91,,50,an
screen,html.Screen,2_1_1_1_51,2022-02-02T14:38:17.107Z,,,,,,,,,,,,,,,,,54,,,,,,,,,,,,,,485.18999999403604,,response,,,,100,,,,,,,Space,keypress(Space),,,,,,,,-- --- ---- --- ------ ----- ------- ---- -- --- ------- --<br>------- ---------- ------ -- ----- -- ----- -- ---- ------<br>--- ----- --- --- ------ -------- ----- --- ------ ----- --<br>----- ----- ---------- --- --- ------ ------ ---- -- ------<br>------- --- ------ ----- --- ---- ------- -- easy --- --<br>------- ------,195604.69999998808,195600.09999999404,195098.243,195103.09999999404,195114.91,195614.92,,51,easy
screen,html.Screen,2_1_1_1_52,2022-02-02T14:38:17.509Z,,,,,,,,,,,,,,,,,54,,,,,,,,,,,,,,388.17999999402673,,response,,,,100,,,,,,,Space,keypress(Space),,,,,,,,-- --- ---- --- ------ ----- ------- ---- -- --- ------- --<br>------- ---------- ------ -- ----- -- ----- -- ---- ------<br>--- ----- --- --- ------ -------- ----- --- ------ ----- --<br>----- ----- ---------- --- --- ------ ------ ---- -- ------<br>------- --- ------ ----- --- ---- ------- -- ---- way --<br>------- ------,196006.89999997616,196003.09999999404,195598.253,195604.79999998212,195614.92,196014.928,,52,way
screen,html.Screen,2_1_1_1_53,2022-02-02T14:38:17.959Z,,,,,,,,,,,,,,,,,54,,,,,,,,,,,,,,439.07199999998556,,response,,,,100,,,,,,,Space,keypress(Space),,,,,,,,-- --- ---- --- ------ ----- ------- ---- -- --- ------- --<br>------- ---------- ------ -- ----- -- ----- -- ---- ------<br>--- ----- --- --- ------ -------- ----- --- ------ ----- --<br>----- ----- ---------- --- --- ------ ------ ---- -- ------<br>------- --- ------ ----- --- ---- ------- -- ---- --- of<br>------- ------,196456.79999998212,196454,195998.261,196007,196014.928,196465.454,,53,of
screen,html.Screen,2_1_1_1_54,2022-02-02T14:38:18.521Z,,,,,,,,,,,,,,,,,54,,,,,,,,,,,,,,548.4459999761602,,response,,,,100,,,,,,,Space,keypress(Space),,,,,,,,-- --- ---- --- ------ ----- ------- ---- -- --- ------- --<br>------- ---------- ------ -- ----- -- ----- -- ---- ------<br>--- ----- --- --- ------ -------- ----- --- ------ ----- --<br>----- ----- ---------- --- --- ------ ------ ---- -- ------<br>------- --- ------ ----- --- ---- ------- -- ---- --- --<br>raising ------,197018.89999997616,197013.89999997616,196448.787,196457,196465.454,197032.132,,54,raising
screen,html.Screen,2_1_1_1_55,2022-02-02T14:38:19.261Z,,,,,,,,,,,,,,,,,54,,,,,,,,,,,,,,722.8679999999877,,response,,,,100,,,,,,,Space,keypress(Space),,,,,,,,-- --- ---- --- ------ ----- ------- ---- -- --- ------- --<br>------- ---------- ------ -- ----- -- ----- -- ---- ------<br>--- ----- --- --- ------ -------- ----- --- ------ ----- --<br>----- ----- ---------- --- --- ------ ------ ---- -- ------<br>------- --- ------ ----- --- ---- ------- -- ---- --- --<br>------- money.,197758.69999998808,197755,197015.465,197019.09999999404,197032.132,197765.48,,55,money.
Item 100,flow.Loop,2_1_1_1,2022-02-02T14:38:19.261Z,,,,,,,,,,,,,,,,,,,,,,,,,,,,,,,27424.989,,completion,,,,,C,,,,,,,,,,,silence,,,,,197759.09999999404,197755,170313.344,170315.69999998808,170330.011,197765.48,,,
Question 1,html.Screen,2_1_1_2,2022-02-02T14:38:21.379Z,,,,,,,,,,,,,,,,,,,,,,,,,,,,true,TRUE,,2108.0199999999895,,response,,,,100,C,,,,,,TRUE,click #choice-1,,,,silence,,,,,199876.19999998808,199873.5,197748.813,197759.19999998808,197765.48,199882.189,,,
Question 2,html.Screen,2_1_1_3,2022-02-02T14:38:23.318Z,,,,,,,,,,,,,,,,,,,,,,,,,,,,true,FALSE,,1930.9109999940265,,response,,,,100,C,,,,,,FALSE,click #choice-2,,,,silence,,,,,201815.89999997616,201813.09999999404,199865.522,199876.5,199882.189,201832.228,,,
Item 100,flow.Sequence,2_1_1,2022-02-02T14:38:23.318Z,,,,,,,,,,,,,,,,,,,,,,,,,,,,,,,41483.805999994045,,completion,,,,,,,,,,,,,,,,,,,,,201816.09999999404,201813.09999999404,160312.627,160328.69999998808,160329.294,201832.228,,,
End of Practice,html.Page,2_1_2,2022-02-02T14:38:29.638Z,,,,,,,,,,,,,,,,,,,,,,,,,,,,,,,6302.471999988076,,form submission,,,,,,,,,,,,,,,,,,,,,208135,208134.69999998808,201815.561,201816.19999998808,201832.228,208149.585,,,
Practice,flow.Sequence,2_1,2022-02-02T14:38:29.638Z,,,,,,,,,,,,,,,,,,,,,,,,,,,,,,,89891.52699998808,,completion,,,,,,,,,,,,,,,,,,,,,208135.29999998212,208134.69999998808,118226.506,118235.89999997616,118243.173,208149.585,,,
Trap_instruction,html.Page,2_2_0,2022-02-02T14:38:38.031Z,,,,,,,,,,,,,,,,,,,,,,,,,,,,,,,8378.415000000008,,form submission,,,,,,,,,,,,,,,,,,,,,216528.39999997616,216528,208132.918,208135.5,208149.585,216566.42,,,
trap_trial,html.Screen,2_2_1,2022-02-02T14:38:41.437Z,,,,,,,,,,,,,,,,,,,,,,,,,,,,true,1,,3365.6799999940267,,response,,,,,,,,,,,1,click #choice-1,,,,,,,,,219934.39999997616,219932.09999999404,216516.419,216528.59999999404,216566.42,219949.821,,,
end of trap trial,html.Page,2_2_2,2022-02-02T14:38:42.913Z,,,,,,,,,,,,,,,,,,,,,,,,,,,,,,,1459.7789999940433,,form submission,,,,,,,,,,,,,,,,,,,,,221409.89999997616,221409.59999999404,219933.154,219934.5,219949.821,221417.12,,,
Trap 1,flow.Sequence,2_2,2022-02-02T14:38:42.913Z,,,,,,,,,,,,,,,,,,,,,,,,,,,,,,,13260.014999994048,,completion,,,,,,,,,,,,,,,,,,,,,221410.09999999404,221409.59999999404,208132.918,208135.5,208149.585,221417.12,,,
Standby,html.Page,2_3_0,2022-02-02T14:38:50.906Z,,,,,,,,,,,,,,,,,,,,,,,,,,,,,,,8000.1600000000035,,timeout,,,,,,,,,,,,,,,,,,,,,229402.69999998808,229400.613,221400.453,221410.39999997616,221417.12,229417.28,,,
Holding screen,html.Screen,2_3_1_0_0,2022-02-02T14:38:57.907Z,,,,,,,,,,,,,,,,,,,,,,,,,,,,,,,7000.635999999999,,timeout,,,,,,,,,,,,,,,,,,,,,236403,236401.249,229400.613,229403,229417.28,236417.916,,,
screen,html.Screen,2_3_1_0_1_0,2022-02-02T14:38:58.874Z,,,,,,,,,,,,,,,,,51,,,,,,,,,,,,,,948.5840000000026,,response,,,,13,C,,,,,,Space,keypress(Space),,,,instrumental,,,,American -------- --- --- ---- --- --- ------ -- --------<br>---- --------- --- ------- ------------ ---------- ---------<br>--- ---------- ------- ---------- ------- -- -------- ----<br>---- --- ------ ----- ------ -- ---- --- ----- -- - -------<br>-------- -- --- --- -- ----- ----------- ----- -----------<br>---- --- ---------- --- ---- --- -- ----------,237370.79999998212,237366.5,236401.249,236403.09999999404,236417.916,237384.602,,0,American
screen,html.Screen,2_3_1_0_1_1,2022-02-02T14:38:59.597Z,,,,,,,,,,,,,,,,,51,,,,,,,,,,,,,,705.8979999999865,,response,,,,13,C,,,,,,Space,keypress(Space),,,,instrumental,,,,-------- industry --- --- ---- --- --- ------ -- --------<br>---- --------- --- ------- ------------ ---------- ---------<br>--- ---------- ------- ---------- ------- -- -------- ----<br>---- --- ------ ----- ------ -- ---- --- ----- -- - -------<br>-------- -- --- --- -- ----- ----------- ----- -----------<br>---- --- ---------- --- ---- --- -- ----------,238093.29999998212,238090.5,237367.935,237371,237384.602,238101.283,,1,industry
screen,html.Screen,2_3_1_0_1_2,2022-02-02T14:39:00.255Z,,,,,,,,,,,,,,,,,51,,,,,,,,,,,,,,646.5169999821228,,response,,,,13,C,,,,,,Space,keypress(Space),,,,instrumental,,,,-------- -------- may --- ---- --- --- ------ -- --------<br>---- --------- --- ------- ------------ ---------- ---------<br>--- ---------- ------- ---------- ------- -- -------- ----<br>---- --- ------ ----- ------ -- ---- --- ----- -- - -------<br>-------- -- --- --- -- ----- ----------- ----- -----------<br>---- --- ---------- --- ---- --- -- ----------,238751.19999998808,238747.79999998212,238084.616,238093.39999997616,238101.283,238767.963,,2,may
screen,html.Screen,2_3_1_0_1_3,2022-02-02T14:39:00.823Z,,,,,,,,,,,,,,,,,51,,,,,,,,,,,,,,548.5370000000112,,response,,,,13,C,,,,,,Space,keypress(Space),,,,instrumental,,,,-------- -------- --- not ---- --- --- ------ -- --------<br>---- --------- --- ------- ------------ ---------- ---------<br>--- ---------- ------- ---------- ------- -- -------- ----<br>---- --- ------ ----- ------ -- ---- --- ----- -- - -------<br>-------- -- --- --- -- ----- ----------- ----- -----------<br>---- --- ---------- --- ---- --- -- ----------,239319.79999998212,239316.5,238751.296,238751.29999998212,238767.963,239334.641,,3,not
screen,html.Screen,2_3_1_0_1_4,2022-02-02T14:39:01.355Z,,,,,,,,,,,,,,,,,51,,,,,,,,,,,,,,513.4589999940363,,response,,,,13,C,,,,,,Space,keypress(Space),,,,instrumental,,,,-------- -------- --- --- know --- --- ------ -- --------<br>---- --------- --- ------- ------------ ---------- ---------<br>--- ---------- ------- ---------- ------- -- -------- ----<br>---- --- ------ ----- ------ -- ---- --- ----- -- - -------<br>-------- -- --- --- -- ----- ----------- ----- -----------<br>---- --- ---------- --- ---- --- -- ----------,239851.09999999404,239848.09999999404,239317.974,239319.89999997616,239334.641,239867.985,,4,know
screen,html.Screen,2_3_1_0_1_5,2022-02-02T14:39:01.829Z,,,,,,,,,,,,,,,,,51,,,,,,,,,,,,,,454.3149999821326,,response,,,,13,C,,,,,,Space,keypress(Space),,,,instrumental,,,,"-------- -------- --- --- ---- it, --- ------ -- --------<br>---- --------- --- ------- ------------ ---------- ---------<br>--- ---------- ------- ---------- ------- -- -------- ----<br>---- --- ------ ----- ------ -- ---- --- ----- -- - -------<br>-------- -- --- --- -- ----- ----------- ----- -----------<br>---- --- ---------- --- ---- --- -- ----------",240325.79999998212,240322.29999998212,239851.318,239851.09999999404,239867.985,240334.661,,5,"it,"
screen,html.Screen,2_3_1_0_1_6,2022-02-02T14:39:02.267Z,,,,,,,,,,,,,,,,,51,,,,,,,,,,,,,,425.6389999821258,,response,,,,13,C,,,,,,Space,keypress(Space),,,,instrumental,,,,-------- -------- --- --- ---- --- but ------ -- --------<br>---- --------- --- ------- ------------ ---------- ---------<br>--- ---------- ------- ---------- ------- -- -------- ----<br>---- --- ------ ----- ------ -- ---- --- ----- -- - -------<br>-------- -- --- --- -- ----- ----------- ----- -----------<br>---- --- ---------- --- ---- --- -- ----------,240763.09999999404,240760.29999998212,240317.994,240325.89999997616,240334.661,240768.003,,6,but
screen,html.Screen,2_3_1_0_1_7,2022-02-02T14:39:02.806Z,,,,,,,,,,,,,,,,,51,,,,,,,,,,,,,,531.1969999880821,,response,,,,13,C,,,,,,Space,keypress(Space),,,,instrumental,,,,-------- -------- --- --- ---- --- --- debate -- --------<br>---- --------- --- ------- ------------ ---------- ---------<br>--- ---------- ------- ---------- ------- -- -------- ----<br>---- --- ------ ----- ------ -- ---- --- ----- -- - -------<br>-------- -- --- --- -- ----- ----------- ----- -----------<br>---- --- ---------- --- ---- --- -- ----------,241302.39999997616,241299.19999998808,240751.336,240763.19999998808,240768.003,241318.014,,7,debate
screen,html.Screen,2_3_1_0_1_8,2022-02-02T14:39:03.318Z,,,,,,,,,,,,,,,,,51,,,,,,,,,,,,,,493.1859999880835,,response,,,,13,C,,,,,,Space,keypress(Space),,,,instrumental,,,,-------- -------- --- --- ---- --- --- ------ in --------<br>---- --------- --- ------- ------------ ---------- ---------<br>--- ---------- ------- ---------- ------- -- -------- ----<br>---- --- ------ ----- ------ -- ---- --- ----- -- - -------<br>-------- -- --- --- -- ----- ----------- ----- -----------<br>---- --- ---------- --- ---- --- -- ----------,241814,241811.19999998808,241301.347,241302.5,241318.014,241818.545,,8,in
screen,html.Screen,2_3_1_0_1_9,2022-02-02T14:39:03.896Z,,,,,,,,,,,,,,,,,51,,,,,,,,,,,,,,570.6549999880663,,response,,,,13,C,,,,,,Space,keypress(Space),,,,instrumental,,,,-------- -------- --- --- ---- --- --- ------ -- Congress<br>---- --------- --- ------- ------------ ---------- ---------<br>--- ---------- ------- ---------- ------- -- -------- ----<br>---- --- ------ ----- ------ -- ---- --- ----- -- - -------<br>-------- -- --- --- -- ----- ----------- ----- -----------<br>---- --- ---------- --- ---- --- -- ----------,242392,242389.19999998808,241801.878,241814.09999999404,241818.545,242401.89,,9,Congress
screen,html.Screen,2_3_1_0_1_10,2022-02-02T14:39:04.474Z,,,,,,,,,,,,,,,,,51,,,,,,,,,,,,,,565.2099999940256,,response,,,,13,C,,,,,,Space,keypress(Space),,,,instrumental,,,,-------- -------- --- --- ---- --- --- ------ -- --------<br>over --------- --- ------- ------------ ---------- ---------<br>--- ---------- ------- ---------- ------- -- -------- ----<br>---- --- ------ ----- ------ -- ---- --- ----- -- - -------<br>-------- -- --- --- -- ----- ----------- ----- -----------<br>---- --- ---------- --- ---- --- -- ----------,242970.09999999404,242967.09999999404,242385.223,242392.09999999404,242401.89,242985.235,,10,over
screen,html.Screen,2_3_1_0_1_11,2022-02-02T14:39:04.963Z,,,,,,,,,,,,,,,,,51,,,,,,,,,,,,,,470.8649999940535,,response,,,,13,C,,,,,,Space,keypress(Space),,,,instrumental,,,,-------- -------- --- --- ---- --- --- ------ -- --------<br>---- reforming --- ------- ------------ ---------- ---------<br>--- ---------- ------- ---------- ------- -- -------- ----<br>---- --- ------ ----- ------ -- ---- --- ----- -- - -------<br>-------- -- --- --- -- ----- ----------- ----- -----------<br>---- --- ---------- --- ---- --- -- ----------,243459.19999998808,243456.09999999404,242968.568,242970.19999998808,242985.235,243468.578,,11,reforming
screen,html.Screen,2_3_1_0_1_12,2022-02-02T14:39:05.457Z,,,,,,,,,,,,,,,,,51,,,,,,,,,,,,,,481.4219999999914,,response,,,,13,C,,,,,,Space,keypress(Space),,,,instrumental,,,,-------- -------- --- --- ---- --- --- ------ -- --------<br>---- --------- the ------- ------------ ---------- ---------<br>--- ---------- ------- ---------- ------- -- -------- ----<br>---- --- ------ ----- ------ -- ---- --- ----- -- - -------<br>-------- -- --- --- -- ----- ----------- ----- -----------<br>---- --- ---------- --- ---- --- -- ----------,243953,243950,243451.911,243459.19999998808,243468.578,243968.588,,12,the
screen,html.Screen,2_3_1_0_1_13,2022-02-02T14:39:06.002Z,,,,,,,,,,,,,,,,,51,,,,,,,,,,,,,,526.4120000000112,,response,,,,13,C,,,,,,Space,keypress(Space),,,,instrumental,,,,-------- -------- --- --- ---- --- --- ------ -- --------<br>---- --------- --- federal ------------ ---------- ---------<br>--- ---------- ------- ---------- ------- -- -------- ----<br>---- --- ------ ----- ------ -- ---- --- ----- -- - -------<br>-------- -- --- --- -- ----- ----------- ----- -----------<br>---- --- ---------- --- ---- --- -- ----------,244497.89999997616,244495,243951.921,243953.09999999404,243968.588,244501.932,,13,federal
screen,html.Screen,2_3_1_0_1_14,2022-02-02T14:39:06.463Z,,,,,,,,,,,,,,,,,51,,,,,,,,,,,,,,454.0679999999993,,response,,,,13,C,,,,,,Space,keypress(Space),,,,instrumental,,,,-------- -------- --- --- ---- --- --- ------ -- --------<br>---- --------- --- ------- government's ---------- ---------<br>--- ---------- ------- ---------- ------- -- -------- ----<br>---- --- ------ ----- ------ -- ---- --- ----- -- - -------<br>-------- -- --- --- -- ----- ----------- ----- -----------<br>---- --- ---------- --- ---- --- -- ----------,244958.79999998212,244956,244485.265,244498,244501.932,244968.608,,14,government's
screen,html.Screen,2_3_1_0_1_15,2022-02-02T14:39:07.069Z,,,,,,,,,,,,,,,,,51,,,,,,,,,,,,,,593.2919999761507,,response,,,,13,C,,,,,,Space,keypress(Space),,,,instrumental,,,,-------- -------- --- --- ---- --- --- ------ -- --------<br>---- --------- --- ------- ------------ regulatory ---------<br>--- ---------- ------- ---------- ------- -- -------- ----<br>---- --- ------ ----- ------ -- ---- --- ----- -- - -------<br>-------- -- --- --- -- ----- ----------- ----- -----------<br>---- --- ---------- --- ---- --- -- ----------,245564.69999998808,245561.89999997616,244951.941,244959,244968.608,245568.62,,15,regulatory
screen,html.Screen,2_3_1_0_1_16,2022-02-02T14:39:07.708Z,,,,,,,,,,,,,,,,,51,,,,,,,,,,,,,,632.4799999940442,,response,,,,13,C,,,,,,Space,keypress(Space),,,,instrumental,,,,-------- -------- --- --- ---- --- --- ------ -- --------<br>---- --------- --- ------- ------------ ---------- apparatus<br>--- ---------- ------- ---------- ------- -- -------- ----<br>---- --- ------ ----- ------ -- ---- --- ----- -- - -------<br>-------- -- --- --- -- ----- ----------- ----- -----------<br>---- --- ---------- --- ---- --- -- ----------,246204.5,246201.09999999404,245551.953,245564.69999998808,245568.62,246218.633,,16,apparatus
screen,html.Screen,2_3_1_0_1_17,2022-02-02T14:39:08.239Z,,,,,,,,,,,,,,,,,51,,,,,,,,,,,,,,513.3669999999984,,response,,,,13,C,,,,,,Space,keypress(Space),,,,instrumental,,,,-------- -------- --- --- ---- --- --- ------ -- --------<br>---- --------- --- ------- ------------ ---------- ---------<br>may ---------- ------- ---------- ------- -- -------- ----<br>---- --- ------ ----- ------ -- ---- --- ----- -- - -------<br>-------- -- --- --- -- ----- ----------- ----- -----------<br>---- --- ---------- --- ---- --- -- ----------,246734.89999997616,246732,246201.966,246204.59999999404,246218.633,246751.977,,17,may
screen,html.Screen,2_3_1_0_1_18,2022-02-02T14:39:08.678Z,,,,,,,,,,,,,,,,,51,,,,,,,,,,,,,,419.0229999999865,,response,,,,13,C,,,,,,Space,keypress(Space),,,,instrumental,,,,-------- -------- --- --- ---- --- --- ------ -- --------<br>---- --------- --- ------- ------------ ---------- ---------<br>--- profoundly ------- ---------- ------- -- -------- ----<br>---- --- ------ ----- ------ -- ---- --- ----- -- - -------<br>-------- -- --- --- -- ----- ----------- ----- -----------<br>---- --- ---------- --- ---- --- -- ----------,247174.19999998808,247171,246735.31,246735,246751.977,247185.319,,18,profoundly
screen,html.Screen,2_3_1_0_1_19,2022-02-02T14:39:09.167Z,,,,,,,,,,,,,,,,,51,,,,,,,,,,,,,,474.48099998213,,response,,,,13,C,,,,,,Space,keypress(Space),,,,instrumental,,,,-------- -------- --- --- ---- --- --- ------ -- --------<br>---- --------- --- ------- ------------ ---------- ---------<br>--- ---------- improve ---------- ------- -- -------- ----<br>---- --- ------ ----- ------ -- ---- --- ----- -- - -------<br>-------- -- --- --- -- ----- ----------- ----- -----------<br>---- --- ---------- --- ---- --- -- ----------,247663.39999997616,247659.79999998212,247168.652,247174.19999998808,247185.319,247668.662,,19,improve
screen,html.Screen,2_3_1_0_1_20,2022-02-02T14:39:09.746Z,,,,,,,,,,,,,,,,,51,,,,,,,,,,,,,,570.1379999821074,,response,,,,13,C,,,,,,Space,keypress(Space),,,,instrumental,,,,-------- -------- --- --- ---- --- --- ------ -- --------<br>---- --------- --- ------- ------------ ---------- ---------<br>--- ---------- ------- companies' ------- -- -------- ----<br>---- --- ------ ----- ------ -- ---- --- ----- -- - -------<br>-------- -- --- --- -- ----- ----------- ----- -----------<br>---- --- ---------- --- ---- --- -- ----------,248241.79999998212,248238.79999998212,247651.995,247663.59999999404,247668.662,248252.007,,20,companies'
screen,html.Screen,2_3_1_0_1_21,2022-02-02T14:39:10.342Z,,,,,,,,,,,,,,,,,51,,,,,,,,,,,,,,582.6929999880667,,response,,,,13,C,,,,,,Space,keypress(Space),,,,instrumental,,,,-------- -------- --- --- ---- --- --- ------ -- --------<br>---- --------- --- ------- ------------ ---------- ---------<br>--- ---------- ------- ---------- ability -- -------- ----<br>---- --- ------ ----- ------ -- ---- --- ----- -- - -------<br>-------- -- --- --- -- ----- ----------- ----- -----------<br>---- --- ---------- --- ---- --- -- ----------,248838,248834.69999998808,248235.34,248241.89999997616,248252.007,248852.019,,21,ability
screen,html.Screen,2_3_1_0_1_22,2022-02-02T14:39:10.781Z,,,,,,,,,,,,,,,,,51,,,,,,,,,,,,,,421.68099998807884,,response,,,,13,C,,,,,,Space,keypress(Space),,,,instrumental,,,,-------- -------- --- --- ---- --- --- ------ -- --------<br>---- --------- --- ------- ------------ ---------- ---------<br>--- ---------- ------- ---------- ------- to -------- ----<br>---- --- ------ ----- ------ -- ---- --- ----- -- - -------<br>-------- -- --- --- -- ----- ----------- ----- -----------<br>---- --- ---------- --- ---- --- -- ----------,249276.59999999404,249273.69999998808,248835.352,248838.19999998808,248852.019,249285.361,,22,to
screen,html.Screen,2_3_1_0_1_23,2022-02-02T14:39:11.430Z,,,,,,,,,,,,,,,,,51,,,,,,,,,,,,,,637.3389999880746,,response,,,,13,C,,,,,,Space,keypress(Space),,,,instrumental,,,,-------- -------- --- --- ---- --- --- ------ -- --------<br>---- --------- --- ------- ------------ ---------- ---------<br>--- ---------- ------- ---------- ------- -- survive. ----<br>---- --- ------ ----- ------ -- ---- --- ----- -- - -------<br>-------- -- --- --- -- ----- ----------- ----- -----------<br>---- --- ---------- --- ---- --- -- ----------,249925.59999999404,249922.69999998808,249268.694,249276.59999999404,249285.361,249935.374,,23,survive.
screen,html.Screen,2_3_1_0_1_24,2022-02-02T14:39:11.871Z,,,,,,,,,,,,,,,,,51,,,,,,,,,,,,,,428.32599998806836,,response,,,,13,C,,,,,,Space,keypress(Space),,,,instrumental,,,,-------- -------- --- --- ---- --- --- ------ -- --------<br>---- --------- --- ------- ------------ ---------- ---------<br>--- ---------- ------- ---------- ------- -- -------- This<br>---- --- ------ ----- ------ -- ---- --- ----- -- - -------<br>-------- -- --- --- -- ----- ----------- ----- -----------<br>---- --- ---------- --- ---- --- -- ----------,250366.69999998808,250363.69999998808,249918.707,249925.69999998808,249935.374,250368.716,,24,This
screen,html.Screen,2_3_1_0_1_25,2022-02-02T14:39:12.375Z,,,,,,,,,,,,,,,,,51,,,,,,,,,,,,,,498.88399999405374,,response,,,,13,C,,,,,,Space,keypress(Space),,,,instrumental,,,,-------- -------- --- --- ---- --- --- ------ -- --------<br>---- --------- --- ------- ------------ ---------- ---------<br>--- ---------- ------- ---------- ------- -- -------- ----<br>week --- ------ ----- ------ -- ---- --- ----- -- - -------<br>-------- -- --- --- -- ----- ----------- ----- -----------<br>---- --- ---------- --- ---- --- -- ----------,250870.59999999404,250867.59999999404,250352.049,250366.79999998212,250368.716,250885.393,,25,week
screen,html.Screen,2_3_1_0_1_26,2022-02-02T14:39:12.831Z,,,,,,,,,,,,,,,,,51,,,,,,,,,,,,,,439.10699999998906,,response,,,,13,C,,,,,,Space,keypress(Space),,,,instrumental,,,,-------- -------- --- --- ---- --- --- ------ -- --------<br>---- --------- --- ------- ------------ ---------- ---------<br>--- ---------- ------- ---------- ------- -- -------- ----<br>---- the ------ ----- ------ -- ---- --- ----- -- - -------<br>-------- -- --- --- -- ----- ----------- ----- -----------<br>---- --- ---------- --- ---- --- -- ----------,251327.29999998212,251324.5,250868.726,250870.79999998212,250885.393,251335.402,,26,the
screen,html.Screen,2_3_1_0_1_27,2022-02-02T14:39:13.313Z,,,,,,,,,,,,,,,,,51,,,,,,,,,,,,,,470.09799999999814,,response,,,,13,C,,,,,,Space,keypress(Space),,,,instrumental,,,,-------- -------- --- --- ---- --- --- ------ -- --------<br>---- --------- --- ------- ------------ ---------- ---------<br>--- ---------- ------- ---------- ------- -- -------- ----<br>---- --- Senate ----- ------ -- ---- --- ----- -- - -------<br>-------- -- --- --- -- ----- ----------- ----- -----------<br>---- --- ---------- --- ---- --- -- ----------,251808.5,251805.5,251318.735,251327.39999997616,251335.402,251819.269,,27,Senate
screen,html.Screen,2_3_1_0_1_28,2022-02-02T14:39:13.753Z,,,,,,,,,,,,,,,,,51,,,,,,,,,,,,,,426.1309999761579,,response,,,,13,C,,,,,,Space,keypress(Space),,,,instrumental,,,,-------- -------- --- --- ---- --- --- ------ -- --------<br>---- --------- --- ------- ------------ ---------- ---------<br>--- ---------- ------- ---------- ------- -- -------- ----<br>---- --- ------ seems ------ -- ---- --- ----- -- - -------<br>-------- -- --- --- -- ----- ----------- ----- -----------<br>---- --- ---------- --- ---- --- -- ----------,252248.59999999404,252245.39999997616,251802.602,251808.59999999404,251819.269,252252.611,,28,seems
screen,html.Screen,2_3_1_0_1_29,2022-02-02T14:39:14.320Z,,,,,,,,,,,,,,,,,51,,,,,,,,,,,,,,559.9889999940351,,response,,,,13,C,,,,,,Space,keypress(Space),,,,instrumental,,,,-------- -------- --- --- ---- --- --- ------ -- --------<br>---- --------- --- ------- ------------ ---------- ---------<br>--- ---------- ------- ---------- ------- -- -------- ----<br>---- --- ------ ----- poised -- ---- --- ----- -- - -------<br>-------- -- --- --- -- ----- ----------- ----- -----------<br>---- --- ---------- --- ---- --- -- ----------,252816.29999998212,252812.59999999404,252235.944,252248.59999999404,252252.611,252819.289,,29,poised
screen,html.Screen,2_3_1_0_1_30,2022-02-02T14:39:14.760Z,,,,,,,,,,,,,,,,,51,,,,,,,,,,,,,,434.1109999761684,,response,,,,13,C,,,,,,Space,keypress(Space),,,,instrumental,,,,-------- -------- --- --- ---- --- --- ------ -- --------<br>---- --------- --- ------- ------------ ---------- ---------<br>--- ---------- ------- ---------- ------- -- -------- ----<br>---- --- ------ ----- ------ to ---- --- ----- -- - -------<br>-------- -- --- --- -- ----- ----------- ----- -----------<br>---- --- ---------- --- ---- --- -- ----------,253256.29999998212,253253.39999997616,252802.622,252816.39999997616,252819.289,253269.298,,30,to
screen,html.Screen,2_3_1_0_1_31,2022-02-02T14:39:15.178Z,,,,,,,,,,,,,,,,,51,,,,,,,,,,,,,,402.10199997614836,,response,,,,13,C,,,,,,Space,keypress(Space),,,,instrumental,,,,-------- -------- --- --- ---- --- --- ------ -- --------<br>---- --------- --- ------- ------------ ---------- ---------<br>--- ---------- ------- ---------- ------- -- -------- ----<br>---- --- ------ ----- ------ -- join --- ----- -- - -------<br>-------- -- --- --- -- ----- ----------- ----- -----------<br>---- --- ---------- --- ---- --- -- ----------,253674.19999998808,253671.39999997616,253252.631,253256.39999997616,253269.298,253685.973,,31,join
screen,html.Screen,2_3_1_0_1_32,2022-02-02T14:39:15.626Z,,,,,,,,,,,,,,,,,51,,,,,,,,,,,,,,432.6269999940414,,response,,,,13,C,,,,,,Space,keypress(Space),,,,instrumental,,,,-------- -------- --- --- ---- --- --- ------ -- --------<br>---- --------- --- ------- ------------ ---------- ---------<br>--- ---------- ------- ---------- ------- -- -------- ----<br>---- --- ------ ----- ------ -- ---- the ----- -- - -------<br>-------- -- --- --- -- ----- ----------- ----- -----------<br>---- --- ---------- --- ---- --- -- ----------,254121.69999998808,254118.59999999404,253669.306,253674.39999997616,253685.973,254135.982,,32,the
screen,html.Screen,2_3_1_0_1_33,2022-02-02T14:39:16.052Z,,,,,,,,,,,,,,,,,51,,,,,,,,,,,,,,409.21799998809,,response,,,,13,C,,,,,,Space,keypress(Space),,,,instrumental,,,,-------- -------- --- --- ---- --- --- ------ -- --------<br>---- --------- --- ------- ------------ ---------- ---------<br>--- ---------- ------- ---------- ------- -- -------- ----<br>---- --- ------ ----- ------ -- ---- --- House -- - -------<br>-------- -- --- --- -- ----- ----------- ----- -----------<br>---- --- ---------- --- ---- --- -- ----------,254548.09999999404,254545.19999998808,254119.315,254121.69999998808,254135.982,254552.657,,33,House
screen,html.Screen,2_3_1_0_1_34,2022-02-02T14:39:16.450Z,,,,,,,,,,,,,,,,,51,,,,,,,,,,,,,,390.7429999761516,,response,,,,13,C,,,,,,Space,keypress(Space),,,,instrumental,,,,-------- -------- --- --- ---- --- --- ------ -- --------<br>---- --------- --- ------- ------------ ---------- ---------<br>--- ---------- ------- ---------- ------- -- -------- ----<br>---- --- ------ ----- ------ -- ---- --- ----- in - -------<br>-------- -- --- --- -- ----- ----------- ----- -----------<br>---- --- ---------- --- ---- --- -- ----------,254946.09999999404,254943.39999997616,254535.99,254548.19999998808,254552.657,254952.665,,34,in
screen,html.Screen,2_3_1_0_1_35,2022-02-02T14:39:16.861Z,,,,,,,,,,,,,,,,,51,,,,,,,,,,,,,,401.63499998211046,,response,,,,13,C,,,,,,Space,keypress(Space),,,,instrumental,,,,-------- -------- --- --- ---- --- --- ------ -- --------<br>---- --------- --- ------- ------------ ---------- ---------<br>--- ---------- ------- ---------- ------- -- -------- ----<br>---- --- ------ ----- ------ -- ---- --- ----- -- a -------<br>-------- -- --- --- -- ----- ----------- ----- -----------<br>---- --- ---------- --- ---- --- -- ----------,255357.19999998808,255354.29999998212,254935.998,254946.39999997616,254952.665,255369.34,,35,a
screen,html.Screen,2_3_1_0_1_36,2022-02-02T14:39:17.309Z,,,,,,,,,,,,,,,,,51,,,,,,,,,,,,,,432.85999998808256,,response,,,,13,C,,,,,,Space,keypress(Space),,,,instrumental,,,,-------- -------- --- --- ---- --- --- ------ -- --------<br>---- --------- --- ------- ------------ ---------- ---------<br>--- ---------- ------- ---------- ------- -- -------- ----<br>---- --- ------ ----- ------ -- ---- --- ----- -- - massive<br>-------- -- --- --- -- ----- ----------- ----- -----------<br>---- --- ---------- --- ---- --- -- ----------,255805.19999998808,255802.19999998808,255352.673,255357.29999998212,255369.34,255819.349,,36,massive
screen,html.Screen,2_3_1_0_1_37,2022-02-02T14:39:17.758Z,,,,,,,,,,,,,,,,,51,,,,,,,,,,,,,,431.9509999821312,,response,,,,13,C,,,,,,Space,keypress(Space),,,,instrumental,,,,-------- -------- --- --- ---- --- --- ------ -- --------<br>---- --------- --- ------- ------------ ---------- ---------<br>--- ---------- ------- ---------- ------- -- -------- ----<br>---- --- ------ ----- ------ -- ---- --- ----- -- - -------<br>overhaul -- --- --- -- ----- ----------- ----- -----------<br>---- --- ---------- --- ---- --- -- ----------,256254.29999998212,256251.29999998212,255802.682,255805.29999998212,255819.349,256269.358,,37,overhaul
screen,html.Screen,2_3_1_0_1_38,2022-02-02T14:39:18.156Z,,,,,,,,,,,,,,,,,51,,,,,,,,,,,,,,379.8419999880716,,response,,,,13,C,,,,,,Space,keypress(Space),,,,instrumental,,,,-------- -------- --- --- ---- --- --- ------ -- --------<br>---- --------- --- ------- ------------ ---------- ---------<br>--- ---------- ------- ---------- ------- -- -------- ----<br>---- --- ------ ----- ------ -- ---- --- ----- -- - -------<br>-------- of --- --- -- ----- ----------- ----- -----------<br>---- --- ---------- --- ---- --- -- ----------,256652.19999998808,256649.19999998808,256252.691,256254.39999997616,256269.358,256669.366,,38,of
