sender,sender_type,sender_id,timestamp,meta,,Blues,Classical,Country,Dance,Electronic,Folk,Gospel,Hip-Hop,Jazz,Latin,Musical/Film,New-age,Pop,Prolific_id,Provo_ID,R&B,Rap,Reggae,Religious,Rock,Soul,Swing,Traditional,age,artist_name,correct,correctResponse,distraction,duration,education,ended_on,familiarity,gender,headphone_check_performance,item,list,music_frequency,offensiveness,pleasantness,position_correct,preference,response,response_action,snippet_file,song_name,song_rating,sound,stimulus_1,stimulus_2,stimulus_3,text,time_commit,time_end,time_render,time_run,time_show,time_switch,url,word,word_ID
Prolific ID,html.Form,0,2022-02-18T13:06:45.032Z,"{""labjs_version"":""20.2.2"",""labjs_build"":{""flavor"":""production"",""commit"":""a25486e0c714a0ae2ce03ff94b7bb6896854dcfa""},""location"":""https://run.pavlovia.org/mvasilev/prolific2_music_f/"",""userAgent"":""Mozilla/5.0 (Windows NT 10.0; Win64; x64) AppleWebKit/537.36 (KHTML, like Gecko) Chrome/98.0.4758.82 Safari/537.36"",""platform"":""Win32"",""language"":""en-GB"",""locale"":""en-GB"",""timeZone"":""Europe/London"",""timezoneOffset"":0,""screen_width"":1920,""screen_height"":1080,""scroll_width"":1920,""scroll_height"":832,""window_innerWidth"":1920,""window_innerHeight"":880,""devicePixelRatio"":1}",,,,,,,,,,,,,,,5eeb58ec4c86582a76ff55ec,,,,,,,,,,,,,,,3998.6539999880792,,form submission,,,,,,,,,,,,,,,,,,,,,8001.5,8001.199999988079,3988.642,3988.399999976158,4002.546,8002.445,{},,
Introduction,html.Screen,1_0,2022-02-18T13:06:55.557Z,,,,,,,,,,,,,,,,,,,,,,,,,,,,,,,10519.155000023842,,response,,,,,,,,,,,continue,click button,,,,,,,,,18526.69999998808,18521.600000023842,7995.507,8001.600000023842,8002.445,18540.574,,,
Volume calibration,html.Screen,1_1,2022-02-18T13:07:10.631Z,,,,,,,,,,,,,,,,,,,,,,,,,,,,,,,15053.72600001192,,response,,,,,,,,,,,continue,click button,,,,,,,,,33599.80000001192,33594.30000001192,18516.039,18526.69999998808,18540.574,33599.168,,,
Task instructions,html.Screen,1_2,2022-02-18T13:07:17.975Z,,,,,,,,,,,,,,,,,,,,,,,,,,,,,,,7344.23199997616,,response,,,,,,,,,,,continue,click button,,,,,,,,,40943.89999997616,40943.39999997616,33592.077,33599.89999997616,33599.168,40946.154,,,
Sounds,html.Screen,1_3_0_0,2022-02-18T13:07:22.225Z,,,,,,,,,,,,,,,,,,,,,,,,,,,,,,,4249.905999999995,,timeout,,,,,,,,,3,,,,,,,,O,I,S,,45194.39999997616,45189.163,40939.151,40944,40946.154,45196.06,,,
Judgement,html.Screen,1_3_0_1,2022-02-18T13:07:23.159Z,,,,,,,,,,,,,,,,,,,,,,,,,,,,true,3,,931.0400000238442,,response,,,,,,,,,3,,3,click #choice-3,,,,,O,I,S,,46128.10000002384,46127.10000002384,45189.163,45194.69999998808,45196.06,46133.477,,,
Trial,flow.Sequence,1_3_0,2022-02-18T13:07:23.159Z,,,,,,,,,,,,,,,,,,,,,,,,,,,,,,,5180.94600002384,,completion,,,,,,,,,3,,,,,,,,O,I,S,,46128.5,46127.10000002384,40939.151,40943.89999997616,40946.154,46133.477,,,
Sounds,html.Screen,1_3_1_0,2022-02-18T13:07:27.408Z,,,,,,,,,,,,,,,,,,,,,,,,,,,,,,,4249.942999999999,,timeout,,,,,,,,,1,,,,,,,,S,I,O,,50376.80000001192,50376.43,46126.516,46128.89999997616,46133.477,50383.42,,,
Judgement,html.Screen,1_3_1_1,2022-02-18T13:07:28.205Z,,,,,,,,,,,,,,,,,,,,,,,,,,,,true,1,,789.0800000000017,,response,,,,,,,,,1,,1,click #choice-1,,,,,S,I,O,,51174.10000002384,51172.5,50376.43,50376.89999997616,50383.42,51175.094,,,
Trial,flow.Sequence,1_3_1,2022-02-18T13:07:28.205Z,,,,,,,,,,,,,,,,,,,,,,,,,,,,,,,5039.023000000001,,completion,,,,,,,,,1,,,,,,,,S,I,O,,51174.69999998808,51172.5,46126.516,46128.60000002384,46133.477,51175.094,,,
Sounds,html.Screen,1_3_2_0,2022-02-18T13:07:32.449Z,,,,,,,,,,,,,,,,,,,,,,,,,,,,,,,4249.850000000006,,timeout,,,,,,,,,3,,,,,,,,I,O,S,,55418.5,55418.029,51168.072,51175.10000002384,51175.094,55424.944,,,
Judgement,html.Screen,1_3_2_1,2022-02-18T13:07:33.451Z,,,,,,,,,,,,,,,,,,,,,,,,,,,,false,3,,995.1560000238387,,response,,,,,,,,,3,,2,click #choice-2,,,,,I,O,S,,56420.39999997616,56420.10000002384,55418.029,55418.5,55424.944,56424.891,,,
Trial,flow.Sequence,1_3_2,2022-02-18T13:07:33.451Z,,,,,,,,,,,,,,,,,,,,,,,,,,,,,,,5245.0060000238445,,completion,,,,,,,,,3,,,,,,,,I,O,S,,56420.60000002384,56420.10000002384,51168.072,51174.89999997616,51175.094,56424.891,,,
Sounds,html.Screen,1_3_3_0,2022-02-18T13:07:37.699Z,,,,,,,,,,,,,,,,,,,,,,,,,,,,,,,4249.886999999995,,timeout,,,,,,,,,2,,,,,,,,O,S,I,,60668.30000001192,60667.916,56417.973,56420.60000002384,56424.891,60674.778,,,
Judgement,html.Screen,1_3_3_1,2022-02-18T13:07:38.323Z,,,,,,,,,,,,,,,,,,,,,,,,,,,,true,2,,616.8220000238434,,response,,,,,,,,,2,,2,click #choice-2,,,,,O,S,I,,61292,61291.60000002384,60667.916,60668.39999997616,60674.778,61305.528,,,
Trial,flow.Sequence,1_3_3,2022-02-18T13:07:38.323Z,,,,,,,,,,,,,,,,,,,,,,,,,,,,,,,4866.709000023839,,completion,,,,,,,,,2,,,,,,,,O,S,I,,61292.10000002384,61291.60000002384,56417.973,56420.60000002384,56424.891,61305.528,,,
Sounds,html.Screen,1_3_4_0,2022-02-18T13:07:42.582Z,,,,,,,,,,,,,,,,,,,,,,,,,,,,,,,4251.177000000003,,timeout,,,,,,,,,1,,,,,,,,S,O,I,,65551.10000002384,65549.913,61285.896,61292.10000002384,61305.528,65556.705,,,
Judgement,html.Screen,1_3_4_1,2022-02-18T13:07:43.688Z,,,,,,,,,,,,,,,,,,,,,,,,,,,,true,1,,1099.0950000119192,,response,,,,,,,,,1,,1,click #choice-1,,,,,S,O,I,,66657.10000002384,66655.80000001192,65549.913,65551.30000001192,65556.705,66660.888,,,
Trial,flow.Sequence,1_3_4,2022-02-18T13:07:43.689Z,,,,,,,,,,,,,,,,,,,,,,,,,,,,,,,5350.2720000119225,,completion,,,,,,,,,1,,,,,,,,S,O,I,,66657.39999997616,66655.80000001192,61285.896,61292.10000002384,61305.528,66660.888,,,
Sounds,html.Screen,1_3_5_0,2022-02-18T13:07:47.936Z,,,,,,,,,,,,,,,,,,,,,,,,,,,,,,,4249.870999999999,,timeout,,,,,,,,,2,,,,,,,,I,S,O,,70904.80000001192,70903.81,66653.819,66657.69999998808,66660.888,70910.759,,,
Judgement,html.Screen,1_3_5_1,2022-02-18T13:07:48.746Z,,,,,,,,,,,,,,,,,,,,,,,,,,,,true,2,,803.3410000238364,,response,,,,,,,,,2,,2,click #choice-2,,,,,I,S,O,,71714.80000001192,71714.10000002384,70903.81,70905.10000002384,70910.759,71716.227,,,
Trial,flow.Sequence,1_3_5,2022-02-18T13:07:48.746Z,,,,,,,,,,,,,,,,,,,,,,,,,,,,,,,5053.212000023836,,completion,,,,,,,,,2,,,,,,,,I,S,O,,71714.89999997616,71714.10000002384,66653.819,66657.60000002384,66660.888,71716.227,,,
Task,flow.Loop,1_3,2022-02-18T13:07:48.748Z,,,,,,,,,,,,,,,,,,,,,,,,,,,,,,,30767.94600002384,,completion,,,0.8333333333333334,,,,,,,,,,,,,,,,,,71717.10000002384,71714.10000002384,40939.151,40943.89999997616,40946.154,71716.227,,,
Trap,html.Screen,1_4,2022-02-18T13:07:48.749Z,,,,,,,,,,,,,,,,,,,,,,,,,,,,,,,NaN,,skipped,,,,,,,,,,,,,,,,,,,,,71717.60000002384,71714.10000002384,,71717.5,,71716.227,,,
Thanks,html.Screen,1_5,2022-02-18T13:07:52.822Z,,,,,,,,,,,,,,,,,,,,,,,,,,,,,,,4073.273000000001,,response,,,,,,,,,,,continue,click button,,,,,,,,,75790.80000001192,75789.5,71709.314,71717.60000002384,71716.227,77639.917,,,
Headphone screening,flow.Sequence,1,2022-02-18T13:07:52.822Z,,,,,,,,,,,,,,,,,,,,,,,,,,,,,,,67787.055,,completion,,,,,,,,,,,,,,,,,,,,,75791.10000002384,75789.5,7995.507,8001.600000023842,8002.445,77639.917,,,
Instructions,html.Page,2_0,2022-02-18T13:08:15.123Z,,,,,,,,,,,,,,,,,,,,,,,,,,,,,,,20451.68300002384,,form submission,,,,,,,,,,,,,,,,,,,,,98091.69999998808,98091.60000002384,77631.835,77631,77639.917,98097.522,,,
Holding screen,html.Screen,2_1_0_0,2022-02-18T13:08:25.123Z,,,,,,,,,,,,,,,,,,,,,,,,,,,,,,,10007.169999999998,,timeout,,,,,,,,,,,,,,,,,,,,,108091.5,108090.612,98090.624,98091.80000001192,98097.522,108104.692,,,
screen,html.Screen,2_1_0_1_0,2022-02-18T13:08:26.241Z,,,,,,,,,,,,,,,,,53,,,,,,,,,,,,,,1104.0079999880836,,response,,,,99,,,,,,,Space,keypress(Space),,,,,,,,When -- ----- -- ------ - ------- --- ----------<br>------------- ------ ------ ---- ---- ------- ----- -- ----<br>-------- ------- -- ---------- --- - --- ----- ----- ----<br>---- --- --- ----- --- ---- ---- ------- ----- ---- -------<br>--- --- -- ----- -- --- ---- -- --- ---- -- ------ ------<br>--- ----- -- ----,109209.80000001192,109208.69999998808,108090.612,108091.89999997616,108104.692,109215.376,,0,When
screen,html.Screen,2_1_0_1_1,2022-02-18T13:08:26.701Z,,,,,,,,,,,,,,,,,53,,,,,,,,,,,,,,454.224000023838,,response,,,,99,,,,,,,Space,keypress(Space),,,,,,,,---- it ----- -- ------ - ------- --- ----------<br>------------- ------ ------ ---- ---- ------- ----- -- ----<br>-------- ------- -- ---------- --- - --- ----- ----- ----<br>---- --- --- ----- --- ---- ---- ------- ----- ---- -------<br>--- --- -- ----- -- --- ---- -- --- ---- -- ------ ------<br>--- ----- -- ----,109670,109669.60000002384,109208.694,109209.80000001192,109215.376,109673.75,,1,it
screen,html.Screen,2_1_0_1_2,2022-02-18T13:08:27.130Z,,,,,,,,,,,,,,,,,53,,,,,,,,,,,,,,424.75,,response,,,,99,,,,,,,Space,keypress(Space),,,,,,,,---- -- comes -- ------ - ------- --- ----------<br>------------- ------ ------ ---- ---- ------- ----- -- ----<br>-------- ------- -- ---------- --- - --- ----- ----- ----<br>---- --- --- ----- --- ---- ---- ------- ----- ---- -------<br>--- --- -- ----- -- --- ---- -- --- ---- -- ------ ------<br>--- ----- -- ----,110098.80000001192,110098.5,109666.945,109670.10000002384,109673.75,110104.219,,2,comes
screen,html.Screen,2_1_0_1_3,2022-02-18T13:08:27.539Z,,,,,,,,,,,,,,,,,53,,,,,,,,,,,,,,403.0810000119236,,response,,,,99,,,,,,,Space,keypress(Space),,,,,,,,---- -- ----- to ------ - ------- --- ----------<br>------------- ------ ------ ---- ---- ------- ----- -- ----<br>-------- ------- -- ---------- --- - --- ----- ----- ----<br>---- --- --- ----- --- ---- ---- ------- ----- ---- -------<br>--- --- -- ----- -- --- ---- -- --- ---- -- ------ ------<br>--- ----- -- ----,110507.89999997616,110507.30000001192,110097.298,110098.89999997616,110104.219,110513.884,,3,to
screen,html.Screen,2_1_0_1_4,2022-02-18T13:08:27.965Z,,,,,,,,,,,,,,,,,53,,,,,,,,,,,,,,419.41600001191546,,response,,,,99,,,,,,,Space,keypress(Space),,,,,,,,---- -- ----- -- having - ------- --- ----------<br>------------- ------ ------ ---- ---- ------- ----- -- ----<br>-------- ------- -- ---------- --- - --- ----- ----- ----<br>---- --- --- ----- --- ---- ---- ------- ----- ---- -------<br>--- --- -- ----- -- --- ---- -- --- ---- -- ------ ------<br>--- ----- -- ----,110933.60000002384,110933.30000001192,110507.087,110507.89999997616,110513.884,110937.511,,4,having
screen,html.Screen,2_1_0_1_5,2022-02-18T13:08:28.388Z,,,,,,,,,,,,,,,,,53,,,,,,,,,,,,,,418.58900002384325,,response,,,,99,,,,,,,Space,keypress(Space),,,,,,,,---- -- ----- -- ------ a ------- --- ----------<br>------------- ------ ------ ---- ---- ------- ----- -- ----<br>-------- ------- -- ---------- --- - --- ----- ----- ----<br>---- --- --- ----- --- ---- ---- ------- ----- ---- -------<br>--- --- -- ----- -- --- ---- -- --- ---- -- ------ ------<br>--- ----- -- ----,111356.5,111356.10000002384,110930.527,110934,110937.511,111361.087,,5,a
screen,html.Screen,2_1_0_1_6,2022-02-18T13:08:28.854Z,,,,,,,,,,,,,,,,,53,,,,,,,,,,,,,,460.91300000000047,,response,,,,99,,,,,,,Space,keypress(Space),,,,,,,,---- -- ----- -- ------ - lasting --- ----------<br>------------- ------ ------ ---- ---- ------- ----- -- ----<br>-------- ------- -- ---------- --- - --- ----- ----- ----<br>---- --- --- ----- --- ---- ---- ------- ----- ---- -------<br>--- --- -- ----- -- --- ---- -- --- ---- -- ------ ------<br>--- ----- -- ----,111822.39999997616,111822,111354.144,111356.5,111361.087,111826.407,,6,lasting
screen,html.Screen,2_1_0_1_7,2022-02-18T13:08:29.318Z,,,,,,,,,,,,,,,,,53,,,,,,,,,,,,,,460.29299998807255,,response,,,,99,,,,,,,Space,keypress(Space),,,,,,,,---- -- ----- -- ------ - ------- and ----------<br>------------- ------ ------ ---- ---- ------- ----- -- ----<br>-------- ------- -- ---------- --- - --- ----- ----- ----<br>---- --- --- ----- --- ---- ---- ------- ----- ---- -------<br>--- --- -- ----- -- --- ---- -- --- ---- -- ------ ------<br>--- ----- -- ----,112287.10000002384,112286.69999998808,111819.562,111822.39999997616,111826.407,112291.646,,7,and
screen,html.Screen,2_1_0_1_8,2022-02-18T13:08:29.757Z,,,,,,,,,,,,,,,,,53,,,,,,,,,,,,,,433.65400001192756,,response,,,,99,,,,,,,Space,keypress(Space),,,,,,,,---- -- ----- -- ------ - ------- --- fulfilling<br>------------- ------ ------ ---- ---- ------- ----- -- ----<br>-------- ------- -- ---------- --- - --- ----- ----- ----<br>---- --- --- ----- --- ---- ---- ------- ----- ---- -------<br>--- --- -- ----- -- --- ---- -- --- ---- -- ------ ------<br>--- ----- -- ----,112725.69999998808,112725.30000001192,112284.808,112287.10000002384,112291.646,112729.12,,8,fulfilling
screen,html.Screen,2_1_0_1_9,2022-02-18T13:08:30.188Z,,,,,,,,,,,,,,,,,53,,,,,,,,,,,,,,426.88000000000466,,response,,,,99,,,,,,,Space,keypress(Space),,,,,,,,"---- -- ----- -- ------ - ------- --- ----------<br>relationship, ------ ------ ---- ---- ------- ----- -- ----<br>-------- ------- -- ---------- --- - --- ----- ----- ----<br>---- --- --- ----- --- ---- ---- ------- ----- ---- -------<br>--- --- -- ----- -- --- ---- -- --- ---- -- ------ ------<br>--- ----- -- ----",113156.39999997616,113156,112722.237,112725.69999998808,112729.12,113159.667,,9,"relationship,"
screen,html.Screen,2_1_0_1_10,2022-02-18T13:08:30.646Z,,,,,,,,,,,,,,,,,53,,,,,,,,,,,,,,454.63300001191965,,response,,,,99,,,,,,,Space,keypress(Space),,,,,,,,---- -- ----- -- ------ - ------- --- ----------<br>------------- common ------ ---- ---- ------- ----- -- ----<br>-------- ------- -- ---------- --- - --- ----- ----- ----<br>---- --- --- ----- --- ---- ---- ------- ----- ---- -------<br>--- --- -- ----- -- --- ---- -- --- ---- -- ------ ------<br>--- ----- -- ----,113614.89999997616,113614.30000001192,113152.761,113156.5,113159.667,113618.103,,10,common
screen,html.Screen,2_1_0_1_11,2022-02-18T13:08:31.044Z,,,,,,,,,,,,,,,,,53,,,,,,,,,,,,,,394.69700001191813,,response,,,,99,,,,,,,Space,keypress(Space),,,,,,,,---- -- ----- -- ------ - ------- --- ----------<br>------------- ------ wisdom ---- ---- ------- ----- -- ----<br>-------- ------- -- ---------- --- - --- ----- ----- ----<br>---- --- --- ----- --- ---- ---- ------- ----- ---- -------<br>--- --- -- ----- -- --- ---- -- --- ---- -- ------ ------<br>--- ----- -- ----,114013.30000001192,114012.80000001192,113611.319,113615,113618.103,114033.003,,11,wisdom
screen,html.Screen,2_1_0_1_12,2022-02-18T13:08:31.565Z,,,,,,,,,,,,,,,,,53,,,,,,,,,,,,,,500.5970000238449,,response,,,,99,,,,,,,Space,keypress(Space),,,,,,,,---- -- ----- -- ------ - ------- --- ----------<br>------------- ------ ------ says ---- ------- ----- -- ----<br>-------- ------- -- ---------- --- - --- ----- ----- ----<br>---- --- --- ----- --- ---- ---- ------- ----- ---- -------<br>--- --- -- ----- -- --- ---- -- --- ---- -- ------ ------<br>--- ----- -- ----,114533.89999997616,114533.60000002384,114006.886,114013.30000001192,114033.003,114547.054,,12,says
screen,html.Screen,2_1_0_1_13,2022-02-18T13:08:32.077Z,,,,,,,,,,,,,,,,,53,,,,,,,,,,,,,,498.8459999761544,,response,,,,99,,,,,,,Space,keypress(Space),,,,,,,,---- -- ----- -- ------ - ------- --- ----------<br>------------- ------ ------ ---- that ------- ----- -- ----<br>-------- ------- -- ---------- --- - --- ----- ----- ----<br>---- --- --- ----- --- ---- ---- ------- ----- ---- -------<br>--- --- -- ----- -- --- ---- -- --- ---- -- ------ ------<br>--- ----- -- ----,115046.30000001192,115045.89999997616,114527.744,114534,114547.054,115048.543,,13,that
screen,html.Screen,2_1_0_1_14,2022-02-18T13:08:32.506Z,,,,,,,,,,,,,,,,,53,,,,,,,,,,,,,,425.7570000119158,,response,,,,99,,,,,,,Space,keypress(Space),,,,,,,,---- -- ----- -- ------ - ------- --- ----------<br>------------- ------ ------ ---- ---- feeling ----- -- ----<br>-------- ------- -- ---------- --- - --- ----- ----- ----<br>---- --- --- ----- --- ---- ---- ------- ----- ---- -------<br>--- --- -- ----- -- --- ---- -- --- ---- -- ------ ------<br>--- ----- -- ----,115474.80000001192,115474.30000001192,115041.883,115046.39999997616,115048.543,115479.094,,14,feeling
screen,html.Screen,2_1_0_1_15,2022-02-18T13:08:32.906Z,,,,,,,,,,,,,,,,,53,,,,,,,,,,,,,,395.2060000119236,,response,,,,99,,,,,,,Space,keypress(Space),,,,,,,,---- -- ----- -- ------ - ------- --- ----------<br>------------- ------ ------ ---- ---- ------- close -- ----<br>-------- ------- -- ---------- --- - --- ----- ----- ----<br>---- --- --- ----- --- ---- ---- ------- ----- ---- -------<br>--- --- -- ----- -- --- ---- -- --- ---- -- ------ ------<br>--- ----- -- ----,115874.69999998808,115874.30000001192,115472.131,115474.89999997616,115479.094,115881.968,,15,close
screen,html.Screen,2_1_0_1_16,2022-02-18T13:08:33.305Z,,,,,,,,,,,,,,,,,53,,,,,,,,,,,,,,391.2319999880856,,response,,,,99,,,,,,,Space,keypress(Space),,,,,,,,---- -- ----- -- ------ - ------- --- ----------<br>------------- ------ ------ ---- ---- ------- ----- to ----<br>-------- ------- -- ---------- --- - --- ----- ----- ----<br>---- --- --- ----- --- ---- ---- ------- ----- ---- -------<br>--- --- -- ----- -- --- ---- -- --- ---- -- ------ ------<br>--- ----- -- ----,116273.80000001192,116273.19999998808,115874.975,115874.80000001192,115881.968,116277.675,,16,to
screen,html.Screen,2_1_0_1_17,2022-02-18T13:08:33.692Z,,,,,,,,,,,,,,,,,53,,,,,,,,,,,,,,383.02499998807616,,response,,,,99,,,,,,,Space,keypress(Space),,,,,,,,---- -- ----- -- ------ - ------- --- ----------<br>------------- ------ ------ ---- ---- ------- ----- -- your<br>-------- ------- -- ---------- --- - --- ----- ----- ----<br>---- --- --- ----- --- ---- ---- ------- ----- ---- -------<br>--- --- -- ----- -- --- ---- -- --- ---- -- ------ ------<br>--- ----- -- ----,116661,116660.69999998808,116270.703,116273.80000001192,116277.675,116666.677,,17,your
screen,html.Screen,2_1_0_1_18,2022-02-18T13:08:34.138Z,,,,,,,,,,,,,,,,,53,,,,,,,,,,,,,,440.2229999761621,,response,,,,99,,,,,,,Space,keypress(Space),,,,,,,,---- -- ----- -- ------ - ------- --- ----------<br>------------- ------ ------ ---- ---- ------- ----- -- ----<br>romantic ------- -- ---------- --- - --- ----- ----- ----<br>---- --- --- ----- --- ---- ---- ------- ----- ---- -------<br>--- --- -- ----- -- --- ---- -- --- ---- -- ------ ------<br>--- ----- -- ----,117107.39999997616,117106.89999997616,116659.773,116661.10000002384,116666.677,117110.987,,18,romantic
screen,html.Screen,2_1_0_1_19,2022-02-18T13:08:34.560Z,,,,,,,,,,,,,,,,,53,,,,,,,,,,,,,,417.21299998808536,,response,,,,99,,,,,,,Space,keypress(Space),,,,,,,,---- -- ----- -- ------ - ------- --- ----------<br>------------- ------ ------ ---- ---- ------- ----- -- ----<br>-------- partner -- ---------- --- - --- ----- ----- ----<br>---- --- --- ----- --- ---- ---- ------- ----- ---- -------<br>--- --- -- ----- -- --- ---- -- --- ---- -- ------ ------<br>--- ----- -- ----,117528.60000002384,117528.19999998808,117104.167,117107.39999997616,117110.987,117534.695,,19,partner
screen,html.Screen,2_1_0_1_20,2022-02-18T13:08:34.973Z,,,,,,,,,,,,,,,,,53,,,,,,,,,,,,,,407.10500001191394,,response,,,,99,,,,,,,Space,keypress(Space),,,,,,,,---- -- ----- -- ------ - ------- --- ----------<br>------------- ------ ------ ---- ---- ------- ----- -- ----<br>-------- ------- is ---------- --- - --- ----- ----- ----<br>---- --- --- ----- --- ---- ---- ------- ----- ---- -------<br>--- --- -- ----- -- --- ---- -- --- ---- -- ------ ------<br>--- ----- -- ----,117942,117941.80000001192,117527.726,117528.69999998808,117534.695,117944.42,,20,is
screen,html.Screen,2_1_0_1_21,2022-02-18T13:08:35.415Z,,,,,,,,,,,,,,,,,53,,,,,,,,,,,,,,439.2799999880808,,response,,,,99,,,,,,,Space,keypress(Space),,,,,,,,---- -- ----- -- ------ - ------- --- ----------<br>------------- ------ ------ ---- ---- ------- ----- -- ----<br>-------- ------- -- paramount. --- - --- ----- ----- ----<br>---- --- --- ----- --- ---- ---- ------- ----- ---- -------<br>--- --- -- ----- -- --- ---- -- --- ---- -- ------ ------<br>--- ----- -- ----,118384,118383.69999998808,117937.479,117942.10000002384,117944.42,118388.699,,21,paramount.
screen,html.Screen,2_1_0_1_22,2022-02-18T13:08:35.985Z,,,,,,,,,,,,,,,,,53,,,,,,,,,,,,,,564.3010000000068,,response,,,,99,,,,,,,Space,keypress(Space),,,,,,,,---- -- ----- -- ------ - ------- --- ----------<br>------------- ------ ------ ---- ---- ------- ----- -- ----<br>-------- ------- -- ---------- But - --- ----- ----- ----<br>---- --- --- ----- --- ---- ---- ------- ----- ---- -------<br>--- --- -- ----- -- --- ---- -- --- ---- -- ------ ------<br>--- ----- -- ----,118953.39999997616,118953,118381.833,118384.10000002384,118388.699,118958.235,,22,But
screen,html.Screen,2_1_0_1_23,2022-02-18T13:08:36.411Z,,,,,,,,,,,,,,,,,53,,,,,,,,,,,,,,421.16499997615756,,response,,,,99,,,,,,,Space,keypress(Space),,,,,,,,---- -- ----- -- ------ - ------- --- ----------<br>------------- ------ ------ ---- ---- ------- ----- -- ----<br>-------- ------- -- ---------- --- a --- ----- ----- ----<br>---- --- --- ----- --- ---- ---- ------- ----- ---- -------<br>--- --- -- ----- -- --- ---- -- --- ---- -- ------ ------<br>--- ----- -- ----,119379.80000001192,119379.39999997616,118951.319,118953.39999997616,118958.235,119381.781,,23,a
screen,html.Screen,2_1_0_1_24,2022-02-18T13:08:36.803Z,,,,,,,,,,,,,,,,,53,,,,,,,,,,,,,,389.2189999999973,,response,,,,99,,,,,,,Space,keypress(Space),,,,,,,,---- -- ----- -- ------ - ------- --- ----------<br>------------- ------ ------ ---- ---- ------- ----- -- ----<br>-------- ------- -- ---------- --- - new ----- ----- ----<br>---- --- --- ----- --- ---- ---- ------- ----- ---- -------<br>--- --- -- ----- -- --- ---- -- --- ---- -- ------ ------<br>--- ----- -- ----,119771.60000002384,119771,119374.923,119379.80000001192,119381.781,119777.592,,24,new
screen,html.Screen,2_1_0_1_25,2022-02-18T13:08:37.179Z,,,,,,,,,,,,,,,,,53,,,,,,,,,,,,,,369.70800001191674,,response,,,,99,,,,,,,Space,keypress(Space),,,,,,,,---- -- ----- -- ------ - ------- --- ----------<br>------------- ------ ------ ---- ---- ------- ----- -- ----<br>-------- ------- -- ---------- --- - --- study ----- ----<br>---- --- --- ----- --- ---- ---- ------- ----- ---- -------<br>--- --- -- ----- -- --- ---- -- --- ---- -- ------ ------<br>--- ----- -- ----,120147.69999998808,120147.30000001192,119770.9,119771.60000002384,119777.592,120152.604,,25,study
screen,html.Screen,2_1_0_1_26,2022-02-18T13:08:37.532Z,,,,,,,,,,,,,,,,,53,,,,,,,,,,,,,,347.7959999761515,,response,,,,99,,,,,,,Space,keypress(Space),,,,,,,,---- -- ----- -- ------ - ------- --- ----------<br>------------- ------ ------ ---- ---- ------- ----- -- ----<br>-------- ------- -- ---------- --- - --- ----- finds ----<br>---- --- --- ----- --- ---- ---- ------- ----- ---- -------<br>--- --- -- ----- -- --- ---- -- --- ---- -- ------ ------<br>--- ----- -- ----,120501.10000002384,120500.39999997616,120145.803,120147.80000001192,120152.604,120506.749,,26,finds
screen,html.Screen,2_1_0_1_27,2022-02-18T13:08:37.905Z,,,,,,,,,,,,,,,,,53,,,,,,,,,,,,,,366.650999976162,,response,,,,99,,,,,,,Space,keypress(Space),,,,,,,,---- -- ----- -- ------ - ------- --- ----------<br>------------- ------ ------ ---- ---- ------- ----- -- ----<br>-------- ------- -- ---------- --- - --- ----- ----- that<br>---- --- --- ----- --- ---- ---- ------- ----- ---- -------<br>--- --- -- ----- -- --- ---- -- --- ---- -- ------ ------<br>--- ----- -- ----,120873.89999997616,120873.39999997616,120499.994,120501.10000002384,120506.749,120887.011,,27,that
screen,html.Screen,2_1_0_1_28,2022-02-18T13:08:38.259Z,,,,,,,,,,,,,,,,,53,,,,,,,,,,,,,,340.08900002384325,,response,,,,99,,,,,,,Space,keypress(Space),,,,,,,,---- -- ----- -- ------ - ------- --- ----------<br>------------- ------ ------ ---- ---- ------- ----- -- ----<br>-------- ------- -- ---------- --- - --- ----- ----- ----<br>it's --- --- ----- --- ---- ---- ------- ----- ---- -------<br>--- --- -- ----- -- --- ---- -- --- ---- -- ------ ------<br>--- ----- -- ----,121227.5,121227.10000002384,120868.065,120874,120887.011,121228.933,,28,it's
screen,html.Screen,2_1_0_1_29,2022-02-18T13:08:38.589Z,,,,,,,,,,,,,,,,,53,,,,,,,,,,,,,,328.6670000238373,,response,,,,99,,,,,,,Space,keypress(Space),,,,,,,,---- -- ----- -- ------ - ------- --- ----------<br>------------- ------ ------ ---- ---- ------- ----- -- ----<br>-------- ------- -- ---------- --- - --- ----- ----- ----<br>---- not --- ----- --- ---- ---- ------- ----- ---- -------<br>--- --- -- ----- -- --- ---- -- --- ---- -- ------ ------<br>--- ----- -- ----,121558,121557.60000002384,121222.07,121227.5,121228.933,121562.361,,29,not
screen,html.Screen,2_1_0_1_30,2022-02-18T13:08:38.965Z,,,,,,,,,,,,,,,,,53,,,,,,,,,,,,,,370.5389999761537,,response,,,,99,,,,,,,Space,keypress(Space),,,,,,,,---- -- ----- -- ------ - ------- --- ----------<br>------------- ------ ------ ---- ---- ------- ----- -- ----<br>-------- ------- -- ---------- --- - --- ----- ----- ----<br>---- --- how ----- --- ---- ---- ------- ----- ---- -------<br>--- --- -- ----- -- --- ---- -- --- ---- -- ------ ------<br>--- ----- -- ----,121933.39999997616,121932.89999997616,121555.332,121558.19999998808,121562.361,121937.272,,30,how
screen,html.Screen,2_1_0_1_31,2022-02-18T13:08:39.396Z,,,,,,,,,,,,,,,,,53,,,,,,,,,,,,,,427.12799997616094,,response,,,,99,,,,,,,Space,keypress(Space),,,,,,,,---- -- ----- -- ------ - ------- --- ----------<br>------------- ------ ------ ---- ---- ------- ----- -- ----<br>-------- ------- -- ---------- --- - --- ----- ----- ----<br>---- --- --- close --- ---- ---- ------- ----- ---- -------<br>--- --- -- ----- -- --- ---- -- --- ---- -- ------ ------<br>--- ----- -- ----,122364.89999997616,122364.39999997616,121930.294,121933.5,121937.272,122367.778,,31,close
screen,html.Screen,2_1_0_1_32,2022-02-18T13:08:39.753Z,,,,,,,,,,,,,,,,,53,,,,,,,,,,,,,,354.2219999999943,,response,,,,99,,,,,,,Space,keypress(Space),,,,,,,,---- -- ----- -- ------ - ------- --- ----------<br>------------- ------ ------ ---- ---- ------- ----- -- ----<br>-------- ------- -- ---------- --- - --- ----- ----- ----<br>---- --- --- ----- you ---- ---- ------- ----- ---- -------<br>--- --- -- ----- -- --- ---- -- --- ---- -- ------ ------<br>--- ----- -- ----,122722.30000001192,122722,122360.838,122364.89999997616,122367.778,122728.882,,32,you
screen,html.Screen,2_1_0_1_33,2022-02-18T13:08:40.176Z,,,,,,,,,,,,,,,,,53,,,,,,,,,,,,,,416.01799997616035,,response,,,,99,,,,,,,Space,keypress(Space),,,,,,,,---- -- ----- -- ------ - ------- --- ----------<br>------------- ------ ------ ---- ---- ------- ----- -- ----<br>-------- ------- -- ---------- --- - --- ----- ----- ----<br>---- --- --- ----- --- feel ---- ------- ----- ---- -------<br>--- --- -- ----- -- --- ---- -- --- ---- -- ------ ------<br>--- ----- -- ----,123145.19999998808,123144.89999997616,122722.052,122722.39999997616,122728.882,123152.535,,33,feel
screen,html.Screen,2_1_0_1_34,2022-02-18T13:08:40.549Z,,,,,,,,,,,,,,,,,53,,,,,,,,,,,,,,364.9649999999965,,response,,,,99,,,,,,,Space,keypress(Space),,,,,,,,---- -- ----- -- ------ - ------- --- ----------<br>------------- ------ ------ ---- ---- ------- ----- -- ----<br>-------- ------- -- ---------- --- - --- ----- ----- ----<br>---- --- --- ----- --- ---- that ------- ----- ---- -------<br>--- --- -- ----- -- --- ---- -- --- ---- -- ------ ------<br>--- ----- -- ----,123517.89999997616,123517.5,123145.585,123145.30000001192,123152.535,123520.617,,34,that
screen,html.Screen,2_1_0_1_35,2022-02-18T13:08:40.925Z,,,,,,,,,,,,,,,,,53,,,,,,,,,,,,,,373.0829999880807,,response,,,,99,,,,,,,Space,keypress(Space),,,,,,,,---- -- ----- -- ------ - ------- --- ----------<br>------------- ------ ------ ---- ---- ------- ----- -- ----<br>-------- ------- -- ---------- --- - --- ----- ----- ----<br>---- --- --- ----- --- ---- ---- matters ----- ---- -------<br>--- --- -- ----- -- --- ---- -- --- ---- -- ------ ------<br>--- ----- -- ----,123894.10000002384,123893.69999998808,123513.651,123518,123520.617,123913.772,,35,matters
screen,html.Screen,2_1_0_1_36,2022-02-18T13:08:41.459Z,,,,,,,,,,,,,,,,,53,,,,,,,,,,,,,,513.9279999880819,,response,,,,99,,,,,,,Space,keypress(Space),,,,,,,,"---- -- ----- -- ------ - ------- --- ----------<br>------------- ------ ------ ---- ---- ------- ----- -- ----<br>-------- ------- -- ---------- --- - --- ----- ----- ----<br>---- --- --- ----- --- ---- ---- ------- most, ---- -------<br>--- --- -- ----- -- --- ---- -- --- ---- -- ------ ------<br>--- ----- -- ----",124428.10000002384,124427.69999998808,123888.599,123894.19999998808,123913.772,124430.231,,36,"most,"
screen,html.Screen,2_1_0_1_37,2022-02-18T13:08:41.914Z,,,,,,,,,,,,,,,,,53,,,,,,,,,,,,,,452.56900001192116,,response,,,,99,,,,,,,Space,keypress(Space),,,,,,,,---- -- ----- -- ------ - ------- --- ----------<br>------------- ------ ------ ---- ---- ------- ----- -- ----<br>-------- ------- -- ---------- --- - --- ----- ----- ----<br>---- --- --- ----- --- ---- ---- ------- ----- it's -------<br>--- --- -- ----- -- --- ---- -- --- ---- -- ------ ------<br>--- ----- -- ----,124883.19999998808,124882.80000001192,124423.452,124428.19999998808,124430.231,124888.596,,37,it's
screen,html.Screen,2_1_0_1_38,2022-02-18T13:08:42.288Z,,,,,,,,,,,,,,,,,53,,,,,,,,,,,,,,367.50400002383685,,response,,,,99,,,,,,,Space,keypress(Space),,,,,,,,---- -- ----- -- ------ - ------- --- ----------<br>------------- ------ ------ ---- ---- ------- ----- -- ----<br>-------- ------- -- ---------- --- - --- ----- ----- ----<br>---- --- --- ----- --- ---- ---- ------- ----- ---- whether<br>--- --- -- ----- -- --- ---- -- --- ---- -- ------ ------<br>--- ----- -- ----,125256.5,125256.10000002384,124881.666,124883.19999998808,124888.596,125263.601,,38,whether
screen,html.Screen,2_1_0_1_39,2022-02-18T13:08:42.662Z,,,,,,,,,,,,,,,,,53,,,,,,,,,,,,,,366.59899998808396,,response,,,,99,,,,,,,Space,keypress(Space),,,,,,,,---- -- ----- -- ------ - ------- --- ----------<br>------------- ------ ------ ---- ---- ------- ----- -- ----<br>-------- ------- -- ---------- --- - --- ----- ----- ----<br>---- --- --- ----- --- ---- ---- ------- ----- ---- -------<br>you --- -- ----- -- --- ---- -- --- ---- -- ------ ------<br>--- ----- -- ----,125630.60000002384,125630.19999998808,125256.711,125256.60000002384,125263.601,125651.973,,39,you
screen,html.Screen,2_1_0_1_40,2022-02-18T13:08:43.028Z,,,,,,,,,,,,,,,,,53,,,,,,,,,,,,,,344.1270000238437,,response,,,,99,,,,,,,Space,keypress(Space),,,,,,,,---- -- ----- -- ------ - ------- --- ----------<br>------------- ------ ------ ---- ---- ------- ----- -- ----<br>-------- ------- -- ---------- --- - --- ----- ----- ----<br>---- --- --- ----- --- ---- ---- ------- ----- ---- -------<br>--- are -- ----- -- --- ---- -- --- ---- -- ------ ------<br>--- ----- -- ----,125996.39999997616,125996.10000002384,125624.776,125630.69999998808,125651.973,125999.678,,40,are
screen,html.Screen,2_1_0_1_41,2022-02-18T13:08:43.428Z,,,,,,,,,,,,,,,,,53,,,,,,,,,,,,,,396.5219999880792,,response,,,,99,,,,,,,Space,keypress(Space),,,,,,,,---- -- ----- -- ------ - ------- --- ----------<br>------------- ------ ------ ---- ---- ------- ----- -- ----<br>-------- ------- -- ---------- --- - --- ----- ----- ----<br>---- --- --- ----- --- ---- ---- ------- ----- ---- -------<br>--- --- as ----- -- --- ---- -- --- ---- -- ------ ------<br>--- ----- -- ----,126396.60000002384,126396.19999998808,125992.867,125996.60000002384,125999.678,126402.459,,41,as
screen,html.Screen,2_1_0_1_42,2022-02-18T13:08:43.772Z,,,,,,,,,,,,,,,,,53,,,,,,,,,,,,,,338.04099999999744,,response,,,,99,,,,,,,Space,keypress(Space),,,,,,,,---- -- ----- -- ------ - ------- --- ----------<br>------------- ------ ------ ---- ---- ------- ----- -- ----<br>-------- ------- -- ---------- --- - --- ----- ----- ----<br>---- --- --- ----- --- ---- ---- ------- ----- ---- -------<br>--- --- -- close -- --- ---- -- --- ---- -- ------ ------<br>--- ----- -- ----,126741,126740.5,126395.479,126396.69999998808,126402.459,126742.766,,42,close
screen,html.Screen,2_1_0_1_43,2022-02-18T13:08:44.122Z,,,,,,,,,,,,,,,,,53,,,,,,,,,,,,,,347.73399999999674,,response,,,,99,,,,,,,Space,keypress(Space),,,,,,,,---- -- ----- -- ------ - ------- --- ----------<br>------------- ------ ------ ---- ---- ------- ----- -- ----<br>-------- ------- -- ---------- --- - --- ----- ----- ----<br>---- --- --- ----- --- ---- ---- ------- ----- ---- -------<br>--- --- -- ----- as --- ---- -- --- ---- -- ------ ------<br>--- ----- -- ----,127090.89999997616,127090.5,126735.837,126741,126742.766,127097,,43,as
screen,html.Screen,2_1_0_1_44,2022-02-18T13:08:44.508Z,,,,,,,,,,,,,,,,,53,,,,,,,,,,,,,,379.30000001192093,,response,,,,99,,,,,,,Space,keypress(Space),,,,,,,,---- -- ----- -- ------ - ------- --- ----------<br>------------- ------ ------ ---- ---- ------- ----- -- ----<br>-------- ------- -- ---------- --- - --- ----- ----- ----<br>---- --- --- ----- --- ---- ---- ------- ----- ---- -------<br>--- --- -- ----- -- you ---- -- --- ---- -- ------ ------<br>--- ----- -- ----,127476.80000001192,127476.30000001192,127090.14,127090.89999997616,127097,127478.772,,44,you
screen,html.Screen,2_1_0_1_45,2022-02-18T13:08:44.898Z,,,,,,,,,,,,,,,,,53,,,,,,,,,,,,,,387.5280000119237,,response,,,,99,,,,,,,Space,keypress(Space),,,,,,,,---- -- ----- -- ------ - ------- --- ----------<br>------------- ------ ------ ---- ---- ------- ----- -- ----<br>-------- ------- -- ---------- --- - --- ----- ----- ----<br>---- --- --- ----- --- ---- ---- ------- ----- ---- -------<br>--- --- -- ----- -- --- want -- --- ---- -- ------ ------<br>--- ----- -- ----,127866.69999998808,127866.30000001192,127472.031,127476.80000001192,127478.772,127887.898,,45,want
screen,html.Screen,2_1_0_1_46,2022-02-18T13:08:45.244Z,,,,,,,,,,,,,,,,,53,,,,,,,,,,,,,,324.60199999999895,,response,,,,99,,,,,,,Space,keypress(Space),,,,,,,,---- -- ----- -- ------ - ------- --- ----------<br>------------- ------ ------ ---- ---- ------- ----- -- ----<br>-------- ------- -- ---------- --- - --- ----- ----- ----<br>---- --- --- ----- --- ---- ---- ------- ----- ---- -------<br>--- --- -- ----- -- --- ---- to --- ---- -- ------ ------<br>--- ----- -- ----,128212.69999998808,128212.5,127860.694,127866.80000001192,127887.898,128214.892,,46,to
screen,html.Screen,2_1_0_1_47,2022-02-18T13:08:45.606Z,,,,,,,,,,,,,,,,,53,,,,,,,,,,,,,,360.1079999999929,,response,,,,99,,,,,,,Space,keypress(Space),,,,,,,,"---- -- ----- -- ------ - ------- --- ----------<br>------------- ------ ------ ---- ---- ------- ----- -- ----<br>-------- ------- -- ---------- --- - --- ----- ----- ----<br>---- --- --- ----- --- ---- ---- ------- ----- ---- -------<br>--- --- -- ----- -- --- ---- -- be, ---- -- ------ ------<br>--- ----- -- ----",128575.30000001192,128575,128208.128,128212.80000001192,128214.892,128586.355,,47,"be,"
screen,html.Screen,2_1_0_1_48,2022-02-18T13:08:45.981Z,,,,,,,,,,,,,,,,,53,,,,,,,,,,,,,,362.945000011925,,response,,,,99,,,,,,,Space,keypress(Space),,,,,,,,---- -- ----- -- ------ - ------- --- ----------<br>------------- ------ ------ ---- ---- ------- ----- -- ----<br>-------- ------- -- ---------- --- - --- ----- ----- ----<br>---- --- --- ----- --- ---- ---- ------- ----- ---- -------<br>--- --- -- ----- -- --- ---- -- --- even -- ------ ------<br>--- ----- -- ----,128949.60000002384,128949.30000001192,128569.077,128575.39999997616,128586.355,128971.222,,48,even
screen,html.Screen,2_1_0_1_49,2022-02-18T13:08:46.325Z,,,,,,,,,,,,,,,,,53,,,,,,,,,,,,,,322.17799997616385,,response,,,,99,,,,,,,Space,keypress(Space),,,,,,,,---- -- ----- -- ------ - ------- --- ----------<br>------------- ------ ------ ---- ---- ------- ----- -- ----<br>-------- ------- -- ---------- --- - --- ----- ----- ----<br>---- --- --- ----- --- ---- ---- ------- ----- ---- -------<br>--- --- -- ----- -- --- ---- -- --- ---- if ------ ------<br>--- ----- -- ----,129293.80000001192,129293.39999997616,128944.056,128949.60000002384,128971.222,129298.214,,49,if
screen,html.Screen,2_1_0_1_50,2022-02-18T13:08:46.705Z,,,,,,,,,,,,,,,,,53,,,,,,,,,,,,,,374.98599998807185,,response,,,,99,,,,,,,Space,keypress(Space),,,,,,,,---- -- ----- -- ------ - ------- --- ----------<br>------------- ------ ------ ---- ---- ------- ----- -- ----<br>-------- ------- -- ---------- --- - --- ----- ----- ----<br>---- --- --- ----- --- ---- ---- ------- ----- ---- -------<br>--- --- -- ----- -- --- ---- -- --- ---- -- that's ------<br>--- ----- -- ----,129673.60000002384,129673.19999998808,129291.314,129293.80000001192,129298.214,129680.124,,50,that's
screen,html.Screen,2_1_0_1_51,2022-02-18T13:08:47.050Z,,,,,,,,,,,,,,,,,53,,,,,,,,,,,,,,337.9760000238457,,response,,,,99,,,,,,,Space,keypress(Space),,,,,,,,---- -- ----- -- ------ - ------- --- ----------<br>------------- ------ ------ ---- ---- ------- ----- -- ----<br>-------- ------- -- ---------- --- - --- ----- ----- ----<br>---- --- --- ----- --- ---- ---- ------- ----- ---- -------<br>--- --- -- ----- -- --- ---- -- --- ---- -- ------ really<br>--- ----- -- ----,130018.60000002384,130018.10000002384,129673.292,129673.60000002384,129680.124,130020.432,,51,really
screen,html.Screen,2_1_0_1_52,2022-02-18T13:08:47.422Z,,,,,,,,,,,,,,,,,53,,,,,,,,,,,,,,370.16800002384116,,response,,,,99,,,,,,,Space,keypress(Space),,,,,,,,---- -- ----- -- ------ - ------- --- ----------<br>------------- ------ ------ ---- ---- ------- ----- -- ----<br>-------- ------- -- ---------- --- - --- ----- ----- ----<br>---- --- --- ----- --- ---- ---- ------- ----- ---- -------<br>--- --- -- ----- -- --- ---- -- --- ---- -- ------ ------<br>not ----- -- ----,130391,130390.60000002384,130013.694,130018.60000002384,130020.432,130395.556,,52,not
screen,html.Screen,2_1_0_1_53,2022-02-18T13:08:47.789Z,,,,,,,,,,,,,,,,,53,,,,,,,,,,,,,,362.3439999761613,,response,,,,99,,,,,,,Space,keypress(Space),,,,,,,,---- -- ----- -- ------ - ------- --- ----------<br>------------- ------ ------ ---- ---- ------- ----- -- ----<br>-------- ------- -- ---------- --- - --- ----- ----- ----<br>---- --- --- ----- --- ---- ---- ------- ----- ---- -------<br>--- --- -- ----- -- --- ---- -- --- ---- -- ------ ------<br>--- close -- ----,130758.19999998808,130757.89999997616,130388.697,130391,130395.556,130763.463,,53,close
screen,html.Screen,2_1_0_1_54,2022-02-18T13:08:48.155Z,,,,,,,,,,,,,,,,,53,,,,,,,,,,,,,,360.2369999880757,,response,,,,99,,,,,,,Space,keypress(Space),,,,,,,,---- -- ----- -- ------ - ------- --- ----------<br>------------- ------ ------ ---- ---- ------- ----- -- ----<br>-------- ------- -- ---------- --- - --- ----- ----- ----<br>---- --- --- ----- --- ---- ---- ------- ----- ---- -------<br>--- --- -- ----- -- --- ---- -- --- ---- -- ------ ------<br>--- ----- at ----,131124.10000002384,131123.69999998808,130756.484,130758.30000001192,130763.463,131132.708,,54,at
screen,html.Screen,2_1_0_1_55,2022-02-18T13:08:48.617Z,,,,,,,,,,,,,,,,,53,,,,,,,,,,,,,,453.09200001190766,,response,,,,99,,,,,,,Space,keypress(Space),,,,,,,,---- -- ----- -- ------ - ------- --- ----------<br>------------- ------ ------ ---- ---- ------- ----- -- ----<br>-------- ------- -- ---------- --- - --- ----- ----- ----<br>---- --- --- ----- --- ---- ---- ------- ----- ---- -------<br>--- --- -- ----- -- --- ---- -- --- ---- -- ------ ------<br>--- ----- -- all.,131586.10000002384,131585.80000001192,131117.578,131124.10000002384,131132.708,131589.887,,55,all.
Item 99,flow.Loop,2_1_0_1,2022-02-18T13:08:48.617Z,,,,,,,,,,,,,,,,,,,,,,,,,,,,,,,23481.108000011925,,completion,,,,,F,,,,,,,,,,,silence,,,,,131586.19999998808,131585.80000001192,108090.612,108091.80000001192,108104.692,131589.887,,,
Question 1,html.Screen,2_1_0_2,2022-02-18T13:08:55.245Z,,,,,,,,,,,,,,,,,,,,,,,,,,,,true,FALSE,,6622.713000023854,,response,,,,99,F,,,,,,FALSE,click #choice-2,,,,silence,,,,,138213.89999997616,138212.60000002384,131582.967,131586.30000001192,131589.887,138214.779,,,
Question 2,html.Screen,2_1_0_3,2022-02-18T13:09:00.120Z,,,,,,,,,,,,,,,,,,,,,,,,,,,,true,TRUE,,4873.120999976149,,response,,,,99,F,,,,,,TRUE,click #choice-1,,,,silence,,,,,143089,143087.89999997616,138207.682,138214.10000002384,138214.779,143107.975,,,
Item 99,flow.Sequence,2_1_0,2022-02-18T13:09:00.120Z,,,,,,,,,,,,,,,,,,,,,,,,,,,,,,,44990.37799997616,,completion,,,,,,,,,,,,,,,,,,,,,143089.30000001192,143087.89999997616,98090.624,98091.80000001192,98097.522,143107.975,,,
Holding screen,html.Screen,2_1_1_0,2022-02-18T13:09:10.135Z,,,,,,,,,,,,,,,,,,,,,,,,,,,,,,,10002.313999999984,,timeout,,,,,,,,,,,,,,,,,,,,,153103.89999997616,153103.435,143082.631,143089.5,143107.975,153110.289,,,
screen,html.Screen,2_1_1_1_0,2022-02-18T13:09:10.762Z,,,,,,,,,,,,,,,,,54,,,,,,,,,,,,,,620.6109999761684,,response,,,,100,,,,,,,Space,keypress(Space),,,,,,,,At --- ---- --- ------ ----- ------- ---- -- --- ------- --<br>------- ---------- ------ -- ----- -- ----- -- ---- ------<br>--- ----- --- --- ------ -------- ----- --- ------ ----- --<br>----- ----- ---------- --- --- ------ ------ ---- -- ------<br>------- --- ------ ----- --- ---- ------- -- ---- --- --<br>------- ------,153731.19999998808,153730.89999997616,153103.435,153104,153110.289,153735.273,,0,At
screen,html.Screen,2_1_1_1_1,2022-02-18T13:09:11.120Z,,,,,,,,,,,,,,,,,54,,,,,,,,,,,,,,352.82700002385536,,response,,,,100,,,,,,,Space,keypress(Space),,,,,,,,-- the ---- --- ------ ----- ------- ---- -- --- ------- --<br>------- ---------- ------ -- ----- -- ----- -- ---- ------<br>--- ----- --- --- ------ -------- ----- --- ------ ----- --<br>----- ----- ---------- --- --- ------ ------ ---- -- ------<br>------- --- ------ ----- --- ---- ------- -- ---- --- --<br>------- ------,154088.5,154088.10000002384,153728.397,153731.30000001192,153735.273,154102.21,,1,the
screen,html.Screen,2_1_1_1_2,2022-02-18T13:09:11.545Z,,,,,,,,,,,,,,,,,54,,,,,,,,,,,,,,410.9899999880872,,response,,,,100,,,,,,,Space,keypress(Space),,,,,,,,-- --- time --- ------ ----- ------- ---- -- --- ------- --<br>------- ---------- ------ -- ----- -- ----- -- ---- ------<br>--- ----- --- --- ------ -------- ----- --- ------ ----- --<br>----- ----- ---------- --- --- ------ ------ ---- -- ------<br>------- --- ------ ----- --- ---- ------- -- ---- --- --<br>------- ------,154513.69999998808,154513.19999998808,154082.498,154088.60000002384,154102.21,154519.857,,2,time
screen,html.Screen,2_1_1_1_3,2022-02-18T13:09:12.056Z,,,,,,,,,,,,,,,,,54,,,,,,,,,,,,,,504.5429999761691,,response,,,,100,,,,,,,Space,keypress(Space),,,,,,,,-- --- ---- the ------ ----- ------- ---- -- --- ------- --<br>------- ---------- ------ -- ----- -- ----- -- ---- ------<br>--- ----- --- --- ------ -------- ----- --- ------ ----- --<br>----- ----- ---------- --- --- ------ ------ ---- -- ------<br>------- --- ------ ----- --- ---- ------- -- ---- --- --<br>------- ------,155025,155024.39999997616,154513.125,154513.80000001192,154519.857,155026.84,,3,the
screen,html.Screen,2_1_1_1_4,2022-02-18T13:09:12.565Z,,,,,,,,,,,,,,,,,54,,,,,,,,,,,,,,505.9600000119244,,response,,,,100,,,,,,,Space,keypress(Space),,,,,,,,-- --- ---- --- French ----- ------- ---- -- --- ------- --<br>------- ---------- ------ -- ----- -- ----- -- ---- ------<br>--- ----- --- --- ------ -------- ----- --- ------ ----- --<br>----- ----- ---------- --- --- ------ ------ ---- -- ------<br>------- --- ------ ----- --- ---- ------- -- ---- --- --<br>------- ------,155533.5,155532.80000001192,155019.924,155025,155026.84,155540.804,,4,French
screen,html.Screen,2_1_1_1_5,2022-02-18T13:09:12.971Z,,,,,,,,,,,,,,,,,54,,,,,,,,,,,,,,398.4960000119172,,response,,,,100,,,,,,,Space,keypress(Space),,,,,,,,-- --- ---- --- ------ crown ------- ---- -- --- ------- --<br>------- ---------- ------ -- ----- -- ----- -- ---- ------<br>--- ----- --- --- ------ -------- ----- --- ------ ----- --<br>----- ----- ---------- --- --- ------ ------ ---- -- ------<br>------- --- ------ ----- --- ---- ------- -- ---- --- --<br>------- ------,155939.60000002384,155939.30000001192,155527.035,155533.5,155540.804,155943.421,,5,crown
screen,html.Screen,2_1_1_1_6,2022-02-18T13:09:13.376Z,,,,,,,,,,,,,,,,,54,,,,,,,,,,,,,,401.5789999999979,,response,,,,100,,,,,,,Space,keypress(Space),,,,,,,,-- --- ---- --- ------ ----- secured ---- -- --- ------- --<br>------- ---------- ------ -- ----- -- ----- -- ---- ------<br>--- ----- --- --- ------ -------- ----- --- ------ ----- --<br>----- ----- ---------- --- --- ------ ------ ---- -- ------<br>------- --- ------ ----- --- ---- ------- -- ---- --- --<br>------- ------,156345.30000001192,156345,155936.754,155939.69999998808,155943.421,156359.694,,6,secured
screen,html.Screen,2_1_1_1_7,2022-02-18T13:09:13.830Z,,,,,,,,,,,,,,,,,54,,,,,,,,,,,,,,438.5059999880905,,response,,,,100,,,,,,,Space,keypress(Space),,,,,,,,-- --- ---- --- ------ ----- ------- much -- --- ------- --<br>------- ---------- ------ -- ----- -- ----- -- ---- ------<br>--- ----- --- --- ------ -------- ----- --- ------ ----- --<br>----- ----- ---------- --- --- ------ ------ ---- -- ------<br>------- --- ------ ----- --- ---- ------- -- ---- --- --<br>------- ------,156798.60000002384,156798.19999998808,156339.454,156345.30000001192,156359.694,156804.64,,7,much
screen,html.Screen,2_1_1_1_8,2022-02-18T13:09:14.200Z,,,,,,,,,,,,,,,,,54,,,,,,,,,,,,,,364.4600000238279,,response,,,,100,,,,,,,Space,keypress(Space),,,,,,,,-- --- ---- --- ------ ----- ------- ---- of --- ------- --<br>------- ---------- ------ -- ----- -- ----- -- ---- ------<br>--- ----- --- --- ------ -------- ----- --- ------ ----- --<br>----- ----- ---------- --- --- ------ ------ ---- -- ------<br>------- --- ------ ----- --- ---- ------- -- ---- --- --<br>------- ------,157169.39999997616,157169.10000002384,156797.663,156798.60000002384,156804.64,157172.542,,8,of
screen,html.Screen,2_1_1_1_9,2022-02-18T13:09:14.562Z,,,,,,,,,,,,,,,,,54,,,,,,,,,,,,,,357.45800000001327,,response,,,,100,,,,,,,Space,keypress(Space),,,,,,,,-- --- ---- --- ------ ----- ------- ---- -- its ------- --<br>------- ---------- ------ -- ----- -- ----- -- ---- ------<br>--- ----- --- --- ------ -------- ----- --- ------ ----- --<br>----- ----- ---------- --- --- ------ ------ ---- -- ------<br>------- --- ------ ----- --- ---- ------- -- ---- --- --<br>------- ------,157530.5,157530,157165.596,157169.5,157172.542,157533.665,,9,its
screen,html.Screen,2_1_1_1_10,2022-02-18T13:09:14.889Z,,,,,,,,,,,,,,,,,54,,,,,,,,,,,,,,323.6350000119128,,response,,,,100,,,,,,,Space,keypress(Space),,,,,,,,-- --- ---- --- ------ ----- ------- ---- -- --- revenue --<br>------- ---------- ------ -- ----- -- ----- -- ---- ------<br>--- ----- --- --- ------ -------- ----- --- ------ ----- --<br>----- ----- ---------- --- --- ------ ------ ---- -- ------<br>------- --- ------ ----- --- ---- ------- -- ---- --- --<br>------- ------,157857.60000002384,157857.30000001192,157526.814,157530.5,157533.665,157860.06,,10,revenue
screen,html.Screen,2_1_1_1_11,2022-02-18T13:09:15.338Z,,,,,,,,,,,,,,,,,54,,,,,,,,,,,,,,446.9400000000023,,response,,,,100,,,,,,,Space,keypress(Space),,,,,,,,-- --- ---- --- ------ ----- ------- ---- -- --- ------- by<br>------- ---------- ------ -- ----- -- ----- -- ---- ------<br>--- ----- --- --- ------ -------- ----- --- ------ ----- --<br>----- ----- ---------- --- --- ------ ------ ---- -- ------<br>------- --- ------ ----- --- ---- ------- -- ---- --- --<br>------- ------,158307.30000001192,158307,157853.259,157857.69999998808,157860.06,158311.423,,11,by
screen,html.Screen,2_1_1_1_12,2022-02-18T13:09:15.706Z,,,,,,,,,,,,,,,,,54,,,,,,,,,,,,,,363.47699997614836,,response,,,,100,,,,,,,Space,keypress(Space),,,,,,,,-- --- ---- --- ------ ----- ------- ---- -- --- ------- --<br>issuing ---------- ------ -- ----- -- ----- -- ---- ------<br>--- ----- --- --- ------ -------- ----- --- ------ ----- --<br>----- ----- ---------- --- --- ------ ------ ---- -- ------<br>------- --- ------ ----- --- ---- ------- -- ---- --- --<br>------- ------,158675.30000001192,158674.89999997616,158304.502,158307.30000001192,158311.423,158679.579,,12,issuing
screen,html.Screen,2_1_1_1_13,2022-02-18T13:09:16.095Z,,,,,,,,,,,,,,,,,54,,,,,,,,,,,,,,383.82099997616024,,response,,,,100,,,,,,,Space,keypress(Space),,,,,,,,-- --- ---- --- ------ ----- ------- ---- -- --- ------- --<br>------- government ------ -- ----- -- ----- -- ---- ------<br>--- ----- --- --- ------ -------- ----- --- ------ ----- --<br>----- ----- ---------- --- --- ------ ------ ---- -- ------<br>------- --- ------ ----- --- ---- ------- -- ---- --- --<br>------- ------,159063.80000001192,159063.39999997616,158672.587,158675.30000001192,158679.579,159068.352,,13,government
screen,html.Screen,2_1_1_1_14,2022-02-18T13:09:17.440Z,,,,,,,,,,,,,,,,,54,,,,,,,,,,,,,,1340.4480000119074,,response,,,,100,,,,,,,Space,keypress(Space),,,,,,,,-- --- ---- --- ------ ----- ------- ---- -- --- ------- --<br>------- ---------- bonds. -- ----- -- ----- -- ---- ------<br>--- ----- --- --- ------ -------- ----- --- ------ ----- --<br>----- ----- ---------- --- --- ------ ------ ---- -- ------<br>------- --- ------ ----- --- ---- ------- -- ---- --- --<br>------- ------,160409.19999998808,160408.80000001192,159061.658,159063.89999997616,159068.352,160415.672,,14,bonds.
screen,html.Screen,2_1_1_1_15,2022-02-18T13:09:18.018Z,,,,,,,,,,,,,,,,,54,,,,,,,,,,,,,,570.9280000238505,,response,,,,100,,,,,,,Space,keypress(Space),,,,,,,,-- --- ---- --- ------ ----- ------- ---- -- --- ------- --<br>------- ---------- ------ In ----- -- ----- -- ---- ------<br>--- ----- --- --- ------ -------- ----- --- ------ ----- --<br>----- ----- ---------- --- --- ------ ------ ---- -- ------<br>------- --- ------ ----- --- ---- ------- -- ---- --- --<br>------- ------,160987,160986.60000002384,160408.647,160409.30000001192,160415.672,160991.925,,15,In
screen,html.Screen,2_1_1_1_16,2022-02-18T13:09:19.068Z,,,,,,,,,,,,,,,,,54,,,,,,,,,,,,,,1044.7749999880907,,response,,,,100,,,,,,,Space,keypress(Space),,,,,,,,"-- --- ---- --- ------ ----- ------- ---- -- --- ------- --<br>------- ---------- ------ -- 1727, -- ----- -- ---- ------<br>--- ----- --- --- ------ -------- ----- --- ------ ----- --<br>----- ----- ---------- --- --- ------ ------ ---- -- ------<br>------- --- ------ ----- --- ---- ------- -- ---- --- --<br>------- ------",162037.10000002384,162036.69999998808,160985.203,160987,160991.925,162040.549,,16,"1727,"
screen,html.Screen,2_1_1_1_17,2022-02-18T13:09:19.530Z,,,,,,,,,,,,,,,,,54,,,,,,,,,,,,,,457.65099998808,,response,,,,100,,,,,,,Space,keypress(Space),,,,,,,,-- --- ---- --- ------ ----- ------- ---- -- --- ------- --<br>------- ---------- ------ -- ----- in ----- -- ---- ------<br>--- ----- --- --- ------ -------- ----- --- ------ ----- --<br>----- ----- ---------- --- --- ------ ------ ---- -- ------<br>------- --- ------ ----- --- ---- ------- -- ---- --- --<br>------- ------,162498.5,162498.19999998808,162033.495,162037.10000002384,162040.549,162505.914,,17,in
screen,html.Screen,2_1_1_1_18,2022-02-18T13:09:19.915Z,,,,,,,,,,,,,,,,,54,,,,,,,,,,,,,,377.7859999880893,,response,,,,100,,,,,,,Space,keypress(Space),,,,,,,,-- --- ---- --- ------ ----- ------- ---- -- --- ------- --<br>------- ---------- ------ -- ----- -- order -- ---- ------<br>--- ----- --- --- ------ -------- ----- --- ------ ----- --<br>----- ----- ---------- --- --- ------ ------ ---- -- ------<br>------- --- ------ ----- --- ---- ------- -- ---- --- --<br>------- ------,162884.10000002384,162883.69999998808,162492.111,162498.69999998808,162505.914,162887.701,,18,order
screen,html.Screen,2_1_1_1_19,2022-02-18T13:09:20.273Z,,,,,,,,,,,,,,,,,54,,,,,,,,,,,,,,353.99899998807814,,response,,,,100,,,,,,,Space,keypress(Space),,,,,,,,-- --- ---- --- ------ ----- ------- ---- -- --- ------- --<br>------- ---------- ------ -- ----- -- ----- to ---- ------<br>--- ----- --- --- ------ -------- ----- --- ------ ----- --<br>----- ----- ---------- --- --- ------ ------ ---- -- ------<br>------- --- ------ ----- --- ---- ------- -- ---- --- --<br>------- ------,163242.30000001192,163241.69999998808,162880.978,162884.10000002384,162887.701,163248.939,,19,to
screen,html.Screen,2_1_1_1_20,2022-02-18T13:09:20.785Z,,,,,,,,,,,,,,,,,54,,,,,,,,,,,,,,504.3610000119079,,response,,,,100,,,,,,,Space,keypress(Space),,,,,,,,-- --- ---- --- ------ ----- ------- ---- -- --- ------- --<br>------- ---------- ------ -- ----- -- ----- -- save ------<br>--- ----- --- --- ------ -------- ----- --- ------ ----- --<br>----- ----- ---------- --- --- ------ ------ ---- -- ------<br>------- --- ------ ----- --- ---- ------- -- ---- --- --<br>------- ------,163753.80000001192,163753.30000001192,163242.095,163242.30000001192,163248.939,163755.728,,20,save
screen,html.Screen,2_1_1_1_21,2022-02-18T13:09:21.102Z,,,,,,,,,,,,,,,,,54,,,,,,,,,,,,,,314.9719999880763,,response,,,,100,,,,,,,Space,keypress(Space),,,,,,,,"-- --- ---- --- ------ ----- ------- ---- -- --- ------- --<br>------- ---------- ------ -- ----- -- ----- -- ---- money,<br>--- ----- --- --- ------ -------- ----- --- ------ ----- --<br>----- ----- ---------- --- --- ------ ------ ---- -- ------<br>------- --- ------ ----- --- ---- ------- -- ---- --- --<br>------- ------",164071.19999998808,164070.69999998808,163748.937,163753.80000001192,163755.728,164075.259,,21,"money,"
screen,html.Screen,2_1_1_1_22,2022-02-18T13:09:21.888Z,,,,,,,,,,,,,,,,,54,,,,,,,,,,,,,,781.4409999880882,,response,,,,100,,,,,,,Space,keypress(Space),,,,,,,,-- --- ---- --- ------ ----- ------- ---- -- --- ------- --<br>------- ---------- ------ -- ----- -- ----- -- ---- ------<br>the ----- --- --- ------ -------- ----- --- ------ ----- --<br>----- ----- ---------- --- --- ------ ------ ---- -- ------<br>------- --- ------ ----- --- ---- ------- -- ---- --- --<br>------- ------,164857.10000002384,164856.69999998808,164068.353,164071.19999998808,164075.259,164859.968,,22,the
screen,html.Screen,2_1_1_1_23,2022-02-18T13:09:22.231Z,,,,,,,,,,,,,,,,,54,,,,,,,,,,,,,,340.0320000000065,,response,,,,100,,,,,,,Space,keypress(Space),,,,,,,,-- --- ---- --- ------ ----- ------- ---- -- --- ------- --<br>------- ---------- ------ -- ----- -- ----- -- ---- ------<br>--- state --- --- ------ -------- ----- --- ------ ----- --<br>----- ----- ---------- --- --- ------ ------ ---- -- ------<br>------- --- ------ ----- --- ---- ------- -- ---- --- --<br>------- ------,165200.30000001192,165200,164852.954,164857.19999998808,164859.968,165207.088,,23,state
screen,html.Screen,2_1_1_1_24,2022-02-18T13:09:22.613Z,,,,,,,,,,,,,,,,,54,,,,,,,,,,,,,,374.51200002385303,,response,,,,100,,,,,,,Space,keypress(Space),,,,,,,,-- --- ---- --- ------ ----- ------- ---- -- --- ------- --<br>------- ---------- ------ -- ----- -- ----- -- ---- ------<br>--- ----- cut --- ------ -------- ----- --- ------ ----- --<br>----- ----- ---------- --- --- ------ ------ ---- -- ------<br>------- --- ------ ----- --- ---- ------- -- ---- --- --<br>------- ------,165581.89999997616,165581.60000002384,165200.246,165200.39999997616,165207.088,165589.102,,24,cut
screen,html.Screen,2_1_1_1_25,2022-02-18T13:09:22.929Z,,,,,,,,,,,,,,,,,54,,,,,,,,,,,,,,308.29799997614464,,response,,,,100,,,,,,,Space,keypress(Space),,,,,,,,-- --- ---- --- ------ ----- ------- ---- -- --- ------- --<br>------- ---------- ------ -- ----- -- ----- -- ---- ------<br>--- ----- --- the ------ -------- ----- --- ------ ----- --<br>----- ----- ---------- --- --- ------ ------ ---- -- ------<br>------- --- ------ ----- --- ---- ------- -- ---- --- --<br>------- ------,165897.69999998808,165897.39999997616,165582.074,165581.89999997616,165589.102,165901.655,,25,the
screen,html.Screen,2_1_1_1_26,2022-02-18T13:09:23.241Z,,,,,,,,,,,,,,,,,54,,,,,,,,,,,,,,307.84500000000116,,response,,,,100,,,,,,,Space,keypress(Space),,,,,,,,-- --- ---- --- ------ ----- ------- ---- -- --- ------- --<br>------- ---------- ------ -- ----- -- ----- -- ---- ------<br>--- ----- --- --- bonds' -------- ----- --- ------ ----- --<br>----- ----- ---------- --- --- ------ ------ ---- -- ------<br>------- --- ------ ----- --- ---- ------- -- ---- --- --<br>------- ------,166209.89999997616,166209.5,165894.792,165897.69999998808,165901.655,166214.016,,26,bonds'
screen,html.Screen,2_1_1_1_27,2022-02-18T13:09:23.641Z,,,,,,,,,,,,,,,,,54,,,,,,,,,,,,,,395.3839999761549,,response,,,,100,,,,,,,Space,keypress(Space),,,,,,,,-- --- ---- --- ------ ----- ------- ---- -- --- ------- --<br>------- ---------- ------ -- ----- -- ----- -- ---- ------<br>--- ----- --- --- ------ interest ----- --- ------ ----- --<br>----- ----- ---------- --- --- ------ ------ ---- -- ------<br>------- --- ------ ----- --- ---- ------- -- ---- --- --<br>------- ------,166609.80000001192,166609.39999997616,166207.207,166210,166214.016,166616.902,,27,interest
screen,html.Screen,2_1_1_1_28,2022-02-18T13:09:23.984Z,,,,,,,,,,,,,,,,,54,,,,,,,,,,,,,,335.4979999761563,,response,,,,100,,,,,,,Space,keypress(Space),,,,,,,,-- --- ---- --- ------ ----- ------- ---- -- --- ------- --<br>------- ---------- ------ -- ----- -- ----- -- ---- ------<br>--- ----- --- --- ------ -------- rate. --- ------ ----- --<br>----- ----- ---------- --- --- ------ ------ ---- -- ------<br>------- --- ------ ----- --- ---- ------- -- ---- --- --<br>------- ------,166952.69999998808,166952.39999997616,166609.935,166609.80000001192,166616.902,166957.186,,28,rate.
screen,html.Screen,2_1_1_1_29,2022-02-18T13:09:25.048Z,,,,,,,,,,,,,,,,,54,,,,,,,,,,,,,,1059.914000023855,,response,,,,100,,,,,,,Space,keypress(Space),,,,,,,,-- --- ---- --- ------ ----- ------- ---- -- --- ------- --<br>------- ---------- ------ -- ----- -- ----- -- ---- ------<br>--- ----- --- --- ------ -------- ----- The ------ ----- --<br>----- ----- ---------- --- --- ------ ------ ---- -- ------<br>------- --- ------ ----- --- ---- ------- -- ---- --- --<br>------- ------,168017.39999997616,168017.10000002384,166950.35,166953.10000002384,166957.186,168019.55,,29,The
screen,html.Screen,2_1_1_1_30,2022-02-18T13:09:25.465Z,,,,,,,,,,,,,,,,,54,,,,,,,,,,,,,,413.6499999880907,,response,,,,100,,,,,,,Space,keypress(Space),,,,,,,,-- --- ---- --- ------ ----- ------- ---- -- --- ------- --<br>------- ---------- ------ -- ----- -- ----- -- ---- ------<br>--- ----- --- --- ------ -------- ----- --- market ----- --<br>----- ----- ---------- --- --- ------ ------ ---- -- ------<br>------- --- ------ ----- --- ---- ------- -- ---- --- --<br>------- ------,168433.69999998808,168433.19999998808,168012.59,168017.39999997616,168019.55,168436.241,,30,market
screen,html.Screen,2_1_1_1_31,2022-02-18T13:09:25.749Z,,,,,,,,,,,,,,,,,54,,,,,,,,,,,,,,281.65899997614906,,response,,,,100,,,,,,,Space,keypress(Space),,,,,,,,-- --- ---- --- ------ ----- ------- ---- -- --- ------- --<br>------- ---------- ------ -- ----- -- ----- -- ---- ------<br>--- ----- --- --- ------ -------- ----- --- ------ value --<br>----- ----- ---------- --- --- ------ ------ ---- -- ------<br>------- --- ------ ----- --- ---- ------- -- ---- --- --<br>------- ------,168718.19999998808,168717.89999997616,168429.418,168433.80000001192,168436.241,168720.894,,31,value
screen,html.Screen,2_1_1_1_32,2022-02-18T13:09:26.063Z,,,,,,,,,,,,,,,,,54,,,,,,,,,,,,,,310.10599999999977,,response,,,,100,,,,,,,Space,keypress(Space),,,,,,,,-- --- ---- --- ------ ----- ------- ---- -- --- ------- --<br>------- ---------- ------ -- ----- -- ----- -- ---- ------<br>--- ----- --- --- ------ -------- ----- --- ------ ----- of<br>----- ----- ---------- --- --- ------ ------ ---- -- ------<br>------- --- ------ ----- --- ---- ------- -- ---- --- --<br>------- ------,169031.5,169031,168714.197,168718.30000001192,168720.894,169033.381,,32,of
screen,html.Screen,2_1_1_1_33,2022-02-18T13:09:26.411Z,,,,,,,,,,,,,,,,,54,,,,,,,,,,,,,,346.5189999761642,,response,,,,100,,,,,,,Space,keypress(Space),,,,,,,,-- --- ---- --- ------ ----- ------- ---- -- --- ------- --<br>------- ---------- ------ -- ----- -- ----- -- ---- ------<br>--- ----- --- --- ------ -------- ----- --- ------ ----- --<br>these ----- ---------- --- --- ------ ------ ---- -- ------<br>------- --- ------ ----- --- ---- ------- -- ---- --- --<br>------- ------,169380.30000001192,169379.89999997616,169026.522,169031.60000002384,169033.381,169387.797,,33,these
screen,html.Screen,2_1_1_1_34,2022-02-18T13:09:26.715Z,,,,,,,,,,,,,,,,,54,,,,,,,,,,,,,,296.10299997616676,,response,,,,100,,,,,,,Space,keypress(Space),,,,,,,,-- --- ---- --- ------ ----- ------- ---- -- --- ------- --<br>------- ---------- ------ -- ----- -- ----- -- ---- ------<br>--- ----- --- --- ------ -------- ----- --- ------ ----- --<br>----- bonds ---------- --- --- ------ ------ ---- -- ------<br>------- --- ------ ----- --- ---- ------- -- ---- --- --<br>------- ------,169684.30000001192,169683.89999997616,169373.778,169380.39999997616,169387.797,169686.208,,34,bonds
screen,html.Screen,2_1_1_1_35,2022-02-18T13:09:27.115Z,,,,,,,,,,,,,,,,,54,,,,,,,,,,,,,,397.69199997614487,,response,,,,100,,,,,,,Space,keypress(Space),,,,,,,,"-- --- ---- --- ------ ----- ------- ---- -- --- ------- --<br>------- ---------- ------ -- ----- -- ----- -- ---- ------<br>--- ----- --- --- ------ -------- ----- --- ------ ----- --<br>----- ----- plummeted, --- --- ------ ------ ---- -- ------<br>------- --- ------ ----- --- ---- ------- -- ---- --- --<br>------- ------",170084.39999997616,170083.89999997616,169679.253,169684.30000001192,169686.208,170088.879,,35,"plummeted,"
screen,html.Screen,2_1_1_1_36,2022-02-18T13:09:28.079Z,,,,,,,,,,,,,,,,,54,,,,,,,,,,,,,,958.9210000119347,,response,,,,100,,,,,,,Space,keypress(Space),,,,,,,,-- --- ---- --- ------ ----- ------- ---- -- --- ------- --<br>------- ---------- ------ -- ----- -- ----- -- ---- ------<br>--- ----- --- --- ------ -------- ----- --- ------ ----- --<br>----- ----- ---------- and --- ------ ------ ---- -- ------<br>------- --- ------ ----- --- ---- ------- -- ---- --- --<br>------- ------,171048.30000001192,171047.80000001192,170081.979,170084.39999997616,170088.879,171054.31,,36,and
screen,html.Screen,2_1_1_1_37,2022-02-18T13:09:28.529Z,,,,,,,,,,,,,,,,,54,,,,,,,,,,,,,,443.6900000000023,,response,,,,100,,,,,,,Space,keypress(Space),,,,,,,,-- --- ---- --- ------ ----- ------- ---- -- --- ------- --<br>------- ---------- ------ -- ----- -- ----- -- ---- ------<br>--- ----- --- --- ------ -------- ----- --- ------ ----- --<br>----- ----- ---------- --- the ------ ------ ---- -- ------<br>------- --- ------ ----- --- ---- ------- -- ---- --- --<br>------- ------,171498.19999998808,171498,171047.275,171048.39999997616,171054.31,171511.134,,37,the
screen,html.Screen,2_1_1_1_38,2022-02-18T13:09:28.871Z,,,,,,,,,,,,,,,,,54,,,,,,,,,,,,,,328.06599998808815,,response,,,,100,,,,,,,Space,keypress(Space),,,,,,,,-- --- ---- --- ------ ----- ------- ---- -- --- ------- --<br>------- ---------- ------ -- ----- -- ----- -- ---- ------<br>--- ----- --- --- ------ -------- ----- --- ------ ----- --<br>----- ----- ---------- --- --- market ------ ---- -- ------<br>------- --- ------ ----- --- ---- ------- -- ---- --- --<br>------- ------,171839.5,171839.19999998808,171491.86,171498.30000001192,171511.134,171845.855,,38,market
screen,html.Screen,2_1_1_1_39,2022-02-18T13:09:29.205Z,,,,,,,,,,,,,,,,,54,,,,,,,,,,,,,,327.7450000238314,,response,,,,100,,,,,,,Space,keypress(Space),,,,,,,,-- --- ---- --- ------ ----- ------- ---- -- --- ------- --<br>------- ---------- ------ -- ----- -- ----- -- ---- ------<br>--- ----- --- --- ------ -------- ----- --- ------ ----- --<br>----- ----- ---------- --- --- ------ became ---- -- ------<br>------- --- ------ ----- --- ---- ------- -- ---- --- --<br>------- ------,172174,172173.60000002384,171838.961,171839.60000002384,171845.855,172179.201,,39,became
screen,html.Screen,2_1_1_1_40,2022-02-18T13:09:29.502Z,,,,,,,,,,,,,,,,,54,,,,,,,,,,,,,,291.59900001192,,response,,,,100,,,,,,,Space,keypress(Space),,,,,,,,-- --- ---- --- ------ ----- ------- ---- -- --- ------- --<br>------- ---------- ------ -- ----- -- ----- -- ---- ------<br>--- ----- --- --- ------ -------- ----- --- ------ ----- --<br>----- ----- ---------- --- --- ------ ------ wary -- ------<br>------- --- ------ ----- --- ---- ------- -- ---- --- --<br>------- ------,172471.19999998808,172470.80000001192,172172.409,172174.10000002384,172179.201,172477.887,,40,wary
screen,html.Screen,2_1_1_1_41,2022-02-18T13:09:29.860Z,,,,,,,,,,,,,,,,,54,,,,,,,,,,,,,,350.41300001193304,,response,,,,100,,,,,,,Space,keypress(Space),,,,,,,,-- --- ---- --- ------ ----- ------- ---- -- --- ------- --<br>------- ---------- ------ -- ----- -- ----- -- ---- ------<br>--- ----- --- --- ------ -------- ----- --- ------ ----- --<br>----- ----- ---------- --- --- ------ ------ ---- of ------<br>------- --- ------ ----- --- ---- ------- -- ---- --- --<br>------- ------,172828.80000001192,172828.30000001192,172470.931,172471.30000001192,172477.887,172831.913,,41,of
screen,html.Screen,2_1_1_1_42,2022-02-18T13:09:30.366Z,,,,,,,,,,,,,,,,,54,,,,,,,,,,,,,,502.88700001192046,,response,,,,100,,,,,,,Space,keypress(Space),,,,,,,,-- --- ---- --- ------ ----- ------- ---- -- --- ------- --<br>------- ---------- ------ -- ----- -- ----- -- ---- ------<br>--- ----- --- --- ------ -------- ----- --- ------ ----- --<br>----- ----- ---------- --- --- ------ ------ ---- -- French<br>------- --- ------ ----- --- ---- ------- -- ---- --- --<br>------- ------,173335.19999998808,173334.80000001192,172825.173,172828.80000001192,172831.913,173338.86,,42,French
screen,html.Screen,2_1_1_1_43,2022-02-18T13:09:31.810Z,,,,,,,,,,,,,,,,,54,,,,,,,,,,,,,,1439.940000011935,,response,,,,100,,,,,,,Space,keypress(Space),,,,,,,,-- --- ---- --- ------ ----- ------- ---- -- --- ------- --<br>------- ---------- ------ -- ----- -- ----- -- ---- ------<br>--- ----- --- --- ------ -------- ----- --- ------ ----- --<br>----- ----- ---------- --- --- ------ ------ ---- -- ------<br>credit. --- ------ ----- --- ---- ------- -- ---- --- --<br>------- ------,174779.19999998808,174778.80000001192,173331.977,173335.19999998808,173338.86,174783.301,,43,credit.
screen,html.Screen,2_1_1_1_44,2022-02-18T13:09:32.216Z,,,,,,,,,,,,,,,,,54,,,,,,,,,,,,,,401.0989999761514,,response,,,,100,,,,,,,Space,keypress(Space),,,,,,,,-- --- ---- --- ------ ----- ------- ---- -- --- ------- --<br>------- ---------- ------ -- ----- -- ----- -- ---- ------<br>--- ----- --- --- ------ -------- ----- --- ------ ----- --<br>----- ----- ---------- --- --- ------ ------ ---- -- ------<br>------- The ------ ----- --- ---- ------- -- ---- --- --<br>------- ------,175184.89999997616,175184.39999997616,174776.239,174779.30000001192,174783.301,175202.093,,44,The
screen,html.Screen,2_1_1_1_45,2022-02-18T13:09:32.573Z,,,,,,,,,,,,,,,,,54,,,,,,,,,,,,,,339.20700001192745,,response,,,,100,,,,,,,Space,keypress(Space),,,,,,,,-- --- ---- --- ------ ----- ------- ---- -- --- ------- --<br>------- ---------- ------ -- ----- -- ----- -- ---- ------<br>--- ----- --- --- ------ -------- ----- --- ------ ----- --<br>----- ----- ---------- --- --- ------ ------ ---- -- ------<br>------- --- French ----- --- ---- ------- -- ---- --- --<br>------- ------,175541.69999998808,175541.30000001192,175179.299,175184.89999997616,175202.093,175547.136,,45,French
screen,html.Screen,2_1_1_1_46,2022-02-18T13:09:32.892Z,,,,,,,,,,,,,,,,,54,,,,,,,,,,,,,,313.96400002384325,,response,,,,100,,,,,,,Space,keypress(Space),,,,,,,,-- --- ---- --- ------ ----- ------- ---- -- --- ------- --<br>------- ---------- ------ -- ----- -- ----- -- ---- ------<br>--- ----- --- --- ------ -------- ----- --- ------ ----- --<br>----- ----- ---------- --- --- ------ ------ ---- -- ------<br>------- --- ------ state --- ---- ------- -- ---- --- --<br>------- ------,175861.39999997616,175861.10000002384,175540.164,175541.80000001192,175547.136,175866.576,,46,state
screen,html.Screen,2_1_1_1_47,2022-02-18T13:09:33.268Z,,,,,,,,,,,,,,,,,54,,,,,,,,,,,,,,369.42399999999907,,response,,,,100,,,,,,,Space,keypress(Space),,,,,,,,-- --- ---- --- ------ ----- ------- ---- -- --- ------- --<br>------- ---------- ------ -- ----- -- ----- -- ---- ------<br>--- ----- --- --- ------ -------- ----- --- ------ ----- --<br>----- ----- ---------- --- --- ------ ------ ---- -- ------<br>------- --- ------ ----- was ---- ------- -- ---- --- --<br>------- ------,176236.5,176236,175859.714,175861.5,175866.576,176241.56,,47,was
screen,html.Screen,2_1_1_1_48,2022-02-18T13:09:33.629Z,,,,,,,,,,,,,,,,,54,,,,,,,,,,,,,,355.83999997616047,,response,,,,100,,,,,,,Space,keypress(Space),,,,,,,,-- --- ---- --- ------ ----- ------- ---- -- --- ------- --<br>------- ---------- ------ -- ----- -- ----- -- ---- ------<br>--- ----- --- --- ------ -------- ----- --- ------ ----- --<br>----- ----- ---------- --- --- ------ ------ ---- -- ------<br>------- --- ------ ----- --- left ------- -- ---- --- --<br>------- ------,176597.89999997616,176597.39999997616,176234.84,176236.5,176241.56,176602.672,,48,left
screen,html.Screen,2_1_1_1_49,2022-02-18T13:09:33.975Z,,,,,,,,,,,,,,,,,54,,,,,,,,,,,,,,341.22799997616676,,response,,,,100,,,,,,,Space,keypress(Space),,,,,,,,-- --- ---- --- ------ ----- ------- ---- -- --- ------- --<br>------- ---------- ------ -- ----- -- ----- -- ---- ------<br>--- ----- --- --- ------ -------- ----- --- ------ ----- --<br>----- ----- ---------- --- --- ------ ------ ---- -- ------<br>------- --- ------ ----- --- ---- without -- ---- --- --<br>------- ------,176944.30000001192,176943.89999997616,176595.74,176597.89999997616,176602.672,176949.878,,49,without
screen,html.Screen,2_1_1_1_50,2022-02-18T13:09:34.316Z,,,,,,,,,,,,,,,,,54,,,,,,,,,,,,,,334.8219999880821,,response,,,,100,,,,,,,Space,keypress(Space),,,,,,,,-- --- ---- --- ------ ----- ------- ---- -- --- ------- --<br>------- ---------- ------ -- ----- -- ----- -- ---- ------<br>--- ----- --- --- ------ -------- ----- --- ------ ----- --<br>----- ----- ---------- --- --- ------ ------ ---- -- ------<br>------- --- ------ ----- --- ---- ------- an ---- --- --<br>------- ------,177285.10000002384,177284.69999998808,176943.055,176944.39999997616,176949.878,177290.156,,50,an
screen,html.Screen,2_1_1_1_51,2022-02-18T13:09:34.646Z,,,,,,,,,,,,,,,,,54,,,,,,,,,,,,,,324.04399998809095,,response,,,,100,,,,,,,Space,keypress(Space),,,,,,,,-- --- ---- --- ------ ----- ------- ---- -- --- ------- --<br>------- ---------- ------ -- ----- -- ----- -- ---- ------<br>--- ----- --- --- ------ -------- ----- --- ------ ----- --<br>----- ----- ---------- --- --- ------ ------ ---- -- ------<br>------- --- ------ ----- --- ---- ------- -- easy --- --<br>------- ------,177614.69999998808,177614.19999998808,177283.416,177285.10000002384,177290.156,177616.543,,51,easy
screen,html.Screen,2_1_1_1_52,2022-02-18T13:09:35.049Z,,,,,,,,,,,,,,,,,54,,,,,,,,,,,,,,401.356999976153,,response,,,,100,,,,,,,Space,keypress(Space),,,,,,,,-- --- ---- --- ------ ----- ------- ---- -- --- ------- --<br>------- ---------- ------ -- ----- -- ----- -- ---- ------<br>--- ----- --- --- ------ -------- ----- --- ------ ----- --<br>----- ----- ---------- --- --- ------ ------ ---- -- ------<br>------- --- ------ ----- --- ---- ------- -- ---- way --<br>------- ------,178018.19999998808,178017.89999997616,177609.671,177614.80000001192,177616.543,178027.374,,52,way
screen,html.Screen,2_1_1_1_53,2022-02-18T13:09:35.397Z,,,,,,,,,,,,,,,,,54,,,,,,,,,,,,,,338.52599997614743,,response,,,,100,,,,,,,Space,keypress(Space),,,,,,,,-- --- ---- --- ------ ----- ------- ---- -- --- ------- --<br>------- ---------- ------ -- ----- -- ----- -- ---- ------<br>--- ----- --- --- ------ -------- ----- --- ------ ----- --<br>----- ----- ---------- --- --- ------ ------ ---- -- ------<br>------- --- ------ ----- --- ---- ------- -- ---- --- of<br>------- ------,178366.30000001192,178365.89999997616,178012.408,178018.39999997616,178027.374,178380.503,,53,of
screen,html.Screen,2_1_1_1_54,2022-02-18T13:09:35.680Z,,,,,,,,,,,,,,,,,54,,,,,,,,,,,,,,267.89699997616117,,response,,,,100,,,,,,,Space,keypress(Space),,,,,,,,-- --- ---- --- ------ ----- ------- ---- -- --- ------- --<br>------- ---------- ------ -- ----- -- ----- -- ---- ------<br>--- ----- --- --- ------ -------- ----- --- ------ ----- --<br>----- ----- ---------- --- --- ------ ------ ---- -- ------<br>------- --- ------ ----- --- ---- ------- -- ---- --- --<br>raising ------,178648.60000002384,178648.39999997616,178373.45,178366.39999997616,178380.503,178651.19,,54,raising
screen,html.Screen,2_1_1_1_55,2022-02-18T13:09:36.098Z,,,,,,,,,,,,,,,,,54,,,,,,,,,,,,,,415.1100000119186,,response,,,,100,,,,,,,Space,keypress(Space),,,,,,,,-- --- ---- --- ------ ----- ------- ---- -- --- ------- --<br>------- ---------- ------ -- ----- -- ----- -- ---- ------<br>--- ----- --- --- ------ -------- ----- --- ------ ----- --<br>----- ----- ---------- --- --- ------ ------ ---- -- ------<br>------- --- ------ ----- --- ---- ------- -- ---- --- --<br>------- money.,179066.89999997616,179066.30000001192,178644.359,178648.69999998808,178651.19,179084.926,,55,money.
Item 100,flow.Loop,2_1_1_1,2022-02-18T13:09:36.098Z,,,,,,,,,,,,,,,,,,,,,,,,,,,,,,,25956.01100001193,,completion,,,,,F,,,,,,,,,,,silence,,,,,179066.89999997616,179066.30000001192,153103.435,153104,153110.289,179084.926,,,
Question 1,html.Screen,2_1_1_2,2022-02-18T13:09:38.501Z,,,,,,,,,,,,,,,,,,,,,,,,,,,,true,TRUE,,2384.0739999999932,,response,,,,100,F,,,,,,TRUE,click #choice-1,,,,silence,,,,,181469.69999998808,181469,179061.063,179066.89999997616,179084.926,181482.139,,,
Question 2,html.Screen,2_1_1_3,2022-02-18T13:09:41.698Z,,,,,,,,,,,,,,,,,,,,,,,,,,,,true,FALSE,,3183.5609999880835,,response,,,,100,F,,,,,,FALSE,click #choice-2,,,,silence,,,,,184666.60000002384,184665.69999998808,181463.613,181469.80000001192,181482.139,184671.934,,,
Item 100,flow.Sequence,2_1_1,2022-02-18T13:09:41.698Z,,,,,,,,,,,,,,,,,,,,,,,,,,,,,,,41557.72499998807,,completion,,,,,,,,,,,,,,,,,,,,,184666.69999998808,184665.69999998808,143082.631,143089.5,143107.975,184671.934,,,
End of Practice,html.Page,2_1_2,2022-02-18T13:09:46.159Z,,,,,,,,,,,,,,,,,,,,,,,,,,,,,,,4454.765999988071,,form submission,,,,,,,,,,,,,,,,,,,,,189127.19999998808,189126.69999998808,184664.929,184666.89999997616,184671.934,189130.231,,,
Practice,flow.Sequence,2_1,2022-02-18T13:09:46.159Z,,,,,,,,,,,,,,,,,,,,,,,,,,,,,,,91029.17799998808,,completion,,,,,,,,,,,,,,,,,,,,,189127.69999998808,189126.69999998808,98090.624,98091.80000001192,98097.522,189130.231,,,
Trap_instruction,html.Page,2_2_0,2022-02-18T13:09:50.505Z,,,,,,,,,,,,,,,,,,,,,,,,,,,,,,,4342.769,,form submission,,,,,,,,,,,,,,,,,,,,,193473.39999997616,193473,189123.152,189127.89999997616,189130.231,193477.283,,,
trap_trial,html.Screen,2_2_1,2022-02-18T13:09:53.693Z,,,,,,,,,,,,,,,,,,,,,,,,,,,,true,1,,3183.017000011925,,response,,,,,,,,,,,1,click #choice-1,,,,,,,,,196661.80000001192,196660.30000001192,193470.278,193473.69999998808,193477.283,196664.766,,,
end of trap trial,html.Page,2_2_2,2022-02-18T13:09:55.196Z,,,,,,,,,,,,,,,,,,,,,,,,,,,,,,,1499.4339999880758,,form submission,,,,,,,,,,,,,,,,,,,,,198164.19999998808,198164.19999998808,196657.724,196662.10000002384,196664.766,198164.694,,,
Trap 1,flow.Sequence,2_2,2022-02-18T13:09:55.196Z,,,,,,,,,,,,,,,,,,,,,,,,,,,,,,,9033.96899998808,,completion,,,,,,,,,,,,,,,,,,,,,198164.39999997616,198164.19999998808,189123.152,189127.89999997616,189130.231,198164.694,,,
Standby,html.Page,2_3_0,2022-02-18T13:10:03.190Z,,,,,,,,,,,,,,,,,,,,,,,,,,,,,,,7999.817999999999,,timeout,,,,,,,,,,,,,,,,,,,,,206158.60000002384,206157.717,198157.724,198164.39999997616,198164.694,206164.512,,,
Holding screen,html.Screen,2_3_1_0_0,2022-02-18T13:10:10.190Z,,,,,,,,,,,,,,,,,,,,,,,,,,,,,,,6999.90300000002,,timeout,,,,,,,,,,,,,,,,,,,,,213158.39999997616,213157.446,206157.717,206159,206164.512,213164.415,,,
screen,html.Screen,2_3_1_0_1_0,2022-02-18T13:10:10.949Z,,,,,,,,,,,,,,,,,2,,,,,,,,,,,,,,752.0849999999919,,response,,,,1,F,,,,,,Space,keypress(Space),,,,instrumental,,,,Two ---- ------ --- ------- ---------- ------- ----------<br>--- --------- --- ----------- ------- ----- ------- ---<br>--------- ---- -- --- ---- -- --------- -- ---- -------<br>-- --------- ------ --- ----- ------ ---- --- --------- --<br>------ - ---- -- --- ----------- ------- ---- ----- -----<br>--- -------- - ------ ---- -- ----- ---- --- --- -----------<br>-- -------,213917,213916.5,213157.446,213158.69999998808,213164.415,213921.2,,0,Two
screen,html.Screen,2_3_1_0_1_1,2022-02-18T13:10:11.431Z,,,,,,,,,,,,,,,,,2,,,,,,,,,,,,,,477.6000000119093,,response,,,,1,F,,,,,,Space,keypress(Space),,,,instrumental,,,,--- days ------ --- ------- ---------- ------- ----------<br>--- --------- --- ----------- ------- ----- ------- ---<br>--------- ---- -- --- ---- -- --------- -- ---- -------<br>-- --------- ------ --- ----- ------ ---- --- --------- --<br>------ - ---- -- --- ----------- ------- ---- ----- -----<br>--- -------- - ------ ---- -- ----- ---- --- --- -----------<br>-- -------,214399.19999998808,214398.80000001192,213914.503,213917.10000002384,213921.2,214411.677,,1,days
screen,html.Screen,2_3_1_0_1_2,2022-02-18T13:10:11.764Z,,,,,,,,,,,,,,,,,2,,,,,,,,,,,,,,320.02299998808303,,response,,,,1,F,,,,,,Space,keypress(Space),,,,instrumental,,,,"--- ---- later, --- ------- ---------- ------- ----------<br>--- --------- --- ----------- ------- ----- ------- ---<br>--------- ---- -- --- ---- -- --------- -- ---- -------<br>-- --------- ------ --- ----- ------ ---- --- --------- --<br>------ - ---- -- --- ----------- ------- ---- ----- -----<br>--- -------- - ------ ---- -- ----- ---- --- --- -----------<br>-- -------",214732,214731.69999998808,214393.438,214399.30000001192,214411.677,214733.701,,2,"later,"
screen,html.Screen,2_3_1_0_1_3,2022-02-18T13:10:12.139Z,,,,,,,,,,,,,,,,,2,,,,,,,,,,,,,,372.99899998807814,,response,,,,1,F,,,,,,Space,keypress(Space),,,,instrumental,,,,--- ---- ------ the ------- ---------- ------- ----------<br>--- --------- --- ----------- ------- ----- ------- ---<br>--------- ---- -- --- ---- -- --------- -- ---- -------<br>-- --------- ------ --- ----- ------ ---- --- --------- --<br>------ - ---- -- --- ----------- ------- ---- ----- -----<br>--- -------- - ------ ---- -- ----- ---- --- --- -----------<br>-- -------,215107,215106.69999998808,214726.858,214732.10000002384,214733.701,215108.694,,3,the
screen,html.Screen,2_3_1_0_1_4,2022-02-18T13:10:12.485Z,,,,,,,,,,,,,,,,,2,,,,,,,,,,,,,,344.5059999880905,,response,,,,1,F,,,,,,Space,keypress(Space),,,,instrumental,,,,--- ---- ------ --- British ---------- ------- ----------<br>--- --------- --- ----------- ------- ----- ------- ---<br>--------- ---- -- --- ---- -- --------- -- ---- -------<br>-- --------- ------ --- ----- ------ ---- --- --------- --<br>------ - ---- -- --- ----------- ------- ---- ----- -----<br>--- -------- - ------ ---- -- ----- ---- --- --- -----------<br>-- -------,215453.60000002384,215453.19999998808,215101.792,215107,215108.694,215455.928,,4,British
screen,html.Screen,2_3_1_0_1_5,2022-02-18T13:10:12.815Z,,,,,,,,,,,,,,,,,2,,,,,,,,,,,,,,326.9719999761437,,response,,,,1,F,,,,,,Space,keypress(Space),,,,instrumental,,,,--- ---- ------ --- ------- astronomer ------- ----------<br>--- --------- --- ----------- ------- ----- ------- ---<br>--------- ---- -- --- ---- -- --------- -- ---- -------<br>-- --------- ------ --- ----- ------ ---- --- --------- --<br>------ - ---- -- --- ----------- ------- ---- ----- -----<br>--- -------- - ------ ---- -- ----- ---- --- --- -----------<br>-- -------,215783.30000001192,215782.89999997616,215449.08,215453.60000002384,215455.928,215789.261,,5,astronomer
screen,html.Screen,2_3_1_0_1_6,2022-02-18T13:10:13.192Z,,,,,,,,,,,,,,,,,2,,,,,,,,,,,,,,370.7390000000014,,response,,,,1,F,,,,,,Space,keypress(Space),,,,instrumental,,,,--- ---- ------ --- ------- ---------- Richard ----------<br>--- --------- --- ----------- ------- ----- ------- ---<br>--------- ---- -- --- ---- -- --------- -- ---- -------<br>-- --------- ------ --- ----- ------ ---- --- --------- --<br>------ - ---- -- --- ----------- ------- ---- ----- -----<br>--- -------- - ------ ---- -- ----- ---- --- --- -----------<br>-- -------,216160.30000001192,216160,215782.288,215783.30000001192,215789.261,216164.319,,6,Richard
screen,html.Screen,2_3_1_0_1_7,2022-02-18T13:10:13.584Z,,,,,,,,,,,,,,,,,2,,,,,,,,,,,,,,387.98100001193234,,response,,,,1,F,,,,,,Space,keypress(Space),,,,instrumental,,,,--- ---- ------ --- ------- ---------- ------- Carrington<br>--- --------- --- ----------- ------- ----- ------- ---<br>--------- ---- -- --- ---- -- --------- -- ---- -------<br>-- --------- ------ --- ----- ------ ---- --- --------- --<br>------ - ---- -- --- ----------- ------- ---- ----- -----<br>--- -------- - ------ ---- -- ----- ---- --- --- -----------<br>-- -------,216552.69999998808,216552.30000001192,216157.38,216160.39999997616,216164.319,216572.938,,7,Carrington
screen,html.Screen,2_3_1_0_1_8,2022-02-18T13:10:13.981Z,,,,,,,,,,,,,,,,,2,,,,,,,,,,,,,,376.06200000000536,,response,,,,1,F,,,,,,Space,keypress(Space),,,,instrumental,,,,--- ---- ------ --- ------- ---------- ------- ----------<br>was --------- --- ----------- ------- ----- ------- ---<br>--------- ---- -- --- ---- -- --------- -- ---- -------<br>-- --------- ------ --- ----- ------ ---- --- --------- --<br>------ - ---- -- --- ----------- ------- ---- ----- -----<br>--- -------- - ------ ---- -- ----- ---- --- --- -----------<br>-- -------,216949.30000001192,216949,216546.192,216552.69999998808,216572.938,216955.889,,8,was
screen,html.Screen,2_3_1_0_1_9,2022-02-18T13:10:14.256Z,,,,,,,,,,,,,,,,,2,,,,,,,,,,,,,,268.1110000000044,,response,,,,1,F,,,,,,Space,keypress(Space),,,,instrumental,,,,--- ---- ------ --- ------- ---------- ------- ----------<br>--- observing --- ----------- ------- ----- ------- ---<br>--------- ---- -- --- ---- -- --------- -- ---- -------<br>-- --------- ------ --- ----- ------ ---- --- --------- --<br>------ - ---- -- --- ----------- ------- ---- ----- -----<br>--- -------- - ------ ---- -- ----- ---- --- --- -----------<br>-- -------,217224.5,217224,216948.965,216949.30000001192,216955.889,217226.692,,9,observing
screen,html.Screen,2_3_1_0_1_10,2022-02-18T13:10:14.612Z,,,,,,,,,,,,,,,,,2,,,,,,,,,,,,,,352.90800002383185,,response,,,,1,F,,,,,,Space,keypress(Space),,,,instrumental,,,,--- ---- ------ --- ------- ---------- ------- ----------<br>--- --------- the ----------- ------- ----- ------- ---<br>--------- ---- -- --- ---- -- --------- -- ---- -------<br>-- --------- ------ --- ----- ------ ---- --- --------- --<br>------ - ---- -- --- ----------- ------- ---- ----- -----<br>--- -------- - ------ ---- -- ----- ---- --- --- -----------<br>-- -------,217580.39999997616,217579.60000002384,217219.879,217224.5,217226.692,217587.773,,10,the
screen,html.Screen,2_3_1_0_1_11,2022-02-18T13:10:14.962Z,,,,,,,,,,,,,,,,,2,,,,,,,,,,,,,,341.82700002385536,,response,,,,1,F,,,,,,Space,keypress(Space),,,,instrumental,,,,--- ---- ------ --- ------- ---------- ------- ----------<br>--- --------- --- interesting ------- ----- ------- ---<br>--------- ---- -- --- ---- -- --------- -- ---- -------<br>-- --------- ------ --- ----- ------ ---- --- --------- --<br>------ - ---- -- --- ----------- ------- ---- ----- -----<br>--- -------- - ------ ---- -- ----- ---- --- --- -----------<br>-- -------,217930,217929.60000002384,217580.868,217580.69999998808,217587.773,217935.127,,11,interesting
screen,html.Screen,2_3_1_0_1_12,2022-02-18T13:10:15.316Z,,,,,,,,,,,,,,,,,2,,,,,,,,,,,,,,348.5729999880714,,response,,,,1,F,,,,,,Space,keypress(Space),,,,instrumental,,,,--- ---- ------ --- ------- ---------- ------- ----------<br>--- --------- --- ----------- sunspot ----- ------- ---<br>--------- ---- -- --- ---- -- --------- -- ---- -------<br>-- --------- ------ --- ----- ------ ---- --- --------- --<br>------ - ---- -- --- ----------- ------- ---- ----- -----<br>--- -------- - ------ ---- -- ----- ---- --- --- -----------<br>-- -------,218284,218283.69999998808,217928.146,217930.10000002384,217935.127,218289.203,,12,sunspot
screen,html.Screen,2_3_1_0_1_13,2022-02-18T13:10:15.656Z,,,,,,,,,,,,,,,,,2,,,,,,,,,,,,,,334.99699998807046,,response,,,,1,F,,,,,,Space,keypress(Space),,,,instrumental,,,,--- ---- ------ --- ------- ---------- ------- ----------<br>--- --------- --- ----------- ------- group ------- ---<br>--------- ---- -- --- ---- -- --------- -- ---- -------<br>-- --------- ------ --- ----- ------ ---- --- --------- --<br>------ - ---- -- --- ----------- ------- ---- ----- -----<br>--- -------- - ------ ---- -- ----- ---- --- --- -----------<br>-- -------,218624.60000002384,218624.19999998808,218282.307,218284.10000002384,218289.203,218629.469,,13,group
screen,html.Screen,2_3_1_0_1_14,2022-02-18T13:10:15.964Z,,,,,,,,,,,,,,,,,2,,,,,,,,,,,,,,302.2309999880672,,response,,,,1,F,,,,,,Space,keypress(Space),,,,instrumental,,,,--- ---- ------ --- ------- ---------- ------- ----------<br>--- --------- --- ----------- ------- ----- through ---<br>--------- ---- -- --- ---- -- --------- -- ---- -------<br>-- --------- ------ --- ----- ------ ---- --- --------- --<br>------ - ---- -- --- ----------- ------- ---- ----- -----<br>--- -------- - ------ ---- -- ----- ---- --- --- -----------<br>-- -------,218932.10000002384,218931.69999998808,218622.487,218624.69999998808,218629.469,218934.999,,14,through
screen,html.Screen,2_3_1_0_1_15,2022-02-18T13:10:16.379Z,,,,,,,,,,,,,,,,,2,,,,,,,,,,,,,,412.5009999999893,,response,,,,1,F,,,,,,Space,keypress(Space),,,,instrumental,,,,--- ---- ------ --- ------- ---------- ------- ----------<br>--- --------- --- ----------- ------- ----- ------- his<br>--------- ---- -- --- ---- -- --------- -- ---- -------<br>-- --------- ------ --- ----- ------ ---- --- --------- --<br>------ - ---- -- --- ----------- ------- ---- ----- -----<br>--- -------- - ------ ---- -- ----- ---- --- --- -----------<br>-- -------,219347.89999997616,219347.5,218928.188,218932.19999998808,218934.999,219351.616,,15,his
screen,html.Screen,2_3_1_0_1_16,2022-02-18T13:10:16.925Z,,,,,,,,,,,,,,,,,2,,,,,,,,,,,,,,541.1840000119118,,response,,,,1,F,,,,,,Space,keypress(Space),,,,instrumental,,,,--- ---- ------ --- ------- ---------- ------- ----------<br>--- --------- --- ----------- ------- ----- ------- ---<br>telescope ---- -- --- ---- -- --------- -- ---- -------<br>-- --------- ------ --- ----- ------ ---- --- --------- --<br>------ - ---- -- --- ----------- ------- ---- ----- -----<br>--- -------- - ------ ---- -- ----- ---- --- --- -----------<br>-- -------,219893.19999998808,219892.80000001192,219344.697,219348,219351.616,219900.288,,16,telescope
screen,html.Screen,2_3_1_0_1_17,2022-02-18T13:10:17.259Z,,,,,,,,,,,,,,,,,2,,,,,,,,,,,,,,327.21199999999953,,response,,,,1,F,,,,,,Space,keypress(Space),,,,instrumental,,,,--- ---- ------ --- ------- ---------- ------- ----------<br>--- --------- --- ----------- ------- ----- ------- ---<br>--------- when -- --- ---- -- --------- -- ---- -------<br>-- --------- ------ --- ----- ------ ---- --- --------- --<br>------ - ---- -- --- ----------- ------- ---- ----- -----<br>--- -------- - ------ ---- -- ----- ---- --- --- -----------<br>-- -------,220227.89999997616,220227.5,219893.398,219893.30000001192,219900.288,220233.59,,17,when
screen,html.Screen,2_3_1_0_1_18,2022-02-18T13:10:17.530Z,,,,,,,,,,,,,,,,,2,,,,,,,,,,,,,,264.2100000119244,,response,,,,1,F,,,,,,Space,keypress(Space),,,,instrumental,,,,--- ---- ------ --- ------- ---------- ------- ----------<br>--- --------- --- ----------- ------- ----- ------- ---<br>--------- ---- he --- ---- -- --------- -- ---- -------<br>-- --------- ------ --- ----- ------ ---- --- --------- --<br>------ - ---- -- --- ----------- ------- ---- ----- -----<br>--- -------- - ------ ---- -- ----- ---- --- --- -----------<br>-- -------,220498.30000001192,220497.80000001192,220226.694,220228,220233.59,220504.407,,18,he
screen,html.Screen,2_3_1_0_1_19,2022-02-18T13:10:17.841Z,,,,,,,,,,,,,,,,,2,,,,,,,,,,,,,,304.4929999761516,,response,,,,1,F,,,,,,Space,keypress(Space),,,,instrumental,,,,--- ---- ------ --- ------- ---------- ------- ----------<br>--- --------- --- ----------- ------- ----- ------- ---<br>--------- ---- -- saw ---- -- --------- -- ---- -------<br>-- --------- ------ --- ----- ------ ---- --- --------- --<br>------ - ---- -- --- ----------- ------- ---- ----- -----<br>--- -------- - ------ ---- -- ----- ---- --- --- -----------<br>-- -------,220809.19999998808,220808.89999997616,220497.5,220498.30000001192,220504.407,220830.071,,19,saw
screen,html.Screen,2_3_1_0_1_20,2022-02-18T13:10:18.161Z,,,,,,,,,,,,,,,,,2,,,,,,,,,,,,,,299.22900001192465,,response,,,,1,F,,,,,,Space,keypress(Space),,,,instrumental,,,,--- ---- ------ --- ------- ---------- ------- ----------<br>--- --------- --- ----------- ------- ----- ------- ---<br>--------- ---- -- --- what -- --------- -- ---- -------<br>-- --------- ------ --- ----- ------ ---- --- --------- --<br>------ - ---- -- --- ----------- ------- ---- ----- -----<br>--- -------- - ------ ---- -- ----- ---- --- --- -----------<br>-- -------,221129.60000002384,221129.30000001192,220803.216,220809.19999998808,220830.071,221136.393,,20,what
screen,html.Screen,2_3_1_0_1_21,2022-02-18T13:10:18.447Z,,,,,,,,,,,,,,,,,2,,,,,,,,,,,,,,279.10699999998906,,response,,,,1,F,,,,,,Space,keypress(Space),,,,instrumental,,,,--- ---- ------ --- ------- ---------- ------- ----------<br>--- --------- --- ----------- ------- ----- ------- ---<br>--------- ---- -- --- ---- he --------- -- ---- -------<br>-- --------- ------ --- ----- ------ ---- --- --------- --<br>------ - ---- -- --- ----------- ------- ---- ----- -----<br>--- -------- - ------ ---- -- ----- ---- --- --- -----------<br>-- -------,221415.80000001192,221415.5,221129.55,221129.69999998808,221136.393,221421.063,,21,he
screen,html.Screen,2_3_1_0_1_22,2022-02-18T13:10:18.772Z,,,,,,,,,,,,,,,,,2,,,,,,,,,,,,,,319.43700000000536,,response,,,,1,F,,,,,,Space,keypress(Space),,,,instrumental,,,,--- ---- ------ --- ------- ---------- ------- ----------<br>--- --------- --- ----------- ------- ----- ------- ---<br>--------- ---- -- --- ---- -- described -- ---- -------<br>-- --------- ------ --- ----- ------ ---- --- --------- --<br>------ - ---- -- --- ----------- ------- ---- ----- -----<br>--- -------- - ------ ---- -- ----- ---- --- --- -----------<br>-- -------,221740.89999997616,221740.5,221414.135,221415.80000001192,221421.063,221747.566,,22,described
screen,html.Screen,2_3_1_0_1_23,2022-02-18T13:10:19.058Z,,,,,,,,,,,,,,,,,2,,,,,,,,,,,,,,277.9340000000084,,response,,,,1,F,,,,,,Space,keypress(Space),,,,instrumental,,,,--- ---- ------ --- ------- ---------- ------- ----------<br>--- --------- --- ----------- ------- ----- ------- ---<br>--------- ---- -- --- ---- -- --------- as ---- -------<br>-- --------- ------ --- ----- ------ ---- --- --------- --<br>------ - ---- -- --- ----------- ------- ---- ----- -----<br>--- -------- - ------ ---- -- ----- ---- --- --- -----------<br>-- -------,222026.10000002384,222025.5,221740.495,221740.89999997616,221747.566,222032.171,,23,as
screen,html.Screen,2_3_1_0_1_24,2022-02-18T13:10:19.355Z,,,,,,,,,,,,,,,,,2,,,,,,,,,,,,,,291.22899997615605,,response,,,,1,F,,,,,,Space,keypress(Space),,,,instrumental,,,,"--- ---- ------ --- ------- ---------- ------- ----------<br>--- --------- --- ----------- ------- ----- ------- ---<br>--------- ---- -- --- ---- -- --------- -- ""two -------<br>-- --------- ------ --- ----- ------ ---- --- --------- --<br>------ - ---- -- --- ----------- ------- ---- ----- -----<br>--- -------- - ------ ---- -- ----- ---- --- --- -----------<br>-- -------",222323.80000001192,222323.39999997616,222025.461,222026.10000002384,222032.171,222330.887,,24,"""two"
screen,html.Screen,2_3_1_0_1_25,2022-02-18T13:10:19.674Z,,,,,,,,,,,,,,,,,2,,,,,,,,,,,,,,311.01299997617025,,response,,,,1,F,,,,,,Space,keypress(Space),,,,instrumental,,,,--- ---- ------ --- ------- ---------- ------- ----------<br>--- --------- --- ----------- ------- ----- ------- ---<br>--------- ---- -- --- ---- -- --------- -- ---- patches<br>-- --------- ------ --- ----- ------ ---- --- --------- --<br>------ - ---- -- --- ----------- ------- ---- ----- -----<br>--- -------- - ------ ---- -- ----- ---- --- --- -----------<br>-- -------,222642.30000001192,222641.89999997616,222323.973,222323.89999997616,222330.887,222664.086,,25,patches
screen,html.Screen,2_3_1_0_1_26,2022-02-18T13:10:20.001Z,,,,,,,,,,,,,,,,,2,,,,,,,,,,,,,,304.6139999880688,,response,,,,1,F,,,,,,Space,keypress(Space),,,,instrumental,,,,--- ---- ------ --- ------- ---------- ------- ----------<br>--- --------- --- ----------- ------- ----- ------- ---<br>--------- ---- -- --- ---- -- --------- -- ---- -------<br>of --------- ------ --- ----- ------ ---- --- --------- --<br>------ - ---- -- --- ----------- ------- ---- ----- -----<br>--- -------- - ------ ---- -- ----- ---- --- --- -----------<br>-- -------,222969.10000002384,222968.69999998808,222636.473,222642.30000001192,222664.086,222988.836,,26,of
screen,html.Screen,2_3_1_0_1_27,2022-02-18T13:10:20.303Z,,,,,,,,,,,,,,,,,2,,,,,,,,,,,,,,282.66399999998976,,response,,,,1,F,,,,,,Space,keypress(Space),,,,instrumental,,,,--- ---- ------ --- ------- ---------- ------- ----------<br>--- --------- --- ----------- ------- ----- ------- ---<br>--------- ---- -- --- ---- -- --------- -- ---- -------<br>-- intensely ------ --- ----- ------ ---- --- --------- --<br>------ - ---- -- --- ----------- ------- ---- ----- -----<br>--- -------- - ------ ---- -- ----- ---- --- --- -----------<br>-- -------,223271.69999998808,223271.5,222962.719,222969.10000002384,222988.836,223275.176,,27,intensely
screen,html.Screen,2_3_1_0_1_28,2022-02-18T13:10:20.694Z,,,,,,,,,,,,,,,,,2,,,,,,,,,,,,,,387.0239999880723,,response,,,,1,F,,,,,,Space,keypress(Space),,,,instrumental,,,,--- ---- ------ --- ------- ---------- ------- ----------<br>--- --------- --- ----------- ------- ----- ------- ---<br>--------- ---- -- --- ---- -- --------- -- ---- -------<br>-- --------- bright --- ----- ------ ---- --- --------- --<br>------ - ---- -- --- ----------- ------- ---- ----- -----<br>--- -------- - ------ ---- -- ----- ---- --- --- -----------<br>-- -------,223662.69999998808,223662.19999998808,223268.402,223271.80000001192,223275.176,223672.728,,28,bright
screen,html.Screen,2_3_1_0_1_29,2022-02-18T13:10:21.062Z,,,,,,,,,,,,,,,,,2,,,,,,,,,,,,,,357.37200002383906,,response,,,,1,F,,,,,,Space,keypress(Space),,,,instrumental,,,,--- ---- ------ --- ------- ---------- ------- ----------<br>--- --------- --- ----------- ------- ----- ------- ---<br>--------- ---- -- --- ---- -- --------- -- ---- -------<br>-- --------- ------ and ----- ------ ---- --- --------- --<br>------ - ---- -- --- ----------- ------- ---- ----- -----<br>--- -------- - ------ ---- -- ----- ---- --- --- -----------<br>-- -------,224030.39999997616,224030.10000002384,223657.179,223662.80000001192,223672.728,224032.147,,29,and
screen,html.Screen,2_3_1_0_1_30,2022-02-18T13:10:21.364Z,,,,,,,,,,,,,,,,,2,,,,,,,,,,,,,,300.05299998808187,,response,,,,1,F,,,,,,Space,keypress(Space),,,,instrumental,,,,--- ---- ------ --- ------- ---------- ------- ----------<br>--- --------- --- ----------- ------- ----- ------- ---<br>--------- ---- -- --- ---- -- --------- -- ---- -------<br>-- --------- ------ --- white ------ ---- --- --------- --<br>------ - ---- -- --- ----------- ------- ---- ----- -----<br>--- -------- - ------ ---- -- ----- ---- --- --- -----------<br>-- -------,224332.5,224332.19999998808,224025.267,224030.5,224032.147,224337.642,,30,white
screen,html.Screen,2_3_1_0_1_31,2022-02-18T13:10:21.811Z,,,,,,,,,,,,,,,,,2,,,,,,,,,,,,,,441.0579999880865,,response,,,,1,F,,,,,,Space,keypress(Space),,,,instrumental,,,,"--- ---- ------ --- ------- ---------- ------- ----------<br>--- --------- --- ----------- ------- ----- ------- ---<br>--------- ---- -- --- ---- -- --------- -- ---- -------<br>-- --------- ------ --- ----- light"" ---- --- --------- --<br>------ - ---- -- --- ----------- ------- ---- ----- -----<br>--- -------- - ------ ---- -- ----- ---- --- --- -----------<br>-- -------",224779.19999998808,224778.69999998808,224330.749,224332.60000002384,224337.642,224782.133,,31,"light"""
screen,html.Screen,2_3_1_0_1_32,2022-02-18T13:10:22.164Z,,,,,,,,,,,,,,,,,2,,,,,,,,,,,,,,350.2669999761565,,response,,,,1,F,,,,,,Space,keypress(Space),,,,instrumental,,,,--- ---- ------ --- ------- ---------- ------- ----------<br>--- --------- --- ----------- ------- ----- ------- ---<br>--------- ---- -- --- ---- -- --------- -- ---- -------<br>-- --------- ------ --- ----- ------ over --- --------- --<br>------ - ---- -- --- ----------- ------- ---- ----- -----<br>--- -------- - ------ ---- -- ----- ---- --- --- -----------<br>-- -------,225132.69999998808,225132.39999997616,224775.258,224779.19999998808,224782.133,225136.245,,32,over
screen,html.Screen,2_3_1_0_1_33,2022-02-18T13:10:22.421Z,,,,,,,,,,,,,,,,,2,,,,,,,,,,,,,,252.95499998808373,,response,,,,1,F,,,,,,Space,keypress(Space),,,,instrumental,,,,--- ---- ------ --- ------- ---------- ------- ----------<br>--- --------- --- ----------- ------- ----- ------- ---<br>--------- ---- -- --- ---- -- --------- -- ---- -------<br>-- --------- ------ --- ----- ------ ---- the --------- --<br>------ - ---- -- --- ----------- ------- ---- ----- -----<br>--- -------- - ------ ---- -- ----- ---- --- --- -----------<br>-- -------,225389.5,225389.19999998808,225129.306,225132.80000001192,225136.245,225393.314,,33,the
screen,html.Screen,2_3_1_0_1_34,2022-02-18T13:10:22.729Z,,,,,,,,,,,,,,,,,2,,,,,,,,,,,,,,304.0859999761451,,response,,,,1,F,,,,,,Space,keypress(Space),,,,instrumental,,,,--- ---- ------ --- ------- ---------- ------- ----------<br>--- --------- --- ----------- ------- ----- ------- ---<br>--------- ---- -- --- ---- -- --------- -- ---- -------<br>-- --------- ------ --- ----- ------ ---- --- sunspots. --<br>------ - ---- -- --- ----------- ------- ---- ----- -----<br>--- -------- - ------ ---- -- ----- ---- --- --- -----------<br>-- -------,225697.89999997616,225697.39999997616,225386.224,225389.60000002384,225393.314,225713.853,,34,sunspots.
screen,html.Screen,2_3_1_0_1_35,2022-02-18T13:10:23.301Z,,,,,,,,,,,,,,,,,2,,,,,,,,,,,,,,555.2470000238391,,response,,,,1,F,,,,,,Space,keypress(Space),,,,instrumental,,,,--- ---- ------ --- ------- ---------- ------- ----------<br>--- --------- --- ----------- ------- ----- ------- ---<br>--------- ---- -- --- ---- -- --------- -- ---- -------<br>-- --------- ------ --- ----- ------ ---- --- --------- He<br>------ - ---- -- --- ----------- ------- ---- ----- -----<br>--- -------- - ------ ---- -- ----- ---- --- --- -----------<br>-- -------,226269.60000002384,226269.10000002384,225691.887,225698,225713.853,226275.067,,35,He
screen,html.Screen,2_3_1_0_1_36,2022-02-18T13:10:23.717Z,,,,,,,,,,,,,,,,,2,,,,,,,,,,,,,,409.63299998806906,,response,,,,1,F,,,,,,Space,keypress(Space),,,,instrumental,,,,--- ---- ------ --- ------- ---------- ------- ----------<br>--- --------- --- ----------- ------- ----- ------- ---<br>--------- ---- -- --- ---- -- --------- -- ---- -------<br>-- --------- ------ --- ----- ------ ---- --- --------- --<br>jotted - ---- -- --- ----------- ------- ---- ----- -----<br>--- -------- - ------ ---- -- ----- ---- --- --- -----------<br>-- -------,226685.10000002384,226684.69999998808,226268.31,226269.69999998808,226275.067,226691.787,,36,jotted
screen,html.Screen,2_3_1_0_1_37,2022-02-18T13:10:24.038Z,,,,,,,,,,,,,,,,,2,,,,,,,,,,,,,,313.8130000238307,,response,,,,1,F,,,,,,Space,keypress(Space),,,,instrumental,,,,--- ---- ------ --- ------- ---------- ------- ----------<br>--- --------- --- ----------- ------- ----- ------- ---<br>--------- ---- -- --- ---- -- --------- -- ---- -------<br>-- --------- ------ --- ----- ------ ---- --- --------- --<br>------ a ---- -- --- ----------- ------- ---- ----- -----<br>--- -------- - ------ ---- -- ----- ---- --- --- -----------<br>-- -------,227006.19999998808,227005.60000002384,226684.768,226685.10000002384,226691.787,227011.202,,37,a
