sender,sender_type,sender_id,timestamp,meta,,Blues,Classical,Country,Dance,Electronic,Folk,Gospel,Hip-Hop,Jazz,Latin,Musical/Film,New-age,Pop,Prolific_id,Provo_ID,R&B,Rap,Reggae,Religious,Rock,Soul,Swing,Traditional,age,artist_name,correct,correctResponse,distraction,duration,education,ended_on,familiarity,gender,headphone_check_performance,item,list,music_frequency,offensiveness,pleasantness,position_correct,preference,response,response_action,snippet_file,song_name,song_rating,sound,stimulus_1,stimulus_2,stimulus_3,text,time_commit,time_end,time_render,time_run,time_show,time_switch,url,word,word_ID
Prolific ID,html.Form,0,2022-02-03T14:22:28.956Z,"{""labjs_version"":""20.2.2"",""labjs_build"":{""flavor"":""production"",""commit"":""a25486e0c714a0ae2ce03ff94b7bb6896854dcfa""},""location"":""https://run.pavlovia.org/mvasilev/prolific2_music_a/"",""userAgent"":""Mozilla/5.0 (Windows NT 10.0; Win64; x64) AppleWebKit/537.36 (KHTML, like Gecko) Chrome/98.0.4758.81 Safari/537.36"",""platform"":""Win32"",""language"":""en-GB"",""locale"":""en-GB"",""timeZone"":""Europe/London"",""timezoneOffset"":0,""screen_width"":1366,""screen_height"":768,""scroll_width"":1366,""scroll_height"":577,""window_innerWidth"":1366,""window_innerHeight"":625,""devicePixelRatio"":1}",,,,,,,,,,,,,,,5c0c3112594d92000167bdcd,,,,,,,,,,,,,,,7442.116999809266,,form submission,,,,,,,,,,,,,,,,,,,,,27033.099999904633,27032.699999809265,19533.628,19538.099999904633,19590.583,27049.846,{},,
Introduction,html.Screen,1_0,2022-02-03T14:22:36.378Z,,,,,,,,,,,,,,,,,,,,,,,,,,,,,,,7397.953999952315,,response,,,,,,,,,,,continue,click button,,,,,,,,,34454.799999952316,34447.799999952316,27016.698,27034.39999985695,27049.846,34475.839,,,
Volume calibration,html.Screen,1_1,2022-02-03T14:22:59.426Z,,,,,,,,,,,,,,,,,,,,,,,,,,,,,,,23020.161,,response,,,,,,,,,,,continue,click button,,,,,,,,,57502.799999952316,57496,34442.744,34455.199999809265,34475.839,57503.081,,,
Task instructions,html.Screen,1_2,2022-02-03T14:23:20.747Z,,,,,,,,,,,,,,,,,,,,,,,,,,,,,,,21318.218999952318,,response,,,,,,,,,,,continue,click button,,,,,,,,,78823.39999985695,78821.29999995232,57486.565,57504.39999985695,57503.081,78831.952,,,
Sounds,html.Screen,1_3_0_0,2022-02-03T14:23:24.991Z,,,,,,,,,,,,,,,,,,,,,,,,,,,,,,,4245.699999999997,,timeout,,,,,,,,,2,,,,,,,,O,S,I,,83067.59999990463,83061.012,78815.343,78823.89999985695,78831.952,83077.652,,,
Judgement,html.Screen,1_3_0_1,2022-02-03T14:23:26.735Z,,,,,,,,,,,,,,,,,,,,,,,,,,,,true,2,,1729.247999856947,,response,,,,,,,,,2,,2,click #choice-2,,,,,O,S,I,,84810.79999995232,84806.89999985695,83061.012,83068,83077.652,84809.926,,,
Trial,flow.Sequence,1_3_0,2022-02-03T14:23:26.735Z,,,,,,,,,,,,,,,,,,,,,,,,,,,,,,,5974.947999856944,,completion,,,,,,,,,2,,,,,,,,O,S,I,,84811,84806.89999985695,78815.343,78823.79999995232,78831.952,84809.926,,,
Sounds,html.Screen,1_3_1_0,2022-02-03T14:23:30.963Z,,,,,,,,,,,,,,,,,,,,,,,,,,,,,,,4245.579999999987,,timeout,,,,,,,,,1,,,,,,,,S,I,O,,89039.39999985695,89038.421,84792.703,84811.19999980927,84809.926,89055.506,,,
Judgement,html.Screen,1_3_1_1,2022-02-03T14:23:32.213Z,,,,,,,,,,,,,,,,,,,,,,,,,,,,true,1,,1228.893999856955,,response,,,,,,,,,1,,1,click #choice-1,,,,,S,I,O,,90288.89999985695,90284.39999985695,89038.421,89039.59999990463,89055.506,90287.211,,,
Trial,flow.Sequence,1_3_1,2022-02-03T14:23:32.213Z,,,,,,,,,,,,,,,,,,,,,,,,,,,,,,,5474.473999856942,,completion,,,,,,,,,1,,,,,,,,S,I,O,,90289.59999990463,90284.39999985695,84792.703,84811.09999990463,84809.926,90287.211,,,
Sounds,html.Screen,1_3_2_0,2022-02-03T14:23:36.440Z,,,,,,,,,,,,,,,,,,,,,,,,,,,,,,,4245.6340000000055,,timeout,,,,,,,,,3,,,,,,,,I,O,S,,94516.69999980927,94516.233,90270.611,90290.19999980927,90287.211,94532.845,,,
Judgement,html.Screen,1_3_2_1,2022-02-03T14:23:37.492Z,,,,,,,,,,,,,,,,,,,,,,,,,,,,true,3,,1033.1549999999988,,response,,,,,,,,,3,,3,click #choice-3,,,,,I,O,S,,95568.29999995232,95566,94516.233,94516.89999985695,94532.845,95581.809,,,
Trial,flow.Sequence,1_3_2,2022-02-03T14:23:37.493Z,,,,,,,,,,,,,,,,,,,,,,,,,,,,,,,5278.789000000004,,completion,,,,,,,,,3,,,,,,,,I,O,S,,95568.89999985695,95566,90270.611,90290,90287.211,95581.809,,,
Sounds,html.Screen,1_3_3_0,2022-02-03T14:23:41.736Z,,,,,,,,,,,,,,,,,,,,,,,,,,,,,,,4247.083000000013,,timeout,,,,,,,,,1,,,,,,,,S,O,I,,99812.09999990463,99811.052,95565.376,95569.39999985695,95581.809,99828.892,,,
Judgement,html.Screen,1_3_3_1,2022-02-03T14:23:42.852Z,,,,,,,,,,,,,,,,,,,,,,,,,,,,true,1,,1096.4079999523092,,response,,,,,,,,,1,,1,click #choice-1,,,,,S,O,I,,100928.5,100925.29999995232,99811.052,99812.29999995232,99828.892,100943.17,,,
Trial,flow.Sequence,1_3_3,2022-02-03T14:23:42.853Z,,,,,,,,,,,,,,,,,,,,,,,,,,,,,,,5343.490999952322,,completion,,,,,,,,,1,,,,,,,,S,O,I,,100929,100925.29999995232,95565.376,95569.19999980927,95581.809,100943.17,,,
Sounds,html.Screen,1_3_4_0,2022-02-03T14:23:47.097Z,,,,,,,,,,,,,,,,,,,,,,,,,,,,,,,4245.790999999997,,timeout,,,,,,,,,2,,,,,,,,I,S,O,,105173.19999980927,105172.4,100926.722,100929.29999995232,100943.17,105188.961,,,
Judgement,html.Screen,1_3_4_1,2022-02-03T14:23:48.090Z,,,,,,,,,,,,,,,,,,,,,,,,,,,,true,2,,975.4389998569532,,response,,,,,,,,,2,,2,click #choice-2,,,,,I,S,O,,106166.59999990463,106164.39999985695,105172.4,105173.29999995232,105188.961,106171.429,,,
Trial,flow.Sequence,1_3_4,2022-02-03T14:23:48.091Z,,,,,,,,,,,,,,,,,,,,,,,,,,,,,,,5221.229999856951,,completion,,,,,,,,,2,,,,,,,,I,S,O,,106167.09999990463,106164.39999985695,100926.722,100929.19999980927,100943.17,106171.429,,,
Sounds,html.Screen,1_3_5_0,2022-02-03T14:23:52.325Z,,,,,,,,,,,,,,,,,,,,,,,,,,,,,,,4245.660999999993,,timeout,,,,,,,,,3,,,,,,,,O,I,S,,110400.89999985695,110400.515,106154.842,106167.29999995232,106171.429,110417.09,,,
Judgement,html.Screen,1_3_5_1,2022-02-03T14:23:53.571Z,,,,,,,,,,,,,,,,,,,,,,,,,,,,true,3,,1227.3099998569523,,response,,,,,,,,,3,,3,click #choice-3,,,,,O,I,S,,111646.89999985695,111644.39999985695,110400.515,110401.09999990463,110417.09,111649.336,,,
Trial,flow.Sequence,1_3_5,2022-02-03T14:23:53.571Z,,,,,,,,,,,,,,,,,,,,,,,,,,,,,,,5472.970999856945,,completion,,,,,,,,,3,,,,,,,,O,I,S,,111647.29999995232,111644.39999985695,106154.842,106167.29999995232,106171.429,111649.336,,,
Task,flow.Loop,1_3,2022-02-03T14:23:53.581Z,,,,,,,,,,,,,,,,,,,,,,,,,,,,,,,32812.447999856944,,completion,,,1,,,,,,,,,,,,,,,,,,111657.29999995232,111644.39999985695,78815.343,78823.69999980927,78831.952,111649.336,,,
Trap,html.Screen,1_4,2022-02-03T14:23:53.584Z,,,,,,,,,,,,,,,,,,,,,,,,,,,,,,,NaN,,skipped,,,,,,,,,,,,,,,,,,,,,111659.79999995232,111644.39999985695,,111659.59999990463,,111649.336,,,
Thanks,html.Screen,1_5,2022-02-03T14:24:08.211Z,,,,,,,,,,,,,,,,,,,,,,,,,,,,,,,14634.96399995232,,response,,,,,,,,,,,continue,click button,,,,,,,,,126287.09999990463,126284.29999995232,111632.733,111659.89999985695,111649.336,136790.94,,,
Headphone screening,flow.Sequence,1,2022-02-03T14:24:08.211Z,,,,,,,,,,,,,,,,,,,,,,,,,,,,,,,99234.45399995231,,completion,,,,,,,,,,,,,,,,,,,,,126287.59999990463,126284.29999995232,27016.698,27034.299999952316,27049.846,136790.94,,,
Instructions,html.Page,2_0,2022-02-03T14:24:43.002Z,,,,,,,,,,,,,,,,,,,,,,,,,,,,,,,24286.059999999998,,form submission,,,,,,,,,,,,,,,,,,,,,161077.69999980927,161077,136692.197,136756.79999995232,136790.94,161083.552,,,
Holding screen,html.Screen,2_1_0_0,2022-02-03T14:24:52.998Z,,,,,,,,,,,,,,,,,,,,,,,,,,,,,,,10023.402000000002,,timeout,,,,,,,,,,,,,,,,,,,,,171074.39999985695,171073.672,161067.056,161078.09999990463,161083.552,171106.954,,,
screen,html.Screen,2_1_0_1_0,2022-02-03T14:24:53.036Z,,,,,,,,,,,,,,,,,53,,,,,,,,,,,,,,14.328000000008615,,response,,,,99,,,,,,,Space,keypress(Space),,,,,,,,When -- ----- -- ------ - ------- --- ----------<br>------------- ------ ------ ---- ---- ------- ----- -- ----<br>-------- ------- -- ---------- --- - --- ----- ----- ----<br>---- --- --- ----- --- ---- ---- ------- ----- ---- -------<br>--- --- -- ----- -- --- ---- -- --- ---- -- ------ ------<br>--- ----- -- ----,171112,171088,171073.672,171074.79999995232,,171123.701,,0,When
screen,html.Screen,2_1_0_1_1,2022-02-03T14:24:54.944Z,,,,,,,,,,,,,,,,,53,,,,,,,,,,,,,,1894.798999999999,,response,,,,99,,,,,,,Space,keypress(Space),,,,,,,,---- it ----- -- ------ - ------- --- ----------<br>------------- ------ ------ ---- ---- ------- ----- -- ----<br>-------- ------- -- ---------- --- - --- ----- ----- ----<br>---- --- --- ----- --- ---- ---- ------- ----- ---- -------<br>--- --- -- ----- -- --- ---- -- --- ---- -- ------ ------<br>--- ----- -- ----,173020.09999990463,173018.5,171106.954,171112.29999995232,171123.701,173053.453,,1,it
screen,html.Screen,2_1_0_1_2,2022-02-03T14:24:55.999Z,,,,,,,,,,,,,,,,,53,,,,,,,,,,,,,,1020.2469998092565,,response,,,,99,,,,,,,Space,keypress(Space),,,,,,,,---- -- comes -- ------ - ------- --- ----------<br>------------- ------ ------ ---- ---- ------- ----- -- ----<br>-------- ------- -- ---------- --- - --- ----- ----- ----<br>---- --- --- ----- --- ---- ---- ------- ----- ---- -------<br>--- --- -- ----- -- --- ---- -- --- ---- -- ------ ------<br>--- ----- -- ----,174075.29999995232,174073.69999980927,173006.754,173020.39999985695,173053.453,174087.282,,2,comes
screen,html.Screen,2_1_0_1_3,2022-02-03T14:24:57.033Z,,,,,,,,,,,,,,,,,53,,,,,,,,,,,,,,1020.6179998569423,,response,,,,99,,,,,,,Space,keypress(Space),,,,,,,,---- -- ----- to ------ - ------- --- ----------<br>------------- ------ ------ ---- ---- ------- ----- -- ----<br>-------- ------- -- ---------- --- - --- ----- ----- ----<br>---- --- --- ----- --- ---- ---- ------- ----- ---- -------<br>--- --- -- ----- -- --- ---- -- --- ---- -- ------ ------<br>--- ----- -- ----,175109.5,175107.89999985695,174071.627,174075.59999990463,174087.282,175119.736,,3,to
screen,html.Screen,2_1_0_1_4,2022-02-03T14:24:57.754Z,,,,,,,,,,,,,,,,,53,,,,,,,,,,,,,,709.2639999999956,,response,,,,99,,,,,,,Space,keypress(Space),,,,,,,,---- -- ----- -- having - ------- --- ----------<br>------------- ------ ------ ---- ---- ------- ----- -- ----<br>-------- ------- -- ---------- --- - --- ----- ----- ----<br>---- --- --- ----- --- ---- ---- ------- ----- ---- -------<br>--- --- -- ----- -- --- ---- -- --- ---- -- ------ ------<br>--- ----- -- ----,175830.5,175829,175103.903,175109.79999995232,175119.736,175835.691,,4,having
screen,html.Screen,2_1_0_1_5,2022-02-03T14:24:58.274Z,,,,,,,,,,,,,,,,,53,,,,,,,,,,,,,,512.7089998569572,,response,,,,99,,,,,,,Space,keypress(Space),,,,,,,,---- -- ----- -- ------ a ------- --- ----------<br>------------- ------ ------ ---- ---- ------- ----- -- ----<br>-------- ------- -- ---------- --- - --- ----- ----- ----<br>---- --- --- ----- --- ---- ---- ------- ----- ---- -------<br>--- --- -- ----- -- --- ---- -- --- ---- -- ------ ------<br>--- ----- -- ----,176349.79999995232,176348.39999985695,175819.525,175830.69999980927,175835.691,176373.298,,5,a
screen,html.Screen,2_1_0_1_6,2022-02-03T14:24:58.939Z,,,,,,,,,,,,,,,,,53,,,,,,,,,,,,,,639.9019998092554,,response,,,,99,,,,,,,Space,keypress(Space),,,,,,,,---- -- ----- -- ------ - lasting --- ----------<br>------------- ------ ------ ---- ---- ------- ----- -- ----<br>-------- ------- -- ---------- --- - --- ----- ----- ----<br>---- --- --- ----- --- ---- ---- ------- ----- ---- -------<br>--- --- -- ----- -- --- ---- -- --- ---- -- ------ ------<br>--- ----- -- ----,177014.79999995232,177013.19999980927,176335.472,176350.09999990463,176373.298,177017.838,,6,lasting
screen,html.Screen,2_1_0_1_7,2022-02-03T14:24:59.464Z,,,,,,,,,,,,,,,,,53,,,,,,,,,,,,,,521.6620000000112,,response,,,,99,,,,,,,Space,keypress(Space),,,,,,,,---- -- ----- -- ------ - ------- and ----------<br>------------- ------ ------ ---- ---- ------- ----- -- ----<br>-------- ------- -- ---------- --- - --- ----- ----- ----<br>---- --- --- ----- --- ---- ---- ------- ----- ---- -------<br>--- --- -- ----- -- --- ---- -- --- ---- -- ------ ------<br>--- ----- -- ----,177540.19999980927,177539.5,177001.664,177015.19999980927,177017.838,177550.555,,7,and
screen,html.Screen,2_1_0_1_8,2022-02-03T14:24:59.999Z,,,,,,,,,,,,,,,,,53,,,,,,,,,,,,,,523.1449998092721,,response,,,,99,,,,,,,Space,keypress(Space),,,,,,,,---- -- ----- -- ------ - ------- --- fulfilling<br>------------- ------ ------ ---- ---- ------- ----- -- ----<br>-------- ------- -- ---------- --- - --- ----- ----- ----<br>---- --- --- ----- --- ---- ---- ------- ----- ---- -------<br>--- --- -- ----- -- --- ---- -- --- ---- -- ------ ------<br>--- ----- -- ----,178074.59999990463,178073.69999980927,177534.342,177540.29999995232,177550.555,178083.402,,8,fulfilling
screen,html.Screen,2_1_0_1_9,2022-02-03T14:25:00.806Z,,,,,,,,,,,,,,,,,53,,,,,,,,,,,,,,797.0979999999981,,response,,,,99,,,,,,,Space,keypress(Space),,,,,,,,"---- -- ----- -- ------ - ------- --- ----------<br>relationship, ------ ------ ---- ---- ------- ----- -- ----<br>-------- ------- -- ---------- --- - --- ----- ----- ----<br>---- --- --- ----- --- ---- ---- ------- ----- ---- -------<br>--- --- -- ----- -- --- ---- -- --- ---- -- ------ ------<br>--- ----- -- ----",178882,178880.5,178067.138,178074.69999980927,178083.402,178915.847,,9,"relationship,"
screen,html.Screen,2_1_0_1_10,2022-02-03T14:25:01.579Z,,,,,,,,,,,,,,,,,53,,,,,,,,,,,,,,735.7529999046237,,response,,,,99,,,,,,,Space,keypress(Space),,,,,,,,---- -- ----- -- ------ - ------- --- ----------<br>------------- common ------ ---- ---- ------- ----- -- ----<br>-------- ------- -- ---------- --- - --- ----- ----- ----<br>---- --- --- ----- --- ---- ---- ------- ----- ---- -------<br>--- --- -- ----- -- --- ---- -- --- ---- -- ------ ------<br>--- ----- -- ----,179654.59999990463,179651.59999990463,178899.231,178882.39999985695,178915.847,179665.219,,10,common
screen,html.Screen,2_1_0_1_11,2022-02-03T14:25:02.164Z,,,,,,,,,,,,,,,,,53,,,,,,,,,,,,,,573.3809999046207,,response,,,,99,,,,,,,Space,keypress(Space),,,,,,,,---- -- ----- -- ------ - ------- --- ----------<br>------------- ------ wisdom ---- ---- ------- ----- -- ----<br>-------- ------- -- ---------- --- - --- ----- ----- ----<br>---- --- --- ----- --- ---- ---- ------- ----- ---- -------<br>--- --- -- ----- -- --- ---- -- --- ---- -- ------ ------<br>--- ----- -- ----,180240.5,180238.59999990463,179649.15,179654.89999985695,179665.219,180247.977,,11,wisdom
screen,html.Screen,2_1_0_1_12,2022-02-03T14:25:02.644Z,,,,,,,,,,,,,,,,,53,,,,,,,,,,,,,,469.92299985693535,,response,,,,99,,,,,,,Space,keypress(Space),,,,,,,,---- -- ----- -- ------ - ------- --- ----------<br>------------- ------ ------ says ---- ------- ----- -- ----<br>-------- ------- -- ---------- --- - --- ----- ----- ----<br>---- --- --- ----- --- ---- ---- ------- ----- ---- -------<br>--- --- -- ----- -- --- ---- -- --- ---- -- ------ ------<br>--- ----- -- ----,180719.79999995232,180717.89999985695,180231.731,180240.79999995232,180247.977,180731.158,,12,says
screen,html.Screen,2_1_0_1_13,2022-02-03T14:25:03.127Z,,,,,,,,,,,,,,,,,53,,,,,,,,,,,,,,470.44199990463676,,response,,,,99,,,,,,,Space,keypress(Space),,,,,,,,---- -- ----- -- ------ - ------- --- ----------<br>------------- ------ ------ ---- that ------- ----- -- ----<br>-------- ------- -- ---------- --- - --- ----- ----- ----<br>---- --- --- ----- --- ---- ---- ------- ----- ---- -------<br>--- --- -- ----- -- --- ---- -- --- ---- -- ------ ------<br>--- ----- -- ----,181203.39999985695,181201.59999990463,180714.499,180720.09999990463,180731.158,181213.531,,13,that
screen,html.Screen,2_1_0_1_14,2022-02-03T14:25:03.715Z,,,,,,,,,,,,,,,,,53,,,,,,,,,,,,,,575.3689998569607,,response,,,,99,,,,,,,Space,keypress(Space),,,,,,,,---- -- ----- -- ------ - ------- --- ----------<br>------------- ------ ------ ---- ---- feeling ----- -- ----<br>-------- ------- -- ---------- --- - --- ----- ----- ----<br>---- --- --- ----- --- ---- ---- ------- ----- ---- -------<br>--- --- -- ----- -- --- ---- -- --- ---- -- ------ ------<br>--- ----- -- ----,181790.79999995232,181788.89999985695,181197.278,181203.69999980927,181213.531,181796.433,,14,feeling
screen,html.Screen,2_1_0_1_15,2022-02-03T14:25:04.205Z,,,,,,,,,,,,,,,,,53,,,,,,,,,,,,,,483.76699980927515,,response,,,,99,,,,,,,Space,keypress(Space),,,,,,,,---- -- ----- -- ------ - ------- --- ----------<br>------------- ------ ------ ---- ---- ------- close -- ----<br>-------- ------- -- ---------- --- - --- ----- ----- ----<br>---- --- --- ----- --- ---- ---- ------- ----- ---- -------<br>--- --- -- ----- -- --- ---- -- --- ---- -- ------ ------<br>--- ----- -- ----,182281,182280.19999980927,181780.179,181791,181796.433,182295.793,,15,close
screen,html.Screen,2_1_0_1_16,2022-02-03T14:25:04.747Z,,,,,,,,,,,,,,,,,53,,,,,,,,,,,,,,525.3069999046274,,response,,,,99,,,,,,,Space,keypress(Space),,,,,,,,---- -- ----- -- ------ - ------- --- ----------<br>------------- ------ ------ ---- ---- ------- ----- to ----<br>-------- ------- -- ---------- --- - --- ----- ----- ----<br>---- --- --- ----- --- ---- ---- ------- ----- ---- -------<br>--- --- -- ----- -- --- ---- -- --- ---- -- ------ ------<br>--- ----- -- ----,182823,182821.09999990463,182279.621,182281.09999990463,182295.793,182828.743,,16,to
screen,html.Screen,2_1_0_1_17,2022-02-03T14:25:05.196Z,,,,,,,,,,,,,,,,,53,,,,,,,,,,,,,,441.4569998092775,,response,,,,99,,,,,,,Space,keypress(Space),,,,,,,,---- -- ----- -- ------ - ------- --- ----------<br>------------- ------ ------ ---- ---- ------- ----- -- your<br>-------- ------- -- ---------- --- - --- ----- ----- ----<br>---- --- --- ----- --- ---- ---- ------- ----- ---- -------<br>--- --- -- ----- -- --- ---- -- --- ---- -- ------ ------<br>--- ----- -- ----,183272.19999980927,183270.19999980927,182812.455,182823.19999980927,182828.743,183278.297,,17,your
screen,html.Screen,2_1_0_1_18,2022-02-03T14:25:05.783Z,,,,,,,,,,,,,,,,,53,,,,,,,,,,,,,,579.0029999523249,,response,,,,99,,,,,,,Space,keypress(Space),,,,,,,,---- -- ----- -- ------ - ------- --- ----------<br>------------- ------ ------ ---- ---- ------- ----- -- ----<br>romantic ------- -- ---------- --- - --- ----- ----- ----<br>---- --- --- ----- --- ---- ---- ------- ----- ---- -------<br>--- --- -- ----- -- --- ---- -- --- ---- -- ------ ------<br>--- ----- -- ----,183859.19999980927,183857.29999995232,183261.863,183272.39999985695,183278.297,183880.513,,18,romantic
screen,html.Screen,2_1_0_1_19,2022-02-03T14:25:06.250Z,,,,,,,,,,,,,,,,,53,,,,,,,,,,,,,,444.18699980925885,,response,,,,99,,,,,,,Space,keypress(Space),,,,,,,,---- -- ----- -- ------ - ------- --- ----------<br>------------- ------ ------ ---- ---- ------- ----- -- ----<br>-------- partner -- ---------- --- - --- ----- ----- ----<br>---- --- --- ----- --- ---- ---- ------- ----- ---- -------<br>--- --- -- ----- -- --- ---- -- --- ---- -- ------ ------<br>--- ----- -- ----,184326.59999990463,184324.69999980927,183844.751,183859.5,183880.513,184343.77,,19,partner
screen,html.Screen,2_1_0_1_20,2022-02-03T14:25:06.697Z,,,,,,,,,,,,,,,,,53,,,,,,,,,,,,,,427.7300000000105,,response,,,,99,,,,,,,Space,keypress(Space),,,,,,,,---- -- ----- -- ------ - ------- --- ----------<br>------------- ------ ------ ---- ---- ------- ----- -- ----<br>-------- ------- is ---------- --- - --- ----- ----- ----<br>---- --- --- ----- --- ---- ---- ------- ----- ---- -------<br>--- --- -- ----- -- --- ---- -- --- ---- -- ------ ------<br>--- ----- -- ----,184773.29999995232,184771.5,184327.492,184326.89999985695,184343.77,184776.805,,20,is
screen,html.Screen,2_1_0_1_21,2022-02-03T14:25:07.237Z,,,,,,,,,,,,,,,,,53,,,,,,,,,,,,,,535.7949999046396,,response,,,,99,,,,,,,Space,keypress(Space),,,,,,,,---- -- ----- -- ------ - ------- --- ----------<br>------------- ------ ------ ---- ---- ------- ----- -- ----<br>-------- ------- -- paramount. --- - --- ----- ----- ----<br>---- --- --- ----- --- ---- ---- ------- ----- ---- -------<br>--- --- -- ----- -- --- ---- -- --- ---- -- ------ ------<br>--- ----- -- ----,185313.39999985695,185312.59999990463,184760.451,184773.5,184776.805,185326.133,,21,paramount.
screen,html.Screen,2_1_0_1_22,2022-02-03T14:25:07.852Z,,,,,,,,,,,,,,,,,53,,,,,,,,,,,,,,599.4669999046309,,response,,,,99,,,,,,,Space,keypress(Space),,,,,,,,---- -- ----- -- ------ - ------- --- ----------<br>------------- ------ ------ ---- ---- ------- ----- -- ----<br>-------- ------- -- ---------- But - --- ----- ----- ----<br>---- --- --- ----- --- ---- ---- ------- ----- ---- -------<br>--- --- -- ----- -- --- ---- -- --- ---- -- ------ ------<br>--- ----- -- ----,185927.59999990463,185925.59999990463,185309.965,185313.5,185326.133,185942.18,,22,But
screen,html.Screen,2_1_0_1_23,2022-02-03T14:25:08.398Z,,,,,,,,,,,,,,,,,53,,,,,,,,,,,,,,530.0199998092721,,response,,,,99,,,,,,,Space,keypress(Space),,,,,,,,---- -- ----- -- ------ - ------- --- ----------<br>------------- ------ ------ ---- ---- ------- ----- -- ----<br>-------- ------- -- ---------- --- a --- ----- ----- ----<br>---- --- --- ----- --- ---- ---- ------- ----- ---- -------<br>--- --- -- ----- -- --- ---- -- --- ---- -- ------ ------<br>--- ----- -- ----,186474,186472.19999980927,185926.12,185927.89999985695,185942.18,186508.293,,23,a
screen,html.Screen,2_1_0_1_24,2022-02-03T14:25:08.822Z,,,,,,,,,,,,,,,,,53,,,,,,,,,,,,,,389.2069999999949,,response,,,,99,,,,,,,Space,keypress(Space),,,,,,,,---- -- ----- -- ------ - ------- --- ----------<br>------------- ------ ------ ---- ---- ------- ----- -- ----<br>-------- ------- -- ---------- --- - new ----- ----- ----<br>---- --- --- ----- --- ---- ---- ------- ----- ---- -------<br>--- --- -- ----- -- --- ---- -- --- ---- -- ------ ------<br>--- ----- -- ----,186898.39999985695,186897.5,186491.689,186474.19999980927,186508.293,186907.891,,24,new
screen,html.Screen,2_1_0_1_25,2022-02-03T14:25:09.232Z,,,,,,,,,,,,,,,,,53,,,,,,,,,,,,,,399.3089998092619,,response,,,,99,,,,,,,Space,keypress(Space),,,,,,,,---- -- ----- -- ------ - ------- --- ----------<br>------------- ------ ------ ---- ---- ------- ----- -- ----<br>-------- ------- -- ---------- --- - --- study ----- ----<br>---- --- --- ----- --- ---- ---- ------- ----- ---- -------<br>--- --- -- ----- -- --- ---- -- --- ---- -- ------ ------<br>--- ----- -- ----,187308.5,187307.19999980927,186891.639,186898.39999985695,186907.891,187324.139,,25,study
screen,html.Screen,2_1_0_1_26,2022-02-03T14:25:09.708Z,,,,,,,,,,,,,,,,,53,,,,,,,,,,,,,,457.960999904637,,response,,,,99,,,,,,,Space,keypress(Space),,,,,,,,---- -- ----- -- ------ - ------- --- ----------<br>------------- ------ ------ ---- ---- ------- ----- -- ----<br>-------- ------- -- ---------- --- - --- ----- finds ----<br>---- --- --- ----- --- ---- ---- ------- ----- ---- -------<br>--- --- -- ----- -- --- ---- -- --- ---- -- ------ ------<br>--- ----- -- ----,187783.89999985695,187782.09999990463,187307.824,187308.79999995232,187324.139,187790.593,,26,finds
screen,html.Screen,2_1_0_1_27,2022-02-03T14:25:10.114Z,,,,,,,,,,,,,,,,,53,,,,,,,,,,,,,,397.3069998569554,,response,,,,99,,,,,,,Space,keypress(Space),,,,,,,,---- -- ----- -- ------ - ------- --- ----------<br>------------- ------ ------ ---- ---- ------- ----- -- ----<br>-------- ------- -- ---------- --- - --- ----- ----- that<br>---- --- --- ----- --- ---- ---- ------- ----- ---- -------<br>--- --- -- ----- -- --- ---- -- --- ---- -- ------ ------<br>--- ----- -- ----,188190.39999985695,188187.89999985695,187774.075,187784.19999980927,187790.593,188206.578,,27,that
screen,html.Screen,2_1_0_1_28,2022-02-03T14:25:10.571Z,,,,,,,,,,,,,,,,,53,,,,,,,,,,,,,,438.52199990462395,,response,,,,99,,,,,,,Space,keypress(Space),,,,,,,,---- -- ----- -- ------ - ------- --- ----------<br>------------- ------ ------ ---- ---- ------- ----- -- ----<br>-------- ------- -- ---------- --- - --- ----- ----- ----<br>it's --- --- ----- --- ---- ---- ------- ----- ---- -------<br>--- --- -- ----- -- --- ---- -- --- ---- -- ------ ------<br>--- ----- -- ----,188647.09999990463,188645.09999990463,188190.339,188190.69999980927,188206.578,188656.134,,28,it's
screen,html.Screen,2_1_0_1_29,2022-02-03T14:25:10.954Z,,,,,,,,,,,,,,,,,53,,,,,,,,,,,,,,372.0659998092742,,response,,,,99,,,,,,,Space,keypress(Space),,,,,,,,---- -- ----- -- ------ - ------- --- ----------<br>------------- ------ ------ ---- ---- ------- ----- -- ----<br>-------- ------- -- ---------- --- - --- ----- ----- ----<br>---- not --- ----- --- ---- ---- ------- ----- ---- -------<br>--- --- -- ----- -- --- ---- -- --- ---- -- ------ ------<br>--- ----- -- ----,189029.79999995232,189028.19999980927,188639.886,188647.39999985695,188656.134,189039.163,,29,not
screen,html.Screen,2_1_0_1_30,2022-02-03T14:25:11.551Z,,,,,,,,,,,,,,,,,53,,,,,,,,,,,,,,586.1369999523158,,response,,,,99,,,,,,,Space,keypress(Space),,,,,,,,---- -- ----- -- ------ - ------- --- ----------<br>------------- ------ ------ ---- ---- ------- ----- -- ----<br>-------- ------- -- ---------- --- - --- ----- ----- ----<br>---- --- how ----- --- ---- ---- ------- ----- ---- -------<br>--- --- -- ----- -- --- ---- -- --- ---- -- ------ ------<br>--- ----- -- ----,189627.29999995232,189625.29999995232,189022.806,189030.09999990463,189039.163,189638.623,,30,how
screen,html.Screen,2_1_0_1_31,2022-02-03T14:25:12.132Z,,,,,,,,,,,,,,,,,53,,,,,,,,,,,,,,567.3770000000077,,response,,,,99,,,,,,,Space,keypress(Space),,,,,,,,---- -- ----- -- ------ - ------- --- ----------<br>------------- ------ ------ ---- ---- ------- ----- -- ----<br>-------- ------- -- ---------- --- - --- ----- ----- ----<br>---- --- --- close --- ---- ---- ------- ----- ---- -------<br>--- --- -- ----- -- --- ---- -- --- ---- -- ------ ------<br>--- ----- -- ----,190207.79999995232,190206,189622.362,189627.5,189638.623,190221.261,,31,close
screen,html.Screen,2_1_0_1_32,2022-02-03T14:25:12.554Z,,,,,,,,,,,,,,,,,53,,,,,,,,,,,,,,407.13899985695025,,response,,,,99,,,,,,,Space,keypress(Space),,,,,,,,---- -- ----- -- ------ - ------- --- ----------<br>------------- ------ ------ ---- ---- ------- ----- -- ----<br>-------- ------- -- ---------- --- - --- ----- ----- ----<br>---- --- --- ----- you ---- ---- ------- ----- ---- -------<br>--- --- -- ----- -- --- ---- -- --- ---- -- ------ ------<br>--- ----- -- ----,190630.19999980927,190628.39999985695,190205.14,190208,190221.261,190637.514,,32,you
screen,html.Screen,2_1_0_1_33,2022-02-03T14:25:12.963Z,,,,,,,,,,,,,,,,,53,,,,,,,,,,,,,,399.3859998569533,,response,,,,99,,,,,,,Space,keypress(Space),,,,,,,,---- -- ----- -- ------ - ------- --- ----------<br>------------- ------ ------ ---- ---- ------- ----- -- ----<br>-------- ------- -- ---------- --- - --- ----- ----- ----<br>---- --- --- ----- --- feel ---- ------- ----- ---- -------<br>--- --- -- ----- -- --- ---- -- --- ---- -- ------ ------<br>--- ----- -- ----,191038.69999980927,191036.89999985695,190621.178,190630.5,190637.514,191053.752,,33,feel
screen,html.Screen,2_1_0_1_34,2022-02-03T14:25:13.431Z,,,,,,,,,,,,,,,,,53,,,,,,,,,,,,,,451.3479999046249,,response,,,,99,,,,,,,Space,keypress(Space),,,,,,,,---- -- ----- -- ------ - ------- --- ----------<br>------------- ------ ------ ---- ---- ------- ----- -- ----<br>-------- ------- -- ---------- --- - --- ----- ----- ----<br>---- --- --- ----- --- ---- that ------- ----- ---- -------<br>--- --- -- ----- -- --- ---- -- --- ---- -- ------ ------<br>--- ----- -- ----,191506.89999985695,191505.09999990463,191037.505,191038.89999985695,191053.752,191519.96,,34,that
screen,html.Screen,2_1_0_1_35,2022-02-03T14:25:13.912Z,,,,,,,,,,,,,,,,,53,,,,,,,,,,,,,,467.54000000000815,,response,,,,99,,,,,,,Space,keypress(Space),,,,,,,,---- -- ----- -- ------ - ------- --- ----------<br>------------- ------ ------ ---- ---- ------- ----- -- ----<br>-------- ------- -- ---------- --- - --- ----- ----- ----<br>---- --- --- ----- --- ---- ---- matters ----- ---- -------<br>--- --- -- ----- -- --- ---- -- --- ---- -- ------ ------<br>--- ----- -- ----,191988.29999995232,191987.5,191503.708,191507.19999980927,191519.96,192002.876,,35,matters
screen,html.Screen,2_1_0_1_36,2022-02-03T14:25:14.524Z,,,,,,,,,,,,,,,,,53,,,,,,,,,,,,,,595.8239998092758,,response,,,,99,,,,,,,Space,keypress(Space),,,,,,,,"---- -- ----- -- ------ - ------- --- ----------<br>------------- ------ ------ ---- ---- ------- ----- -- ----<br>-------- ------- -- ---------- --- - --- ----- ----- ----<br>---- --- --- ----- --- ---- ---- ------- most, ---- -------<br>--- --- -- ----- -- --- ---- -- --- ---- -- ------ ------<br>--- ----- -- ----",192599.59999990463,192598.69999980927,191986.603,191988.39999985695,192002.876,192602.258,,36,"most,"
screen,html.Screen,2_1_0_1_37,2022-02-03T14:25:14.924Z,,,,,,,,,,,,,,,,,53,,,,,,,,,,,,,,396.34199990463094,,response,,,,99,,,,,,,Space,keypress(Space),,,,,,,,---- -- ----- -- ------ - ------- --- ----------<br>------------- ------ ------ ---- ---- ------- ----- -- ----<br>-------- ------- -- ---------- --- - --- ----- ----- ----<br>---- --- --- ----- --- ---- ---- ------- ----- it's -------<br>--- --- -- ----- -- --- ---- -- --- ---- -- ------ ------<br>--- ----- -- ----,193000.5,192998.59999990463,192586.111,192599.69999980927,192602.258,193018.558,,37,it's
screen,html.Screen,2_1_0_1_38,2022-02-03T14:25:15.441Z,,,,,,,,,,,,,,,,,53,,,,,,,,,,,,,,497.0419999046426,,response,,,,99,,,,,,,Space,keypress(Space),,,,,,,,---- -- ----- -- ------ - ------- --- ----------<br>------------- ------ ------ ---- ---- ------- ----- -- ----<br>-------- ------- -- ---------- --- - --- ----- ----- ----<br>---- --- --- ----- --- ---- ---- ------- ----- ---- whether<br>--- --- -- ----- -- --- ---- -- --- ---- -- ------ ------<br>--- ----- -- ----,193517.5,193515.59999990463,192985.581,193000.79999995232,193018.558,193534.65,,38,whether
screen,html.Screen,2_1_0_1_39,2022-02-03T14:25:15.839Z,,,,,,,,,,,,,,,,,53,,,,,,,,,,,,,,378.1499999523221,,response,,,,99,,,,,,,Space,keypress(Space),,,,,,,,---- -- ----- -- ------ - ------- --- ----------<br>------------- ------ ------ ---- ---- ------- ----- -- ----<br>-------- ------- -- ---------- --- - --- ----- ----- ----<br>---- --- --- ----- --- ---- ---- ------- ----- ---- -------<br>you --- -- ----- -- --- ---- -- --- ---- -- ------ ------<br>--- ----- -- ----,193914.79999995232,193912.79999995232,193518.479,193517.79999995232,193534.65,193917.596,,39,you
screen,html.Screen,2_1_0_1_40,2022-02-03T14:25:16.282Z,,,,,,,,,,,,,,,,,53,,,,,,,,,,,,,,438.8039998569584,,response,,,,99,,,,,,,Space,keypress(Space),,,,,,,,---- -- ----- -- ------ - ------- --- ----------<br>------------- ------ ------ ---- ---- ------- ----- -- ----<br>-------- ------- -- ---------- --- - --- ----- ----- ----<br>---- --- --- ----- --- ---- ---- ------- ----- ---- -------<br>--- are -- ----- -- --- ---- -- --- ---- -- ------ ------<br>--- ----- -- ----,194358.19999980927,194356.39999985695,193901.26,193915,193917.596,194367.184,,40,are
screen,html.Screen,2_1_0_1_41,2022-02-03T14:25:16.807Z,,,,,,,,,,,,,,,,,53,,,,,,,,,,,,,,514.1159999523079,,response,,,,99,,,,,,,Space,keypress(Space),,,,,,,,---- -- ----- -- ------ - ------- --- ----------<br>------------- ------ ------ ---- ---- ------- ----- -- ----<br>-------- ------- -- ---------- --- - --- ----- ----- ----<br>---- --- --- ----- --- ---- ---- ------- ----- ---- -------<br>--- --- as ----- -- --- ---- -- --- ---- -- ------ ------<br>--- ----- -- ----,194883.19999980927,194881.29999995232,194350.929,194358.5,194367.184,194899.991,,41,as
screen,html.Screen,2_1_0_1_42,2022-02-03T14:25:17.265Z,,,,,,,,,,,,,,,,,53,,,,,,,,,,,,,,439.0089999999909,,response,,,,99,,,,,,,Space,keypress(Space),,,,,,,,---- -- ----- -- ------ - ------- --- ----------<br>------------- ------ ------ ---- ---- ------- ----- -- ----<br>-------- ------- -- ---------- --- - --- ----- ----- ----<br>---- --- --- ----- --- ---- ---- ------- ----- ---- -------<br>--- --- -- close -- --- ---- -- --- ---- -- ------ ------<br>--- ----- -- ----,195340.69999980927,195339,194883.765,194883.5,194899.991,195349.661,,42,close
screen,html.Screen,2_1_0_1_43,2022-02-03T14:25:17.659Z,,,,,,,,,,,,,,,,,53,,,,,,,,,,,,,,383.8390000000072,,response,,,,99,,,,,,,Space,keypress(Space),,,,,,,,---- -- ----- -- ------ - ------- --- ----------<br>------------- ------ ------ ---- ---- ------- ----- -- ----<br>-------- ------- -- ---------- --- - --- ----- ----- ----<br>---- --- --- ----- --- ---- ---- ------- ----- ---- -------<br>--- --- -- ----- as --- ---- -- --- ---- -- ------ ------<br>--- ----- -- ----,195735.29999995232,195733.5,195333.296,195341,195349.661,195749.111,,43,as
screen,html.Screen,2_1_0_1_44,2022-02-03T14:25:18.034Z,,,,,,,,,,,,,,,,,53,,,,,,,,,,,,,,358.8889999999956,,response,,,,99,,,,,,,Space,keypress(Space),,,,,,,,---- -- ----- -- ------ - ------- --- ----------<br>------------- ------ ------ ---- ---- ------- ----- -- ----<br>-------- ------- -- ---------- --- - --- ----- ----- ----<br>---- --- --- ----- --- ---- ---- ------- ----- ---- -------<br>--- --- -- ----- -- you ---- -- --- ---- -- ------ ------<br>--- ----- -- ----,196109.79999995232,196108,195732.832,195735.59999990463,195749.111,196115.557,,44,you
screen,html.Screen,2_1_0_1_45,2022-02-03T14:25:18.475Z,,,,,,,,,,,,,,,,,53,,,,,,,,,,,,,,433.54299990463187,,response,,,,99,,,,,,,Space,keypress(Space),,,,,,,,---- -- ----- -- ------ - ------- --- ----------<br>------------- ------ ------ ---- ---- ------- ----- -- ----<br>-------- ------- -- ---------- --- - --- ----- ----- ----<br>---- --- --- ----- --- ---- ---- ------- ----- ---- -------<br>--- --- -- ----- -- --- want -- --- ---- -- ------ ------<br>--- ----- -- ----,196551.09999990463,196549.09999990463,196099.105,196110.09999990463,196115.557,196564.967,,45,want
screen,html.Screen,2_1_0_1_46,2022-02-03T14:25:18.872Z,,,,,,,,,,,,,,,,,53,,,,,,,,,,,,,,381.23299980926095,,response,,,,99,,,,,,,Space,keypress(Space),,,,,,,,---- -- ----- -- ------ - ------- --- ----------<br>------------- ------ ------ ---- ---- ------- ----- -- ----<br>-------- ------- -- ---------- --- - --- ----- ----- ----<br>---- --- --- ----- --- ---- ---- ------- ----- ---- -------<br>--- --- -- ----- -- --- ---- to --- ---- -- ------ ------<br>--- ----- -- ----,196948,196946.19999980927,196548.683,196551.29999995232,196564.967,196964.654,,46,to
screen,html.Screen,2_1_0_1_47,2022-02-03T14:25:19.307Z,,,,,,,,,,,,,,,,,53,,,,,,,,,,,,,,416.64599995230674,,response,,,,99,,,,,,,Space,keypress(Space),,,,,,,,"---- -- ----- -- ------ - ------- --- ----------<br>------------- ------ ------ ---- ---- ------- ----- -- ----<br>-------- ------- -- ---------- --- - --- ----- ----- ----<br>---- --- --- ----- --- ---- ---- ------- ----- ---- -------<br>--- --- -- ----- -- --- ---- -- be, ---- -- ------ ------<br>--- ----- -- ----",197383.29999995232,197381.29999995232,196948.244,196948.19999980927,196964.654,197397.461,,47,"be,"
screen,html.Screen,2_1_0_1_48,2022-02-03T14:25:19.769Z,,,,,,,,,,,,,,,,,53,,,,,,,,,,,,,,445.7389998092549,,response,,,,99,,,,,,,Space,keypress(Space),,,,,,,,---- -- ----- -- ------ - ------- --- ----------<br>------------- ------ ------ ---- ---- ------- ----- -- ----<br>-------- ------- -- ---------- --- - --- ----- ----- ----<br>---- --- --- ----- --- ---- ---- ------- ----- ---- -------<br>--- --- -- ----- -- --- ---- -- --- even -- ------ ------<br>--- ----- -- ----,197844.79999995232,197843.19999980927,197381.176,197383.59999990463,197397.461,197847.098,,48,even
screen,html.Screen,2_1_0_1_49,2022-02-03T14:25:20.277Z,,,,,,,,,,,,,,,,,53,,,,,,,,,,,,,,504.40200000000186,,response,,,,99,,,,,,,Space,keypress(Space),,,,,,,,---- -- ----- -- ------ - ------- --- ----------<br>------------- ------ ------ ---- ---- ------- ----- -- ----<br>-------- ------- -- ---------- --- - --- ----- ----- ----<br>---- --- --- ----- --- ---- ---- ------- ----- ---- -------<br>--- --- -- ----- -- --- ---- -- --- ---- if ------ ------<br>--- ----- -- ----,198353.39999985695,198351.5,197830.807,197845,197847.098,198363.168,,49,if
screen,html.Screen,2_1_0_1_50,2022-02-03T14:25:20.699Z,,,,,,,,,,,,,,,,,53,,,,,,,,,,,,,,410.53199980926,,response,,,,99,,,,,,,Space,keypress(Space),,,,,,,,---- -- ----- -- ------ - ------- --- ----------<br>------------- ------ ------ ---- ---- ------- ----- -- ----<br>-------- ------- -- ---------- --- - --- ----- ----- ----<br>---- --- --- ----- --- ---- ---- ------- ----- ---- -------<br>--- --- -- ----- -- --- ---- -- --- ---- -- that's ------<br>--- ----- -- ----,198775.5,198773.69999980927,198347.029,198353.59999990463,198363.168,198779.472,,50,that's
screen,html.Screen,2_1_0_1_51,2022-02-03T14:25:21.166Z,,,,,,,,,,,,,,,,,53,,,,,,,,,,,,,,461.2279998092563,,response,,,,99,,,,,,,Space,keypress(Space),,,,,,,,---- -- ----- -- ------ - ------- --- ----------<br>------------- ------ ------ ---- ---- ------- ----- -- ----<br>-------- ------- -- ---------- --- - --- ----- ----- ----<br>---- --- --- ----- --- ---- ---- ------- ----- ---- -------<br>--- --- -- ----- -- --- ---- -- --- ---- -- ------ really<br>--- ----- -- ----,199242.59999990463,199240.69999980927,198763.133,198775.79999995232,198779.472,199245.757,,51,really
screen,html.Screen,2_1_0_1_52,2022-02-03T14:25:21.587Z,,,,,,,,,,,,,,,,,53,,,,,,,,,,,,,,416.04299995230394,,response,,,,99,,,,,,,Space,keypress(Space),,,,,,,,---- -- ----- -- ------ - ------- --- ----------<br>------------- ------ ------ ---- ---- ------- ----- -- ----<br>-------- ------- -- ---------- --- - --- ----- ----- ----<br>---- --- --- ----- --- ---- ---- ------- ----- ---- -------<br>--- --- -- ----- -- --- ---- -- --- ---- -- ------ ------<br>not ----- -- ----,199663.69999980927,199661.79999995232,199229.464,199242.89999985695,199245.757,199678.537,,52,not
screen,html.Screen,2_1_0_1_53,2022-02-03T14:25:21.956Z,,,,,,,,,,,,,,,,,53,,,,,,,,,,,,,,351.4629999999888,,response,,,,99,,,,,,,Space,keypress(Space),,,,,,,,---- -- ----- -- ------ - ------- --- ----------<br>------------- ------ ------ ---- ---- ------- ----- -- ----<br>-------- ------- -- ---------- --- - --- ----- ----- ----<br>---- --- --- ----- --- ---- ---- ------- ----- ---- -------<br>--- --- -- ----- -- --- ---- -- --- ---- -- ------ ------<br>--- close -- ----,200031.89999985695,200030,199662.292,199663.89999985695,199678.537,200044.858,,53,close
screen,html.Screen,2_1_0_1_54,2022-02-03T14:25:22.356Z,,,,,,,,,,,,,,,,,53,,,,,,,,,,,,,,385.14199999999255,,response,,,,99,,,,,,,Space,keypress(Space),,,,,,,,---- -- ----- -- ------ - ------- --- ----------<br>------------- ------ ------ ---- ---- ------- ----- -- ----<br>-------- ------- -- ---------- --- - --- ----- ----- ----<br>---- --- --- ----- --- ---- ---- ------- ----- ---- -------<br>--- --- -- ----- -- --- ---- -- --- ---- -- ------ ------<br>--- ----- at ----,200431.79999995232,200430,200028.501,200032.09999990463,200044.858,200444.43,,54,at
screen,html.Screen,2_1_0_1_55,2022-02-03T14:25:25.524Z,,,,,,,,,,,,,,,,,53,,,,,,,,,,,,,,3154.1699999046396,,response,,,,99,,,,,,,Space,keypress(Space),,,,,,,,---- -- ----- -- ------ - ------- --- ----------<br>------------- ------ ------ ---- ---- ------- ----- -- ----<br>-------- ------- -- ---------- --- - --- ----- ----- ----<br>---- --- --- ----- --- ---- ---- ------- ----- ---- -------<br>--- --- -- ----- -- --- ---- -- --- ---- -- ------ ------<br>--- ----- -- all.,203600.39999985695,203598.59999990463,200428.179,200432.09999990463,200444.43,203608.02,,55,all.
Item 99,flow.Loop,2_1_0_1,2022-02-03T14:25:25.525Z,,,,,,,,,,,,,,,,,,,,,,,,,,,,,,,32491.645999904635,,completion,,,,,A,,,,,,,,,,,silence,,,,,203601,203598.59999990463,171073.672,171074.69999980927,171106.954,203608.02,,,
Question 1,html.Screen,2_1_0_2,2022-02-03T14:25:34.823Z,,,,,,,,,,,,,,,,,,,,,,,,,,,,true,FALSE,,9288.679999809276,,response,,,,99,A,,,,,,FALSE,click #choice-2,,,,silence,,,,,212899.09999990463,212896.69999980927,203591.941,203601.29999995232,203608.02,212926.168,,,
Question 2,html.Screen,2_1_0_3,2022-02-03T14:25:44.450Z,,,,,,,,,,,,,,,,,,,,,,,,,,,,true,TRUE,,9597.53199980926,,response,,,,99,A,,,,,,TRUE,click #choice-1,,,,silence,,,,,222525.79999995232,222523.69999980927,212882.28,212900.19999980927,212926.168,222539.261,,,
Item 99,flow.Sequence,2_1_0,2022-02-03T14:25:44.450Z,,,,,,,,,,,,,,,,,,,,,,,,,,,,,,,61440.14799980927,,completion,,,,,,,,,,,,,,,,,,,,,222526.19999980927,222523.69999980927,161067.056,161078.09999990463,161083.552,222539.261,,,
Holding screen,html.Screen,2_1_1_0,2022-02-03T14:25:54.454Z,,,,,,,,,,,,,,,,,,,,,,,,,,,,,,,10006.668000000005,,timeout,,,,,,,,,,,,,,,,,,,,,232530.39999985695,232529.347,222522.748,222526.59999990463,222539.261,232545.929,,,
screen,html.Screen,2_1_1_1_0,2022-02-03T14:25:55.208Z,,,,,,,,,,,,,,,,,54,,,,,,,,,,,,,,737.1709999046288,,response,,,,100,,,,,,,Space,keypress(Space),,,,,,,,At --- ---- --- ------ ----- ------- ---- -- --- ------- --<br>------- ---------- ------ -- ----- -- ----- -- ---- ------<br>--- ----- --- --- ------ -------- ----- --- ------ ----- --<br>----- ----- ---------- --- --- ------ ------ ---- -- ------<br>------- --- ------ ----- --- ---- ------- -- ---- --- --<br>------- ------,233283.79999995232,233283.09999990463,232529.347,232530.59999990463,232545.929,233295.217,,0,At
screen,html.Screen,2_1_1_1_1,2022-02-03T14:25:55.728Z,,,,,,,,,,,,,,,,,54,,,,,,,,,,,,,,507.48299980926095,,response,,,,100,,,,,,,Space,keypress(Space),,,,,,,,-- the ---- --- ------ ----- ------- ---- -- --- ------- --<br>------- ---------- ------ -- ----- -- ----- -- ---- ------<br>--- ----- --- --- ------ -------- ----- --- ------ ----- --<br>----- ----- ---------- --- --- ------ ------ ---- -- ------<br>------- --- ------ ----- --- ---- ------- -- ---- --- --<br>------- ------,233804.19999980927,233802.69999980927,233279.259,233284,233295.217,233811.498,,1,the
screen,html.Screen,2_1_1_1_2,2022-02-03T14:25:56.254Z,,,,,,,,,,,,,,,,,54,,,,,,,,,,,,,,517.1019999046403,,response,,,,100,,,,,,,Space,keypress(Space),,,,,,,,-- --- time --- ------ ----- ------- ---- -- --- ------- --<br>------- ---------- ------ -- ----- -- ----- -- ---- ------<br>--- ----- --- --- ------ -------- ----- --- ------ ----- --<br>----- ----- ---------- --- --- ------ ------ ---- -- ------<br>------- --- ------ ----- --- ---- ------- -- ---- --- --<br>------- ------,234330.19999980927,234328.59999990463,233795.192,233804.5,233811.498,234344.156,,2,time
screen,html.Screen,2_1_1_1_3,2022-02-03T14:25:56.611Z,,,,,,,,,,,,,,,,,54,,,,,,,,,,,,,,341.94399990464444,,response,,,,100,,,,,,,Space,keypress(Space),,,,,,,,-- --- ---- the ------ ----- ------- ---- -- --- ------- --<br>------- ---------- ------ -- ----- -- ----- -- ---- ------<br>--- ----- --- --- ------ -------- ----- --- ------ ----- --<br>----- ----- ---------- --- --- ------ ------ ---- -- ------<br>------- --- ------ ----- --- ---- ------- -- ---- --- --<br>------- ------,234687.59999990463,234686.09999990463,234327.97,234330.39999985695,234344.156,234693.935,,3,the
screen,html.Screen,2_1_1_1_4,2022-02-03T14:25:57.035Z,,,,,,,,,,,,,,,,,54,,,,,,,,,,,,,,415.9649998569512,,response,,,,100,,,,,,,Space,keypress(Space),,,,,,,,-- --- ---- --- French ----- ------- ---- -- --- ------- --<br>------- ---------- ------ -- ----- -- ----- -- ---- ------<br>--- ----- --- --- ------ -------- ----- --- ------ ----- --<br>----- ----- ---------- --- --- ------ ------ ---- -- ------<br>------- --- ------ ----- --- ---- ------- -- ---- --- --<br>------- ------,235111.5,235109.89999985695,234677.503,234687.79999995232,234693.935,235126.708,,4,French
screen,html.Screen,2_1_1_1_5,2022-02-03T14:25:57.475Z,,,,,,,,,,,,,,,,,54,,,,,,,,,,,,,,423.1919998569356,,response,,,,100,,,,,,,Space,keypress(Space),,,,,,,,-- --- ---- --- ------ crown ------- ---- -- --- ------- --<br>------- ---------- ------ -- ----- -- ----- -- ---- ------<br>--- ----- --- --- ------ -------- ----- --- ------ ----- --<br>----- ----- ---------- --- --- ------ ------ ---- -- ------<br>------- --- ------ ----- --- ---- ------- -- ---- --- --<br>------- ------,235551.59999990463,235549.89999985695,235110.467,235111.79999995232,235126.708,235559.687,,5,crown
screen,html.Screen,2_1_1_1_6,2022-02-03T14:25:57.878Z,,,,,,,,,,,,,,,,,54,,,,,,,,,,,,,,393.2129998569435,,response,,,,100,,,,,,,Space,keypress(Space),,,,,,,,-- --- ---- --- ------ ----- secured ---- -- --- ------- --<br>------- ---------- ------ -- ----- -- ----- -- ---- ------<br>--- ----- --- --- ------ -------- ----- --- ------ ----- --<br>----- ----- ---------- --- --- ------ ------ ---- -- ------<br>------- --- ------ ----- --- ---- ------- -- ---- --- --<br>------- ------,235954.5,235952.89999985695,235543.359,235551.79999995232,235559.687,235959.339,,6,secured
screen,html.Screen,2_1_1_1_7,2022-02-03T14:25:58.312Z,,,,,,,,,,,,,,,,,54,,,,,,,,,,,,,,427.76099990462535,,response,,,,100,,,,,,,Space,keypress(Space),,,,,,,,-- --- ---- --- ------ ----- ------- much -- --- ------- --<br>------- ---------- ------ -- ----- -- ----- -- ---- ------<br>--- ----- --- --- ------ -------- ----- --- ------ ----- --<br>----- ----- ---------- --- --- ------ ------ ---- -- ------<br>------- --- ------ ----- --- ---- ------- -- ---- --- --<br>------- ------,236388.69999980927,236387.09999990463,235942.943,235954.79999995232,235959.339,236392.252,,7,much
screen,html.Screen,2_1_1_1_8,2022-02-03T14:25:58.705Z,,,,,,,,,,,,,,,,,54,,,,,,,,,,,,,,386.8479999046249,,response,,,,100,,,,,,,Space,keypress(Space),,,,,,,,-- --- ---- --- ------ ----- ------- ---- of --- ------- --<br>------- ---------- ------ -- ----- -- ----- -- ---- ------<br>--- ----- --- --- ------ -------- ----- --- ------ ----- --<br>----- ----- ---------- --- --- ------ ------ ---- -- ------<br>------- --- ------ ----- --- ---- ------- -- ---- --- --<br>------- ------,236781,236779.09999990463,236375.821,236388.89999985695,236392.252,236791.707,,8,of
screen,html.Screen,2_1_1_1_9,2022-02-03T14:25:59.196Z,,,,,,,,,,,,,,,,,54,,,,,,,,,,,,,,478.5929999523214,,response,,,,100,,,,,,,Space,keypress(Space),,,,,,,,-- --- ---- --- ------ ----- ------- ---- -- its ------- --<br>------- ---------- ------ -- ----- -- ----- -- ---- ------<br>--- ----- --- --- ------ -------- ----- --- ------ ----- --<br>----- ----- ---------- --- --- ------ ------ ---- -- ------<br>------- --- ------ ----- --- ---- ------- -- ---- --- --<br>------- ------,237272.09999990463,237270.29999995232,236775.404,236781.19999980927,236791.707,237274.683,,9,its
screen,html.Screen,2_1_1_1_10,2022-02-03T14:25:59.606Z,,,,,,,,,,,,,,,,,54,,,,,,,,,,,,,,406.9169999046426,,response,,,,100,,,,,,,Space,keypress(Space),,,,,,,,-- --- ---- --- ------ ----- ------- ---- -- --- revenue --<br>------- ---------- ------ -- ----- -- ----- -- ---- ------<br>--- ----- --- --- ------ -------- ----- --- ------ ----- --<br>----- ----- ---------- --- --- ------ ------ ---- -- ------<br>------- --- ------ ----- --- ---- ------- -- ---- --- --<br>------- ------,237682.39999985695,237681.59999990463,237258.386,237272.39999985695,237274.683,237690.835,,10,revenue
screen,html.Screen,2_1_1_1_11,2022-02-03T14:26:00.053Z,,,,,,,,,,,,,,,,,54,,,,,,,,,,,,,,437.7649999046407,,response,,,,100,,,,,,,Space,keypress(Space),,,,,,,,-- --- ---- --- ------ ----- ------- ---- -- --- ------- by<br>------- ---------- ------ -- ----- -- ----- -- ---- ------<br>--- ----- --- --- ------ -------- ----- --- ------ ----- --<br>----- ----- ---------- --- --- ------ ------ ---- -- ------<br>------- --- ------ ----- --- ---- ------- -- ---- --- --<br>------- ------,238129.39999985695,238128.59999990463,237674.515,237682.59999990463,237690.835,238140.406,,11,by
screen,html.Screen,2_1_1_1_12,2022-02-03T14:26:00.601Z,,,,,,,,,,,,,,,,,54,,,,,,,,,,,,,,535.3939999523282,,response,,,,100,,,,,,,Space,keypress(Space),,,,,,,,-- --- ---- --- ------ ----- ------- ---- -- --- ------- --<br>issuing ---------- ------ -- ----- -- ----- -- ---- ------<br>--- ----- --- --- ------ -------- ----- --- ------ ----- --<br>----- ----- ---------- --- --- ------ ------ ---- -- ------<br>------- --- ------ ----- --- ---- ------- -- ---- --- --<br>------- ------,238677.69999980927,238675.79999995232,238124.183,238129.59999990463,238140.406,238689.911,,12,issuing
screen,html.Screen,2_1_1_1_13,2022-02-03T14:26:01.049Z,,,,,,,,,,,,,,,,,54,,,,,,,,,,,,,,433.5890000000072,,response,,,,100,,,,,,,Space,keypress(Space),,,,,,,,-- --- ---- --- ------ ----- ------- ---- -- --- ------- --<br>------- government ------ -- ----- -- ----- -- ---- ------<br>--- ----- --- --- ------ -------- ----- --- ------ ----- --<br>----- ----- ---------- --- --- ------ ------ ---- -- ------<br>------- --- ------ ----- --- ---- ------- -- ---- --- --<br>------- ------,239125.19999980927,239123.5,238673.72,238678,238689.911,239139.387,,13,government
screen,html.Screen,2_1_1_1_14,2022-02-03T14:26:01.743Z,,,,,,,,,,,,,,,,,54,,,,,,,,,,,,,,678.3129998092772,,response,,,,100,,,,,,,Space,keypress(Space),,,,,,,,-- --- ---- --- ------ ----- ------- ---- -- --- ------- --<br>------- ---------- bonds. -- ----- -- ----- -- ---- ------<br>--- ----- --- --- ------ -------- ----- --- ------ ----- --<br>----- ----- ---------- --- --- ------ ------ ---- -- ------<br>------- --- ------ ----- --- ---- ------- -- ---- --- --<br>------- ------,239819.5,239817.69999980927,239123.204,239125.5,239139.387,239822.164,,14,bonds.
screen,html.Screen,2_1_1_1_15,2022-02-03T14:26:02.133Z,,,,,,,,,,,,,,,,,54,,,,,,,,,,,,,,385.5359998092754,,response,,,,100,,,,,,,Space,keypress(Space),,,,,,,,-- --- ---- --- ------ ----- ------- ---- -- --- ------- --<br>------- ---------- ------ In ----- -- ----- -- ---- ------<br>--- ----- --- --- ------ -------- ----- --- ------ ----- --<br>----- ----- ---------- --- --- ------ ------ ---- -- ------<br>------- --- ------ ----- --- ---- ------- -- ---- --- --<br>------- ------,240209.59999990463,240207.69999980927,239806.02,239819.79999995232,239822.164,240221.973,,15,In
screen,html.Screen,2_1_1_1_16,2022-02-03T14:26:02.564Z,,,,,,,,,,,,,,,,,54,,,,,,,,,,,,,,416.9269998569507,,response,,,,100,,,,,,,Space,keypress(Space),,,,,,,,"-- --- ---- --- ------ ----- ------- ---- -- --- ------- --<br>------- ---------- ------ -- 1727, -- ----- -- ---- ------<br>--- ----- --- --- ------ -------- ----- --- ------ ----- --<br>----- ----- ---------- --- --- ------ ------ ---- -- ------<br>------- --- ------ ----- --- ---- ------- -- ---- --- --<br>------- ------",240640.19999980927,240638.89999985695,240205.368,240209.89999985695,240221.973,240654.655,,16,"1727,"
screen,html.Screen,2_1_1_1_17,2022-02-03T14:26:03.209Z,,,,,,,,,,,,,,,,,54,,,,,,,,,,,,,,628.3450000000012,,response,,,,100,,,,,,,Space,keypress(Space),,,,,,,,-- --- ---- --- ------ ----- ------- ---- -- --- ------- --<br>------- ---------- ------ -- ----- in ----- -- ---- ------<br>--- ----- --- --- ------ -------- ----- --- ------ ----- --<br>----- ----- ---------- --- --- ------ ------ ---- -- ------<br>------- --- ------ ----- --- ---- ------- -- ---- --- --<br>------- ------,241285.69999980927,241283,240638.339,240640.59999990463,240654.655,241315.194,,17,in
screen,html.Screen,2_1_1_1_18,2022-02-03T14:26:03.550Z,,,,,,,,,,,,,,,,,54,,,,,,,,,,,,,,309.00599980927655,,response,,,,100,,,,,,,Space,keypress(Space),,,,,,,,-- --- ---- --- ------ ----- ------- ---- -- --- ------- --<br>------- ---------- ------ -- ----- -- order -- ---- ------<br>--- ----- --- --- ------ -------- ----- --- ------ ----- --<br>----- ----- ---------- --- --- ------ ------ ---- -- ------<br>------- --- ------ ----- --- ---- ------- -- ---- --- --<br>------- ------,241626.09999990463,241624.19999980927,241271.218,241286,241315.194,241636.916,,18,order
screen,html.Screen,2_1_1_1_19,2022-02-03T14:26:03.904Z,,,,,,,,,,,,,,,,,54,,,,,,,,,,,,,,341.38399995231885,,response,,,,100,,,,,,,Space,keypress(Space),,,,,,,,-- --- ---- --- ------ ----- ------- ---- -- --- ------- --<br>------- ---------- ------ -- ----- -- ----- to ---- ------<br>--- ----- --- --- ------ -------- ----- --- ------ ----- --<br>----- ----- ---------- --- --- ------ ------ ---- -- ------<br>------- --- ------ ----- --- ---- ------- -- ---- --- --<br>------- ------,241980.09999990463,241978.29999995232,241620.573,241626.39999985695,241636.916,241986.73,,19,to
screen,html.Screen,2_1_1_1_20,2022-02-03T14:26:04.263Z,,,,,,,,,,,,,,,,,54,,,,,,,,,,,,,,350.6699998569384,,response,,,,100,,,,,,,Space,keypress(Space),,,,,,,,-- --- ---- --- ------ ----- ------- ---- -- --- ------- --<br>------- ---------- ------ -- ----- -- ----- -- save ------<br>--- ----- --- --- ------ -------- ----- --- ------ ----- --<br>----- ----- ---------- --- --- ------ ------ ---- -- ------<br>------- --- ------ ----- --- ---- ------- -- ---- --- --<br>------- ------,242339.19999980927,242337.39999985695,241970.289,241980.39999985695,241986.73,242352.95,,20,save
screen,html.Screen,2_1_1_1_21,2022-02-03T14:26:04.615Z,,,,,,,,,,,,,,,,,54,,,,,,,,,,,,,,336.54999999998836,,response,,,,100,,,,,,,Space,keypress(Space),,,,,,,,"-- --- ---- --- ------ ----- ------- ---- -- --- ------- --<br>------- ---------- ------ -- ----- -- ----- -- ---- money,<br>--- ----- --- --- ------ -------- ----- --- ------ ----- --<br>----- ----- ---------- --- --- ------ ------ ---- -- ------<br>------- --- ------ ----- --- ---- ------- -- ---- --- --<br>------- ------",242691.29999995232,242689.5,242336.517,242339.39999985695,242352.95,242702.501,,21,"money,"
screen,html.Screen,2_1_1_1_22,2022-02-03T14:26:05.094Z,,,,,,,,,,,,,,,,,54,,,,,,,,,,,,,,465.798999952327,,response,,,,100,,,,,,,Space,keypress(Space),,,,,,,,-- --- ---- --- ------ ----- ------- ---- -- --- ------- --<br>------- ---------- ------ -- ----- -- ----- -- ---- ------<br>the ----- --- --- ------ -------- ----- --- ------ ----- --<br>----- ----- ---------- --- --- ------ ------ ---- -- ------<br>------- --- ------ ----- --- ---- ------- -- ---- --- --<br>------- ------,243170.09999990463,243168.29999995232,242686.152,242691.59999990463,242702.501,243185.387,,22,the
screen,html.Screen,2_1_1_1_23,2022-02-03T14:26:05.441Z,,,,,,,,,,,,,,,,,54,,,,,,,,,,,,,,330.01299985696096,,response,,,,100,,,,,,,Space,keypress(Space),,,,,,,,-- --- ---- --- ------ ----- ------- ---- -- --- ------- --<br>------- ---------- ------ -- ----- -- ----- -- ---- ------<br>--- state --- --- ------ -------- ----- --- ------ ----- --<br>----- ----- ---------- --- --- ------ ------ ---- -- ------<br>------- --- ------ ----- --- ---- ------- -- ---- --- --<br>------- ------,243517.39999985695,243515.39999985695,243169.138,243170.29999995232,243185.387,243535.05,,23,state
screen,html.Screen,2_1_1_1_24,2022-02-03T14:26:05.817Z,,,,,,,,,,,,,,,,,54,,,,,,,,,,,,,,356.3499998569605,,response,,,,100,,,,,,,Space,keypress(Space),,,,,,,,-- --- ---- --- ------ ----- ------- ---- -- --- ------- --<br>------- ---------- ------ -- ----- -- ----- -- ---- ------<br>--- ----- cut --- ------ -------- ----- --- ------ ----- --<br>----- ----- ---------- --- --- ------ ------ ---- -- ------<br>------- --- ------ ----- --- ---- ------- -- ---- --- --<br>------- ------,243893.19999980927,243891.39999985695,243502.038,243517.59999990463,243535.05,243901.339,,24,cut
screen,html.Screen,2_1_1_1_25,2022-02-03T14:26:06.192Z,,,,,,,,,,,,,,,,,54,,,,,,,,,,,,,,364.6609999999928,,response,,,,100,,,,,,,Space,keypress(Space),,,,,,,,-- --- ---- --- ------ ----- ------- ---- -- --- ------- --<br>------- ---------- ------ -- ----- -- ----- -- ---- ------<br>--- ----- --- the ------ -------- ----- --- ------ ----- --<br>----- ----- ---------- --- --- ------ ------ ---- -- ------<br>------- --- ------ ----- --- ---- ------- -- ---- --- --<br>------- ------,244268.09999990463,244266,243885.034,243893.39999985695,243901.339,244284.304,,25,the
screen,html.Screen,2_1_1_1_26,2022-02-03T14:26:06.553Z,,,,,,,,,,,,,,,,,54,,,,,,,,,,,,,,344.29599990462884,,response,,,,100,,,,,,,Space,keypress(Space),,,,,,,,-- --- ---- --- ------ ----- ------- ---- -- --- ------- --<br>------- ---------- ------ -- ----- -- ----- -- ---- ------<br>--- ----- --- --- bonds' -------- ----- --- ------ ----- --<br>----- ----- ---------- --- --- ------ ------ ---- -- ------<br>------- --- ------ ----- --- ---- ------- -- ---- --- --<br>------- ------,244629.39999985695,244628.59999990463,244267.944,244268.39999985695,244284.304,244633.945,,26,bonds'
screen,html.Screen,2_1_1_1_27,2022-02-03T14:26:07.031Z,,,,,,,,,,,,,,,,,54,,,,,,,,,,,,,,471.3549999523093,,response,,,,100,,,,,,,Space,keypress(Space),,,,,,,,-- --- ---- --- ------ ----- ------- ---- -- --- ------- --<br>------- ---------- ------ -- ----- -- ----- -- ---- ------<br>--- ----- --- --- ------ interest ----- --- ------ ----- --<br>----- ----- ---------- --- --- ------ ------ ---- -- ------<br>------- --- ------ ----- --- ---- ------- -- ---- --- --<br>------- ------,245107.09999990463,245105.29999995232,244617.624,244629.39999985695,244633.945,245116.794,,27,interest
screen,html.Screen,2_1_1_1_28,2022-02-03T14:26:07.484Z,,,,,,,,,,,,,,,,,54,,,,,,,,,,,,,,441.7060000000056,,response,,,,100,,,,,,,Space,keypress(Space),,,,,,,,-- --- ---- --- ------ ----- ------- ---- -- --- ------- --<br>------- ---------- ------ -- ----- -- ----- -- ---- ------<br>--- ----- --- --- ------ -------- rate. --- ------ ----- --<br>----- ----- ---------- --- --- ------ ------ ---- -- ------<br>------- --- ------ ----- --- ---- ------- -- ---- --- --<br>------- ------,245560.29999995232,245558.5,245100.656,245107.5,245116.794,245566.361,,28,rate.
screen,html.Screen,2_1_1_1_29,2022-02-03T14:26:08.101Z,,,,,,,,,,,,,,,,,54,,,,,,,,,,,,,,608.8389998092607,,response,,,,100,,,,,,,Space,keypress(Space),,,,,,,,-- --- ---- --- ------ ----- ------- ---- -- --- ------- --<br>------- ---------- ------ -- ----- -- ----- -- ---- ------<br>--- ----- --- --- ------ -------- ----- The ------ ----- --<br>----- ----- ---------- --- --- ------ ------ ---- -- ------<br>------- --- ------ ----- --- ---- ------- -- ---- --- --<br>------- ------,246177,246175.19999980927,245550.127,245560.59999990463,245566.361,246182.69,,29,The
screen,html.Screen,2_1_1_1_30,2022-02-03T14:26:08.555Z,,,,,,,,,,,,,,,,,54,,,,,,,,,,,,,,446.60999995231396,,response,,,,100,,,,,,,Space,keypress(Space),,,,,,,,-- --- ---- --- ------ ----- ------- ---- -- --- ------- --<br>------- ---------- ------ -- ----- -- ----- -- ---- ------<br>--- ----- --- --- ------ -------- ----- --- market ----- --<br>----- ----- ---------- --- --- ------ ------ ---- -- ------<br>------- --- ------ ----- --- ---- ------- -- ---- --- --<br>------- ------,246631.09999990463,246629.29999995232,246166.361,246177.19999980927,246182.69,246648.666,,30,market
screen,html.Screen,2_1_1_1_31,2022-02-03T14:26:09.005Z,,,,,,,,,,,,,,,,,54,,,,,,,,,,,,,,431.2339998569514,,response,,,,100,,,,,,,Space,keypress(Space),,,,,,,,-- --- ---- --- ------ ----- ------- ---- -- --- ------- --<br>------- ---------- ------ -- ----- -- ----- -- ---- ------<br>--- ----- --- --- ------ -------- ----- --- ------ value --<br>----- ----- ---------- --- --- ------ ------ ---- -- ------<br>------- --- ------ ----- --- ---- ------- -- ---- --- --<br>------- ------,247081.69999980927,247079.89999985695,246615.684,246631.39999985695,246648.666,247098.187,,31,value
screen,html.Screen,2_1_1_1_32,2022-02-03T14:26:09.359Z,,,,,,,,,,,,,,,,,54,,,,,,,,,,,,,,335.31299999999464,,response,,,,100,,,,,,,Space,keypress(Space),,,,,,,,-- --- ---- --- ------ ----- ------- ---- -- --- ------- --<br>------- ---------- ------ -- ----- -- ----- -- ---- ------<br>--- ----- --- --- ------ -------- ----- --- ------ ----- of<br>----- ----- ---------- --- --- ------ ------ ---- -- ------<br>------- --- ------ ----- --- ---- ------- -- ---- --- --<br>------- ------,247435.29999995232,247433.5,247081.907,247082,247098.187,247447.826,,32,of
screen,html.Screen,2_1_1_1_33,2022-02-03T14:26:09.743Z,,,,,,,,,,,,,,,,,54,,,,,,,,,,,,,,369.97399995231535,,response,,,,100,,,,,,,Space,keypress(Space),,,,,,,,-- --- ---- --- ------ ----- ------- ---- -- --- ------- --<br>------- ---------- ------ -- ----- -- ----- -- ---- ------<br>--- ----- --- --- ------ -------- ----- --- ------ ----- --<br>these ----- ---------- --- --- ------ ------ ---- -- ------<br>------- --- ------ ----- --- ---- ------- -- ---- --- --<br>------- ------,247819.59999990463,247817.79999995232,247431.51,247435.59999990463,247447.826,247830.758,,33,these
screen,html.Screen,2_1_1_1_34,2022-02-03T14:26:10.094Z,,,,,,,,,,,,,,,,,54,,,,,,,,,,,,,,337.84199990463094,,response,,,,100,,,,,,,Space,keypress(Space),,,,,,,,-- --- ---- --- ------ ----- ------- ---- -- --- ------- --<br>------- ---------- ------ -- ----- -- ----- -- ---- ------<br>--- ----- --- --- ------ -------- ----- --- ------ ----- --<br>----- bonds ---------- --- --- ------ ------ ---- -- ------<br>------- --- ------ ----- --- ---- ------- -- ---- --- --<br>------- ------,248170.59999990463,248168.59999990463,247814.484,247819.89999985695,247830.758,248180.522,,34,bonds
screen,html.Screen,2_1_1_1_35,2022-02-03T14:26:10.762Z,,,,,,,,,,,,,,,,,54,,,,,,,,,,,,,,655.8779998569516,,response,,,,100,,,,,,,Space,keypress(Space),,,,,,,,"-- --- ---- --- ------ ----- ------- ---- -- --- ------- --<br>------- ---------- ------ -- ----- -- ----- -- ---- ------<br>--- ----- --- --- ------ -------- ----- --- ------ ----- --<br>----- ----- plummeted, --- --- ------ ------ ---- -- ------<br>------- --- ------ ----- --- ---- ------- -- ---- --- --<br>------- ------",248838.39999985695,248836.39999985695,248164.057,248170.79999995232,248180.522,248846.59,,35,"plummeted,"
screen,html.Screen,2_1_1_1_36,2022-02-03T14:26:11.172Z,,,,,,,,,,,,,,,,,54,,,,,,,,,,,,,,399.4100000000035,,response,,,,100,,,,,,,Space,keypress(Space),,,,,,,,-- --- ---- --- ------ ----- ------- ---- -- --- ------- --<br>------- ---------- ------ -- ----- -- ----- -- ---- ------<br>--- ----- --- --- ------ -------- ----- --- ------ ----- --<br>----- ----- ---------- and --- ------ ------ ---- -- ------<br>------- --- ------ ----- --- ---- ------- -- ---- --- --<br>------- ------,249247.89999985695,249246,248830.42,248838.59999990463,248846.59,249262.69,,36,and
screen,html.Screen,2_1_1_1_37,2022-02-03T14:26:11.546Z,,,,,,,,,,,,,,,,,54,,,,,,,,,,,,,,357.10999995231396,,response,,,,100,,,,,,,Space,keypress(Space),,,,,,,,-- --- ---- --- ------ ----- ------- ---- -- --- ------- --<br>------- ---------- ------ -- ----- -- ----- -- ---- ------<br>--- ----- --- --- ------ -------- ----- --- ------ ----- --<br>----- ----- ---------- --- the ------ ------ ---- -- ------<br>------- --- ------ ----- --- ---- ------- -- ---- --- --<br>------- ------,249621.69999980927,249619.79999995232,249246.433,249248.09999990463,249262.69,249629.132,,37,the
screen,html.Screen,2_1_1_1_38,2022-02-03T14:26:12.021Z,,,,,,,,,,,,,,,,,54,,,,,,,,,,,,,,466.2679998569365,,response,,,,100,,,,,,,Space,keypress(Space),,,,,,,,-- --- ---- --- ------ ----- ------- ---- -- --- ------- --<br>------- ---------- ------ -- ----- -- ----- -- ---- ------<br>--- ----- --- --- ------ -------- ----- --- ------ ----- --<br>----- ----- ---------- --- --- market ------ ---- -- ------<br>------- --- ------ ----- --- ---- ------- -- ---- --- --<br>------- ------,250097.29999995232,250095.39999985695,249612.662,249622,249629.132,250111.827,,38,market
screen,html.Screen,2_1_1_1_39,2022-02-03T14:26:12.477Z,,,,,,,,,,,,,,,,,54,,,,,,,,,,,,,,439.27299990464235,,response,,,,100,,,,,,,Space,keypress(Space),,,,,,,,-- --- ---- --- ------ ----- ------- ---- -- --- ------- --<br>------- ---------- ------ -- ----- -- ----- -- ---- ------<br>--- ----- --- --- ------ -------- ----- --- ------ ----- --<br>----- ----- ---------- --- --- ------ became ---- -- ------<br>------- --- ------ ----- --- ---- ------- -- ---- --- --<br>------- ------,250552.89999985695,250551.09999990463,250095.6,250097.5,250111.827,250561.381,,39,became
screen,html.Screen,2_1_1_1_40,2022-02-03T14:26:12.871Z,,,,,,,,,,,,,,,,,54,,,,,,,,,,,,,,383.7189999046386,,response,,,,100,,,,,,,Space,keypress(Space),,,,,,,,-- --- ---- --- ------ ----- ------- ---- -- --- ------- --<br>------- ---------- ------ -- ----- -- ----- -- ---- ------<br>--- ----- --- --- ------ -------- ----- --- ------ ----- --<br>----- ----- ---------- --- --- ------ ------ wary -- ------<br>------- --- ------ ----- --- ---- ------- -- ---- --- --<br>------- ------,250947,250945.09999990463,250545.181,250553.19999980927,250561.381,250961.075,,40,wary
screen,html.Screen,2_1_1_1_41,2022-02-03T14:26:13.270Z,,,,,,,,,,,,,,,,,54,,,,,,,,,,,,,,383.1249998092535,,response,,,,100,,,,,,,Space,keypress(Space),,,,,,,,-- --- ---- --- ------ ----- ------- ---- -- --- ------- --<br>------- ---------- ------ -- ----- -- ----- -- ---- ------<br>--- ----- --- --- ------ -------- ----- --- ------ ----- --<br>----- ----- ---------- --- --- ------ ------ ---- of ------<br>------- --- ------ ----- --- ---- ------- -- ---- --- --<br>------- ------,251346.09999990463,251344.19999980927,250944.737,250947.29999995232,250961.075,251360.618,,41,of
screen,html.Screen,2_1_1_1_42,2022-02-03T14:26:13.640Z,,,,,,,,,,,,,,,,,54,,,,,,,,,,,,,,353.7819998569612,,response,,,,100,,,,,,,Space,keypress(Space),,,,,,,,-- --- ---- --- ------ ----- ------- ---- -- --- ------- --<br>------- ---------- ------ -- ----- -- ----- -- ---- ------<br>--- ----- --- --- ------ -------- ----- --- ------ ----- --<br>----- ----- ---------- --- --- ------ ------ ---- -- French<br>------- --- ------ ----- --- ---- ------- -- ---- --- --<br>------- ------,251716.19999980927,251714.39999985695,251344.327,251346.29999995232,251360.618,251727.02,,42,French
screen,html.Screen,2_1_1_1_43,2022-02-03T14:26:14.078Z,,,,,,,,,,,,,,,,,54,,,,,,,,,,,,,,425.37999985695933,,response,,,,100,,,,,,,Space,keypress(Space),,,,,,,,-- --- ---- --- ------ ----- ------- ---- -- --- ------- --<br>------- ---------- ------ -- ----- -- ----- -- ---- ------<br>--- ----- --- --- ------ -------- ----- --- ------ ----- --<br>----- ----- ---------- --- --- ------ ------ ---- -- ------<br>credit. --- ------ ----- --- ---- ------- -- ---- --- --<br>------- ------,252154.29999995232,252152.39999985695,251710.598,251716.39999985695,251727.02,252159.953,,43,credit.
screen,html.Screen,2_1_1_1_44,2022-02-03T14:26:14.094Z,,,,,,,,,,,,,,,,,54,,,,,,,,,,,,,,9.84699995230767,,response,,,,100,,,,,,,Space,keypress(Space),,,,,,,,-- --- ---- --- ------ ----- ------- ---- -- --- ------- --<br>------- ---------- ------ -- ----- -- ----- -- ---- ------<br>--- ----- --- --- ------ -------- ----- --- ------ ----- --<br>----- ----- ---------- --- --- ------ ------ ---- -- ------<br>------- The ------ ----- --- ---- ------- -- ---- --- --<br>------- ------,252170.59999990463,252169.79999995232,252143.562,252154.5,252159.953,252193.115,,44,The
screen,html.Screen,2_1_1_1_45,2022-02-03T14:26:15.027Z,,,,,,,,,,,,,,,,,54,,,,,,,,,,,,,,908.7849998569582,,response,,,,100,,,,,,,Space,keypress(Space),,,,,,,,-- --- ---- --- ------ ----- ------- ---- -- --- ------- --<br>------- ---------- ------ -- ----- -- ----- -- ---- ------<br>--- ----- --- --- ------ -------- ----- --- ------ ----- --<br>----- ----- ---------- --- --- ------ ------ ---- -- ------<br>------- --- French ----- --- ---- ------- -- ---- --- --<br>------- ------,253103.69999980927,253101.89999985695,252176.541,252170.59999990463,252193.115,253108.961,,45,French
screen,html.Screen,2_1_1_1_46,2022-02-03T14:26:15.729Z,,,,,,,,,,,,,,,,,54,,,,,,,,,,,,,,694.7389998092549,,response,,,,100,,,,,,,Space,keypress(Space),,,,,,,,-- --- ---- --- ------ ----- ------- ---- -- --- ------- --<br>------- ---------- ------ -- ----- -- ----- -- ---- ------<br>--- ----- --- --- ------ -------- ----- --- ------ ----- --<br>----- ----- ---------- --- --- ------ ------ ---- -- ------<br>------- --- ------ state --- ---- ------- -- ---- --- --<br>------- ------,253805.69999980927,253803.69999980927,253093.092,253103.89999985695,253108.961,253808.317,,46,state
screen,html.Screen,2_1_1_1_47,2022-02-03T14:26:16.196Z,,,,,,,,,,,,,,,,,54,,,,,,,,,,,,,,461.8829998092551,,response,,,,100,,,,,,,Space,keypress(Space),,,,,,,,-- --- ---- --- ------ ----- ------- ---- -- --- ------- --<br>------- ---------- ------ -- ----- -- ----- -- ---- ------<br>--- ----- --- --- ------ -------- ----- --- ------ ----- --<br>----- ----- ---------- --- --- ------ ------ ---- -- ------<br>------- --- ------ ----- was ---- ------- -- ---- --- --<br>------- ------,254272,254270.19999980927,253792.141,253805.89999985695,253808.317,254274.482,,47,was
screen,html.Screen,2_1_1_1_48,2022-02-03T14:26:16.575Z,,,,,,,,,,,,,,,,,54,,,,,,,,,,,,,,376.2179998092761,,response,,,,100,,,,,,,Space,keypress(Space),,,,,,,,-- --- ---- --- ------ ----- ------- ---- -- --- ------- --<br>------- ---------- ------ -- ----- -- ----- -- ---- ------<br>--- ----- --- --- ------ -------- ----- --- ------ ----- --<br>----- ----- ---------- --- --- ------ ------ ---- -- ------<br>------- --- ------ ----- --- left ------- -- ---- --- --<br>------- ------,254651.5,254650.69999980927,254258.121,254272.29999995232,254274.482,254657.324,,48,left
screen,html.Screen,2_1_1_1_49,2022-02-03T14:26:16.975Z,,,,,,,,,,,,,,,,,54,,,,,,,,,,,,,,392.2759999046393,,response,,,,100,,,,,,,Space,keypress(Space),,,,,,,,-- --- ---- --- ------ ----- ------- ---- -- --- ------- --<br>------- ---------- ------ -- ----- -- ----- -- ---- ------<br>--- ----- --- --- ------ -------- ----- --- ------ ----- --<br>----- ----- ---------- --- --- ------ ------ ---- -- ------<br>------- --- ------ ----- --- ---- without -- ---- --- --<br>------- ------,255051.5,255049.59999990463,254641.044,254651.69999980927,254657.324,255057.079,,49,without
screen,html.Screen,2_1_1_1_50,2022-02-03T14:26:17.351Z,,,,,,,,,,,,,,,,,54,,,,,,,,,,,,,,368.52099990463466,,response,,,,100,,,,,,,Space,keypress(Space),,,,,,,,-- --- ---- --- ------ ----- ------- ---- -- --- ------- --<br>------- ---------- ------ -- ----- -- ----- -- ---- ------<br>--- ----- --- --- ------ -------- ----- --- ------ ----- --<br>----- ----- ---------- --- --- ------ ------ ---- -- ------<br>------- --- ------ ----- --- ---- ------- an ---- --- --<br>------- ------,255427.39999985695,255425.59999990463,255040.672,255051.69999980927,255057.079,255439.932,,50,an
screen,html.Screen,2_1_1_1_51,2022-02-03T14:26:17.739Z,,,,,,,,,,,,,,,,,54,,,,,,,,,,,,,,373.76799980926444,,response,,,,100,,,,,,,Space,keypress(Space),,,,,,,,-- --- ---- --- ------ ----- ------- ---- -- --- ------- --<br>------- ---------- ------ -- ----- -- ----- -- ---- ------<br>--- ----- --- --- ------ -------- ----- --- ------ ----- --<br>----- ----- ---------- --- --- ------ ------ ---- -- ------<br>------- --- ------ ----- --- ---- ------- -- easy --- --<br>------- ------,255815.59999990463,255813.69999980927,255423.546,255427.79999995232,255439.932,255822.939,,51,easy
screen,html.Screen,2_1_1_1_52,2022-02-03T14:26:18.161Z,,,,,,,,,,,,,,,,,54,,,,,,,,,,,,,,412.4609998569358,,response,,,,100,,,,,,,Space,keypress(Space),,,,,,,,-- --- ---- --- ------ ----- ------- ---- -- --- ------- --<br>------- ---------- ------ -- ----- -- ----- -- ---- ------<br>--- ----- --- --- ------ -------- ----- --- ------ ----- --<br>----- ----- ---------- --- --- ------ ------ ---- -- ------<br>------- --- ------ ----- --- ---- ------- -- ---- way --<br>------- ------,256237.19999980927,256235.39999985695,255806.516,255815.89999985695,255822.939,256239.226,,52,way
screen,html.Screen,2_1_1_1_53,2022-02-03T14:26:18.547Z,,,,,,,,,,,,,,,,,54,,,,,,,,,,,,,,381.7740000000049,,response,,,,100,,,,,,,Space,keypress(Space),,,,,,,,-- --- ---- --- ------ ----- ------- ---- -- --- ------- --<br>------- ---------- ------ -- ----- -- ----- -- ---- ------<br>--- ----- --- --- ------ -------- ----- --- ------ ----- --<br>----- ----- ---------- --- --- ------ ------ ---- -- ------<br>------- --- ------ ----- --- ---- ------- -- ---- --- of<br>------- ------,256622.89999985695,256621,256222.845,256237.39999985695,256239.226,256638.688,,53,of
screen,html.Screen,2_1_1_1_54,2022-02-03T14:26:19.345Z,,,,,,,,,,,,,,,,,54,,,,,,,,,,,,,,780.5119998092705,,response,,,,100,,,,,,,Space,keypress(Space),,,,,,,,-- --- ---- --- ------ ----- ------- ---- -- --- ------- --<br>------- ---------- ------ -- ----- -- ----- -- ---- ------<br>--- ----- --- --- ------ -------- ----- --- ------ ----- --<br>----- ----- ---------- --- --- ------ ------ ---- -- ------<br>------- --- ------ ----- --- ---- ------- -- ---- --- --<br>raising ------,257421,257419.19999980927,256622.368,256623.09999990463,256638.688,257454.563,,54,raising
screen,html.Screen,2_1_1_1_55,2022-02-03T14:26:20.931Z,,,,,,,,,,,,,,,,,54,,,,,,,,,,,,,,1551.2369999523216,,response,,,,100,,,,,,,Space,keypress(Space),,,,,,,,-- --- ---- --- ------ ----- ------- ---- -- --- ------- --<br>------- ---------- ------ -- ----- -- ----- -- ---- ------<br>--- ----- --- --- ------ -------- ----- --- ------ ----- --<br>----- ----- ---------- --- --- ------ ------ ---- -- ------<br>------- --- ------ ----- --- ---- ------- -- ---- --- --<br>------- money.,259007.59999990463,259005.79999995232,257437.926,257421.39999985695,257454.563,259019.735,,55,money.
Item 100,flow.Loop,2_1_1_1,2022-02-03T14:26:20.932Z,,,,,,,,,,,,,,,,,,,,,,,,,,,,,,,26459.870999952313,,completion,,,,,A,,,,,,,,,,,silence,,,,,259008.19999980927,259005.79999995232,232529.347,232530.59999990463,232545.929,259019.735,,,
Question 1,html.Screen,2_1_1_2,2022-02-03T14:26:24.879Z,,,,,,,,,,,,,,,,,,,,,,,,,,,,true,TRUE,,3933.3649999046465,,response,,,,100,A,,,,,,TRUE,click #choice-1,,,,silence,,,,,262955.19999980927,262953.09999990463,259004.54,259008.39999985695,259019.735,262965.856,,,
Question 2,html.Screen,2_1_1_3,2022-02-03T14:26:28.919Z,,,,,,,,,,,,,,,,,,,,,,,,,,,,false,FALSE,,4028.2439999046037,,response,,,,100,A,,,,,,TRUE,click #choice-1,,,,silence,,,,,266995,266994.09999990463,262949.27,262955.5,262965.856,267011.787,,,
Item 100,flow.Sequence,2_1_1,2022-02-03T14:26:28.920Z,,,,,,,,,,,,,,,,,,,,,,,,,,,,,,,44454.838999904634,,completion,,,,,,,,,,,,,,,,,,,,,266995.69999980927,266994.09999990463,222522.748,222526.39999985695,222539.261,267011.787,,,
End of Practice,html.Page,2_1_2,2022-02-03T14:26:34.976Z,,,,,,,,,,,,,,,,,,,,,,,,,,,,,,,6039.912999809254,,form submission,,,,,,,,,,,,,,,,,,,,,273052.19999980927,273051.69999980927,266995.182,266995.89999985695,267011.787,273055.899,,,
Practice,flow.Sequence,2_1,2022-02-03T14:26:34.976Z,,,,,,,,,,,,,,,,,,,,,,,,,,,,,,,111968.14799980927,,completion,,,,,,,,,,,,,,,,,,,,,273052.59999990463,273051.69999980927,161067.056,161078,161083.552,273055.899,,,
Trap_instruction,html.Page,2_2_0,2022-02-03T14:26:41.093Z,,,,,,,,,,,,,,,,,,,,,,,,,,,,,,,6113.101000000024,,form submission,,,,,,,,,,,,,,,,,,,,,279169.5,279169,273039.283,273053,273055.899,279199.738,,,
trap_trial,html.Screen,2_2_1,2022-02-03T14:26:44.705Z,,,,,,,,,,,,,,,,,,,,,,,,,,,,true,1,,3578.261999999988,,response,,,,,,,,,,,1,click #choice-1,,,,,,,,,282781.69999980927,282778,279166.532,279169.69999980927,279199.738,282808.267,,,
end of trap trial,html.Page,2_2_2,2022-02-03T14:26:47.050Z,,,,,,,,,,,,,,,,,,,,,,,,,,,,,,,2317.2330000000075,,form submission,,,,,,,,,,,,,,,,,,,,,285125.89999985695,285125.5,282762.966,282781.89999985695,282808.267,285127.198,,,
Trap 1,flow.Sequence,2_2,2022-02-03T14:26:47.050Z,,,,,,,,,,,,,,,,,,,,,,,,,,,,,,,12069.601000000024,,completion,,,,,,,,,,,,,,,,,,,,,285126.19999980927,285125.5,273039.283,273052.7999999523,273055.899,285127.198,,,
Standby,html.Page,2_3_0,2022-02-03T14:26:55.027Z,,,,,,,,,,,,,,,,,,,,,,,,,,,,,,,7992.007000000041,,timeout,,,,,,,,,,,,,,,,,,,,,293103.5,293102.624,285110.615,285126.39999985695,285127.198,293119.205,,,
Holding screen,html.Screen,2_3_1_0_0,2022-02-03T14:27:02.020Z,,,,,,,,,,,,,,,,,,,,,,,,,,,,,,,6993.023999999976,,timeout,,,,,,,,,,,,,,,,,,,,,300096.2999999523,300095.648,293102.624,293103.89999985695,293119.205,300112.229,,,
screen,html.Screen,2_3_1_0_1_0,2022-02-03T14:27:02.668Z,,,,,,,,,,,,,,,,,51,,,,,,,,,,,,,,629.5709999523242,,response,,,,13,A,,,,,,Space,keypress(Space),,,,silence,,,,American -------- --- --- ---- --- --- ------ -- --------<br>---- --------- --- ------- ------------ ---------- ---------<br>--- ---------- ------- ---------- ------- -- -------- ----<br>---- --- ------ ----- ------ -- ---- --- ----- -- - -------<br>-------- -- --- --- -- ----- ----------- ----- -----------<br>---- --- ---------- --- ---- --- -- ----------,300743.89999985695,300741.7999999523,300095.648,300096.39999985695,300112.229,300745.042,,0,American
screen,html.Screen,2_3_1_0_1_1,2022-02-03T14:27:03.128Z,,,,,,,,,,,,,,,,,51,,,,,,,,,,,,,,457.55799990461674,,response,,,,13,A,,,,,,Space,keypress(Space),,,,silence,,,,-------- industry --- --- ---- --- --- ------ -- --------<br>---- --------- --- ------- ------------ ---------- ---------<br>--- ---------- ------- ---------- ------- -- -------- ----<br>---- --- ------ ----- ------ -- ---- --- ----- -- - -------<br>-------- -- --- --- -- ----- ----------- ----- -----------<br>---- --- ---------- --- ---- --- -- ----------,301204.19999980927,301202.59999990463,300728.861,300744.09999990463,300745.042,301211.322,,1,industry
screen,html.Screen,2_3_1_0_1_2,2022-02-03T14:27:03.601Z,,,,,,,,,,,,,,,,,51,,,,,,,,,,,,,,463.8779998092796,,response,,,,13,A,,,,,,Space,keypress(Space),,,,silence,,,,-------- -------- may --- ---- --- --- ------ -- --------<br>---- --------- --- ------- ------------ ---------- ---------<br>--- ---------- ------- ---------- ------- -- -------- ----<br>---- --- ------ ----- ------ -- ---- --- ----- -- - -------<br>-------- -- --- --- -- ----- ----------- ----- -----------<br>---- --- ---------- --- ---- --- -- ----------,301677,301675.19999980927,301194.883,301204.5,301211.322,301694.009,,2,may
screen,html.Screen,2_3_1_0_1_3,2022-02-03T14:27:04.009Z,,,,,,,,,,,,,,,,,51,,,,,,,,,,,,,,389.29099995229626,,response,,,,13,A,,,,,,Space,keypress(Space),,,,silence,,,,-------- -------- --- not ---- --- --- ------ -- --------<br>---- --------- --- ------- ------------ ---------- ---------<br>--- ---------- ------- ---------- ------- -- -------- ----<br>---- --- ------ ----- ------ -- ---- --- ----- -- - -------<br>-------- -- --- --- -- ----- ----------- ----- -----------<br>---- --- ---------- --- ---- --- -- ----------,302085,302083.2999999523,301677.808,301677.19999980927,301694.009,302093.773,,3,not
screen,html.Screen,2_3_1_0_1_4,2022-02-03T14:27:04.368Z,,,,,,,,,,,,,,,,,51,,,,,,,,,,,,,,348.62699985696236,,response,,,,13,A,,,,,,Space,keypress(Space),,,,silence,,,,-------- -------- --- --- know --- --- ------ -- --------<br>---- --------- --- ------- ------------ ---------- ---------<br>--- ---------- ------- ---------- ------- -- -------- ----<br>---- --- ------ ----- ------ -- ---- --- ----- -- - -------<br>-------- -- --- --- -- ----- ----------- ----- -----------<br>---- --- ---------- --- ---- --- -- ----------,302444.09999990463,302442.39999985695,302077.366,302085.19999980927,302093.773,302459.924,,4,know
screen,html.Screen,2_3_1_0_1_5,2022-02-03T14:27:04.716Z,,,,,,,,,,,,,,,,,51,,,,,,,,,,,,,,330.6759999046335,,response,,,,13,A,,,,,,Space,keypress(Space),,,,silence,,,,"-------- -------- --- --- ---- it, --- ------ -- --------<br>---- --------- --- ------- ------------ ---------- ---------<br>--- ---------- ------- ---------- ------- -- -------- ----<br>---- --- ------ ----- ------ -- ---- --- ----- -- - -------<br>-------- -- --- --- -- ----- ----------- ----- -----------<br>---- --- ---------- --- ---- --- -- ----------",302792.19999980927,302790.59999990463,302443.545,302444.2999999523,302459.924,302826.28,,5,"it,"
screen,html.Screen,2_3_1_0_1_6,2022-02-03T14:27:05.225Z,,,,,,,,,,,,,,,,,51,,,,,,,,,,,,,,474.6199998569209,,response,,,,13,A,,,,,,Space,keypress(Space),,,,silence,,,,-------- -------- --- --- ---- --- but ------ -- --------<br>---- --------- --- ------- ------------ ---------- ---------<br>--- ---------- ------- ---------- ------- -- -------- ----<br>---- --- ------ ----- ------ -- ---- --- ----- -- - -------<br>-------- -- --- --- -- ----- ----------- ----- -----------<br>---- --- ---------- --- ---- --- -- ----------,303301.69999980927,303300.89999985695,302809.576,302792.39999985695,302826.28,303309.059,,6,but
screen,html.Screen,2_3_1_0_1_7,2022-02-03T14:27:05.554Z,,,,,,,,,,,,,,,,,51,,,,,,,,,,,,,,319.64099980925675,,response,,,,13,A,,,,,,Space,keypress(Space),,,,silence,,,,-------- -------- --- --- ---- --- --- debate -- --------<br>---- --------- --- ------- ------------ ---------- ---------<br>--- ---------- ------- ---------- ------- -- -------- ----<br>---- --- ------ ----- ------ -- ---- --- ----- -- - -------<br>-------- -- --- --- -- ----- ----------- ----- -----------<br>---- --- ---------- --- ---- --- -- ----------,303630.2999999523,303628.69999980927,303292.81,303301.7999999523,303309.059,303642.397,,7,debate
screen,html.Screen,2_3_1_0_1_8,2022-02-03T14:27:05.926Z,,,,,,,,,,,,,,,,,51,,,,,,,,,,,,,,358.70299990463536,,response,,,,13,A,,,,,,Space,keypress(Space),,,,silence,,,,-------- -------- --- --- ---- --- --- ------ in --------<br>---- --------- --- ------- ------------ ---------- ---------<br>--- ---------- ------- ---------- ------- -- -------- ----<br>---- --- ------ ----- ------ -- ---- --- ----- -- - -------<br>-------- -- --- --- -- ----- ----------- ----- -----------<br>---- --- ---------- --- ---- --- -- ----------,304002.59999990463,304001.09999990463,303625.722,303630.5,303642.397,304008.527,,8,in
screen,html.Screen,2_3_1_0_1_9,2022-02-03T14:27:06.305Z,,,,,,,,,,,,,,,,,51,,,,,,,,,,,,,,370.6729998092633,,response,,,,13,A,,,,,,Space,keypress(Space),,,,silence,,,,-------- -------- --- --- ---- --- --- ------ -- Congress<br>---- --------- --- ------- ------------ ---------- ---------<br>--- ---------- ------- ---------- ------- -- -------- ----<br>---- --- ------ ----- ------ -- ---- --- ----- -- - -------<br>-------- -- --- --- -- ----- ----------- ----- -----------<br>---- --- ---------- --- ---- --- -- ----------,304380.7999999523,304379.19999980927,303992.002,304002.89999985695,304008.527,304391.404,,9,Congress
screen,html.Screen,2_3_1_0_1_10,2022-02-03T14:27:06.731Z,,,,,,,,,,,,,,,,,51,,,,,,,,,,,,,,414.4959998569684,,response,,,,13,A,,,,,,Space,keypress(Space),,,,silence,,,,-------- -------- --- --- ---- --- --- ------ -- --------<br>over --------- --- ------- ------------ ---------- ---------<br>--- ---------- ------- ---------- ------- -- -------- ----<br>---- --- ------ ----- ------ -- ---- --- ----- -- - -------<br>-------- -- --- --- -- ----- ----------- ----- -----------<br>---- --- ---------- --- ---- --- -- ----------,304807.5,304805.89999985695,304375.041,304381.09999990463,304391.404,304824.249,,10,over
screen,html.Screen,2_3_1_0_1_11,2022-02-03T14:27:07.118Z,,,,,,,,,,,,,,,,,51,,,,,,,,,,,,,,368.2509999999893,,response,,,,13,A,,,,,,Space,keypress(Space),,,,silence,,,,-------- -------- --- --- ---- --- --- ------ -- --------<br>---- reforming --- ------- ------------ ---------- ---------<br>--- ---------- ------- ---------- ------- -- -------- ----<br>---- --- ------ ----- ------ -- ---- --- ----- -- - -------<br>-------- -- --- --- -- ----- ----------- ----- -----------<br>---- --- ---------- --- ---- --- -- ----------,305194,305192.5,304807.945,304807.89999985695,304824.249,305207.164,,11,reforming
screen,html.Screen,2_3_1_0_1_12,2022-02-03T14:27:07.503Z,,,,,,,,,,,,,,,,,51,,,,,,,,,,,,,,370.0359998092754,,response,,,,13,A,,,,,,Space,keypress(Space),,,,silence,,,,-------- -------- --- --- ---- --- --- ------ -- --------<br>---- --------- the ------- ------------ ---------- ---------<br>--- ---------- ------- ---------- ------- -- -------- ----<br>---- --- ------ ----- ------ -- ---- --- ----- -- - -------<br>-------- -- --- --- -- ----- ----------- ----- -----------<br>---- --- ---------- --- ---- --- -- ----------,305579,305577.19999980927,305190.89,305194.19999980927,305207.164,305590.241,,12,the
screen,html.Screen,2_3_1_0_1_13,2022-02-03T14:27:07.864Z,,,,,,,,,,,,,,,,,51,,,,,,,,,,,,,,348.45899980928516,,response,,,,13,A,,,,,,Space,keypress(Space),,,,silence,,,,-------- -------- --- --- ---- --- --- ------ -- --------<br>---- --------- --- federal ------------ ---------- ---------<br>--- ---------- ------- ---------- ------- -- -------- ----<br>---- --- ------ ----- ------ -- ---- --- ----- -- - -------<br>-------- -- --- --- -- ----- ----------- ----- -----------<br>---- --- ---------- --- ---- --- -- ----------,305940.59999990463,305938.69999980927,305573.849,305579.2999999523,305590.241,305956.547,,13,federal
screen,html.Screen,2_3_1_0_1_14,2022-02-03T14:27:08.310Z,,,,,,,,,,,,,,,,,51,,,,,,,,,,,,,,427.4529999999795,,response,,,,13,A,,,,,,Space,keypress(Space),,,,silence,,,,-------- -------- --- --- ---- --- --- ------ -- --------<br>---- --------- --- ------- government's ---------- ---------<br>--- ---------- ------- ---------- ------- -- -------- ----<br>---- --- ------ ----- ------ -- ---- --- ----- -- - -------<br>-------- -- --- --- -- ----- ----------- ----- -----------<br>---- --- ---------- --- ---- --- -- ----------,306385.7999999523,306384,305940.136,305940.89999985695,305956.547,306389.471,,14,government's
screen,html.Screen,2_3_1_0_1_15,2022-02-03T14:27:08.786Z,,,,,,,,,,,,,,,,,51,,,,,,,,,,,,,,472.02899999998044,,response,,,,13,A,,,,,,Space,keypress(Space),,,,silence,,,,-------- -------- --- --- ---- --- --- ------ -- --------<br>---- --------- --- ------- ------------ regulatory ---------<br>--- ---------- ------- ---------- ------- -- -------- ----<br>---- --- ------ ----- ------ -- ---- --- ----- -- - -------<br>-------- -- --- --- -- ----- ----------- ----- -----------<br>---- --- ---------- --- ---- --- -- ----------,306862.2999999523,306861.5,306373.096,306386.09999990463,306389.471,306872.228,,15,regulatory
screen,html.Screen,2_3_1_0_1_16,2022-02-03T14:27:09.278Z,,,,,,,,,,,,,,,,,51,,,,,,,,,,,,,,480.7719999999972,,response,,,,13,A,,,,,,Space,keypress(Space),,,,silence,,,,-------- -------- --- --- ---- --- --- ------ -- --------<br>---- --------- --- ------- ------------ ---------- apparatus<br>--- ---------- ------- ---------- ------- -- -------- ----<br>---- --- ------ ----- ------ -- ---- --- ----- -- - -------<br>-------- -- --- --- -- ----- ----------- ----- -----------<br>---- --- ---------- --- ---- --- -- ----------,307354.59999990463,307353,306855.941,306862.5,306872.228,307388.359,,16,apparatus
screen,html.Screen,2_3_1_0_1_17,2022-02-03T14:27:09.708Z,,,,,,,,,,,,,,,,,51,,,,,,,,,,,,,,394.0409998569521,,response,,,,13,A,,,,,,Space,keypress(Space),,,,silence,,,,-------- -------- --- --- ---- --- --- ------ -- --------<br>---- --------- --- ------- ------------ ---------- ---------<br>may ---------- ------- ---------- ------- -- -------- ----<br>---- --- ------ ----- ------ -- ---- --- ----- -- - -------<br>-------- -- --- --- -- ----- ----------- ----- -----------<br>---- --- ---------- --- ---- --- -- ----------,307784.2999999523,307782.39999985695,307371.737,307354.89999985695,307388.359,307788.094,,17,may
screen,html.Screen,2_3_1_0_1_18,2022-02-03T14:27:10.030Z,,,,,,,,,,,,,,,,,51,,,,,,,,,,,,,,316.5059999046498,,response,,,,13,A,,,,,,Space,keypress(Space),,,,silence,,,,-------- -------- --- --- ---- --- --- ------ -- --------<br>---- --------- --- ------- ------------ ---------- ---------<br>--- profoundly ------- ---------- ------- -- -------- ----<br>---- --- ------ ----- ------ -- ---- --- ----- -- - -------<br>-------- -- --- --- -- ----- ----------- ----- -----------<br>---- --- ---------- --- ---- --- -- ----------,308106.39999985695,308104.59999990463,307771.672,307784.59999990463,307788.094,308120.987,,18,profoundly
screen,html.Screen,2_3_1_0_1_19,2022-02-03T14:27:10.558Z,,,,,,,,,,,,,,,,,51,,,,,,,,,,,,,,512.1129999046098,,response,,,,13,A,,,,,,Space,keypress(Space),,,,silence,,,,-------- -------- --- --- ---- --- --- ------ -- --------<br>---- --------- --- ------- ------------ ---------- ---------<br>--- ---------- improve ---------- ------- -- -------- ----<br>---- --- ------ ----- ------ -- ---- --- ----- -- - -------<br>-------- -- --- --- -- ----- ----------- ----- -----------<br>---- --- ---------- --- ---- --- -- ----------,308634.19999980927,308633.09999990463,308104.564,308106.69999980927,308120.987,308637.144,,19,improve
screen,html.Screen,2_3_1_0_1_20,2022-02-03T14:27:11.188Z,,,,,,,,,,,,,,,,,51,,,,,,,,,,,,,,624.7559998569777,,response,,,,13,A,,,,,,Space,keypress(Space),,,,silence,,,,-------- -------- --- --- ---- --- --- ------ -- --------<br>---- --------- --- ------- ------------ ---------- ---------<br>--- ---------- ------- companies' ------- -- -------- ----<br>---- --- ------ ----- ------ -- ---- --- ----- -- - -------<br>-------- -- --- --- -- ----- ----------- ----- -----------<br>---- --- ---------- --- ---- --- -- ----------,309263.7999999523,309261.89999985695,308620.946,308634.2999999523,308637.144,309269.868,,20,companies'
screen,html.Screen,2_3_1_0_1_21,2022-02-03T14:27:11.622Z,,,,,,,,,,,,,,,,,51,,,,,,,,,,,,,,426.13199999998324,,response,,,,13,A,,,,,,Space,keypress(Space),,,,silence,,,,-------- -------- --- --- ---- --- --- ------ -- --------<br>---- --------- --- ------- ------------ ---------- ---------<br>--- ---------- ------- ---------- ability -- -------- ----<br>---- --- ------ ----- ------ -- ---- --- ----- -- - -------<br>-------- -- --- --- -- ----- ----------- ----- -----------<br>---- --- ---------- --- ---- --- -- ----------,309697.7999999523,309696,309253.754,309264,309269.868,309702.764,,21,ability
screen,html.Screen,2_3_1_0_1_22,2022-02-03T14:27:11.991Z,,,,,,,,,,,,,,,,,51,,,,,,,,,,,,,,362.5359999522916,,response,,,,13,A,,,,,,Space,keypress(Space),,,,silence,,,,-------- -------- --- --- ---- --- --- ------ -- --------<br>---- --------- --- ------- ------------ ---------- ---------<br>--- ---------- ------- ---------- ------- to -------- ----<br>---- --- ------ ----- ------ -- ---- --- ----- -- - -------<br>-------- -- --- --- -- ----- ----------- ----- -----------<br>---- --- ---------- --- ---- --- -- ----------,310067.09999990463,310065.2999999523,309686.425,309698.09999990463,309702.764,310069.129,,22,to
screen,html.Screen,2_3_1_0_1_23,2022-02-03T14:27:12.431Z,,,,,,,,,,,,,,,,,51,,,,,,,,,,,,,,436.2709998569335,,response,,,,13,A,,,,,,Space,keypress(Space),,,,silence,,,,-------- -------- --- --- ---- --- --- ------ -- --------<br>---- --------- --- ------- ------------ ---------- ---------<br>--- ---------- ------- ---------- ------- -- survive. ----<br>---- --- ------ ----- ------ -- ---- --- ----- -- - -------<br>-------- -- --- --- -- ----- ----------- ----- -----------<br>---- --- ---------- --- ---- --- -- ----------,310507.19999980927,310505.39999985695,310052.651,310067.39999985695,310069.129,310518.571,,23,survive.
screen,html.Screen,2_3_1_0_1_24,2022-02-03T14:27:13.002Z,,,,,,,,,,,,,,,,,51,,,,,,,,,,,,,,558.0289999046363,,response,,,,13,A,,,,,,Space,keypress(Space),,,,silence,,,,-------- -------- --- --- ---- --- --- ------ -- --------<br>---- --------- --- ------- ------------ ---------- ---------<br>--- ---------- ------- ---------- ------- -- -------- This<br>---- --- ------ ----- ------ -- ---- --- ----- -- - -------<br>-------- -- --- --- -- ----- ----------- ----- -----------<br>---- --- ---------- --- ---- --- -- ----------,311078.39999985695,311076.59999990463,310502.268,310507.59999990463,310518.571,311084.72,,24,This
screen,html.Screen,2_3_1_0_1_25,2022-02-03T14:27:13.493Z,,,,,,,,,,,,,,,,,51,,,,,,,,,,,,,,483.0799999523442,,response,,,,13,A,,,,,,Space,keypress(Space),,,,silence,,,,-------- -------- --- --- ---- --- --- ------ -- --------<br>---- --------- --- ------- ------------ ---------- ---------<br>--- ---------- ------- ---------- ------- -- -------- ----<br>week --- ------ ----- ------ -- ---- --- ----- -- - -------<br>-------- -- --- --- -- ----- ----------- ----- -----------<br>---- --- ---------- --- ---- --- -- ----------,311569.59999990463,311567.7999999523,311068.534,311078.69999980927,311084.72,311584.185,,25,week
screen,html.Screen,2_3_1_0_1_26,2022-02-03T14:27:14.194Z,,,,,,,,,,,,,,,,,51,,,,,,,,,,,,,,684.5149998092675,,response,,,,13,A,,,,,,Space,keypress(Space),,,,silence,,,,-------- -------- --- --- ---- --- --- ------ -- --------<br>---- --------- --- ------- ------------ ---------- ---------<br>--- ---------- ------- ---------- ------- -- -------- ----<br>---- the ------ ----- ------ -- ---- --- ----- -- - -------<br>-------- -- --- --- -- ----- ----------- ----- -----------<br>---- --- ---------- --- ---- --- -- ----------,312270.5,312268.69999980927,311568.017,311569.7999999523,311584.185,312283.497,,26,the
screen,html.Screen,2_3_1_0_1_27,2022-02-03T14:27:14.608Z,,,,,,,,,,,,,,,,,51,,,,,,,,,,,,,,399.30299995234236,,response,,,,13,A,,,,,,Space,keypress(Space),,,,silence,,,,-------- -------- --- --- ---- --- --- ------ -- --------<br>---- --------- --- ------- ------------ ---------- ---------<br>--- ---------- ------- ---------- ------- -- -------- ----<br>---- --- Senate ----- ------ -- ---- --- ----- -- - -------<br>-------- -- --- --- -- ----- ----------- ----- -----------<br>---- --- ---------- --- ---- --- -- ----------,312683.7999999523,312682.7999999523,312267.449,312270.69999980927,312283.497,312699.779,,27,Senate
screen,html.Screen,2_3_1_0_1_28,2022-02-03T14:27:15.024Z,,,,,,,,,,,,,,,,,51,,,,,,,,,,,,,,398.02099995233584,,response,,,,13,A,,,,,,Space,keypress(Space),,,,silence,,,,-------- -------- --- --- ---- --- --- ------ -- --------<br>---- --------- --- ------- ------------ ---------- ---------<br>--- ---------- ------- ---------- ------- -- -------- ----<br>---- --- ------ seems ------ -- ---- --- ----- -- - -------<br>-------- -- --- --- -- ----- ----------- ----- -----------<br>---- --- ---------- --- ---- --- -- ----------,313099.69999980927,313097.7999999523,312683.437,312683.89999985695,312699.779,313116.004,,28,seems
screen,html.Screen,2_3_1_0_1_29,2022-02-03T14:27:15.374Z,,,,,,,,,,,,,,,,,51,,,,,,,,,,,,,,333.0959999046172,,response,,,,13,A,,,,,,Space,keypress(Space),,,,silence,,,,-------- -------- --- --- ---- --- --- ------ -- --------<br>---- --------- --- ------- ------------ ---------- ---------<br>--- ---------- ------- ---------- ------- -- -------- ----<br>---- --- ------ ----- poised -- ---- --- ----- -- - -------<br>-------- -- --- --- -- ----- ----------- ----- -----------<br>---- --- ---------- --- ---- --- -- ----------,313451,313449.09999990463,313099.65,313100,313116.004,313465.739,,29,poised
screen,html.Screen,2_3_1_0_1_30,2022-02-03T14:27:15.756Z,,,,,,,,,,,,,,,,,51,,,,,,,,,,,,,,364.46099980926374,,response,,,,13,A,,,,,,Space,keypress(Space),,,,silence,,,,-------- -------- --- --- ---- --- --- ------ -- --------<br>---- --------- --- ------- ------------ ---------- ---------<br>--- ---------- ------- ---------- ------- -- -------- ----<br>---- --- ------ ----- ------ to ---- --- ----- -- - -------<br>-------- -- --- --- -- ----- ----------- ----- -----------<br>---- --- ---------- --- ---- --- -- ----------,313832.09999990463,313830.19999980927,313449.268,313451.2999999523,313465.739,313848.605,,30,to
screen,html.Screen,2_3_1_0_1_31,2022-02-03T14:27:16.065Z,,,,,,,,,,,,,,,,,51,,,,,,,,,,,,,,290.59499980928376,,response,,,,13,A,,,,,,Space,keypress(Space),,,,silence,,,,-------- -------- --- --- ---- --- --- ------ -- --------<br>---- --------- --- ------- ------------ ---------- ---------<br>--- ---------- ------- ---------- ------- -- -------- ----<br>---- --- ------ ----- ------ -- join --- ----- -- - -------<br>-------- -- --- --- -- ----- ----------- ----- -----------<br>---- --- ---------- --- ---- --- -- ----------,314141.09999990463,314139.19999980927,313832.327,313832.2999999523,313848.605,314148.494,,31,join
screen,html.Screen,2_3_1_0_1_32,2022-02-03T14:27:16.455Z,,,,,,,,,,,,,,,,,51,,,,,,,,,,,,,,380.7059998092591,,response,,,,13,A,,,,,,Space,keypress(Space),,,,silence,,,,-------- -------- --- --- ---- --- --- ------ -- --------<br>---- --------- --- ------- ------------ ---------- ---------<br>--- ---------- ------- ---------- ------- -- -------- ----<br>---- --- ------ ----- ------ -- ---- the ----- -- - -------<br>-------- -- --- --- -- ----- ----------- ----- -----------<br>---- --- ---------- --- ---- --- -- ----------,314531.2999999523,314529.19999980927,314131.942,314141.39999985695,314148.494,314547.92,,32,the
screen,html.Screen,2_3_1_0_1_33,2022-02-03T14:27:16.757Z,,,,,,,,,,,,,,,,,51,,,,,,,,,,,,,,283.5800000000163,,response,,,,13,A,,,,,,Space,keypress(Space),,,,silence,,,,-------- -------- --- --- ---- --- --- ------ -- --------<br>---- --------- --- ------- ------------ ---------- ---------<br>--- ---------- ------- ---------- ------- -- -------- ----<br>---- --- ------ ----- ------ -- ---- --- House -- - -------<br>-------- -- --- --- -- ----- ----------- ----- -----------<br>---- --- ---------- --- ---- --- -- ----------,314833.19999980927,314831.5,314531.643,314531.59999990463,314547.92,314847.696,,33,House
screen,html.Screen,2_3_1_0_1_34,2022-02-03T14:27:17.062Z,,,,,,,,,,,,,,,,,51,,,,,,,,,,,,,,288.7039998569526,,response,,,,13,A,,,,,,Space,keypress(Space),,,,silence,,,,-------- -------- --- --- ---- --- --- ------ -- --------<br>---- --------- --- ------- ------------ ---------- ---------<br>--- ---------- ------- ---------- ------- -- -------- ----<br>---- --- ------ ----- ------ -- ---- --- ----- in - -------<br>-------- -- --- --- -- ----- ----------- ----- -----------<br>---- --- ---------- --- ---- --- -- ----------,315138.2999999523,315136.39999985695,314831.215,314833.59999990463,314847.696,315147.331,,34,in
screen,html.Screen,2_3_1_0_1_35,2022-02-03T14:27:17.462Z,,,,,,,,,,,,,,,,,51,,,,,,,,,,,,,,389.268999904627,,response,,,,13,A,,,,,,Space,keypress(Space),,,,silence,,,,-------- -------- --- --- ---- --- --- ------ -- --------<br>---- --------- --- ------- ------------ ---------- ---------<br>--- ---------- ------- ---------- ------- -- -------- ----<br>---- --- ------ ----- ------ -- ---- --- ----- -- a -------<br>-------- -- --- --- -- ----- ----------- ----- -----------<br>---- --- ---------- --- ---- --- -- ----------,315538.5,315536.59999990463,315130.96,315138.69999980927,315147.331,315547.544,,35,a
screen,html.Screen,2_3_1_0_1_36,2022-02-03T14:27:17.787Z,,,,,,,,,,,,,,,,,51,,,,,,,,,,,,,,314.05599990463816,,response,,,,13,A,,,,,,Space,keypress(Space),,,,silence,,,,-------- -------- --- --- ---- --- --- ------ -- --------<br>---- --------- --- ------- ------------ ---------- ---------<br>--- ---------- ------- ---------- ------- -- -------- ----<br>---- --- ------ ----- ------ -- ---- --- ----- -- - massive<br>-------- -- --- --- -- ----- ----------- ----- -----------<br>---- --- ---------- --- ---- --- -- ----------,315863.5,315861.59999990463,315530.651,315538.89999985695,315547.544,315879.944,,36,massive
screen,html.Screen,2_3_1_0_1_37,2022-02-03T14:27:18.184Z,,,,,,,,,,,,,,,,,51,,,,,,,,,,,,,,378.3559999522986,,response,,,,13,A,,,,,,Space,keypress(Space),,,,silence,,,,-------- -------- --- --- ---- --- --- ------ -- --------<br>---- --------- --- ------- ------------ ---------- ---------<br>--- ---------- ------- ---------- ------- -- -------- ----<br>---- --- ------ ----- ------ -- ---- --- ----- -- - -------<br>overhaul -- --- --- -- ----- ----------- ----- -----------<br>---- --- ---------- --- ---- --- -- ----------,316260.19999980927,316258.2999999523,315863.525,315863.7999999523,315879.944,316262.985,,37,overhaul
screen,html.Screen,2_3_1_0_1_38,2022-02-03T14:27:18.598Z,,,,,,,,,,,,,,,,,51,,,,,,,,,,,,,,409.7149998092791,,response,,,,13,A,,,,,,Space,keypress(Space),,,,silence,,,,-------- -------- --- --- ---- --- --- ------ -- --------<br>---- --------- --- ------- ------------ ---------- ---------<br>--- ---------- ------- ---------- ------- -- -------- ----<br>---- --- ------ ----- ------ -- ---- --- ----- -- - -------<br>-------- of --- --- -- ----- ----------- ----- -----------<br>---- --- ---------- --- ---- --- -- ----------,316674.59999990463,316672.69999980927,316246.599,316260.5,316262.985,316679.169,,38,of
