sender,sender_type,sender_id,timestamp,meta,,Blues,Classical,Country,Dance,Electronic,Folk,Gospel,Hip-Hop,Jazz,Latin,Musical/Film,New-age,Pop,Prolific_id,Provo_ID,R&B,Rap,Reggae,Religious,Rock,Soul,Swing,Traditional,age,artist_name,correct,correctResponse,distraction,duration,education,ended_on,familiarity,gender,headphone_check_performance,item,list,music_frequency,offensiveness,pleasantness,position_correct,preference,response,response_action,snippet_file,song_name,song_rating,sound,stimulus_1,stimulus_2,stimulus_3,text,time_commit,time_end,time_render,time_run,time_show,time_switch,url,word,word_ID
Prolific ID,html.Form,0,2022-02-17T16:43:37.506Z,"{""labjs_version"":""20.2.2"",""labjs_build"":{""flavor"":""production"",""commit"":""a25486e0c714a0ae2ce03ff94b7bb6896854dcfa""},""location"":""https://run.pavlovia.org/mvasilev/prolific2_music_f/"",""userAgent"":""Mozilla/5.0 (Windows NT 10.0; Win64; x64) AppleWebKit/537.36 (KHTML, like Gecko) Chrome/98.0.4758.80 Safari/537.36 Edg/98.0.1108.50"",""platform"":""Win32"",""language"":""en-GB"",""locale"":""en-GB"",""timeZone"":""Europe/London"",""timezoneOffset"":0,""screen_width"":1280,""screen_height"":720,""scroll_width"":1280,""scroll_height"":561,""window_innerWidth"":1280,""window_innerHeight"":609,""devicePixelRatio"":1.5}",,,,,,,,,,,,,,,5ffc6d5f2e58f30303c20217,,,,,,,,,,,,,,,21274.94199999404,,form submission,,,,,,,,,,,,,,,,,,,,,40086,40084.59999999404,18759.18,18759.39999999106,18809.658,40123.079,{},,
Introduction,html.Screen,1_0,2022-02-17T16:43:44.640Z,,,,,,,,,,,,,,,,,,,,,,,,,,,,,,,7088.621000002982,,response,,,,,,,,,,,continue,click button,,,,,,,,,47219.89999999106,47211.70000000298,40073.053,40087,40123.079,47238.526,,,
Volume calibration,html.Screen,1_1,2022-02-17T16:44:09.393Z,,,,,,,,,,,,,,,,,,,,,,,,,,,,,,,24726.87399999106,,response,,,,,,,,,,,continue,click button,,,,,,,,,71972.89999999106,71965.39999999106,47205.544,47220.39999999106,47238.526,71967.971,,,
Task instructions,html.Screen,1_2,2022-02-17T16:44:13.639Z,,,,,,,,,,,,,,,,,,,,,,,,,,,,,,,4248.828999997015,,response,,,,,,,,,,,continue,click button,,,,,,,,,76218.79999999702,76216.79999999702,71951.314,71973.20000000298,71967.971,76233.87,,,
Sounds,html.Screen,1_3_0_0,2022-02-17T16:44:17.894Z,,,,,,,,,,,,,,,,,,,,,,,,,,,,,,,4249.376000000004,,timeout,,,,,,,,,3,,,,,,,,I,O,S,,80473.70000000298,80466.948,76217.434,76219.20000000298,76233.87,80483.246,,,
Judgement,html.Screen,1_3_0_1,2022-02-17T16:44:20.163Z,,,,,,,,,,,,,,,,,,,,,,,,,,,,true,3,,2257.15399999106,,response,,,,,,,,,3,,3,click #choice-3,,,,,I,O,S,,82742.59999999404,82740.39999999106,80466.948,80474.20000000298,80483.246,82749.556,,,
Trial,flow.Sequence,1_3_0,2022-02-17T16:44:20.164Z,,,,,,,,,,,,,,,,,,,,,,,,,,,,,,,6506.529999991064,,completion,,,,,,,,,3,,,,,,,,I,O,S,,82743.20000000298,82740.39999999106,76217.434,76219.09999999404,76233.87,82749.556,,,
Sounds,html.Screen,1_3_1_0,2022-02-17T16:44:24.405Z,,,,,,,,,,,,,,,,,,,,,,,,,,,,,,,4249.487000000008,,timeout,,,,,,,,,1,,,,,,,,S,I,O,,86984.29999999702,86982.391,82733.154,82744.09999999404,82749.556,86999.043,,,
Judgement,html.Screen,1_3_1_1,2022-02-17T16:44:25.727Z,,,,,,,,,,,,,,,,,,,,,,,,,,,,true,1,,1304.8569999910542,,response,,,,,,,,,1,,1,click #choice-1,,,,,S,I,O,,88306.79999999702,88303.89999999106,86982.391,86984.70000000298,86999.043,88315.32,,,
Trial,flow.Sequence,1_3_1,2022-02-17T16:44:25.728Z,,,,,,,,,,,,,,,,,,,,,,,,,,,,,,,5554.343999991062,,completion,,,,,,,,,1,,,,,,,,S,I,O,,88307.59999999404,88303.89999999106,82733.154,82743.5,82749.556,88315.32,,,
Sounds,html.Screen,1_3_2_0,2022-02-17T16:44:29.969Z,,,,,,,,,,,,,,,,,,,,,,,,,,,,,,,4249.245999999999,,timeout,,,,,,,,,2,,,,,,,,I,S,O,,92548.89999999106,92547.977,88298.88,88308.09999999404,88315.32,92564.566,,,
Judgement,html.Screen,1_3_2_1,2022-02-17T16:44:30.932Z,,,,,,,,,,,,,,,,,,,,,,,,,,,,true,2,,944.6340000029741,,response,,,,,,,,,2,,2,click #choice-2,,,,,I,S,O,,93511.5,93509.20000000298,92547.977,92549,92564.566,93514.547,,,
Trial,flow.Sequence,1_3_2,2022-02-17T16:44:30.933Z,,,,,,,,,,,,,,,,,,,,,,,,,,,,,,,5193.880000002973,,completion,,,,,,,,,2,,,,,,,,I,S,O,,93512.09999999404,93509.20000000298,88298.88,88308,88315.32,93514.547,,,
Sounds,html.Screen,1_3_3_0,2022-02-17T16:44:35.170Z,,,,,,,,,,,,,,,,,,,,,,,,,,,,,,,4249.329999999987,,timeout,,,,,,,,,3,,,,,,,,O,I,S,,97749.59999999404,97747.179,93498.14,93512.5,93514.547,97763.877,,,
Judgement,html.Screen,1_3_3_1,2022-02-17T16:44:35.826Z,,,,,,,,,,,,,,,,,,,,,,,,,,,,true,3,,638.7229999940464,,response,,,,,,,,,3,,3,click #choice-3,,,,,O,I,S,,98405.29999999702,98402.59999999404,97747.179,97749.89999999106,97763.877,98413.698,,,
Trial,flow.Sequence,1_3_3,2022-02-17T16:44:35.826Z,,,,,,,,,,,,,,,,,,,,,,,,,,,,,,,4888.052999994034,,completion,,,,,,,,,3,,,,,,,,O,I,S,,98405.89999999106,98402.59999999404,93498.14,93512.29999999702,93514.547,98413.698,,,
Sounds,html.Screen,1_3_4_0,2022-02-17T16:44:40.070Z,,,,,,,,,,,,,,,,,,,,,,,,,,,,,,,4249.349000000002,,timeout,,,,,,,,,1,,,,,,,,S,O,I,,102649.20000000298,102646.568,98397.136,98406.29999999702,98413.698,102663.047,,,
Judgement,html.Screen,1_3_4_1,2022-02-17T16:44:40.518Z,,,,,,,,,,,,,,,,,,,,,,,,,,,,true,1,,432.85299999105337,,response,,,,,,,,,1,,1,click #choice-1,,,,,S,O,I,,103097.5,103095.89999999106,102646.568,102649.5,102663.047,103113.133,,,
Trial,flow.Sequence,1_3_4,2022-02-17T16:44:40.518Z,,,,,,,,,,,,,,,,,,,,,,,,,,,,,,,4682.201999991055,,completion,,,,,,,,,1,,,,,,,,S,O,I,,103097.89999999106,103095.89999999106,98397.136,98406.09999999404,98413.698,103113.133,,,
Sounds,html.Screen,1_3_5_0,2022-02-17T16:44:44.769Z,,,,,,,,,,,,,,,,,,,,,,,,,,,,,,,4249.125,,timeout,,,,,,,,,2,,,,,,,,O,S,I,,107347.59999999404,107345.628,103096.305,103098.20000000298,103113.133,107362.258,,,
Judgement,html.Screen,1_3_5_1,2022-02-17T16:44:45.661Z,,,,,,,,,,,,,,,,,,,,,,,,,,,,true,2,,875.3419999940379,,response,,,,,,,,,2,,2,click #choice-2,,,,,O,S,I,,108239.70000000298,108237.59999999404,107345.628,107347.79999999702,107362.258,108245.482,,,
Trial,flow.Sequence,1_3_5,2022-02-17T16:44:45.661Z,,,,,,,,,,,,,,,,,,,,,,,,,,,,,,,5124.466999994038,,completion,,,,,,,,,2,,,,,,,,O,S,I,,108240.09999999404,108237.59999999404,103096.305,103098.20000000298,103113.133,108245.482,,,
Task,flow.Loop,1_3,2022-02-17T16:44:45.671Z,,,,,,,,,,,,,,,,,,,,,,,,,,,,,,,32003.729999994044,,completion,,,1,,,,,,,,,,,,,,,,,,108250.5,108237.59999999404,76217.434,76219.09999999404,76233.87,108245.482,,,
Trap,html.Screen,1_4,2022-02-17T16:44:45.674Z,,,,,,,,,,,,,,,,,,,,,,,,,,,,,,,NaN,,skipped,,,,,,,,,,,,,,,,,,,,,108253.09999999404,108237.59999999404,,108252.89999999106,,108245.482,,,
Thanks,html.Screen,1_5,2022-02-17T16:44:49.685Z,,,,,,,,,,,,,,,,,,,,,,,,,,,,,,,4016.617999994036,,response,,,,,,,,,,,continue,click button,,,,,,,,,112264.09999999404,112262.09999999404,108228.801,108253.39999999106,108245.482,121426.7,,,
Headphone screening,flow.Sequence,1,2022-02-17T16:44:49.685Z,,,,,,,,,,,,,,,,,,,,,,,,,,,,,,,72139.02099999404,,completion,,,,,,,,,,,,,,,,,,,,,112264.5,112262.09999999404,40073.053,40086.79999999702,40123.079,121426.7,,,
Instructions,html.Page,2_0,2022-02-17T16:45:17.332Z,,,,,,,,,,,,,,,,,,,,,,,,,,,,,,,18483.300000000003,,form submission,,,,,,,,,,,,,,,,,,,,,139910.79999999702,139910,121376.809,121426.20000000298,121426.7,139923.768,,,
Holding screen,html.Screen,2_1_0_0,2022-02-17T16:45:27.328Z,,,,,,,,,,,,,,,,,,,,,,,,,,,,,,,10031.781999999977,,timeout,,,,,,,,,,,,,,,,,,,,,149907.20000000298,149905.578,139907.105,139911.39999999106,139923.768,149955.55,,,
screen,html.Screen,2_1_0_1_0,2022-02-17T16:45:28.802Z,,,,,,,,,,,,,,,,,53,,,,,,,,,,,,,,1420.349999991071,,response,,,,99,,,,,,,Space,keypress(Space),,,,,,,,When -- ----- -- ------ - ------- --- ----------<br>------------- ------ ------ ---- ---- ------- ----- -- ----<br>-------- ------- -- ---------- --- - --- ----- ----- ----<br>---- --- --- ----- --- ---- ---- ------- ----- ---- -------<br>--- --- -- ----- -- --- ---- -- --- ---- -- ------ ------<br>--- ----- -- ----,151381.70000000298,151375.89999999106,149905.578,149907.59999999404,149955.55,151388.585,,0,When
screen,html.Screen,2_1_0_1_1,2022-02-17T16:45:29.336Z,,,,,,,,,,,,,,,,,53,,,,,,,,,,,,,,526.5149999940477,,response,,,,99,,,,,,,Space,keypress(Space),,,,,,,,---- it ----- -- ------ - ------- --- ----------<br>------------- ------ ------ ---- ---- ------- ----- -- ----<br>-------- ------- -- ---------- --- - --- ----- ----- ----<br>---- --- --- ----- --- ---- ---- ------- ----- ---- -------<br>--- --- -- ----- -- --- ---- -- --- ---- -- ------ ------<br>--- ----- -- ----,151916.29999999702,151915.09999999404,151371.91,151382,151388.585,151921.892,,1,it
screen,html.Screen,2_1_0_1_2,2022-02-17T16:45:29.788Z,,,,,,,,,,,,,,,,,53,,,,,,,,,,,,,,444.9079999970272,,response,,,,99,,,,,,,Space,keypress(Space),,,,,,,,---- -- comes -- ------ - ------- --- ----------<br>------------- ------ ------ ---- ---- ------- ----- -- ----<br>-------- ------- -- ---------- --- - --- ----- ----- ----<br>---- --- --- ----- --- ---- ---- ------- ----- ---- -------<br>--- --- -- ----- -- --- ---- -- --- ---- -- ------ ------<br>--- ----- -- ----,152368,152366.79999999702,151905.279,151916.59999999404,151921.892,152371.901,,2,comes
screen,html.Screen,2_1_0_1_3,2022-02-17T16:45:30.208Z,,,,,,,,,,,,,,,,,53,,,,,,,,,,,,,,414.29900000296766,,response,,,,99,,,,,,,Space,keypress(Space),,,,,,,,---- -- ----- to ------ - ------- --- ----------<br>------------- ------ ------ ---- ---- ------- ----- -- ----<br>-------- ------- -- ---------- --- - --- ----- ----- ----<br>---- --- --- ----- --- ---- ---- ------- ----- ---- -------<br>--- --- -- ----- -- --- ---- -- --- ---- -- ------ ------<br>--- ----- -- ----,152787.59999999404,152786.20000000298,152355.123,152368.29999999702,152371.901,152805.338,,3,to
screen,html.Screen,2_1_0_1_4,2022-02-17T16:45:30.612Z,,,,,,,,,,,,,,,,,53,,,,,,,,,,,,,,385.1620000000112,,response,,,,99,,,,,,,Space,keypress(Space),,,,,,,,---- -- ----- -- having - ------- --- ----------<br>------------- ------ ------ ---- ---- ------- ----- -- ----<br>-------- ------- -- ---------- --- - --- ----- ----- ----<br>---- --- --- ----- --- ---- ---- ------- ----- ---- -------<br>--- --- -- ----- -- --- ---- -- --- ---- -- ------ ------<br>--- ----- -- ----,153191.70000000298,153190.5,152788.579,152787.89999999106,152805.338,153205.291,,4,having
screen,html.Screen,2_1_0_1_5,2022-02-17T16:45:31.051Z,,,,,,,,,,,,,,,,,53,,,,,,,,,,,,,,424.70900000000256,,response,,,,99,,,,,,,Space,keypress(Space),,,,,,,,---- -- ----- -- ------ a ------- --- ----------<br>------------- ------ ------ ---- ---- ------- ----- -- ----<br>-------- ------- -- ---------- --- - --- ----- ----- ----<br>---- --- --- ----- --- ---- ---- ------- ----- ---- -------<br>--- --- -- ----- -- --- ---- -- --- ---- -- ------ ------<br>--- ----- -- ----,153631.09999999404,153630,153188.524,153192,153205.291,153638.276,,5,a
screen,html.Screen,2_1_0_1_6,2022-02-17T16:45:31.426Z,,,,,,,,,,,,,,,,,53,,,,,,,,,,,,,,366.62399999104673,,response,,,,99,,,,,,,Space,keypress(Space),,,,,,,,---- -- ----- -- ------ - lasting --- ----------<br>------------- ------ ------ ---- ---- ------- ----- -- ----<br>-------- ------- -- ---------- --- - --- ----- ----- ----<br>---- --- --- ----- --- ---- ---- ------- ----- ---- -------<br>--- --- -- ----- -- --- ---- -- --- ---- -- ------ ------<br>--- ----- -- ----,154006.09999999404,154004.89999999106,153621.669,153631.39999999106,153638.276,154021.512,,6,lasting
screen,html.Screen,2_1_0_1_7,2022-02-17T16:45:31.740Z,,,,,,,,,,,,,,,,,53,,,,,,,,,,,,,,297.3879999910714,,response,,,,99,,,,,,,Space,keypress(Space),,,,,,,,---- -- ----- -- ------ - ------- and ----------<br>------------- ------ ------ ---- ---- ------- ----- -- ----<br>-------- ------- -- ---------- --- - --- ----- ----- ----<br>---- --- --- ----- --- ---- ---- ------- ----- ---- -------<br>--- --- -- ----- -- --- ---- -- --- ---- -- ------ ------<br>--- ----- -- ----,154320,154318.89999999106,154004.918,154006.39999999106,154021.512,154350.224,,7,and
screen,html.Screen,2_1_0_1_8,2022-02-17T16:45:32.049Z,,,,,,,,,,,,,,,,,53,,,,,,,,,,,,,,277.8759999940521,,response,,,,99,,,,,,,Space,keypress(Space),,,,,,,,---- -- ----- -- ------ - ------- --- fulfilling<br>------------- ------ ------ ---- ---- ------- ----- -- ----<br>-------- ------- -- ---------- --- - --- ----- ----- ----<br>---- --- --- ----- --- ---- ---- ------- ----- ---- -------<br>--- --- -- ----- -- --- ---- -- --- ---- -- ------ ------<br>--- ----- -- ----,154629.20000000298,154628.09999999404,154304.801,154320.29999999702,154350.224,154638.168,,8,fulfilling
screen,html.Screen,2_1_0_1_9,2022-02-17T16:45:32.444Z,,,,,,,,,,,,,,,,,53,,,,,,,,,,,,,,384.4319999940344,,response,,,,99,,,,,,,Space,keypress(Space),,,,,,,,"---- -- ----- -- ------ - ------- --- ----------<br>relationship, ------ ------ ---- ---- ------- ----- -- ----<br>-------- ------- -- ---------- --- - --- ----- ----- ----<br>---- --- --- ----- --- ---- ---- ------- ----- ---- -------<br>--- --- -- ----- -- --- ---- -- --- ---- -- ------ ------<br>--- ----- -- ----",155023.79999999702,155022.59999999404,154621.462,154629.5,154638.168,155038.219,,9,"relationship,"
screen,html.Screen,2_1_0_1_10,2022-02-17T16:45:32.981Z,,,,,,,,,,,,,,,,,53,,,,,,,,,,,,,,521.5809999970079,,response,,,,99,,,,,,,Space,keypress(Space),,,,,,,,---- -- ----- -- ------ - ------- --- ----------<br>------------- common ------ ---- ---- ------- ----- -- ----<br>-------- ------- -- ---------- --- - --- ----- ----- ----<br>---- --- --- ----- --- ---- ---- ------- ----- ---- -------<br>--- --- -- ----- -- --- ---- -- --- ---- -- ------ ------<br>--- ----- -- ----,155560.89999999106,155559.79999999702,155021.414,155024.09999999404,155038.219,155571.301,,10,common
screen,html.Screen,2_1_0_1_11,2022-02-17T16:45:33.270Z,,,,,,,,,,,,,,,,,53,,,,,,,,,,,,,,277.8990000029735,,response,,,,99,,,,,,,Space,keypress(Space),,,,,,,,---- -- ----- -- ------ - ------- --- ----------<br>------------- ------ wisdom ---- ---- ------- ----- -- ----<br>-------- ------- -- ---------- --- - --- ----- ----- ----<br>---- --- --- ----- --- ---- ---- ------- ----- ---- -------<br>--- --- -- ----- -- --- ---- -- --- ---- -- ------ ------<br>--- ----- -- ----,155850.20000000298,155849.20000000298,155554.688,155561.09999999404,155571.301,155854.617,,11,wisdom
screen,html.Screen,2_1_0_1_12,2022-02-17T16:45:33.620Z,,,,,,,,,,,,,,,,,53,,,,,,,,,,,,,,344.48299999404117,,response,,,,99,,,,,,,Space,keypress(Space),,,,,,,,---- -- ----- -- ------ - ------- --- ----------<br>------------- ------ ------ says ---- ------- ----- -- ----<br>-------- ------- -- ---------- --- - --- ----- ----- ----<br>---- --- --- ----- --- ---- ---- ------- ----- ---- -------<br>--- --- -- ----- -- --- ---- -- --- ---- -- ------ ------<br>--- ----- -- ----,156200.09999999404,156199.09999999404,155837.908,155850.5,155854.617,156204.591,,12,says
screen,html.Screen,2_1_0_1_13,2022-02-17T16:45:33.906Z,,,,,,,,,,,,,,,,,53,,,,,,,,,,,,,,279.9090000000142,,response,,,,99,,,,,,,Space,keypress(Space),,,,,,,,---- -- ----- -- ------ - ------- --- ----------<br>------------- ------ ------ ---- that ------- ----- -- ----<br>-------- ------- -- ---------- --- - --- ----- ----- ----<br>---- --- --- ----- --- ---- ---- ------- ----- ---- -------<br>--- --- -- ----- -- --- ---- -- --- ---- -- ------ ------<br>--- ----- -- ----,156485.59999999404,156484.5,156187.894,156200.39999999106,156204.591,156504.738,,13,that
screen,html.Screen,2_1_0_1_14,2022-02-17T16:45:34.131Z,,,,,,,,,,,,,,,,,53,,,,,,,,,,,,,,204.56199999700766,,response,,,,99,,,,,,,Space,keypress(Space),,,,,,,,---- -- ----- -- ------ - ------- --- ----------<br>------------- ------ ------ ---- ---- feeling ----- -- ----<br>-------- ------- -- ---------- --- - --- ----- ----- ----<br>---- --- --- ----- --- ---- ---- ------- ----- ---- -------<br>--- --- -- ----- -- --- ---- -- --- ---- -- ------ ------<br>--- ----- -- ----,156710.39999999106,156709.29999999702,156471.209,156485.79999999702,156504.738,156721.264,,14,feeling
screen,html.Screen,2_1_0_1_15,2022-02-17T16:45:34.412Z,,,,,,,,,,,,,,,,,53,,,,,,,,,,,,,,269.7360000000044,,response,,,,99,,,,,,,Space,keypress(Space),,,,,,,,---- -- ----- -- ------ - ------- --- ----------<br>------------- ------ ------ ---- ---- ------- close -- ----<br>-------- ------- -- ---------- --- - --- ----- ----- ----<br>---- --- --- ----- --- ---- ---- ------- ----- ---- -------<br>--- --- -- ----- -- --- ---- -- --- ---- -- ------ ------<br>--- ----- -- ----,156992,156991,156704.489,156710.70000000298,156721.264,157004.606,,15,close
screen,html.Screen,2_1_0_1_16,2022-02-17T16:45:34.677Z,,,,,,,,,,,,,,,,,53,,,,,,,,,,,,,,251.59400000298047,,response,,,,99,,,,,,,Space,keypress(Space),,,,,,,,---- -- ----- -- ------ - ------- --- ----------<br>------------- ------ ------ ---- ---- ------- ----- to ----<br>-------- ------- -- ---------- --- - --- ----- ----- ----<br>---- --- --- ----- --- ---- ---- ------- ----- ---- -------<br>--- --- -- ----- -- --- ---- -- --- ---- -- ------ ------<br>--- ----- -- ----,157257.20000000298,157256.20000000298,156987.963,156992.20000000298,157004.606,157271.099,,16,to
screen,html.Screen,2_1_0_1_17,2022-02-17T16:45:34.873Z,,,,,,,,,,,,,,,,,53,,,,,,,,,,,,,,181.1010000029928,,response,,,,99,,,,,,,Space,keypress(Space),,,,,,,,---- -- ----- -- ------ - ------- --- ----------<br>------------- ------ ------ ---- ---- ------- ----- -- your<br>-------- ------- -- ---------- --- - --- ----- ----- ----<br>---- --- --- ----- --- ---- ---- ------- ----- ---- -------<br>--- --- -- ----- -- --- ---- -- --- ---- -- ------ ------<br>--- ----- -- ----,157453.29999999702,157452.20000000298,157254.638,157257.5,157271.099,157487.932,,17,your
screen,html.Screen,2_1_0_1_18,2022-02-17T16:45:35.263Z,,,,,,,,,,,,,,,,,53,,,,,,,,,,,,,,353.76800000297953,,response,,,,99,,,,,,,Space,keypress(Space),,,,,,,,---- -- ----- -- ------ - ------- --- ----------<br>------------- ------ ------ ---- ---- ------- ----- -- ----<br>romantic ------- -- ---------- --- - --- ----- ----- ----<br>---- --- --- ----- --- ---- ---- ------- ----- ---- -------<br>--- --- -- ----- -- --- ---- -- --- ---- -- ------ ------<br>--- ----- -- ----,157842.59999999404,157841.70000000298,157471.107,157453.5,157487.932,157854.301,,18,romantic
screen,html.Screen,2_1_0_1_19,2022-02-17T16:45:35.530Z,,,,,,,,,,,,,,,,,53,,,,,,,,,,,,,,254.29899999403278,,response,,,,99,,,,,,,Space,keypress(Space),,,,,,,,---- -- ----- -- ------ - ------- --- ----------<br>------------- ------ ------ ---- ---- ------- ----- -- ----<br>-------- partner -- ---------- --- - --- ----- ----- ----<br>---- --- --- ----- --- ---- ---- ------- ----- ---- -------<br>--- --- -- ----- -- --- ---- -- --- ---- -- ------ ------<br>--- ----- -- ----,158109.59999999404,158108.59999999404,157837.606,157842.89999999106,157854.301,158120.889,,19,partner
screen,html.Screen,2_1_0_1_20,2022-02-17T16:45:35.756Z,,,,,,,,,,,,,,,,,53,,,,,,,,,,,,,,213.71099999404396,,response,,,,99,,,,,,,Space,keypress(Space),,,,,,,,---- -- ----- -- ------ - ------- --- ----------<br>------------- ------ ------ ---- ---- ------- ----- -- ----<br>-------- ------- is ---------- --- - --- ----- ----- ----<br>---- --- --- ----- --- ---- ---- ------- ----- ---- -------<br>--- --- -- ----- -- --- ---- -- --- ---- -- ------ ------<br>--- ----- -- ----,158335.70000000298,158334.59999999404,158104.191,158109.79999999702,158120.889,158354.461,,20,is
screen,html.Screen,2_1_0_1_21,2022-02-17T16:45:35.954Z,,,,,,,,,,,,,,,,,53,,,,,,,,,,,,,,178.23900000297,,response,,,,99,,,,,,,Space,keypress(Space),,,,,,,,---- -- ----- -- ------ - ------- --- ----------<br>------------- ------ ------ ---- ---- ------- ----- -- ----<br>-------- ------- -- paramount. --- - --- ----- ----- ----<br>---- --- --- ----- --- ---- ---- ------- ----- ---- -------<br>--- --- -- ----- -- --- ---- -- --- ---- -- ------ ------<br>--- ----- -- ----,158533.70000000298,158532.70000000298,158321.023,158335.89999999106,158354.461,158537.526,,21,paramount.
screen,html.Screen,2_1_0_1_22,2022-02-17T16:45:36.134Z,,,,,,,,,,,,,,,,,53,,,,,,,,,,,,,,175.87399999104673,,response,,,,99,,,,,,,Space,keypress(Space),,,,,,,,---- -- ----- -- ------ - ------- --- ----------<br>------------- ------ ------ ---- ---- ------- ----- -- ----<br>-------- ------- -- ---------- But - --- ----- ----- ----<br>---- --- --- ----- --- ---- ---- ------- ----- ---- -------<br>--- --- -- ----- -- --- ---- -- --- ---- -- ------ ------<br>--- ----- -- ----,158713.70000000298,158713.39999999106,158521.098,158534,158537.526,158720.752,,22,But
screen,html.Screen,2_1_0_1_23,2022-02-17T16:45:36.554Z,,,,,,,,,,,,,,,,,53,,,,,,,,,,,,,,412.5479999970121,,response,,,,99,,,,,,,Space,keypress(Space),,,,,,,,---- -- ----- -- ------ - ------- --- ----------<br>------------- ------ ------ ---- ---- ------- ----- -- ----<br>-------- ------- -- ---------- --- a --- ----- ----- ----<br>---- --- --- ----- --- ---- ---- ------- ----- ---- -------<br>--- --- -- ----- -- --- ---- -- --- ---- -- ------ ------<br>--- ----- -- ----,159134.29999999702,159133.29999999702,158704.175,158713.89999999106,158720.752,159137.373,,23,a
screen,html.Screen,2_1_0_1_24,2022-02-17T16:45:36.758Z,,,,,,,,,,,,,,,,,53,,,,,,,,,,,,,,199.026999991067,,response,,,,99,,,,,,,Space,keypress(Space),,,,,,,,---- -- ----- -- ------ - ------- --- ----------<br>------------- ------ ------ ---- ---- ------- ----- -- ----<br>-------- ------- -- ---------- --- - new ----- ----- ----<br>---- --- --- ----- --- ---- ---- ------- ----- ---- -------<br>--- --- -- ----- -- --- ---- -- --- ---- -- ------ ------<br>--- ----- -- ----,159337.39999999106,159336.39999999106,159120.965,159134.5,159137.373,159354.335,,24,new
screen,html.Screen,2_1_0_1_25,2022-02-17T16:45:36.925Z,,,,,,,,,,,,,,,,,53,,,,,,,,,,,,,,149.16500000000815,,response,,,,99,,,,,,,Space,keypress(Space),,,,,,,,---- -- ----- -- ------ - ------- --- ----------<br>------------- ------ ------ ---- ---- ------- ----- -- ----<br>-------- ------- -- ---------- --- - --- study ----- ----<br>---- --- --- ----- --- ---- ---- ------- ----- ---- -------<br>--- --- -- ----- -- --- ---- -- --- ---- -- ------ ------<br>--- ----- -- ----,159504.39999999106,159503.5,159337.363,159337.59999999404,159354.335,159521.031,,25,study
screen,html.Screen,2_1_0_1_26,2022-02-17T16:45:37.124Z,,,,,,,,,,,,,,,,,53,,,,,,,,,,,,,,181.46900000001187,,response,,,,99,,,,,,,Space,keypress(Space),,,,,,,,---- -- ----- -- ------ - ------- --- ----------<br>------------- ------ ------ ---- ---- ------- ----- -- ----<br>-------- ------- -- ---------- --- - --- ----- finds ----<br>---- --- --- ----- --- ---- ---- ------- ----- ---- -------<br>--- --- -- ----- -- --- ---- -- --- ---- -- ------ ------<br>--- ----- -- ----,159703.5,159702.5,159504.275,159504.70000000298,159521.031,159720.624,,26,finds
screen,html.Screen,2_1_0_1_27,2022-02-17T16:45:37.376Z,,,,,,,,,,,,,,,,,53,,,,,,,,,,,,,,233.97599999402883,,response,,,,99,,,,,,,Space,keypress(Space),,,,,,,,---- -- ----- -- ------ - ------- --- ----------<br>------------- ------ ------ ---- ---- ------- ----- -- ----<br>-------- ------- -- ---------- --- - --- ----- ----- that<br>---- --- --- ----- --- ---- ---- ------- ----- ---- -------<br>--- --- -- ----- -- --- ---- -- --- ---- -- ------ ------<br>--- ----- -- ----,159956,159954.59999999404,159704.24,159704,159720.624,159970.876,,27,that
screen,html.Screen,2_1_0_1_28,2022-02-17T16:45:37.633Z,,,,,,,,,,,,,,,,,53,,,,,,,,,,,,,,241.22399999405025,,response,,,,99,,,,,,,Space,keypress(Space),,,,,,,,---- -- ----- -- ------ - ------- --- ----------<br>------------- ------ ------ ---- ---- ------- ----- -- ----<br>-------- ------- -- ---------- --- - --- ----- ----- ----<br>it's --- --- ----- --- ---- ---- ------- ----- ---- -------<br>--- --- -- ----- -- --- ---- -- --- ---- -- ------ ------<br>--- ----- -- ----,160212.70000000298,160212.09999999404,159954.197,159956.29999999702,159970.876,160220.504,,28,it's
screen,html.Screen,2_1_0_1_29,2022-02-17T16:45:37.848Z,,,,,,,,,,,,,,,,,53,,,,,,,,,,,,,,206.89599999107304,,response,,,,99,,,,,,,Space,keypress(Space),,,,,,,,---- -- ----- -- ------ - ------- --- ----------<br>------------- ------ ------ ---- ---- ------- ----- -- ----<br>-------- ------- -- ---------- --- - --- ----- ----- ----<br>---- not --- ----- --- ---- ---- ------- ----- ---- -------<br>--- --- -- ----- -- --- ---- -- --- ---- -- ------ ------<br>--- ----- -- ----,160428.20000000298,160427.39999999106,160204.134,160212.79999999702,160220.504,160437.455,,29,not
screen,html.Screen,2_1_0_1_30,2022-02-17T16:45:38.005Z,,,,,,,,,,,,,,,,,53,,,,,,,,,,,,,,146.24500000299304,,response,,,,99,,,,,,,Space,keypress(Space),,,,,,,,---- -- ----- -- ------ - ------- --- ----------<br>------------- ------ ------ ---- ---- ------- ----- -- ----<br>-------- ------- -- ---------- --- - --- ----- ----- ----<br>---- --- how ----- --- ---- ---- ------- ----- ---- -------<br>--- --- -- ----- -- --- ---- -- --- ---- -- ------ ------<br>--- ----- -- ----,160584.5,160583.70000000298,160420.778,160428.5,160437.455,160587.146,,30,how
screen,html.Screen,2_1_0_1_31,2022-02-17T16:45:38.145Z,,,,,,,,,,,,,,,,,53,,,,,,,,,,,,,,136.55400000297232,,response,,,,99,,,,,,,Space,keypress(Space),,,,,,,,---- -- ----- -- ------ - ------- --- ----------<br>------------- ------ ------ ---- ---- ------- ----- -- ----<br>-------- ------- -- ---------- --- - --- ----- ----- ----<br>---- --- --- close --- ---- ---- ------- ----- ---- -------<br>--- --- -- ----- -- --- ---- -- --- ---- -- ------ ------<br>--- ----- -- ----,160724.70000000298,160723.70000000298,160570.492,160584.79999999702,160587.146,160737.464,,31,close
screen,html.Screen,2_1_0_1_32,2022-02-17T16:45:38.302Z,,,,,,,,,,,,,,,,,53,,,,,,,,,,,,,,143.13599999403232,,response,,,,99,,,,,,,Space,keypress(Space),,,,,,,,---- -- ----- -- ------ - ------- --- ----------<br>------------- ------ ------ ---- ---- ------- ----- -- ----<br>-------- ------- -- ---------- --- - --- ----- ----- ----<br>---- --- --- ----- you ---- ---- ------- ----- ---- -------<br>--- --- -- ----- -- --- ---- -- --- ---- -- ------ ------<br>--- ----- -- ----,160882,160880.59999999404,160720.642,160724.89999999106,160737.464,160887.161,,32,you
screen,html.Screen,2_1_0_1_33,2022-02-17T16:45:38.451Z,,,,,,,,,,,,,,,,,53,,,,,,,,,,,,,,142.83900000000722,,response,,,,99,,,,,,,Space,keypress(Space),,,,,,,,---- -- ----- -- ------ - ------- --- ----------<br>------------- ------ ------ ---- ---- ------- ----- -- ----<br>-------- ------- -- ---------- --- - --- ----- ----- ----<br>---- --- --- ----- --- feel ---- ------- ----- ---- -------<br>--- --- -- ----- -- --- ---- -- --- ---- -- ------ ------<br>--- ----- -- ----,161031,161030,160870.724,160882.29999999702,160887.161,161037.079,,33,feel
screen,html.Screen,2_1_0_1_34,2022-02-17T16:45:38.622Z,,,,,,,,,,,,,,,,,53,,,,,,,,,,,,,,163.8209999910614,,response,,,,99,,,,,,,Space,keypress(Space),,,,,,,,---- -- ----- -- ------ - ------- --- ----------<br>------------- ------ ------ ---- ---- ------- ----- -- ----<br>-------- ------- -- ---------- --- - --- ----- ----- ----<br>---- --- --- ----- --- ---- that ------- ----- ---- -------<br>--- --- -- ----- -- --- ---- -- --- ---- -- ------ ------<br>--- ----- -- ----,161202,161200.89999999106,161020.623,161031.20000000298,161037.079,161220.68,,34,that
screen,html.Screen,2_1_0_1_35,2022-02-17T16:45:38.794Z,,,,,,,,,,,,,,,,,53,,,,,,,,,,,,,,152.02000000298722,,response,,,,99,,,,,,,Space,keypress(Space),,,,,,,,---- -- ----- -- ------ - ------- --- ----------<br>------------- ------ ------ ---- ---- ------- ----- -- ----<br>-------- ------- -- ---------- --- - --- ----- ----- ----<br>---- --- --- ----- --- ---- ---- matters ----- ---- -------<br>--- --- -- ----- -- --- ---- -- --- ---- -- ------ ------<br>--- ----- -- ----,161373.89999999106,161372.70000000298,161187.095,161202.29999999702,161220.68,161387.018,,35,matters
screen,html.Screen,2_1_0_1_36,2022-02-17T16:45:39.036Z,,,,,,,,,,,,,,,,,53,,,,,,,,,,,,,,227.5819999940286,,response,,,,99,,,,,,,Space,keypress(Space),,,,,,,,"---- -- ----- -- ------ - ------- --- ----------<br>------------- ------ ------ ---- ---- ------- ----- -- ----<br>-------- ------- -- ---------- --- - --- ----- ----- ----<br>---- --- --- ----- --- ---- ---- ------- most, ---- -------<br>--- --- -- ----- -- --- ---- -- --- ---- -- ------ ------<br>--- ----- -- ----",161615.89999999106,161614.59999999404,161370.604,161374.29999999702,161387.018,161620.289,,36,"most,"
screen,html.Screen,2_1_0_1_37,2022-02-17T16:45:39.223Z,,,,,,,,,,,,,,,,,53,,,,,,,,,,,,,,181.61099999106955,,response,,,,99,,,,,,,Space,keypress(Space),,,,,,,,---- -- ----- -- ------ - ------- --- ----------<br>------------- ------ ------ ---- ---- ------- ----- -- ----<br>-------- ------- -- ---------- --- - --- ----- ----- ----<br>---- --- --- ----- --- ---- ---- ------- ----- it's -------<br>--- --- -- ----- -- --- ---- -- --- ---- -- ------ ------<br>--- ----- -- ----,161802.89999999106,161801.89999999106,161603.949,161616.20000000298,161620.289,161820.557,,37,it's
screen,html.Screen,2_1_0_1_38,2022-02-17T16:45:39.547Z,,,,,,,,,,,,,,,,,53,,,,,,,,,,,,,,305.24299999701907,,response,,,,99,,,,,,,Space,keypress(Space),,,,,,,,---- -- ----- -- ------ - ------- --- ----------<br>------------- ------ ------ ---- ---- ------- ----- -- ----<br>-------- ------- -- ---------- --- - --- ----- ----- ----<br>---- --- --- ----- --- ---- ---- ------- ----- ---- whether<br>--- --- -- ----- -- --- ---- -- --- ---- -- ------ ------<br>--- ----- -- ----,162126.89999999106,162125.79999999702,161787.209,161803.09999999404,161820.557,162137.086,,38,whether
screen,html.Screen,2_1_0_1_39,2022-02-17T16:45:39.764Z,,,,,,,,,,,,,,,,,53,,,,,,,,,,,,,,206.21399999700952,,response,,,,99,,,,,,,Space,keypress(Space),,,,,,,,---- -- ----- -- ------ - ------- --- ----------<br>------------- ------ ------ ---- ---- ------- ----- -- ----<br>-------- ------- -- ---------- --- - --- ----- ----- ----<br>---- --- --- ----- --- ---- ---- ------- ----- ---- -------<br>you --- -- ----- -- --- ---- -- --- ---- -- ------ ------<br>--- ----- -- ----,162344.09999999404,162343.29999999702,162120.491,162127.09999999404,162137.086,162353.53,,39,you
screen,html.Screen,2_1_0_1_40,2022-02-17T16:45:39.931Z,,,,,,,,,,,,,,,,,53,,,,,,,,,,,,,,156.36999999106047,,response,,,,99,,,,,,,Space,keypress(Space),,,,,,,,---- -- ----- -- ------ - ------- --- ----------<br>------------- ------ ------ ---- ---- ------- ----- -- ----<br>-------- ------- -- ---------- --- - --- ----- ----- ----<br>---- --- --- ----- --- ---- ---- ------- ----- ---- -------<br>--- are -- ----- -- --- ---- -- --- ---- -- ------ ------<br>--- ----- -- ----,162510.79999999702,162509.89999999106,162337.124,162344.39999999106,162353.53,162520.431,,40,are
screen,html.Screen,2_1_0_1_41,2022-02-17T16:45:40.111Z,,,,,,,,,,,,,,,,,53,,,,,,,,,,,,,,169.86899999700836,,response,,,,99,,,,,,,Space,keypress(Space),,,,,,,,---- -- ----- -- ------ - ------- --- ----------<br>------------- ------ ------ ---- ---- ------- ----- -- ----<br>-------- ------- -- ---------- --- - --- ----- ----- ----<br>---- --- --- ----- --- ---- ---- ------- ----- ---- -------<br>--- --- as ----- -- --- ---- -- --- ---- -- ------ ------<br>--- ----- -- ----,162691.29999999702,162690.29999999702,162503.537,162511,162520.431,162703.504,,41,as
screen,html.Screen,2_1_0_1_42,2022-02-17T16:45:40.301Z,,,,,,,,,,,,,,,,,53,,,,,,,,,,,,,,176.09599999405327,,response,,,,99,,,,,,,Space,keypress(Space),,,,,,,,---- -- ----- -- ------ - ------- --- ----------<br>------------- ------ ------ ---- ---- ------- ----- -- ----<br>-------- ------- -- ---------- --- - --- ----- ----- ----<br>---- --- --- ----- --- ---- ---- ------- ----- ---- -------<br>--- --- -- close -- --- ---- -- --- ---- -- ------ ------<br>--- ----- -- ----,162880.5,162879.59999999404,162687.091,162691.5,162703.504,162886.809,,42,close
screen,html.Screen,2_1_0_1_43,2022-02-17T16:45:40.498Z,,,,,,,,,,,,,,,,,53,,,,,,,,,,,,,,189.4909999970114,,response,,,,99,,,,,,,Space,keypress(Space),,,,,,,,---- -- ----- -- ------ - ------- --- ----------<br>------------- ------ ------ ---- ---- ------- ----- -- ----<br>-------- ------- -- ---------- --- - --- ----- ----- ----<br>---- --- --- ----- --- ---- ---- ------- ----- ---- -------<br>--- --- -- ----- as --- ---- -- --- ---- -- ------ ------<br>--- ----- -- ----,163077.39999999106,163076.29999999702,162870.219,162880.70000000298,162886.809,163086.772,,43,as
screen,html.Screen,2_1_0_1_44,2022-02-17T16:45:40.701Z,,,,,,,,,,,,,,,,,53,,,,,,,,,,,,,,192.52799999702256,,response,,,,99,,,,,,,Space,keypress(Space),,,,,,,,---- -- ----- -- ------ - ------- --- ----------<br>------------- ------ ------ ---- ---- ------- ----- -- ----<br>-------- ------- -- ---------- --- - --- ----- ----- ----<br>---- --- --- ----- --- ---- ---- ------- ----- ---- -------<br>--- --- -- ----- -- you ---- -- --- ---- -- ------ ------<br>--- ----- -- ----,163280.39999999106,163279.29999999702,163070.331,163077.70000000298,163086.772,163286.798,,44,you
screen,html.Screen,2_1_0_1_45,2022-02-17T16:45:40.948Z,,,,,,,,,,,,,,,,,53,,,,,,,,,,,,,,240.30199999402976,,response,,,,99,,,,,,,Space,keypress(Space),,,,,,,,---- -- ----- -- ------ - ------- --- ----------<br>------------- ------ ------ ---- ---- ------- ----- -- ----<br>-------- ------- -- ---------- --- - --- ----- ----- ----<br>---- --- --- ----- --- ---- ---- ------- ----- ---- -------<br>--- --- -- ----- -- --- want -- --- ---- -- ------ ------<br>--- ----- -- ----,163527.89999999106,163527.09999999404,163270.26,163280.59999999404,163286.798,163536.669,,45,want
screen,html.Screen,2_1_0_1_46,2022-02-17T16:45:41.255Z,,,,,,,,,,,,,,,,,53,,,,,,,,,,,,,,297.0310000029858,,response,,,,99,,,,,,,Space,keypress(Space),,,,,,,,---- -- ----- -- ------ - ------- --- ----------<br>------------- ------ ------ ---- ---- ------- ----- -- ----<br>-------- ------- -- ---------- --- - --- ----- ----- ----<br>---- --- --- ----- --- ---- ---- ------- ----- ---- -------<br>--- --- -- ----- -- --- ---- to --- ---- -- ------ ------<br>--- ----- -- ----,163834.70000000298,163833.70000000298,163520.028,163528.09999999404,163536.669,163853.305,,46,to
screen,html.Screen,2_1_0_1_47,2022-02-17T16:45:41.497Z,,,,,,,,,,,,,,,,,53,,,,,,,,,,,,,,222.29499999404652,,response,,,,99,,,,,,,Space,keypress(Space),,,,,,,,"---- -- ----- -- ------ - ------- --- ----------<br>------------- ------ ------ ---- ---- ------- ----- -- ----<br>-------- ------- -- ---------- --- - --- ----- ----- ----<br>---- --- --- ----- --- ---- ---- ------- ----- ---- -------<br>--- --- -- ----- -- --- ---- -- be, ---- -- ------ ------<br>--- ----- -- ----",164076.5,164075.59999999404,163819.996,163835,163853.305,164086.582,,47,"be,"
screen,html.Screen,2_1_0_1_48,2022-02-17T16:45:41.675Z,,,,,,,,,,,,,,,,,53,,,,,,,,,,,,,,167.7179999970249,,response,,,,99,,,,,,,Space,keypress(Space),,,,,,,,---- -- ----- -- ------ - ------- --- ----------<br>------------- ------ ------ ---- ---- ------- ----- -- ----<br>-------- ------- -- ---------- --- - --- ----- ----- ----<br>---- --- --- ----- --- ---- ---- ------- ----- ---- -------<br>--- --- -- ----- -- --- ---- -- --- even -- ------ ------<br>--- ----- -- ----,164255.09999999404,164254.29999999702,164069.948,164076.59999999404,164086.582,164269.95,,48,even
screen,html.Screen,2_1_0_1_49,2022-02-17T16:45:42.060Z,,,,,,,,,,,,,,,,,53,,,,,,,,,,,,,,369.44999999104766,,response,,,,99,,,,,,,Space,keypress(Space),,,,,,,,---- -- ----- -- ------ - ------- --- ----------<br>------------- ------ ------ ---- ---- ------- ----- -- ----<br>-------- ------- -- ---------- --- - --- ----- ----- ----<br>---- --- --- ----- --- ---- ---- ------- ----- ---- -------<br>--- --- -- ----- -- --- ---- -- --- ---- if ------ ------<br>--- ----- -- ----,164640,164639.39999999106,164253.205,164255.20000000298,164269.95,164653.139,,49,if
screen,html.Screen,2_1_0_1_50,2022-02-17T16:45:42.257Z,,,,,,,,,,,,,,,,,53,,,,,,,,,,,,,,183.56100000298466,,response,,,,99,,,,,,,Space,keypress(Space),,,,,,,,---- -- ----- -- ------ - ------- --- ----------<br>------------- ------ ------ ---- ---- ------- ----- -- ----<br>-------- ------- -- ---------- --- - --- ----- ----- ----<br>---- --- --- ----- --- ---- ---- ------- ----- ---- -------<br>--- --- -- ----- -- --- ---- -- --- ---- -- that's ------<br>--- ----- -- ----,164837.29999999702,164836.70000000298,164636.522,164640.29999999702,164653.139,164853.108,,50,that's
screen,html.Screen,2_1_0_1_51,2022-02-17T16:45:42.429Z,,,,,,,,,,,,,,,,,53,,,,,,,,,,,,,,155.19199999701232,,response,,,,99,,,,,,,Space,keypress(Space),,,,,,,,---- -- ----- -- ------ - ------- --- ----------<br>------------- ------ ------ ---- ---- ------- ----- -- ----<br>-------- ------- -- ---------- --- - --- ----- ----- ----<br>---- --- --- ----- --- ---- ---- ------- ----- ---- -------<br>--- --- -- ----- -- --- ---- -- --- ---- -- ------ really<br>--- ----- -- ----,165008.89999999106,165008.29999999702,164836.485,164837.39999999106,164853.108,165019.712,,51,really
screen,html.Screen,2_1_0_1_52,2022-02-17T16:45:42.614Z,,,,,,,,,,,,,,,,,53,,,,,,,,,,,,,,173.88799999404,,response,,,,99,,,,,,,Space,keypress(Space),,,,,,,,---- -- ----- -- ------ - ------- --- ----------<br>------------- ------ ------ ---- ---- ------- ----- -- ----<br>-------- ------- -- ---------- --- - --- ----- ----- ----<br>---- --- --- ----- --- ---- ---- ------- ----- ---- -------<br>--- --- -- ----- -- --- ---- -- --- ---- -- ------ ------<br>not ----- -- ----,165194,165193.59999999404,165003.095,165009,165019.712,165203.03,,52,not
screen,html.Screen,2_1_0_1_53,2022-02-17T16:45:42.828Z,,,,,,,,,,,,,,,,,53,,,,,,,,,,,,,,204.36999999106047,,response,,,,99,,,,,,,Space,keypress(Space),,,,,,,,---- -- ----- -- ------ - ------- --- ----------<br>------------- ------ ------ ---- ---- ------- ----- -- ----<br>-------- ------- -- ---------- --- - --- ----- ----- ----<br>---- --- --- ----- --- ---- ---- ------- ----- ---- -------<br>--- --- -- ----- -- --- ---- -- --- ---- -- ------ ------<br>--- close -- ----,165408,165407.39999999106,165186.359,165194,165203.03,165419.689,,53,close
screen,html.Screen,2_1_0_1_54,2022-02-17T16:45:43.019Z,,,,,,,,,,,,,,,,,53,,,,,,,,,,,,,,178.0110000029672,,response,,,,99,,,,,,,Space,keypress(Space),,,,,,,,---- -- ----- -- ------ - ------- --- ----------<br>------------- ------ ------ ---- ---- ------- ----- -- ----<br>-------- ------- -- ---------- --- - --- ----- ----- ----<br>---- --- --- ----- --- ---- ---- ------- ----- ---- -------<br>--- --- -- ----- -- --- ---- -- --- ---- -- ------ ------<br>--- ----- at ----,165598.29999999702,165597.70000000298,165403.012,165408.09999999404,165419.689,165603.011,,54,at
screen,html.Screen,2_1_0_1_55,2022-02-17T16:45:43.814Z,,,,,,,,,,,,,,,,,53,,,,,,,,,,,,,,790.3889999910607,,response,,,,99,,,,,,,Space,keypress(Space),,,,,,,,---- -- ----- -- ------ - ------- --- ----------<br>------------- ------ ------ ---- ---- ------- ----- -- ----<br>-------- ------- -- ---------- --- - --- ----- ----- ----<br>---- --- --- ----- --- ---- ---- ------- ----- ---- -------<br>--- --- -- ----- -- --- ---- -- --- ---- -- ------ ------<br>--- ----- -- all.,166393.89999999106,166393.39999999106,165586.332,165598.59999999404,165603.011,166402.87,,55,all.
Item 99,flow.Loop,2_1_0_1,2022-02-17T16:45:43.814Z,,,,,,,,,,,,,,,,,,,,,,,,,,,,,,,16437.84999999107,,completion,,,,,F,,,,,,,,,,,silence,,,,,166394.09999999404,166393.39999999106,149905.578,149907.5,149955.55,166402.87,,,
Question 1,html.Screen,2_1_0_2,2022-02-17T16:45:48.111Z,,,,,,,,,,,,,,,,,,,,,,,,,,,,false,FALSE,,4285.229999994044,,response,,,,99,F,,,,,,TRUE,click #choice-1,,,,silence,,,,,170690.39999999106,170688.09999999404,166386.179,166394.20000000298,166402.87,170719.044,,,
Question 2,html.Screen,2_1_0_3,2022-02-17T16:45:55.089Z,,,,,,,,,,,,,,,,,,,,,,,,,,,,true,TRUE,,6948.555999994045,,response,,,,99,F,,,,,,TRUE,click #choice-1,,,,silence,,,,,177668.79999999702,177667.59999999404,170685.627,170690.70000000298,170719.044,177684.457,,,
Item 99,flow.Sequence,2_1_0,2022-02-17T16:45:55.089Z,,,,,,,,,,,,,,,,,,,,,,,,,,,,,,,37743.83199999403,,completion,,,,,,,,,,,,,,,,,,,,,177669.29999999702,177667.59999999404,139907.105,139911.20000000298,139923.768,177684.457,,,
Holding screen,html.Screen,2_1_1_0,2022-02-17T16:46:05.088Z,,,,,,,,,,,,,,,,,,,,,,,,,,,,,,,9998.395000000019,,timeout,,,,,,,,,,,,,,,,,,,,,187668,187666.237,177667.797,177669.59999999404,177684.457,187682.852,,,
screen,html.Screen,2_1_1_1_0,2022-02-17T16:46:06.261Z,,,,,,,,,,,,,,,,,54,,,,,,,,,,,,,,1156.6479999999865,,response,,,,100,,,,,,,Space,keypress(Space),,,,,,,,At --- ---- --- ------ ----- ------- ---- -- --- ------- --<br>------- ---------- ------ -- ----- -- ----- -- ---- ------<br>--- ----- --- --- ------ -------- ----- --- ------ ----- --<br>----- ----- ---------- --- --- ------ ------ ---- -- ------<br>------- --- ------ ----- --- ---- ------- -- ---- --- --<br>------- ------,188840.5,188839.5,187666.237,187668.39999999106,187682.852,188849.355,,0,At
screen,html.Screen,2_1_1_1_1,2022-02-17T16:46:07.198Z,,,,,,,,,,,,,,,,,54,,,,,,,,,,,,,,927.0449999910488,,response,,,,100,,,,,,,Space,keypress(Space),,,,,,,,-- the ---- --- ------ ----- ------- ---- -- --- ------- --<br>------- ---------- ------ -- ----- -- ----- -- ---- ------<br>--- ----- --- --- ------ -------- ----- --- ------ ----- --<br>----- ----- ---------- --- --- ------ ------ ---- -- ------<br>------- --- ------ ----- --- ---- ------- -- ---- --- --<br>------- ------,189777.5,189776.39999999106,188832.976,188840.79999999702,188849.355,189782.61,,1,the
screen,html.Screen,2_1_1_1_2,2022-02-17T16:46:07.482Z,,,,,,,,,,,,,,,,,54,,,,,,,,,,,,,,277.7899999910733,,response,,,,100,,,,,,,Space,keypress(Space),,,,,,,,-- --- time --- ------ ----- ------- ---- -- --- ------- --<br>------- ---------- ------ -- ----- -- ----- -- ---- ------<br>--- ----- --- --- ------ -------- ----- --- ------ ----- --<br>----- ----- ---------- --- --- ------ ------ ---- -- ------<br>------- --- ------ ----- --- ---- ------- -- ---- --- --<br>------- ------,190061.39999999106,190060.39999999106,189766.096,189777.70000000298,189782.61,190065.904,,2,time
screen,html.Screen,2_1_1_1_3,2022-02-17T16:46:07.755Z,,,,,,,,,,,,,,,,,54,,,,,,,,,,,,,,267.3959999970102,,response,,,,100,,,,,,,Space,keypress(Space),,,,,,,,-- --- ---- the ------ ----- ------- ---- -- --- ------- --<br>------- ---------- ------ -- ----- -- ----- -- ---- ------<br>--- ----- --- --- ------ -------- ----- --- ------ ----- --<br>----- ----- ---------- --- --- ------ ------ ---- -- ------<br>------- --- ------ ----- --- ---- ------- -- ---- --- --<br>------- ------,190334.39999999106,190333.29999999702,190049.349,190061.70000000298,190065.904,190349.415,,3,the
screen,html.Screen,2_1_1_1_4,2022-02-17T16:46:07.989Z,,,,,,,,,,,,,,,,,54,,,,,,,,,,,,,,218.38499999701162,,response,,,,100,,,,,,,Space,keypress(Space),,,,,,,,-- --- ---- --- French ----- ------- ---- -- --- ------- --<br>------- ---------- ------ -- ----- -- ----- -- ---- ------<br>--- ----- --- --- ------ -------- ----- --- ------ ----- --<br>----- ----- ---------- --- --- ------ ------ ---- -- ------<br>------- --- ------ ----- --- ---- ------- -- ---- --- --<br>------- ------,190568.89999999106,190567.79999999702,190332.75,190334.70000000298,190349.415,190582.645,,4,French
screen,html.Screen,2_1_1_1_5,2022-02-17T16:46:08.251Z,,,,,,,,,,,,,,,,,54,,,,,,,,,,,,,,246.95499999405,,response,,,,100,,,,,,,Space,keypress(Space),,,,,,,,-- --- ---- --- ------ crown ------- ---- -- --- ------- --<br>------- ---------- ------ -- ----- -- ----- -- ---- ------<br>--- ----- --- --- ------ -------- ----- --- ------ ----- --<br>----- ----- ---------- --- --- ------ ------ ---- -- ------<br>------- --- ------ ----- --- ---- ------- -- ---- --- --<br>------- ------,190830.70000000298,190829.59999999404,190565.998,190569.09999999404,190582.645,190849.069,,5,crown
screen,html.Screen,2_1_1_1_6,2022-02-17T16:46:08.524Z,,,,,,,,,,,,,,,,,54,,,,,,,,,,,,,,253.8309999910707,,response,,,,100,,,,,,,Space,keypress(Space),,,,,,,,-- --- ---- --- ------ ----- secured ---- -- --- ------- --<br>------- ---------- ------ -- ----- -- ----- -- ---- ------<br>--- ----- --- --- ------ -------- ----- --- ------ ----- --<br>----- ----- ---------- --- --- ------ ------ ---- -- ------<br>------- --- ------ ----- --- ---- ------- -- ---- --- --<br>------- ------,191103.89999999106,191102.89999999106,190832.382,190831,190849.069,191115.95,,6,secured
screen,html.Screen,2_1_1_1_7,2022-02-17T16:46:08.783Z,,,,,,,,,,,,,,,,,54,,,,,,,,,,,,,,246.34999999700813,,response,,,,100,,,,,,,Space,keypress(Space),,,,,,,,-- --- ---- --- ------ ----- ------- much -- --- ------- --<br>------- ---------- ------ -- ----- -- ----- -- ---- ------<br>--- ----- --- --- ------ -------- ----- --- ------ ----- --<br>----- ----- ---------- --- --- ------ ------ ---- -- ------<br>------- --- ------ ----- --- ---- ------- -- ---- --- --<br>------- ------,191363.29999999702,191362.29999999702,191099.196,191104.20000000298,191115.95,191365.634,,7,much
screen,html.Screen,2_1_1_1_8,2022-02-17T16:46:08.988Z,,,,,,,,,,,,,,,,,54,,,,,,,,,,,,,,201.76599999106838,,response,,,,100,,,,,,,Space,keypress(Space),,,,,,,,-- --- ---- --- ------ ----- ------- ---- of --- ------- --<br>------- ---------- ------ -- ----- -- ----- -- ---- ------<br>--- ----- --- --- ------ -------- ----- --- ------ ----- --<br>----- ----- ---------- --- --- ------ ------ ---- -- ------<br>------- --- ------ ----- --- ---- ------- -- ---- --- --<br>------- ------,191568.29999999702,191567.39999999106,191348.976,191363.59999999404,191365.634,191582.307,,8,of
screen,html.Screen,2_1_1_1_9,2022-02-17T16:46:09.178Z,,,,,,,,,,,,,,,,,54,,,,,,,,,,,,,,174.5929999910586,,response,,,,100,,,,,,,Space,keypress(Space),,,,,,,,-- --- ---- --- ------ ----- ------- ---- -- its ------- --<br>------- ---------- ------ -- ----- -- ----- -- ---- ------<br>--- ----- --- --- ------ -------- ----- --- ------ ----- --<br>----- ----- ---------- --- --- ------ ------ ---- -- ------<br>------- --- ------ ----- --- ---- ------- -- ---- --- --<br>------- ------,191757.79999999702,191756.89999999106,191565.874,191568.59999999404,191582.307,191765.533,,9,its
screen,html.Screen,2_1_1_1_10,2022-02-17T16:46:09.434Z,,,,,,,,,,,,,,,,,54,,,,,,,,,,,,,,247.16700000298442,,response,,,,100,,,,,,,Space,keypress(Space),,,,,,,,-- --- ---- --- ------ ----- ------- ---- -- --- revenue --<br>------- ---------- ------ -- ----- -- ----- -- ---- ------<br>--- ----- --- --- ------ -------- ----- --- ------ ----- --<br>----- ----- ---------- --- --- ------ ------ ---- -- ------<br>------- --- ------ ----- --- ---- ------- -- ---- --- --<br>------- ------,192013.89999999106,192012.70000000298,191748.933,191758,191765.533,192038.095,,10,revenue
screen,html.Screen,2_1_1_1_11,2022-02-17T16:46:09.713Z,,,,,,,,,,,,,,,,,54,,,,,,,,,,,,,,253.50499999403837,,response,,,,100,,,,,,,Space,keypress(Space),,,,,,,,-- --- ---- --- ------ ----- ------- ---- -- --- ------- by<br>------- ---------- ------ -- ----- -- ----- -- ---- ------<br>--- ----- --- --- ------ -------- ----- --- ------ ----- --<br>----- ----- ---------- --- --- ------ ------ ---- -- ------<br>------- --- ------ ----- --- ---- ------- -- ---- --- --<br>------- ------,192292.79999999702,192291.59999999404,191998.855,192014.09999999404,192038.095,192298.801,,11,by
screen,html.Screen,2_1_1_1_12,2022-02-17T16:46:10.055Z,,,,,,,,,,,,,,,,,54,,,,,,,,,,,,,,334.498999997013,,response,,,,100,,,,,,,Space,keypress(Space),,,,,,,,-- --- ---- --- ------ ----- ------- ---- -- --- ------- --<br>issuing ---------- ------ -- ----- -- ----- -- ---- ------<br>--- ----- --- --- ------ -------- ----- --- ------ ----- --<br>----- ----- ---------- --- --- ------ ------ ---- -- ------<br>------- --- ------ ----- --- ---- ------- -- ---- --- --<br>------- ------,192634.5,192633.29999999702,192282.365,192293,192298.801,192649.068,,12,issuing
screen,html.Screen,2_1_1_1_13,2022-02-17T16:46:10.249Z,,,,,,,,,,,,,,,,,54,,,,,,,,,,,,,,178.53199999404023,,response,,,,100,,,,,,,Space,keypress(Space),,,,,,,,-- --- ---- --- ------ ----- ------- ---- -- --- ------- --<br>------- government ------ -- ----- -- ----- -- ---- ------<br>--- ----- --- --- ------ -------- ----- --- ------ ----- --<br>----- ----- ---------- --- --- ------ ------ ---- -- ------<br>------- --- ------ ----- --- ---- ------- -- ---- --- --<br>------- ------,192828.59999999404,192827.59999999404,192632.311,192634.79999999702,192649.068,192832.079,,13,government
screen,html.Screen,2_1_1_1_14,2022-02-17T16:46:10.456Z,,,,,,,,,,,,,,,,,54,,,,,,,,,,,,,,202.8209999910614,,response,,,,100,,,,,,,Space,keypress(Space),,,,,,,,-- --- ---- --- ------ ----- ------- ---- -- --- ------- --<br>------- ---------- bonds. -- ----- -- ----- -- ---- ------<br>--- ----- --- --- ------ -------- ----- --- ------ ----- --<br>----- ----- ---------- --- --- ------ ------ ---- -- ------<br>------- --- ------ ----- --- ---- ------- -- ---- --- --<br>------- ------,193035.79999999702,193034.89999999106,192815.647,192828.79999999702,192832.079,193048.987,,14,bonds.
screen,html.Screen,2_1_1_1_15,2022-02-17T16:46:10.664Z,,,,,,,,,,,,,,,,,54,,,,,,,,,,,,,,194.0130000000063,,response,,,,100,,,,,,,Space,keypress(Space),,,,,,,,-- --- ---- --- ------ ----- ------- ---- -- --- ------- --<br>------- ---------- ------ In ----- -- ----- -- ---- ------<br>--- ----- --- --- ------ -------- ----- --- ------ ----- --<br>----- ----- ---------- --- --- ------ ------ ---- -- ------<br>------- --- ------ ----- --- ---- ------- -- ---- --- --<br>------- ------,193244,193243,193032.044,193036,193048.987,193248.667,,15,In
screen,html.Screen,2_1_1_1_16,2022-02-17T16:46:10.866Z,,,,,,,,,,,,,,,,,54,,,,,,,,,,,,,,196.13299999703304,,response,,,,100,,,,,,,Space,keypress(Space),,,,,,,,"-- --- ---- --- ------ ----- ------- ---- -- --- ------- --<br>------- ---------- ------ -- 1727, -- ----- -- ---- ------<br>--- ----- --- --- ------ -------- ----- --- ------ ----- --<br>----- ----- ---------- --- --- ------ ------ ---- -- ------<br>------- --- ------ ----- --- ---- ------- -- ---- --- --<br>------- ------",193445.79999999702,193444.79999999702,193232.001,193245.70000000298,193248.667,193448.62,,16,"1727,"
screen,html.Screen,2_1_1_1_17,2022-02-17T16:46:11.087Z,,,,,,,,,,,,,,,,,54,,,,,,,,,,,,,,217.4799999940442,,response,,,,100,,,,,,,Space,keypress(Space),,,,,,,,-- --- ---- --- ------ ----- ------- ---- -- --- ------- --<br>------- ---------- ------ -- ----- in ----- -- ---- ------<br>--- ----- --- --- ------ -------- ----- --- ------ ----- --<br>----- ----- ---------- --- --- ------ ------ ---- -- ------<br>------- --- ------ ----- --- ---- ------- -- ---- --- --<br>------- ------,193667.09999999404,193666.09999999404,193432.187,193446.09999999404,193448.62,193682.209,,17,in
screen,html.Screen,2_1_1_1_18,2022-02-17T16:46:11.293Z,,,,,,,,,,,,,,,,,54,,,,,,,,,,,,,,190.19099999105674,,response,,,,100,,,,,,,Space,keypress(Space),,,,,,,,-- --- ---- --- ------ ----- ------- ---- -- --- ------- --<br>------- ---------- ------ -- ----- -- order -- ---- ------<br>--- ----- --- --- ------ -------- ----- --- ------ ----- --<br>----- ----- ---------- --- --- ------ ------ ---- -- ------<br>------- --- ------ ----- --- ---- ------- -- ---- --- --<br>------- ------,193873.29999999702,193872.39999999106,193665.269,193667.39999999106,193682.209,193881.868,,18,order
screen,html.Screen,2_1_1_1_19,2022-02-17T16:46:11.481Z,,,,,,,,,,,,,,,,,54,,,,,,,,,,,,,,178.13200000001234,,response,,,,100,,,,,,,Space,keypress(Space),,,,,,,,-- --- ---- --- ------ ----- ------- ---- -- --- ------- --<br>------- ---------- ------ -- ----- -- ----- to ---- ------<br>--- ----- --- --- ------ -------- ----- --- ------ ----- --<br>----- ----- ---------- --- --- ------ ------ ---- -- ------<br>------- --- ------ ----- --- ---- ------- -- ---- --- --<br>------- ------,194060.59999999404,194060,193865.227,193873.5,193881.868,194065.181,,19,to
screen,html.Screen,2_1_1_1_20,2022-02-17T16:46:11.647Z,,,,,,,,,,,,,,,,,54,,,,,,,,,,,,,,160.91899999402813,,response,,,,100,,,,,,,Space,keypress(Space),,,,,,,,-- --- ---- --- ------ ----- ------- ---- -- --- ------- --<br>------- ---------- ------ -- ----- -- ----- -- save ------<br>--- ----- --- --- ------ -------- ----- --- ------ ----- --<br>----- ----- ---------- --- --- ------ ------ ---- -- ------<br>------- --- ------ ----- --- ---- ------- -- ---- --- --<br>------- ------,194227.29999999702,194226.09999999404,194048.506,194060.70000000298,194065.181,194231.852,,20,save
screen,html.Screen,2_1_1_1_21,2022-02-17T16:46:11.788Z,,,,,,,,,,,,,,,,,54,,,,,,,,,,,,,,135.1479999999865,,response,,,,100,,,,,,,Space,keypress(Space),,,,,,,,"-- --- ---- --- ------ ----- ------- ---- -- --- ------- --<br>------- ---------- ------ -- ----- -- ----- -- ---- money,<br>--- ----- --- --- ------ -------- ----- --- ------ ----- --<br>----- ----- ---------- --- --- ------ ------ ---- -- ------<br>------- --- ------ ----- --- ---- ------- -- ---- --- --<br>------- ------",194368.09999999404,194367,194215.202,194227.5,194231.852,194382.102,,21,"money,"
screen,html.Screen,2_1_1_1_22,2022-02-17T16:46:11.966Z,,,,,,,,,,,,,,,,,54,,,,,,,,,,,,,,162.69799999700626,,response,,,,100,,,,,,,Space,keypress(Space),,,,,,,,-- --- ---- --- ------ ----- ------- ---- -- --- ------- --<br>------- ---------- ------ -- ----- -- ----- -- ---- ------<br>the ----- --- --- ------ -------- ----- --- ------ ----- --<br>----- ----- ---------- --- --- ------ ------ ---- -- ------<br>------- --- ------ ----- --- ---- ------- -- ---- --- --<br>------- ------,194545.79999999702,194544.79999999702,194365.132,194368.39999999106,194382.102,194565.171,,22,the
screen,html.Screen,2_1_1_1_23,2022-02-17T16:46:12.301Z,,,,,,,,,,,,,,,,,54,,,,,,,,,,,,,,314.7289999910572,,response,,,,100,,,,,,,Space,keypress(Space),,,,,,,,-- --- ---- --- ------ ----- ------- ---- -- --- ------- --<br>------- ---------- ------ -- ----- -- ----- -- ---- ------<br>--- state --- --- ------ -------- ----- --- ------ ----- --<br>----- ----- ---------- --- --- ------ ------ ---- -- ------<br>------- --- ------ ----- --- ---- ------- -- ---- --- --<br>------- ------,194881,194879.89999999106,194531.851,194546.09999999404,194565.171,194898.352,,23,state
screen,html.Screen,2_1_1_1_24,2022-02-17T16:46:12.515Z,,,,,,,,,,,,,,,,,54,,,,,,,,,,,,,,195.44799999700626,,response,,,,100,,,,,,,Space,keypress(Space),,,,,,,,-- --- ---- --- ------ ----- ------- ---- -- --- ------- --<br>------- ---------- ------ -- ----- -- ----- -- ---- ------<br>--- ----- cut --- ------ -------- ----- --- ------ ----- --<br>----- ----- ---------- --- --- ------ ------ ---- -- ------<br>------- --- ------ ----- --- ---- ------- -- ---- --- --<br>------- ------,195094.79999999702,195093.79999999702,194881.706,194881.20000000298,194898.352,195098.349,,24,cut
screen,html.Screen,2_1_1_1_25,2022-02-17T16:46:12.676Z,,,,,,,,,,,,,,,,,54,,,,,,,,,,,,,,156.2509999940521,,response,,,,100,,,,,,,Space,keypress(Space),,,,,,,,-- --- ---- --- ------ ----- ------- ---- -- --- ------- --<br>------- ---------- ------ -- ----- -- ----- -- ---- ------<br>--- ----- --- the ------ -------- ----- --- ------ ----- --<br>----- ----- ---------- --- --- ------ ------ ---- -- ------<br>------- --- ------ ----- --- ---- ------- -- ---- --- --<br>------- ------,195255.5,195254.59999999404,195081.897,195095,195098.349,195264.996,,25,the
screen,html.Screen,2_1_1_1_26,2022-02-17T16:46:12.847Z,,,,,,,,,,,,,,,,,54,,,,,,,,,,,,,,160.50399999998626,,response,,,,100,,,,,,,Space,keypress(Space),,,,,,,,-- --- ---- --- ------ ----- ------- ---- -- --- ------- --<br>------- ---------- ------ -- ----- -- ----- -- ---- ------<br>--- ----- --- --- bonds' -------- ----- --- ------ ----- --<br>----- ----- ---------- --- --- ------ ------ ---- -- ------<br>------- --- ------ ----- --- ---- ------- -- ---- --- --<br>------- ------,195426.29999999702,195425.5,195248.402,195255.79999999702,195264.996,195431.665,,26,bonds'
screen,html.Screen,2_1_1_1_27,2022-02-17T16:46:13.036Z,,,,,,,,,,,,,,,,,54,,,,,,,,,,,,,,183.03500000297208,,response,,,,100,,,,,,,Space,keypress(Space),,,,,,,,-- --- ---- --- ------ ----- ------- ---- -- --- ------- --<br>------- ---------- ------ -- ----- -- ----- -- ---- ------<br>--- ----- --- --- ------ interest ----- --- ------ ----- --<br>----- ----- ---------- --- --- ------ ------ ---- -- ------<br>------- --- ------ ----- --- ---- ------- -- ---- --- --<br>------- ------,195615.79999999702,195614.70000000298,195414.972,195426.59999999404,195431.665,195631.863,,27,interest
screen,html.Screen,2_1_1_1_28,2022-02-17T16:46:13.215Z,,,,,,,,,,,,,,,,,54,,,,,,,,,,,,,,161.5369999910472,,response,,,,100,,,,,,,Space,keypress(Space),,,,,,,,-- --- ---- --- ------ ----- ------- ---- -- --- ------- --<br>------- ---------- ------ -- ----- -- ----- -- ---- ------<br>--- ----- --- --- ------ -------- rate. --- ------ ----- --<br>----- ----- ---------- --- --- ------ ------ ---- -- ------<br>------- --- ------ ----- --- ---- ------- -- ---- --- --<br>------- ------,195794.70000000298,195793.39999999106,195615.114,195616.09999999404,195631.863,195798.269,,28,rate.
screen,html.Screen,2_1_1_1_29,2022-02-17T16:46:13.403Z,,,,,,,,,,,,,,,,,54,,,,,,,,,,,,,,183.13099999105907,,response,,,,100,,,,,,,Space,keypress(Space),,,,,,,,-- --- ---- --- ------ ----- ------- ---- -- --- ------- --<br>------- ---------- ------ -- ----- -- ----- -- ---- ------<br>--- ----- --- --- ------ -------- ----- The ------ ----- --<br>----- ----- ---------- --- --- ------ ------ ---- -- ------<br>------- --- ------ ----- --- ---- ------- -- ---- --- --<br>------- ------,195982.59999999404,195981.39999999106,195781.59,195795.09999999404,195798.269,195998.42,,29,The
screen,html.Screen,2_1_1_1_30,2022-02-17T16:46:13.575Z,,,,,,,,,,,,,,,,,54,,,,,,,,,,,,,,155.17999999402673,,response,,,,100,,,,,,,Space,keypress(Space),,,,,,,,-- --- ---- --- ------ ----- ------- ---- -- --- ------- --<br>------- ---------- ------ -- ----- -- ----- -- ---- ------<br>--- ----- --- --- ------ -------- ----- --- market ----- --<br>----- ----- ---------- --- --- ------ ------ ---- -- ------<br>------- --- ------ ----- --- ---- ------- -- ---- --- --<br>------- ------,196154.5,196153.59999999404,195981.786,195982.89999999106,195998.42,196164.83,,30,market
screen,html.Screen,2_1_1_1_31,2022-02-17T16:46:13.739Z,,,,,,,,,,,,,,,,,54,,,,,,,,,,,,,,153.46999999703257,,response,,,,100,,,,,,,Space,keypress(Space),,,,,,,,-- --- ---- --- ------ ----- ------- ---- -- --- ------- --<br>------- ---------- ------ -- ----- -- ----- -- ---- ------<br>--- ----- --- --- ------ -------- ----- --- ------ value --<br>----- ----- ---------- --- --- ------ ------ ---- -- ------<br>------- --- ------ ----- --- ---- ------- -- ---- --- --<br>------- ------,196319.29999999702,196318.29999999702,196148.236,196154.59999999404,196164.83,196331.796,,31,value
screen,html.Screen,2_1_1_1_32,2022-02-17T16:46:13.952Z,,,,,,,,,,,,,,,,,54,,,,,,,,,,,,,,198.80399999403744,,response,,,,100,,,,,,,Space,keypress(Space),,,,,,,,-- --- ---- --- ------ ----- ------- ---- -- --- ------- --<br>------- ---------- ------ -- ----- -- ----- -- ---- ------<br>--- ----- --- --- ------ -------- ----- --- ------ ----- of<br>----- ----- ---------- --- --- ------ ------ ---- -- ------<br>------- --- ------ ----- --- ---- ------- -- ---- --- --<br>------- ------,196531.5,196530.59999999404,196314.8,196319.5,196331.796,196548.138,,32,of
screen,html.Screen,2_1_1_1_33,2022-02-17T16:46:14.157Z,,,,,,,,,,,,,,,,,54,,,,,,,,,,,,,,187.96199999403325,,response,,,,100,,,,,,,Space,keypress(Space),,,,,,,,-- --- ---- --- ------ ----- ------- ---- -- --- ------- --<br>------- ---------- ------ -- ----- -- ----- -- ---- ------<br>--- ----- --- --- ------ -------- ----- --- ------ ----- --<br>these ----- ---------- --- --- ------ ------ ---- -- ------<br>------- --- ------ ----- --- ---- ------- -- ---- --- --<br>------- ------,196737.09999999404,196736.09999999404,196531.463,196531.79999999702,196548.138,196748.278,,33,these
screen,html.Screen,2_1_1_1_34,2022-02-17T16:46:14.339Z,,,,,,,,,,,,,,,,,54,,,,,,,,,,,,,,169.12199999106815,,response,,,,100,,,,,,,Space,keypress(Space),,,,,,,,-- --- ---- --- ------ ----- ------- ---- -- --- ------- --<br>------- ---------- ------ -- ----- -- ----- -- ---- ------<br>--- ----- --- --- ------ -------- ----- --- ------ ----- --<br>----- bonds ---------- --- --- ------ ------ ---- -- ------<br>------- --- ------ ----- --- ---- ------- -- ---- --- --<br>------- ------,196918.29999999702,196917.39999999106,196731.687,196737.39999999106,196748.278,196931.64,,34,bonds
screen,html.Screen,2_1_1_1_35,2022-02-17T16:46:14.541Z,,,,,,,,,,,,,,,,,54,,,,,,,,,,,,,,188.06000000296626,,response,,,,100,,,,,,,Space,keypress(Space),,,,,,,,"-- --- ---- --- ------ ----- ------- ---- -- --- ------- --<br>------- ---------- ------ -- ----- -- ----- -- ---- ------<br>--- ----- --- --- ------ -------- ----- --- ------ ----- --<br>----- ----- plummeted, --- --- ------ ------ ---- -- ------<br>------- --- ------ ----- --- ---- ------- -- ---- --- --<br>------- ------",197120.59999999404,197119.70000000298,196914.785,196918.59999999404,196931.64,197131.612,,35,"plummeted,"
screen,html.Screen,2_1_1_1_36,2022-02-17T16:46:14.752Z,,,,,,,,,,,,,,,,,54,,,,,,,,,,,,,,199.68799999702605,,response,,,,100,,,,,,,Space,keypress(Space),,,,,,,,-- --- ---- --- ------ ----- ------- ---- -- --- ------- --<br>------- ---------- ------ -- ----- -- ----- -- ---- ------<br>--- ----- --- --- ------ -------- ----- --- ------ ----- --<br>----- ----- ---------- and --- ------ ------ ---- -- ------<br>------- --- ------ ----- --- ---- ------- -- ---- --- --<br>------- ------,197332.39999999106,197331.29999999702,197114.922,197120.79999999702,197131.612,197348.046,,36,and
screen,html.Screen,2_1_1_1_37,2022-02-17T16:46:14.960Z,,,,,,,,,,,,,,,,,54,,,,,,,,,,,,,,190.3539999910572,,response,,,,100,,,,,,,Space,keypress(Space),,,,,,,,-- --- ---- --- ------ ----- ------- ---- -- --- ------- --<br>------- ---------- ------ -- ----- -- ----- -- ---- ------<br>--- ----- --- --- ------ -------- ----- --- ------ ----- --<br>----- ----- ---------- --- the ------ ------ ---- -- ------<br>------- --- ------ ----- --- ---- ------- -- ---- --- --<br>------- ------,197539.39999999106,197538.39999999106,197331.348,197332.5,197348.046,197548.017,,37,the
screen,html.Screen,2_1_1_1_38,2022-02-17T16:46:15.148Z,,,,,,,,,,,,,,,,,54,,,,,,,,,,,,,,179.18300000298768,,response,,,,100,,,,,,,Space,keypress(Space),,,,,,,,-- --- ---- --- ------ ----- ------- ---- -- --- ------- --<br>------- ---------- ------ -- ----- -- ----- -- ---- ------<br>--- ----- --- --- ------ -------- ----- --- ------ ----- --<br>----- ----- ---------- --- --- market ------ ---- -- ------<br>------- --- ------ ----- --- ---- ------- -- ---- --- --<br>------- ------,197728.09999999404,197727.20000000298,197531.343,197539.59999999404,197548.017,197731.263,,38,market
screen,html.Screen,2_1_1_1_39,2022-02-17T16:46:15.316Z,,,,,,,,,,,,,,,,,54,,,,,,,,,,,,,,163.33699999403325,,response,,,,100,,,,,,,Space,keypress(Space),,,,,,,,-- --- ---- --- ------ ----- ------- ---- -- --- ------- --<br>------- ---------- ------ -- ----- -- ----- -- ---- ------<br>--- ----- --- --- ------ -------- ----- --- ------ ----- --<br>----- ----- ---------- --- --- ------ became ---- -- ------<br>------- --- ------ ----- --- ---- ------- -- ---- --- --<br>------- ------,197895.59999999404,197894.59999999404,197714.633,197728.29999999702,197731.263,197897.907,,39,became
screen,html.Screen,2_1_1_1_40,2022-02-17T16:46:15.489Z,,,,,,,,,,,,,,,,,54,,,,,,,,,,,,,,169.69299999403302,,response,,,,100,,,,,,,Space,keypress(Space),,,,,,,,-- --- ---- --- ------ ----- ------- ---- -- --- ------- --<br>------- ---------- ------ -- ----- -- ----- -- ---- ------<br>--- ----- --- --- ------ -------- ----- --- ------ ----- --<br>----- ----- ---------- --- --- ------ ------ wary -- ------<br>------- --- ------ ----- --- ---- ------- -- ---- --- --<br>------- ------,198068.70000000298,198067.59999999404,197881.485,197895.79999999702,197897.907,198081.394,,40,wary
screen,html.Screen,2_1_1_1_41,2022-02-17T16:46:15.661Z,,,,,,,,,,,,,,,,,54,,,,,,,,,,,,,,158.30600000298,,response,,,,100,,,,,,,Space,keypress(Space),,,,,,,,-- --- ---- --- ------ ----- ------- ---- -- --- ------- --<br>------- ---------- ------ -- ----- -- ----- -- ---- ------<br>--- ----- --- --- ------ -------- ----- --- ------ ----- --<br>----- ----- ---------- --- --- ------ ------ ---- of ------<br>------- --- ------ ----- --- ---- ------- -- ---- --- --<br>------- ------,198240.70000000298,198239.70000000298,198064.781,198068.89999999106,198081.394,198247.898,,41,of
screen,html.Screen,2_1_1_1_42,2022-02-17T16:46:15.862Z,,,,,,,,,,,,,,,,,54,,,,,,,,,,,,,,193.0019999910728,,response,,,,100,,,,,,,Space,keypress(Space),,,,,,,,-- --- ---- --- ------ ----- ------- ---- -- --- ------- --<br>------- ---------- ------ -- ----- -- ----- -- ---- ------<br>--- ----- --- --- ------ -------- ----- --- ------ ----- --<br>----- ----- ---------- --- --- ------ ------ ---- -- French<br>------- --- ------ ----- --- ---- ------- -- ---- --- --<br>------- ------,198441.70000000298,198440.89999999106,198231.191,198241,198247.898,198447.822,,42,French
screen,html.Screen,2_1_1_1_43,2022-02-17T16:46:16.069Z,,,,,,,,,,,,,,,,,54,,,,,,,,,,,,,,200.57799999107374,,response,,,,100,,,,,,,Space,keypress(Space),,,,,,,,-- --- ---- --- ------ ----- ------- ---- -- --- ------- --<br>------- ---------- ------ -- ----- -- ----- -- ---- ------<br>--- ----- --- --- ------ -------- ----- --- ------ ----- --<br>----- ----- ---------- --- --- ------ ------ ---- -- ------<br>credit. --- ------ ----- --- ---- ------- -- ---- --- --<br>------- ------,198649.20000000298,198648.39999999106,198431.156,198441.89999999106,198447.822,198664.779,,43,credit.
screen,html.Screen,2_1_1_1_44,2022-02-17T16:46:16.275Z,,,,,,,,,,,,,,,,,54,,,,,,,,,,,,,,188.72099999999045,,response,,,,100,,,,,,,Space,keypress(Space),,,,,,,,-- --- ---- --- ------ ----- ------- ---- -- --- ------- --<br>------- ---------- ------ -- ----- -- ----- -- ---- ------<br>--- ----- --- --- ------ -------- ----- --- ------ ----- --<br>----- ----- ---------- --- --- ------ ------ ---- -- ------<br>------- The ------ ----- --- ---- ------- -- ---- --- --<br>------- ------,198854.39999999106,198853.5,198647.821,198649.5,198664.779,198864.628,,44,The
screen,html.Screen,2_1_1_1_45,2022-02-17T16:46:16.458Z,,,,,,,,,,,,,,,,,54,,,,,,,,,,,,,,172.37200000000303,,response,,,,100,,,,,,,Space,keypress(Space),,,,,,,,-- --- ---- --- ------ ----- ------- ---- -- --- ------- --<br>------- ---------- ------ -- ----- -- ----- -- ---- ------<br>--- ----- --- --- ------ -------- ----- --- ------ ----- --<br>----- ----- ---------- --- --- ------ ------ ---- -- ------<br>------- --- French ----- --- ---- ------- -- ---- --- --<br>------- ------,199037.89999999106,199037,198847.957,198854.70000000298,198864.628,199047.735,,45,French
screen,html.Screen,2_1_1_1_46,2022-02-17T16:46:16.655Z,,,,,,,,,,,,,,,,,54,,,,,,,,,,,,,,186.26500000001397,,response,,,,100,,,,,,,Space,keypress(Space),,,,,,,,-- --- ---- --- ------ ----- ------- ---- -- --- ------- --<br>------- ---------- ------ -- ----- -- ----- -- ---- ------<br>--- ----- --- --- ------ -------- ----- --- ------ ----- --<br>----- ----- ---------- --- --- ------ ------ ---- -- ------<br>------- --- ------ state --- ---- ------- -- ---- --- --<br>------- ------,199234.89999999106,199234,199031.318,199038.20000000298,199047.735,199247.982,,46,state
screen,html.Screen,2_1_1_1_47,2022-02-17T16:46:16.838Z,,,,,,,,,,,,,,,,,54,,,,,,,,,,,,,,168.51800000001094,,response,,,,100,,,,,,,Space,keypress(Space),,,,,,,,-- --- ---- --- ------ ----- ------- ---- -- --- ------- --<br>------- ---------- ------ -- ----- -- ----- -- ---- ------<br>--- ----- --- --- ------ -------- ----- --- ------ ----- --<br>----- ----- ---------- --- --- ------ ------ ---- -- ------<br>------- --- ------ ----- was ---- ------- -- ---- --- --<br>------- ------,199417.5,199416.5,199231.028,199235.09999999404,199247.982,199431.292,,47,was
screen,html.Screen,2_1_1_1_48,2022-02-17T16:46:17.011Z,,,,,,,,,,,,,,,,,54,,,,,,,,,,,,,,158.4080000029935,,response,,,,100,,,,,,,Space,keypress(Space),,,,,,,,-- --- ---- --- ------ ----- ------- ---- -- --- ------- --<br>------- ---------- ------ -- ----- -- ----- -- ---- ------<br>--- ----- --- --- ------ -------- ----- --- ------ ----- --<br>----- ----- ---------- --- --- ------ ------ ---- -- ------<br>------- --- ------ ----- --- left ------- -- ---- --- --<br>------- ------,199590.79999999702,199589.70000000298,199414.576,199417.59999999404,199431.292,199597.69,,48,left
screen,html.Screen,2_1_1_1_49,2022-02-17T16:46:17.201Z,,,,,,,,,,,,,,,,,54,,,,,,,,,,,,,,182.20999999105697,,response,,,,100,,,,,,,Space,keypress(Space),,,,,,,,-- --- ---- --- ------ ----- ------- ---- -- --- ------- --<br>------- ---------- ------ -- ----- -- ----- -- ---- ------<br>--- ----- --- --- ------ -------- ----- --- ------ ----- --<br>----- ----- ---------- --- --- ------ ------ ---- -- ------<br>------- --- ------ ----- --- ---- without -- ---- --- --<br>------- ------,199780.79999999702,199779.89999999106,199581.18,199591,199597.69,199797.638,,49,without
screen,html.Screen,2_1_1_1_50,2022-02-17T16:46:17.371Z,,,,,,,,,,,,,,,,,54,,,,,,,,,,,,,,152.3619999999937,,response,,,,100,,,,,,,Space,keypress(Space),,,,,,,,-- --- ---- --- ------ ----- ------- ---- -- --- ------- --<br>------- ---------- ------ -- ----- -- ----- -- ---- ------<br>--- ----- --- --- ------ -------- ----- --- ------ ----- --<br>----- ----- ---------- --- --- ------ ------ ---- -- ------<br>------- --- ------ ----- --- ---- ------- an ---- --- --<br>------- ------,199951,199950,199780.982,199781,199797.638,199964.519,,50,an
screen,html.Screen,2_1_1_1_51,2022-02-17T16:46:17.561Z,,,,,,,,,,,,,,,,,54,,,,,,,,,,,,,,174.98099999999977,,response,,,,100,,,,,,,Space,keypress(Space),,,,,,,,-- --- ---- --- ------ ----- ------- ---- -- --- ------- --<br>------- ---------- ------ -- ----- -- ----- -- ---- ------<br>--- ----- --- --- ------ -------- ----- --- ------ ----- --<br>----- ----- ---------- --- --- ------ ------ ---- -- ------<br>------- --- ------ ----- --- ---- ------- -- easy --- --<br>------- ------,200140.39999999106,200139.5,199947.841,199951.20000000298,199964.519,200147.524,,51,easy
screen,html.Screen,2_1_1_1_52,2022-02-17T16:46:17.739Z,,,,,,,,,,,,,,,,,54,,,,,,,,,,,,,,170.27599999701488,,response,,,,100,,,,,,,Space,keypress(Space),,,,,,,,-- --- ---- --- ------ ----- ------- ---- -- --- ------- --<br>------- ---------- ------ -- ----- -- ----- -- ---- ------<br>--- ----- --- --- ------ -------- ----- --- ------ ----- --<br>----- ----- ---------- --- --- ------ ------ ---- -- ------<br>------- --- ------ ----- --- ---- ------- -- ---- way --<br>------- ------,200318.70000000298,200317.79999999702,200131.121,200140.59999999404,200147.524,200331.113,,52,way
screen,html.Screen,2_1_1_1_53,2022-02-17T16:46:17.955Z,,,,,,,,,,,,,,,,,54,,,,,,,,,,,,,,201.58700000296813,,response,,,,100,,,,,,,Space,keypress(Space),,,,,,,,-- --- ---- --- ------ ----- ------- ---- -- --- ------- --<br>------- ---------- ------ -- ----- -- ----- -- ---- ------<br>--- ----- --- --- ------ -------- ----- --- ------ ----- --<br>----- ----- ---------- --- --- ------ ------ ---- -- ------<br>------- --- ------ ----- --- ---- ------- -- ---- --- of<br>------- ------,200534.70000000298,200532.70000000298,200314.396,200319,200331.113,200547.483,,53,of
screen,html.Screen,2_1_1_1_54,2022-02-17T16:46:18.210Z,,,,,,,,,,,,,,,,,54,,,,,,,,,,,,,,242.01699999999255,,response,,,,100,,,,,,,Space,keypress(Space),,,,,,,,-- --- ---- --- ------ ----- ------- ---- -- --- ------- --<br>------- ---------- ------ -- ----- -- ----- -- ---- ------<br>--- ----- --- --- ------ -------- ----- --- ------ ----- --<br>----- ----- ---------- --- --- ------ ------ ---- -- ------<br>------- --- ------ ----- --- ---- ------- -- ---- --- --<br>raising ------,200790.29999999702,200789.5,200531.031,200534.89999999106,200547.483,200797.52,,54,raising
screen,html.Screen,2_1_1_1_55,2022-02-17T16:46:18.579Z,,,,,,,,,,,,,,,,,54,,,,,,,,,,,,,,360.3799999910698,,response,,,,100,,,,,,,Space,keypress(Space),,,,,,,,-- --- ---- --- ------ ----- ------- ---- -- --- ------- --<br>------- ---------- ------ -- ----- -- ----- -- ---- ------<br>--- ----- --- --- ------ -------- ----- --- ------ ----- --<br>----- ----- ---------- --- --- ------ ------ ---- -- ------<br>------- --- ------ ----- --- ---- ------- -- ---- --- --<br>------- money.,201158.79999999702,201157.89999999106,200780.746,200790.5,200797.52,201164.05,,55,money.
Item 100,flow.Loop,2_1_1_1,2022-02-17T16:46:18.579Z,,,,,,,,,,,,,,,,,,,,,,,,,,,,,,,13475.047999991046,,completion,,,,,F,,,,,,,,,,,silence,,,,,201159.09999999404,201157.89999999106,187666.237,187668.29999999702,187682.852,201164.05,,,
Question 1,html.Screen,2_1_1_2,2022-02-17T16:46:20.951Z,,,,,,,,,,,,,,,,,,,,,,,,,,,,true,TRUE,,2365.7499999970314,,response,,,,100,F,,,,,,TRUE,click #choice-1,,,,silence,,,,,203531.29999999702,203529.79999999702,201147.572,201159.29999999702,201164.05,203547.286,,,
Question 2,html.Screen,2_1_1_3,2022-02-17T16:46:24.510Z,,,,,,,,,,,,,,,,,,,,,,,,,,,,false,FALSE,,3540.9140000029874,,response,,,,100,F,,,,,,TRUE,click #choice-1,,,,silence,,,,,207089.70000000298,207088.20000000298,203530.478,203531.70000000298,203547.286,207096.448,,,
Item 100,flow.Sequence,2_1_1,2022-02-17T16:46:24.510Z,,,,,,,,,,,,,,,,,,,,,,,,,,,,,,,29403.743000002985,,completion,,,,,,,,,,,,,,,,,,,,,207090.09999999404,207088.20000000298,177667.797,177669.5,177684.457,207096.448,,,
End of Practice,html.Page,2_1_2,2022-02-17T16:46:28.943Z,,,,,,,,,,,,,,,,,,,,,,,,,,,,,,,4425.151999994036,,form submission,,,,,,,,,,,,,,,,,,,,,211522,211521.59999999404,207080.041,207090.39999999106,207096.448,211529.108,,,
Practice,flow.Sequence,2_1,2022-02-17T16:46:28.943Z,,,,,,,,,,,,,,,,,,,,,,,,,,,,,,,71597.83199999403,,completion,,,,,,,,,,,,,,,,,,,,,211522.29999999702,211521.59999999404,139907.105,139911.20000000298,139923.768,211529.108,,,
Trap_instruction,html.Page,2_2_0,2022-02-17T16:46:33.859Z,,,,,,,,,,,,,,,,,,,,,,,,,,,,,,,4908.592000002973,,form submission,,,,,,,,,,,,,,,,,,,,,216438.20000000298,216437.70000000298,211512.732,211522.59999999404,211529.108,216461.711,,,
trap_trial,html.Screen,2_2_1,2022-02-17T16:46:36.645Z,,,,,,,,,,,,,,,,,,,,,,,,,,,,true,1,,2760.7889999999898,,response,,,,,,,,,,,1,click #choice-1,,,,,,,,,219224.5,219222.5,216428.346,216438.5,216461.711,219227.958,,,
end of trap trial,html.Page,2_2_2,2022-02-17T16:46:38.360Z,,,,,,,,,,,,,,,,,,,,,,,,,,,,,,,1710.8419999970065,,form submission,,,,,,,,,,,,,,,,,,,,,220939.29999999702,220938.79999999702,219211.535,219224.70000000298,219227.958,220944.303,,,
Trap 1,flow.Sequence,2_2,2022-02-17T16:46:38.360Z,,,,,,,,,,,,,,,,,,,,,,,,,,,,,,,9409.691999997012,,completion,,,,,,,,,,,,,,,,,,,,,220939.59999999404,220938.79999999702,211512.732,211522.5,211529.108,220944.303,,,
Standby,html.Page,2_3_0,2022-02-17T16:46:46.349Z,,,,,,,,,,,,,,,,,,,,,,,,,,,,,,,7998.658999999985,,timeout,,,,,,,,,,,,,,,,,,,,,228928,228926.516,220927.918,220939.89999999106,220944.303,228942.962,,,
Holding screen,html.Screen,2_3_1_0_0,2022-02-17T16:46:53.348Z,,,,,,,,,,,,,,,,,,,,,,,,,,,,,,,6998.902000000002,,timeout,,,,,,,,,,,,,,,,,,,,,235927.09999999404,235925.484,228926.516,228928.39999999106,228942.962,235941.864,,,
screen,html.Screen,2_3_1_0_1_0,2022-02-17T16:46:54.393Z,,,,,,,,,,,,,,,,,2,,,,,,,,,,,,,,1029.4359999970184,,response,,,,1,F,,,,,,Space,keypress(Space),,,,instrumental,,,,Two ---- ------ --- ------- ---------- ------- ----------<br>--- --------- --- ----------- ------- ----- ------- ---<br>--------- ---- -- --- ---- -- --------- -- ---- -------<br>-- --------- ------ --- ----- ------ ---- --- --------- --<br>------ - ---- -- --- ----------- ------- ---- ----- -----<br>--- -------- - ------ ---- -- ----- ---- --- --- -----------<br>-- -------,236972.29999999702,236971.29999999702,235925.484,235927.5,235941.864,236975.021,,0,Two
screen,html.Screen,2_3_1_0_1_1,2022-02-17T16:46:54.711Z,,,,,,,,,,,,,,,,,2,,,,,,,,,,,,,,314.6790000029723,,response,,,,1,F,,,,,,Space,keypress(Space),,,,instrumental,,,,--- days ------ --- ------- ---------- ------- ----------<br>--- --------- --- ----------- ------- ----- ------- ---<br>--------- ---- -- --- ---- -- --------- -- ---- -------<br>-- --------- ------ --- ----- ------ ---- --- --------- --<br>------ - ---- -- --- ----------- ------- ---- ----- -----<br>--- -------- - ------ ---- -- ----- ---- --- --- -----------<br>-- -------,237290.70000000298,237289.70000000298,236958.561,236972.5,236975.021,237308.325,,1,days
screen,html.Screen,2_3_1_0_1_2,2022-02-17T16:46:54.964Z,,,,,,,,,,,,,,,,,2,,,,,,,,,,,,,,234.17499999998836,,response,,,,1,F,,,,,,Space,keypress(Space),,,,instrumental,,,,"--- ---- later, --- ------- ---------- ------- ----------<br>--- --------- --- ----------- ------- ----- ------- ---<br>--------- ---- -- --- ---- -- --------- -- ---- -------<br>-- --------- ------ --- ----- ------ ---- --- --------- --<br>------ - ---- -- --- ----------- ------- ---- ----- -----<br>--- -------- - ------ ---- -- ----- ---- --- --- -----------<br>-- -------",237543.5,237542.5,237291.622,237290.89999999106,237308.325,237558.39,,2,"later,"
screen,html.Screen,2_3_1_0_1_3,2022-02-17T16:46:55.294Z,,,,,,,,,,,,,,,,,2,,,,,,,,,,,,,,313.31000000296626,,response,,,,1,F,,,,,,Space,keypress(Space),,,,instrumental,,,,--- ---- ------ the ------- ---------- ------- ----------<br>--- --------- --- ----------- ------- ----- ------- ---<br>--------- ---- -- --- ---- -- --------- -- ---- -------<br>-- --------- ------ --- ----- ------ ---- --- --------- --<br>------ - ---- -- --- ----------- ------- ---- ----- -----<br>--- -------- - ------ ---- -- ----- ---- --- --- -----------<br>-- -------,237872.89999999106,237871.70000000298,237541.895,237543.70000000298,237558.39,237891.747,,3,the
screen,html.Screen,2_3_1_0_1_4,2022-02-17T16:46:55.595Z,,,,,,,,,,,,,,,,,2,,,,,,,,,,,,,,281.6529999910563,,response,,,,1,F,,,,,,Space,keypress(Space),,,,instrumental,,,,--- ---- ------ --- British ---------- ------- ----------<br>--- --------- --- ----------- ------- ----- ------- ---<br>--------- ---- -- --- ---- -- --------- -- ---- -------<br>-- --------- ------ --- ----- ------ ---- --- --------- --<br>------ - ---- -- --- ----------- ------- ---- ----- -----<br>--- -------- - ------ ---- -- ----- ---- --- --- -----------<br>-- -------,238174.39999999106,238173.39999999106,237858.189,237873.09999999404,237891.747,238191.762,,4,British
screen,html.Screen,2_3_1_0_1_5,2022-02-17T16:46:55.850Z,,,,,,,,,,,,,,,,,2,,,,,,,,,,,,,,236.7380000000121,,response,,,,1,F,,,,,,Space,keypress(Space),,,,instrumental,,,,--- ---- ------ --- ------- astronomer ------- ----------<br>--- --------- --- ----------- ------- ----- ------- ---<br>--------- ---- -- --- ---- -- --------- -- ---- -------<br>-- --------- ------ --- ----- ------ ---- --- --------- --<br>------ - ---- -- --- ----------- ------- ---- ----- -----<br>--- -------- - ------ ---- -- ----- ---- --- --- -----------<br>-- -------,238429.59999999404,238428.5,238175.102,238174.59999999404,238191.762,238441.726,,5,astronomer
screen,html.Screen,2_3_1_0_1_6,2022-02-17T16:46:56.119Z,,,,,,,,,,,,,,,,,2,,,,,,,,,,,,,,256.57399999702466,,response,,,,1,F,,,,,,Space,keypress(Space),,,,instrumental,,,,--- ---- ------ --- ------- ---------- Richard ----------<br>--- --------- --- ----------- ------- ----- ------- ---<br>--------- ---- -- --- ---- -- --------- -- ---- -------<br>-- --------- ------ --- ----- ------ ---- --- --------- --<br>------ - ---- -- --- ----------- ------- ---- ----- -----<br>--- -------- - ------ ---- -- ----- ---- --- --- -----------<br>-- -------,238698.70000000298,238698.29999999702,238425.044,238429.89999999106,238441.726,238708.046,,6,Richard
screen,html.Screen,2_3_1_0_1_7,2022-02-17T16:46:56.407Z,,,,,,,,,,,,,,,,,2,,,,,,,,,,,,,,277.2539999970177,,response,,,,1,F,,,,,,Space,keypress(Space),,,,instrumental,,,,--- ---- ------ --- ------- ---------- ------- Carrington<br>--- --------- --- ----------- ------- ----- ------- ---<br>--------- ---- -- --- ---- -- --------- -- ---- -------<br>-- --------- ------ --- ----- ------ ---- --- --------- --<br>------ - ---- -- --- ----------- ------- ---- ----- -----<br>--- -------- - ------ ---- -- ----- ---- --- --- -----------<br>-- -------,238986,238985.29999999702,238691.651,238698.70000000298,238708.046,238991.373,,7,Carrington
screen,html.Screen,2_3_1_0_1_8,2022-02-17T16:46:56.659Z,,,,,,,,,,,,,,,,,2,,,,,,,,,,,,,,246.32700000298792,,response,,,,1,F,,,,,,Space,keypress(Space),,,,instrumental,,,,--- ---- ------ --- ------- ---------- ------- ----------<br>was --------- --- ----------- ------- ----- ------- ---<br>--------- ---- -- --- ---- -- --------- -- ---- -------<br>-- --------- ------ --- ----- ------ ---- --- --------- --<br>------ - ---- -- --- ----------- ------- ---- ----- -----<br>--- -------- - ------ ---- -- ----- ---- --- --- -----------<br>-- -------,239238.5,239237.70000000298,238974.657,238986.09999999404,238991.373,239241.316,,8,was
screen,html.Screen,2_3_1_0_1_9,2022-02-17T16:46:56.888Z,,,,,,,,,,,,,,,,,2,,,,,,,,,,,,,,224.68400000000838,,response,,,,1,F,,,,,,Space,keypress(Space),,,,instrumental,,,,--- ---- ------ --- ------- ---------- ------- ----------<br>--- observing --- ----------- ------- ----- ------- ---<br>--------- ---- -- --- ---- -- --------- -- ---- -------<br>-- --------- ------ --- ----- ------ ---- --- --------- --<br>------ - ---- -- --- ----------- ------- ---- ----- -----<br>--- -------- - ------ ---- -- ----- ---- --- --- -----------<br>-- -------,239466.79999999702,239466,239224.647,239238.70000000298,239241.316,239474.595,,9,observing
screen,html.Screen,2_3_1_0_1_10,2022-02-17T16:46:57.168Z,,,,,,,,,,,,,,,,,2,,,,,,,,,,,,,,272.30499999105814,,response,,,,1,F,,,,,,Space,keypress(Space),,,,instrumental,,,,--- ---- ------ --- ------- ---------- ------- ----------<br>--- --------- the ----------- ------- ----- ------- ---<br>--------- ---- -- --- ---- -- --------- -- ---- -------<br>-- --------- ------ --- ----- ------ ---- --- --------- --<br>------ - ---- -- --- ----------- ------- ---- ----- -----<br>--- -------- - ------ ---- -- ----- ---- --- --- -----------<br>-- -------,239747.70000000298,239746.89999999106,239457.972,239466.89999999106,239474.595,239757.889,,10,the
screen,html.Screen,2_3_1_0_1_11,2022-02-17T16:46:57.381Z,,,,,,,,,,,,,,,,,2,,,,,,,,,,,,,,202.01099999106373,,response,,,,1,F,,,,,,Space,keypress(Space),,,,instrumental,,,,--- ---- ------ --- ------- ---------- ------- ----------<br>--- --------- --- interesting ------- ----- ------- ---<br>--------- ---- -- --- ---- -- --------- -- ---- -------<br>-- --------- ------ --- ----- ------ ---- --- --------- --<br>------ - ---- -- --- ----------- ------- ---- ----- -----<br>--- -------- - ------ ---- -- ----- ---- --- --- -----------<br>-- -------,239960.5,239959.89999999106,239741.217,239747.89999999106,239757.889,239974.521,,11,interesting
screen,html.Screen,2_3_1_0_1_12,2022-02-17T16:46:57.564Z,,,,,,,,,,,,,,,,,2,,,,,,,,,,,,,,168.27899999701185,,response,,,,1,F,,,,,,Space,keypress(Space),,,,instrumental,,,,--- ---- ------ --- ------- ---------- ------- ----------<br>--- --------- --- ----------- sunspot ----- ------- ---<br>--------- ---- -- --- ---- -- --------- -- ---- -------<br>-- --------- ------ --- ----- ------ ---- --- --------- --<br>------ - ---- -- --- ----------- ------- ---- ----- -----<br>--- -------- - ------ ---- -- ----- ---- --- --- -----------<br>-- -------,240143.5,240142.79999999702,239957.838,239960.59999999404,239974.521,240157.826,,12,sunspot
screen,html.Screen,2_3_1_0_1_13,2022-02-17T16:46:57.802Z,,,,,,,,,,,,,,,,,2,,,,,,,,,,,,,,222.47399999701884,,response,,,,1,F,,,,,,Space,keypress(Space),,,,instrumental,,,,--- ---- ------ --- ------- ---------- ------- ----------<br>--- --------- --- ----------- ------- group ------- ---<br>--------- ---- -- --- ---- -- --------- -- ---- -------<br>-- --------- ------ --- ----- ------ ---- --- --------- --<br>------ - ---- -- --- ----------- ------- ---- ----- -----<br>--- -------- - ------ ---- -- ----- ---- --- --- -----------<br>-- -------,240381,240380.29999999702,240141.147,240143.70000000298,240157.826,240391.126,,13,group
screen,html.Screen,2_3_1_0_1_14,2022-02-17T16:46:58.134Z,,,,,,,,,,,,,,,,,2,,,,,,,,,,,,,,321.1739999970305,,response,,,,1,F,,,,,,Space,keypress(Space),,,,instrumental,,,,--- ---- ------ --- ------- ---------- ------- ----------<br>--- --------- --- ----------- ------- ----- through ---<br>--------- ---- -- --- ---- -- --------- -- ---- -------<br>-- --------- ------ --- ----- ------ ---- --- --------- --<br>------ - ---- -- --- ----------- ------- ---- ----- -----<br>--- -------- - ------ ---- -- ----- ---- --- --- -----------<br>-- -------,240713.20000000298,240712.29999999702,240374.44,240381.09999999404,240391.126,240724.658,,14,through
screen,html.Screen,2_3_1_0_1_15,2022-02-17T16:46:58.356Z,,,,,,,,,,,,,,,,,2,,,,,,,,,,,,,,209.54200000298442,,response,,,,1,F,,,,,,Space,keypress(Space),,,,instrumental,,,,--- ---- ------ --- ------- ---------- ------- ----------<br>--- --------- --- ----------- ------- ----- ------- his<br>--------- ---- -- --- ---- -- --------- -- ---- -------<br>-- --------- ------ --- ----- ------ ---- --- --------- --<br>------ - ---- -- --- ----------- ------- ---- ----- -----<br>--- -------- - ------ ---- -- ----- ---- --- --- -----------<br>-- -------,240935,240934.20000000298,240707.718,240713.5,240724.658,240941.059,,15,his
screen,html.Screen,2_3_1_0_1_16,2022-02-17T16:46:58.547Z,,,,,,,,,,,,,,,,,2,,,,,,,,,,,,,,184.2409999970114,,response,,,,1,F,,,,,,Space,keypress(Space),,,,instrumental,,,,--- ---- ------ --- ------- ---------- ------- ----------<br>--- --------- --- ----------- ------- ----- ------- ---<br>telescope ---- -- --- ---- -- --------- -- ---- -------<br>-- --------- ------ --- ----- ------ ---- --- --------- --<br>------ - ---- -- --- ----------- ------- ---- ----- -----<br>--- -------- - ------ ---- -- ----- ---- --- --- -----------<br>-- -------,241126.20000000298,241125.29999999702,240924.73,240935.20000000298,240941.059,241141.058,,16,telescope
screen,html.Screen,2_3_1_0_1_17,2022-02-17T16:46:58.714Z,,,,,,,,,,,,,,,,,2,,,,,,,,,,,,,,151.74199999702978,,response,,,,1,F,,,,,,Space,keypress(Space),,,,instrumental,,,,--- ---- ------ --- ------- ---------- ------- ----------<br>--- --------- --- ----------- ------- ----- ------- ---<br>--------- when -- --- ---- -- --------- -- ---- -------<br>-- --------- ------ --- ----- ------ ---- --- --------- --<br>------ - ---- -- --- ----------- ------- ---- ----- -----<br>--- -------- - ------ ---- -- ----- ---- --- --- -----------<br>-- -------,241293.70000000298,241292.79999999702,241124.365,241126.5,241141.058,241307.673,,17,when
screen,html.Screen,2_3_1_0_1_18,2022-02-17T16:46:59.021Z,,,,,,,,,,,,,,,,,2,,,,,,,,,,,,,,291.62699999701,,response,,,,1,F,,,,,,Space,keypress(Space),,,,instrumental,,,,--- ---- ------ --- ------- ---------- ------- ----------<br>--- --------- --- ----------- ------- ----- ------- ---<br>--------- ---- he --- ---- -- --------- -- ---- -------<br>-- --------- ------ --- ----- ------ ---- --- --------- --<br>------ - ---- -- --- ----------- ------- ---- ----- -----<br>--- -------- - ------ ---- -- ----- ---- --- --- -----------<br>-- -------,241600.29999999702,241599.29999999702,241291.284,241293.89999999106,241307.673,241607.606,,18,he
screen,html.Screen,2_3_1_0_1_19,2022-02-17T16:46:59.266Z,,,,,,,,,,,,,,,,,2,,,,,,,,,,,,,,236.39400000000023,,response,,,,1,F,,,,,,Space,keypress(Space),,,,instrumental,,,,--- ---- ------ --- ------- ---------- ------- ----------<br>--- --------- --- ----------- ------- ----- ------- ---<br>--------- ---- -- saw ---- -- --------- -- ---- -------<br>-- --------- ------ --- ----- ------ ---- --- --------- --<br>------ - ---- -- --- ----------- ------- ---- ----- -----<br>--- -------- - ------ ---- -- ----- ---- --- --- -----------<br>-- -------,241845,241844,241590.917,241600.59999999404,241607.606,241857.817,,19,saw
screen,html.Screen,2_3_1_0_1_20,2022-02-17T16:46:59.462Z,,,,,,,,,,,,,,,,,2,,,,,,,,,,,,,,182.68299999999,,response,,,,1,F,,,,,,Space,keypress(Space),,,,instrumental,,,,--- ---- ------ --- ------- ---------- ------- ----------<br>--- --------- --- ----------- ------- ----- ------- ---<br>--------- ---- -- --- what -- --------- -- ---- -------<br>-- --------- ------ --- ----- ------ ---- --- --------- --<br>------ - ---- -- --- ----------- ------- ---- ----- -----<br>--- -------- - ------ ---- -- ----- ---- --- --- -----------<br>-- -------,242041.39999999106,242040.5,241841.169,241845.29999999702,241857.817,242057.864,,20,what
screen,html.Screen,2_3_1_0_1_21,2022-02-17T16:46:59.642Z,,,,,,,,,,,,,,,,,2,,,,,,,,,,,,,,162.73599999403814,,response,,,,1,F,,,,,,Space,keypress(Space),,,,instrumental,,,,--- ---- ------ --- ------- ---------- ------- ----------<br>--- --------- --- ----------- ------- ----- ------- ---<br>--------- ---- -- --- ---- he --------- -- ---- -------<br>-- --------- ------ --- ----- ------ ---- --- --------- --<br>------ - ---- -- --- ----------- ------- ---- ----- -----<br>--- -------- - ------ ---- -- ----- ---- --- --- -----------<br>-- -------,242221.59999999404,242220.59999999404,242040.891,242041.59999999404,242057.864,242224.209,,21,he
screen,html.Screen,2_3_1_0_1_22,2022-02-17T16:46:59.839Z,,,,,,,,,,,,,,,,,2,,,,,,,,,,,,,,193.49100000297767,,response,,,,1,F,,,,,,Space,keypress(Space),,,,instrumental,,,,--- ---- ------ --- ------- ---------- ------- ----------<br>--- --------- --- ----------- ------- ----- ------- ---<br>--------- ---- -- --- ---- -- described -- ---- -------<br>-- --------- ------ --- ----- ------ ---- --- --------- --<br>------ - ---- -- --- ----------- ------- ---- ----- -----<br>--- -------- - ------ ---- -- ----- ---- --- --- -----------<br>-- -------,242418.70000000298,242417.70000000298,242207.867,242221.79999999702,242224.209,242424.137,,22,described
screen,html.Screen,2_3_1_0_1_23,2022-02-17T16:47:00.024Z,,,,,,,,,,,,,,,,,2,,,,,,,,,,,,,,178.16299999703187,,response,,,,1,F,,,,,,Space,keypress(Space),,,,instrumental,,,,--- ---- ------ --- ------- ---------- ------- ----------<br>--- --------- --- ----------- ------- ----- ------- ---<br>--------- ---- -- --- ---- -- --------- as ---- -------<br>-- --------- ------ --- ----- ------ ---- --- --------- --<br>------ - ---- -- --- ----------- ------- ---- ----- -----<br>--- -------- - ------ ---- -- ----- ---- --- --- -----------<br>-- -------,242603.39999999106,242602.29999999702,242407.76,242419,242424.137,242607.535,,23,as
screen,html.Screen,2_3_1_0_1_24,2022-02-17T16:47:00.228Z,,,,,,,,,,,,,,,,,2,,,,,,,,,,,,,,198.8649999910558,,response,,,,1,F,,,,,,Space,keypress(Space),,,,instrumental,,,,"--- ---- ------ --- ------- ---------- ------- ----------<br>--- --------- --- ----------- ------- ----- ------- ---<br>--------- ---- -- --- ---- -- --------- -- ""two -------<br>-- --------- ------ --- ----- ------ ---- --- --------- --<br>------ - ---- -- --- ----------- ------- ---- ----- -----<br>--- -------- - ------ ---- -- ----- ---- --- --- -----------<br>-- -------",242807.39999999106,242806.39999999106,242591.119,242603.59999999404,242607.535,242824.371,,24,"""two"
screen,html.Screen,2_3_1_0_1_25,2022-02-17T16:47:00.430Z,,,,,,,,,,,,,,,,,2,,,,,,,,,,,,,,184.02899999104557,,response,,,,1,F,,,,,,Space,keypress(Space),,,,instrumental,,,,--- ---- ------ --- ------- ---------- ------- ----------<br>--- --------- --- ----------- ------- ----- ------- ---<br>--------- ---- -- --- ---- -- --------- -- ---- patches<br>-- --------- ------ --- ----- ------ ---- --- --------- --<br>------ - ---- -- --- ----------- ------- ---- ----- -----<br>--- -------- - ------ ---- -- ----- ---- --- --- -----------<br>-- -------,243009.59999999404,243008.39999999106,242807.44,242807.59999999404,242824.371,243024.357,,25,patches
screen,html.Screen,2_3_1_0_1_26,2022-02-17T16:47:00.767Z,,,,,,,,,,,,,,,,,2,,,,,,,,,,,,,,320.64300000001094,,response,,,,1,F,,,,,,Space,keypress(Space),,,,instrumental,,,,--- ---- ------ --- ------- ---------- ------- ----------<br>--- --------- --- ----------- ------- ----- ------- ---<br>--------- ---- -- --- ---- -- --------- -- ---- -------<br>of --------- ------ --- ----- ------ ---- --- --------- --<br>------ - ---- -- --- ----------- ------- ---- ----- -----<br>--- -------- - ------ ---- -- ----- ---- --- --- -----------<br>-- -------,243346.20000000298,243345,243007.547,243009.89999999106,243024.357,243357.333,,26,of
screen,html.Screen,2_3_1_0_1_27,2022-02-17T16:47:01.036Z,,,,,,,,,,,,,,,,,2,,,,,,,,,,,,,,256.9669999970065,,response,,,,1,F,,,,,,Space,keypress(Space),,,,instrumental,,,,--- ---- ------ --- ------- ---------- ------- ----------<br>--- --------- --- ----------- ------- ----- ------- ---<br>--------- ---- -- --- ---- -- --------- -- ---- -------<br>-- intensely ------ --- ----- ------ ---- --- --------- --<br>------ - ---- -- --- ----------- ------- ---- ----- -----<br>--- -------- - ------ ---- -- ----- ---- --- --- -----------<br>-- -------,243615.20000000298,243614.29999999702,243340.857,243348.20000000298,243357.333,243623.949,,27,intensely
screen,html.Screen,2_3_1_0_1_28,2022-02-17T16:47:01.272Z,,,,,,,,,,,,,,,,,2,,,,,,,,,,,,,,226.1509999940463,,response,,,,1,F,,,,,,Space,keypress(Space),,,,instrumental,,,,--- ---- ------ --- ------- ---------- ------- ----------<br>--- --------- --- ----------- ------- ----- ------- ---<br>--------- ---- -- --- ---- -- --------- -- ---- -------<br>-- --------- bright --- ----- ------ ---- --- --------- --<br>------ - ---- -- --- ----------- ------- ---- ----- -----<br>--- -------- - ------ ---- -- ----- ---- --- --- -----------<br>-- -------,243851.20000000298,243850.09999999404,243607.281,243615.5,243623.949,243857.304,,28,bright
screen,html.Screen,2_3_1_0_1_29,2022-02-17T16:47:01.504Z,,,,,,,,,,,,,,,,,2,,,,,,,,,,,,,,224.99599999701604,,response,,,,1,F,,,,,,Space,keypress(Space),,,,instrumental,,,,--- ---- ------ --- ------- ---------- ------- ----------<br>--- --------- --- ----------- ------- ----- ------- ---<br>--------- ---- -- --- ---- -- --------- -- ---- -------<br>-- --------- ------ and ----- ------ ---- --- --------- --<br>------ - ---- -- --- ----------- ------- ---- ----- -----<br>--- -------- - ------ ---- -- ----- ---- --- --- -----------<br>-- -------,244083.29999999702,244082.29999999702,243840.596,243851.29999999702,243857.304,244090.6,,29,and
screen,html.Screen,2_3_1_0_1_30,2022-02-17T16:47:01.753Z,,,,,,,,,,,,,,,,,2,,,,,,,,,,,,,,240.49999999403371,,response,,,,1,F,,,,,,Space,keypress(Space),,,,instrumental,,,,--- ---- ------ --- ------- ---------- ------- ----------<br>--- --------- --- ----------- ------- ----- ------- ---<br>--------- ---- -- --- ---- -- --------- -- ---- -------<br>-- --------- ------ --- white ------ ---- --- --------- --<br>------ - ---- -- --- ----------- ------- ---- ----- -----<br>--- -------- - ------ ---- -- ----- ---- --- --- -----------<br>-- -------,244332,244331.09999999404,244074.08,244083.5,244090.6,244340.52,,30,white
screen,html.Screen,2_3_1_0_1_31,2022-02-17T16:47:02.026Z,,,,,,,,,,,,,,,,,2,,,,,,,,,,,,,,263.27999999703025,,response,,,,1,F,,,,,,Space,keypress(Space),,,,instrumental,,,,"--- ---- ------ --- ------- ---------- ------- ----------<br>--- --------- --- ----------- ------- ----- ------- ---<br>--------- ---- -- --- ---- -- --------- -- ---- -------<br>-- --------- ------ --- ----- light"" ---- --- --------- --<br>------ - ---- -- --- ----------- ------- ---- ----- -----<br>--- -------- - ------ ---- -- ----- ---- --- --- -----------<br>-- -------",244604.79999999702,244603.79999999702,244324.139,244332.29999999702,244340.52,244624.09,,31,"light"""
screen,html.Screen,2_3_1_0_1_32,2022-02-17T16:47:02.314Z,,,,,,,,,,,,,,,,,2,,,,,,,,,,,,,,267.8099999910628,,response,,,,1,F,,,,,,Space,keypress(Space),,,,instrumental,,,,--- ---- ------ --- ------- ---------- ------- ----------<br>--- --------- --- ----------- ------- ----- ------- ---<br>--------- ---- -- --- ---- -- --------- -- ---- -------<br>-- --------- ------ --- ----- ------ over --- --------- --<br>------ - ---- -- --- ----------- ------- ---- ----- -----<br>--- -------- - ------ ---- -- ----- ---- --- --- -----------<br>-- -------,244892.79999999702,244891.89999999106,244590.748,244605,244624.09,244907.389,,32,over
screen,html.Screen,2_3_1_0_1_33,2022-02-17T16:47:02.671Z,,,,,,,,,,,,,,,,,2,,,,,,,,,,,,,,342.1110000000044,,response,,,,1,F,,,,,,Space,keypress(Space),,,,instrumental,,,,--- ---- ------ --- ------- ---------- ------- ----------<br>--- --------- --- ----------- ------- ----- ------- ---<br>--------- ---- -- --- ---- -- --------- -- ---- -------<br>-- --------- ------ --- ----- ------ ---- the --------- --<br>------ - ---- -- --- ----------- ------- ---- ----- -----<br>--- -------- - ------ ---- -- ----- ---- --- --- -----------<br>-- -------,245250.59999999404,245249.5,244890.659,244893.20000000298,244907.389,245257.062,,33,the
screen,html.Screen,2_3_1_0_1_34,2022-02-17T16:47:02.904Z,,,,,,,,,,,,,,,,,2,,,,,,,,,,,,,,224.63800000297488,,response,,,,1,F,,,,,,Space,keypress(Space),,,,instrumental,,,,--- ---- ------ --- ------- ---------- ------- ----------<br>--- --------- --- ----------- ------- ----- ------- ---<br>--------- ---- -- --- ---- -- --------- -- ---- -------<br>-- --------- ------ --- ----- ------ ---- --- sunspots. --<br>------ - ---- -- --- ----------- ------- ---- ----- -----<br>--- -------- - ------ ---- -- ----- ---- --- --- -----------<br>-- -------,245482.79999999702,245481.70000000298,245240.437,245250.79999999702,245257.062,245490.385,,34,sunspots.
screen,html.Screen,2_3_1_0_1_35,2022-02-17T16:47:03.115Z,,,,,,,,,,,,,,,,,2,,,,,,,,,,,,,,202.6149999999907,,response,,,,1,F,,,,,,Space,keypress(Space),,,,instrumental,,,,--- ---- ------ --- ------- ---------- ------- ----------<br>--- --------- --- ----------- ------- ----- ------- ---<br>--------- ---- -- --- ---- -- --------- -- ---- -------<br>-- --------- ------ --- ----- ------ ---- --- --------- He<br>------ - ---- -- --- ----------- ------- ---- ----- -----<br>--- -------- - ------ ---- -- ----- ---- --- --- -----------<br>-- -------,245694.39999999106,245693,245473.762,245483,245490.385,245707.219,,35,He
screen,html.Screen,2_3_1_0_1_36,2022-02-17T16:47:03.355Z,,,,,,,,,,,,,,,,,2,,,,,,,,,,,,,,226.38099999402766,,response,,,,1,F,,,,,,Space,keypress(Space),,,,instrumental,,,,--- ---- ------ --- ------- ---------- ------- ----------<br>--- --------- --- ----------- ------- ----- ------- ---<br>--------- ---- -- --- ---- -- --------- -- ---- -------<br>-- --------- ------ --- ----- ------ ---- --- --------- --<br>jotted - ---- -- --- ----------- ------- ---- ----- -----<br>--- -------- - ------ ---- -- ----- ---- --- --- -----------<br>-- -------,245934.39999999106,245933.59999999404,245690.553,245694.70000000298,245707.219,245940.265,,36,jotted
screen,html.Screen,2_3_1_0_1_37,2022-02-17T16:47:03.629Z,,,,,,,,,,,,,,,,,2,,,,,,,,,,,,,,267.0349999970058,,response,,,,1,F,,,,,,Space,keypress(Space),,,,instrumental,,,,--- ---- ------ --- ------- ---------- ------- ----------<br>--- --------- --- ----------- ------- ----- ------- ---<br>--------- ---- -- --- ---- -- --------- -- ---- -------<br>-- --------- ------ --- ----- ------ ---- --- --------- --<br>------ a ---- -- --- ----------- ------- ---- ----- -----<br>--- -------- - ------ ---- -- ----- ---- --- --- -----------<br>-- -------,246208.59999999404,246207.29999999702,245923.612,245934.59999999404,245940.265,246223.806,,37,a
