sender,sender_type,sender_id,timestamp,meta,,Blues,Classical,Country,Dance,Electronic,Folk,Gospel,Hip-Hop,Jazz,Latin,Musical/Film,New-age,Pop,Prolific_id,Provo_ID,R&B,Rap,Reggae,Religious,Rock,Soul,Swing,Traditional,age,artist_name,correct,correctResponse,distraction,duration,education,ended_on,familiarity,gender,headphone_check_performance,item,list,music_frequency,offensiveness,pleasantness,position_correct,preference,response,response_action,snippet_file,song_name,song_rating,sound,stimulus_1,stimulus_2,stimulus_3,text,time_commit,time_end,time_render,time_run,time_show,time_switch,url,word,word_ID
Prolific ID,html.Form,0,2022-02-15T12:27:16.496Z,"{""labjs_version"":""20.2.2"",""labjs_build"":{""flavor"":""production"",""commit"":""a25486e0c714a0ae2ce03ff94b7bb6896854dcfa""},""location"":""https://run.pavlovia.org/mvasilev/prolific2_music_d/"",""userAgent"":""Mozilla/5.0 (Windows NT 10.0; WOW64) AppleWebKit/537.36 (KHTML, like Gecko) Chrome/91.0.4472.114 Safari/537.36"",""platform"":""Win32"",""language"":""en-US"",""locale"":""en-US"",""timeZone"":""Europe/London"",""timezoneOffset"":0,""screen_width"":1920,""screen_height"":1080,""scroll_width"":1222,""scroll_height"":827,""window_innerWidth"":1222,""window_innerHeight"":875,""devicePixelRatio"":1}",,,,,,,,,,,,,,,5c62de3f48fe4e000180e09d,,,,,,,,,,,,,,,9297.885999999255,,form submission,,,,,,,,,,,,,,,,,,,,,19169.599999999627,19169.199999999255,9821.066,9834.599999999627,9871.314,19238.346,{},,
Introduction,html.Screen,1_0,2022-02-15T12:27:24.775Z,,,,,,,,,,,,,,,,,,,,,,,,,,,,,,,8205.853999999254,,response,,,,,,,,,,,continue,click button,,,,,,,,,27448.299999998882,27444.199999999255,19154.979,19169.89999999851,19238.346,27455.268,,,
Volume calibration,html.Screen,1_1,2022-02-15T12:27:48.838Z,,,,,,,,,,,,,,,,,,,,,,,,,,,,,,,24051.031999998882,,response,,,,,,,,,,,continue,click button,,,,,,,,,51510.79999999888,51506.29999999888,27438.606,27448.5,27455.268,51522.669,,,
Task instructions,html.Screen,1_2,2022-02-15T12:27:55.305Z,,,,,,,,,,,,,,,,,,,,,,,,,,,,,,,6452.530999999253,,response,,,,,,,,,,,continue,click button,,,,,,,,,57977.89999999851,57975.199999999255,51506.046,51510.89999999851,51522.669,57989.669,,,
Sounds,html.Screen,1_3_0_0,2022-02-15T12:27:59.553Z,,,,,,,,,,,,,,,,,,,,,,,,,,,,,,,4250.139999999999,,timeout,,,,,,,,,1,,,,,,,,S,O,I,,62226.89999999851,62223.162,57972.954,57978.09999999963,57989.669,62239.809,,,
Judgement,html.Screen,1_3_0_1,2022-02-15T12:28:00.878Z,,,,,,,,,,,,,,,,,,,,,,,,,,,,true,1,,1309.3909999992538,,response,,,,,,,,,1,,1,click #choice-1,,,,,S,O,I,,63551.5,63549.199999999255,62223.162,62227,62239.809,63556.51,,,
Trial,flow.Sequence,1_3_0,2022-02-15T12:28:00.878Z,,,,,,,,,,,,,,,,,,,,,,,,,,,,,,,5559.530999999253,,completion,,,,,,,,,1,,,,,,,,S,O,I,,63551.79999999888,63549.199999999255,57972.954,57978,57989.669,63556.51,,,
Sounds,html.Screen,1_3_1_0,2022-02-15T12:28:05.117Z,,,,,,,,,,,,,,,,,,,,,,,,,,,,,,,4250.178999999996,,timeout,,,,,,,,,2,,,,,,,,I,S,O,,67790.59999999963,67789.999,63539.767,63551.79999999888,63556.51,67806.689,,,
Judgement,html.Screen,1_3_1_1,2022-02-15T12:28:06.007Z,,,,,,,,,,,,,,,,,,,,,,,,,,,,true,2,,870.910999999629,,response,,,,,,,,,2,,2,click #choice-2,,,,,I,S,O,,68680.09999999963,68677.59999999963,67789.999,67790.59999999963,67806.689,68706.702,,,
Trial,flow.Sequence,1_3_1,2022-02-15T12:28:06.007Z,,,,,,,,,,,,,,,,,,,,,,,,,,,,,,,5121.089999999625,,completion,,,,,,,,,2,,,,,,,,I,S,O,,68680.29999999888,68677.59999999963,63539.767,63551.79999999888,63556.51,68706.702,,,
Sounds,html.Screen,1_3_2_0,2022-02-15T12:28:10.267Z,,,,,,,,,,,,,,,,,,,,,,,,,,,,,,,4250.070999999996,,timeout,,,,,,,,,2,,,,,,,,O,S,I,,72940.79999999888,72940.084,68689.98,68680.39999999851,68706.702,72956.773,,,
Judgement,html.Screen,1_3_2_1,2022-02-15T12:28:11.039Z,,,,,,,,,,,,,,,,,,,,,,,,,,,,true,2,,752.4269999992539,,response,,,,,,,,,2,,2,click #choice-2,,,,,O,S,I,,73712.09999999963,73709.19999999925,72940.084,72940.89999999851,72956.773,73723.519,,,
Trial,flow.Sequence,1_3_2,2022-02-15T12:28:11.039Z,,,,,,,,,,,,,,,,,,,,,,,,,,,,,,,5002.49799999925,,completion,,,,,,,,,2,,,,,,,,O,S,I,,73712.39999999851,73709.19999999925,68689.98,68680.29999999888,68706.702,73723.519,,,
Sounds,html.Screen,1_3_3_0,2022-02-15T12:28:15.284Z,,,,,,,,,,,,,,,,,,,,,,,,,,,,,,,4250.112999999998,,timeout,,,,,,,,,3,,,,,,,,O,I,S,,77957.69999999925,77957.02,73706.789,73712.5,73723.519,77973.632,,,
Judgement,html.Screen,1_3_3_1,2022-02-15T12:28:15.910Z,,,,,,,,,,,,,,,,,,,,,,,,,,,,true,3,,607.5679999992572,,response,,,,,,,,,3,,3,click #choice-3,,,,,O,I,S,,78583.39999999851,78581.19999999925,77957.02,77957.89999999851,77973.632,78590.347,,,
Trial,flow.Sequence,1_3_3,2022-02-15T12:28:15.910Z,,,,,,,,,,,,,,,,,,,,,,,,,,,,,,,4857.680999999255,,completion,,,,,,,,,3,,,,,,,,O,I,S,,78583.59999999963,78581.19999999925,73706.789,73712.5,73723.519,78590.347,,,
Sounds,html.Screen,1_3_4_0,2022-02-15T12:28:20.151Z,,,,,,,,,,,,,,,,,,,,,,,,,,,,,,,4250.19200000001,,timeout,,,,,,,,,3,,,,,,,,I,O,S,,82824.79999999888,82823.855,78573.648,78583.69999999925,78590.347,82840.539,,,
Judgement,html.Screen,1_3_4_1,2022-02-15T12:28:20.971Z,,,,,,,,,,,,,,,,,,,,,,,,,,,,true,3,,801.8609999985056,,response,,,,,,,,,3,,3,click #choice-3,,,,,I,O,S,,83644.59999999963,83642.39999999851,82823.855,82825,82840.539,83673.83,,,
Trial,flow.Sequence,1_3_4,2022-02-15T12:28:20.971Z,,,,,,,,,,,,,,,,,,,,,,,,,,,,,,,5052.052999998516,,completion,,,,,,,,,3,,,,,,,,I,O,S,,83644.69999999925,83642.39999999851,78573.648,78583.69999999925,78590.347,83673.83,,,
Sounds,html.Screen,1_3_5_0,2022-02-15T12:28:25.235Z,,,,,,,,,,,,,,,,,,,,,,,,,,,,,,,4250.197,,timeout,,,,,,,,,1,,,,,,,,S,I,O,,87908,87907.305,83657.213,83644.79999999888,83673.83,87924.027,,,
Judgement,html.Screen,1_3_5_1,2022-02-15T12:28:25.872Z,,,,,,,,,,,,,,,,,,,,,,,,,,,,true,1,,618.0729999996256,,response,,,,,,,,,1,,1,click #choice-1,,,,,S,I,O,,88544.89999999851,88542.09999999963,87907.305,87908.09999999963,87924.027,88557.311,,,
Trial,flow.Sequence,1_3_5,2022-02-15T12:28:25.872Z,,,,,,,,,,,,,,,,,,,,,,,,,,,,,,,4868.269999999626,,completion,,,,,,,,,1,,,,,,,,S,I,O,,88545.09999999963,88542.09999999963,83657.213,83644.79999999888,83673.83,88557.311,,,
Task,flow.Loop,1_3,2022-02-15T12:28:25.877Z,,,,,,,,,,,,,,,,,,,,,,,,,,,,,,,30552.430999999626,,completion,,,1,,,,,,,,,,,,,,,,,,88549.89999999851,88542.09999999963,57972.954,57978,57989.669,88557.311,,,
Trap,html.Screen,1_4,2022-02-15T12:28:25.878Z,,,,,,,,,,,,,,,,,,,,,,,,,,,,,,,NaN,,skipped,,,,,,,,,,,,,,,,,,,,,88551.09999999963,88542.09999999963,,88551,,88557.311,,,
Thanks,html.Screen,1_5,2022-02-15T12:28:29.458Z,,,,,,,,,,,,,,,,,,,,,,,,,,,,,,,3570.988999998881,,response,,,,,,,,,,,continue,click button,,,,,,,,,92131,92128.29999999888,88540.694,88551.19999999925,88557.311,94740.785,,,
Headphone screening,flow.Sequence,1,2022-02-15T12:28:29.458Z,,,,,,,,,,,,,,,,,,,,,,,,,,,,,,,72889.95399999888,,completion,,,,,,,,,,,,,,,,,,,,,92131.09999999963,92128.29999999888,19154.979,19169.799999998882,19238.346,94740.785,,,
Instructions,html.Page,2_0,2022-02-15T12:28:51.597Z,,,,,,,,,,,,,,,,,,,,,,,,,,,,,,,19528.51499999888,,form submission,,,,,,,,,,,,,,,,,,,,,114270,114269.29999999888,94724.231,94736.09999999963,94740.785,114274.829,,,
Holding screen,html.Screen,2_1_0_0,2022-02-15T12:29:01.585Z,,,,,,,,,,,,,,,,,,,,,,,,,,,,,,,10083.758000000002,,timeout,,,,,,,,,,,,,,,,,,,,,124258.89999999851,124258.539,114258.137,114270.19999999925,114274.829,124358.587,,,
screen,html.Screen,2_1_0_1_0,2022-02-15T12:29:02.541Z,,,,,,,,,,,,,,,,,53,,,,,,,,,,,,,,849.8129999985103,,response,,,,99,,,,,,,Space,keypress(Space),,,,,,,,When -- ----- -- ------ - ------- --- ----------<br>------------- ------ ------ ---- ---- ------- ----- -- ----<br>-------- ------- -- ---------- --- - --- ----- ----- ----<br>---- --- --- ----- --- ---- ---- ------- ----- ---- -------<br>--- --- -- ----- -- --- ---- -- --- ---- -- ------ ------<br>--- ----- -- ----,125214.89999999851,125208.39999999851,124258.539,124259.09999999963,124358.587,125225.243,,0,When
screen,html.Screen,2_1_0_1_1,2022-02-15T12:29:02.878Z,,,,,,,,,,,,,,,,,53,,,,,,,,,,,,,,325.45699999925273,,response,,,,99,,,,,,,Space,keypress(Space),,,,,,,,---- it ----- -- ------ - ------- --- ----------<br>------------- ------ ------ ---- ---- ------- ----- -- ----<br>-------- ------- -- ---------- --- - --- ----- ----- ----<br>---- --- --- ----- --- ---- ---- ------- ----- ---- -------<br>--- --- -- ----- -- --- ---- -- --- ---- -- ------ ------<br>--- ----- -- ----,125551.69999999925,125550.69999999925,125208.502,125215.19999999925,125225.243,125558.625,,1,it
screen,html.Screen,2_1_0_1_2,2022-02-15T12:29:03.216Z,,,,,,,,,,,,,,,,,53,,,,,,,,,,,,,,330.1749999988824,,response,,,,99,,,,,,,Space,keypress(Space),,,,,,,,---- -- comes -- ------ - ------- --- ----------<br>------------- ------ ------ ---- ---- ------- ----- -- ----<br>-------- ------- -- ---------- --- - --- ----- ----- ----<br>---- --- --- ----- --- ---- ---- ------- ----- ---- -------<br>--- --- -- ----- -- --- ---- -- --- ---- -- ------ ------<br>--- ----- -- ----,125889.89999999851,125888.79999999888,125541.876,125552.19999999925,125558.625,125891.904,,2,comes
screen,html.Screen,2_1_0_1_3,2022-02-15T12:29:03.525Z,,,,,,,,,,,,,,,,,53,,,,,,,,,,,,,,305.1959999996325,,response,,,,99,,,,,,,Space,keypress(Space),,,,,,,,---- -- ----- to ------ - ------- --- ----------<br>------------- ------ ------ ---- ---- ------- ----- -- ----<br>-------- ------- -- ---------- --- - --- ----- ----- ----<br>---- --- --- ----- --- ---- ---- ------- ----- ---- -------<br>--- --- -- ----- -- --- ---- -- --- ---- -- ------ ------<br>--- ----- -- ----,126198.59999999963,126197.09999999963,125875.169,125890.09999999963,125891.904,126208.523,,3,to
screen,html.Screen,2_1_0_1_4,2022-02-15T12:29:03.740Z,,,,,,,,,,,,,,,,,53,,,,,,,,,,,,,,204.1769999992539,,response,,,,99,,,,,,,Space,keypress(Space),,,,,,,,---- -- ----- -- having - ------- --- ----------<br>------------- ------ ------ ---- ---- ------- ----- -- ----<br>-------- ------- -- ---------- --- - --- ----- ----- ----<br>---- --- --- ----- --- ---- ---- ------- ----- ---- -------<br>--- --- -- ----- -- --- ---- -- --- ---- -- ------ ------<br>--- ----- -- ----,126413.59999999963,126412.69999999925,126191.896,126199.29999999888,126208.523,126425.337,,4,having
screen,html.Screen,2_1_0_1_5,2022-02-15T12:29:04.083Z,,,,,,,,,,,,,,,,,53,,,,,,,,,,,,,,331.26299999962794,,response,,,,99,,,,,,,Space,keypress(Space),,,,,,,,---- -- ----- -- ------ a ------- --- ----------<br>------------- ------ ------ ---- ---- ------- ----- -- ----<br>-------- ------- -- ---------- --- - --- ----- ----- ----<br>---- --- --- ----- --- ---- ---- ------- ----- ---- -------<br>--- --- -- ----- -- --- ---- -- --- ---- -- ------ ------<br>--- ----- -- ----,126757.39999999851,126756.59999999963,126408.603,126413.69999999925,126425.337,126758.607,,5,a
screen,html.Screen,2_1_0_1_6,2022-02-15T12:29:04.363Z,,,,,,,,,,,,,,,,,53,,,,,,,,,,,,,,278.09299999925133,,response,,,,99,,,,,,,Space,keypress(Space),,,,,,,,---- -- ----- -- ------ - lasting --- ----------<br>------------- ------ ------ ---- ---- ------- ----- -- ----<br>-------- ------- -- ---------- --- - --- ----- ----- ----<br>---- --- --- ----- --- ---- ---- ------- ----- ---- -------<br>--- --- -- ----- -- --- ---- -- --- ---- -- ------ ------<br>--- ----- -- ----,127037.39999999851,127036.69999999925,126741.901,126757.69999999925,126758.607,127041.877,,6,lasting
screen,html.Screen,2_1_0_1_7,2022-02-15T12:29:04.667Z,,,,,,,,,,,,,,,,,53,,,,,,,,,,,,,,297.3229999992618,,response,,,,99,,,,,,,Space,keypress(Space),,,,,,,,---- -- ----- -- ------ - ------- and ----------<br>------------- ------ ------ ---- ---- ------- ----- -- ----<br>-------- ------- -- ---------- --- - --- ----- ----- ----<br>---- --- --- ----- --- ---- ---- ------- ----- ---- -------<br>--- --- -- ----- -- --- ---- -- --- ---- -- ------ ------<br>--- ----- -- ----,127341.19999999925,127339.19999999925,127025.291,127037.69999999925,127041.877,127358.619,,7,and
screen,html.Screen,2_1_0_1_8,2022-02-15T12:29:04.882Z,,,,,,,,,,,,,,,,,53,,,,,,,,,,,,,,196.0809999992489,,response,,,,99,,,,,,,Space,keypress(Space),,,,,,,,---- -- ----- -- ------ - ------- --- fulfilling<br>------------- ------ ------ ---- ---- ------- ----- -- ----<br>-------- ------- -- ---------- --- - --- ----- ----- ----<br>---- --- --- ----- --- ---- ---- ------- ----- ---- -------<br>--- --- -- ----- -- --- ---- -- --- ---- -- ------ ------<br>--- ----- -- ----,127556.09999999963,127554.69999999925,127341.957,127341.59999999963,127358.619,127558.586,,8,fulfilling
screen,html.Screen,2_1_0_1_9,2022-02-15T12:29:05.229Z,,,,,,,,,,,,,,,,,53,,,,,,,,,,,,,,342.9140000000043,,response,,,,99,,,,,,,Space,keypress(Space),,,,,,,,"---- -- ----- -- ------ - ------- --- ----------<br>relationship, ------ ------ ---- ---- ------- ----- -- ----<br>-------- ------- -- ---------- --- - --- ----- ----- ----<br>---- --- --- ----- --- ---- ---- ------- ----- ---- -------<br>--- --- -- ----- -- --- ---- -- --- ---- -- ------ ------<br>--- ----- -- ----",127903,127901.5,127541.994,127556.39999999851,127558.586,127908.682,,9,"relationship,"
screen,html.Screen,2_1_0_1_10,2022-02-15T12:29:05.589Z,,,,,,,,,,,,,,,,,53,,,,,,,,,,,,,,352.4179999996268,,response,,,,99,,,,,,,Space,keypress(Space),,,,,,,,---- -- ----- -- ------ - ------- --- ----------<br>------------- common ------ ---- ---- ------- ----- -- ----<br>-------- ------- -- ---------- --- - --- ----- ----- ----<br>---- --- --- ----- --- ---- ---- ------- ----- ---- -------<br>--- --- -- ----- -- --- ---- -- --- ---- -- ------ ------<br>--- ----- -- ----,128262.69999999925,128261.09999999963,127891.948,127903.5,127908.682,128275.322,,10,common
screen,html.Screen,2_1_0_1_11,2022-02-15T12:29:06.065Z,,,,,,,,,,,,,,,,,53,,,,,,,,,,,,,,463.27799999962735,,response,,,,99,,,,,,,Space,keypress(Space),,,,,,,,---- -- ----- -- ------ - ------- --- ----------<br>------------- ------ wisdom ---- ---- ------- ----- -- ----<br>-------- ------- -- ---------- --- - --- ----- ----- ----<br>---- --- --- ----- --- ---- ---- ------- ----- ---- -------<br>--- --- -- ----- -- --- ---- -- --- ---- -- ------ ------<br>--- ----- -- ----,128739.19999999925,128738.59999999963,128258.702,128263.29999999888,128275.322,128741.945,,11,wisdom
screen,html.Screen,2_1_0_1_12,2022-02-15T12:29:06.327Z,,,,,,,,,,,,,,,,,53,,,,,,,,,,,,,,258.75499999924796,,response,,,,99,,,,,,,Space,keypress(Space),,,,,,,,---- -- ----- -- ------ - ------- --- ----------<br>------------- ------ ------ says ---- ------- ----- -- ----<br>-------- ------- -- ---------- --- - --- ----- ----- ----<br>---- --- --- ----- --- ---- ---- ------- ----- ---- -------<br>--- --- -- ----- -- --- ---- -- --- ---- -- ------ ------<br>--- ----- -- ----,129001.29999999888,129000.69999999925,128725.261,128739.29999999888,128741.945,129008.751,,12,says
screen,html.Screen,2_1_0_1_13,2022-02-15T12:29:06.538Z,,,,,,,,,,,,,,,,,53,,,,,,,,,,,,,,202.24899999999616,,response,,,,99,,,,,,,Space,keypress(Space),,,,,,,,---- -- ----- -- ------ - ------- --- ----------<br>------------- ------ ------ ---- that ------- ----- -- ----<br>-------- ------- -- ---------- --- - --- ----- ----- ----<br>---- --- --- ----- --- ---- ---- ------- ----- ---- -------<br>--- --- -- ----- -- --- ---- -- --- ---- -- ------ ------<br>--- ----- -- ----,129211.89999999851,129211,128991.967,129001.39999999851,129008.751,129225.396,,13,that
screen,html.Screen,2_1_0_1_14,2022-02-15T12:29:06.740Z,,,,,,,,,,,,,,,,,53,,,,,,,,,,,,,,187.40399999888905,,response,,,,99,,,,,,,Space,keypress(Space),,,,,,,,---- -- ----- -- ------ - ------- --- ----------<br>------------- ------ ------ ---- ---- feeling ----- -- ----<br>-------- ------- -- ---------- --- - --- ----- ----- ----<br>---- --- --- ----- --- ---- ---- ------- ----- ---- -------<br>--- --- -- ----- -- --- ---- -- --- ---- -- ------ ------<br>--- ----- -- ----,129413.59999999963,129412.79999999888,129208.662,129212.09999999963,129225.396,129425.352,,14,feeling
screen,html.Screen,2_1_0_1_15,2022-02-15T12:29:06.951Z,,,,,,,,,,,,,,,,,53,,,,,,,,,,,,,,199.14800000000105,,response,,,,99,,,,,,,Space,keypress(Space),,,,,,,,---- -- ----- -- ------ - ------- --- ----------<br>------------- ------ ------ ---- ---- ------- close -- ----<br>-------- ------- -- ---------- --- - --- ----- ----- ----<br>---- --- --- ----- --- ---- ---- ------- ----- ---- -------<br>--- --- -- ----- -- --- ---- -- --- ---- -- ------ ------<br>--- ----- -- ----,129625.5,129624.5,129408.706,129413.69999999925,129425.352,129642.083,,15,close
screen,html.Screen,2_1_0_1_16,2022-02-15T12:29:07.271Z,,,,,,,,,,,,,,,,,53,,,,,,,,,,,,,,302.51699999962875,,response,,,,99,,,,,,,Space,keypress(Space),,,,,,,,---- -- ----- -- ------ - ------- --- ----------<br>------------- ------ ------ ---- ---- ------- ----- to ----<br>-------- ------- -- ---------- --- - --- ----- ----- ----<br>---- --- --- ----- --- ---- ---- ------- ----- ---- -------<br>--- --- -- ----- -- --- ---- -- --- ---- -- ------ ------<br>--- ----- -- ----,129945.29999999888,129944.59999999963,129625.399,129625.69999999925,129642.083,129958.689,,16,to
screen,html.Screen,2_1_0_1_17,2022-02-15T12:29:07.567Z,,,,,,,,,,,,,,,,,53,,,,,,,,,,,,,,280.3110000000015,,response,,,,99,,,,,,,Space,keypress(Space),,,,,,,,---- -- ----- -- ------ - ------- --- ----------<br>------------- ------ ------ ---- ---- ------- ----- -- your<br>-------- ------- -- ---------- --- - --- ----- ----- ----<br>---- --- --- ----- --- ---- ---- ------- ----- ---- -------<br>--- --- -- ----- -- --- ---- -- --- ---- -- ------ ------<br>--- ----- -- ----,130241.29999999888,130239,129942.083,129945.5,129958.689,130258.69,,17,your
screen,html.Screen,2_1_0_1_18,2022-02-15T12:29:07.880Z,,,,,,,,,,,,,,,,,53,,,,,,,,,,,,,,294.1099999988801,,response,,,,99,,,,,,,Space,keypress(Space),,,,,,,,---- -- ----- -- ------ - ------- --- ----------<br>------------- ------ ------ ---- ---- ------- ----- -- ----<br>romantic ------- -- ---------- --- - --- ----- ----- ----<br>---- --- --- ----- --- ---- ---- ------- ----- ---- -------<br>--- --- -- ----- -- --- ---- -- --- ---- -- ------ ------<br>--- ----- -- ----,130553.59999999963,130552.79999999888,130242.074,130242,130258.69,130558.661,,18,romantic
screen,html.Screen,2_1_0_1_19,2022-02-15T12:29:08.061Z,,,,,,,,,,,,,,,,,53,,,,,,,,,,,,,,176.03899999926216,,response,,,,99,,,,,,,Space,keypress(Space),,,,,,,,---- -- ----- -- ------ - ------- --- ----------<br>------------- ------ ------ ---- ---- ------- ----- -- ----<br>-------- partner -- ---------- --- - --- ----- ----- ----<br>---- --- --- ----- --- ---- ---- ------- ----- ---- -------<br>--- --- -- ----- -- --- ---- -- --- ---- -- ------ ------<br>--- ----- -- ----,130735.39999999851,130734.69999999925,130542.058,130553.69999999925,130558.661,130742.031,,19,partner
screen,html.Screen,2_1_0_1_20,2022-02-15T12:29:08.243Z,,,,,,,,,,,,,,,,,53,,,,,,,,,,,,,,174.66899999925226,,response,,,,99,,,,,,,Space,keypress(Space),,,,,,,,---- -- ----- -- ------ - ------- --- ----------<br>------------- ------ ------ ---- ---- ------- ----- -- ----<br>-------- ------- is ---------- --- - --- ----- ----- ----<br>---- --- --- ----- --- ---- ---- ------- ----- ---- -------<br>--- --- -- ----- -- --- ---- -- --- ---- -- ------ ------<br>--- ----- -- ----,130917.39999999851,130916.69999999925,130725.383,130735.59999999963,130742.031,130925.465,,20,is
screen,html.Screen,2_1_0_1_21,2022-02-15T12:29:08.432Z,,,,,,,,,,,,,,,,,53,,,,,,,,,,,,,,179.3349999988859,,response,,,,99,,,,,,,Space,keypress(Space),,,,,,,,---- -- ----- -- ------ - ------- --- ----------<br>------------- ------ ------ ---- ---- ------- ----- -- ----<br>-------- ------- -- paramount. --- - --- ----- ----- ----<br>---- --- --- ----- --- ---- ---- ------- ----- ---- -------<br>--- --- -- ----- -- --- ---- -- --- ---- -- ------ ------<br>--- ----- -- ----,131105.8999999985,131104.79999999888,130908.772,130917.59999999963,130925.465,131108.751,,21,paramount.
screen,html.Screen,2_1_0_1_22,2022-02-15T12:29:08.628Z,,,,,,,,,,,,,,,,,53,,,,,,,,,,,,,,192.04899999889312,,response,,,,99,,,,,,,Space,keypress(Space),,,,,,,,---- -- ----- -- ------ - ------- --- ----------<br>------------- ------ ------ ---- ---- ------- ----- -- ----<br>-------- ------- -- ---------- But - --- ----- ----- ----<br>---- --- --- ----- --- ---- ---- ------- ----- ---- -------<br>--- --- -- ----- -- --- ---- -- --- ---- -- ------ ------<br>--- ----- -- ----,131301.5,131300.79999999888,131092.085,131106.09999999963,131108.751,131308.697,,22,But
screen,html.Screen,2_1_0_1_23,2022-02-15T12:29:08.833Z,,,,,,,,,,,,,,,,,53,,,,,,,,,,,,,,198.00299999926938,,response,,,,99,,,,,,,Space,keypress(Space),,,,,,,,---- -- ----- -- ------ - ------- --- ----------<br>------------- ------ ------ ---- ---- ------- ----- -- ----<br>-------- ------- -- ---------- --- a --- ----- ----- ----<br>---- --- --- ----- --- ---- ---- ------- ----- ---- -------<br>--- --- -- ----- -- --- ---- -- --- ---- -- ------ ------<br>--- ----- -- ----,131507.29999999888,131506.69999999925,131292.017,131301.69999999925,131308.697,131539.956,,23,a
screen,html.Screen,2_1_0_1_24,2022-02-15T12:29:09.047Z,,,,,,,,,,,,,,,,,53,,,,,,,,,,,,,,180.74399999924935,,response,,,,99,,,,,,,Space,keypress(Space),,,,,,,,---- -- ----- -- ------ - ------- --- ----------<br>------------- ------ ------ ---- ---- ------- ----- -- ----<br>-------- ------- -- ---------- --- - new ----- ----- ----<br>---- --- --- ----- --- ---- ---- ------- ----- ---- -------<br>--- --- -- ----- -- --- ---- -- --- ---- -- ------ ------<br>--- ----- -- ----,131721.3999999985,131720.69999999925,131492.133,131507.59999999963,131539.956,131725.408,,24,new
screen,html.Screen,2_1_0_1_25,2022-02-15T12:29:09.272Z,,,,,,,,,,,,,,,,,53,,,,,,,,,,,,,,219.79199999925913,,response,,,,99,,,,,,,Space,keypress(Space),,,,,,,,---- -- ----- -- ------ - ------- --- ----------<br>------------- ------ ------ ---- ---- ------- ----- -- ----<br>-------- ------- -- ---------- --- - --- study ----- ----<br>---- --- --- ----- --- ---- ---- ------- ----- ---- -------<br>--- --- -- ----- -- --- ---- -- --- ---- -- ------ ------<br>--- ----- -- ----,131946.19999999925,131945.19999999925,131708.829,131721.59999999963,131725.408,131958.834,,25,study
screen,html.Screen,2_1_0_1_26,2022-02-15T12:29:09.497Z,,,,,,,,,,,,,,,,,53,,,,,,,,,,,,,,211.96599999887985,,response,,,,99,,,,,,,Space,keypress(Space),,,,,,,,---- -- ----- -- ------ - ------- --- ----------<br>------------- ------ ------ ---- ---- ------- ----- -- ----<br>-------- ------- -- ---------- --- - --- ----- finds ----<br>---- --- --- ----- --- ---- ---- ------- ----- ---- -------<br>--- --- -- ----- -- --- ---- -- --- ---- -- ------ ------<br>--- ----- -- ----,132171.5,132170.79999999888,131942.078,131946.59999999963,131958.834,132175.39,,26,finds
screen,html.Screen,2_1_0_1_27,2022-02-15T12:29:09.731Z,,,,,,,,,,,,,,,,,53,,,,,,,,,,,,,,229.30999999924097,,response,,,,99,,,,,,,Space,keypress(Space),,,,,,,,---- -- ----- -- ------ - ------- --- ----------<br>------------- ------ ------ ---- ---- ------- ----- -- ----<br>-------- ------- -- ---------- --- - --- ----- ----- that<br>---- --- --- ----- --- ---- ---- ------- ----- ---- -------<br>--- --- -- ----- -- --- ---- -- --- ---- -- ------ ------<br>--- ----- -- ----,132405.3999999985,132404.69999999925,132158.816,132171.59999999963,132175.39,132408.729,,27,that
screen,html.Screen,2_1_0_1_28,2022-02-15T12:29:09.987Z,,,,,,,,,,,,,,,,,53,,,,,,,,,,,,,,251.77100000000792,,response,,,,99,,,,,,,Space,keypress(Space),,,,,,,,---- -- ----- -- ------ - ------- --- ----------<br>------------- ------ ------ ---- ---- ------- ----- -- ----<br>-------- ------- -- ---------- --- - --- ----- ----- ----<br>it's --- --- ----- --- ---- ---- ------- ----- ---- -------<br>--- --- -- ----- -- --- ---- -- --- ---- -- ------ ------<br>--- ----- -- ----,132661.19999999925,132660.5,132392.098,132405.5,132408.729,132675.519,,28,it's
screen,html.Screen,2_1_0_1_29,2022-02-15T12:29:10.237Z,,,,,,,,,,,,,,,,,53,,,,,,,,,,,,,,235.1809999992547,,response,,,,99,,,,,,,Space,keypress(Space),,,,,,,,---- -- ----- -- ------ - ------- --- ----------<br>------------- ------ ------ ---- ---- ------- ----- -- ----<br>-------- ------- -- ---------- --- - --- ----- ----- ----<br>---- not --- ----- --- ---- ---- ------- ----- ---- -------<br>--- --- -- ----- -- --- ---- -- --- ---- -- ------ ------<br>--- ----- -- ----,132911.5,132910.69999999925,132658.832,132661.3999999985,132675.519,132925.525,,29,not
screen,html.Screen,2_1_0_1_30,2022-02-15T12:29:10.435Z,,,,,,,,,,,,,,,,,53,,,,,,,,,,,,,,183.0749999996333,,response,,,,99,,,,,,,Space,keypress(Space),,,,,,,,---- -- ----- -- ------ - ------- --- ----------<br>------------- ------ ------ ---- ---- ------- ----- -- ----<br>-------- ------- -- ---------- --- - --- ----- ----- ----<br>---- --- how ----- --- ---- ---- ------- ----- ---- -------<br>--- --- -- ----- -- --- ---- -- --- ---- -- ------ ------<br>--- ----- -- ----,133109.3999999985,133108.59999999963,132908.842,132911.8999999985,132925.525,133125.532,,30,how
screen,html.Screen,2_1_0_1_31,2022-02-15T12:29:10.612Z,,,,,,,,,,,,,,,,,53,,,,,,,,,,,,,,159.36799999850336,,response,,,,99,,,,,,,Space,keypress(Space),,,,,,,,---- -- ----- -- ------ - ------- --- ----------<br>------------- ------ ------ ---- ---- ------- ----- -- ----<br>-------- ------- -- ---------- --- - --- ----- ----- ----<br>---- --- --- close --- ---- ---- ------- ----- ---- -------<br>--- --- -- ----- -- --- ---- -- --- ---- -- ------ ------<br>--- ----- -- ----,133285.59999999963,133284.8999999985,133108.808,133109.59999999963,133125.532,133292.095,,31,close
screen,html.Screen,2_1_0_1_32,2022-02-15T12:29:10.827Z,,,,,,,,,,,,,,,,,53,,,,,,,,,,,,,,207.0049999996263,,response,,,,99,,,,,,,Space,keypress(Space),,,,,,,,---- -- ----- -- ------ - ------- --- ----------<br>------------- ------ ------ ---- ---- ------- ----- -- ----<br>-------- ------- -- ---------- --- - --- ----- ----- ----<br>---- --- --- ----- you ---- ---- ------- ----- ---- -------<br>--- --- -- ----- -- --- ---- -- --- ---- -- ------ ------<br>--- ----- -- ----,133500.5,133499.09999999963,133275.488,133285.79999999888,133292.095,133508.769,,32,you
screen,html.Screen,2_1_0_1_33,2022-02-15T12:29:11.016Z,,,,,,,,,,,,,,,,,53,,,,,,,,,,,,,,180.03099999888218,,response,,,,99,,,,,,,Space,keypress(Space),,,,,,,,---- -- ----- -- ------ - ------- --- ----------<br>------------- ------ ------ ---- ---- ------- ----- -- ----<br>-------- ------- -- ---------- --- - --- ----- ----- ----<br>---- --- --- ----- --- feel ---- ------- ----- ---- -------<br>--- --- -- ----- -- --- ---- -- --- ---- -- ------ ------<br>--- ----- -- ----,133689.5,133688.79999999888,133492.182,133500.79999999888,133508.769,133692.101,,33,feel
screen,html.Screen,2_1_0_1_34,2022-02-15T12:29:11.207Z,,,,,,,,,,,,,,,,,53,,,,,,,,,,,,,,188.49899999963236,,response,,,,99,,,,,,,Space,keypress(Space),,,,,,,,---- -- ----- -- ------ - ------- --- ----------<br>------------- ------ ------ ---- ---- ------- ----- -- ----<br>-------- ------- -- ---------- --- - --- ----- ----- ----<br>---- --- --- ----- --- ---- that ------- ----- ---- -------<br>--- --- -- ----- -- --- ---- -- --- ---- -- ------ ------<br>--- ----- -- ----,133881.19999999925,133880.59999999963,133675.569,133691,133692.101,133892.172,,34,that
screen,html.Screen,2_1_0_1_35,2022-02-15T12:29:11.416Z,,,,,,,,,,,,,,,,,53,,,,,,,,,,,,,,196.52799999926356,,response,,,,99,,,,,,,Space,keypress(Space),,,,,,,,---- -- ----- -- ------ - ------- --- ----------<br>------------- ------ ------ ---- ---- ------- ----- -- ----<br>-------- ------- -- ---------- --- - --- ----- ----- ----<br>---- --- --- ----- --- ---- ---- matters ----- ---- -------<br>--- --- -- ----- -- --- ---- -- --- ---- -- ------ ------<br>--- ----- -- ----,134089.59999999963,134088.69999999925,133875.544,133881.3999999985,133892.172,134113.311,,35,matters
screen,html.Screen,2_1_0_1_36,2022-02-15T12:29:11.642Z,,,,,,,,,,,,,,,,,53,,,,,,,,,,,,,,201.58899999852292,,response,,,,99,,,,,,,Space,keypress(Space),,,,,,,,"---- -- ----- -- ------ - ------- --- ----------<br>------------- ------ ------ ---- ---- ------- ----- -- ----<br>-------- ------- -- ---------- --- - --- ----- ----- ----<br>---- --- --- ----- --- ---- ---- ------- most, ---- -------<br>--- --- -- ----- -- --- ---- -- --- ---- -- ------ ------<br>--- ----- -- ----",134315.69999999925,134314.8999999985,134075.448,134090.69999999925,134113.311,134325.572,,36,"most,"
screen,html.Screen,2_1_0_1_37,2022-02-15T12:29:11.858Z,,,,,,,,,,,,,,,,,53,,,,,,,,,,,,,,205.22799999889685,,response,,,,99,,,,,,,Space,keypress(Space),,,,,,,,---- -- ----- -- ------ - ------- --- ----------<br>------------- ------ ------ ---- ---- ------- ----- -- ----<br>-------- ------- -- ---------- --- - --- ----- ----- ----<br>---- --- --- ----- --- ---- ---- ------- ----- it's -------<br>--- --- -- ----- -- --- ---- -- --- ---- -- ------ ------<br>--- ----- -- ----,134532.3999999985,134530.79999999888,134308.887,134316,134325.572,134542.257,,37,it's
screen,html.Screen,2_1_0_1_38,2022-02-15T12:29:12.119Z,,,,,,,,,,,,,,,,,53,,,,,,,,,,,,,,248.84299999961513,,response,,,,99,,,,,,,Space,keypress(Space),,,,,,,,---- -- ----- -- ------ - ------- --- ----------<br>------------- ------ ------ ---- ---- ------- ----- -- ----<br>-------- ------- -- ---------- --- - --- ----- ----- ----<br>---- --- --- ----- --- ---- ---- ------- ----- ---- whether<br>--- --- -- ----- -- --- ---- -- --- ---- -- ------ ------<br>--- ----- -- ----,134792.59999999963,134791.09999999963,134525.479,134532.59999999963,134542.257,134808.875,,38,whether
screen,html.Screen,2_1_0_1_39,2022-02-15T12:29:12.379Z,,,,,,,,,,,,,,,,,53,,,,,,,,,,,,,,243.9249999988824,,response,,,,99,,,,,,,Space,keypress(Space),,,,,,,,---- -- ----- -- ------ - ------- --- ----------<br>------------- ------ ------ ---- ---- ------- ----- -- ----<br>-------- ------- -- ---------- --- - --- ----- ----- ----<br>---- --- --- ----- --- ---- ---- ------- ----- ---- -------<br>you --- -- ----- -- --- ---- -- --- ---- -- ------ ------<br>--- ----- -- ----,135053.5,135052.79999999888,134792.134,134792.79999999888,134808.875,135058.857,,39,you
screen,html.Screen,2_1_0_1_40,2022-02-15T12:29:12.600Z,,,,,,,,,,,,,,,,,53,,,,,,,,,,,,,,214.04299999852083,,response,,,,99,,,,,,,Space,keypress(Space),,,,,,,,---- -- ----- -- ------ - ------- --- ----------<br>------------- ------ ------ ---- ---- ------- ----- -- ----<br>-------- ------- -- ---------- --- - --- ----- ----- ----<br>---- --- --- ----- --- ---- ---- ------- ----- ---- -------<br>--- are -- ----- -- --- ---- -- --- ---- -- ------ ------<br>--- ----- -- ----,135274.19999999925,135272.8999999985,135042.155,135053.5,135058.857,135303.253,,40,are
screen,html.Screen,2_1_0_1_41,2022-02-15T12:29:12.792Z,,,,,,,,,,,,,,,,,53,,,,,,,,,,,,,,161.6469999985129,,response,,,,99,,,,,,,Space,keypress(Space),,,,,,,,---- -- ----- -- ------ - ------- --- ----------<br>------------- ------ ------ ---- ---- ------- ----- -- ----<br>-------- ------- -- ---------- --- - --- ----- ----- ----<br>---- --- --- ----- --- ---- ---- ------- ----- ---- -------<br>--- --- as ----- -- --- ---- -- --- ---- -- ------ ------<br>--- ----- -- ----,135466.19999999925,135464.8999999985,135258.877,135274.3999999985,135303.253,135475.567,,41,as
screen,html.Screen,2_1_0_1_42,2022-02-15T12:29:12.968Z,,,,,,,,,,,,,,,,,53,,,,,,,,,,,,,,165.03299999961746,,response,,,,99,,,,,,,Space,keypress(Space),,,,,,,,---- -- ----- -- ------ - ------- --- ----------<br>------------- ------ ------ ---- ---- ------- ----- -- ----<br>-------- ------- -- ---------- --- - --- ----- ----- ----<br>---- --- --- ----- --- ---- ---- ------- ----- ---- -------<br>--- --- -- close -- --- ---- -- --- ---- -- ------ ------<br>--- ----- -- ----,135641.5,135640.59999999963,135458.848,135466.5,135475.567,135663.46,,42,close
screen,html.Screen,2_1_0_1_43,2022-02-15T12:29:13.156Z,,,,,,,,,,,,,,,,,53,,,,,,,,,,,,,,165.63999999963562,,response,,,,99,,,,,,,Space,keypress(Space),,,,,,,,---- -- ----- -- ------ - ------- --- ----------<br>------------- ------ ------ ---- ---- ------- ----- -- ----<br>-------- ------- -- ---------- --- - --- ----- ----- ----<br>---- --- --- ----- --- ---- ---- ------- ----- ---- -------<br>--- --- -- ----- as --- ---- -- --- ---- -- ------ ------<br>--- ----- -- ----,135830.3999999985,135829.09999999963,135625.663,135641.59999999963,135663.46,135842.191,,43,as
screen,html.Screen,2_1_0_1_44,2022-02-15T12:29:13.347Z,,,,,,,,,,,,,,,,,53,,,,,,,,,,,,,,177.40899999963585,,response,,,,99,,,,,,,Space,keypress(Space),,,,,,,,---- -- ----- -- ------ - ------- --- ----------<br>------------- ------ ------ ---- ---- ------- ----- -- ----<br>-------- ------- -- ---------- --- - --- ----- ----- ----<br>---- --- --- ----- --- ---- ---- ------- ----- ---- -------<br>--- --- -- ----- -- you ---- -- --- ---- -- ------ ------<br>--- ----- -- ----,136020.59999999963,136019.59999999963,135825.538,135830.69999999925,135842.191,136025.531,,44,you
screen,html.Screen,2_1_0_1_45,2022-02-15T12:29:13.501Z,,,,,,,,,,,,,,,,,53,,,,,,,,,,,,,,149.2689999988943,,response,,,,99,,,,,,,Space,keypress(Space),,,,,,,,---- -- ----- -- ------ - ------- --- ----------<br>------------- ------ ------ ---- ---- ------- ----- -- ----<br>-------- ------- -- ---------- --- - --- ----- ----- ----<br>---- --- --- ----- --- ---- ---- ------- ----- ---- -------<br>--- --- -- ----- -- --- want -- --- ---- -- ------ ------<br>--- ----- -- ----,136175.3999999985,136174.79999999888,136008.862,136020.69999999925,136025.531,136192.313,,45,want
screen,html.Screen,2_1_0_1_46,2022-02-15T12:29:13.724Z,,,,,,,,,,,,,,,,,53,,,,,,,,,,,,,,204.48699999888777,,response,,,,99,,,,,,,Space,keypress(Space),,,,,,,,---- -- ----- -- ------ - ------- --- ----------<br>------------- ------ ------ ---- ---- ------- ----- -- ----<br>-------- ------- -- ---------- --- - --- ----- ----- ----<br>---- --- --- ----- --- ---- ---- ------- ----- ---- -------<br>--- --- -- ----- -- --- ---- to --- ---- -- ------ ------<br>--- ----- -- ----,136397.69999999925,136396.79999999888,136175.618,136175.59999999963,136192.313,136408.985,,46,to
screen,html.Screen,2_1_0_1_47,2022-02-15T12:29:13.913Z,,,,,,,,,,,,,,,,,53,,,,,,,,,,,,,,177.7149999992689,,response,,,,99,,,,,,,Space,keypress(Space),,,,,,,,"---- -- ----- -- ------ - ------- --- ----------<br>------------- ------ ------ ---- ---- ------- ----- -- ----<br>-------- ------- -- ---------- --- - --- ----- ----- ----<br>---- --- --- ----- --- ---- ---- ------- ----- ---- -------<br>--- --- -- ----- -- --- ---- -- be, ---- -- ------ ------<br>--- ----- -- ----",136587.29999999888,136586.69999999925,136392.248,136397.8999999985,136408.985,136592.215,,47,"be,"
screen,html.Screen,2_1_0_1_48,2022-02-15T12:29:14.150Z,,,,,,,,,,,,,,,,,53,,,,,,,,,,,,,,230.38499999963096,,response,,,,99,,,,,,,Space,keypress(Space),,,,,,,,---- -- ----- -- ------ - ------- --- ----------<br>------------- ------ ------ ---- ---- ------- ----- -- ----<br>-------- ------- -- ---------- --- - --- ----- ----- ----<br>---- --- --- ----- --- ---- ---- ------- ----- ---- -------<br>--- --- -- ----- -- --- ---- -- --- even -- ------ ------<br>--- ----- -- ----,136823.69999999925,136822.59999999963,136575.615,136587.5,136592.215,136825.564,,48,even
screen,html.Screen,2_1_0_1_49,2022-02-15T12:29:14.403Z,,,,,,,,,,,,,,,,,53,,,,,,,,,,,,,,251.1359999992419,,response,,,,99,,,,,,,Space,keypress(Space),,,,,,,,---- -- ----- -- ------ - ------- --- ----------<br>------------- ------ ------ ---- ---- ------- ----- -- ----<br>-------- ------- -- ---------- --- - --- ----- ----- ----<br>---- --- --- ----- --- ---- ---- ------- ----- ---- -------<br>--- --- -- ----- -- --- ---- -- --- ---- if ------ ------<br>--- ----- -- ----,137077.5,137076.69999999925,136808.892,136823.79999999888,136825.564,137092.239,,49,if
screen,html.Screen,2_1_0_1_50,2022-02-15T12:29:14.673Z,,,,,,,,,,,,,,,,,53,,,,,,,,,,,,,,254.46099999925354,,response,,,,99,,,,,,,Space,keypress(Space),,,,,,,,---- -- ----- -- ------ - ------- --- ----------<br>------------- ------ ------ ---- ---- ------- ----- -- ----<br>-------- ------- -- ---------- --- - --- ----- ----- ----<br>---- --- --- ----- --- ---- ---- ------- ----- ---- -------<br>--- --- -- ----- -- --- ---- -- --- ---- -- that's ------<br>--- ----- -- ----,137347.3999999985,137346.69999999925,137075.58,137077.69999999925,137092.239,137358.941,,50,that's
screen,html.Screen,2_1_0_1_51,2022-02-15T12:29:14.881Z,,,,,,,,,,,,,,,,,53,,,,,,,,,,,,,,195.75899999926332,,response,,,,99,,,,,,,Space,keypress(Space),,,,,,,,---- -- ----- -- ------ - ------- --- ----------<br>------------- ------ ------ ---- ---- ------- ----- -- ----<br>-------- ------- -- ---------- --- - --- ----- ----- ----<br>---- --- --- ----- --- ---- ---- ------- ----- ---- -------<br>--- --- -- ----- -- --- ---- -- --- ---- -- ------ really<br>--- ----- -- ----,137555.29999999888,137554.69999999925,137342.32,137347.5,137358.941,137558.964,,51,really
screen,html.Screen,2_1_0_1_52,2022-02-15T12:29:15.156Z,,,,,,,,,,,,,,,,,53,,,,,,,,,,,,,,270.0359999999928,,response,,,,99,,,,,,,Space,keypress(Space),,,,,,,,---- -- ----- -- ------ - ------- --- ----------<br>------------- ------ ------ ---- ---- ------- ----- -- ----<br>-------- ------- -- ---------- --- - --- ----- ----- ----<br>---- --- --- ----- --- ---- ---- ------- ----- ---- -------<br>--- --- -- ----- -- --- ---- -- --- ---- -- ------ ------<br>not ----- -- ----,137830.29999999888,137829,137542.358,137555.3999999985,137558.964,137842.377,,52,not
screen,html.Screen,2_1_0_1_53,2022-02-15T12:29:15.405Z,,,,,,,,,,,,,,,,,53,,,,,,,,,,,,,,236.32299999924726,,response,,,,99,,,,,,,Space,keypress(Space),,,,,,,,---- -- ----- -- ------ - ------- --- ----------<br>------------- ------ ------ ---- ---- ------- ----- -- ----<br>-------- ------- -- ---------- --- - --- ----- ----- ----<br>---- --- --- ----- --- ---- ---- ------- ----- ---- -------<br>--- --- -- ----- -- --- ---- -- --- ---- -- ------ ------<br>--- close -- ----,138079.3999999985,138078.69999999925,137825.685,137830.5,137842.377,138092.424,,53,close
screen,html.Screen,2_1_0_1_54,2022-02-15T12:29:15.626Z,,,,,,,,,,,,,,,,,53,,,,,,,,,,,,,,206.1759999996284,,response,,,,99,,,,,,,Space,keypress(Space),,,,,,,,---- -- ----- -- ------ - ------- --- ----------<br>------------- ------ ------ ---- ---- ------- ----- -- ----<br>-------- ------- -- ---------- --- - --- ----- ----- ----<br>---- --- --- ----- --- ---- ---- ------- ----- ---- -------<br>--- --- -- ----- -- --- ---- -- --- ---- -- ------ ------<br>--- ----- at ----,138299.5,138298.59999999963,138075.675,138079.5,138092.424,138308.924,,54,at
screen,html.Screen,2_1_0_1_55,2022-02-15T12:29:16.052Z,,,,,,,,,,,,,,,,,53,,,,,,,,,,,,,,415.87599999888334,,response,,,,99,,,,,,,Space,keypress(Space),,,,,,,,---- -- ----- -- ------ - ------- --- ----------<br>------------- ------ ------ ---- ---- ------- ----- -- ----<br>-------- ------- -- ---------- --- - --- ----- ----- ----<br>---- --- --- ----- --- ---- ---- ------- ----- ---- -------<br>--- --- -- ----- -- --- ---- -- --- ---- -- ------ ------<br>--- ----- -- all.,138725.79999999888,138724.79999999888,138292.284,138299.59999999963,138308.924,138742.322,,55,all.
Item 99,flow.Loop,2_1_0_1,2022-02-15T12:29:16.052Z,,,,,,,,,,,,,,,,,,,,,,,,,,,,,,,14366.212999998883,,completion,,,,,D,,,,,,,,,,,silence,,,,,138726.19999999925,138724.79999999888,124258.539,124259.09999999963,124358.587,138742.322,,,
Question 1,html.Screen,2_1_0_2,2022-02-15T12:29:22.637Z,,,,,,,,,,,,,,,,,,,,,,,,,,,,false,FALSE,,6566.678000000014,,response,,,,99,D,,,,,,TRUE,click #choice-1,,,,silence,,,,,145310.79999999888,145309,138725.63,138726.5,138742.322,145325.863,,,
Question 2,html.Screen,2_1_0_3,2022-02-15T12:29:26.466Z,,,,,,,,,,,,,,,,,,,,,,,,,,,,true,TRUE,,3812.536999998498,,response,,,,99,D,,,,,,TRUE,click #choice-1,,,,silence,,,,,149140.29999999888,149138.3999999985,145309.208,145310.8999999985,145325.863,149142.622,,,
Item 99,flow.Sequence,2_1_0,2022-02-15T12:29:26.467Z,,,,,,,,,,,,,,,,,,,,,,,,,,,,,,,34863.57099999851,,completion,,,,,,,,,,,,,,,,,,,,,149140.5,149138.3999999985,114258.137,114270.09999999963,114274.829,149142.622,,,
Holding screen,html.Screen,2_1_1_0,2022-02-15T12:29:36.453Z,,,,,,,,,,,,,,,,,,,,,,,,,,,,,,,10000.394,,timeout,,,,,,,,,,,,,,,,,,,,,159127.19999999925,159126.463,149126.009,149140.59999999963,149142.622,159143.016,,,
screen,html.Screen,2_1_1_1_0,2022-02-15T12:29:37.018Z,,,,,,,,,,,,,,,,,54,,,,,,,,,,,,,,547.4839999999967,,response,,,,100,,,,,,,Space,keypress(Space),,,,,,,,At --- ---- --- ------ ----- ------- ---- -- --- ------- --<br>------- ---------- ------ -- ----- -- ----- -- ---- ------<br>--- ----- --- --- ------ -------- ----- --- ------ ----- --<br>----- ----- ---------- --- --- ------ ------ ---- -- ------<br>------- --- ------ ----- --- ---- ------- -- ---- --- --<br>------- ------,159691.59999999963,159690.5,159126.463,159127.29999999888,159143.016,159693.045,,0,At
screen,html.Screen,2_1_1_1_1,2022-02-15T12:29:37.245Z,,,,,,,,,,,,,,,,,54,,,,,,,,,,,,,,225.15499999924214,,response,,,,100,,,,,,,Space,keypress(Space),,,,,,,,-- the ---- --- ------ ----- ------- ---- -- --- ------- --<br>------- ---------- ------ -- ----- -- ----- -- ---- ------<br>--- ----- --- --- ------ -------- ----- --- ------ ----- --<br>----- ----- ---------- --- --- ------ ------ ---- -- ------<br>------- --- ------ ----- --- ---- ------- -- ---- --- --<br>------- ------,159919.29999999888,159918.19999999925,159676.338,159691.79999999888,159693.045,159926.381,,1,the
screen,html.Screen,2_1_1_1_2,2022-02-15T12:29:37.521Z,,,,,,,,,,,,,,,,,54,,,,,,,,,,,,,,265.318999999261,,response,,,,100,,,,,,,Space,keypress(Space),,,,,,,,-- --- time --- ------ ----- ------- ---- -- --- ------- --<br>------- ---------- ------ -- ----- -- ----- -- ---- ------<br>--- ----- --- --- ------ -------- ----- --- ------ ----- --<br>----- ----- ---------- --- --- ------ ------ ---- -- ------<br>------- --- ------ ----- --- ---- ------- -- ---- --- --<br>------- ------,160194.59999999963,160191.69999999925,159909.692,159919.5,159926.381,160209.738,,2,time
screen,html.Screen,2_1_1_1_3,2022-02-15T12:29:37.764Z,,,,,,,,,,,,,,,,,54,,,,,,,,,,,,,,227.86199999961536,,response,,,,100,,,,,,,Space,keypress(Space),,,,,,,,-- --- ---- the ------ ----- ------- ---- -- --- ------- --<br>------- ---------- ------ -- ----- -- ----- -- ---- ------<br>--- ----- --- --- ------ -------- ----- --- ------ ----- --<br>----- ----- ---------- --- --- ------ ------ ---- -- ------<br>------- --- ------ ----- --- ---- ------- -- ---- --- --<br>------- ------,160438.29999999888,160437.59999999963,160193.031,160194.79999999888,160209.738,160443.026,,3,the
screen,html.Screen,2_1_1_1_4,2022-02-15T12:29:38.013Z,,,,,,,,,,,,,,,,,54,,,,,,,,,,,,,,241.47399999998743,,response,,,,100,,,,,,,Space,keypress(Space),,,,,,,,-- --- ---- --- French ----- ------- ---- -- --- ------- --<br>------- ---------- ------ -- ----- -- ----- -- ---- ------<br>--- ----- --- --- ------ -------- ----- --- ------ ----- --<br>----- ----- ---------- --- --- ------ ------ ---- -- ------<br>------- --- ------ ----- --- ---- ------- -- ---- --- --<br>------- ------,160687,160684.5,160426.432,160438.5,160443.026,160693.113,,4,French
screen,html.Screen,2_1_1_1_5,2022-02-15T12:29:38.261Z,,,,,,,,,,,,,,,,,54,,,,,,,,,,,,,,240.58699999924283,,response,,,,100,,,,,,,Space,keypress(Space),,,,,,,,-- --- ---- --- ------ crown ------- ---- -- --- ------- --<br>------- ---------- ------ -- ----- -- ----- -- ---- ------<br>--- ----- --- --- ------ -------- ----- --- ------ ----- --<br>----- ----- ---------- --- --- ------ ------ ---- -- ------<br>------- --- ------ ----- --- ---- ------- -- ---- --- --<br>------- ------,160934.8999999985,160933.69999999925,160676.378,160687.19999999925,160693.113,160943.103,,5,crown
screen,html.Screen,2_1_1_1_6,2022-02-15T12:29:38.542Z,,,,,,,,,,,,,,,,,54,,,,,,,,,,,,,,270.9969999996247,,response,,,,100,,,,,,,Space,keypress(Space),,,,,,,,-- --- ---- --- ------ ----- secured ---- -- --- ------- --<br>------- ---------- ------ -- ----- -- ----- -- ---- ------<br>--- ----- --- --- ------ -------- ----- --- ------ ----- --<br>----- ----- ---------- --- --- ------ ------ ---- -- ------<br>------- --- ------ ----- --- ---- ------- -- ---- --- --<br>------- ------,161215.59999999963,161214.09999999963,160926.34,160935.3999999985,160943.103,161226.515,,6,secured
screen,html.Screen,2_1_1_1_7,2022-02-15T12:29:38.845Z,,,,,,,,,,,,,,,,,54,,,,,,,,,,,,,,291.28499999886844,,response,,,,100,,,,,,,Space,keypress(Space),,,,,,,,-- --- ---- --- ------ ----- ------- much -- --- ------- --<br>------- ---------- ------ -- ----- -- ----- -- ---- ------<br>--- ----- --- --- ------ -------- ----- --- ------ ----- --<br>----- ----- ---------- --- --- ------ ------ ---- -- ------<br>------- --- ------ ----- --- ---- ------- -- ---- --- --<br>------- ------,161518.69999999925,161517.79999999888,161209.803,161216.19999999925,161226.515,161526.467,,7,much
screen,html.Screen,2_1_1_1_8,2022-02-15T12:29:39.149Z,,,,,,,,,,,,,,,,,54,,,,,,,,,,,,,,295.73299999925075,,response,,,,100,,,,,,,Space,keypress(Space),,,,,,,,-- --- ---- --- ------ ----- ------- ---- of --- ------- --<br>------- ---------- ------ -- ----- -- ----- -- ---- ------<br>--- ----- --- --- ------ -------- ----- --- ------ ----- --<br>----- ----- ---------- --- --- ------ ------ ---- -- ------<br>------- --- ------ ----- --- ---- ------- -- ---- --- --<br>------- ------,161823,161822.19999999925,161509.851,161518.8999999985,161526.467,161826.393,,8,of
screen,html.Screen,2_1_1_1_9,2022-02-15T12:29:39.397Z,,,,,,,,,,,,,,,,,54,,,,,,,,,,,,,,243.306999999244,,response,,,,100,,,,,,,Space,keypress(Space),,,,,,,,-- --- ---- --- ------ ----- ------- ---- -- its ------- --<br>------- ---------- ------ -- ----- -- ----- -- ---- ------<br>--- ----- --- --- ------ -------- ----- --- ------ ----- --<br>----- ----- ---------- --- --- ------ ------ ---- -- ------<br>------- --- ------ ----- --- ---- ------- -- ---- --- --<br>------- ------,162070.59999999963,162069.69999999925,161809.751,161823.29999999888,161826.393,162076.525,,9,its
screen,html.Screen,2_1_1_1_10,2022-02-15T12:29:39.651Z,,,,,,,,,,,,,,,,,54,,,,,,,,,,,,,,247.27499999888823,,response,,,,100,,,,,,,Space,keypress(Space),,,,,,,,-- --- ---- --- ------ ----- ------- ---- -- --- revenue --<br>------- ---------- ------ -- ----- -- ----- -- ---- ------<br>--- ----- --- --- ------ -------- ----- --- ------ ----- --<br>----- ----- ---------- --- --- ------ ------ ---- -- ------<br>------- --- ------ ----- --- ---- ------- -- ---- --- --<br>------- ------,162324.59999999963,162323.79999999888,162059.783,162070.79999999888,162076.525,162326.455,,10,revenue
screen,html.Screen,2_1_1_1_11,2022-02-15T12:29:39.957Z,,,,,,,,,,,,,,,,,54,,,,,,,,,,,,,,303.3449999988952,,response,,,,100,,,,,,,Space,keypress(Space),,,,,,,,-- --- ---- --- ------ ----- ------- ---- -- --- ------- by<br>------- ---------- ------ -- ----- -- ----- -- ---- ------<br>--- ----- --- --- ------ -------- ----- --- ------ ----- --<br>----- ----- ---------- --- --- ------ ------ ---- -- ------<br>------- --- ------ ----- --- ---- ------- -- ---- --- --<br>------- ------,162630.69999999925,162629.79999999888,162309.778,162324.79999999888,162326.455,162643.213,,11,by
screen,html.Screen,2_1_1_1_12,2022-02-15T12:29:40.259Z,,,,,,,,,,,,,,,,,54,,,,,,,,,,,,,,287.4869999992661,,response,,,,100,,,,,,,Space,keypress(Space),,,,,,,,-- --- ---- --- ------ ----- ------- ---- -- --- ------- --<br>issuing ---------- ------ -- ----- -- ----- -- ---- ------<br>--- ----- --- --- ------ -------- ----- --- ------ ----- --<br>----- ----- ---------- --- --- ------ ------ ---- -- ------<br>------- --- ------ ----- --- ---- ------- -- ---- --- --<br>------- ------,162932.59999999963,162930.69999999925,162626.508,162630.79999999888,162643.213,162943.178,,12,issuing
screen,html.Screen,2_1_1_1_13,2022-02-15T12:29:40.490Z,,,,,,,,,,,,,,,,,54,,,,,,,,,,,,,,218.92199999961304,,response,,,,100,,,,,,,Space,keypress(Space),,,,,,,,-- --- ---- --- ------ ----- ------- ---- -- --- ------- --<br>------- government ------ -- ----- -- ----- -- ---- ------<br>--- ----- --- --- ------ -------- ----- --- ------ ----- --<br>----- ----- ---------- --- --- ------ ------ ---- -- ------<br>------- --- ------ ----- --- ---- ------- -- ---- --- --<br>------- ------,163164.19999999925,163162.09999999963,162926.509,162933.19999999925,162943.178,163176.474,,13,government
screen,html.Screen,2_1_1_1_14,2022-02-15T12:29:40.706Z,,,,,,,,,,,,,,,,,54,,,,,,,,,,,,,,203.32599999889499,,response,,,,100,,,,,,,Space,keypress(Space),,,,,,,,-- --- ---- --- ------ ----- ------- ---- -- --- ------- --<br>------- ---------- bonds. -- ----- -- ----- -- ---- ------<br>--- ----- --- --- ------ -------- ----- --- ------ ----- --<br>----- ----- ---------- --- --- ------ ------ ---- -- ------<br>------- --- ------ ----- --- ---- ------- -- ---- --- --<br>------- ------,163380.3999999985,163379.79999999888,163159.75,163164.5,163176.474,163393.22,,14,bonds.
screen,html.Screen,2_1_1_1_15,2022-02-15T12:29:40.947Z,,,,,,,,,,,,,,,,,54,,,,,,,,,,,,,,227.27999999999884,,response,,,,100,,,,,,,Space,keypress(Space),,,,,,,,-- --- ---- --- ------ ----- ------- ---- -- --- ------- --<br>------- ---------- ------ In ----- -- ----- -- ---- ------<br>--- ----- --- --- ------ -------- ----- --- ------ ----- --<br>----- ----- ---------- --- --- ------ ------ ---- -- ------<br>------- --- ------ ----- --- ---- ------- -- ---- --- --<br>------- ------,163621.29999999888,163620.5,163376.464,163380.69999999925,163393.22,163626.477,,15,In
screen,html.Screen,2_1_1_1_16,2022-02-15T12:29:41.188Z,,,,,,,,,,,,,,,,,54,,,,,,,,,,,,,,235.0229999999865,,response,,,,100,,,,,,,Space,keypress(Space),,,,,,,,"-- --- ---- --- ------ ----- ------- ---- -- --- ------- --<br>------- ---------- ------ -- 1727, -- ----- -- ---- ------<br>--- ----- --- --- ------ -------- ----- --- ------ ----- --<br>----- ----- ---------- --- --- ------ ------ ---- -- ------<br>------- --- ------ ----- --- ---- ------- -- ---- --- --<br>------- ------",163862.29999999888,163861.5,163609.887,163621.5,163626.477,163876.522,,16,"1727,"
screen,html.Screen,2_1_1_1_17,2022-02-15T12:29:41.487Z,,,,,,,,,,,,,,,,,54,,,,,,,,,,,,,,283.2779999988852,,response,,,,100,,,,,,,Space,keypress(Space),,,,,,,,-- --- ---- --- ------ ----- ------- ---- -- --- ------- --<br>------- ---------- ------ -- ----- in ----- -- ---- ------<br>--- ----- --- --- ------ -------- ----- --- ------ ----- --<br>----- ----- ---------- --- --- ------ ------ ---- -- ------<br>------- --- ------ ----- --- ---- ------- -- ---- --- --<br>------- ------,164161.19999999925,164159.79999999888,163859.821,163862.3999999985,163876.522,164176.55,,17,in
screen,html.Screen,2_1_1_1_18,2022-02-15T12:29:41.821Z,,,,,,,,,,,,,,,,,54,,,,,,,,,,,,,,317.8499999985215,,response,,,,100,,,,,,,Space,keypress(Space),,,,,,,,-- --- ---- --- ------ ----- ------- ---- -- --- ------- --<br>------- ---------- ------ -- ----- -- order -- ---- ------<br>--- ----- --- --- ------ -------- ----- --- ------ ----- --<br>----- ----- ---------- --- --- ------ ------ ---- -- ------<br>------- --- ------ ----- --- ---- ------- -- ---- --- --<br>------- ------,164495.29999999888,164494.3999999985,164159.838,164161.29999999888,164176.55,164509.832,,18,order
screen,html.Screen,2_1_1_1_19,2022-02-15T12:29:42.172Z,,,,,,,,,,,,,,,,,54,,,,,,,,,,,,,,335.86799999926006,,response,,,,100,,,,,,,Space,keypress(Space),,,,,,,,-- --- ---- --- ------ ----- ------- ---- -- --- ------- --<br>------- ---------- ------ -- ----- -- ----- to ---- ------<br>--- ----- --- --- ------ -------- ----- --- ------ ----- --<br>----- ----- ---------- --- --- ------ ------ ---- -- ------<br>------- --- ------ ----- --- ---- ------- -- ---- --- --<br>------- ------,164846.3999999985,164845.69999999925,164493.242,164495.5,164509.832,164859.953,,19,to
screen,html.Screen,2_1_1_1_20,2022-02-15T12:29:42.415Z,,,,,,,,,,,,,,,,,54,,,,,,,,,,,,,,228.04699999999139,,response,,,,100,,,,,,,Space,keypress(Space),,,,,,,,-- --- ---- --- ------ ----- ------- ---- -- --- ------- --<br>------- ---------- ------ -- ----- -- ----- -- save ------<br>--- ----- --- --- ------ -------- ----- --- ------ ----- --<br>----- ----- ---------- --- --- ------ ------ ---- -- ------<br>------- --- ------ ----- --- ---- ------- -- ---- --- --<br>------- ------,165089,165088,164843.23,164846.59999999963,164859.953,165093.195,,20,save
screen,html.Screen,2_1_1_1_21,2022-02-15T12:29:42.646Z,,,,,,,,,,,,,,,,,54,,,,,,,,,,,,,,226.50499999924796,,response,,,,100,,,,,,,Space,keypress(Space),,,,,,,,"-- --- ---- --- ------ ----- ------- ---- -- --- ------- --<br>------- ---------- ------ -- ----- -- ----- -- ---- money,<br>--- ----- --- --- ------ -------- ----- --- ------ ----- --<br>----- ----- ---------- --- --- ------ ------ ---- -- ------<br>------- --- ------ ----- --- ---- ------- -- ---- --- --<br>------- ------",165320.3999999985,165319.69999999925,165076.543,165089.09999999963,165093.195,165326.588,,21,"money,"
screen,html.Screen,2_1_1_1_22,2022-02-15T12:29:42.863Z,,,,,,,,,,,,,,,,,54,,,,,,,,,,,,,,209.41200000001118,,response,,,,100,,,,,,,Space,keypress(Space),,,,,,,,-- --- ---- --- ------ ----- ------- ---- -- --- ------- --<br>------- ---------- ------ -- ----- -- ----- -- ---- ------<br>the ----- --- --- ------ -------- ----- --- ------ ----- --<br>----- ----- ---------- --- --- ------ ------ ---- -- ------<br>------- --- ------ ----- --- ---- ------- -- ---- --- --<br>------- ------,165537,165536,165309.932,165320.59999999963,165326.588,165543.246,,22,the
screen,html.Screen,2_1_1_1_23,2022-02-15T12:29:43.081Z,,,,,,,,,,,,,,,,,54,,,,,,,,,,,,,,210.55399999886868,,response,,,,100,,,,,,,Space,keypress(Space),,,,,,,,-- --- ---- --- ------ ----- ------- ---- -- --- ------- --<br>------- ---------- ------ -- ----- -- ----- -- ---- ------<br>--- state --- --- ------ -------- ----- --- ------ ----- --<br>----- ----- ---------- --- --- ------ ------ ---- -- ------<br>------- --- ------ ----- --- ---- ------- -- ---- --- --<br>------- ------,165754.79999999888,165753.79999999888,165526.533,165537.19999999925,165543.246,165759.86,,23,state
screen,html.Screen,2_1_1_1_24,2022-02-15T12:29:43.293Z,,,,,,,,,,,,,,,,,54,,,,,,,,,,,,,,206.3399999992689,,response,,,,100,,,,,,,Space,keypress(Space),,,,,,,,-- --- ---- --- ------ ----- ------- ---- -- --- ------- --<br>------- ---------- ------ -- ----- -- ----- -- ---- ------<br>--- ----- cut --- ------ -------- ----- --- ------ ----- --<br>----- ----- ---------- --- --- ------ ------ ---- -- ------<br>------- --- ------ ----- --- ---- ------- -- ---- --- --<br>------- ------,165967.3999999985,165966.19999999925,165743.278,165755.19999999925,165759.86,165976.579,,24,cut
screen,html.Screen,2_1_1_1_25,2022-02-15T12:29:43.587Z,,,,,,,,,,,,,,,,,54,,,,,,,,,,,,,,283.2209999988845,,response,,,,100,,,,,,,Space,keypress(Space),,,,,,,,-- --- ---- --- ------ ----- ------- ---- -- --- ------- --<br>------- ---------- ------ -- ----- -- ----- -- ---- ------<br>--- ----- --- the ------ -------- ----- --- ------ ----- --<br>----- ----- ---------- --- --- ------ ------ ---- -- ------<br>------- --- ------ ----- --- ---- ------- -- ---- --- --<br>------- ------,166261.09999999963,166259.79999999888,165959.891,165967.59999999963,165976.579,166276.68,,25,the
screen,html.Screen,2_1_1_1_26,2022-02-15T12:29:43.817Z,,,,,,,,,,,,,,,,,54,,,,,,,,,,,,,,213.21999999851687,,response,,,,100,,,,,,,Space,keypress(Space),,,,,,,,-- --- ---- --- ------ ----- ------- ---- -- --- ------- --<br>------- ---------- ------ -- ----- -- ----- -- ---- ------<br>--- ----- --- --- bonds' -------- ----- --- ------ ----- --<br>----- ----- ---------- --- --- ------ ------ ---- -- ------<br>------- --- ------ ----- --- ---- ------- -- ---- --- --<br>------- ------,166490.69999999925,166489.8999999985,166259.868,166261.19999999925,166276.68,166493.253,,26,bonds'
screen,html.Screen,2_1_1_1_27,2022-02-15T12:29:44.023Z,,,,,,,,,,,,,,,,,54,,,,,,,,,,,,,,202.6469999985129,,response,,,,100,,,,,,,Space,keypress(Space),,,,,,,,-- --- ---- --- ------ ----- ------- ---- -- --- ------- --<br>------- ---------- ------ -- ----- -- ----- -- ---- ------<br>--- ----- --- --- ------ interest ----- --- ------ ----- --<br>----- ----- ---------- --- --- ------ ------ ---- -- ------<br>------- --- ------ ----- --- ---- ------- -- ---- --- --<br>------- ------,166697,166695.8999999985,166476.511,166490.8999999985,166493.253,166709.991,,27,interest
screen,html.Screen,2_1_1_1_28,2022-02-15T12:29:44.212Z,,,,,,,,,,,,,,,,,54,,,,,,,,,,,,,,175.6089999996184,,response,,,,100,,,,,,,Space,keypress(Space),,,,,,,,-- --- ---- --- ------ ----- ------- ---- -- --- ------- --<br>------- ---------- ------ -- ----- -- ----- -- ---- ------<br>--- ----- --- --- ------ -------- rate. --- ------ ----- --<br>----- ----- ---------- --- --- ------ ------ ---- -- ------<br>------- --- ------ ----- --- ---- ------- -- ---- --- --<br>------- ------,166886.3999999985,166885.59999999963,166693.308,166697.19999999925,166709.991,166893.325,,28,rate.
screen,html.Screen,2_1_1_1_29,2022-02-15T12:29:44.432Z,,,,,,,,,,,,,,,,,54,,,,,,,,,,,,,,212.3749999992433,,response,,,,100,,,,,,,Space,keypress(Space),,,,,,,,-- --- ---- --- ------ ----- ------- ---- -- --- ------- --<br>------- ---------- ------ -- ----- -- ----- -- ---- ------<br>--- ----- --- --- ------ -------- ----- The ------ ----- --<br>----- ----- ---------- --- --- ------ ------ ---- -- ------<br>------- --- ------ ----- --- ---- ------- -- ---- --- --<br>------- ------,167106.3999999985,167105.69999999925,166876.658,166886.59999999963,166893.325,167109.945,,29,The
screen,html.Screen,2_1_1_1_30,2022-02-15T12:29:44.649Z,,,,,,,,,,,,,,,,,54,,,,,,,,,,,,,,212.1549999996205,,response,,,,100,,,,,,,Space,keypress(Space),,,,,,,,-- --- ---- --- ------ ----- ------- ---- -- --- ------- --<br>------- ---------- ------ -- ----- -- ----- -- ---- ------<br>--- ----- --- --- ------ -------- ----- --- market ----- --<br>----- ----- ---------- --- --- ------ ------ ---- -- ------<br>------- --- ------ ----- --- ---- ------- -- ---- --- --<br>------- ------,167322.8999999985,167322.09999999963,167093.272,167106.5,167109.945,167326.566,,30,market
screen,html.Screen,2_1_1_1_31,2022-02-15T12:29:44.942Z,,,,,,,,,,,,,,,,,54,,,,,,,,,,,,,,289.1339999992633,,response,,,,100,,,,,,,Space,keypress(Space),,,,,,,,-- --- ---- --- ------ ----- ------- ---- -- --- ------- --<br>------- ---------- ------ -- ----- -- ----- -- ---- ------<br>--- ----- --- --- ------ -------- ----- --- ------ value --<br>----- ----- ---------- --- --- ------ ------ ---- -- ------<br>------- --- ------ ----- --- ---- ------- -- ---- --- --<br>------- ------,167616.29999999888,167615.69999999925,167310.015,167323,167326.566,167626.725,,31,value
screen,html.Screen,2_1_1_1_32,2022-02-15T12:29:45.270Z,,,,,,,,,,,,,,,,,54,,,,,,,,,,,,,,315.7749999999942,,response,,,,100,,,,,,,Space,keypress(Space),,,,,,,,-- --- ---- --- ------ ----- ------- ---- -- --- ------- --<br>------- ---------- ------ -- ----- -- ----- -- ---- ------<br>--- ----- --- --- ------ -------- ----- --- ------ ----- of<br>----- ----- ---------- --- --- ------ ------ ---- -- ------<br>------- --- ------ ----- --- ---- ------- -- ---- --- --<br>------- ------,167943.79999999888,167942.5,167609.98,167616.3999999985,167626.725,167960.023,,32,of
screen,html.Screen,2_1_1_1_33,2022-02-15T12:29:45.551Z,,,,,,,,,,,,,,,,,54,,,,,,,,,,,,,,264.3769999985234,,response,,,,100,,,,,,,Space,keypress(Space),,,,,,,,-- --- ---- --- ------ ----- ------- ---- -- --- ------- --<br>------- ---------- ------ -- ----- -- ----- -- ---- ------<br>--- ----- --- --- ------ -------- ----- --- ------ ----- --<br>these ----- ---------- --- --- ------ ------ ---- -- ------<br>------- --- ------ ----- --- ---- ------- -- ---- --- --<br>------- ------,168225.3999999985,168224.3999999985,167943.299,167944,167960.023,168250.852,,33,these
screen,html.Screen,2_1_1_1_34,2022-02-15T12:29:45.743Z,,,,,,,,,,,,,,,,,54,,,,,,,,,,,,,,164.9479999988689,,response,,,,100,,,,,,,Space,keypress(Space),,,,,,,,-- --- ---- --- ------ ----- ------- ---- -- --- ------- --<br>------- ---------- ------ -- ----- -- ----- -- ---- ------<br>--- ----- --- --- ------ -------- ----- --- ------ ----- --<br>----- bonds ---------- --- --- ------ ------ ---- -- ------<br>------- --- ------ ----- --- ---- ------- -- ---- --- --<br>------- ------,168416.69999999925,168415.79999999888,168210.029,168225.69999999925,168250.852,168426.721,,34,bonds
screen,html.Screen,2_1_1_1_35,2022-02-15T12:29:45.907Z,,,,,,,,,,,,,,,,,54,,,,,,,,,,,,,,152.37899999963702,,response,,,,100,,,,,,,Space,keypress(Space),,,,,,,,"-- --- ---- --- ------ ----- ------- ---- -- --- ------- --<br>------- ---------- ------ -- ----- -- ----- -- ---- ------<br>--- ----- --- --- ------ -------- ----- --- ------ ----- --<br>----- ----- plummeted, --- --- ------ ------ ---- -- ------<br>------- --- ------ ----- --- ---- ------- -- ---- --- --<br>------- ------",168581.09999999963,168579.09999999963,168410.039,168416.8999999985,168426.721,168593.348,,35,"plummeted,"
screen,html.Screen,2_1_1_1_36,2022-02-15T12:29:46.068Z,,,,,,,,,,,,,,,,,54,,,,,,,,,,,,,,148.3519999992568,,response,,,,100,,,,,,,Space,keypress(Space),,,,,,,,-- --- ---- --- ------ ----- ------- ---- -- --- ------- --<br>------- ---------- ------ -- ----- -- ----- -- ---- ------<br>--- ----- --- --- ------ -------- ----- --- ------ ----- --<br>----- ----- ---------- and --- ------ ------ ---- -- ------<br>------- --- ------ ----- --- ---- ------- -- ---- --- --<br>------- ------,168742.29999999888,168741.69999999925,168576.701,168581.29999999888,168593.348,168773.096,,36,and
screen,html.Screen,2_1_1_1_37,2022-02-15T12:29:46.273Z,,,,,,,,,,,,,,,,,54,,,,,,,,,,,,,,172.6039999992645,,response,,,,100,,,,,,,Space,keypress(Space),,,,,,,,-- --- ---- --- ------ ----- ------- ---- -- --- ------- --<br>------- ---------- ------ -- ----- -- ----- -- ---- ------<br>--- ----- --- --- ------ -------- ----- --- ------ ----- --<br>----- ----- ---------- --- the ------ ------ ---- -- ------<br>------- --- ------ ----- --- ---- ------- -- ---- --- --<br>------- ------,168946.79999999888,168945.69999999925,168726.672,168742.59999999963,168773.096,168960.027,,37,the
screen,html.Screen,2_1_1_1_38,2022-02-15T12:29:46.476Z,,,,,,,,,,,,,,,,,54,,,,,,,,,,,,,,189.5729999996256,,response,,,,100,,,,,,,Space,keypress(Space),,,,,,,,-- --- ---- --- ------ ----- ------- ---- -- --- ------- --<br>------- ---------- ------ -- ----- -- ----- -- ---- ------<br>--- ----- --- --- ------ -------- ----- --- ------ ----- --<br>----- ----- ---------- --- --- market ------ ---- -- ------<br>------- --- ------ ----- --- ---- ------- -- ---- --- --<br>------- ------,169150.29999999888,169149.59999999963,168943.314,168948.3999999985,168960.027,169160.095,,38,market
screen,html.Screen,2_1_1_1_39,2022-02-15T12:29:46.632Z,,,,,,,,,,,,,,,,,54,,,,,,,,,,,,,,145.5049999996263,,response,,,,100,,,,,,,Space,keypress(Space),,,,,,,,-- --- ---- --- ------ ----- ------- ---- -- --- ------- --<br>------- ---------- ------ -- ----- -- ----- -- ---- ------<br>--- ----- --- --- ------ -------- ----- --- ------ ----- --<br>----- ----- ---------- --- --- ------ became ---- -- ------<br>------- --- ------ ----- --- ---- ------- -- ---- --- --<br>------- ------,169306.3999999985,169305.59999999963,169143.351,169150.5,169160.095,169310.061,,39,became
screen,html.Screen,2_1_1_1_40,2022-02-15T12:29:46.814Z,,,,,,,,,,,,,,,,,54,,,,,,,,,,,,,,177.33899999852292,,response,,,,100,,,,,,,Space,keypress(Space),,,,,,,,-- --- ---- --- ------ ----- ------- ---- -- --- ------- --<br>------- ---------- ------ -- ----- -- ----- -- ---- ------<br>--- ----- --- --- ------ -------- ----- --- ------ ----- --<br>----- ----- ---------- --- --- ------ ------ wary -- ------<br>------- --- ------ ----- --- ---- ------- -- ---- --- --<br>------- ------,169488.19999999925,169487.3999999985,169293.325,169306.5,169310.061,169493.299,,40,wary
screen,html.Screen,2_1_1_1_41,2022-02-15T12:29:47.027Z,,,,,,,,,,,,,,,,,54,,,,,,,,,,,,,,206.90099999925587,,response,,,,100,,,,,,,Space,keypress(Space),,,,,,,,-- --- ---- --- ------ ----- ------- ---- -- --- ------- --<br>------- ---------- ------ -- ----- -- ----- -- ---- ------<br>--- ----- --- --- ------ -------- ----- --- ------ ----- --<br>----- ----- ---------- --- --- ------ ------ ---- of ------<br>------- --- ------ ----- --- ---- ------- -- ---- --- --<br>------- ------,169700.8999999985,169700.19999999925,169476.639,169488.3999999985,169493.299,169710.067,,41,of
screen,html.Screen,2_1_1_1_42,2022-02-15T12:29:47.375Z,,,,,,,,,,,,,,,,,54,,,,,,,,,,,,,,337.7329999988724,,response,,,,100,,,,,,,Space,keypress(Space),,,,,,,,-- --- ---- --- ------ ----- ------- ---- -- --- ------- --<br>------- ---------- ------ -- ----- -- ----- -- ---- ------<br>--- ----- --- --- ------ -------- ----- --- ------ ----- --<br>----- ----- ---------- --- --- ------ ------ ---- -- French<br>------- --- ------ ----- --- ---- ------- -- ---- --- --<br>------- ------,170048.5,170047.79999999888,169693.339,169700.8999999985,169710.067,170060.032,,42,French
screen,html.Screen,2_1_1_1_43,2022-02-15T12:29:47.662Z,,,,,,,,,,,,,,,,,54,,,,,,,,,,,,,,275.36799999850336,,response,,,,100,,,,,,,Space,keypress(Space),,,,,,,,-- --- ---- --- ------ ----- ------- ---- -- --- ------- --<br>------- ---------- ------ -- ----- -- ----- -- ---- ------<br>--- ----- --- --- ------ -------- ----- --- ------ ----- --<br>----- ----- ---------- --- --- ------ ------ ---- -- ------<br>credit. --- ------ ----- --- ---- ------- -- ---- --- --<br>------- ------,170336.09999999963,170335.3999999985,170043.481,170048.69999999925,170060.032,170338.155,,43,credit.
screen,html.Screen,2_1_1_1_44,2022-02-15T12:29:47.851Z,,,,,,,,,,,,,,,,,54,,,,,,,,,,,,,,185.84500000000116,,response,,,,100,,,,,,,Space,keypress(Space),,,,,,,,-- --- ---- --- ------ ----- ------- ---- -- --- ------- --<br>------- ---------- ------ -- ----- -- ----- -- ---- ------<br>--- ----- --- --- ------ -------- ----- --- ------ ----- --<br>----- ----- ---------- --- --- ------ ------ ---- -- ------<br>------- The ------ ----- --- ---- ------- -- ---- --- --<br>------- ------,170524.69999999925,170524,170326.745,170336.19999999925,170338.155,170526.72,,44,The
screen,html.Screen,2_1_1_1_45,2022-02-15T12:29:48.038Z,,,,,,,,,,,,,,,,,54,,,,,,,,,,,,,,184.67999999850872,,response,,,,100,,,,,,,Space,keypress(Space),,,,,,,,-- --- ---- --- ------ ----- ------- ---- -- --- ------- --<br>------- ---------- ------ -- ----- -- ----- -- ---- ------<br>--- ----- --- --- ------ -------- ----- --- ------ ----- --<br>----- ----- ---------- --- --- ------ ------ ---- -- ------<br>------- --- French ----- --- ---- ------- -- ---- --- --<br>------- ------,170712.19999999925,170711.3999999985,170509.995,170524.79999999888,170526.72,170726.71,,45,French
screen,html.Screen,2_1_1_1_46,2022-02-15T12:29:48.216Z,,,,,,,,,,,,,,,,,54,,,,,,,,,,,,,,162.79000000000815,,response,,,,100,,,,,,,Space,keypress(Space),,,,,,,,-- --- ---- --- ------ ----- ------- ---- -- --- ------- --<br>------- ---------- ------ -- ----- -- ----- -- ---- ------<br>--- ----- --- --- ------ -------- ----- --- ------ ----- --<br>----- ----- ---------- --- --- ------ ------ ---- -- ------<br>------- --- ------ state --- ---- ------- -- ---- --- --<br>------- ------,170890.09999999963,170889.5,170710.044,170712.29999999888,170726.71,170893.365,,46,state
screen,html.Screen,2_1_1_1_47,2022-02-15T12:29:48.402Z,,,,,,,,,,,,,,,,,54,,,,,,,,,,,,,,182.0349999985192,,response,,,,100,,,,,,,Space,keypress(Space),,,,,,,,-- --- ---- --- ------ ----- ------- ---- -- --- ------- --<br>------- ---------- ------ -- ----- -- ----- -- ---- ------<br>--- ----- --- --- ------ -------- ----- --- ------ ----- --<br>----- ----- ---------- --- --- ------ ------ ---- -- ------<br>------- --- ------ ----- was ---- ------- -- ---- --- --<br>------- ------,171076.09999999963,171075.3999999985,170876.7,170890.19999999925,170893.365,171094.729,,47,was
screen,html.Screen,2_1_1_1_48,2022-02-15T12:29:48.607Z,,,,,,,,,,,,,,,,,54,,,,,,,,,,,,,,185.6709999985178,,response,,,,100,,,,,,,Space,keypress(Space),,,,,,,,-- --- ---- --- ------ ----- ------- ---- -- --- ------- --<br>------- ---------- ------ -- ----- -- ----- -- ---- ------<br>--- ----- --- --- ------ -------- ----- --- ------ ----- --<br>----- ----- ---------- --- --- ------ ------ ---- -- ------<br>------- --- ------ ----- --- left ------- -- ---- --- --<br>------- ------,171281,171280.3999999985,171060.006,171076.19999999925,171094.729,171293.393,,48,left
screen,html.Screen,2_1_1_1_49,2022-02-15T12:29:48.817Z,,,,,,,,,,,,,,,,,54,,,,,,,,,,,,,,196.306999999244,,response,,,,100,,,,,,,Space,keypress(Space),,,,,,,,-- --- ---- --- ------ ----- ------- ---- -- --- ------- --<br>------- ---------- ------ -- ----- -- ----- -- ---- ------<br>--- ----- --- --- ------ -------- ----- --- ------ ----- --<br>----- ----- ---------- --- --- ------ ------ ---- -- ------<br>------- --- ------ ----- --- ---- without -- ---- --- --<br>------- ------,171490.5,171489.69999999925,171276.712,171281.09999999963,171293.393,171493.375,,49,without
screen,html.Screen,2_1_1_1_50,2022-02-15T12:29:49.028Z,,,,,,,,,,,,,,,,,54,,,,,,,,,,,,,,208.32499999925494,,response,,,,100,,,,,,,Space,keypress(Space),,,,,,,,-- --- ---- --- ------ ----- ------- ---- -- --- ------- --<br>------- ---------- ------ -- ----- -- ----- -- ---- ------<br>--- ----- --- --- ------ -------- ----- --- ------ ----- --<br>----- ----- ---------- --- --- ------ ------ ---- -- ------<br>------- --- ------ ----- --- ---- ------- an ---- --- --<br>------- ------,171702.29999999888,171701.69999999925,171476.716,171490.59999999963,171493.375,171710.127,,50,an
screen,html.Screen,2_1_1_1_51,2022-02-15T12:29:49.229Z,,,,,,,,,,,,,,,,,54,,,,,,,,,,,,,,191.57299999924726,,response,,,,100,,,,,,,Space,keypress(Space),,,,,,,,-- --- ---- --- ------ ----- ------- ---- -- --- ------- --<br>------- ---------- ------ -- ----- -- ----- -- ---- ------<br>--- ----- --- --- ------ -------- ----- --- ------ ----- --<br>----- ----- ---------- --- --- ------ ------ ---- -- ------<br>------- --- ------ ----- --- ---- ------- -- easy --- --<br>------- ------,171902.69999999925,171901.69999999925,171693.45,171702.3999999985,171710.127,171910.134,,51,easy
screen,html.Screen,2_1_1_1_52,2022-02-15T12:29:49.444Z,,,,,,,,,,,,,,,,,54,,,,,,,,,,,,,,206.06599999926402,,response,,,,100,,,,,,,Space,keypress(Space),,,,,,,,-- --- ---- --- ------ ----- ------- ---- -- --- ------- --<br>------- ---------- ------ -- ----- -- ----- -- ---- ------<br>--- ----- --- --- ------ -------- ----- --- ------ ----- --<br>----- ----- ---------- --- --- ------ ------ ---- -- ------<br>------- --- ------ ----- --- ---- ------- -- ---- way --<br>------- ------,172117.59999999963,172116.19999999925,171893.492,171903,171910.134,172126.789,,52,way
screen,html.Screen,2_1_1_1_53,2022-02-15T12:29:49.723Z,,,,,,,,,,,,,,,,,54,,,,,,,,,,,,,,269.21100000001024,,response,,,,100,,,,,,,Space,keypress(Space),,,,,,,,-- --- ---- --- ------ ----- ------- ---- -- --- ------- --<br>------- ---------- ------ -- ----- -- ----- -- ---- ------<br>--- ----- --- --- ------ -------- ----- --- ------ ----- --<br>----- ----- ---------- --- --- ------ ------ ---- -- ------<br>------- --- ------ ----- --- ---- ------- -- ---- --- of<br>------- ------,172396.59999999963,172396,172110.052,172118.19999999925,172126.789,172410.201,,53,of
screen,html.Screen,2_1_1_1_54,2022-02-15T12:29:50.009Z,,,,,,,,,,,,,,,,,54,,,,,,,,,,,,,,271.39899999962654,,response,,,,100,,,,,,,Space,keypress(Space),,,,,,,,-- --- ---- --- ------ ----- ------- ---- -- --- ------- --<br>------- ---------- ------ -- ----- -- ----- -- ---- ------<br>--- ----- --- --- ------ -------- ----- --- ------ ----- --<br>----- ----- ---------- --- --- ------ ------ ---- -- ------<br>------- --- ------ ----- --- ---- ------- -- ---- --- --<br>raising ------,172682.59999999963,172681.59999999963,172393.447,172396.79999999888,172410.201,172693.511,,54,raising
screen,html.Screen,2_1_1_1_55,2022-02-15T12:29:50.424Z,,,,,,,,,,,,,,,,,54,,,,,,,,,,,,,,404.18899999925634,,response,,,,100,,,,,,,Space,keypress(Space),,,,,,,,-- --- ---- --- ------ ----- ------- ---- -- --- ------- --<br>------- ---------- ------ -- ----- -- ----- -- ---- ------<br>--- ----- --- --- ------ -------- ----- --- ------ ----- --<br>----- ----- ---------- --- --- ------ ------ ---- -- ------<br>------- --- ------ ----- --- ---- ------- -- ---- --- --<br>------- money.,173098.5,173097.69999999925,172676.726,172682.79999999888,172693.511,173110.145,,55,money.
Item 100,flow.Loop,2_1_1_1,2022-02-15T12:29:50.425Z,,,,,,,,,,,,,,,,,,,,,,,,,,,,,,,13954.683999999252,,completion,,,,,D,,,,,,,,,,,silence,,,,,173098.69999999925,173097.69999999925,159126.463,159127.19999999925,159143.016,173110.145,,,
Question 1,html.Screen,2_1_1_2,2022-02-15T12:29:52.887Z,,,,,,,,,,,,,,,,,,,,,,,,,,,,true,TRUE,,2448.954999999638,,response,,,,100,D,,,,,,TRUE,click #choice-1,,,,silence,,,,,175561.09999999963,175559.09999999963,173093.46,173098.69999999925,173110.145,175581.83,,,
Question 2,html.Screen,2_1_1_3,2022-02-15T12:29:54.546Z,,,,,,,,,,,,,,,,,,,,,,,,,,,,true,FALSE,,1636.3699999992677,,response,,,,100,D,,,,,,FALSE,click #choice-2,,,,silence,,,,,177219.59999999963,177218.19999999925,175543.608,175561.19999999925,175581.83,177227.017,,,
Item 100,flow.Sequence,2_1_1,2022-02-15T12:29:54.546Z,,,,,,,,,,,,,,,,,,,,,,,,,,,,,,,28075.577999999252,,completion,,,,,,,,,,,,,,,,,,,,,177219.69999999925,177218.19999999925,149126.009,149140.59999999963,149142.622,177227.017,,,
End of Practice,html.Page,2_1_2,2022-02-15T12:29:58.831Z,,,,,,,,,,,,,,,,,,,,,,,,,,,,,,,4276.983000000007,,form submission,,,,,,,,,,,,,,,,,,,,,181504.5,181504,177210.306,177219.8999999985,177227.017,181510.389,,,
Practice,flow.Sequence,2_1,2022-02-15T12:29:58.831Z,,,,,,,,,,,,,,,,,,,,,,,,,,,,,,,67229.171,,completion,,,,,,,,,,,,,,,,,,,,,181504.69999999925,181504,114258.137,114270.09999999963,114274.829,181510.389,,,
Trap_instruction,html.Page,2_2_0,2022-02-15T12:30:02.085Z,,,,,,,,,,,,,,,,,,,,,,,,,,,,,,,3248.0109999985143,,form submission,,,,,,,,,,,,,,,,,,,,,184758.69999999925,184758.3999999985,181493.744,181504.79999999888,181510.389,184777.237,,,
trap_trial,html.Screen,2_2_1,2022-02-15T12:30:04.752Z,,,,,,,,,,,,,,,,,,,,,,,,,,,,true,1,,2647.0629999988887,,response,,,,,,,,,,,1,click #choice-1,,,,,,,,,187425.59999999963,187424.29999999888,184760.577,184758.79999999888,184777.237,187427.29,,,
end of trap trial,html.Page,2_2_2,2022-02-15T12:30:06.131Z,,,,,,,,,,,,,,,,,,,,,,,,,,,,,,,1376.7099999999919,,form submission,,,,,,,,,,,,,,,,,,,,,188804.69999999925,188804,187410.68,187425.69999999925,187427.29,188810.703,,,
Trap 1,flow.Sequence,2_2,2022-02-15T12:30:06.131Z,,,,,,,,,,,,,,,,,,,,,,,,,,,,,,,7293.611000000004,,completion,,,,,,,,,,,,,,,,,,,,,188804.79999999888,188804,181493.744,181504.79999999888,181510.389,188810.703,,,
Standby,html.Page,2_3_0,2022-02-15T12:30:14.121Z,,,,,,,,,,,,,,,,,,,,,,,,,,,,,,,8000.300999999978,,timeout,,,,,,,,,,,,,,,,,,,,,196794.79999999888,196794.289,188794.074,188804.8999999985,188810.703,196811.004,,,
Holding screen,html.Screen,2_3_1_0_0,2022-02-15T12:30:21.121Z,,,,,,,,,,,,,,,,,,,,,,,,,,,,,,,7000.213000000018,,timeout,,,,,,,,,,,,,,,,,,,,,203795,203794.568,196794.289,196795,196811.004,203811.217,,,
screen,html.Screen,2_3_1_0_1_0,2022-02-15T12:30:21.819Z,,,,,,,,,,,,,,,,,51,,,,,,,,,,,,,,678.2829999999958,,response,,,,13,D,,,,,,Space,keypress(Space),,,,silence,,,,American -------- --- --- ---- --- --- ------ -- --------<br>---- --------- --- ------- ------------ ---------- ---------<br>--- ---------- ------- ---------- ------- -- -------- ----<br>---- --- ------ ----- ------ -- ---- --- ----- -- - -------<br>-------- -- --- --- -- ----- ----------- ----- -----------<br>---- --- ---------- --- ---- --- -- ----------,204492.19999999925,204489.5,203794.568,203795.19999999925,203811.217,204494.568,,0,American
screen,html.Screen,2_3_1_0_1_1,2022-02-15T12:30:22.116Z,,,,,,,,,,,,,,,,,51,,,,,,,,,,,,,,294.2319999988831,,response,,,,13,D,,,,,,Space,keypress(Space),,,,silence,,,,-------- industry --- --- ---- --- --- ------ -- --------<br>---- --------- --- ------- ------------ ---------- ---------<br>--- ---------- ------- ---------- ------- -- -------- ----<br>---- --- ------ ----- ------ -- ---- --- ----- -- - -------<br>-------- -- --- --- -- ----- ----------- ----- -----------<br>---- --- ---------- --- ---- --- -- ----------,204789.5,204788.79999999888,204477.83,204492.69999999925,204494.568,204794.495,,1,industry
screen,html.Screen,2_3_1_0_1_2,2022-02-15T12:30:22.386Z,,,,,,,,,,,,,,,,,51,,,,,,,,,,,,,,264.2049999992596,,response,,,,13,D,,,,,,Space,keypress(Space),,,,silence,,,,-------- -------- may --- ---- --- --- ------ -- --------<br>---- --------- --- ------- ------------ ---------- ---------<br>--- ---------- ------- ---------- ------- -- -------- ----<br>---- --- ------ ----- ------ -- ---- --- ----- -- - -------<br>-------- -- --- --- -- ----- ----------- ----- -----------<br>---- --- ---------- --- ---- --- -- ----------,205059.3999999985,205058.69999999925,204777.884,204789.69999999925,204794.495,205061.23,,2,may
screen,html.Screen,2_3_1_0_1_3,2022-02-15T12:30:22.644Z,,,,,,,,,,,,,,,,,51,,,,,,,,,,,,,,255.46999999924446,,response,,,,13,D,,,,,,Space,keypress(Space),,,,silence,,,,-------- -------- --- not ---- --- --- ------ -- --------<br>---- --------- --- ------- ------------ ---------- ---------<br>--- ---------- ------- ---------- ------- -- -------- ----<br>---- --- ------ ----- ------ -- ---- --- ----- -- - -------<br>-------- -- --- --- -- ----- ----------- ----- -----------<br>---- --- ---------- --- ---- --- -- ----------,205317.59999999963,205316.69999999925,205044.593,205059.59999999963,205061.23,205327.982,,3,not
screen,html.Screen,2_3_1_0_1_4,2022-02-15T12:30:22.912Z,,,,,,,,,,,,,,,,,51,,,,,,,,,,,,,,256.81799999889336,,response,,,,13,D,,,,,,Space,keypress(Space),,,,silence,,,,-------- -------- --- --- know --- --- ------ -- --------<br>---- --------- --- ------- ------------ ---------- ---------<br>--- ---------- ------- ---------- ------- -- -------- ----<br>---- --- ------ ----- ------ -- ---- --- ----- -- - -------<br>-------- -- --- --- -- ----- ----------- ----- -----------<br>---- --- ---------- --- ---- --- -- ----------,205585.59999999963,205584.79999999888,205311.276,205317.79999999888,205327.982,205594.532,,4,know
screen,html.Screen,2_3_1_0_1_5,2022-02-15T12:30:23.094Z,,,,,,,,,,,,,,,,,51,,,,,,,,,,,,,,172.06799999962095,,response,,,,13,D,,,,,,Space,keypress(Space),,,,silence,,,,"-------- -------- --- --- ---- it, --- ------ -- --------<br>---- --------- --- ------- ------------ ---------- ---------<br>--- ---------- ------- ---------- ------- -- -------- ----<br>---- --- ------ ----- ------ -- ---- --- ----- -- - -------<br>-------- -- --- --- -- ----- ----------- ----- -----------<br>---- --- ---------- --- ---- --- -- ----------",205767.69999999925,205766.59999999963,205577.97,205585.69999999925,205594.532,205777.949,,5,"it,"
screen,html.Screen,2_3_1_0_1_6,2022-02-15T12:30:23.298Z,,,,,,,,,,,,,,,,,51,,,,,,,,,,,,,,192.65099999963422,,response,,,,13,D,,,,,,Space,keypress(Space),,,,silence,,,,-------- -------- --- --- ---- --- but ------ -- --------<br>---- --------- --- ------- ------------ ---------- ---------<br>--- ---------- ------- ---------- ------- -- -------- ----<br>---- --- ------ ----- ------ -- ---- --- ----- -- - -------<br>-------- -- --- --- -- ----- ----------- ----- -----------<br>---- --- ---------- --- ---- --- -- ----------,205971.3999999985,205970.59999999963,205761.31,205768.3999999985,205777.949,205977.98,,6,but
screen,html.Screen,2_3_1_0_1_7,2022-02-15T12:30:23.510Z,,,,,,,,,,,,,,,,,51,,,,,,,,,,,,,,204.51999999998952,,response,,,,13,D,,,,,,Space,keypress(Space),,,,silence,,,,-------- -------- --- --- ---- --- --- debate -- --------<br>---- --------- --- ------- ------------ ---------- ---------<br>--- ---------- ------- ---------- ------- -- -------- ----<br>---- --- ------ ----- ------ -- ---- --- ----- -- - -------<br>-------- -- --- --- -- ----- ----------- ----- -----------<br>---- --- ---------- --- ---- --- -- ----------,206183.29999999888,206182.5,205961.248,205971.3999999985,205977.98,206194.585,,7,debate
screen,html.Screen,2_3_1_0_1_8,2022-02-15T12:30:23.749Z,,,,,,,,,,,,,,,,,51,,,,,,,,,,,,,,227.01499999963562,,response,,,,13,D,,,,,,Space,keypress(Space),,,,silence,,,,-------- -------- --- --- ---- --- --- ------ in --------<br>---- --------- --- ------- ------------ ---------- ---------<br>--- ---------- ------- ---------- ------- -- -------- ----<br>---- --- ------ ----- ------ -- ---- --- ----- -- - -------<br>-------- -- --- --- -- ----- ----------- ----- -----------<br>---- --- ---------- --- ---- --- -- ----------,206422.5,206421.59999999963,206177.952,206183.59999999963,206194.585,206427.906,,8,in
screen,html.Screen,2_3_1_0_1_9,2022-02-15T12:30:23.968Z,,,,,,,,,,,,,,,,,51,,,,,,,,,,,,,,212.8939999988943,,response,,,,13,D,,,,,,Space,keypress(Space),,,,silence,,,,-------- -------- --- --- ---- --- --- ------ -- Congress<br>---- --------- --- ------- ------------ ---------- ---------<br>--- ---------- ------- ---------- ------- -- -------- ----<br>---- --- ------ ----- ------ -- ---- --- ----- -- - -------<br>-------- -- --- --- -- ----- ----------- ----- -----------<br>---- --- ---------- --- ---- --- -- ----------,206641.69999999925,206640.79999999888,206411.294,206422.69999999925,206427.906,206644.641,,9,Congress
screen,html.Screen,2_3_1_0_1_10,2022-02-15T12:30:24.254Z,,,,,,,,,,,,,,,,,51,,,,,,,,,,,,,,282.0589999992517,,response,,,,13,D,,,,,,Space,keypress(Space),,,,silence,,,,-------- -------- --- --- ---- --- --- ------ -- --------<br>over --------- --- ------- ------------ ---------- ---------<br>--- ---------- ------- ---------- ------- -- -------- ----<br>---- --- ------ ----- ------ -- ---- --- ----- -- - -------<br>-------- -- --- --- -- ----- ----------- ----- -----------<br>---- --- ---------- --- ---- --- -- ----------,206927.3999999985,206926.69999999925,206627.919,206641.8999999985,206644.641,206944.645,,10,over
screen,html.Screen,2_3_1_0_1_11,2022-02-15T12:30:24.473Z,,,,,,,,,,,,,,,,,51,,,,,,,,,,,,,,200.35500000001048,,response,,,,13,D,,,,,,Space,keypress(Space),,,,silence,,,,-------- -------- --- --- ---- --- --- ------ -- --------<br>---- reforming --- ------- ------------ ---------- ---------<br>--- ---------- ------- ---------- ------- -- -------- ----<br>---- --- ------ ----- ------ -- ---- --- ----- -- - -------<br>-------- -- --- --- -- ----- ----------- ----- -----------<br>---- --- ---------- --- ---- --- -- ----------,207146.29999999888,207145,206927.984,206927.59999999963,206944.645,207161.287,,11,reforming
screen,html.Screen,2_3_1_0_1_12,2022-02-15T12:30:24.666Z,,,,,,,,,,,,,,,,,51,,,,,,,,,,,,,,177.51299999887124,,response,,,,13,D,,,,,,Space,keypress(Space),,,,silence,,,,-------- -------- --- --- ---- --- --- ------ -- --------<br>---- --------- the ------- ------------ ---------- ---------<br>--- ---------- ------- ---------- ------- -- -------- ----<br>---- --- ------ ----- ------ -- ---- --- ----- -- - -------<br>-------- -- --- --- -- ----- ----------- ----- -----------<br>---- --- ---------- --- ---- --- -- ----------,207339.69999999925,207338.79999999888,207144.584,207146.59999999963,207161.287,207344.615,,12,the
screen,html.Screen,2_3_1_0_1_13,2022-02-15T12:30:24.960Z,,,,,,,,,,,,,,,,,51,,,,,,,,,,,,,,287.08499999926426,,response,,,,13,D,,,,,,Space,keypress(Space),,,,silence,,,,-------- -------- --- --- ---- --- --- ------ -- --------<br>---- --------- --- federal ------------ ---------- ---------<br>--- ---------- ------- ---------- ------- -- -------- ----<br>---- --- ------ ----- ------ -- ---- --- ----- -- - -------<br>-------- -- --- --- -- ----- ----------- ----- -----------<br>---- --- ---------- --- ---- --- -- ----------,207633.8999999985,207631.69999999925,207327.917,207339.79999999888,207344.615,207644.668,,13,federal
screen,html.Screen,2_3_1_0_1_14,2022-02-15T12:30:25.232Z,,,,,,,,,,,,,,,,,51,,,,,,,,,,,,,,260.1319999988773,,response,,,,13,D,,,,,,Space,keypress(Space),,,,silence,,,,-------- -------- --- --- ---- --- --- ------ -- --------<br>---- --------- --- ------- government's ---------- ---------<br>--- ---------- ------- ---------- ------- -- -------- ----<br>---- --- ------ ----- ------ -- ---- --- ----- -- - -------<br>-------- -- --- --- -- ----- ----------- ----- -----------<br>---- --- ---------- --- ---- --- -- ----------,207905.59999999963,207904.79999999888,207628.022,207634.3999999985,207644.668,207911.259,,14,government's
screen,html.Screen,2_3_1_0_1_15,2022-02-15T12:30:25.488Z,,,,,,,,,,,,,,,,,51,,,,,,,,,,,,,,249.5409999988915,,response,,,,13,D,,,,,,Space,keypress(Space),,,,silence,,,,-------- -------- --- --- ---- --- --- ------ -- --------<br>---- --------- --- ------- ------------ regulatory ---------<br>--- ---------- ------- ---------- ------- -- -------- ----<br>---- --- ------ ----- ------ -- ---- --- ----- -- - -------<br>-------- -- --- --- -- ----- ----------- ----- -----------<br>---- --- ---------- --- ---- --- -- ----------,208161.5,208160.79999999888,207894.649,207905.8999999985,207911.259,208178.059,,15,regulatory
screen,html.Screen,2_3_1_0_1_16,2022-02-15T12:30:25.807Z,,,,,,,,,,,,,,,,,51,,,,,,,,,,,,,,301.74099999887403,,response,,,,13,D,,,,,,Space,keypress(Space),,,,silence,,,,-------- -------- --- --- ---- --- --- ------ -- --------<br>---- --------- --- ------- ------------ ---------- apparatus<br>--- ---------- ------- ---------- ------- -- -------- ----<br>---- --- ------ ----- ------ -- ---- --- ----- -- - -------<br>-------- -- --- --- -- ----- ----------- ----- -----------<br>---- --- ---------- --- ---- --- -- ----------,208480.69999999925,208479.79999999888,208161.253,208162.09999999963,208178.059,208494.737,,16,apparatus
screen,html.Screen,2_3_1_0_1_17,2022-02-15T12:30:26.114Z,,,,,,,,,,,,,,,,,51,,,,,,,,,,,,,,291.9629999992612,,response,,,,13,D,,,,,,Space,keypress(Space),,,,silence,,,,-------- -------- --- --- ---- --- --- ------ -- --------<br>---- --------- --- ------- ------------ ---------- ---------<br>may ---------- ------- ---------- ------- -- -------- ----<br>---- --- ------ ----- ------ -- ---- --- ----- -- - -------<br>-------- -- --- --- -- ----- ----------- ----- -----------<br>---- --- ---------- --- ---- --- -- ----------,208787.5,208786.69999999925,208478.055,208481,208494.737,208794.762,,17,may
screen,html.Screen,2_3_1_0_1_18,2022-02-15T12:30:26.330Z,,,,,,,,,,,,,,,,,51,,,,,,,,,,,,,,207.93799999926705,,response,,,,13,D,,,,,,Space,keypress(Space),,,,silence,,,,-------- -------- --- --- ---- --- --- ------ -- --------<br>---- --------- --- ------- ------------ ---------- ---------<br>--- profoundly ------- ---------- ------- -- -------- ----<br>---- --- ------ ----- ------ -- ---- --- ----- -- - -------<br>-------- -- --- --- -- ----- ----------- ----- -----------<br>---- --- ---------- --- ---- --- -- ----------,209003.59999999963,209002.69999999925,208778.154,208787.69999999925,208794.762,209011.371,,18,profoundly
screen,html.Screen,2_3_1_0_1_19,2022-02-15T12:30:26.536Z,,,,,,,,,,,,,,,,,51,,,,,,,,,,,,,,197.3289999992412,,response,,,,13,D,,,,,,Space,keypress(Space),,,,silence,,,,-------- -------- --- --- ---- --- --- ------ -- --------<br>---- --------- --- ------- ------------ ---------- ---------<br>--- ---------- improve ---------- ------- -- -------- ----<br>---- --- ------ ----- ------ -- ---- --- ----- -- - -------<br>-------- -- --- --- -- ----- ----------- ----- -----------<br>---- --- ---------- --- ---- --- -- ----------,209209.3999999985,209208.69999999925,208994.735,209003.8999999985,209011.371,209211.367,,19,improve
screen,html.Screen,2_3_1_0_1_20,2022-02-15T12:30:26.787Z,,,,,,,,,,,,,,,,,51,,,,,,,,,,,,,,249.13300000000163,,response,,,,13,D,,,,,,Space,keypress(Space),,,,silence,,,,-------- -------- --- --- ---- --- --- ------ -- --------<br>---- --------- --- ------- ------------ ---------- ---------<br>--- ---------- ------- companies' ------- -- -------- ----<br>---- --- ------ ----- ------ -- ---- --- ----- -- - -------<br>-------- -- --- --- -- ----- ----------- ----- -----------<br>---- --- ---------- --- ---- --- -- ----------,209461.09999999963,209460.5,209194.704,209209.69999999925,209211.367,209478.023,,20,companies'
screen,html.Screen,2_3_1_0_1_21,2022-02-15T12:30:27.053Z,,,,,,,,,,,,,,,,,51,,,,,,,,,,,,,,248.4770000000135,,response,,,,13,D,,,,,,Space,keypress(Space),,,,silence,,,,-------- -------- --- --- ---- --- --- ------ -- --------<br>---- --------- --- ------- ------------ ---------- ---------<br>--- ---------- ------- ---------- ability -- -------- ----<br>---- --- ------ ----- ------ -- ---- --- ----- -- - -------<br>-------- -- --- --- -- ----- ----------- ----- -----------<br>---- --- ---------- --- ---- --- -- ----------,209727.09999999963,209726.5,209461.304,209461.3999999985,209478.023,209751.292,,21,ability
screen,html.Screen,2_3_1_0_1_22,2022-02-15T12:30:27.322Z,,,,,,,,,,,,,,,,,51,,,,,,,,,,,,,,243.50799999889568,,response,,,,13,D,,,,,,Space,keypress(Space),,,,silence,,,,-------- -------- --- --- ---- --- --- ------ -- --------<br>---- --------- --- ------- ------------ ---------- ---------<br>--- ---------- ------- ---------- ------- to -------- ----<br>---- --- ------ ----- ------ -- ---- --- ----- -- - -------<br>-------- -- --- --- -- ----- ----------- ----- -----------<br>---- --- ---------- --- ---- --- -- ----------,209995.5,209994.79999999888,209711.354,209727.19999999925,209751.292,210011.387,,22,to
screen,html.Screen,2_3_1_0_1_23,2022-02-15T12:30:27.535Z,,,,,,,,,,,,,,,,,51,,,,,,,,,,,,,,195.6130000000121,,response,,,,13,D,,,,,,Space,keypress(Space),,,,silence,,,,-------- -------- --- --- ---- --- --- ------ -- --------<br>---- --------- --- ------- ------------ ---------- ---------<br>--- ---------- ------- ---------- ------- -- survive. ----<br>---- --- ------ ----- ------ -- ---- --- ----- -- - -------<br>-------- -- --- --- -- ----- ----------- ----- -----------<br>---- --- ---------- --- ---- --- -- ----------,210208.29999999888,210207,209994.786,209995.69999999925,210011.387,210211.372,,23,survive.
screen,html.Screen,2_3_1_0_1_24,2022-02-15T12:30:27.801Z,,,,,,,,,,,,,,,,,51,,,,,,,,,,,,,,262.4279999988794,,response,,,,13,D,,,,,,Space,keypress(Space),,,,silence,,,,-------- -------- --- --- ---- --- --- ------ -- --------<br>---- --------- --- ------- ------------ ---------- ---------<br>--- ---------- ------- ---------- ------- -- -------- This<br>---- --- ------ ----- ------ -- ---- --- ----- -- - -------<br>-------- -- --- --- -- ----- ----------- ----- -----------<br>---- --- ---------- --- ---- --- -- ----------,210474.5,210473.79999999888,210194.721,210208.69999999925,210211.372,210478.031,,24,This
screen,html.Screen,2_3_1_0_1_25,2022-02-15T12:30:28.092Z,,,,,,,,,,,,,,,,,51,,,,,,,,,,,,,,286.6689999992668,,response,,,,13,D,,,,,,Space,keypress(Space),,,,silence,,,,-------- -------- --- --- ---- --- --- ------ -- --------<br>---- --------- --- ------- ------------ ---------- ---------<br>--- ---------- ------- ---------- ------- -- -------- ----<br>week --- ------ ----- ------ -- ---- --- ----- -- - -------<br>-------- -- --- --- -- ----- ----------- ----- -----------<br>---- --- ---------- --- ---- --- -- ----------,210765.3999999985,210764.69999999925,210461.354,210474.59999999963,210478.031,210778.129,,25,week
screen,html.Screen,2_3_1_0_1_26,2022-02-15T12:30:28.265Z,,,,,,,,,,,,,,,,,51,,,,,,,,,,,,,,158.9709999996412,,response,,,,13,D,,,,,,Space,keypress(Space),,,,silence,,,,-------- -------- --- --- ---- --- --- ------ -- --------<br>---- --------- --- ------- ------------ ---------- ---------<br>--- ---------- ------- ---------- ------- -- -------- ----<br>---- the ------ ----- ------ -- ---- --- ----- -- - -------<br>-------- -- --- --- -- ----- ----------- ----- -----------<br>---- --- ---------- --- ---- --- -- ----------,210938.09999999963,210937.09999999963,210761.493,210765.5,210778.129,210961.393,,26,the
screen,html.Screen,2_3_1_0_1_27,2022-02-15T12:30:28.448Z,,,,,,,,,,,,,,,,,51,,,,,,,,,,,,,,159.40699999887147,,response,,,,13,D,,,,,,Space,keypress(Space),,,,silence,,,,-------- -------- --- --- ---- --- --- ------ -- --------<br>---- --------- --- ------- ------------ ---------- ---------<br>--- ---------- ------- ---------- ------- -- -------- ----<br>---- --- Senate ----- ------ -- ---- --- ----- -- - -------<br>-------- -- --- --- -- ----- ----------- ----- -----------<br>---- --- ---------- --- ---- --- -- ----------,211121.3999999985,211120.79999999888,210928.088,210938.5,210961.393,211128.136,,27,Senate
screen,html.Screen,2_3_1_0_1_28,2022-02-15T12:30:28.663Z,,,,,,,,,,,,,,,,,51,,,,,,,,,,,,,,206.96399999962887,,response,,,,13,D,,,,,,Space,keypress(Space),,,,silence,,,,-------- -------- --- --- ---- --- --- ------ -- --------<br>---- --------- --- ------- ------------ ---------- ---------<br>--- ---------- ------- ---------- ------- -- -------- ----<br>---- --- ------ seems ------ -- ---- --- ----- -- - -------<br>-------- -- --- --- -- ----- ----------- ----- -----------<br>---- --- ---------- --- ---- --- -- ----------,211336.29999999888,211335.09999999963,211111.457,211121.5,211128.136,211344.788,,28,seems
screen,html.Screen,2_3_1_0_1_29,2022-02-15T12:30:28.962Z,,,,,,,,,,,,,,,,,51,,,,,,,,,,,,,,290.01199999888195,,response,,,,13,D,,,,,,Space,keypress(Space),,,,silence,,,,-------- -------- --- --- ---- --- --- ------ -- --------<br>---- --------- --- ------- ------------ ---------- ---------<br>--- ---------- ------- ---------- ------- -- -------- ----<br>---- --- ------ ----- poised -- ---- --- ----- -- - -------<br>-------- -- --- --- -- ----- ----------- ----- -----------<br>---- --- ---------- --- ---- --- -- ----------,211635.3999999985,211634.79999999888,211328.148,211336.59999999963,211344.788,211644.774,,29,poised
screen,html.Screen,2_3_1_0_1_30,2022-02-15T12:30:29.236Z,,,,,,,,,,,,,,,,,51,,,,,,,,,,,,,,264.0259999988775,,response,,,,13,D,,,,,,Space,keypress(Space),,,,silence,,,,-------- -------- --- --- ---- --- --- ------ -- --------<br>---- --------- --- ------- ------------ ---------- ---------<br>--- ---------- ------- ---------- ------- -- -------- ----<br>---- --- ------ ----- ------ to ---- --- ----- -- - -------<br>-------- -- --- --- -- ----- ----------- ----- -----------<br>---- --- ---------- --- ---- --- -- ----------,211909.3999999985,211908.79999999888,211628.074,211635.69999999925,211644.774,211911.449,,30,to
screen,html.Screen,2_3_1_0_1_31,2022-02-15T12:30:29.419Z,,,,,,,,,,,,,,,,,51,,,,,,,,,,,,,,178.2509999992617,,response,,,,13,D,,,,,,Space,keypress(Space),,,,silence,,,,-------- -------- --- --- ---- --- --- ------ -- --------<br>---- --------- --- ------- ------------ ---------- ---------<br>--- ---------- ------- ---------- ------- -- -------- ----<br>---- --- ------ ----- ------ -- join --- ----- -- - -------<br>-------- -- --- --- -- ----- ----------- ----- -----------<br>---- --- ---------- --- ---- --- -- ----------,212092.5,212089.69999999925,211894.851,211909.5,211911.449,212111.469,,31,join
screen,html.Screen,2_3_1_0_1_32,2022-02-15T12:30:29.604Z,,,,,,,,,,,,,,,,,51,,,,,,,,,,,,,,165.23099999924307,,response,,,,13,D,,,,,,Space,keypress(Space),,,,silence,,,,-------- -------- --- --- ---- --- --- ------ -- --------<br>---- --------- --- ------- ------------ ---------- ---------<br>--- ---------- ------- ---------- ------- -- -------- ----<br>---- --- ------ ----- ------ -- ---- the ----- -- - -------<br>-------- -- --- --- -- ----- ----------- ----- -----------<br>---- --- ---------- --- ---- --- -- ----------,212277.29999999888,212276.69999999925,212094.86,212093.19999999925,212111.469,212294.796,,32,the
screen,html.Screen,2_3_1_0_1_33,2022-02-15T12:30:29.766Z,,,,,,,,,,,,,,,,,51,,,,,,,,,,,,,,144.00399999888032,,response,,,,13,D,,,,,,Space,keypress(Space),,,,silence,,,,-------- -------- --- --- ---- --- --- ------ -- --------<br>---- --------- --- ------- ------------ ---------- ---------<br>--- ---------- ------- ---------- ------- -- -------- ----<br>---- --- ------ ----- ------ -- ---- --- House -- - -------<br>-------- -- --- --- -- ----- ----------- ----- -----------<br>---- --- ---------- --- ---- --- -- ----------,212439.59999999963,212438.79999999888,212278.083,212277.5,212294.796,212444.742,,33,House
screen,html.Screen,2_3_1_0_1_34,2022-02-15T12:30:29.946Z,,,,,,,,,,,,,,,,,51,,,,,,,,,,,,,,173.8579999996291,,response,,,,13,D,,,,,,Space,keypress(Space),,,,silence,,,,-------- -------- --- --- ---- --- --- ------ -- --------<br>---- --------- --- ------- ------------ ---------- ---------<br>--- ---------- ------- ---------- ------- -- -------- ----<br>---- --- ------ ----- ------ -- ---- --- ----- in - -------<br>-------- -- --- --- -- ----- ----------- ----- -----------<br>---- --- ---------- --- ---- --- -- ----------,212619.5,212618.59999999963,212428.189,212439.79999999888,212444.742,212628.181,,34,in
screen,html.Screen,2_3_1_0_1_35,2022-02-15T12:30:30.169Z,,,,,,,,,,,,,,,,,51,,,,,,,,,,,,,,213.118999998871,,response,,,,13,D,,,,,,Space,keypress(Space),,,,silence,,,,-------- -------- --- --- ---- --- --- ------ -- --------<br>---- --------- --- ------- ------------ ---------- ---------<br>--- ---------- ------- ---------- ------- -- -------- ----<br>---- --- ------ ----- ------ -- ---- --- ----- -- a -------<br>-------- -- --- --- -- ----- ----------- ----- -----------<br>---- --- ---------- --- ---- --- -- ----------,212842.5,212841.29999999888,212611.502,212619.69999999925,212628.181,212844.801,,35,a
screen,html.Screen,2_3_1_0_1_36,2022-02-15T12:30:30.432Z,,,,,,,,,,,,,,,,,51,,,,,,,,,,,,,,259.99899999887566,,response,,,,13,D,,,,,,Space,keypress(Space),,,,silence,,,,-------- -------- --- --- ---- --- --- ------ -- --------<br>---- --------- --- ------- ------------ ---------- ---------<br>--- ---------- ------- ---------- ------- -- -------- ----<br>---- --- ------ ----- ------ -- ---- --- ----- -- - massive<br>-------- -- --- --- -- ----- ----------- ----- -----------<br>---- --- ---------- --- ---- --- -- ----------,213105.5,213104.79999999888,212828.135,212842.8999999985,212844.801,213111.558,,36,massive
screen,html.Screen,2_3_1_0_1_37,2022-02-15T12:30:30.759Z,,,,,,,,,,,,,,,,,51,,,,,,,,,,,,,,320.94200000001,,response,,,,13,D,,,,,,Space,keypress(Space),,,,silence,,,,-------- -------- --- --- ---- --- --- ------ -- --------<br>---- --------- --- ------- ------------ ---------- ---------<br>--- ---------- ------- ---------- ------- -- -------- ----<br>---- --- ------ ----- ------ -- ---- --- ----- -- - -------<br>overhaul -- --- --- -- ----- ----------- ----- -----------<br>---- --- ---------- --- ---- --- -- ----------,213433.19999999925,213432.5,213094.815,213105.69999999925,213111.558,213444.806,,37,overhaul
screen,html.Screen,2_3_1_0_1_38,2022-02-15T12:30:30.947Z,,,,,,,,,,,,,,,,,51,,,,,,,,,,,,,,174.39399999924353,,response,,,,13,D,,,,,,Space,keypress(Space),,,,silence,,,,-------- -------- --- --- ---- --- --- ------ -- --------<br>---- --------- --- ------- ------------ ---------- ---------<br>--- ---------- ------- ---------- ------- -- -------- ----<br>---- --- ------ ----- ------ -- ---- --- ----- -- - -------<br>-------- of --- --- -- ----- ----------- ----- -----------<br>---- --- ---------- --- ---- --- -- ----------,213620.3999999985,213619.19999999925,213428.209,213433.19999999925,213444.806,213628.121,,38,of
