sender,sender_type,sender_id,timestamp,meta,,Blues,Classical,Country,Dance,Electronic,Folk,Gospel,Hip-Hop,Jazz,Latin,Musical/Film,New-age,Pop,Prolific_id,Provo_ID,R&B,Rap,Reggae,Religious,Rock,Soul,Swing,Traditional,age,artist_name,correct,correctResponse,distraction,duration,education,ended_on,familiarity,gender,headphone_check_performance,item,list,music_frequency,offensiveness,pleasantness,position_correct,preference,response,response_action,snippet_file,song_name,song_rating,sound,stimulus_1,stimulus_2,stimulus_3,text,time_commit,time_end,time_render,time_run,time_show,time_switch,url,word,word_ID
Prolific ID,html.Form,0,2022-02-01T13:02:26.455Z,"{""labjs_version"":""20.2.2"",""labjs_build"":{""flavor"":""production"",""commit"":""a25486e0c714a0ae2ce03ff94b7bb6896854dcfa""},""location"":""https://run.pavlovia.org/mvasilev/prolific2_music_c/"",""userAgent"":""Mozilla/5.0 (Macintosh; Intel Mac OS X 10_15_7) AppleWebKit/537.36 (KHTML, like Gecko) Chrome/97.0.4692.99 Safari/537.36"",""platform"":""MacIntel"",""language"":""en-GB"",""locale"":""en-GB"",""timeZone"":""Europe/London"",""timezoneOffset"":0,""screen_width"":1440,""screen_height"":900,""scroll_width"":1440,""scroll_height"":683,""window_innerWidth"":1440,""window_innerHeight"":731,""devicePixelRatio"":2}",,,,,,,,,,,,,,,5e5a7836663c6726ef7824d7,,,,,,,,,,,,,,,3667.065999999255,,form submission,,,,,,,,,,,,,,,,,,,,,9839.599999997765,9839.199999999255,6138.802,6148.199999999255,6172.134,9855.32,{},,
Introduction,html.Screen,1_0,2022-02-01T13:02:47.095Z,,,,,,,,,,,,,,,,,,,,,,,,,,,,,,,20602.47999999702,,response,,,,,,,,,,,continue,click button,,,,,,,,,30479.29999999702,30457.79999999702,9838.654,9839.89999999851,9855.32,30487.828,,,
Volume calibration,html.Screen,1_1,2022-02-01T13:03:09.403Z,,,,,,,,,,,,,,,,,,,,,,,,,,,,,,,22287.271999997763,,response,,,,,,,,,,,continue,click button,,,,,,,,,52787.5,52775.099999997765,30471.162,30479.39999999851,30487.828,52787.88,,,
Task instructions,html.Screen,1_2,2022-02-01T13:03:23.361Z,,,,,,,,,,,,,,,,,,,,,,,,,,,,,,,13934.219999997767,,response,,,,,,,,,,,continue,click button,,,,,,,,,66745.39999999851,66722.09999999776,52771.214,52787.599999997765,52787.88,66754.292,,,
Sounds,html.Screen,1_3_0_0,2022-02-01T13:03:27.608Z,,,,,,,,,,,,,,,,,,,,,,,,,,,,,,,4250.203999999998,,timeout,,,,,,,,,2,,,,,,,,O,S,I,,70992.39999999851,70987.83,66737.626,66745.69999999925,66754.292,71004.496,,,
Judgement,html.Screen,1_3_0_1,2022-02-01T13:03:29.540Z,,,,,,,,,,,,,,,,,,,,,,,,,,,,true,2,,1907.8039999970206,,response,,,,,,,,,2,,2,click #choice-2,,,,,O,S,I,,72923.79999999702,72912.29999999702,70987.83,70992.59999999776,71004.496,72937.752,,,
Trial,flow.Sequence,1_3_0,2022-02-01T13:03:29.540Z,,,,,,,,,,,,,,,,,,,,,,,,,,,,,,,6158.0079999970185,,completion,,,,,,,,,2,,,,,,,,O,S,I,,72924,72912.29999999702,66737.626,66745.5,66754.292,72937.752,,,
Sounds,html.Screen,1_3_1_0,2022-02-01T13:03:33.789Z,,,,,,,,,,,,,,,,,,,,,,,,,,,,,,,4249.830000000002,,timeout,,,,,,,,,2,,,,,,,,I,S,O,,77173.09999999776,77170.916,72921.086,72924.29999999702,72937.752,77187.582,,,
Judgement,html.Screen,1_3_1_1,2022-02-01T13:03:34.534Z,,,,,,,,,,,,,,,,,,,,,,,,,,,,true,2,,717.51799999777,,response,,,,,,,,,2,,2,click #choice-2,,,,,I,S,O,,77917.79999999702,77905.09999999776,77170.916,77173.19999999925,77187.582,77920.886,,,
Trial,flow.Sequence,1_3_1,2022-02-01T13:03:34.534Z,,,,,,,,,,,,,,,,,,,,,,,,,,,,,,,4967.347999997772,,completion,,,,,,,,,2,,,,,,,,I,S,O,,77918,77905.09999999776,72921.086,72924.09999999776,72937.752,77920.886,,,
Sounds,html.Screen,1_3_2_0,2022-02-01T13:03:38.773Z,,,,,,,,,,,,,,,,,,,,,,,,,,,,,,,4250.1159999999945,,timeout,,,,,,,,,1,,,,,,,,S,I,O,,82157.19999999925,82154.336,77904.22,77918.19999999925,77920.886,82171.002,,,
Judgement,html.Screen,1_3_2_1,2022-02-01T13:03:39.490Z,,,,,,,,,,,,,,,,,,,,,,,,,,,,true,1,,680.7979999970266,,response,,,,,,,,,1,,1,click #choice-1,,,,,S,I,O,,82874,82851.79999999702,82154.336,82157.39999999851,82171.002,82887.64,,,
Trial,flow.Sequence,1_3_2,2022-02-01T13:03:39.490Z,,,,,,,,,,,,,,,,,,,,,,,,,,,,,,,4930.913999997021,,completion,,,,,,,,,1,,,,,,,,S,I,O,,82874.19999999925,82851.79999999702,77904.22,77918.09999999776,77920.886,82887.64,,,
Sounds,html.Screen,1_3_3_0,2022-02-01T13:03:43.739Z,,,,,,,,,,,,,,,,,,,,,,,,,,,,,,,4249.830000000002,,timeout,,,,,,,,,3,,,,,,,,O,I,S,,87123,87120.804,82870.974,82874.29999999702,82887.64,87137.47,,,
Judgement,html.Screen,1_3_3_1,2022-02-01T13:03:44.358Z,,,,,,,,,,,,,,,,,,,,,,,,,,,,true,3,,591.5299999999988,,response,,,,,,,,,3,,3,click #choice-3,,,,,O,I,S,,87742,87729,87120.804,87123.09999999776,87137.47,87754.112,,,
Trial,flow.Sequence,1_3_3,2022-02-01T13:03:44.358Z,,,,,,,,,,,,,,,,,,,,,,,,,,,,,,,4841.360000000001,,completion,,,,,,,,,3,,,,,,,,O,I,S,,87742.09999999776,87729,82870.974,82874.29999999702,82887.64,87754.112,,,
Sounds,html.Screen,1_3_4_0,2022-02-01T13:03:48.606Z,,,,,,,,,,,,,,,,,,,,,,,,,,,,,,,4249.830000000002,,timeout,,,,,,,,,3,,,,,,,,I,O,S,,91990.39999999851,91987.276,87737.446,87742.19999999925,87754.112,92003.942,,,
Judgement,html.Screen,1_3_4_1,2022-02-01T13:03:49.112Z,,,,,,,,,,,,,,,,,,,,,,,,,,,,true,3,,467.9579999985144,,response,,,,,,,,,3,,3,click #choice-3,,,,,I,O,S,,92496.29999999702,92471.89999999851,91987.276,91991.29999999702,92003.942,92504.199,,,
Trial,flow.Sequence,1_3_4,2022-02-01T13:03:49.112Z,,,,,,,,,,,,,,,,,,,,,,,,,,,,,,,4717.787999998516,,completion,,,,,,,,,3,,,,,,,,I,O,S,,92496.5,92471.89999999851,87737.446,87742.19999999925,87754.112,92504.199,,,
Sounds,html.Screen,1_3_5_0,2022-02-01T13:03:53.356Z,,,,,,,,,,,,,,,,,,,,,,,,,,,,,,,4249.830000000002,,timeout,,,,,,,,,1,,,,,,,,S,O,I,,96739.79999999702,96737.363,92487.533,92496.59999999776,92504.199,96754.029,,,
Judgement,html.Screen,1_3_5_1,2022-02-01T13:03:53.983Z,,,,,,,,,,,,,,,,,,,,,,,,,,,,true,1,,589.5709999977698,,response,,,,,,,,,1,,1,click #choice-1,,,,,S,O,I,,97367.19999999925,97343.59999999776,96737.363,96740,96754.029,97370.671,,,
Trial,flow.Sequence,1_3_5,2022-02-01T13:03:53.984Z,,,,,,,,,,,,,,,,,,,,,,,,,,,,,,,4839.400999997772,,completion,,,,,,,,,1,,,,,,,,S,O,I,,97367.5,97343.59999999776,92487.533,92496.59999999776,92504.199,97370.671,,,
Task,flow.Loop,1_3,2022-02-01T13:03:53.988Z,,,,,,,,,,,,,,,,,,,,,,,,,,,,,,,30589.307999997764,,completion,,,1,,,,,,,,,,,,,,,,,,97371.89999999851,97343.59999999776,66737.626,66745.5,66754.292,97370.671,,,
Trap,html.Screen,1_4,2022-02-01T13:03:53.989Z,,,,,,,,,,,,,,,,,,,,,,,,,,,,,,,NaN,,skipped,,,,,,,,,,,,,,,,,,,,,97372.79999999702,97343.59999999776,,97372.69999999925,,97370.671,,,
Thanks,html.Screen,1_5,2022-02-01T13:03:58.601Z,,,,,,,,,,,,,,,,,,,,,,,,,,,,,,,4592.228999998508,,response,,,,,,,,,,,continue,click button,,,,,,,,,101984.5,101962.89999999851,97354.005,97373,97370.671,107220.566,,,
Headphone screening,flow.Sequence,1,2022-02-01T13:03:58.601Z,,,,,,,,,,,,,,,,,,,,,,,,,,,,,,,92107.5799999985,,completion,,,,,,,,,,,,,,,,,,,,,101984.59999999776,101962.89999999851,9838.654,9839.89999999851,9855.32,107220.566,,,
Instructions,html.Page,2_0,2022-02-01T13:04:25.224Z,,,,,,,,,,,,,,,,,,,,,,,,,,,,,,,21387.233999997014,,form submission,,,,,,,,,,,,,,,,,,,,,128608,128607.79999999702,107203.9,107210.19999999925,107220.566,128619.71,,,
Holding screen,html.Screen,2_1_0_0,2022-02-01T13:04:35.221Z,,,,,,,,,,,,,,,,,,,,,,,,,,,,,,,10000.37999999999,,timeout,,,,,,,,,,,,,,,,,,,,,138605.19999999925,138603.424,128603.044,128608.19999999925,128619.71,138620.09,,,
screen,html.Screen,2_1_0_1_0,2022-02-01T13:04:36.348Z,,,,,,,,,,,,,,,,,53,,,,,,,,,,,,,,1104.8099999985134,,response,,,,99,,,,,,,Space,keypress(Space),,,,,,,,When -- ----- -- ------ - ------- --- ----------<br>------------- ------ ------ ---- ---- ------- ----- -- ----<br>-------- ------- -- ---------- --- - --- ----- ----- ----<br>---- --- --- ----- --- ---- ---- ------- ----- ---- -------<br>--- --- -- ----- -- --- ---- -- --- ---- -- ------ ------<br>--- ----- -- ----,139732.09999999776,139724.8999999985,138603.424,138605.3999999985,138620.09,139736.712,,0,When
screen,html.Screen,2_1_0_1_1,2022-02-01T13:04:36.897Z,,,,,,,,,,,,,,,,,53,,,,,,,,,,,,,,539.2880000000005,,response,,,,99,,,,,,,Space,keypress(Space),,,,,,,,---- it ----- -- ------ - ------- --- ----------<br>------------- ------ ------ ---- ---- ------- ----- -- ----<br>-------- ------- -- ---------- --- - --- ----- ----- ----<br>---- --- --- ----- --- ---- ---- ------- ----- ---- -------<br>--- --- -- ----- -- --- ---- -- --- ---- -- ------ ------<br>--- ----- -- ----,140280.5,140276,139720.046,139732.19999999925,139736.712,140286.69,,1,it
screen,html.Screen,2_1_0_1_2,2022-02-01T13:04:37.266Z,,,,,,,,,,,,,,,,,53,,,,,,,,,,,,,,358.20999999850756,,response,,,,99,,,,,,,Space,keypress(Space),,,,,,,,---- -- comes -- ------ - ------- --- ----------<br>------------- ------ ------ ---- ---- ------- ----- -- ----<br>-------- ------- -- ---------- --- - --- ----- ----- ----<br>---- --- --- ----- --- ---- ---- ------- ----- ---- -------<br>--- --- -- ----- -- --- ---- -- --- ---- -- ------ ------<br>--- ----- -- ----,140650,140644.8999999985,140270.024,140280.59999999776,140286.69,140653.633,,2,comes
screen,html.Screen,2_1_0_1_3,2022-02-01T13:04:37.669Z,,,,,,,,,,,,,,,,,53,,,,,,,,,,,,,,394.26699999850825,,response,,,,99,,,,,,,Space,keypress(Space),,,,,,,,---- -- ----- to ------ - ------- --- ----------<br>------------- ------ ------ ---- ---- ------- ----- -- ----<br>-------- ------- -- ---------- --- - --- ----- ----- ----<br>---- --- --- ----- --- ---- ---- ------- ----- ---- -------<br>--- --- -- ----- -- --- ---- -- --- ---- -- ------ ------<br>--- ----- -- ----,141052.3999999985,141047.8999999985,140636.967,140650,140653.633,141053.617,,3,to
screen,html.Screen,2_1_0_1_4,2022-02-01T13:04:37.968Z,,,,,,,,,,,,,,,,,53,,,,,,,,,,,,,,292.2829999985115,,response,,,,99,,,,,,,Space,keypress(Space),,,,,,,,---- -- ----- -- having - ------- --- ----------<br>------------- ------ ------ ---- ---- ------- ----- -- ----<br>-------- ------- -- ---------- --- - --- ----- ----- ----<br>---- --- --- ----- --- ---- ---- ------- ----- ---- -------<br>--- --- -- ----- -- --- ---- -- --- ---- -- ------ ------<br>--- ----- -- ----,141351.09999999776,141345.8999999985,141036.951,141052.3999999985,141053.617,141353.605,,4,having
screen,html.Screen,2_1_0_1_5,2022-02-01T13:04:38.541Z,,,,,,,,,,,,,,,,,53,,,,,,,,,,,,,,566.2949999984994,,response,,,,99,,,,,,,Space,keypress(Space),,,,,,,,---- -- ----- -- ------ a ------- --- ----------<br>------------- ------ ------ ---- ---- ------- ----- -- ----<br>-------- ------- -- ---------- --- - --- ----- ----- ----<br>---- --- --- ----- --- ---- ---- ------- ----- ---- -------<br>--- --- -- ----- -- --- ---- -- --- ---- -- ------ ------<br>--- ----- -- ----,141924.59999999776,141919.8999999985,141336.939,141352,141353.605,141936.915,,5,a
screen,html.Screen,2_1_0_1_6,2022-02-01T13:04:38.913Z,,,,,,,,,,,,,,,,,53,,,,,,,,,,,,,,355.08499999999185,,response,,,,99,,,,,,,Space,keypress(Space),,,,,,,,---- -- ----- -- ------ - lasting --- ----------<br>------------- ------ ------ ---- ---- ------- ----- -- ----<br>-------- ------- -- ---------- --- - --- ----- ----- ----<br>---- --- --- ----- --- ---- ---- ------- ----- ---- -------<br>--- --- -- ----- -- --- ---- -- --- ---- -- ------ ------<br>--- ----- -- ----,142296.69999999925,142292,141920.249,141924.69999999925,141936.915,142303.567,,6,lasting
screen,html.Screen,2_1_0_1_7,2022-02-01T13:04:39.194Z,,,,,,,,,,,,,,,,,53,,,,,,,,,,,,,,269.43299999999,,response,,,,99,,,,,,,Space,keypress(Space),,,,,,,,---- -- ----- -- ------ - ------- and ----------<br>------------- ------ ------ ---- ---- ------- ----- -- ----<br>-------- ------- -- ---------- --- - --- ----- ----- ----<br>---- --- --- ----- --- ---- ---- ------- ----- ---- -------<br>--- --- -- ----- -- --- ---- -- --- ---- -- ------ ------<br>--- ----- -- ----,142577.5,142573,142286.901,142296.69999999925,142303.567,142586.889,,7,and
screen,html.Screen,2_1_0_1_8,2022-02-01T13:04:39.565Z,,,,,,,,,,,,,,,,,53,,,,,,,,,,,,,,356.81099999925937,,response,,,,99,,,,,,,Space,keypress(Space),,,,,,,,---- -- ----- -- ------ - ------- --- fulfilling<br>------------- ------ ------ ---- ---- ------- ----- -- ----<br>-------- ------- -- ---------- --- - --- ----- ----- ----<br>---- --- --- ----- --- ---- ---- ------- ----- ---- -------<br>--- --- -- ----- -- --- ---- -- --- ---- -- ------ ------<br>--- ----- -- ----,142948.3999999985,142943.69999999925,142570.223,142577.59999999776,142586.889,142953.541,,8,fulfilling
screen,html.Screen,2_1_0_1_9,2022-02-01T13:04:39.933Z,,,,,,,,,,,,,,,,,53,,,,,,,,,,,,,,358.35899999851245,,response,,,,99,,,,,,,Space,keypress(Space),,,,,,,,"---- -- ----- -- ------ - ------- --- ----------<br>relationship, ------ ------ ---- ---- ------- ----- -- ----<br>-------- ------- -- ---------- --- - --- ----- ----- ----<br>---- --- --- ----- --- ---- ---- ------- ----- ---- -------<br>--- --- -- ----- -- --- ---- -- --- ---- -- ------ ------<br>--- ----- -- ----",143316.5,143311.8999999985,142936.875,142948.5,142953.541,143320.193,,9,"relationship,"
screen,html.Screen,2_1_0_1_10,2022-02-01T13:04:40.534Z,,,,,,,,,,,,,,,,,53,,,,,,,,,,,,,,592.4069999977655,,response,,,,99,,,,,,,Space,keypress(Space),,,,,,,,---- -- ----- -- ------ - ------- --- ----------<br>------------- common ------ ---- ---- ------- ----- -- ----<br>-------- ------- -- ---------- --- - --- ----- ----- ----<br>---- --- --- ----- --- ---- ---- ------- ----- ---- -------<br>--- --- -- ----- -- --- ---- -- --- ---- -- ------ ------<br>--- ----- -- ----,143917.3999999985,143912.59999999776,143303.527,143316.59999999776,143320.193,143920.169,,10,common
screen,html.Screen,2_1_0_1_11,2022-02-01T13:04:40.869Z,,,,,,,,,,,,,,,,,53,,,,,,,,,,,,,,328.3310000000056,,response,,,,99,,,,,,,Space,keypress(Space),,,,,,,,---- -- ----- -- ------ - ------- --- ----------<br>------------- ------ wisdom ---- ---- ------- ----- -- ----<br>-------- ------- -- ---------- --- - --- ----- ----- ----<br>---- --- --- ----- --- ---- ---- ------- ----- ---- -------<br>--- --- -- ----- -- --- ---- -- --- ---- -- ------ ------<br>--- ----- -- ----,144253.09999999776,144248.5,143903.503,143917.3999999985,143920.169,144270.155,,11,wisdom
screen,html.Screen,2_1_0_1_12,2022-02-01T13:04:41.337Z,,,,,,,,,,,,,,,,,53,,,,,,,,,,,,,,445.64499999702093,,response,,,,99,,,,,,,Space,keypress(Space),,,,,,,,---- -- ----- -- ------ - ------- --- ----------<br>------------- ------ ------ says ---- ------- ----- -- ----<br>-------- ------- -- ---------- --- - --- ----- ----- ----<br>---- --- --- ----- --- ---- ---- ------- ----- ---- -------<br>--- --- -- ----- -- --- ---- -- --- ---- -- ------ ------<br>--- ----- -- ----,144720.5,144715.79999999702,144253.489,144253.09999999776,144270.155,144736.803,,12,says
screen,html.Screen,2_1_0_1_13,2022-02-01T13:04:41.528Z,,,,,,,,,,,,,,,,,53,,,,,,,,,,,,,,169.8969999992405,,response,,,,99,,,,,,,Space,keypress(Space),,,,,,,,---- -- ----- -- ------ - ------- --- ----------<br>------------- ------ ------ ---- that ------- ----- -- ----<br>-------- ------- -- ---------- --- - --- ----- ----- ----<br>---- --- --- ----- --- ---- ---- ------- ----- ---- -------<br>--- --- -- ----- -- --- ---- -- --- ---- -- ------ ------<br>--- ----- -- ----,144911.19999999925,144906.69999999925,144720.137,144720.59999999776,144736.803,144920.129,,13,that
screen,html.Screen,2_1_0_1_14,2022-02-01T13:04:42.044Z,,,,,,,,,,,,,,,,,53,,,,,,,,,,,,,,502.6709999970335,,response,,,,99,,,,,,,Space,keypress(Space),,,,,,,,---- -- ----- -- ------ - ------- --- ----------<br>------------- ------ ------ ---- ---- feeling ----- -- ----<br>-------- ------- -- ---------- --- - --- ----- ----- ----<br>---- --- --- ----- --- ---- ---- ------- ----- ---- -------<br>--- --- -- ----- -- --- ---- -- --- ---- -- ------ ------<br>--- ----- -- ----,145427.59999999776,145422.79999999702,144903.463,144911.29999999702,144920.129,145436.775,,14,feeling
screen,html.Screen,2_1_0_1_15,2022-02-01T13:04:42.661Z,,,,,,,,,,,,,,,,,53,,,,,,,,,,,,,,602.9249999992608,,response,,,,99,,,,,,,Space,keypress(Space),,,,,,,,---- -- ----- -- ------ - ------- --- ----------<br>------------- ------ ------ ---- ---- ------- close -- ----<br>-------- ------- -- ---------- --- - --- ----- ----- ----<br>---- --- --- ----- --- ---- ---- ------- ----- ---- -------<br>--- --- -- ----- -- --- ---- -- --- ---- -- ------ ------<br>--- ----- -- ----,146044.29999999702,146039.69999999925,145420.109,145427.69999999925,145436.775,146053.417,,15,close
screen,html.Screen,2_1_0_1_16,2022-02-01T13:04:43.020Z,,,,,,,,,,,,,,,,,53,,,,,,,,,,,,,,345.2829999992682,,response,,,,99,,,,,,,Space,keypress(Space),,,,,,,,---- -- ----- -- ------ - ------- --- ----------<br>------------- ------ ------ ---- ---- ------- ----- to ----<br>-------- ------- -- ---------- --- - --- ----- ----- ----<br>---- --- --- ----- --- ---- ---- ------- ----- ---- -------<br>--- --- -- ----- -- --- ---- -- --- ---- -- ------ ------<br>--- ----- -- ----,146403.69999999925,146398.69999999925,146036.751,146044.3999999985,146053.417,146420.069,,16,to
screen,html.Screen,2_1_0_1_17,2022-02-01T13:04:43.391Z,,,,,,,,,,,,,,,,,53,,,,,,,,,,,,,,348.4310000000114,,response,,,,99,,,,,,,Space,keypress(Space),,,,,,,,---- -- ----- -- ------ - ------- --- ----------<br>------------- ------ ------ ---- ---- ------- ----- -- your<br>-------- ------- -- ---------- --- - --- ----- ----- ----<br>---- --- --- ----- --- ---- ---- ------- ----- ---- -------<br>--- --- -- ----- -- --- ---- -- --- ---- -- ------ ------<br>--- ----- -- ----,146774.29999999702,146768.5,146403.403,146403.69999999925,146420.069,146786.721,,17,your
screen,html.Screen,2_1_0_1_18,2022-02-01T13:04:43.777Z,,,,,,,,,,,,,,,,,53,,,,,,,,,,,,,,369.67899999851943,,response,,,,99,,,,,,,Space,keypress(Space),,,,,,,,---- -- ----- -- ------ - ------- --- ----------<br>------------- ------ ------ ---- ---- ------- ----- -- ----<br>romantic ------- -- ---------- --- - --- ----- ----- ----<br>---- --- --- ----- --- ---- ---- ------- ----- ---- -------<br>--- --- -- ----- -- --- ---- -- --- ---- -- ------ ------<br>--- ----- -- ----,147161.09999999776,147156.3999999985,146770.055,146774.29999999702,146786.721,147170.039,,18,romantic
screen,html.Screen,2_1_0_1_19,2022-02-01T13:04:44.096Z,,,,,,,,,,,,,,,,,53,,,,,,,,,,,,,,304.56099999777507,,response,,,,99,,,,,,,Space,keypress(Space),,,,,,,,---- -- ----- -- ------ - ------- --- ----------<br>------------- ------ ------ ---- ---- ------- ----- -- ----<br>-------- partner -- ---------- --- - --- ----- ----- ----<br>---- --- --- ----- --- ---- ---- ------- ----- ---- -------<br>--- --- -- ----- -- --- ---- -- --- ---- -- ------ ------<br>--- ----- -- ----,147479.29999999702,147474.59999999776,147153.373,147161.19999999925,147170.039,147486.693,,19,partner
screen,html.Screen,2_1_0_1_20,2022-02-01T13:04:44.355Z,,,,,,,,,,,,,,,,,53,,,,,,,,,,,,,,246.90699999776552,,response,,,,99,,,,,,,Space,keypress(Space),,,,,,,,---- -- ----- -- ------ - ------- --- ----------<br>------------- ------ ------ ---- ---- ------- ----- -- ----<br>-------- ------- is ---------- --- - --- ----- ----- ----<br>---- --- --- ----- --- ---- ---- ------- ----- ---- -------<br>--- --- -- ----- -- --- ---- -- --- ---- -- ------ ------<br>--- ----- -- ----,147738.09999999776,147733.59999999776,147470.027,147479.3999999985,147486.693,147753.349,,20,is
screen,html.Screen,2_1_0_1_21,2022-02-01T13:04:44.577Z,,,,,,,,,,,,,,,,,53,,,,,,,,,,,,,,202.2509999977774,,response,,,,99,,,,,,,Space,keypress(Space),,,,,,,,---- -- ----- -- ------ - ------- --- ----------<br>------------- ------ ------ ---- ---- ------- ----- -- ----<br>-------- ------- -- paramount. --- - --- ----- ----- ----<br>---- --- --- ----- --- ---- ---- ------- ----- ---- -------<br>--- --- -- ----- -- --- ---- -- --- ---- -- ------ ------<br>--- ----- -- ----,147960.3999999985,147955.59999999776,147736.683,147738.19999999925,147753.349,147970.007,,21,paramount.
screen,html.Screen,2_1_0_1_22,2022-02-01T13:04:45.403Z,,,,,,,,,,,,,,,,,53,,,,,,,,,,,,,,812.3929999984975,,response,,,,99,,,,,,,Space,keypress(Space),,,,,,,,---- -- ----- -- ------ - ------- --- ----------<br>------------- ------ ------ ---- ---- ------- ----- -- ----<br>-------- ------- -- ---------- But - --- ----- ----- ----<br>---- --- --- ----- --- ---- ---- ------- ----- ---- -------<br>--- --- -- ----- -- --- ---- -- --- ---- -- ------ ------<br>--- ----- -- ----,148786.79999999702,148782.3999999985,147953.341,147960.3999999985,147970.007,148803.307,,22,But
screen,html.Screen,2_1_0_1_23,2022-02-01T13:04:45.719Z,,,,,,,,,,,,,,,,,53,,,,,,,,,,,,,,294.2929999977641,,response,,,,99,,,,,,,Space,keypress(Space),,,,,,,,---- -- ----- -- ------ - ------- --- ----------<br>------------- ------ ------ ---- ---- ------- ----- -- ----<br>-------- ------- -- ---------- --- a --- ----- ----- ----<br>---- --- --- ----- --- ---- ---- ------- ----- ---- -------<br>--- --- -- ----- -- --- ---- -- --- ---- -- ------ ------<br>--- ----- -- ----,149102.09999999776,149097.59999999776,148786.641,148786.8999999985,148803.307,149103.295,,23,a
screen,html.Screen,2_1_0_1_24,2022-02-01T13:04:46.003Z,,,,,,,,,,,,,,,,,53,,,,,,,,,,,,,,278.304999997752,,response,,,,99,,,,,,,Space,keypress(Space),,,,,,,,---- -- ----- -- ------ - ------- --- ----------<br>------------- ------ ------ ---- ---- ------- ----- -- ----<br>-------- ------- -- ---------- --- - new ----- ----- ----<br>---- --- --- ----- --- ---- ---- ------- ----- ---- -------<br>--- --- -- ----- -- --- ---- -- --- ---- -- ------ ------<br>--- ----- -- ----,149386.29999999702,149381.59999999776,149086.629,149102.19999999925,149103.295,149403.283,,24,new
screen,html.Screen,2_1_0_1_25,2022-02-01T13:04:46.258Z,,,,,,,,,,,,,,,,,53,,,,,,,,,,,,,,233.2170000000042,,response,,,,99,,,,,,,Space,keypress(Space),,,,,,,,---- -- ----- -- ------ - ------- --- ----------<br>------------- ------ ------ ---- ---- ------- ----- -- ----<br>-------- ------- -- ---------- --- - --- study ----- ----<br>---- --- --- ----- --- ---- ---- ------- ----- ---- -------<br>--- --- -- ----- -- --- ---- -- --- ---- -- ------ ------<br>--- ----- -- ----,149641.19999999925,149636.5,149386.617,149386.3999999985,149403.283,149653.273,,25,study
screen,html.Screen,2_1_0_1_26,2022-02-01T13:04:46.510Z,,,,,,,,,,,,,,,,,53,,,,,,,,,,,,,,235.2270000000135,,response,,,,99,,,,,,,Space,keypress(Space),,,,,,,,---- -- ----- -- ------ - ------- --- ----------<br>------------- ------ ------ ---- ---- ------- ----- -- ----<br>-------- ------- -- ---------- --- - --- ----- finds ----<br>---- --- --- ----- --- ---- ---- ------- ----- ---- -------<br>--- --- -- ----- -- --- ---- -- --- ---- -- ------ ------<br>--- ----- -- ----,149893.79999999702,149888.5,149636.607,149641.29999999702,149653.273,149903.263,,26,finds
screen,html.Screen,2_1_0_1_27,2022-02-01T13:04:46.825Z,,,,,,,,,,,,,,,,,53,,,,,,,,,,,,,,301.1369999985036,,response,,,,99,,,,,,,Space,keypress(Space),,,,,,,,---- -- ----- -- ------ - ------- --- ----------<br>------------- ------ ------ ---- ---- ------- ----- -- ----<br>-------- ------- -- ---------- --- - --- ----- ----- that<br>---- --- --- ----- --- ---- ---- ------- ----- ---- -------<br>--- --- -- ----- -- --- ---- -- --- ---- -- ------ ------<br>--- ----- -- ----,150208.79999999702,150204.3999999985,149886.597,149893.8999999985,149903.263,150219.917,,27,that
screen,html.Screen,2_1_0_1_28,2022-02-01T13:04:47.288Z,,,,,,,,,,,,,,,,,53,,,,,,,,,,,,,,447.58300000001327,,response,,,,99,,,,,,,Space,keypress(Space),,,,,,,,---- -- ----- -- ------ - ------- --- ----------<br>------------- ------ ------ ---- ---- ------- ----- -- ----<br>-------- ------- -- ---------- --- - --- ----- ----- ----<br>it's --- --- ----- --- ---- ---- ------- ----- ---- -------<br>--- --- -- ----- -- --- ---- -- --- ---- -- ------ ------<br>--- ----- -- ----,150671.8999999985,150667.5,150203.251,150208.8999999985,150219.917,150686.83,,28,it's
screen,html.Screen,2_1_0_1_29,2022-02-01T13:04:47.489Z,,,,,,,,,,,,,,,,,53,,,,,,,,,,,,,,180.6700000000128,,response,,,,99,,,,,,,Space,keypress(Space),,,,,,,,---- -- ----- -- ------ - ------- --- ----------<br>------------- ------ ------ ---- ---- ------- ----- -- ----<br>-------- ------- -- ---------- --- - --- ----- ----- ----<br>---- not --- ----- --- ---- ---- ------- ----- ---- -------<br>--- --- -- ----- -- --- ---- -- --- ---- -- ------ ------<br>--- ----- -- ----,150872.3999999985,150867.5,150670.164,150672.09999999776,150686.83,150886.822,,29,not
screen,html.Screen,2_1_0_1_30,2022-02-01T13:04:48.564Z,,,,,,,,,,,,,,,,,53,,,,,,,,,,,,,,1052.7779999977793,,response,,,,99,,,,,,,Space,keypress(Space),,,,,,,,---- -- ----- -- ------ - ------- --- ----------<br>------------- ------ ------ ---- ---- ------- ----- -- ----<br>-------- ------- -- ---------- --- - --- ----- ----- ----<br>---- --- how ----- --- ---- ---- ------- ----- ---- -------<br>--- --- -- ----- -- --- ---- -- --- ---- -- ------ ------<br>--- ----- -- ----,151947.5,151939.59999999776,150870.156,150872.5,150886.822,151953.446,,30,how
screen,html.Screen,2_1_0_1_31,2022-02-01T13:04:48.748Z,,,,,,,,,,,,,,,,,53,,,,,,,,,,,,,,174.05400000000373,,response,,,,99,,,,,,,Space,keypress(Space),,,,,,,,---- -- ----- -- ------ - ------- --- ----------<br>------------- ------ ------ ---- ---- ------- ----- -- ----<br>-------- ------- -- ---------- --- - --- ----- ----- ----<br>---- --- --- close --- ---- ---- ------- ----- ---- -------<br>--- --- -- ----- -- --- ---- -- --- ---- -- ------ ------<br>--- ----- -- ----,152131.8999999985,152127.5,151936.78,151947.59999999776,151953.446,152136.772,,31,close
screen,html.Screen,2_1_0_1_32,2022-02-01T13:04:49.048Z,,,,,,,,,,,,,,,,,53,,,,,,,,,,,,,,290.7280000000028,,response,,,,99,,,,,,,Space,keypress(Space),,,,,,,,---- -- ----- -- ------ - ------- --- ----------<br>------------- ------ ------ ---- ---- ------- ----- -- ----<br>-------- ------- -- ---------- --- - --- ----- ----- ----<br>---- --- --- ----- you ---- ---- ------- ----- ---- -------<br>--- --- -- ----- -- --- ---- -- --- ---- -- ------ ------<br>--- ----- -- ----,152432,152427.5,152120.106,152132,152136.772,152436.76,,32,you
screen,html.Screen,2_1_0_1_33,2022-02-01T13:04:49.360Z,,,,,,,,,,,,,,,,,53,,,,,,,,,,,,,,302.63999999850057,,response,,,,99,,,,,,,Space,keypress(Space),,,,,,,,---- -- ----- -- ------ - ------- --- ----------<br>------------- ------ ------ ---- ---- ------- ----- -- ----<br>-------- ------- -- ---------- --- - --- ----- ----- ----<br>---- --- --- ----- --- feel ---- ------- ----- ---- -------<br>--- --- -- ----- -- --- ---- -- --- ---- -- ------ ------<br>--- ----- -- ----,152743.8999999985,152739.3999999985,152420.094,152432.09999999776,152436.76,152753.414,,33,feel
screen,html.Screen,2_1_0_1_34,2022-02-01T13:04:49.568Z,,,,,,,,,,,,,,,,,53,,,,,,,,,,,,,,193.08600000001024,,response,,,,99,,,,,,,Space,keypress(Space),,,,,,,,---- -- ----- -- ------ - ------- --- ----------<br>------------- ------ ------ ---- ---- ------- ----- -- ----<br>-------- ------- -- ---------- --- - --- ----- ----- ----<br>---- --- --- ----- --- ---- that ------- ----- ---- -------<br>--- --- -- ----- -- --- ---- -- --- ---- -- ------ ------<br>--- ----- -- ----,152951.29999999702,152946.5,152736.748,152744.09999999776,152753.414,152953.406,,34,that
screen,html.Screen,2_1_0_1_35,2022-02-01T13:04:49.737Z,,,,,,,,,,,,,,,,,53,,,,,,,,,,,,,,161.89399999703164,,response,,,,99,,,,,,,Space,keypress(Space),,,,,,,,---- -- ----- -- ------ - ------- --- ----------<br>------------- ------ ------ ---- ---- ------- ----- -- ----<br>-------- ------- -- ---------- --- - --- ----- ----- ----<br>---- --- --- ----- --- ---- ---- matters ----- ---- -------<br>--- --- -- ----- -- --- ---- -- --- ---- -- ------ ------<br>--- ----- -- ----,153120.19999999925,153115.29999999702,152936.74,152951.3999999985,152953.406,153136.732,,35,matters
screen,html.Screen,2_1_0_1_36,2022-02-01T13:04:50.100Z,,,,,,,,,,,,,,,,,53,,,,,,,,,,,,,,340.4679999992659,,response,,,,99,,,,,,,Space,keypress(Space),,,,,,,,"---- -- ----- -- ------ - ------- --- ----------<br>------------- ------ ------ ---- ---- ------- ----- -- ----<br>-------- ------- -- ---------- --- - --- ----- ----- ----<br>---- --- --- ----- --- ---- ---- ------- most, ---- -------<br>--- --- -- ----- -- --- ---- -- --- ---- -- ------ ------<br>--- ----- -- ----",153483.29999999702,153477.19999999925,153120.066,153120.29999999702,153136.732,153486.718,,36,"most,"
screen,html.Screen,2_1_0_1_37,2022-02-01T13:04:50.441Z,,,,,,,,,,,,,,,,,53,,,,,,,,,,,,,,332.6819999985164,,response,,,,99,,,,,,,Space,keypress(Space),,,,,,,,---- -- ----- -- ------ - ------- --- ----------<br>------------- ------ ------ ---- ---- ------- ----- -- ----<br>-------- ------- -- ---------- --- - --- ----- ----- ----<br>---- --- --- ----- --- ---- ---- ------- ----- it's -------<br>--- --- -- ----- -- --- ---- -- --- ---- -- ------ ------<br>--- ----- -- ----,153824.19999999925,153819.3999999985,153470.052,153483.3999999985,153486.718,153836.704,,37,it's
screen,html.Screen,2_1_0_1_38,2022-02-01T13:04:50.703Z,,,,,,,,,,,,,,,,,53,,,,,,,,,,,,,,244.7960000000021,,response,,,,99,,,,,,,Space,keypress(Space),,,,,,,,---- -- ----- -- ------ - ------- --- ----------<br>------------- ------ ------ ---- ---- ------- ----- -- ----<br>-------- ------- -- ---------- --- - --- ----- ----- ----<br>---- --- --- ----- --- ---- ---- ------- ----- ---- whether<br>--- --- -- ----- -- --- ---- -- --- ---- -- ------ ------<br>--- ----- -- ----,154086.19999999925,154081.5,153820.038,153824.19999999925,153836.704,154103.36,,38,whether
screen,html.Screen,2_1_0_1_39,2022-02-01T13:04:50.897Z,,,,,,,,,,,,,,,,,53,,,,,,,,,,,,,,172.93999999703374,,response,,,,99,,,,,,,Space,keypress(Space),,,,,,,,---- -- ----- -- ------ - ------- --- ----------<br>------------- ------ ------ ---- ---- ------- ----- -- ----<br>-------- ------- -- ---------- --- - --- ----- ----- ----<br>---- --- --- ----- --- ---- ---- ------- ----- ---- -------<br>you --- -- ----- -- --- ---- -- --- ---- -- ------ ------<br>--- ----- -- ----,154280.8999999985,154276.29999999702,154086.694,154086.29999999702,154103.36,154286.686,,39,you
screen,html.Screen,2_1_0_1_40,2022-02-01T13:04:51.078Z,,,,,,,,,,,,,,,,,53,,,,,,,,,,,,,,170.71399999852292,,response,,,,99,,,,,,,Space,keypress(Space),,,,,,,,---- -- ----- -- ------ - ------- --- ----------<br>------------- ------ ------ ---- ---- ------- ----- -- ----<br>-------- ------- -- ---------- --- - --- ----- ----- ----<br>---- --- --- ----- --- ---- ---- ------- ----- ---- -------<br>--- are -- ----- -- --- ---- -- --- ---- -- ------ ------<br>--- ----- -- ----,154461.8999999985,154457.3999999985,154270.02,154280.8999999985,154286.686,154470.012,,40,are
screen,html.Screen,2_1_0_1_41,2022-02-01T13:04:51.238Z,,,,,,,,,,,,,,,,,53,,,,,,,,,,,,,,148.08799999777693,,response,,,,99,,,,,,,Space,keypress(Space),,,,,,,,---- -- ----- -- ------ - ------- --- ----------<br>------------- ------ ------ ---- ---- ------- ----- -- ----<br>-------- ------- -- ---------- --- - --- ----- ----- ----<br>---- --- --- ----- --- ---- ---- ------- ----- ---- -------<br>--- --- as ----- -- --- ---- -- --- ---- -- ------ ------<br>--- ----- -- ----,154621.5,154618.09999999776,154453.346,154462,154470.012,154636.672,,41,as
screen,html.Screen,2_1_0_1_42,2022-02-01T13:04:51.619Z,,,,,,,,,,,,,,,,,53,,,,,,,,,,,,,,361.8280000000086,,response,,,,99,,,,,,,Space,keypress(Space),,,,,,,,---- -- ----- -- ------ - ------- --- ----------<br>------------- ------ ------ ---- ---- ------- ----- -- ----<br>-------- ------- -- ---------- --- - --- ----- ----- ----<br>---- --- --- ----- --- ---- ---- ------- ----- ---- -------<br>--- --- -- close -- --- ---- -- --- ---- -- ------ ------<br>--- ----- -- ----,155002.8999999985,154998.5,154620.006,154621.5,154636.672,155019.99,,42,close
screen,html.Screen,2_1_0_1_43,2022-02-01T13:04:51.890Z,,,,,,,,,,,,,,,,,53,,,,,,,,,,,,,,249.5100000000093,,response,,,,99,,,,,,,Space,keypress(Space),,,,,,,,---- -- ----- -- ------ - ------- --- ----------<br>------------- ------ ------ ---- ---- ------- ----- -- ----<br>-------- ------- -- ---------- --- - --- ----- ----- ----<br>---- --- --- ----- --- ---- ---- ------- ----- ---- -------<br>--- --- -- ----- as --- ---- -- --- ---- -- ------ ------<br>--- ----- -- ----,155273.8999999985,155269.5,155003.324,155003,155019.99,155286.646,,43,as
screen,html.Screen,2_1_0_1_44,2022-02-01T13:04:52.263Z,,,,,,,,,,,,,,,,,53,,,,,,,,,,,,,,354.75399999850197,,response,,,,99,,,,,,,Space,keypress(Space),,,,,,,,---- -- ----- -- ------ - ------- --- ----------<br>------------- ------ ------ ---- ---- ------- ----- -- ----<br>-------- ------- -- ---------- --- - --- ----- ----- ----<br>---- --- --- ----- --- ---- ---- ------- ----- ---- -------<br>--- --- -- ----- -- you ---- -- --- ---- -- ------ ------<br>--- ----- -- ----,155646.19999999925,155641.3999999985,155269.98,155274,155286.646,155653.298,,44,you
screen,html.Screen,2_1_0_1_45,2022-02-01T13:04:52.454Z,,,,,,,,,,,,,,,,,53,,,,,,,,,,,,,,180.1019999985001,,response,,,,99,,,,,,,Space,keypress(Space),,,,,,,,---- -- ----- -- ------ - ------- --- ----------<br>------------- ------ ------ ---- ---- ------- ----- -- ----<br>-------- ------- -- ---------- --- - --- ----- ----- ----<br>---- --- --- ----- --- ---- ---- ------- ----- ---- -------<br>--- --- -- ----- -- --- want -- --- ---- -- ------ ------<br>--- ----- -- ----,155838,155833.3999999985,155636.632,155646.29999999702,155653.298,155853.29,,45,want
screen,html.Screen,2_1_0_1_46,2022-02-01T13:04:52.640Z,,,,,,,,,,,,,,,,,53,,,,,,,,,,,,,,166.10999999850173,,response,,,,99,,,,,,,Space,keypress(Space),,,,,,,,---- -- ----- -- ------ - ------- --- ----------<br>------------- ------ ------ ---- ---- ------- ----- -- ----<br>-------- ------- -- ---------- --- - --- ----- ----- ----<br>---- --- --- ----- --- ---- ---- ------- ----- ---- -------<br>--- --- -- ----- -- --- ---- to --- ---- -- ------ ------<br>--- ----- -- ----,156023.8999999985,156019.3999999985,155836.624,155838,155853.29,156036.616,,46,to
screen,html.Screen,2_1_0_1_47,2022-02-01T13:04:52.839Z,,,,,,,,,,,,,,,,,53,,,,,,,,,,,,,,180.88399999999092,,response,,,,99,,,,,,,Space,keypress(Space),,,,,,,,"---- -- ----- -- ------ - ------- --- ----------<br>------------- ------ ------ ---- ---- ------- ----- -- ----<br>-------- ------- -- ---------- --- - --- ----- ----- ----<br>---- --- --- ----- --- ---- ---- ------- ----- ---- -------<br>--- --- -- ----- -- --- ---- -- be, ---- -- ------ ------<br>--- ----- -- ----",156222.09999999776,156217.5,156019.95,156024,156036.616,156236.608,,47,"be,"
screen,html.Screen,2_1_0_1_48,2022-02-01T13:04:53.029Z,,,,,,,,,,,,,,,,,53,,,,,,,,,,,,,,170.69199999701232,,response,,,,99,,,,,,,Space,keypress(Space),,,,,,,,---- -- ----- -- ------ - ------- --- ----------<br>------------- ------ ------ ---- ---- ------- ----- -- ----<br>-------- ------- -- ---------- --- - --- ----- ----- ----<br>---- --- --- ----- --- ---- ---- ------- ----- ---- -------<br>--- --- -- ----- -- --- ---- -- --- even -- ------ ------<br>--- ----- -- ----,156412.3999999985,156407.29999999702,156219.942,156222.19999999925,156236.608,156419.934,,48,even
screen,html.Screen,2_1_0_1_49,2022-02-01T13:04:53.316Z,,,,,,,,,,,,,,,,,53,,,,,,,,,,,,,,274.5659999999916,,response,,,,99,,,,,,,Space,keypress(Space),,,,,,,,---- -- ----- -- ------ - ------- --- ----------<br>------------- ------ ------ ---- ---- ------- ----- -- ----<br>-------- ------- -- ---------- --- - --- ----- ----- ----<br>---- --- --- ----- --- ---- ---- ------- ----- ---- -------<br>--- --- -- ----- -- --- ---- -- --- ---- if ------ ------<br>--- ----- -- ----,156699.8999999985,156694.5,156403.268,156412.3999999985,156419.934,156703.256,,49,if
screen,html.Screen,2_1_0_1_50,2022-02-01T13:04:53.534Z,,,,,,,,,,,,,,,,,53,,,,,,,,,,,,,,210.04399999702582,,response,,,,99,,,,,,,Space,keypress(Space),,,,,,,,---- -- ----- -- ------ - ------- --- ----------<br>------------- ------ ------ ---- ---- ------- ----- -- ----<br>-------- ------- -- ---------- --- - --- ----- ----- ----<br>---- --- --- ----- --- ---- ---- ------- ----- ---- -------<br>--- --- -- ----- -- --- ---- -- --- ---- -- that's ------<br>--- ----- -- ----,156917.8999999985,156913.29999999702,156686.59,156700,156703.256,156919.914,,50,that's
screen,html.Screen,2_1_0_1_51,2022-02-01T13:04:54.112Z,,,,,,,,,,,,,,,,,53,,,,,,,,,,,,,,571.2859999992652,,response,,,,99,,,,,,,Space,keypress(Space),,,,,,,,---- -- ----- -- ------ - ------- --- ----------<br>------------- ------ ------ ---- ---- ------- ----- -- ----<br>-------- ------- -- ---------- --- - --- ----- ----- ----<br>---- --- --- ----- --- ---- ---- ------- ----- ---- -------<br>--- --- -- ----- -- --- ---- -- --- ---- -- ------ really<br>--- ----- -- ----,157495.79999999702,157491.19999999925,156903.248,156918,156919.914,157503.224,,51,really
screen,html.Screen,2_1_0_1_52,2022-02-01T13:04:54.658Z,,,,,,,,,,,,,,,,,53,,,,,,,,,,,,,,533.0759999970323,,response,,,,99,,,,,,,Space,keypress(Space),,,,,,,,---- -- ----- -- ------ - ------- --- ----------<br>------------- ------ ------ ---- ---- ------- ----- -- ----<br>-------- ------- -- ---------- --- - --- ----- ----- ----<br>---- --- --- ----- --- ---- ---- ------- ----- ---- -------<br>--- --- -- ----- -- --- ---- -- --- ---- -- ------ ------<br>not ----- -- ----,158041.19999999925,158036.29999999702,157486.558,157495.8999999985,157503.224,158053.202,,52,not
screen,html.Screen,2_1_0_1_53,2022-02-01T13:04:55.102Z,,,,,,,,,,,,,,,,,53,,,,,,,,,,,,,,426.9979999992647,,response,,,,99,,,,,,,Space,keypress(Space),,,,,,,,---- -- ----- -- ------ - ------- --- ----------<br>------------- ------ ------ ---- ---- ------- ----- -- ----<br>-------- ------- -- ---------- --- - --- ----- ----- ----<br>---- --- --- ----- --- ---- ---- ------- ----- ---- -------<br>--- --- -- ----- -- --- ---- -- --- ---- -- ------ ------<br>--- close -- ----,158485.19999999925,158480.19999999925,158036.536,158041.19999999925,158053.202,158503.184,,53,close
screen,html.Screen,2_1_0_1_54,2022-02-01T13:04:55.496Z,,,,,,,,,,,,,,,,,53,,,,,,,,,,,,,,372.01599999924656,,response,,,,99,,,,,,,Space,keypress(Space),,,,,,,,---- -- ----- -- ------ - ------- --- ----------<br>------------- ------ ------ ---- ---- ------- ----- -- ----<br>-------- ------- -- ---------- --- - --- ----- ----- ----<br>---- --- --- ----- --- ---- ---- ------- ----- ---- -------<br>--- --- -- ----- -- --- ---- -- --- ---- -- ------ ------<br>--- ----- at ----,158879.69999999925,158875.19999999925,158486.518,158485.29999999702,158503.184,158886.502,,54,at
screen,html.Screen,2_1_0_1_55,2022-02-01T13:04:55.985Z,,,,,,,,,,,,,,,,,53,,,,,,,,,,,,,,477.69799999924726,,response,,,,99,,,,,,,Space,keypress(Space),,,,,,,,---- -- ----- -- ------ - ------- --- ----------<br>------------- ------ ------ ---- ---- ------- ----- -- ----<br>-------- ------- -- ---------- --- - --- ----- ----- ----<br>---- --- --- ----- --- ---- ---- ------- ----- ---- -------<br>--- --- -- ----- -- --- ---- -- --- ---- -- ------ ------<br>--- ----- -- all.,159368.8999999985,159364.19999999925,158869.836,158879.8999999985,158886.502,159386.482,,55,all.
Item 99,flow.Loop,2_1_0_1,2022-02-01T13:04:55.986Z,,,,,,,,,,,,,,,,,,,,,,,,,,,,,,,20744.10999999926,,completion,,,,,C,,,,,,,,,,,silence,,,,,159369.09999999776,159364.19999999925,138603.424,138605.19999999925,138620.09,159386.482,,,
Question 1,html.Screen,2_1_0_2,2022-02-01T13:05:01.041Z,,,,,,,,,,,,,,,,,,,,,,,,,,,,true,FALSE,,5014.217999999266,,response,,,,99,C,,,,,,FALSE,click #choice-2,,,,silence,,,,,164424.19999999925,164400.69999999925,159369.816,159369.19999999925,159386.482,164453.221,,,
Question 2,html.Screen,2_1_0_3,2022-02-01T13:05:07.517Z,,,,,,,,,,,,,,,,,,,,,,,,,,,,false,TRUE,,6436.4789999992645,,response,,,,99,C,,,,,,FALSE,click #choice-2,,,,silence,,,,,170900.8999999985,170889.69999999925,164436.555,164424.3999999985,164453.221,170902.963,,,
Item 99,flow.Sequence,2_1_0,2022-02-01T13:05:07.518Z,,,,,,,,,,,,,,,,,,,,,,,,,,,,,,,42269.98999999925,,completion,,,,,,,,,,,,,,,,,,,,,170901,170889.69999999925,128603.044,128608.09999999776,128619.71,170902.963,,,
Holding screen,html.Screen,2_1_1_0,2022-02-01T13:05:17.504Z,,,,,,,,,,,,,,,,,,,,,,,,,,,,,,,9999.863000000012,,timeout,,,,,,,,,,,,,,,,,,,,,180887.09999999776,180886.16,170886.297,170901.09999999776,170902.963,180902.826,,,
screen,html.Screen,2_1_1_1_0,2022-02-01T13:05:18.150Z,,,,,,,,,,,,,,,,,54,,,,,,,,,,,,,,625.2739999977639,,response,,,,100,,,,,,,Space,keypress(Space),,,,,,,,At --- ---- --- ------ ----- ------- ---- -- --- ------- --<br>------- ---------- ------ -- ----- -- ----- -- ---- ------<br>--- ----- --- --- ------ -------- ----- --- ------ ----- --<br>----- ----- ---------- --- --- ------ ------ ---- -- ------<br>------- --- ------ ----- --- ---- ------- -- ---- --- --<br>------- ------,181533.19999999925,181528.09999999776,180886.16,180887.29999999702,180902.826,181536.134,,0,At
screen,html.Screen,2_1_1_1_1,2022-02-01T13:05:18.641Z,,,,,,,,,,,,,,,,,54,,,,,,,,,,,,,,483.26599999851896,,response,,,,100,,,,,,,Space,keypress(Space),,,,,,,,-- the ---- --- ------ ----- ------- ---- -- --- ------- --<br>------- ---------- ------ -- ----- -- ----- -- ---- ------<br>--- ----- --- --- ------ -------- ----- --- ------ ----- --<br>----- ----- ---------- --- --- ------ ------ ---- -- ------<br>------- --- ------ ----- --- ---- ------- -- ---- --- --<br>------- ------,182024.3999999985,182019.3999999985,181519.468,181533.3999999985,181536.134,182036.387,,1,the
screen,html.Screen,2_1_1_1_2,2022-02-01T13:05:19.032Z,,,,,,,,,,,,,,,,,54,,,,,,,,,,,,,,374.21299999777693,,response,,,,100,,,,,,,Space,keypress(Space),,,,,,,,-- --- time --- ------ ----- ------- ---- -- --- ------- --<br>------- ---------- ------ -- ----- -- ----- -- ---- ------<br>--- ----- --- --- ------ -------- ----- --- ------ ----- --<br>----- ----- ---------- --- --- ------ ------ ---- -- ------<br>------- --- ------ ----- --- ---- ------- -- ---- --- --<br>------- ------,182415.09999999776,182410.59999999776,182019.721,182024.59999999776,182036.387,182419.705,,2,time
screen,html.Screen,2_1_1_1_3,2022-02-01T13:05:19.297Z,,,,,,,,,,,,,,,,,54,,,,,,,,,,,,,,255.7950000000128,,response,,,,100,,,,,,,Space,keypress(Space),,,,,,,,-- --- ---- the ------ ----- ------- ---- -- --- ------- --<br>------- ---------- ------ -- ----- -- ----- -- ---- ------<br>--- ----- --- --- ------ -------- ----- --- ------ ----- --<br>----- ----- ---------- --- --- ------ ------ ---- -- ------<br>------- --- ------ ----- --- ---- ------- -- ---- --- --<br>------- ------,182680,182675.5,182403.039,182415.19999999925,182419.705,182686.361,,3,the
screen,html.Screen,2_1_1_1_4,2022-02-01T13:05:19.604Z,,,,,,,,,,,,,,,,,54,,,,,,,,,,,,,,296.1389999999956,,response,,,,100,,,,,,,Space,keypress(Space),,,,,,,,-- --- ---- --- French ----- ------- ---- -- --- ------- --<br>------- ---------- ------ -- ----- -- ----- -- ---- ------<br>--- ----- --- --- ------ -------- ----- --- ------ ----- --<br>----- ----- ---------- --- --- ------ ------ ---- -- ------<br>------- --- ------ ----- --- ---- ------- -- ---- --- --<br>------- ------,182987.5,182982.5,182669.695,182680.09999999776,182686.361,183003.015,,4,French
screen,html.Screen,2_1_1_1_5,2022-02-01T13:05:19.815Z,,,,,,,,,,,,,,,,,54,,,,,,,,,,,,,,190.3849999984959,,response,,,,100,,,,,,,Space,keypress(Space),,,,,,,,-- --- ---- --- ------ crown ------- ---- -- --- ------- --<br>------- ---------- ------ -- ----- -- ----- -- ---- ------<br>--- ----- --- --- ------ -------- ----- --- ------ ----- --<br>----- ----- ---------- --- --- ------ ------ ---- -- ------<br>------- --- ------ ----- --- ---- ------- -- ---- --- --<br>------- ------,183198.19999999925,183193.3999999985,182986.349,182987.59999999776,183003.015,183203.007,,5,crown
screen,html.Screen,2_1_1_1_6,2022-02-01T13:05:20.011Z,,,,,,,,,,,,,,,,,54,,,,,,,,,,,,,,186.39299999849754,,response,,,,100,,,,,,,Space,keypress(Space),,,,,,,,-- --- ---- --- ------ ----- secured ---- -- --- ------- --<br>------- ---------- ------ -- ----- -- ----- -- ---- ------<br>--- ----- --- --- ------ -------- ----- --- ------ ----- --<br>----- ----- ---------- --- --- ------ ------ ---- -- ------<br>------- --- ------ ----- --- ---- ------- -- ---- --- --<br>------- ------,183394.19999999925,183389.3999999985,183186.341,183198.19999999925,183203.007,183402.999,,6,secured
screen,html.Screen,2_1_1_1_7,2022-02-01T13:05:21.079Z,,,,,,,,,,,,,,,,,54,,,,,,,,,,,,,,1054.300999997009,,response,,,,100,,,,,,,Space,keypress(Space),,,,,,,,-- --- ---- --- ------ ----- ------- much -- --- ------- --<br>------- ---------- ------ -- ----- -- ----- -- ---- ------<br>--- ----- --- --- ------ -------- ----- --- ------ ----- --<br>----- ----- ---------- --- --- ------ ------ ---- -- ------<br>------- --- ------ ----- --- ---- ------- -- ---- --- --<br>------- ------,184462.29999999702,184457.29999999702,183386.333,183394.29999999702,183402.999,184469.623,,7,much
screen,html.Screen,2_1_1_1_8,2022-02-01T13:05:21.628Z,,,,,,,,,,,,,,,,,54,,,,,,,,,,,,,,536.7769999985176,,response,,,,100,,,,,,,Space,keypress(Space),,,,,,,,-- --- ---- --- ------ ----- ------- ---- of --- ------- --<br>------- ---------- ------ -- ----- -- ----- -- ---- ------<br>--- ----- --- --- ------ -------- ----- --- ------ ----- --<br>----- ----- ---------- --- --- ------ ------ ---- -- ------<br>------- --- ------ ----- --- ---- ------- -- ---- --- --<br>------- ------,185011,185006.3999999985,184452.957,184462.3999999985,184469.623,185019.601,,8,of
screen,html.Screen,2_1_1_1_9,2022-02-01T13:05:22.038Z,,,,,,,,,,,,,,,,,54,,,,,,,,,,,,,,396.69899999702466,,response,,,,100,,,,,,,Space,keypress(Space),,,,,,,,-- --- ---- --- ------ ----- ------- ---- -- its ------- --<br>------- ---------- ------ -- ----- -- ----- -- ---- ------<br>--- ----- --- --- ------ -------- ----- --- ------ ----- --<br>----- ----- ---------- --- --- ------ ------ ---- -- ------<br>------- --- ------ ----- --- ---- ------- -- ---- --- --<br>------- ------,185420.8999999985,185416.29999999702,185002.935,185011.09999999776,185019.601,185436.251,,9,its
screen,html.Screen,2_1_1_1_10,2022-02-01T13:05:22.491Z,,,,,,,,,,,,,,,,,54,,,,,,,,,,,,,,434.0489999970305,,response,,,,100,,,,,,,Space,keypress(Space),,,,,,,,-- --- ---- --- ------ ----- ------- ---- -- --- revenue --<br>------- ---------- ------ -- ----- -- ----- -- ---- ------<br>--- ----- --- --- ------ -------- ----- --- ------ ----- --<br>----- ----- ---------- --- --- ------ ------ ---- -- ------<br>------- --- ------ ----- --- ---- ------- -- ---- --- --<br>------- ------,185874.8999999985,185870.29999999702,185419.585,185421,185436.251,185886.233,,10,revenue
screen,html.Screen,2_1_1_1_11,2022-02-01T13:05:22.951Z,,,,,,,,,,,,,,,,,54,,,,,,,,,,,,,,442.8669999977574,,response,,,,100,,,,,,,Space,keypress(Space),,,,,,,,-- --- ---- --- ------ ----- ------- ---- -- --- ------- by<br>------- ---------- ------ -- ----- -- ----- -- ---- ------<br>--- ----- --- --- ------ -------- ----- --- ------ ----- --<br>----- ----- ---------- --- --- ------ ------ ---- -- ------<br>------- --- ------ ----- --- ---- ------- -- ---- --- --<br>------- ------,186334,186329.09999999776,185869.567,185874.8999999985,185886.233,186336.215,,11,by
screen,html.Screen,2_1_1_1_12,2022-02-01T13:05:23.338Z,,,,,,,,,,,,,,,,,54,,,,,,,,,,,,,,380.08499999702326,,response,,,,100,,,,,,,Space,keypress(Space),,,,,,,,-- --- ---- --- ------ ----- ------- ---- -- --- ------- --<br>issuing ---------- ------ -- ----- -- ----- -- ---- ------<br>--- ----- --- --- ------ -------- ----- --- ------ ----- --<br>----- ----- ---------- --- --- ------ ------ ---- -- ------<br>------- --- ------ ----- --- ---- ------- -- ---- --- --<br>------- ------,186721.09999999776,186716.29999999702,186319.549,186334,186336.215,186736.199,,12,issuing
screen,html.Screen,2_1_1_1_13,2022-02-01T13:05:23.726Z,,,,,,,,,,,,,,,,,54,,,,,,,,,,,,,,368.0009999992617,,response,,,,100,,,,,,,Space,keypress(Space),,,,,,,,-- --- ---- --- ------ ----- ------- ---- -- --- ------- --<br>------- government ------ -- ----- -- ----- -- ---- ------<br>--- ----- --- --- ------ -------- ----- --- ------ ----- --<br>----- ----- ---------- --- --- ------ ------ ---- -- ------<br>------- --- ------ ----- --- ---- ------- -- ---- --- --<br>------- ------,187108.79999999702,187104.19999999925,186719.533,186721.29999999702,186736.199,187119.517,,13,government
screen,html.Screen,2_1_1_1_14,2022-02-01T13:05:23.943Z,,,,,,,,,,,,,,,,,54,,,,,,,,,,,,,,202.1829999992624,,response,,,,100,,,,,,,Space,keypress(Space),,,,,,,,-- --- ---- --- ------ ----- ------- ---- -- --- ------- --<br>------- ---------- bonds. -- ----- -- ----- -- ---- ------<br>--- ----- --- --- ------ -------- ----- --- ------ ----- --<br>----- ----- ---------- --- --- ------ ------ ---- -- ------<br>------- --- ------ ----- --- ---- ------- -- ---- --- --<br>------- ------,187326,187321.69999999925,187102.851,187108.8999999985,187119.517,187336.175,,14,bonds.
screen,html.Screen,2_1_1_1_15,2022-02-01T13:05:24.557Z,,,,,,,,,,,,,,,,,54,,,,,,,,,,,,,,599.0249999992666,,response,,,,100,,,,,,,Space,keypress(Space),,,,,,,,-- --- ---- --- ------ ----- ------- ---- -- --- ------- --<br>------- ---------- ------ In ----- -- ----- -- ---- ------<br>--- ----- --- --- ------ -------- ----- --- ------ ----- --<br>----- ----- ---------- --- --- ------ ------ ---- -- ------<br>------- --- ------ ----- --- ---- ------- -- ---- --- --<br>------- ------,187939.8999999985,187935.19999999925,187319.509,187326,187336.175,187952.817,,15,In
screen,html.Screen,2_1_1_1_16,2022-02-01T13:05:24.822Z,,,,,,,,,,,,,,,,,54,,,,,,,,,,,,,,247.38299999924493,,response,,,,100,,,,,,,Space,keypress(Space),,,,,,,,"-- --- ---- --- ------ ----- ------- ---- -- --- ------- --<br>------- ---------- ------ -- 1727, -- ----- -- ---- ------<br>--- ----- --- --- ------ -------- ----- --- ------ ----- --<br>----- ----- ---------- --- --- ------ ------ ---- -- ------<br>------- --- ------ ----- --- ---- ------- -- ---- --- --<br>------- ------",188205.09999999776,188200.19999999925,187936.151,187940.09999999776,187952.817,188219.473,,16,"1727,"
screen,html.Screen,2_1_1_1_17,2022-02-01T13:05:25.396Z,,,,,,,,,,,,,,,,,54,,,,,,,,,,,,,,554.7269999992568,,response,,,,100,,,,,,,Space,keypress(Space),,,,,,,,-- --- ---- --- ------ ----- ------- ---- -- --- ------- --<br>------- ---------- ------ -- ----- in ----- -- ---- ------<br>--- ----- --- --- ------ -------- ----- --- ------ ----- --<br>----- ----- ---------- --- --- ------ ------ ---- -- ------<br>------- --- ------ ----- --- ---- ------- -- ---- --- --<br>------- ------,188779,188774.19999999925,188202.807,188205.09999999776,188219.473,188786.117,,17,in
screen,html.Screen,2_1_1_1_18,2022-02-01T13:05:26.318Z,,,,,,,,,,,,,,,,,54,,,,,,,,,,,,,,909.8830000000016,,response,,,,100,,,,,,,Space,keypress(Space),,,,,,,,-- --- ---- --- ------ ----- ------- ---- -- --- ------- --<br>------- ---------- ------ -- ----- -- order -- ---- ------<br>--- ----- --- --- ------ -------- ----- --- ------ ----- --<br>----- ----- ---------- --- --- ------ ------ ---- -- ------<br>------- --- ------ ----- --- ---- ------- -- ---- --- --<br>------- ------,189701.19999999925,189696,188769.451,188779.09999999776,188786.117,189702.747,,18,order
screen,html.Screen,2_1_1_1_19,2022-02-01T13:05:26.733Z,,,,,,,,,,,,,,,,,54,,,,,,,,,,,,,,409.4529999992519,,response,,,,100,,,,,,,Space,keypress(Space),,,,,,,,-- --- ---- --- ------ ----- ------- ---- -- --- ------- --<br>------- ---------- ------ -- ----- -- ----- to ---- ------<br>--- ----- --- --- ------ -------- ----- --- ------ ----- --<br>----- ----- ---------- --- --- ------ ------ ---- -- ------<br>------- --- ------ ----- --- ---- ------- -- ---- --- --<br>------- ------,190116.79999999702,190112.19999999925,189686.081,189701.29999999702,189702.747,190119.397,,19,to
screen,html.Screen,2_1_1_1_20,2022-02-01T13:05:26.963Z,,,,,,,,,,,,,,,,,54,,,,,,,,,,,,,,222.80299999925774,,response,,,,100,,,,,,,Space,keypress(Space),,,,,,,,-- --- ---- --- ------ ----- ------- ---- -- --- ------- --<br>------- ---------- ------ -- ----- -- ----- -- save ------<br>--- ----- --- --- ------ -------- ----- --- ------ ----- --<br>----- ----- ---------- --- --- ------ ------ ---- -- ------<br>------- --- ------ ----- --- ---- ------- -- ---- --- --<br>------- ------,190346.79999999702,190342.19999999925,190102.731,190116.79999999702,190119.397,190352.721,,20,save
screen,html.Screen,2_1_1_1_21,2022-02-01T13:05:27.385Z,,,,,,,,,,,,,,,,,54,,,,,,,,,,,,,,411.4789999992645,,response,,,,100,,,,,,,Space,keypress(Space),,,,,,,,"-- --- ---- --- ------ ----- ------- ---- -- --- ------- --<br>------- ---------- ------ -- ----- -- ----- -- ---- money,<br>--- ----- --- --- ------ -------- ----- --- ------ ----- --<br>----- ----- ---------- --- --- ------ ------ ---- -- ------<br>------- --- ------ ----- --- ---- ------- -- ---- --- --<br>------- ------",190768.69999999925,190764.19999999925,190336.055,190346.8999999985,190352.721,190786.037,,21,"money,"
screen,html.Screen,2_1_1_1_22,2022-02-01T13:05:27.858Z,,,,,,,,,,,,,,,,,54,,,,,,,,,,,,,,451.16299999924377,,response,,,,100,,,,,,,Space,keypress(Space),,,,,,,,-- --- ---- --- ------ ----- ------- ---- -- --- ------- --<br>------- ---------- ------ -- ----- -- ----- -- ---- ------<br>the ----- --- --- ------ -------- ----- --- ------ ----- --<br>----- ----- ---------- --- --- ------ ------ ---- -- ------<br>------- --- ------ ----- --- ---- ------- -- ---- --- --<br>------- ------,191241.79999999702,191237.19999999925,190769.371,190768.69999999925,190786.037,191252.685,,22,the
screen,html.Screen,2_1_1_1_23,2022-02-01T13:05:28.091Z,,,,,,,,,,,,,,,,,54,,,,,,,,,,,,,,217.51499999925727,,response,,,,100,,,,,,,Space,keypress(Space),,,,,,,,-- --- ---- --- ------ ----- ------- ---- -- --- ------- --<br>------- ---------- ------ -- ----- -- ----- -- ---- ------<br>--- state --- --- ------ -------- ----- --- ------ ----- --<br>----- ----- ---------- --- --- ------ ------ ---- -- ------<br>------- --- ------ ----- --- ---- ------- -- ---- --- --<br>------- ------,191474.79999999702,191470.19999999925,191236.019,191241.8999999985,191252.685,191486.009,,23,state
screen,html.Screen,2_1_1_1_24,2022-02-01T13:05:28.456Z,,,,,,,,,,,,,,,,,54,,,,,,,,,,,,,,348.9910000000091,,response,,,,100,,,,,,,Space,keypress(Space),,,,,,,,-- --- ---- --- ------ ----- ------- ---- -- --- ------- --<br>------- ---------- ------ -- ----- -- ----- -- ---- ------<br>--- ----- cut --- ------ -------- ----- --- ------ ----- --<br>----- ----- ---------- --- --- ------ ------ ---- -- ------<br>------- --- ------ ----- --- ---- ------- -- ---- --- --<br>------- ------,191839.59999999776,191835,191469.343,191474.79999999702,191486.009,191852.932,,24,cut
screen,html.Screen,2_1_1_1_25,2022-02-01T13:05:28.984Z,,,,,,,,,,,,,,,,,54,,,,,,,,,,,,,,509.1679999977641,,response,,,,100,,,,,,,Space,keypress(Space),,,,,,,,-- --- ---- --- ------ ----- ------- ---- -- --- ------- --<br>------- ---------- ------ -- ----- -- ----- -- ---- ------<br>--- ----- --- the ------ -------- ----- --- ------ ----- --<br>----- ----- ---------- --- --- ------ ------ ---- -- ------<br>------- --- ------ ----- --- ---- ------- -- ---- --- --<br>------- ------,192366.8999999985,192362.09999999776,191836.266,191839.69999999925,191852.932,192369.578,,25,the
screen,html.Screen,2_1_1_1_26,2022-02-01T13:05:29.222Z,,,,,,,,,,,,,,,,,54,,,,,,,,,,,,,,231.42199999999139,,response,,,,100,,,,,,,Space,keypress(Space),,,,,,,,-- --- ---- --- ------ ----- ------- ---- -- --- ------- --<br>------- ---------- ------ -- ----- -- ----- -- ---- ------<br>--- ----- --- --- bonds' -------- ----- --- ------ ----- --<br>----- ----- ---------- --- --- ------ ------ ---- -- ------<br>------- --- ------ ----- --- ---- ------- -- ---- --- --<br>------- ------,192605.59999999776,192601,192352.912,192366.8999999985,192369.578,192619.568,,26,bonds'
screen,html.Screen,2_1_1_1_27,2022-02-01T13:05:29.666Z,,,,,,,,,,,,,,,,,54,,,,,,,,,,,,,,425.5319999977655,,response,,,,100,,,,,,,Space,keypress(Space),,,,,,,,-- --- ---- --- ------ ----- ------- ---- -- --- ------- --<br>------- ---------- ------ -- ----- -- ----- -- ---- ------<br>--- ----- --- --- ------ interest ----- --- ------ ----- --<br>----- ----- ---------- --- --- ------ ------ ---- -- ------<br>------- --- ------ ----- --- ---- ------- -- ---- --- --<br>------- ------,193049.59999999776,193045.09999999776,192602.902,192605.59999999776,192619.568,193052.884,,27,interest
screen,html.Screen,2_1_1_1_28,2022-02-01T13:05:29.951Z,,,,,,,,,,,,,,,,,54,,,,,,,,,,,,,,276.2159999977739,,response,,,,100,,,,,,,Space,keypress(Space),,,,,,,,-- --- ---- --- ------ ----- ------- ---- -- --- ------- --<br>------- ---------- ------ -- ----- -- ----- -- ---- ------<br>--- ----- --- --- ------ -------- rate. --- ------ ----- --<br>----- ----- ---------- --- --- ------ ------ ---- -- ------<br>------- --- ------ ----- --- ---- ------- -- ---- --- --<br>------- ------,193333.8999999985,193329.09999999776,193036.218,193049.59999999776,193052.884,193336.206,,28,rate.
screen,html.Screen,2_1_1_1_29,2022-02-01T13:05:30.352Z,,,,,,,,,,,,,,,,,54,,,,,,,,,,,,,,394.89399999775924,,response,,,,100,,,,,,,Space,keypress(Space),,,,,,,,-- --- ---- --- ------ ----- ------- ---- -- --- ------- --<br>------- ---------- ------ -- ----- -- ----- -- ---- ------<br>--- ----- --- --- ------ -------- ----- The ------ ----- --<br>----- ----- ---------- --- --- ------ ------ ---- -- ------<br>------- --- ------ ----- --- ---- ------- -- ---- --- --<br>------- ------,193735.59999999776,193731.09999999776,193319.54,193334,193336.206,193752.856,,29,The
screen,html.Screen,2_1_1_1_30,2022-02-01T13:05:31.040Z,,,,,,,,,,,,,,,,,54,,,,,,,,,,,,,,666.1440000000002,,response,,,,100,,,,,,,Space,keypress(Space),,,,,,,,-- --- ---- --- ------ ----- ------- ---- -- --- ------- --<br>------- ---------- ------ -- ----- -- ----- -- ---- ------<br>--- ----- --- --- ------ -------- ----- --- market ----- --<br>----- ----- ---------- --- --- ------ ------ ---- -- ------<br>------- --- ------ ----- --- ---- ------- -- ---- --- --<br>------- ------,194423.5,194419,193736.19,193735.69999999925,193752.856,194436.162,,30,market
screen,html.Screen,2_1_1_1_31,2022-02-01T13:05:31.375Z,,,,,,,,,,,,,,,,,54,,,,,,,,,,,,,,316.8379999999888,,response,,,,100,,,,,,,Space,keypress(Space),,,,,,,,-- --- ---- --- ------ ----- ------- ---- -- --- ------- --<br>------- ---------- ------ -- ----- -- ----- -- ---- ------<br>--- ----- --- --- ------ -------- ----- --- ------ value --<br>----- ----- ---------- --- --- ------ ------ ---- -- ------<br>------- --- ------ ----- --- ---- ------- -- ---- --- --<br>------- ------,194758,194753,194419.496,194423.59999999776,194436.162,194769.482,,31,value
screen,html.Screen,2_1_1_1_32,2022-02-01T13:05:31.666Z,,,,,,,,,,,,,,,,,54,,,,,,,,,,,,,,275.61799999777577,,response,,,,100,,,,,,,Space,keypress(Space),,,,,,,,-- --- ---- --- ------ ----- ------- ---- -- --- ------- --<br>------- ---------- ------ -- ----- -- ----- -- ---- ------<br>--- ----- --- --- ------ -------- ----- --- ------ ----- of<br>----- ----- ---------- --- --- ------ ------ ---- -- ------<br>------- --- ------ ----- --- ---- ------- -- ---- --- --<br>------- ------,195049.5,195045.09999999776,194752.816,194758.19999999925,194769.482,195052.804,,32,of
screen,html.Screen,2_1_1_1_33,2022-02-01T13:05:31.956Z,,,,,,,,,,,,,,,,,54,,,,,,,,,,,,,,281.49599999701604,,response,,,,100,,,,,,,Space,keypress(Space),,,,,,,,-- --- ---- --- ------ ----- ------- ---- -- --- ------- --<br>------- ---------- ------ -- ----- -- ----- -- ---- ------<br>--- ----- --- --- ------ -------- ----- --- ------ ----- --<br>these ----- ---------- --- --- ------ ------ ---- -- ------<br>------- --- ------ ----- --- ---- ------- -- ---- --- --<br>------- ------,195339.5,195334.29999999702,195036.138,195049.59999999776,195052.804,195352.792,,33,these
screen,html.Screen,2_1_1_1_34,2022-02-01T13:05:32.299Z,,,,,,,,,,,,,,,,,54,,,,,,,,,,,,,,323.20800000001327,,response,,,,100,,,,,,,Space,keypress(Space),,,,,,,,-- --- ---- --- ------ ----- ------- ---- -- --- ------- --<br>------- ---------- ------ -- ----- -- ----- -- ---- ------<br>--- ----- --- --- ------ -------- ----- --- ------ ----- --<br>----- bonds ---------- --- --- ------ ------ ---- -- ------<br>------- --- ------ ----- --- ---- ------- -- ---- --- --<br>------- ------,195682.3999999985,195676,195336.126,195339.5,195352.792,195686.112,,34,bonds
screen,html.Screen,2_1_1_1_35,2022-02-01T13:05:32.578Z,,,,,,,,,,,,,,,,,54,,,,,,,,,,,,,,270.9879999977711,,response,,,,100,,,,,,,Space,keypress(Space),,,,,,,,"-- --- ---- --- ------ ----- ------- ---- -- --- ------- --<br>------- ---------- ------ -- ----- -- ----- -- ---- ------<br>--- ----- --- --- ------ -------- ----- --- ------ ----- --<br>----- ----- plummeted, --- --- ------ ------ ---- -- ------<br>------- --- ------ ----- --- ---- ------- -- ---- --- --<br>------- ------",195961.59999999776,195957.09999999776,195669.446,195682.5,195686.112,195969.434,,35,"plummeted,"
screen,html.Screen,2_1_1_1_36,2022-02-01T13:05:32.918Z,,,,,,,,,,,,,,,,,54,,,,,,,,,,,,,,327.5659999999916,,response,,,,100,,,,,,,Space,keypress(Space),,,,,,,,-- --- ---- --- ------ ----- ------- ---- -- --- ------- --<br>------- ---------- ------ -- ----- -- ----- -- ---- ------<br>--- ----- --- --- ------ -------- ----- --- ------ ----- --<br>----- ----- ---------- and --- ------ ------ ---- -- ------<br>------- --- ------ ----- --- ---- ------- -- ---- --- --<br>------- ------,196301.5,196297,195952.768,195961.59999999776,195969.434,196302.754,,36,and
screen,html.Screen,2_1_1_1_37,2022-02-01T13:05:33.195Z,,,,,,,,,,,,,,,,,54,,,,,,,,,,,,,,271.1459999985236,,response,,,,100,,,,,,,Space,keypress(Space),,,,,,,,-- --- ---- --- ------ ----- ------- ---- -- --- ------- --<br>------- ---------- ------ -- ----- -- ----- -- ---- ------<br>--- ----- --- --- ------ -------- ----- --- ------ ----- --<br>----- ----- ---------- --- the ------ ------ ---- -- ------<br>------- --- ------ ----- --- ---- ------- -- ---- --- --<br>------- ------,196578.5,196573.8999999985,196286.088,196301.59999999776,196302.754,196586.076,,37,the
screen,html.Screen,2_1_1_1_38,2022-02-01T13:05:33.669Z,,,,,,,,,,,,,,,,,54,,,,,,,,,,,,,,461.82399999850895,,response,,,,100,,,,,,,Space,keypress(Space),,,,,,,,-- --- ---- --- ------ ----- ------- ---- -- --- ------- --<br>------- ---------- ------ -- ----- -- ----- -- ---- ------<br>--- ----- --- --- ------ -------- ----- --- ------ ----- --<br>----- ----- ---------- --- --- market ------ ---- -- ------<br>------- --- ------ ----- --- ---- ------- -- ---- --- --<br>------- ------,197052.69999999925,197047.8999999985,196569.41,196578.59999999776,196586.076,197069.39,,38,market
screen,html.Screen,2_1_1_1_39,2022-02-01T13:05:33.891Z,,,,,,,,,,,,,,,,,54,,,,,,,,,,,,,,200.5099999984959,,response,,,,100,,,,,,,Space,keypress(Space),,,,,,,,-- --- ---- --- ------ ----- ------- ---- -- --- ------- --<br>------- ---------- ------ -- ----- -- ----- -- ---- ------<br>--- ----- --- --- ------ -------- ----- --- ------ ----- --<br>----- ----- ---------- --- --- ------ became ---- -- ------<br>------- --- ------ ----- --- ---- ------- -- ---- --- --<br>------- ------,197274.69999999925,197269.8999999985,197052.724,197052.79999999702,197069.39,197286.048,,39,became
screen,html.Screen,2_1_1_1_40,2022-02-01T13:05:34.279Z,,,,,,,,,,,,,,,,,54,,,,,,,,,,,,,,371.8519999985001,,response,,,,100,,,,,,,Space,keypress(Space),,,,,,,,-- --- ---- --- ------ ----- ------- ---- -- --- ------- --<br>------- ---------- ------ -- ----- -- ----- -- ---- ------<br>--- ----- --- --- ------ -------- ----- --- ------ ----- --<br>----- ----- ---------- --- --- ------ ------ wary -- ------<br>------- --- ------ ----- --- ---- ------- -- ---- --- --<br>------- ------,197662.5,197657.8999999985,197269.382,197274.69999999925,197286.048,197669.366,,40,wary
screen,html.Screen,2_1_1_1_41,2022-02-01T13:05:34.542Z,,,,,,,,,,,,,,,,,54,,,,,,,,,,,,,,251.5339999985008,,response,,,,100,,,,,,,Space,keypress(Space),,,,,,,,-- --- ---- --- ------ ----- ------- ---- -- --- ------- --<br>------- ---------- ------ -- ----- -- ----- -- ---- ------<br>--- ----- --- --- ------ -------- ----- --- ------ ----- --<br>----- ----- ---------- --- --- ------ ------ ---- of ------<br>------- --- ------ ----- --- ---- ------- -- ---- --- --<br>------- ------,197925.3999999985,197920.8999999985,197652.7,197662.59999999776,197669.366,197936.022,,41,of
screen,html.Screen,2_1_1_1_42,2022-02-01T13:05:35.023Z,,,,,,,,,,,,,,,,,54,,,,,,,,,,,,,,465.77799999702256,,response,,,,100,,,,,,,Space,keypress(Space),,,,,,,,-- --- ---- --- ------ ----- ------- ---- -- --- ------- --<br>------- ---------- ------ -- ----- -- ----- -- ---- ------<br>--- ----- --- --- ------ -------- ----- --- ------ ----- --<br>----- ----- ---------- --- --- ------ ------ ---- -- French<br>------- --- ------ ----- --- ---- ------- -- ---- --- --<br>------- ------,198406.59999999776,198401.79999999702,197919.356,197925.5,197936.022,198419.336,,42,French
screen,html.Screen,2_1_1_1_43,2022-02-01T13:05:35.312Z,,,,,,,,,,,,,,,,,54,,,,,,,,,,,,,,271.3639999992447,,response,,,,100,,,,,,,Space,keypress(Space),,,,,,,,-- --- ---- --- ------ ----- ------- ---- -- --- ------- --<br>------- ---------- ------ -- ----- -- ----- -- ---- ------<br>--- ----- --- --- ------ -------- ----- --- ------ ----- --<br>----- ----- ---------- --- --- ------ ------ ---- -- ------<br>credit. --- ------ ----- --- ---- ------- -- ---- --- --<br>------- ------,198695.09999999776,198690.69999999925,198402.67,198406.69999999925,198419.336,198719.324,,43,credit.
screen,html.Screen,2_1_1_1_44,2022-02-01T13:05:35.907Z,,,,,,,,,,,,,,,,,54,,,,,,,,,,,,,,566.2759999977716,,response,,,,100,,,,,,,Space,keypress(Space),,,,,,,,-- --- ---- --- ------ ----- ------- ---- -- --- ------- --<br>------- ---------- ------ -- ----- -- ----- -- ---- ------<br>--- ----- --- --- ------ -------- ----- --- ------ ----- --<br>----- ----- ---------- --- --- ------ ------ ---- -- ------<br>------- The ------ ----- --- ---- ------- -- ---- --- --<br>------- ------,199290.19999999925,199285.59999999776,198702.658,198695.19999999925,198719.324,199302.634,,44,The
screen,html.Screen,2_1_1_1_45,2022-02-01T13:05:36.238Z,,,,,,,,,,,,,,,,,54,,,,,,,,,,,,,,313.16599999702885,,response,,,,100,,,,,,,Space,keypress(Space),,,,,,,,-- --- ---- --- ------ ----- ------- ---- -- --- ------- --<br>------- ---------- ------ -- ----- -- ----- -- ---- ------<br>--- ----- --- --- ------ -------- ----- --- ------ ----- --<br>----- ----- ---------- --- --- ------ ------ ---- -- ------<br>------- --- French ----- --- ---- ------- -- ---- --- --<br>------- ------,199621.09999999776,199615.79999999702,199285.968,199290.29999999702,199302.634,199635.954,,45,French
screen,html.Screen,2_1_1_1_46,2022-02-01T13:05:36.528Z,,,,,,,,,,,,,,,,,54,,,,,,,,,,,,,,270.6459999977669,,response,,,,100,,,,,,,Space,keypress(Space),,,,,,,,-- --- ---- --- ------ ----- ------- ---- -- --- ------- --<br>------- ---------- ------ -- ----- -- ----- -- ---- ------<br>--- ----- --- --- ------ -------- ----- --- ------ ----- --<br>----- ----- ---------- --- --- ------ ------ ---- -- ------<br>------- --- ------ state --- ---- ------- -- ---- --- --<br>------- ------,199911.19999999925,199906.59999999776,199619.288,199621.19999999925,199635.954,199919.276,,46,state
screen,html.Screen,2_1_1_1_47,2022-02-01T13:05:36.845Z,,,,,,,,,,,,,,,,,54,,,,,,,,,,,,,,304.42399999924237,,response,,,,100,,,,,,,Space,keypress(Space),,,,,,,,-- --- ---- --- ------ ----- ------- ---- -- --- ------- --<br>------- ---------- ------ -- ----- -- ----- -- ---- ------<br>--- ----- --- --- ------ -------- ----- --- ------ ----- --<br>----- ----- ---------- --- --- ------ ------ ---- -- ------<br>------- --- ------ ----- was ---- ------- -- ---- --- --<br>------- ------,200228.19999999925,200223.69999999925,199902.61,199911.19999999925,199919.276,200235.93,,47,was
screen,html.Screen,2_1_1_1_48,2022-02-01T13:05:37.152Z,,,,,,,,,,,,,,,,,54,,,,,,,,,,,,,,294.7699999992619,,response,,,,100,,,,,,,Space,keypress(Space),,,,,,,,-- --- ---- --- ------ ----- ------- ---- -- --- ------- --<br>------- ---------- ------ -- ----- -- ----- -- ---- ------<br>--- ----- --- --- ------ -------- ----- --- ------ ----- --<br>----- ----- ---------- --- --- ------ ------ ---- -- ------<br>------- --- ------ ----- --- left ------- -- ---- --- --<br>------- ------,200535.29999999702,200530.69999999925,200219.264,200228.29999999702,200235.93,200552.584,,48,left
screen,html.Screen,2_1_1_1_49,2022-02-01T13:05:37.391Z,,,,,,,,,,,,,,,,,54,,,,,,,,,,,,,,213.11599999925238,,response,,,,100,,,,,,,Space,keypress(Space),,,,,,,,-- --- ---- --- ------ ----- ------- ---- -- --- ------- --<br>------- ---------- ------ -- ----- -- ----- -- ---- ------<br>--- ----- --- --- ------ -------- ----- --- ------ ----- --<br>----- ----- ---------- --- --- ------ ------ ---- -- ------<br>------- --- ------ ----- --- ---- without -- ---- --- --<br>------- ------,200774.59999999776,200765.69999999925,200535.918,200535.3999999985,200552.584,200785.908,,49,without
screen,html.Screen,2_1_1_1_50,2022-02-01T13:05:37.685Z,,,,,,,,,,,,,,,,,54,,,,,,,,,,,,,,276.89199999702396,,response,,,,100,,,,,,,Space,keypress(Space),,,,,,,,-- --- ---- --- ------ ----- ------- ---- -- --- ------- --<br>------- ---------- ------ -- ----- -- ----- -- ---- ------<br>--- ----- --- --- ------ -------- ----- --- ------ ----- --<br>----- ----- ---------- --- --- ------ ------ ---- -- ------<br>------- --- ------ ----- --- ---- ------- an ---- --- --<br>------- ------,201068.09999999776,201062.79999999702,200769.242,200774.69999999925,200785.908,201069.23,,50,an
screen,html.Screen,2_1_1_1_51,2022-02-01T13:05:37.970Z,,,,,,,,,,,,,,,,,54,,,,,,,,,,,,,,280.1699999984994,,response,,,,100,,,,,,,Space,keypress(Space),,,,,,,,-- --- ---- --- ------ ----- ------- ---- -- --- ------- --<br>------- ---------- ------ -- ----- -- ----- -- ---- ------<br>--- ----- --- --- ------ -------- ----- --- ------ ----- --<br>----- ----- ---------- --- --- ------ ------ ---- -- ------<br>------- --- ------ ----- --- ---- ------- -- easy --- --<br>------- ------,201353.69999999925,201349.3999999985,201052.564,201068.19999999925,201069.23,201369.218,,51,easy
screen,html.Screen,2_1_1_1_52,2022-02-01T13:05:38.315Z,,,,,,,,,,,,,,,,,54,,,,,,,,,,,,,,324.2820000000065,,response,,,,100,,,,,,,Space,keypress(Space),,,,,,,,-- --- ---- --- ------ ----- ------- ---- -- --- ------- --<br>------- ---------- ------ -- ----- -- ----- -- ---- ------<br>--- ----- --- --- ------ -------- ----- --- ------ ----- --<br>----- ----- ---------- --- --- ------ ------ ---- -- ------<br>------- --- ------ ----- --- ---- ------- -- ---- way --<br>------- ------,201698,201693.5,201352.552,201353.79999999702,201369.218,201702.538,,52,way
screen,html.Screen,2_1_1_1_53,2022-02-01T13:05:38.567Z,,,,,,,,,,,,,,,,,54,,,,,,,,,,,,,,243.2619999970193,,response,,,,100,,,,,,,Space,keypress(Space),,,,,,,,-- --- ---- --- ------ ----- ------- ---- -- --- ------- --<br>------- ---------- ------ -- ----- -- ----- -- ---- ------<br>--- ----- --- --- ------ -------- ----- --- ------ ----- --<br>----- ----- ---------- --- --- ------ ------ ---- -- ------<br>------- --- ------ ----- --- ---- ------- -- ---- --- of<br>------- ------,201950.5,201945.79999999702,201685.872,201698.09999999776,201702.538,201952.793,,53,of
screen,html.Screen,2_1_1_1_54,2022-02-01T13:05:38.999Z,,,,,,,,,,,,,,,,,54,,,,,,,,,,,,,,424.9069999992498,,response,,,,100,,,,,,,Space,keypress(Space),,,,,,,,-- --- ---- --- ------ ----- ------- ---- -- --- ------- --<br>------- ---------- ------ -- ----- -- ----- -- ---- ------<br>--- ----- --- --- ------ -------- ----- --- ------ ----- --<br>----- ----- ---------- --- --- ------ ------ ---- -- ------<br>------- --- ------ ----- --- ---- ------- -- ---- --- --<br>raising ------,202382.29999999702,202377.69999999925,201936.127,201950.59999999776,201952.793,202386.109,,54,raising
screen,html.Screen,2_1_1_1_55,2022-02-01T13:05:39.399Z,,,,,,,,,,,,,,,,,54,,,,,,,,,,,,,,391.4909999977681,,response,,,,100,,,,,,,Space,keypress(Space),,,,,,,,-- --- ---- --- ------ ----- ------- ---- -- --- ------- --<br>------- ---------- ------ -- ----- -- ----- -- ---- ------<br>--- ----- --- --- ------ -------- ----- --- ------ ----- --<br>----- ----- ---------- --- --- ------ ------ ---- -- ------<br>------- --- ------ ----- --- ---- ------- -- ---- --- --<br>------- money.,202782.29999999702,202777.59999999776,202369.443,202382.3999999985,202386.109,202786.093,,55,money.
Item 100,flow.Loop,2_1_1_1,2022-02-01T13:05:39.399Z,,,,,,,,,,,,,,,,,,,,,,,,,,,,,,,21874.773999997764,,completion,,,,,C,,,,,,,,,,,silence,,,,,202782.3999999985,202777.59999999776,180886.16,180887.29999999702,180902.826,202786.093,,,
Question 1,html.Screen,2_1_1_2,2022-02-01T13:05:43.045Z,,,,,,,,,,,,,,,,,,,,,,,,,,,,true,TRUE,,3622.5069999977713,,response,,,,100,C,,,,,,TRUE,click #choice-1,,,,silence,,,,,206428.09999999776,206408.59999999776,202769.427,202782.3999999985,202786.093,206435.947,,,
Question 2,html.Screen,2_1_1_3,2022-02-01T13:05:46.834Z,,,,,,,,,,,,,,,,,,,,,,,,,,,,false,FALSE,,3764.4529999985243,,response,,,,100,C,,,,,,TRUE,click #choice-1,,,,silence,,,,,210217.69999999925,210200.3999999985,206419.281,206428.29999999702,206435.947,210219.129,,,
Item 100,flow.Sequence,2_1_1,2022-02-01T13:05:46.835Z,,,,,,,,,,,,,,,,,,,,,,,,,,,,,,,39297.43699999852,,completion,,,,,,,,,,,,,,,,,,,,,210217.79999999702,210200.3999999985,170886.297,170901.09999999776,170902.963,210219.129,,,
End of Practice,html.Page,2_1_2,2022-02-01T13:05:51.748Z,,,,,,,,,,,,,,,,,,,,,,,,,,,,,,,4911.6709999970335,,form submission,,,,,,,,,,,,,,,,,,,,,215131,215130.79999999702,210202.463,210217.8999999985,210219.129,215135.941,,,
Practice,flow.Sequence,2_1,2022-02-01T13:05:51.748Z,,,,,,,,,,,,,,,,,,,,,,,,,,,,,,,86511.08999999701,,completion,,,,,,,,,,,,,,,,,,,,,215131.19999999925,215130.79999999702,128603.044,128608.09999999776,128619.71,215135.941,,,
Trap_instruction,html.Page,2_2_0,2022-02-01T13:05:57.424Z,,,,,,,,,,,,,,,,,,,,,,,,,,,,,,,5670.758999999263,,form submission,,,,,,,,,,,,,,,,,,,,,220806.79999999702,220806.69999999925,215119.275,215131.29999999702,215135.941,220819.047,,,
trap_trial,html.Screen,2_2_1,2022-02-01T13:06:00.675Z,,,,,,,,,,,,,,,,,,,,,,,,,,,,true,1,,3220.0529999977734,,response,,,,,,,,,,,1,click #choice-1,,,,,,,,,224058.29999999702,224039.09999999776,220802.381,220806.8999999985,220819.047,224068.917,,,
end of trap trial,html.Page,2_2_2,2022-02-01T13:06:02.450Z,,,,,,,,,,,,,,,,,,,,,,,,,,,,,,,1763.682999997778,,form submission,,,,,,,,,,,,,,,,,,,,,225832.79999999702,225832.59999999776,224052.251,224058.3999999985,224068.917,225835.791,,,
Trap 1,flow.Sequence,2_2,2022-02-01T13:06:02.450Z,,,,,,,,,,,,,,,,,,,,,,,,,,,,,,,10696.658999997773,,completion,,,,,,,,,,,,,,,,,,,,,225832.8999999985,225832.59999999776,215119.275,215131.19999999925,215135.941,225835.791,,,
Standby,html.Page,2_3_0,2022-02-01T13:06:10.438Z,,,,,,,,,,,,,,,,,,,,,,,,,,,,,,,7999.679999999993,,timeout,,,,,,,,,,,,,,,,,,,,,233821.09999999776,233818.805,225819.125,225833,225835.791,233835.471,,,
Holding screen,html.Screen,2_3_1_0_0,2022-02-01T13:06:17.438Z,,,,,,,,,,,,,,,,,,,,,,,,,,,,,,,7000.001000000018,,timeout,,,,,,,,,,,,,,,,,,,,,240820.8999999985,240818.806,233818.805,233821.3999999985,233835.471,240835.472,,,
screen,html.Screen,2_3_1_0_1_0,2022-02-01T13:06:18.282Z,,,,,,,,,,,,,,,,,2,,,,,,,,,,,,,,823.5279999999912,,response,,,,1,C,,,,,,Space,keypress(Space),,,,instrumental,,,,Two ---- ------ --- ------- ---------- ------- ----------<br>--- --------- --- ----------- ------- ----- ------- ---<br>--------- ---- -- --- ---- -- --------- -- ---- -------<br>-- --------- ------ --- ----- ------ ---- --- --------- --<br>------ - ---- -- --- ----------- ------- ---- ----- -----<br>--- -------- - ------ ---- -- ----- ---- --- --- -----------<br>-- -------,241665,241659,240818.806,240821.09999999776,240835.472,241668.772,,0,Two
screen,html.Screen,2_3_1_0_1_1,2022-02-01T13:06:18.753Z,,,,,,,,,,,,,,,,,2,,,,,,,,,,,,,,462.2280000000028,,response,,,,1,C,,,,,,Space,keypress(Space),,,,instrumental,,,,--- days ------ --- ------- ---------- ------- ----------<br>--- --------- --- ----------- ------- ----- ------- ---<br>--------- ---- -- --- ---- -- --------- -- ---- -------<br>-- --------- ------ --- ----- ------ ---- --- --------- --<br>------ - ---- -- --- ----------- ------- ---- ----- -----<br>--- -------- - ------ ---- -- ----- ---- --- --- -----------<br>-- -------,242135.59999999776,242131,241652.106,241665.09999999776,241668.772,242152.086,,1,days
screen,html.Screen,2_3_1_0_1_2,2022-02-01T13:06:19.606Z,,,,,,,,,,,,,,,,,2,,,,,,,,,,,,,,832.0139999977546,,response,,,,1,C,,,,,,Space,keypress(Space),,,,instrumental,,,,"--- ---- later, --- ------- ---------- ------- ----------<br>--- --------- --- ----------- ------- ----- ------- ---<br>--------- ---- -- --- ---- -- --------- -- ---- -------<br>-- --------- ------ --- ----- ------ ---- --- --------- --<br>------ - ---- -- --- ----------- ------- ---- ----- -----<br>--- -------- - ------ ---- -- ----- ---- --- --- -----------<br>-- -------",242988.59999999776,242984.09999999776,242135.42,242135.59999999776,242152.086,243002.052,,2,"later,"
screen,html.Screen,2_3_1_0_1_3,2022-02-01T13:06:20.023Z,,,,,,,,,,,,,,,,,2,,,,,,,,,,,,,,398.84799999851384,,response,,,,1,C,,,,,,Space,keypress(Space),,,,instrumental,,,,--- ---- ------ the ------- ---------- ------- ----------<br>--- --------- --- ----------- ------- ----- ------- ---<br>--------- ---- -- --- ---- -- --------- -- ---- -------<br>-- --------- ------ --- ----- ------ ---- --- --------- --<br>------ - ---- -- --- ----------- ------- ---- ----- -----<br>--- -------- - ------ ---- -- ----- ---- --- --- -----------<br>-- -------,243405.59999999776,243400.8999999985,242985.386,242988.69999999925,243002.052,243418.702,,3,the
screen,html.Screen,2_3_1_0_1_4,2022-02-01T13:06:20.252Z,,,,,,,,,,,,,,,,,2,,,,,,,,,,,,,,212.29800000000978,,response,,,,1,C,,,,,,Space,keypress(Space),,,,instrumental,,,,--- ---- ------ --- British ---------- ------- ----------<br>--- --------- --- ----------- ------- ----- ------- ---<br>--------- ---- -- --- ---- -- --------- -- ---- -------<br>-- --------- ------ --- ----- ------ ---- --- --------- --<br>------ - ---- -- --- ----------- ------- ---- ----- -----<br>--- -------- - ------ ---- -- ----- ---- --- --- -----------<br>-- -------,243635.29999999702,243631,243402.036,243405.69999999925,243418.702,243652.026,,4,British
screen,html.Screen,2_3_1_0_1_5,2022-02-01T13:06:20.493Z,,,,,,,,,,,,,,,,,2,,,,,,,,,,,,,,219.8739999984973,,response,,,,1,C,,,,,,Space,keypress(Space),,,,instrumental,,,,--- ---- ------ --- ------- astronomer ------- ----------<br>--- --------- --- ----------- ------- ----- ------- ---<br>--------- ---- -- --- ---- -- --------- -- ---- -------<br>-- --------- ------ --- ----- ------ ---- --- --------- --<br>------ - ---- -- --- ----------- ------- ---- ----- -----<br>--- -------- - ------ ---- -- ----- ---- --- --- -----------<br>-- -------,243875.69999999925,243871.8999999985,243635.36,243635.3999999985,243652.026,243885.35,,5,astronomer
screen,html.Screen,2_3_1_0_1_6,2022-02-01T13:06:20.713Z,,,,,,,,,,,,,,,,,2,,,,,,,,,,,,,,205.54999999850406,,response,,,,1,C,,,,,,Space,keypress(Space),,,,instrumental,,,,--- ---- ------ --- ------- ---------- Richard ----------<br>--- --------- --- ----------- ------- ----- ------- ---<br>--------- ---- -- --- ---- -- --------- -- ---- -------<br>-- --------- ------ --- ----- ------ ---- --- --------- --<br>------ - ---- -- --- ----------- ------- ---- ----- -----<br>--- -------- - ------ ---- -- ----- ---- --- --- -----------<br>-- -------,244095.69999999925,244090.8999999985,243868.684,243875.79999999702,243885.35,244102.008,,6,Richard
screen,html.Screen,2_3_1_0_1_7,2022-02-01T13:06:21.632Z,,,,,,,,,,,,,,,,,2,,,,,,,,,,,,,,908.7919999970181,,response,,,,1,C,,,,,,Space,keypress(Space),,,,instrumental,,,,--- ---- ------ --- ------- ---------- ------- Carrington<br>--- --------- --- ----------- ------- ----- ------- ---<br>--------- ---- -- --- ---- -- --------- -- ---- -------<br>-- --------- ------ --- ----- ------ ---- --- --------- --<br>------ - ---- -- --- ----------- ------- ---- ----- -----<br>--- -------- - ------ ---- -- ----- ---- --- --- -----------<br>-- -------,245015.3999999985,245010.79999999702,244085.342,244095.69999999925,244102.008,245018.638,,7,Carrington
screen,html.Screen,2_3_1_0_1_8,2022-02-01T13:06:22.159Z,,,,,,,,,,,,,,,,,2,,,,,,,,,,,,,,518.1619999970135,,response,,,,1,C,,,,,,Space,keypress(Space),,,,instrumental,,,,--- ---- ------ --- ------- ---------- ------- ----------<br>was --------- --- ----------- ------- ----- ------- ---<br>--------- ---- -- --- ---- -- --------- -- ---- -------<br>-- --------- ------ --- ----- ------ ---- --- --------- --<br>------ - ---- -- --- ----------- ------- ---- ----- -----<br>--- -------- - ------ ---- -- ----- ---- --- --- -----------<br>-- -------,245542,245536.79999999702,245001.972,245015.59999999776,245018.638,245551.95,,8,was
screen,html.Screen,2_3_1_0_1_9,2022-02-01T13:06:22.612Z,,,,,,,,,,,,,,,,,2,,,,,,,,,,,,,,439.1499999977532,,response,,,,1,C,,,,,,Space,keypress(Space),,,,instrumental,,,,--- ---- ------ --- ------- ---------- ------- ----------<br>--- observing --- ----------- ------- ----- ------- ---<br>--------- ---- -- --- ---- -- --------- -- ---- -------<br>-- --------- ------ --- ----- ------ ---- --- --------- --<br>------ - ---- -- --- ----------- ------- ---- ----- -----<br>--- -------- - ------ ---- -- ----- ---- --- --- -----------<br>-- -------,245995.5,245991.09999999776,245535.284,245542,245551.95,246001.932,,9,observing
screen,html.Screen,2_3_1_0_1_10,2022-02-01T13:06:22.877Z,,,,,,,,,,,,,,,,,2,,,,,,,,,,,,,,252.96799999850919,,response,,,,1,C,,,,,,Space,keypress(Space),,,,instrumental,,,,--- ---- ------ --- ------- ---------- ------- ----------<br>--- --------- the ----------- ------- ----- ------- ---<br>--------- ---- -- --- ---- -- --------- -- ---- -------<br>-- --------- ------ --- ----- ------ ---- --- --------- --<br>------ - ---- -- --- ----------- ------- ---- ----- -----<br>--- -------- - ------ ---- -- ----- ---- --- --- -----------<br>-- -------,246259.5,246254.8999999985,245985.266,245995.59999999776,246001.932,246268.588,,10,the
screen,html.Screen,2_3_1_0_1_11,2022-02-01T13:06:23.257Z,,,,,,,,,,,,,,,,,2,,,,,,,,,,,,,,367.1119999992661,,response,,,,1,C,,,,,,Space,keypress(Space),,,,instrumental,,,,--- ---- ------ --- ------- ---------- ------- ----------<br>--- --------- --- interesting ------- ----- ------- ---<br>--------- ---- -- --- ---- -- --------- -- ---- -------<br>-- --------- ------ --- ----- ------ ---- --- --------- --<br>------ - ---- -- --- ----------- ------- ---- ----- -----<br>--- -------- - ------ ---- -- ----- ---- --- --- -----------<br>-- -------,246640.09999999776,246635.69999999925,246251.922,246259.59999999776,246268.588,246652.172,,11,interesting
screen,html.Screen,2_3_1_0_1_12,2022-02-01T13:06:23.529Z,,,,,,,,,,,,,,,,,2,,,,,,,,,,,,,,255.7279999985185,,response,,,,1,C,,,,,,Space,keypress(Space),,,,instrumental,,,,--- ---- ------ --- ------- ---------- ------- ----------<br>--- --------- --- ----------- sunspot ----- ------- ---<br>--------- ---- -- --- ---- -- --------- -- ---- -------<br>-- --------- ------ --- ----- ------ ---- --- --------- --<br>------ - ---- -- --- ----------- ------- ---- ----- -----<br>--- -------- - ------ ---- -- ----- ---- --- --- -----------<br>-- -------,246912.5,246907.8999999985,246635.506,246640.19999999925,246652.172,246918.828,,12,sunspot
screen,html.Screen,2_3_1_0_1_13,2022-02-01T13:06:24.546Z,,,,,,,,,,,,,,,,,2,,,,,,,,,,,,,,1005.7719999977562,,response,,,,1,C,,,,,,Space,keypress(Space),,,,instrumental,,,,--- ---- ------ --- ------- ---------- ------- ----------<br>--- --------- --- ----------- ------- group ------- ---<br>--------- ---- -- --- ---- -- --------- -- ---- -------<br>-- --------- ------ --- ----- ------ ---- --- --------- --<br>------ - ---- -- --- ----------- ------- ---- ----- -----<br>--- -------- - ------ ---- -- ----- ---- --- --- -----------<br>-- -------,247929.19999999925,247924.59999999776,246902.162,246912.5,246918.828,247935.454,,13,group
screen,html.Screen,2_3_1_0_1_14,2022-02-01T13:06:24.955Z,,,,,,,,,,,,,,,,,2,,,,,,,,,,,,,,398.24599999925704,,response,,,,1,C,,,,,,Space,keypress(Space),,,,instrumental,,,,--- ---- ------ --- ------- ---------- ------- ----------<br>--- --------- --- ----------- ------- ----- through ---<br>--------- ---- -- --- ---- -- --------- -- ---- -------<br>-- --------- ------ --- ----- ------ ---- --- --------- --<br>------ - ---- -- --- ----------- ------- ---- ----- -----<br>--- -------- - ------ ---- -- ----- ---- --- --- -----------<br>-- -------,248338.29999999702,248333.69999999925,247918.788,247929.19999999925,247935.454,248352.104,,14,through
screen,html.Screen,2_3_1_0_1_15,2022-02-01T13:06:25.348Z,,,,,,,,,,,,,,,,,2,,,,,,,,,,,,,,374.59599999926286,,response,,,,1,C,,,,,,Space,keypress(Space),,,,instrumental,,,,--- ---- ------ --- ------- ---------- ------- ----------<br>--- --------- --- ----------- ------- ----- ------- his<br>--------- ---- -- --- ---- -- --------- -- ---- -------<br>-- --------- ------ --- ----- ------ ---- --- --------- --<br>------ - ---- -- --- ----------- ------- ---- ----- -----<br>--- -------- - ------ ---- -- ----- ---- --- --- -----------<br>-- -------,248731.29999999702,248726.69999999925,248335.438,248338.3999999985,248352.104,248735.422,,15,his
screen,html.Screen,2_3_1_0_1_16,2022-02-01T13:06:25.757Z,,,,,,,,,,,,,,,,,2,,,,,,,,,,,,,,400.27799999926356,,response,,,,1,C,,,,,,Space,keypress(Space),,,,instrumental,,,,--- ---- ------ --- ------- ---------- ------- ----------<br>--- --------- --- ----------- ------- ----- ------- ---<br>telescope ---- -- --- ---- -- --------- -- ---- -------<br>-- --------- ------ --- ----- ------ ---- --- --------- --<br>------ - ---- -- --- ----------- ------- ---- ----- -----<br>--- -------- - ------ ---- -- ----- ---- --- --- -----------<br>-- -------,249140.5,249135.69999999925,248718.756,248731.3999999985,248735.422,249152.072,,16,telescope
screen,html.Screen,2_3_1_0_1_17,2022-02-01T13:06:26.615Z,,,,,,,,,,,,,,,,,2,,,,,,,,,,,,,,841.5279999977793,,response,,,,1,C,,,,,,Space,keypress(Space),,,,instrumental,,,,--- ---- ------ --- ------- ---------- ------- ----------<br>--- --------- --- ----------- ------- ----- ------- ---<br>--------- when -- --- ---- -- --------- -- ---- -------<br>-- --------- ------ --- ----- ------ ---- --- --------- --<br>------ - ---- -- --- ----------- ------- ---- ----- -----<br>--- -------- - ------ ---- -- ----- ---- --- --- -----------<br>-- -------,249998.3999999985,249993.59999999776,249135.406,249140.59999999776,249152.072,250002.038,,17,when
screen,html.Screen,2_3_1_0_1_18,2022-02-01T13:06:27.001Z,,,,,,,,,,,,,,,,,2,,,,,,,,,,,,,,377.7619999970193,,response,,,,1,C,,,,,,Space,keypress(Space),,,,instrumental,,,,--- ---- ------ --- ------- ---------- ------- ----------<br>--- --------- --- ----------- ------- ----- ------- ---<br>--------- ---- he --- ---- -- --------- -- ---- -------<br>-- --------- ------ --- ----- ------ ---- --- --------- --<br>------ - ---- -- --- ----------- ------- ---- ----- -----<br>--- -------- - ------ ---- -- ----- ---- --- --- -----------<br>-- -------,250384.29999999702,250379.79999999702,249985.372,249998.3999999985,250002.038,250402.022,,18,he
screen,html.Screen,2_3_1_0_1_19,2022-02-01T13:06:27.886Z,,,,,,,,,,,,,,,,,2,,,,,,,,,,,,,,862.6779999992577,,response,,,,1,C,,,,,,Space,keypress(Space),,,,instrumental,,,,--- ---- ------ --- ------- ---------- ------- ----------<br>--- --------- --- ----------- ------- ----- ------- ---<br>--------- ---- -- saw ---- -- --------- -- ---- -------<br>-- --------- ------ --- ----- ------ ---- --- --------- --<br>------ - ---- -- --- ----------- ------- ---- ----- -----<br>--- -------- - ------ ---- -- ----- ---- --- --- -----------<br>-- -------,251269.3999999985,251264.69999999925,250385.356,250384.3999999985,250402.022,251285.32,,19,saw
screen,html.Screen,2_3_1_0_1_20,2022-02-01T13:06:28.230Z,,,,,,,,,,,,,,,,,2,,,,,,,,,,,,,,322.27999999775784,,response,,,,1,C,,,,,,Space,keypress(Space),,,,instrumental,,,,--- ---- ------ --- ------- ---------- ------- ----------<br>--- --------- --- ----------- ------- ----- ------- ---<br>--------- ---- -- --- what -- --------- -- ---- -------<br>-- --------- ------ --- ----- ------ ---- --- --------- --<br>------ - ---- -- --- ----------- ------- ---- ----- -----<br>--- -------- - ------ ---- -- ----- ---- --- --- -----------<br>-- -------,251612.8999999985,251607.59999999776,251268.654,251269.5,251285.32,251618.64,,20,what
screen,html.Screen,2_3_1_0_1_21,2022-02-01T13:06:28.578Z,,,,,,,,,,,,,,,,,2,,,,,,,,,,,,,,336.95999999775086,,response,,,,1,C,,,,,,Space,keypress(Space),,,,instrumental,,,,--- ---- ------ --- ------- ---------- ------- ----------<br>--- --------- --- ----------- ------- ----- ------- ---<br>--------- ---- -- --- ---- he --------- -- ---- -------<br>-- --------- ------ --- ----- ------ ---- --- --------- --<br>------ - ---- -- --- ----------- ------- ---- ----- -----<br>--- -------- - ------ ---- -- ----- ---- --- --- -----------<br>-- -------,251960.69999999925,251955.59999999776,251601.974,251613,251618.64,251968.626,,21,he
screen,html.Screen,2_3_1_0_1_22,2022-02-01T13:06:28.851Z,,,,,,,,,,,,,,,,,2,,,,,,,,,,,,,,260.97399999777554,,response,,,,1,C,,,,,,Space,keypress(Space),,,,instrumental,,,,--- ---- ------ --- ------- ---------- ------- ----------<br>--- --------- --- ----------- ------- ----- ------- ---<br>--------- ---- -- --- ---- -- described -- ---- -------<br>-- --------- ------ --- ----- ------ ---- --- --------- --<br>------ - ---- -- --- ----------- ------- ---- ----- -----<br>--- -------- - ------ ---- -- ----- ---- --- --- -----------<br>-- -------,252234.09999999776,252229.59999999776,251951.96,251960.79999999702,251968.626,252235.282,,22,described
screen,html.Screen,2_3_1_0_1_23,2022-02-01T13:06:29.300Z,,,,,,,,,,,,,,,,,2,,,,,,,,,,,,,,443.3179999977583,,response,,,,1,C,,,,,,Space,keypress(Space),,,,instrumental,,,,--- ---- ------ --- ------- ---------- ------- ----------<br>--- --------- --- ----------- ------- ----- ------- ---<br>--------- ---- -- --- ---- -- --------- as ---- -------<br>-- --------- ------ --- ----- ------ ---- --- --------- --<br>------ - ---- -- --- ----------- ------- ---- ----- -----<br>--- -------- - ------ ---- -- ----- ---- --- --- -----------<br>-- -------,252683.19999999925,252678.59999999776,252218.616,252234.19999999925,252235.282,252685.264,,23,as
screen,html.Screen,2_3_1_0_1_24,2022-02-01T13:06:29.688Z,,,,,,,,,,,,,,,,,2,,,,,,,,,,,,,,380.43599999925937,,response,,,,1,C,,,,,,Space,keypress(Space),,,,instrumental,,,,"--- ---- ------ --- ------- ---------- ------- ----------<br>--- --------- --- ----------- ------- ----- ------- ---<br>--------- ---- -- --- ---- -- --------- -- ""two -------<br>-- --------- ------ --- ----- ------ ---- --- --------- --<br>------ - ---- -- --- ----------- ------- ---- ----- -----<br>--- -------- - ------ ---- -- ----- ---- --- --- -----------<br>-- -------",253070.5,253065.69999999925,252668.598,252683.29999999702,252685.264,253085.248,,24,"""two"
screen,html.Screen,2_3_1_0_1_25,2022-02-01T13:06:30.212Z,,,,,,,,,,,,,,,,,2,,,,,,,,,,,,,,505.15199999851757,,response,,,,1,C,,,,,,Space,keypress(Space),,,,instrumental,,,,--- ---- ------ --- ------- ---------- ------- ----------<br>--- --------- --- ----------- ------- ----- ------- ---<br>--------- ---- -- --- ---- -- --------- -- ---- patches<br>-- --------- ------ --- ----- ------ ---- --- --------- --<br>------ - ---- -- --- ----------- ------- ---- ----- -----<br>--- -------- - ------ ---- -- ----- ---- --- --- -----------<br>-- -------,253594.79999999702,253590.3999999985,253068.582,253070.5,253085.248,253601.894,,25,patches
screen,html.Screen,2_3_1_0_1_26,2022-02-01T13:06:30.563Z,,,,,,,,,,,,,,,,,2,,,,,,,,,,,,,,339.7059999977646,,response,,,,1,C,,,,,,Space,keypress(Space),,,,instrumental,,,,--- ---- ------ --- ------- ---------- ------- ----------<br>--- --------- --- ----------- ------- ----- ------- ---<br>--------- ---- -- --- ---- -- --------- -- ---- -------<br>of --------- ------ --- ----- ------ ---- --- --------- --<br>------ - ---- -- --- ----------- ------- ---- ----- -----<br>--- -------- - ------ ---- -- ----- ---- --- --- -----------<br>-- -------,253946.29999999702,253941.59999999776,253585.228,253594.8999999985,253601.894,253951.88,,26,of
screen,html.Screen,2_3_1_0_1_27,2022-02-01T13:06:30.950Z,,,,,,,,,,,,,,,,,2,,,,,,,,,,,,,,376.61999999999534,,response,,,,1,C,,,,,,Space,keypress(Space),,,,instrumental,,,,--- ---- ------ --- ------- ---------- ------- ----------<br>--- --------- --- ----------- ------- ----- ------- ---<br>--------- ---- -- --- ---- -- --------- -- ---- -------<br>-- intensely ------ --- ----- ------ ---- --- --------- --<br>------ - ---- -- --- ----------- ------- ---- ----- -----<br>--- -------- - ------ ---- -- ----- ---- --- --- -----------<br>-- -------,254333.19999999925,254328.5,253935.214,253946.3999999985,253951.88,254335.198,,27,intensely
screen,html.Screen,2_3_1_0_1_28,2022-02-01T13:06:31.374Z,,,,,,,,,,,,,,,,,2,,,,,,,,,,,,,,417.30199999999604,,response,,,,1,C,,,,,,Space,keypress(Space),,,,instrumental,,,,--- ---- ------ --- ------- ---------- ------- ----------<br>--- --------- --- ----------- ------- ----- ------- ---<br>--------- ---- -- --- ---- -- --------- -- ---- -------<br>-- --------- bright --- ----- ------ ---- --- --------- --<br>------ - ---- -- --- ----------- ------- ---- ----- -----<br>--- -------- - ------ ---- -- ----- ---- --- --- -----------<br>-- -------,254757.19999999925,254752.5,254318.532,254333.29999999702,254335.198,254768.514,,28,bright
screen,html.Screen,2_3_1_0_1_29,2022-02-01T13:06:31.703Z,,,,,,,,,,,,,,,,,2,,,,,,,,,,,,,,313.18599999925937,,response,,,,1,C,,,,,,Space,keypress(Space),,,,instrumental,,,,--- ---- ------ --- ------- ---------- ------- ----------<br>--- --------- --- ----------- ------- ----- ------- ---<br>--------- ---- -- --- ---- -- --------- -- ---- -------<br>-- --------- ------ and ----- ------ ---- --- --------- --<br>------ - ---- -- --- ----------- ------- ---- ----- -----<br>--- -------- - ------ ---- -- ----- ---- --- --- -----------<br>-- -------,255086.29999999702,255081.69999999925,254751.848,254757.3999999985,254768.514,255101.834,,29,and
screen,html.Screen,2_3_1_0_1_30,2022-02-01T13:06:32.008Z,,,,,,,,,,,,,,,,,2,,,,,,,,,,,,,,284.4659999970172,,response,,,,1,C,,,,,,Space,keypress(Space),,,,instrumental,,,,--- ---- ------ --- ------- ---------- ------- ----------<br>--- --------- --- ----------- ------- ----- ------- ---<br>--------- ---- -- --- ---- -- --------- -- ---- -------<br>-- --------- ------ --- white ------ ---- --- --------- --<br>------ - ---- -- --- ----------- ------- ---- ----- -----<br>--- -------- - ------ ---- -- ----- ---- --- --- -----------<br>-- -------,255390.79999999702,255386.29999999702,255085.168,255086.29999999702,255101.834,255401.822,,30,white
screen,html.Screen,2_3_1_0_1_31,2022-02-01T13:06:32.341Z,,,,,,,,,,,,,,,,,2,,,,,,,,,,,,,,317.67800000001444,,response,,,,1,C,,,,,,Space,keypress(Space),,,,instrumental,,,,"--- ---- ------ --- ------- ---------- ------- ----------<br>--- --------- --- ----------- ------- ----- ------- ---<br>--------- ---- -- --- ---- -- --------- -- ---- -------<br>-- --------- ------ --- ----- light"" ---- --- --------- --<br>------ - ---- -- --- ----------- ------- ---- ----- -----<br>--- -------- - ------ ---- -- ----- ---- --- --- -----------<br>-- -------",255724.29999999702,255719.5,255385.156,255390.8999999985,255401.822,255735.142,,31,"light"""
screen,html.Screen,2_3_1_0_1_32,2022-02-01T13:06:32.868Z,,,,,,,,,,,,,,,,,2,,,,,,,,,,,,,,511.35800000000745,,response,,,,1,C,,,,,,Space,keypress(Space),,,,instrumental,,,,--- ---- ------ --- ------- ---------- ------- ----------<br>--- --------- --- ----------- ------- ----- ------- ---<br>--------- ---- -- --- ---- -- --------- -- ---- -------<br>-- --------- ------ --- ----- ------ over --- --------- --<br>------ - ---- -- --- ----------- ------- ---- ----- -----<br>--- -------- - ------ ---- -- ----- ---- --- --- -----------<br>-- -------,256251.09999999776,256246.5,255718.476,255724.29999999702,255735.142,256268.454,,32,over
screen,html.Screen,2_3_1_0_1_33,2022-02-01T13:06:33.170Z,,,,,,,,,,,,,,,,,2,,,,,,,,,,,,,,280.0460000000021,,response,,,,1,C,,,,,,Space,keypress(Space),,,,instrumental,,,,--- ---- ------ --- ------- ---------- ------- ----------<br>--- --------- --- ----------- ------- ----- ------- ---<br>--------- ---- -- --- ---- -- --------- -- ---- -------<br>-- --------- ------ --- ----- ------ ---- the --------- --<br>------ - ---- -- --- ----------- ------- ---- ----- -----<br>--- -------- - ------ ---- -- ----- ---- --- --- -----------<br>-- -------,256553.09999999776,256548.5,256251.788,256251.19999999925,256268.454,256568.442,,33,the
screen,html.Screen,2_3_1_0_1_34,2022-02-01T13:06:33.403Z,,,,,,,,,,,,,,,,,2,,,,,,,,,,,,,,212.95799999849987,,response,,,,1,C,,,,,,Space,keypress(Space),,,,instrumental,,,,--- ---- ------ --- ------- ---------- ------- ----------<br>--- --------- --- ----------- ------- ----- ------- ---<br>--------- ---- -- --- ---- -- --------- -- ---- -------<br>-- --------- ------ --- ----- ------ ---- --- sunspots. --<br>------ - ---- -- --- ----------- ------- ---- ----- -----<br>--- -------- - ------ ---- -- ----- ---- --- --- -----------<br>-- -------,256786.19999999925,256781.3999999985,256551.776,256553.19999999925,256568.442,256802.035,,34,sunspots.
screen,html.Screen,2_3_1_0_1_35,2022-02-01T13:06:34.228Z,,,,,,,,,,,,,,,,,2,,,,,,,,,,,,,,804.4649999999965,,response,,,,1,C,,,,,,Space,keypress(Space),,,,instrumental,,,,--- ---- ------ --- ------- ---------- ------- ----------<br>--- --------- --- ----------- ------- ----- ------- ---<br>--------- ---- -- --- ---- -- --------- -- ---- -------<br>-- --------- ------ --- ----- ------ ---- --- --------- He<br>------ - ---- -- --- ----------- ------- ---- ----- -----<br>--- -------- - ------ ---- -- ----- ---- --- --- -----------<br>-- -------,257611.3999999985,257606.5,256785.369,256786.19999999925,256802.035,257618.669,,35,He
screen,html.Screen,2_3_1_0_1_36,2022-02-01T13:06:34.493Z,,,,,,,,,,,,,,,,,2,,,,,,,,,,,,,,252.63099999702536,,response,,,,1,C,,,,,,Space,keypress(Space),,,,instrumental,,,,--- ---- ------ --- ------- ---------- ------- ----------<br>--- --------- --- ----------- ------- ----- ------- ---<br>--------- ---- -- --- ---- -- --------- -- ---- -------<br>-- --------- ------ --- ----- ------ ---- --- --------- --<br>jotted - ---- -- --- ----------- ------- ---- ----- -----<br>--- -------- - ------ ---- -- ----- ---- --- --- -----------<br>-- -------,257876.19999999925,257871.29999999702,257602.003,257611.3999999985,257618.669,257885.325,,36,jotted
screen,html.Screen,2_3_1_0_1_37,2022-02-01T13:06:34.890Z,,,,,,,,,,,,,,,,,2,,,,,,,,,,,,,,383.2749999977532,,response,,,,1,C,,,,,,Space,keypress(Space),,,,instrumental,,,,--- ---- ------ --- ------- ---------- ------- ----------<br>--- --------- --- ----------- ------- ----- ------- ---<br>--------- ---- -- --- ---- -- --------- -- ---- -------<br>-- --------- ------ --- ----- ------ ---- --- --------- --<br>------ a ---- -- --- ----------- ------- ---- ----- -----<br>--- -------- - ------ ---- -- ----- ---- --- --- -----------<br>-- -------,258273.09999999776,258268.59999999776,257868.659,257876.29999999702,257885.325,258285.309,,37,a
