sender,sender_type,sender_id,timestamp,meta,,Blues,Classical,Country,Dance,Electronic,Folk,Gospel,Hip-Hop,Jazz,Latin,Musical/Film,New-age,Pop,Prolific_id,Provo_ID,R&B,Rap,Reggae,Religious,Rock,Soul,Swing,Traditional,age,artist_name,correct,correctResponse,distraction,duration,education,ended_on,familiarity,gender,headphone_check_performance,item,list,music_frequency,offensiveness,pleasantness,position_correct,preference,response,response_action,snippet_file,song_name,song_rating,sound,stimulus_1,stimulus_2,stimulus_3,text,time_commit,time_end,time_render,time_run,time_show,time_switch,url,word,word_ID
Prolific ID,html.Form,0,2022-02-15T14:06:07.154Z,"{""labjs_version"":""20.2.2"",""labjs_build"":{""flavor"":""production"",""commit"":""a25486e0c714a0ae2ce03ff94b7bb6896854dcfa""},""location"":""https://run.pavlovia.org/mvasilev/prolific2_music_f/"",""userAgent"":""Mozilla/5.0 (Macintosh; Intel Mac OS X 10_15_7) AppleWebKit/537.36 (KHTML, like Gecko) Chrome/98.0.4758.80 Safari/537.36"",""platform"":""MacIntel"",""language"":""en-GB"",""locale"":""en-GB"",""timeZone"":""Europe/London"",""timezoneOffset"":0,""screen_width"":1440,""screen_height"":900,""scroll_width"":1440,""scroll_height"":773,""window_innerWidth"":1440,""window_innerHeight"":821,""devicePixelRatio"":2}",,,,,,,,,,,,,,,613f82fc82d93614c23ff1d7,,,,,,,,,,,,,,,12109.049999995528,,form submission,,,,,,,,,,,,,,,,,,,,,28628.39999999851,28627.69999999553,16501.984,16505.09999999404,16518.65,28634.832,{},,
Introduction,html.Screen,1_0,2022-02-15T14:06:28.815Z,,,,,,,,,,,,,,,,,,,,,,,,,,,,,,,21651.86799999553,,response,,,,,,,,,,,continue,click button,,,,,,,,,50289.79999999702,50286.69999999553,28618.166,28628.79999999702,28634.832,50300.632,,,
Volume calibration,html.Screen,1_1,2022-02-15T14:06:40.503Z,,,,,,,,,,,,,,,,,,,,,,,,,,,,,,,11669.967999994042,,response,,,,,,,,,,,continue,click button,,,,,,,,,61978.09999999404,61970.59999999404,50283.966,50290,50300.632,61983.498,,,
Task instructions,html.Screen,1_2,2022-02-15T14:06:45.530Z,,,,,,,,,,,,,,,,,,,,,,,,,,,,,,,5020.30199999702,,response,,,,,,,,,,,continue,click button,,,,,,,,,67005.29999999702,67003.79999999702,61966.832,61978.5,61983.498,67016.63,,,
Sounds,html.Screen,1_3_0_0,2022-02-15T14:06:49.780Z,,,,,,,,,,,,,,,,,,,,,,,,,,,,,,,4249.830000000002,,timeout,,,,,,,,,2,,,,,,,,O,S,I,,71255.09999999404,71249.794,66999.964,67005.69999999553,67016.63,71266.46,,,
Judgement,html.Screen,1_3_0_1,2022-02-15T14:06:50.816Z,,,,,,,,,,,,,,,,,,,,,,,,,,,,true,2,,1021.1399999940331,,response,,,,,,,,,2,,2,click #choice-2,,,,,O,S,I,,72291.29999999702,72287.59999999404,71249.794,71255.29999999702,71266.46,72299.752,,,
Trial,flow.Sequence,1_3_0,2022-02-15T14:06:50.816Z,,,,,,,,,,,,,,,,,,,,,,,,,,,,,,,5270.969999994035,,completion,,,,,,,,,2,,,,,,,,O,S,I,,72291.69999999553,72287.59999999404,66999.964,67005.69999999553,67016.63,72299.752,,,
Sounds,html.Screen,1_3_1_0,2022-02-15T14:06:55.061Z,,,,,,,,,,,,,,,,,,,,,,,,,,,,,,,4249.830000000002,,timeout,,,,,,,,,3,,,,,,,,O,I,S,,76536.19999999553,76532.916,72283.086,72291.79999999702,72299.752,76549.582,,,
Judgement,html.Screen,1_3_1_1,2022-02-15T14:06:55.650Z,,,,,,,,,,,,,,,,,,,,,,,,,,,,true,3,,571.317999998515,,response,,,,,,,,,3,,3,click #choice-3,,,,,O,I,S,,77125,77120.89999999851,76532.916,76536.5,76549.582,77132.892,,,
Trial,flow.Sequence,1_3_1,2022-02-15T14:06:55.650Z,,,,,,,,,,,,,,,,,,,,,,,,,,,,,,,4821.147999998517,,completion,,,,,,,,,3,,,,,,,,O,I,S,,77125.39999999851,77120.89999999851,72283.086,72291.79999999702,72299.752,77132.892,,,
Sounds,html.Screen,1_3_2_0,2022-02-15T14:06:59.893Z,,,,,,,,,,,,,,,,,,,,,,,,,,,,,,,4249.829999999987,,timeout,,,,,,,,,1,,,,,,,,S,I,O,,81368.79999999702,81366.056,77116.226,77125.5,77132.892,81382.722,,,
Judgement,html.Screen,1_3_2_1,2022-02-15T14:07:00.480Z,,,,,,,,,,,,,,,,,,,,,,,,,,,,true,1,,571.1779999985156,,response,,,,,,,,,1,,1,click #choice-1,,,,,S,I,O,,81955.69999999553,81953.89999999851,81366.056,81369.19999999553,81382.722,81966.032,,,
Trial,flow.Sequence,1_3_2,2022-02-15T14:07:00.481Z,,,,,,,,,,,,,,,,,,,,,,,,,,,,,,,4821.007999998503,,completion,,,,,,,,,1,,,,,,,,S,I,O,,81956.09999999404,81953.89999999851,77116.226,77125.5,77132.892,81966.032,,,
Sounds,html.Screen,1_3_3_0,2022-02-15T14:07:04.726Z,,,,,,,,,,,,,,,,,,,,,,,,,,,,,,,4249.829999999987,,timeout,,,,,,,,,2,,,,,,,,I,S,O,,86201.59999999404,86199.196,81949.366,81956.29999999702,81966.032,86215.862,,,
Judgement,html.Screen,1_3_3_1,2022-02-15T14:07:05.317Z,,,,,,,,,,,,,,,,,,,,,,,,,,,,true,2,,571.8379999955359,,response,,,,,,,,,2,,2,click #choice-2,,,,,I,S,O,,86792.69999999553,86787.69999999553,86199.196,86201.89999999851,86215.862,86799.172,,,
Trial,flow.Sequence,1_3_3,2022-02-15T14:07:05.317Z,,,,,,,,,,,,,,,,,,,,,,,,,,,,,,,4821.667999995523,,completion,,,,,,,,,2,,,,,,,,I,S,O,,86793,86787.69999999553,81949.366,81956.19999999553,81966.032,86799.172,,,
Sounds,html.Screen,1_3_4_0,2022-02-15T14:07:09.559Z,,,,,,,,,,,,,,,,,,,,,,,,,,,,,,,4249.829999999987,,timeout,,,,,,,,,3,,,,,,,,I,O,S,,91034.89999999851,91032.336,86782.506,86793.19999999553,86799.172,91049.002,,,
Judgement,html.Screen,1_3_4_1,2022-02-15T14:07:10.347Z,,,,,,,,,,,,,,,,,,,,,,,,,,,,true,3,,771.7979999970266,,response,,,,,,,,,3,,3,click #choice-3,,,,,I,O,S,,91822.79999999702,91820.79999999702,91032.336,91035.19999999553,91049.002,91832.304,,,
Trial,flow.Sequence,1_3_4,2022-02-15T14:07:10.347Z,,,,,,,,,,,,,,,,,,,,,,,,,,,,,,,5021.627999997014,,completion,,,,,,,,,3,,,,,,,,I,O,S,,91823.09999999404,91820.79999999702,86782.506,86793,86799.172,91832.304,,,
Sounds,html.Screen,1_3_5_0,2022-02-15T14:07:14.592Z,,,,,,,,,,,,,,,,,,,,,,,,,,,,,,,4249.830000000002,,timeout,,,,,,,,,1,,,,,,,,S,O,I,,96067.59999999404,96065.468,91815.638,91823.39999999851,91832.304,96082.134,,,
Judgement,html.Screen,1_3_5_1,2022-02-15T14:07:15.247Z,,,,,,,,,,,,,,,,,,,,,,,,,,,,true,1,,638.5659999955242,,response,,,,,,,,,1,,1,click #choice-1,,,,,S,O,I,,96722.79999999702,96720.69999999553,96065.468,96067.89999999851,96082.134,96732.108,,,
Trial,flow.Sequence,1_3_5,2022-02-15T14:07:15.247Z,,,,,,,,,,,,,,,,,,,,,,,,,,,,,,,4888.395999995526,,completion,,,,,,,,,1,,,,,,,,S,O,I,,96723,96720.69999999553,91815.638,91823.29999999702,91832.304,96732.108,,,
Task,flow.Loop,1_3,2022-02-15T14:07:15.253Z,,,,,,,,,,,,,,,,,,,,,,,,,,,,,,,29704.069999995525,,completion,,,1,,,,,,,,,,,,,,,,,,96729.19999999553,96720.69999999553,66999.964,67005.59999999404,67016.63,96732.108,,,
Trap,html.Screen,1_4,2022-02-15T14:07:15.255Z,,,,,,,,,,,,,,,,,,,,,,,,,,,,,,,NaN,,skipped,,,,,,,,,,,,,,,,,,,,,96730.5,96720.69999999553,,96730.29999999702,,96732.108,,,
Thanks,html.Screen,1_5,2022-02-15T14:07:19.333Z,,,,,,,,,,,,,,,,,,,,,,,,,,,,,,,4072.392000000007,,response,,,,,,,,,,,continue,click button,,,,,,,,,100808.79999999702,100804.5,96715.442,96730.59999999404,96732.108,103831.824,,,
Headphone screening,flow.Sequence,1,2022-02-15T14:07:19.333Z,,,,,,,,,,,,,,,,,,,,,,,,,,,,,,,72169.668,,completion,,,,,,,,,,,,,,,,,,,,,100809.09999999404,100804.5,28618.166,28628.79999999702,28634.832,103831.824,,,
Instructions,html.Page,2_0,2022-02-15T14:07:38.419Z,,,,,,,,,,,,,,,,,,,,,,,,,,,,,,,16062.676000000007,,form submission,,,,,,,,,,,,,,,,,,,,,119895.19999999553,119894.5,103815.158,103818.69999999553,103831.824,119897.848,,,
Holding screen,html.Screen,2_1_0_0,2022-02-15T14:07:48.406Z,,,,,,,,,,,,,,,,,,,,,,,,,,,,,,,9999.600000000006,,timeout,,,,,,,,,,,,,,,,,,,,,129883,129880.782,119881.182,119895.39999999851,119897.848,129897.448,,,
screen,html.Screen,2_1_0_1_0,2022-02-15T14:07:49.515Z,,,,,,,,,,,,,,,,,53,,,,,,,,,,,,,,1088.051999999996,,response,,,,99,,,,,,,Space,keypress(Space),,,,,,,,When -- ----- -- ------ - ------- --- ----------<br>------------- ------ ------ ---- ---- ------- ----- -- ----<br>-------- ------- -- ---------- --- - --- ----- ----- ----<br>---- --- --- ----- --- ---- ---- ------- ----- ---- -------<br>--- --- -- ----- -- --- ---- -- --- ---- -- ------ ------<br>--- ----- -- ----,130991.79999999702,130985.5,129880.782,129883.29999999702,129897.448,130997.404,,0,When
screen,html.Screen,2_1_0_1_1,2022-02-15T14:07:49.983Z,,,,,,,,,,,,,,,,,53,,,,,,,,,,,,,,458.8959999970248,,response,,,,99,,,,,,,Space,keypress(Space),,,,,,,,---- it ----- -- ------ - ------- --- ----------<br>------------- ------ ------ ---- ---- ------- ----- -- ----<br>-------- ------- -- ---------- --- - --- ----- ----- ----<br>---- --- --- ----- --- ---- ---- ------- ----- ---- -------<br>--- --- -- ----- -- --- ---- -- --- ---- -- ------ ------<br>--- ----- -- ----,131459.3999999985,131456.29999999702,130980.738,130992.09999999404,130997.404,131464.052,,1,it
screen,html.Screen,2_1_0_1_2,2022-02-15T14:07:50.575Z,,,,,,,,,,,,,,,,,53,,,,,,,,,,,,,,584.8479999985138,,response,,,,99,,,,,,,Space,keypress(Space),,,,,,,,---- -- comes -- ------ - ------- --- ----------<br>------------- ------ ------ ---- ---- ------- ----- -- ----<br>-------- ------- -- ---------- --- - --- ----- ----- ----<br>---- --- --- ----- --- ---- ---- ------- ----- ---- -------<br>--- --- -- ----- -- --- ---- -- --- ---- -- ------ ------<br>--- ----- -- ----,132051.5,132048.8999999985,131447.386,131461.09999999404,131464.052,132064.028,,2,comes
screen,html.Screen,2_1_0_1_3,2022-02-15T14:07:50.928Z,,,,,,,,,,,,,,,,,53,,,,,,,,,,,,,,337.0719999940484,,response,,,,99,,,,,,,Space,keypress(Space),,,,,,,,---- -- ----- to ------ - ------- --- ----------<br>------------- ------ ------ ---- ---- ------- ----- -- ----<br>-------- ------- -- ---------- --- - --- ----- ----- ----<br>---- --- --- ----- --- ---- ---- ------- ----- ---- -------<br>--- --- -- ----- -- --- ---- -- --- ---- -- ------ ------<br>--- ----- -- ----,132404.29999999702,132401.09999999404,132047.362,132051.8999999985,132064.028,132414.014,,3,to
screen,html.Screen,2_1_0_1_4,2022-02-15T14:07:51.334Z,,,,,,,,,,,,,,,,,53,,,,,,,,,,,,,,393.9860000000044,,response,,,,99,,,,,,,Space,keypress(Space),,,,,,,,---- -- ----- -- having - ------- --- ----------<br>------------- ------ ------ ---- ---- ------- ----- -- ----<br>-------- ------- -- ---------- --- - --- ----- ----- ----<br>---- --- --- ----- --- ---- ---- ------- ----- ---- -------<br>--- --- -- ----- -- --- ---- -- --- ---- -- ------ ------<br>--- ----- -- ----,132810.69999999553,132808,132397.348,132404.59999999404,132414.014,132813.998,,4,having
screen,html.Screen,2_1_0_1_5,2022-02-15T14:07:51.627Z,,,,,,,,,,,,,,,,,53,,,,,,,,,,,,,,286.40199999851757,,response,,,,99,,,,,,,Space,keypress(Space),,,,,,,,---- -- ----- -- ------ a ------- --- ----------<br>------------- ------ ------ ---- ---- ------- ----- -- ----<br>-------- ------- -- ---------- --- - --- ----- ----- ----<br>---- --- --- ----- --- ---- ---- ------- ----- ---- -------<br>--- --- -- ----- -- --- ---- -- --- ---- -- ------ ------<br>--- ----- -- ----,133103.09999999404,133100.3999999985,132797.332,132811.09999999404,132813.998,133113.986,,5,a
screen,html.Screen,2_1_0_1_6,2022-02-15T14:07:52.057Z,,,,,,,,,,,,,,,,,53,,,,,,,,,,,,,,417.0139999999956,,response,,,,99,,,,,,,Space,keypress(Space),,,,,,,,---- -- ----- -- ------ - lasting --- ----------<br>------------- ------ ------ ---- ---- ------- ----- -- ----<br>-------- ------- -- ---------- --- - --- ----- ----- ----<br>---- --- --- ----- --- ---- ---- ------- ----- ---- -------<br>--- --- -- ----- -- --- ---- -- --- ---- -- ------ ------<br>--- ----- -- ----,133533.8999999985,133531,133097.32,133103.19999999553,133113.986,133547.302,,6,lasting
screen,html.Screen,2_1_0_1_7,2022-02-15T14:07:52.530Z,,,,,,,,,,,,,,,,,53,,,,,,,,,,,,,,456.19800000000396,,response,,,,99,,,,,,,Space,keypress(Space),,,,,,,,---- -- ----- -- ------ - ------- and ----------<br>------------- ------ ------ ---- ---- ------- ----- -- ----<br>-------- ------- -- ---------- --- - --- ----- ----- ----<br>---- --- --- ----- --- ---- ---- ------- ----- ---- -------<br>--- --- -- ----- -- --- ---- -- --- ---- -- ------ ------<br>--- ----- -- ----,134006.3999999985,134003.5,133530.636,133534.29999999702,133547.302,134013.95,,7,and
screen,html.Screen,2_1_0_1_8,2022-02-15T14:07:52.894Z,,,,,,,,,,,,,,,,,53,,,,,,,,,,,,,,353.54999999998836,,response,,,,99,,,,,,,Space,keypress(Space),,,,,,,,---- -- ----- -- ------ - ------- --- fulfilling<br>------------- ------ ------ ---- ---- ------- ----- -- ----<br>-------- ------- -- ---------- --- - --- ----- ----- ----<br>---- --- --- ----- --- ---- ---- ------- ----- ---- -------<br>--- --- -- ----- -- --- ---- -- --- ---- -- ------ ------<br>--- ----- -- ----,134370.29999999702,134367.5,133997.284,134006.69999999553,134013.95,134380.602,,8,fulfilling
screen,html.Screen,2_1_0_1_9,2022-02-15T14:07:54.564Z,,,,,,,,,,,,,,,,,53,,,,,,,,,,,,,,1655.997999994026,,response,,,,99,,,,,,,Space,keypress(Space),,,,,,,,"---- -- ----- -- ------ - ------- --- ----------<br>relationship, ------ ------ ---- ---- ------- ----- -- ----<br>-------- ------- -- ---------- --- - --- ----- ----- ----<br>---- --- --- ----- --- ---- ---- ------- ----- ---- -------<br>--- --- -- ----- -- --- ---- -- --- ---- -- ------ ------<br>--- ----- -- ----",136040.19999999553,136036.59999999404,134363.936,134370.5,134380.602,136047.202,,9,"relationship,"
screen,html.Screen,2_1_0_1_10,2022-02-15T14:07:55.123Z,,,,,,,,,,,,,,,,,53,,,,,,,,,,,,,,548.9979999955394,,response,,,,99,,,,,,,Space,keypress(Space),,,,,,,,---- -- ----- -- ------ - ------- --- ----------<br>------------- common ------ ---- ---- ------- ----- -- ----<br>-------- ------- -- ---------- --- - --- ----- ----- ----<br>---- --- --- ----- --- ---- ---- ------- ----- ---- -------<br>--- --- -- ----- -- --- ---- -- --- ---- -- ------ ------<br>--- ----- -- ----,136599.19999999553,136596.19999999553,136030.536,136040.5,136047.202,136613.846,,10,common
screen,html.Screen,2_1_0_1_11,2022-02-15T14:07:55.637Z,,,,,,,,,,,,,,,,,53,,,,,,,,,,,,,,496.15400000000955,,response,,,,99,,,,,,,Space,keypress(Space),,,,,,,,---- -- ----- -- ------ - ------- --- ----------<br>------------- ------ wisdom ---- ---- ------- ----- -- ----<br>-------- ------- -- ---------- --- - --- ----- ----- ----<br>---- --- --- ----- --- ---- ---- ------- ----- ---- -------<br>--- --- -- ----- -- --- ---- -- --- ---- -- ------ ------<br>--- ----- -- ----,137113.3999999985,137110,136597.18,136599.59999999404,136613.846,137130.492,,11,wisdom
screen,html.Screen,2_1_0_1_12,2022-02-15T14:07:56.024Z,,,,,,,,,,,,,,,,,53,,,,,,,,,,,,,,366.7079999955313,,response,,,,99,,,,,,,Space,keypress(Space),,,,,,,,---- -- ----- -- ------ - ------- --- ----------<br>------------- ------ ------ says ---- ------- ----- -- ----<br>-------- ------- -- ---------- --- - --- ----- ----- ----<br>---- --- --- ----- --- ---- ---- ------- ----- ---- -------<br>--- --- -- ----- -- --- ---- -- --- ---- -- ------ ------<br>--- ----- -- ----,137500.5,137497.19999999553,137113.826,137113.69999999553,137130.492,137513.81,,12,says
screen,html.Screen,2_1_0_1_13,2022-02-15T14:07:56.395Z,,,,,,,,,,,,,,,,,53,,,,,,,,,,,,,,355.28999999404186,,response,,,,99,,,,,,,Space,keypress(Space),,,,,,,,---- -- ----- -- ------ - ------- --- ----------<br>------------- ------ ------ ---- that ------- ----- -- ----<br>-------- ------- -- ---------- --- - --- ----- ----- ----<br>---- --- --- ----- --- ---- ---- ------- ----- ---- -------<br>--- --- -- ----- -- --- ---- -- --- ---- -- ------ ------<br>--- ----- -- ----,137871.79999999702,137869.09999999404,137497.144,137500.59999999404,137513.81,137880.462,,13,that
screen,html.Screen,2_1_0_1_14,2022-02-15T14:07:56.702Z,,,,,,,,,,,,,,,,,53,,,,,,,,,,,,,,295.33799999702023,,response,,,,99,,,,,,,Space,keypress(Space),,,,,,,,---- -- ----- -- ------ - ------- --- ----------<br>------------- ------ ------ ---- ---- feeling ----- -- ----<br>-------- ------- -- ---------- --- - --- ----- ----- ----<br>---- --- --- ----- --- ---- ---- ------- ----- ---- -------<br>--- --- -- ----- -- --- ---- -- --- ---- -- ------ ------<br>--- ----- -- ----,138178.79999999702,138175.79999999702,137863.796,137872.19999999553,137880.462,138180.45,,14,feeling
screen,html.Screen,2_1_0_1_15,2022-02-15T14:07:57.216Z,,,,,,,,,,,,,,,,,53,,,,,,,,,,,,,,508.8499999970081,,response,,,,99,,,,,,,Space,keypress(Space),,,,,,,,---- -- ----- -- ------ - ------- --- ----------<br>------------- ------ ------ ---- ---- ------- close -- ----<br>-------- ------- -- ---------- --- - --- ----- ----- ----<br>---- --- --- ----- --- ---- ---- ------- ----- ---- -------<br>--- --- -- ----- -- --- ---- -- --- ---- -- ------ ------<br>--- ----- -- ----,138692.59999999404,138689.29999999702,138163.784,138179.09999999404,138180.45,138697.096,,15,close
screen,html.Screen,2_1_0_1_16,2022-02-15T14:07:57.632Z,,,,,,,,,,,,,,,,,53,,,,,,,,,,,,,,408.30399999851943,,response,,,,99,,,,,,,Space,keypress(Space),,,,,,,,---- -- ----- -- ------ - ------- --- ----------<br>------------- ------ ------ ---- ---- ------- ----- to ----<br>-------- ------- -- ---------- --- - --- ----- ----- ----<br>---- --- --- ----- --- ---- ---- ------- ----- ---- -------<br>--- --- -- ----- -- --- ---- -- --- ---- -- ------ ------<br>--- ----- -- ----,139108.3999999985,139105.3999999985,138680.43,138692.79999999702,138697.096,139113.746,,16,to
screen,html.Screen,2_1_0_1_17,2022-02-15T14:07:58.038Z,,,,,,,,,,,,,,,,,53,,,,,,,,,,,,,,397.9539999955159,,response,,,,99,,,,,,,Space,keypress(Space),,,,,,,,---- -- ----- -- ------ - ------- --- ----------<br>------------- ------ ------ ---- ---- ------- ----- -- your<br>-------- ------- -- ---------- --- - --- ----- ----- ----<br>---- --- --- ----- --- ---- ---- ------- ----- ---- -------<br>--- --- -- ----- -- --- ---- -- --- ---- -- ------ ------<br>--- ----- -- ----,139514.79999999702,139511.69999999553,139097.08,139108.8999999985,139113.746,139530.396,,17,your
screen,html.Screen,2_1_0_1_18,2022-02-15T14:07:58.855Z,,,,,,,,,,,,,,,,,53,,,,,,,,,,,,,,798.2039999940316,,response,,,,99,,,,,,,Space,keypress(Space),,,,,,,,---- -- ----- -- ------ - ------- --- ----------<br>------------- ------ ------ ---- ---- ------- ----- -- ----<br>romantic ------- -- ---------- --- - --- ----- ----- ----<br>---- --- --- ----- --- ---- ---- ------- ----- ---- -------<br>--- --- -- ----- -- --- ---- -- --- ---- -- ------ ------<br>--- ----- -- ----,140331.29999999702,140328.59999999404,139513.73,139515.09999999404,139530.396,140347.03,,18,romantic
screen,html.Screen,2_1_0_1_19,2022-02-15T14:07:59.296Z,,,,,,,,,,,,,,,,,53,,,,,,,,,,,,,,422.26999999702093,,response,,,,99,,,,,,,Space,keypress(Space),,,,,,,,---- -- ----- -- ------ - ------- --- ----------<br>------------- ------ ------ ---- ---- ------- ----- -- ----<br>-------- partner -- ---------- --- - --- ----- ----- ----<br>---- --- --- ----- --- ---- ---- ------- ----- ---- -------<br>--- --- -- ----- -- --- ---- -- --- ---- -- ------ ------<br>--- ----- -- ----,140772.3999999985,140769.29999999702,140330.364,140331.69999999553,140347.03,140780.346,,19,partner
screen,html.Screen,2_1_0_1_20,2022-02-15T14:07:59.675Z,,,,,,,,,,,,,,,,,53,,,,,,,,,,,,,,367.15400000000955,,response,,,,99,,,,,,,Space,keypress(Space),,,,,,,,---- -- ----- -- ------ - ------- --- ----------<br>------------- ------ ------ ---- ---- ------- ----- -- ----<br>-------- ------- is ---------- --- - --- ----- ----- ----<br>---- --- --- ----- --- ---- ---- ------- ----- ---- -------<br>--- --- -- ----- -- --- ---- -- --- ---- -- ------ ------<br>--- ----- -- ----,141151.29999999702,141147.5,140763.68,140772.69999999553,140780.346,141163.664,,20,is
screen,html.Screen,2_1_0_1_21,2022-02-15T14:07:59.937Z,,,,,,,,,,,,,,,,,53,,,,,,,,,,,,,,247.33600000001024,,response,,,,99,,,,,,,Space,keypress(Space),,,,,,,,---- -- ----- -- ------ - ------- --- ----------<br>------------- ------ ------ ---- ---- ------- ----- -- ----<br>-------- ------- -- paramount. --- - --- ----- ----- ----<br>---- --- --- ----- --- ---- ---- ------- ----- ---- -------<br>--- --- -- ----- -- --- ---- -- --- ---- -- ------ ------<br>--- ----- -- ----,141414.09999999404,141411,141146.998,141151.59999999404,141163.664,141430.32,,21,paramount.
screen,html.Screen,2_1_0_1_22,2022-02-15T14:08:00.407Z,,,,,,,,,,,,,,,,,53,,,,,,,,,,,,,,450.87999999552267,,response,,,,99,,,,,,,Space,keypress(Space),,,,,,,,---- -- ----- -- ------ - ------- --- ----------<br>------------- ------ ------ ---- ---- ------- ----- -- ----<br>-------- ------- -- ---------- But - --- ----- ----- ----<br>---- --- --- ----- --- ---- ---- ------- ----- ---- -------<br>--- --- -- ----- -- --- ---- -- --- ---- -- ------ ------<br>--- ----- -- ----,141884.09999999404,141881.19999999553,141413.654,141414.3999999985,141430.32,141896.968,,22,But
screen,html.Screen,2_1_0_1_23,2022-02-15T14:08:00.649Z,,,,,,,,,,,,,,,,,53,,,,,,,,,,,,,,226.4319999985164,,response,,,,99,,,,,,,Space,keypress(Space),,,,,,,,---- -- ----- -- ------ - ------- --- ----------<br>------------- ------ ------ ---- ---- ------- ----- -- ----<br>-------- ------- -- ---------- --- a --- ----- ----- ----<br>---- --- --- ----- --- ---- ---- ------- ----- ---- -------<br>--- --- -- ----- -- --- ---- -- --- ---- -- ------ ------<br>--- ----- -- ----,142126.09999999404,142123.3999999985,141880.302,141884.29999999702,141896.968,142130.292,,23,a
screen,html.Screen,2_1_0_1_24,2022-02-15T14:08:00.897Z,,,,,,,,,,,,,,,,,53,,,,,,,,,,,,,,241.40799999554292,,response,,,,99,,,,,,,Space,keypress(Space),,,,,,,,---- -- ----- -- ------ - ------- --- ----------<br>------------- ------ ------ ---- ---- ------- ----- -- ----<br>-------- ------- -- ---------- --- - new ----- ----- ----<br>---- --- --- ----- --- ---- ---- ------- ----- ---- -------<br>--- --- -- ----- -- --- ---- -- --- ---- -- ------ ------<br>--- ----- -- ----,142373.79999999702,142371.69999999553,142113.626,142126.29999999702,142130.292,142380.282,,24,new
screen,html.Screen,2_1_0_1_25,2022-02-15T14:08:01.301Z,,,,,,,,,,,,,,,,,53,,,,,,,,,,,,,,394.2179999999935,,response,,,,99,,,,,,,Space,keypress(Space),,,,,,,,---- -- ----- -- ------ - ------- --- ----------<br>------------- ------ ------ ---- ---- ------- ----- -- ----<br>-------- ------- -- ---------- --- - --- study ----- ----<br>---- --- --- ----- --- ---- ---- ------- ----- ---- -------<br>--- --- -- ----- -- --- ---- -- --- ---- -- ------ ------<br>--- ----- -- ----,142777.5,142774.5,142363.616,142374.09999999404,142380.282,142780.266,,25,study
screen,html.Screen,2_1_0_1_26,2022-02-15T14:08:01.611Z,,,,,,,,,,,,,,,,,53,,,,,,,,,,,,,,304.1339999985066,,response,,,,99,,,,,,,Space,keypress(Space),,,,,,,,---- -- ----- -- ------ - ------- --- ----------<br>------------- ------ ------ ---- ---- ------- ----- -- ----<br>-------- ------- -- ---------- --- - --- ----- finds ----<br>---- --- --- ----- --- ---- ---- ------- ----- ---- -------<br>--- --- -- ----- -- --- ---- -- --- ---- -- ------ ------<br>--- ----- -- ----,143087.3999999985,143084.3999999985,142763.6,142777.79999999702,142780.266,143096.92,,26,finds
screen,html.Screen,2_1_0_1_27,2022-02-15T14:08:01.937Z,,,,,,,,,,,,,,,,,53,,,,,,,,,,,,,,313.27999999551685,,response,,,,99,,,,,,,Space,keypress(Space),,,,,,,,---- -- ----- -- ------ - ------- --- ----------<br>------------- ------ ------ ---- ---- ------- ----- -- ----<br>-------- ------- -- ---------- --- - --- ----- ----- that<br>---- --- --- ----- --- ---- ---- ------- ----- ---- -------<br>--- --- -- ----- -- --- ---- -- --- ---- -- ------ ------<br>--- ----- -- ----,143413.5,143410.19999999553,143080.254,143087.79999999702,143096.92,143430.24,,27,that
screen,html.Screen,2_1_0_1_28,2022-02-15T14:08:02.420Z,,,,,,,,,,,,,,,,,53,,,,,,,,,,,,,,463.7600000000093,,response,,,,99,,,,,,,Space,keypress(Space),,,,,,,,---- -- ----- -- ------ - ------- --- ----------<br>------------- ------ ------ ---- ---- ------- ----- -- ----<br>-------- ------- -- ---------- --- - --- ----- ----- ----<br>it's --- --- ----- --- ---- ---- ------- ----- ---- -------<br>--- --- -- ----- -- --- ---- -- --- ---- -- ------ ------<br>--- ----- -- ----,143896.5,143894,143413.574,143413.79999999702,143430.24,143913.554,,28,it's
screen,html.Screen,2_1_0_1_29,2022-02-15T14:08:02.748Z,,,,,,,,,,,,,,,,,53,,,,,,,,,,,,,,308.6459999955259,,response,,,,99,,,,,,,Space,keypress(Space),,,,,,,,---- -- ----- -- ------ - ------- --- ----------<br>------------- ------ ------ ---- ---- ------- ----- -- ----<br>-------- ------- -- ---------- --- - --- ----- ----- ----<br>---- not --- ----- --- ---- ---- ------- ----- ---- -------<br>--- --- -- ----- -- --- ---- -- --- ---- -- ------ ------<br>--- ----- -- ----,144224.69999999553,144222.19999999553,143896.888,143896.69999999553,143913.554,144230.208,,29,not
screen,html.Screen,2_1_0_1_30,2022-02-15T14:08:03.014Z,,,,,,,,,,,,,,,,,53,,,,,,,,,,,,,,257.4919999955164,,response,,,,99,,,,,,,Space,keypress(Space),,,,,,,,---- -- ----- -- ------ - ------- --- ----------<br>------------- ------ ------ ---- ---- ------- ----- -- ----<br>-------- ------- -- ---------- --- - --- ----- ----- ----<br>---- --- how ----- --- ---- ---- ------- ----- ---- -------<br>--- --- -- ----- -- --- ---- -- --- ---- -- ------ ------<br>--- ----- -- ----,144490.29999999702,144487.69999999553,144213.542,144224.8999999985,144230.208,144496.864,,30,how
screen,html.Screen,2_1_0_1_31,2022-02-15T14:08:03.315Z,,,,,,,,,,,,,,,,,53,,,,,,,,,,,,,,292.23599999403814,,response,,,,99,,,,,,,Space,keypress(Space),,,,,,,,---- -- ----- -- ------ - ------- --- ----------<br>------------- ------ ------ ---- ---- ------- ----- -- ----<br>-------- ------- -- ---------- --- - --- ----- ----- ----<br>---- --- --- close --- ---- ---- ------- ----- ---- -------<br>--- --- -- ----- -- --- ---- -- --- ---- -- ------ ------<br>--- ----- -- ----,144791.8999999985,144789.09999999404,144480.198,144490.5,144496.864,144796.852,,31,close
screen,html.Screen,2_1_0_1_32,2022-02-15T14:08:03.651Z,,,,,,,,,,,,,,,,,53,,,,,,,,,,,,,,328.34799999551615,,response,,,,99,,,,,,,Space,keypress(Space),,,,,,,,---- -- ----- -- ------ - ------- --- ----------<br>------------- ------ ------ ---- ---- ------- ----- -- ----<br>-------- ------- -- ---------- --- - --- ----- ----- ----<br>---- --- --- ----- you ---- ---- ------- ----- ---- -------<br>--- --- -- ----- -- --- ---- -- --- ---- -- ------ ------<br>--- ----- -- ----,145128.19999999553,145125.19999999553,144780.186,144792.29999999702,144796.852,145130.172,,32,you
screen,html.Screen,2_1_0_1_33,2022-02-15T14:08:03.949Z,,,,,,,,,,,,,,,,,53,,,,,,,,,,,,,,292.8280000000086,,response,,,,99,,,,,,,Space,keypress(Space),,,,,,,,---- -- ----- -- ------ - ------- --- ----------<br>------------- ------ ------ ---- ---- ------- ----- -- ----<br>-------- ------- -- ---------- --- - --- ----- ----- ----<br>---- --- --- ----- --- feel ---- ------- ----- ---- -------<br>--- --- -- ----- -- --- ---- -- --- ---- -- ------ ------<br>--- ----- -- ----,145426.09999999404,145423,145113.506,145128.29999999702,145130.172,145430.16,,33,feel
screen,html.Screen,2_1_0_1_34,2022-02-15T14:08:04.278Z,,,,,,,,,,,,,,,,,53,,,,,,,,,,,,,,319.6399999970163,,response,,,,99,,,,,,,Space,keypress(Space),,,,,,,,---- -- ----- -- ------ - ------- --- ----------<br>------------- ------ ------ ---- ---- ------- ----- -- ----<br>-------- ------- -- ---------- --- - --- ----- ----- ----<br>---- --- --- ----- --- ---- that ------- ----- ---- -------<br>--- --- -- ----- -- --- ---- -- --- ---- -- ------ ------<br>--- ----- -- ----,145754.3999999985,145749.79999999702,145413.494,145426.5,145430.16,145763.48,,34,that
screen,html.Screen,2_1_0_1_35,2022-02-15T14:08:04.558Z,,,,,,,,,,,,,,,,,53,,,,,,,,,,,,,,268.3199999970093,,response,,,,99,,,,,,,Space,keypress(Space),,,,,,,,---- -- ----- -- ------ - ------- --- ----------<br>------------- ------ ------ ---- ---- ------- ----- -- ----<br>-------- ------- -- ---------- --- - --- ----- ----- ----<br>---- --- --- ----- --- ---- ---- matters ----- ---- -------<br>--- --- -- ----- -- --- ---- -- --- ---- -- ------ ------<br>--- ----- -- ----,146034.79999999702,146031.79999999702,145746.814,145754.59999999404,145763.48,146046.802,,35,matters
screen,html.Screen,2_1_0_1_36,2022-02-15T14:08:04.903Z,,,,,,,,,,,,,,,,,53,,,,,,,,,,,,,,330.09799999851384,,response,,,,99,,,,,,,Space,keypress(Space),,,,,,,,"---- -- ----- -- ------ - ------- --- ----------<br>------------- ------ ------ ---- ---- ------- ----- -- ----<br>-------- ------- -- ---------- --- - --- ----- ----- ----<br>---- --- --- ----- --- ---- ---- ------- most, ---- -------<br>--- --- -- ----- -- --- ---- -- --- ---- -- ------ ------<br>--- ----- -- ----",146380,146376.8999999985,146030.136,146035.19999999553,146046.802,146396.788,,36,"most,"
screen,html.Screen,2_1_0_1_37,2022-02-15T14:08:05.365Z,,,,,,,,,,,,,,,,,53,,,,,,,,,,,,,,441.81199999403907,,response,,,,99,,,,,,,Space,keypress(Space),,,,,,,,---- -- ----- -- ------ - ------- --- ----------<br>------------- ------ ------ ---- ---- ------- ----- -- ----<br>-------- ------- -- ---------- --- - --- ----- ----- ----<br>---- --- --- ----- --- ---- ---- ------- ----- it's -------<br>--- --- -- ----- -- --- ---- -- --- ---- -- ------ ------<br>--- ----- -- ----,146841.59999999404,146838.59999999404,146380.122,146380.19999999553,146396.788,146846.77,,37,it's
screen,html.Screen,2_1_0_1_38,2022-02-15T14:08:05.669Z,,,,,,,,,,,,,,,,,53,,,,,,,,,,,,,,296.52999999703025,,response,,,,99,,,,,,,Space,keypress(Space),,,,,,,,---- -- ----- -- ------ - ------- --- ----------<br>------------- ------ ------ ---- ---- ------- ----- -- ----<br>-------- ------- -- ---------- --- - --- ----- ----- ----<br>---- --- --- ----- --- ---- ---- ------- ----- ---- whether<br>--- --- -- ----- -- --- ---- -- --- ---- -- ------ ------<br>--- ----- -- ----,147145.8999999985,147143.29999999702,146830.104,146841.8999999985,146846.77,147163.424,,38,whether
screen,html.Screen,2_1_0_1_39,2022-02-15T14:08:06.044Z,,,,,,,,,,,,,,,,,53,,,,,,,,,,,,,,354.67599999404047,,response,,,,99,,,,,,,Space,keypress(Space),,,,,,,,---- -- ----- -- ------ - ------- --- ----------<br>------------- ------ ------ ---- ---- ------- ----- -- ----<br>-------- ------- -- ---------- --- - --- ----- ----- ----<br>---- --- --- ----- --- ---- ---- ------- ----- ---- -------<br>you --- -- ----- -- --- ---- -- --- ---- -- ------ ------<br>--- ----- -- ----,147520.5,147518.09999999404,147146.758,147146.29999999702,147163.424,147530.076,,39,you
screen,html.Screen,2_1_0_1_40,2022-02-15T14:08:06.342Z,,,,,,,,,,,,,,,,,53,,,,,,,,,,,,,,286.32399999850895,,response,,,,99,,,,,,,Space,keypress(Space),,,,,,,,---- -- ----- -- ------ - ------- --- ----------<br>------------- ------ ------ ---- ---- ------- ----- -- ----<br>-------- ------- -- ---------- --- - --- ----- ----- ----<br>---- --- --- ----- --- ---- ---- ------- ----- ---- -------<br>--- are -- ----- -- --- ---- -- --- ---- -- ------ ------<br>--- ----- -- ----,147819.19999999553,147816.3999999985,147513.41,147520.79999999702,147530.076,147830.064,,40,are
screen,html.Screen,2_1_0_1_41,2022-02-15T14:08:06.608Z,,,,,,,,,,,,,,,,,53,,,,,,,,,,,,,,252.43599999998696,,response,,,,99,,,,,,,Space,keypress(Space),,,,,,,,---- -- ----- -- ------ - ------- --- ----------<br>------------- ------ ------ ---- ---- ------- ----- -- ----<br>-------- ------- -- ---------- --- - --- ----- ----- ----<br>---- --- --- ----- --- ---- ---- ------- ----- ---- -------<br>--- --- as ----- -- --- ---- -- --- ---- -- ------ ------<br>--- ----- -- ----,148085,148082.5,147813.398,147819.3999999985,147830.064,148096.72,,41,as
screen,html.Screen,2_1_0_1_42,2022-02-15T14:08:06.903Z,,,,,,,,,,,,,,,,,53,,,,,,,,,,,,,,280.9799999955285,,response,,,,99,,,,,,,Space,keypress(Space),,,,,,,,---- -- ----- -- ------ - ------- --- ----------<br>------------- ------ ------ ---- ---- ------- ----- -- ----<br>-------- ------- -- ---------- --- - --- ----- ----- ----<br>---- --- --- ----- --- ---- ---- ------- ----- ---- -------<br>--- --- -- close -- --- ---- -- --- ---- -- ------ ------<br>--- ----- -- ----,148380.29999999702,148377.69999999553,148080.054,148085.3999999985,148096.72,148396.708,,42,close
screen,html.Screen,2_1_0_1_43,2022-02-15T14:08:07.230Z,,,,,,,,,,,,,,,,,53,,,,,,,,,,,,,,307.39199999402626,,response,,,,99,,,,,,,Space,keypress(Space),,,,,,,,---- -- ----- -- ------ - ------- --- ----------<br>------------- ------ ------ ---- ---- ------- ----- -- ----<br>-------- ------- -- ---------- --- - --- ----- ----- ----<br>---- --- --- ----- --- ---- ---- ------- ----- ---- -------<br>--- --- -- ----- as --- ---- -- --- ---- -- ------ ------<br>--- ----- -- ----,148706.79999999702,148704.09999999404,148380.042,148380.59999999404,148396.708,148713.362,,43,as
screen,html.Screen,2_1_0_1_44,2022-02-15T14:08:07.496Z,,,,,,,,,,,,,,,,,53,,,,,,,,,,,,,,256.2379999940458,,response,,,,99,,,,,,,Space,keypress(Space),,,,,,,,---- -- ----- -- ------ - ------- --- ----------<br>------------- ------ ------ ---- ---- ------- ----- -- ----<br>-------- ------- -- ---------- --- - --- ----- ----- ----<br>---- --- --- ----- --- ---- ---- ------- ----- ---- -------<br>--- --- -- ----- -- you ---- -- --- ---- -- ------ ------<br>--- ----- -- ----,148972.3999999985,148969.59999999404,148696.696,148707.09999999404,148713.362,148980.018,,44,you
screen,html.Screen,2_1_0_1_45,2022-02-15T14:08:07.773Z,,,,,,,,,,,,,,,,,53,,,,,,,,,,,,,,267.1819999955187,,response,,,,99,,,,,,,Space,keypress(Space),,,,,,,,---- -- ----- -- ------ - ------- --- ----------<br>------------- ------ ------ ---- ---- ------- ----- -- ----<br>-------- ------- -- ---------- --- - --- ----- ----- ----<br>---- --- --- ----- --- ---- ---- ------- ----- ---- -------<br>--- --- -- ----- -- --- want -- --- ---- -- ------ ------<br>--- ----- -- ----,149249.69999999553,149247.19999999553,148963.352,148972.59999999404,148980.018,149263.34,,45,want
screen,html.Screen,2_1_0_1_46,2022-02-15T14:08:08.127Z,,,,,,,,,,,,,,,,,53,,,,,,,,,,,,,,337.1600000000035,,response,,,,99,,,,,,,Space,keypress(Space),,,,,,,,---- -- ----- -- ------ - ------- --- ----------<br>------------- ------ ------ ---- ---- ------- ----- -- ----<br>-------- ------- -- ---------- --- - --- ----- ----- ----<br>---- --- --- ----- --- ---- ---- ------- ----- ---- -------<br>--- --- -- ----- -- --- ---- to --- ---- -- ------ ------<br>--- ----- -- ----,149603.5,149600.5,149246.674,149249.8999999985,149263.34,149613.326,,46,to
screen,html.Screen,2_1_0_1_47,2022-02-15T14:08:08.447Z,,,,,,,,,,,,,,,,,53,,,,,,,,,,,,,,307.97399999701884,,response,,,,99,,,,,,,Space,keypress(Space),,,,,,,,"---- -- ----- -- ------ - ------- --- ----------<br>------------- ------ ------ ---- ---- ------- ----- -- ----<br>-------- ------- -- ---------- --- - --- ----- ----- ----<br>---- --- --- ----- --- ---- ---- ------- ----- ---- -------<br>--- --- -- ----- -- --- ---- -- be, ---- -- ------ ------<br>--- ----- -- ----",149923.8999999985,149921.29999999702,149596.66,149603.69999999553,149613.326,149929.98,,47,"be,"
screen,html.Screen,2_1_0_1_48,2022-02-15T14:08:08.785Z,,,,,,,,,,,,,,,,,53,,,,,,,,,,,,,,328.8199999970093,,response,,,,99,,,,,,,Space,keypress(Space),,,,,,,,---- -- ----- -- ------ - ------- --- ----------<br>------------- ------ ------ ---- ---- ------- ----- -- ----<br>-------- ------- -- ---------- --- - --- ----- ----- ----<br>---- --- --- ----- --- ---- ---- ------- ----- ---- -------<br>--- --- -- ----- -- --- ---- -- --- even -- ------ ------<br>--- ----- -- ----,150261.79999999702,150258.79999999702,149913.314,149924.19999999553,149929.98,150263.3,,48,even
screen,html.Screen,2_1_0_1_49,2022-02-15T14:08:09.042Z,,,,,,,,,,,,,,,,,53,,,,,,,,,,,,,,252.3999999955413,,response,,,,99,,,,,,,Space,keypress(Space),,,,,,,,---- -- ----- -- ------ - ------- --- ----------<br>------------- ------ ------ ---- ---- ------- ----- -- ----<br>-------- ------- -- ---------- --- - --- ----- ----- ----<br>---- --- --- ----- --- ---- ---- ------- ----- ---- -------<br>--- --- -- ----- -- --- ---- -- --- ---- if ------ ------<br>--- ----- -- ----,150518.5,150515.69999999553,150246.634,150262.09999999404,150263.3,150529.956,,49,if
screen,html.Screen,2_1_0_1_50,2022-02-15T14:08:09.275Z,,,,,,,,,,,,,,,,,53,,,,,,,,,,,,,,219.24399999552406,,response,,,,99,,,,,,,Space,keypress(Space),,,,,,,,---- -- ----- -- ------ - ------- --- ----------<br>------------- ------ ------ ---- ---- ------- ----- -- ----<br>-------- ------- -- ---------- --- - --- ----- ----- ----<br>---- --- --- ----- --- ---- ---- ------- ----- ---- -------<br>--- --- -- ----- -- --- ---- -- --- ---- -- that's ------<br>--- ----- -- ----,150751.59999999404,150749.19999999553,150513.29,150518.79999999702,150529.956,150763.28,,50,that's
screen,html.Screen,2_1_0_1_51,2022-02-15T14:08:09.694Z,,,,,,,,,,,,,,,,,53,,,,,,,,,,,,,,403.11999999851105,,response,,,,99,,,,,,,Space,keypress(Space),,,,,,,,---- -- ----- -- ------ - ------- --- ----------<br>------------- ------ ------ ---- ---- ------- ----- -- ----<br>-------- ------- -- ---------- --- - --- ----- ----- ----<br>---- --- --- ----- --- ---- ---- ------- ----- ---- -------<br>--- --- -- ----- -- --- ---- -- --- ---- -- ------ really<br>--- ----- -- ----,151170.5,151166.3999999985,150746.614,150751.79999999702,150763.28,151179.93,,51,really
screen,html.Screen,2_1_0_1_52,2022-02-15T14:08:10.067Z,,,,,,,,,,,,,,,,,53,,,,,,,,,,,,,,360.76999999553664,,response,,,,99,,,,,,,Space,keypress(Space),,,,,,,,---- -- ----- -- ------ - ------- --- ----------<br>------------- ------ ------ ---- ---- ------- ----- -- ----<br>-------- ------- -- ---------- --- - --- ----- ----- ----<br>---- --- --- ----- --- ---- ---- ------- ----- ---- -------<br>--- --- -- ----- -- --- ---- -- --- ---- -- ------ ------<br>not ----- -- ----,151543.3999999985,151540.69999999553,151163.264,151170.5,151179.93,151546.582,,52,not
screen,html.Screen,2_1_0_1_53,2022-02-15T14:08:10.374Z,,,,,,,,,,,,,,,,,53,,,,,,,,,,,,,,301.9180000000051,,response,,,,99,,,,,,,Space,keypress(Space),,,,,,,,---- -- ----- -- ------ - ------- --- ----------<br>------------- ------ ------ ---- ---- ------- ----- -- ----<br>-------- ------- -- ---------- --- - --- ----- ----- ----<br>---- --- --- ----- --- ---- ---- ------- ----- ---- -------<br>--- --- -- ----- -- --- ---- -- --- ---- -- ------ ------<br>--- close -- ----,151851.29999999702,151848.5,151529.916,151543.69999999553,151546.582,151863.236,,53,close
screen,html.Screen,2_1_0_1_54,2022-02-15T14:08:10.678Z,,,,,,,,,,,,,,,,,53,,,,,,,,,,,,,,289.2639999999956,,response,,,,99,,,,,,,Space,keypress(Space),,,,,,,,---- -- ----- -- ------ - ------- --- ----------<br>------------- ------ ------ ---- ---- ------- ----- -- ----<br>-------- ------- -- ---------- --- - --- ----- ----- ----<br>---- --- --- ----- --- ---- ---- ------- ----- ---- -------<br>--- --- -- ----- -- --- ---- -- --- ---- -- ------ ------<br>--- ----- at ----,152154.79999999702,152152.5,151846.57,151851.59999999404,151863.236,152163.224,,54,at
screen,html.Screen,2_1_0_1_55,2022-02-15T14:08:11.375Z,,,,,,,,,,,,,,,,,53,,,,,,,,,,,,,,685.5759999970323,,response,,,,99,,,,,,,Space,keypress(Space),,,,,,,,---- -- ----- -- ------ - ------- --- ----------<br>------------- ------ ------ ---- ---- ------- ----- -- ----<br>-------- ------- -- ---------- --- - --- ----- ----- ----<br>---- --- --- ----- --- ---- ---- ------- ----- ---- -------<br>--- --- -- ----- -- --- ---- -- --- ---- -- ------ ------<br>--- ----- -- all.,152851.79999999702,152848.79999999702,152146.558,152155,152163.224,152863.196,,55,all.
Item 99,flow.Loop,2_1_0_1,2022-02-15T14:08:11.376Z,,,,,,,,,,,,,,,,,,,,,,,,,,,,,,,22951.351999997016,,completion,,,,,F,,,,,,,,,,,silence,,,,,152852.59999999404,152848.79999999702,129880.782,129883.19999999553,129897.448,152863.196,,,
Question 1,html.Screen,2_1_0_2,2022-02-15T14:08:14.596Z,,,,,,,,,,,,,,,,,,,,,,,,,,,,true,FALSE,,3208.4039999940433,,response,,,,99,F,,,,,,FALSE,click #choice-2,,,,silence,,,,,156073,156071.59999999404,152846.53,152852.69999999553,152863.196,156079.734,,,
Question 2,html.Screen,2_1_0_3,2022-02-15T14:08:18.232Z,,,,,,,,,,,,,,,,,,,,,,,,,,,,true,TRUE,,3625.665999998513,,response,,,,99,F,,,,,,TRUE,click #choice-1,,,,silence,,,,,159709.19999999553,159705.3999999985,156063.068,156073.29999999702,156079.734,159712.922,,,
Item 99,flow.Sequence,2_1_0,2022-02-15T14:08:18.232Z,,,,,,,,,,,,,,,,,,,,,,,,,,,,,,,39807.55199999851,,completion,,,,,,,,,,,,,,,,,,,,,159709.3999999985,159705.3999999985,119881.182,119895.39999999851,119897.848,159712.922,,,
Holding screen,html.Screen,2_1_1_0,2022-02-15T14:08:28.221Z,,,,,,,,,,,,,,,,,,,,,,,,,,,,,,,9999.600000000006,,timeout,,,,,,,,,,,,,,,,,,,,,169697.69999999553,169695.856,159696.256,159709.59999999404,159712.922,169712.522,,,
screen,html.Screen,2_1_1_1_0,2022-02-15T14:08:28.986Z,,,,,,,,,,,,,,,,,54,,,,,,,,,,,,,,747.1779999955324,,response,,,,100,,,,,,,Space,keypress(Space),,,,,,,,At --- ---- --- ------ ----- ------- ---- -- --- ------- --<br>------- ---------- ------ -- ----- -- ----- -- ---- ------<br>--- ----- --- --- ------ -------- ----- --- ------ ----- --<br>----- ----- ---------- --- --- ------ ------ ---- -- ------<br>------- --- ------ ----- --- ---- ------- -- ---- --- --<br>------- ------,170463.69999999553,170459.69999999553,169695.856,169698.09999999404,169712.522,170479.158,,0,At
screen,html.Screen,2_1_1_1_1,2022-02-15T14:08:29.428Z,,,,,,,,,,,,,,,,,54,,,,,,,,,,,,,,423.14199999702396,,response,,,,100,,,,,,,Space,keypress(Space),,,,,,,,-- the ---- --- ------ ----- ------- ---- -- --- ------- --<br>------- ---------- ------ -- ----- -- ----- -- ---- ------<br>--- ----- --- --- ------ -------- ----- --- ------ ----- --<br>----- ----- ---------- --- --- ------ ------ ---- -- ------<br>------- --- ------ ----- --- ---- ------- -- ---- --- --<br>------- ------,170905.09999999404,170902.29999999702,170462.492,170463.8999999985,170479.158,170912.474,,1,the
screen,html.Screen,2_1_1_1_2,2022-02-15T14:08:29.888Z,,,,,,,,,,,,,,,,,54,,,,,,,,,,,,,,450.0260000000126,,response,,,,100,,,,,,,Space,keypress(Space),,,,,,,,-- --- time --- ------ ----- ------- ---- -- --- ------- --<br>------- ---------- ------ -- ----- -- ----- -- ---- ------<br>--- ----- --- --- ------ -------- ----- --- ------ ----- --<br>----- ----- ---------- --- --- ------ ------ ---- -- ------<br>------- --- ------ ----- --- ---- ------- -- ---- --- --<br>------- ------,171365.3999999985,171362.5,170895.808,170905.3999999985,170912.474,171379.122,,2,time
screen,html.Screen,2_1_1_1_3,2022-02-15T14:08:30.352Z,,,,,,,,,,,,,,,,,54,,,,,,,,,,,,,,447.0779999955266,,response,,,,100,,,,,,,Space,keypress(Space),,,,,,,,-- --- ---- the ------ ----- ------- ---- -- --- ------- --<br>------- ---------- ------ -- ----- -- ----- -- ---- ------<br>--- ----- --- --- ------ -------- ----- --- ------ ----- --<br>----- ----- ---------- --- --- ------ ------ ---- -- ------<br>------- --- ------ ----- --- ---- ------- -- ---- --- --<br>------- ------,171828.8999999985,171826.19999999553,171362.456,171365.79999999702,171379.122,171845.77,,3,the
screen,html.Screen,2_1_1_1_4,2022-02-15T14:08:30.832Z,,,,,,,,,,,,,,,,,54,,,,,,,,,,,,,,461.12999999852036,,response,,,,100,,,,,,,Space,keypress(Space),,,,,,,,-- --- ---- --- French ----- ------- ---- -- --- ------- --<br>------- ---------- ------ -- ----- -- ----- -- ---- ------<br>--- ----- --- --- ------ -------- ----- --- ------ ----- --<br>----- ----- ---------- --- --- ------ ------ ---- -- ------<br>------- --- ------ ----- --- ---- ------- -- ---- --- --<br>------- ------,172309.3999999985,172306.8999999985,171829.104,171829.09999999404,171845.77,172312.418,,4,French
screen,html.Screen,2_1_1_1_5,2022-02-15T14:08:31.363Z,,,,,,,,,,,,,,,,,54,,,,,,,,,,,,,,524.8819999970146,,response,,,,100,,,,,,,Space,keypress(Space),,,,,,,,-- --- ---- --- ------ crown ------- ---- -- --- ------- --<br>------- ---------- ------ -- ----- -- ----- -- ---- ------<br>--- ----- --- --- ------ -------- ----- --- ------ ----- --<br>----- ----- ---------- --- --- ------ ------ ---- -- ------<br>------- --- ------ ----- --- ---- ------- -- ---- --- --<br>------- ------,172840.19999999553,172837.29999999702,172295.752,172309.69999999553,172312.418,172845.73,,5,crown
screen,html.Screen,2_1_1_1_6,2022-02-15T14:08:31.895Z,,,,,,,,,,,,,,,,,54,,,,,,,,,,,,,,523.6699999984994,,response,,,,100,,,,,,,Space,keypress(Space),,,,,,,,-- --- ---- --- ------ ----- secured ---- -- --- ------- --<br>------- ---------- ------ -- ----- -- ----- -- ---- ------<br>--- ----- --- --- ------ -------- ----- --- ------ ----- --<br>----- ----- ---------- --- --- ------ ------ ---- -- ------<br>------- --- ------ ----- --- ---- ------- -- ---- --- --<br>------- ------,173372.19999999553,173369.3999999985,172829.064,172840.3999999985,172845.73,173379.042,,6,secured
screen,html.Screen,2_1_1_1_7,2022-02-15T14:08:32.293Z,,,,,,,,,,,,,,,,,54,,,,,,,,,,,,,,388.95800000001327,,response,,,,100,,,,,,,Space,keypress(Space),,,,,,,,-- --- ---- --- ------ ----- ------- much -- --- ------- --<br>------- ---------- ------ -- ----- -- ----- -- ---- ------<br>--- ----- --- --- ------ -------- ----- --- ------ ----- --<br>----- ----- ---------- --- --- ------ ------ ---- -- ------<br>------- --- ------ ----- --- ---- ------- -- ---- --- --<br>------- ------,173770.69999999553,173768,173362.376,173372.3999999985,173379.042,173779.026,,7,much
screen,html.Screen,2_1_1_1_8,2022-02-15T14:08:32.584Z,,,,,,,,,,,,,,,,,54,,,,,,,,,,,,,,280.07399999402696,,response,,,,100,,,,,,,Space,keypress(Space),,,,,,,,-- --- ---- --- ------ ----- ------- ---- of --- ------- --<br>------- ---------- ------ -- ----- -- ----- -- ---- ------<br>--- ----- --- --- ------ -------- ----- --- ------ ----- --<br>----- ----- ---------- --- --- ------ ------ ---- -- ------<br>------- --- ------ ----- --- ---- ------- -- ---- --- --<br>------- ------,174061.59999999404,174059.09999999404,173762.36,173771,173779.026,174079.014,,8,of
screen,html.Screen,2_1_1_1_9,2022-02-15T14:08:32.819Z,,,,,,,,,,,,,,,,,54,,,,,,,,,,,,,,215.18599999553408,,response,,,,100,,,,,,,Space,keypress(Space),,,,,,,,-- --- ---- --- ------ ----- ------- ---- -- its ------- --<br>------- ---------- ------ -- ----- -- ----- -- ---- ------<br>--- ----- --- --- ------ -------- ----- --- ------ ----- --<br>----- ----- ---------- --- --- ------ ------ ---- -- ------<br>------- --- ------ ----- --- ---- ------- -- ---- --- --<br>------- ------,174296.5,174294.19999999553,174062.348,174061.79999999702,174079.014,174312.338,,9,its
screen,html.Screen,2_1_1_1_10,2022-02-15T14:08:33.213Z,,,,,,,,,,,,,,,,,54,,,,,,,,,,,,,,374.8619999955408,,response,,,,100,,,,,,,Space,keypress(Space),,,,,,,,-- --- ---- --- ------ ----- ------- ---- -- --- revenue --<br>------- ---------- ------ -- ----- -- ----- -- ---- ------<br>--- ----- --- --- ------ -------- ----- --- ------ ----- --<br>----- ----- ---------- --- --- ------ ------ ---- -- ------<br>------- --- ------ ----- --- ---- ------- -- ---- --- --<br>------- ------,174690,174687.19999999553,174295.672,174296.79999999702,174312.338,174695.656,,10,revenue
screen,html.Screen,2_1_1_1_11,2022-02-15T14:08:33.616Z,,,,,,,,,,,,,,,,,54,,,,,,,,,,,,,,395.3440000000119,,response,,,,100,,,,,,,Space,keypress(Space),,,,,,,,-- --- ---- --- ------ ----- ------- ---- -- --- ------- by<br>------- ---------- ------ -- ----- -- ----- -- ---- ------<br>--- ----- --- --- ------ -------- ----- --- ------ ----- --<br>----- ----- ---------- --- --- ------ ------ ---- -- ------<br>------- --- ------ ----- --- ---- ------- -- ---- --- --<br>------- ------,175093.5,175091,174678.99,174690.19999999553,174695.656,175095.64,,11,by
screen,html.Screen,2_1_1_1_12,2022-02-15T14:08:34.007Z,,,,,,,,,,,,,,,,,54,,,,,,,,,,,,,,384.7599999984959,,response,,,,100,,,,,,,Space,keypress(Space),,,,,,,,-- --- ---- --- ------ ----- ------- ---- -- --- ------- --<br>issuing ---------- ------ -- ----- -- ----- -- ---- ------<br>--- ----- --- --- ------ -------- ----- --- ------ ----- --<br>----- ----- ---------- --- --- ------ ------ ---- -- ------<br>------- --- ------ ----- --- ---- ------- -- ---- --- --<br>------- ------,175483.8999999985,175480.3999999985,175078.974,175093.79999999702,175095.64,175495.624,,12,issuing
screen,html.Screen,2_1_1_1_13,2022-02-15T14:08:34.423Z,,,,,,,,,,,,,,,,,54,,,,,,,,,,,,,,401.9759999940288,,response,,,,100,,,,,,,Space,keypress(Space),,,,,,,,-- --- ---- --- ------ ----- ------- ---- -- --- ------- --<br>------- government ------ -- ----- -- ----- -- ---- ------<br>--- ----- --- --- ------ -------- ----- --- ------ ----- --<br>----- ----- ---------- --- --- ------ ------ ---- -- ------<br>------- --- ------ ----- --- ---- ------- -- ---- --- --<br>------- ------,175900.29999999702,175897.59999999404,175478.958,175484.29999999702,175495.624,175912.274,,13,government
screen,html.Screen,2_1_1_1_14,2022-02-15T14:08:34.759Z,,,,,,,,,,,,,,,,,54,,,,,,,,,,,,,,321.2259999999951,,response,,,,100,,,,,,,Space,keypress(Space),,,,,,,,-- --- ---- --- ------ ----- ------- ---- -- --- ------- --<br>------- ---------- bonds. -- ----- -- ----- -- ---- ------<br>--- ----- --- --- ------ -------- ----- --- ------ ----- --<br>----- ----- ---------- --- --- ------ ------ ---- -- ------<br>------- --- ------ ----- --- ---- ------- -- ---- --- --<br>------- ------,176236.19999999553,176233.5,175895.608,175900.5,175912.274,176245.594,,14,bonds.
screen,html.Screen,2_1_1_1_15,2022-02-15T14:08:35.186Z,,,,,,,,,,,,,,,,,54,,,,,,,,,,,,,,414.6059999955178,,response,,,,100,,,,,,,Space,keypress(Space),,,,,,,,-- --- ---- --- ------ ----- ------- ---- -- --- ------- --<br>------- ---------- ------ In ----- -- ----- -- ---- ------<br>--- ----- --- --- ------ -------- ----- --- ------ ----- --<br>----- ----- ---------- --- --- ------ ------ ---- -- ------<br>------- --- ------ ----- --- ---- ------- -- ---- --- --<br>------- ------,176663,176660.19999999553,176228.928,176236.3999999985,176245.594,176678.91,,15,In
screen,html.Screen,2_1_1_1_16,2022-02-15T14:08:35.432Z,,,,,,,,,,,,,,,,,54,,,,,,,,,,,,,,228.18999999403604,,response,,,,100,,,,,,,Space,keypress(Space),,,,,,,,"-- --- ---- --- ------ ----- ------- ---- -- --- ------- --<br>------- ---------- ------ -- 1727, -- ----- -- ---- ------<br>--- ----- --- --- ------ -------- ----- --- ------ ----- --<br>----- ----- ---------- --- --- ------ ------ ---- -- ------<br>------- --- ------ ----- --- ---- ------- -- ---- --- --<br>------- ------",176909.69999999553,176907.09999999404,176662.244,176663.29999999702,176678.91,176912.234,,16,"1727,"
screen,html.Screen,2_1_1_1_17,2022-02-15T14:08:36.558Z,,,,,,,,,,,,,,,,,54,,,,,,,,,,,,,,1120.065999997023,,response,,,,100,,,,,,,Space,keypress(Space),,,,,,,,-- --- ---- --- ------ ----- ------- ---- -- --- ------- --<br>------- ---------- ------ -- ----- in ----- -- ---- ------<br>--- ----- --- --- ------ -------- ----- --- ------ ----- --<br>----- ----- ---------- --- --- ------ ------ ---- -- ------<br>------- --- ------ ----- --- ---- ------- -- ---- --- --<br>------- ------,178035.09999999404,178032.29999999702,176895.568,176909.8999999985,176912.234,178045.522,,17,in
screen,html.Screen,2_1_1_1_18,2022-02-15T14:08:37.122Z,,,,,,,,,,,,,,,,,54,,,,,,,,,,,,,,551.3779999985127,,response,,,,100,,,,,,,Space,keypress(Space),,,,,,,,-- --- ---- --- ------ ----- ------- ---- -- --- ------- --<br>------- ---------- ------ -- ----- -- order -- ---- ------<br>--- ----- --- --- ------ -------- ----- --- ------ ----- --<br>----- ----- ---------- --- --- ------ ------ ---- -- ------<br>------- --- ------ ----- --- ---- ------- -- ---- --- --<br>------- ------,178599.29999999702,178596.8999999985,178028.856,178035.5,178045.522,178612.166,,18,order
screen,html.Screen,2_1_1_1_19,2022-02-15T14:08:37.685Z,,,,,,,,,,,,,,,,,54,,,,,,,,,,,,,,547.3340000000026,,response,,,,100,,,,,,,Space,keypress(Space),,,,,,,,-- --- ---- --- ------ ----- ------- ---- -- --- ------- --<br>------- ---------- ------ -- ----- -- ----- to ---- ------<br>--- ----- --- --- ------ -------- ----- --- ------ ----- --<br>----- ----- ---------- --- --- ------ ------ ---- -- ------<br>------- --- ------ ----- --- ---- ------- -- ---- --- --<br>------- ------,179162.09999999404,179159.5,178595.5,178599.3999999985,178612.166,179178.81,,19,to
screen,html.Screen,2_1_1_1_20,2022-02-15T14:08:38.131Z,,,,,,,,,,,,,,,,,54,,,,,,,,,,,,,,426.1900000000023,,response,,,,100,,,,,,,Space,keypress(Space),,,,,,,,-- --- ---- --- ------ ----- ------- ---- -- --- ------- --<br>------- ---------- ------ -- ----- -- ----- -- save ------<br>--- ----- --- --- ------ -------- ----- --- ------ ----- --<br>----- ----- ---------- --- --- ------ ------ ---- -- ------<br>------- --- ------ ----- --- ---- ------- -- ---- --- --<br>------- ------,179608.09999999404,179605,179162.144,179162.3999999985,179178.81,179612.126,,20,save
screen,html.Screen,2_1_1_1_21,2022-02-15T14:08:38.482Z,,,,,,,,,,,,,,,,,54,,,,,,,,,,,,,,344.47399999405025,,response,,,,100,,,,,,,Space,keypress(Space),,,,,,,,"-- --- ---- --- ------ ----- ------- ---- -- --- ------- --<br>------- ---------- ------ -- ----- -- ----- -- ---- money,<br>--- ----- --- --- ------ -------- ----- --- ------ ----- --<br>----- ----- ---------- --- --- ------ ------ ---- -- ------<br>------- --- ------ ----- --- ---- ------- -- ---- --- --<br>------- ------",179959.19999999553,179956.59999999404,179595.46,179608.19999999553,179612.126,179962.112,,21,"money,"
screen,html.Screen,2_1_1_1_22,2022-02-15T14:08:38.996Z,,,,,,,,,,,,,,,,,54,,,,,,,,,,,,,,507.58799999553594,,response,,,,100,,,,,,,Space,keypress(Space),,,,,,,,-- --- ---- --- ------ ----- ------- ---- -- --- ------- --<br>------- ---------- ------ -- ----- -- ----- -- ---- ------<br>the ----- --- --- ------ -------- ----- --- ------ ----- --<br>----- ----- ---------- --- --- ------ ------ ---- -- ------<br>------- --- ------ ----- --- ---- ------- -- ---- --- --<br>------- ------,180473.69999999553,180469.69999999553,179945.446,179959.59999999404,179962.112,180478.758,,22,the
screen,html.Screen,2_1_1_1_23,2022-02-15T14:08:39.330Z,,,,,,,,,,,,,,,,,54,,,,,,,,,,,,,,325.941999995528,,response,,,,100,,,,,,,Space,keypress(Space),,,,,,,,-- --- ---- --- ------ ----- ------- ---- -- --- ------- --<br>------- ---------- ------ -- ----- -- ----- -- ---- ------<br>--- state --- --- ------ -------- ----- --- ------ ----- --<br>----- ----- ---------- --- --- ------ ------ ---- -- ------<br>------- --- ------ ----- --- ---- ------- -- ---- --- --<br>------- ------,180807.3999999985,180804.69999999553,180462.092,180473.79999999702,180478.758,180812.078,,23,state
screen,html.Screen,2_1_1_1_24,2022-02-15T14:08:39.673Z,,,,,,,,,,,,,,,,,54,,,,,,,,,,,,,,336.32199999850127,,response,,,,100,,,,,,,Space,keypress(Space),,,,,,,,-- --- ---- --- ------ ----- ------- ---- -- --- ------- --<br>------- ---------- ------ -- ----- -- ----- -- ---- ------<br>--- ----- cut --- ------ -------- ----- --- ------ ----- --<br>----- ----- ---------- --- --- ------ ------ ---- -- ------<br>------- --- ------ ----- --- ---- ------- -- ---- --- --<br>------- ------,181150.79999999702,181148.3999999985,180795.412,180807.69999999553,180812.078,181162.064,,24,cut
screen,html.Screen,2_1_1_1_25,2022-02-15T14:08:40.027Z,,,,,,,,,,,,,,,,,54,,,,,,,,,,,,,,339.43599999998696,,response,,,,100,,,,,,,Space,keypress(Space),,,,,,,,-- --- ---- --- ------ ----- ------- ---- -- --- ------- --<br>------- ---------- ------ -- ----- -- ----- -- ---- ------<br>--- ----- --- the ------ -------- ----- --- ------ ----- --<br>----- ----- ---------- --- --- ------ ------ ---- -- ------<br>------- --- ------ ----- --- ---- ------- -- ---- --- --<br>------- ------,181504.29999999702,181501.5,181145.398,181151.19999999553,181162.064,181512.05,,25,the
screen,html.Screen,2_1_1_1_26,2022-02-15T14:08:40.483Z,,,,,,,,,,,,,,,,,54,,,,,,,,,,,,,,445.45000000001164,,response,,,,100,,,,,,,Space,keypress(Space),,,,,,,,-- --- ---- --- ------ ----- ------- ---- -- --- ------- --<br>------- ---------- ------ -- ----- -- ----- -- ---- ------<br>--- ----- --- --- bonds' -------- ----- --- ------ ----- --<br>----- ----- ---------- --- --- ------ ------ ---- -- ------<br>------- --- ------ ----- --- ---- ------- -- ---- --- --<br>------- ------,181960,181957.5,181495.384,181504.5,181512.05,181962.032,,26,bonds'
screen,html.Screen,2_1_1_1_27,2022-02-15T14:08:40.961Z,,,,,,,,,,,,,,,,,54,,,,,,,,,,,,,,473.66799999552313,,response,,,,100,,,,,,,Space,keypress(Space),,,,,,,,-- --- ---- --- ------ ----- ------- ---- -- --- ------- --<br>------- ---------- ------ -- ----- -- ----- -- ---- ------<br>--- ----- --- --- ------ interest ----- --- ------ ----- --<br>----- ----- ---------- --- --- ------ ------ ---- -- ------<br>------- --- ------ ----- --- ---- ------- -- ---- --- --<br>------- ------,182437.8999999985,182435.69999999553,181945.366,181960.29999999702,181962.032,182445.346,,27,interest
screen,html.Screen,2_1_1_1_28,2022-02-15T14:08:41.362Z,,,,,,,,,,,,,,,,,54,,,,,,,,,,,,,,391.3539999955392,,response,,,,100,,,,,,,Space,keypress(Space),,,,,,,,-- --- ---- --- ------ ----- ------- ---- -- --- ------- --<br>------- ---------- ------ -- ----- -- ----- -- ---- ------<br>--- ----- --- --- ------ -------- rate. --- ------ ----- --<br>----- ----- ---------- --- --- ------ ------ ---- -- ------<br>------- --- ------ ----- --- ---- ------- -- ---- --- --<br>------- ------,182839.09999999404,182836.69999999553,182428.68,182438.09999999404,182445.346,182845.33,,28,rate.
screen,html.Screen,2_1_1_1_29,2022-02-15T14:08:41.893Z,,,,,,,,,,,,,,,,,54,,,,,,,,,,,,,,521.8699999955425,,response,,,,100,,,,,,,Space,keypress(Space),,,,,,,,-- --- ---- --- ------ ----- ------- ---- -- --- ------- --<br>------- ---------- ------ -- ----- -- ----- -- ---- ------<br>--- ----- --- --- ------ -------- ----- The ------ ----- --<br>----- ----- ---------- --- --- ------ ------ ---- -- ------<br>------- --- ------ ----- --- ---- ------- -- ---- --- --<br>------- ------,183370.19999999553,183367.19999999553,182828.664,182839.19999999553,182845.33,183378.642,,29,The
screen,html.Screen,2_1_1_1_30,2022-02-15T14:08:42.428Z,,,,,,,,,,,,,,,,,54,,,,,,,,,,,,,,523.6579999970272,,response,,,,100,,,,,,,Space,keypress(Space),,,,,,,,-- --- ---- --- ------ ----- ------- ---- -- --- ------- --<br>------- ---------- ------ -- ----- -- ----- -- ---- ------<br>--- ----- --- --- ------ -------- ----- --- market ----- --<br>----- ----- ---------- --- --- ------ ------ ---- -- ------<br>------- --- ------ ----- --- ---- ------- -- ---- --- --<br>------- ------,183905.5,183902.29999999702,183361.976,183370.5,183378.642,183911.954,,30,market
screen,html.Screen,2_1_1_1_31,2022-02-15T14:08:42.832Z,,,,,,,,,,,,,,,,,54,,,,,,,,,,,,,,394.945999998512,,response,,,,100,,,,,,,Space,keypress(Space),,,,,,,,-- --- ---- --- ------ ----- ------- ---- -- --- ------- --<br>------- ---------- ------ -- ----- -- ----- -- ---- ------<br>--- ----- --- --- ------ -------- ----- --- ------ value --<br>----- ----- ---------- --- --- ------ ------ ---- -- ------<br>------- --- ------ ----- --- ---- ------- -- ---- --- --<br>------- ------,184309.59999999404,184306.8999999985,183895.288,183905.79999999702,183911.954,184311.938,,31,value
screen,html.Screen,2_1_1_1_32,2022-02-15T14:08:43.204Z,,,,,,,,,,,,,,,,,54,,,,,,,,,,,,,,367.46199999851524,,response,,,,100,,,,,,,Space,keypress(Space),,,,,,,,-- --- ---- --- ------ ----- ------- ---- -- --- ------- --<br>------- ---------- ------ -- ----- -- ----- -- ---- ------<br>--- ----- --- --- ------ -------- ----- --- ------ ----- of<br>----- ----- ---------- --- --- ------ ------ ---- -- ------<br>------- --- ------ ----- --- ---- ------- -- ---- --- --<br>------- ------,184681.8999999985,184679.3999999985,184295.272,184309.69999999553,184311.938,184695.256,,32,of
screen,html.Screen,2_1_1_1_33,2022-02-15T14:08:43.571Z,,,,,,,,,,,,,,,,,54,,,,,,,,,,,,,,349.8439999940456,,response,,,,100,,,,,,,Space,keypress(Space),,,,,,,,-- --- ---- --- ------ ----- ------- ---- -- --- ------- --<br>------- ---------- ------ -- ----- -- ----- -- ---- ------<br>--- ----- --- --- ------ -------- ----- --- ------ ----- --<br>these ----- ---------- --- --- ------ ------ ---- -- ------<br>------- --- ------ ----- --- ---- ------- -- ---- --- --<br>------- ------,185048,185045.09999999404,184678.59,184682.19999999553,184695.256,185061.908,,33,these
screen,html.Screen,2_1_1_1_34,2022-02-15T14:08:43.888Z,,,,,,,,,,,,,,,,,54,,,,,,,,,,,,,,300.6919999940437,,response,,,,100,,,,,,,Space,keypress(Space),,,,,,,,-- --- ---- --- ------ ----- ------- ---- -- --- ------- --<br>------- ---------- ------ -- ----- -- ----- -- ---- ------<br>--- ----- --- --- ------ -------- ----- --- ------ ----- --<br>----- bonds ---------- --- --- ------ ------ ---- -- ------<br>------- --- ------ ----- --- ---- ------- -- ---- --- --<br>------- ------,185365,185362.59999999404,185045.242,185048.19999999553,185061.908,185378.562,,34,bonds
screen,html.Screen,2_1_1_1_35,2022-02-15T14:08:44.258Z,,,,,,,,,,,,,,,,,54,,,,,,,,,,,,,,353.83799999850453,,response,,,,100,,,,,,,Space,keypress(Space),,,,,,,,"-- --- ---- --- ------ ----- ------- ---- -- --- ------- --<br>------- ---------- ------ -- ----- -- ----- -- ---- ------<br>--- ----- --- --- ------ -------- ----- --- ------ ----- --<br>----- ----- plummeted, --- --- ------ ------ ---- -- ------<br>------- --- ------ ----- --- ---- ------- -- ---- --- --<br>------- ------",185735.3999999985,185732.3999999985,185361.896,185365.09999999404,185378.562,185745.214,,35,"plummeted,"
screen,html.Screen,2_1_1_1_36,2022-02-15T14:08:44.671Z,,,,,,,,,,,,,,,,,54,,,,,,,,,,,,,,401.3859999940323,,response,,,,100,,,,,,,Space,keypress(Space),,,,,,,,-- --- ---- --- ------ ----- ------- ---- -- --- ------- --<br>------- ---------- ------ -- ----- -- ----- -- ---- ------<br>--- ----- --- --- ------ -------- ----- --- ------ ----- --<br>----- ----- ---------- and --- ------ ------ ---- -- ------<br>------- --- ------ ----- --- ---- ------- -- ---- --- --<br>------- ------,186148.8999999985,186146.59999999404,185728.548,185735.79999999702,185745.214,186161.864,,36,and
screen,html.Screen,2_1_1_1_37,2022-02-15T14:08:44.937Z,,,,,,,,,,,,,,,,,54,,,,,,,,,,,,,,250.0359999985085,,response,,,,100,,,,,,,Space,keypress(Space),,,,,,,,-- --- ---- --- ------ ----- ------- ---- -- --- ------- --<br>------- ---------- ------ -- ----- -- ----- -- ---- ------<br>--- ----- --- --- ------ -------- ----- --- ------ ----- --<br>----- ----- ---------- --- the ------ ------ ---- -- ------<br>------- --- ------ ----- --- ---- ------- -- ---- --- --<br>------- ------,186414.59999999404,186411.8999999985,186145.198,186149.19999999553,186161.864,186428.52,,37,the
screen,html.Screen,2_1_1_1_38,2022-02-15T14:08:45.222Z,,,,,,,,,,,,,,,,,54,,,,,,,,,,,,,,268.37999999852036,,response,,,,100,,,,,,,Space,keypress(Space),,,,,,,,-- --- ---- --- ------ ----- ------- ---- -- --- ------- --<br>------- ---------- ------ -- ----- -- ----- -- ---- ------<br>--- ----- --- --- ------ -------- ----- --- ------ ----- --<br>----- ----- ---------- --- --- market ------ ---- -- ------<br>------- --- ------ ----- --- ---- ------- -- ---- --- --<br>------- ------,186699.5,186696.8999999985,186411.854,186414.79999999702,186428.52,186711.842,,38,market
screen,html.Screen,2_1_1_1_39,2022-02-15T14:08:45.636Z,,,,,,,,,,,,,,,,,54,,,,,,,,,,,,,,398.85799999552546,,response,,,,100,,,,,,,Space,keypress(Space),,,,,,,,-- --- ---- --- ------ ----- ------- ---- -- --- ------- --<br>------- ---------- ------ -- ----- -- ----- -- ---- ------<br>--- ----- --- --- ------ -------- ----- --- ------ ----- --<br>----- ----- ---------- --- --- ------ became ---- -- ------<br>------- --- ------ ----- --- ---- ------- -- ---- --- --<br>------- ------,187113.19999999553,187110.69999999553,186695.176,186699.69999999553,186711.842,187128.492,,39,became
screen,html.Screen,2_1_1_1_40,2022-02-15T14:08:46.027Z,,,,,,,,,,,,,,,,,54,,,,,,,,,,,,,,373.7079999955313,,response,,,,100,,,,,,,Space,keypress(Space),,,,,,,,-- --- ---- --- ------ ----- ------- ---- -- --- ------- --<br>------- ---------- ------ -- ----- -- ----- -- ---- ------<br>--- ----- --- --- ------ -------- ----- --- ------ ----- --<br>----- ----- ---------- --- --- ------ ------ wary -- ------<br>------- --- ------ ----- --- ---- ------- -- ---- --- --<br>------- ------,187504.79999999702,187502.19999999553,187111.826,187113.3999999985,187128.492,187511.81,,40,wary
screen,html.Screen,2_1_1_1_41,2022-02-15T14:08:46.388Z,,,,,,,,,,,,,,,,,54,,,,,,,,,,,,,,351.0899999985122,,response,,,,100,,,,,,,Space,keypress(Space),,,,,,,,-- --- ---- --- ------ ----- ------- ---- -- --- ------- --<br>------- ---------- ------ -- ----- -- ----- -- ---- ------<br>--- ----- --- --- ------ -------- ----- --- ------ ----- --<br>----- ----- ---------- --- --- ------ ------ ---- of ------<br>------- --- ------ ----- --- ---- ------- -- ---- --- --<br>------- ------,187865.8999999985,187862.8999999985,187495.144,187505.09999999404,187511.81,187878.462,,41,of
screen,html.Screen,2_1_1_1_42,2022-02-15T14:08:46.854Z,,,,,,,,,,,,,,,,,54,,,,,,,,,,,,,,450.53800000000047,,response,,,,100,,,,,,,Space,keypress(Space),,,,,,,,-- --- ---- --- ------ ----- ------- ---- -- --- ------- --<br>------- ---------- ------ -- ----- -- ----- -- ---- ------<br>--- ----- --- --- ------ -------- ----- --- ------ ----- --<br>----- ----- ---------- --- --- ------ ------ ---- -- French<br>------- --- ------ ----- --- ---- ------- -- ---- --- --<br>------- ------,188331.69999999553,188329,187861.796,187866.19999999553,187878.462,188345.11,,42,French
screen,html.Screen,2_1_1_1_43,2022-02-15T14:08:47.506Z,,,,,,,,,,,,,,,,,54,,,,,,,,,,,,,,634.890000000014,,response,,,,100,,,,,,,Space,keypress(Space),,,,,,,,-- --- ---- --- ------ ----- ------- ---- -- --- ------- --<br>------- ---------- ------ -- ----- -- ----- -- ---- ------<br>--- ----- --- --- ------ -------- ----- --- ------ ----- --<br>----- ----- ---------- --- --- ------ ------ ---- -- ------<br>credit. --- ------ ----- --- ---- ------- -- ---- --- --<br>------- ------,188983.19999999553,188980,188328.444,188331.8999999985,188345.11,188995.084,,43,credit.
screen,html.Screen,2_1_1_1_44,2022-02-15T14:08:47.968Z,,,,,,,,,,,,,,,,,54,,,,,,,,,,,,,,448.8159999985073,,response,,,,100,,,,,,,Space,keypress(Space),,,,,,,,-- --- ---- --- ------ ----- ------- ---- -- --- ------- --<br>------- ---------- ------ -- ----- -- ----- -- ---- ------<br>--- ----- --- --- ------ -------- ----- --- ------ ----- --<br>----- ----- ---------- --- --- ------ ------ ---- -- ------<br>------- The ------ ----- --- ---- ------- -- ---- --- --<br>------- ------,189445.79999999702,189443.8999999985,188978.418,188983.5,188995.084,189461.732,,44,The
screen,html.Screen,2_1_1_1_45,2022-02-15T14:08:48.402Z,,,,,,,,,,,,,,,,,54,,,,,,,,,,,,,,415.6679999985208,,response,,,,100,,,,,,,Space,keypress(Space),,,,,,,,-- --- ---- --- ------ ----- ------- ---- -- --- ------- --<br>------- ---------- ------ -- ----- -- ----- -- ---- ------<br>--- ----- --- --- ------ -------- ----- --- ------ ----- --<br>----- ----- ---------- --- --- ------ ------ ---- -- ------<br>------- --- French ----- --- ---- ------- -- ---- --- --<br>------- ------,189879.8999999985,189877.3999999985,189445.066,189446,189461.732,189895.048,,45,French
screen,html.Screen,2_1_1_1_46,2022-02-15T14:08:48.798Z,,,,,,,,,,,,,,,,,54,,,,,,,,,,,,,,377.4519999999902,,response,,,,100,,,,,,,Space,keypress(Space),,,,,,,,-- --- ---- --- ------ ----- ------- ---- -- --- ------- --<br>------- ---------- ------ -- ----- -- ----- -- ---- ------<br>--- ----- --- --- ------ -------- ----- --- ------ ----- --<br>----- ----- ---------- --- --- ------ ------ ---- -- ------<br>------- --- ------ state --- ---- ------- -- ---- --- --<br>------- ------,190275.79999999702,190272.5,189878.382,189880.19999999553,189895.048,190278.366,,46,state
screen,html.Screen,2_1_1_1_47,2022-02-15T14:08:49.153Z,,,,,,,,,,,,,,,,,54,,,,,,,,,,,,,,348.73399999403046,,response,,,,100,,,,,,,Space,keypress(Space),,,,,,,,-- --- ---- --- ------ ----- ------- ---- -- --- ------- --<br>------- ---------- ------ -- ----- -- ----- -- ---- ------<br>--- ----- --- --- ------ -------- ----- --- ------ ----- --<br>----- ----- ---------- --- --- ------ ------ ---- -- ------<br>------- --- ------ ----- was ---- ------- -- ---- --- --<br>------- ------,190630.59999999404,190627.09999999404,190261.7,190276,190278.366,190645.018,,47,was
screen,html.Screen,2_1_1_1_48,2022-02-15T14:08:49.481Z,,,,,,,,,,,,,,,,,54,,,,,,,,,,,,,,310.98199999998906,,response,,,,100,,,,,,,Space,keypress(Space),,,,,,,,-- --- ---- --- ------ ----- ------- ---- -- --- ------- --<br>------- ---------- ------ -- ----- -- ----- -- ---- ------<br>--- ----- --- --- ------ -------- ----- --- ------ ----- --<br>----- ----- ---------- --- --- ------ ------ ---- -- ------<br>------- --- ------ ----- --- left ------- -- ---- --- --<br>------- ------,190958.79999999702,190956,190628.352,190630.8999999985,190645.018,190961.672,,48,left
screen,html.Screen,2_1_1_1_49,2022-02-15T14:08:49.857Z,,,,,,,,,,,,,,,,,54,,,,,,,,,,,,,,370.3280000000086,,response,,,,100,,,,,,,Space,keypress(Space),,,,,,,,-- --- ---- --- ------ ----- ------- ---- -- --- ------- --<br>------- ---------- ------ -- ----- -- ----- -- ---- ------<br>--- ----- --- --- ------ -------- ----- --- ------ ----- --<br>----- ----- ---------- --- --- ------ ------ ---- -- ------<br>------- --- ------ ----- --- ---- without -- ---- --- --<br>------- ------,191335,191332,190945.006,190959,190961.672,191344.99,,49,without
screen,html.Screen,2_1_1_1_50,2022-02-15T14:08:50.215Z,,,,,,,,,,,,,,,,,54,,,,,,,,,,,,,,345.3099999970291,,response,,,,100,,,,,,,Space,keypress(Space),,,,,,,,-- --- ---- --- ------ ----- ------- ---- -- --- ------- --<br>------- ---------- ------ -- ----- -- ----- -- ---- ------<br>--- ----- --- --- ------ -------- ----- --- ------ ----- --<br>----- ----- ---------- --- --- ------ ------ ---- -- ------<br>------- --- ------ ----- --- ---- ------- an ---- --- --<br>------- ------,191692.59999999404,191690.29999999702,191328.324,191335.29999999702,191344.99,191694.976,,50,an
screen,html.Screen,2_1_1_1_51,2022-02-15T14:08:50.587Z,,,,,,,,,,,,,,,,,54,,,,,,,,,,,,,,366.5240000000049,,response,,,,100,,,,,,,Space,keypress(Space),,,,,,,,-- --- ---- --- ------ ----- ------- ---- -- --- ------- --<br>------- ---------- ------ -- ----- -- ----- -- ---- ------<br>--- ----- --- --- ------ -------- ----- --- ------ ----- --<br>----- ----- ---------- --- --- ------ ------ ---- -- ------<br>------- --- ------ ----- --- ---- ------- -- easy --- --<br>------- ------,192064.29999999702,192061.5,191678.31,191692.69999999553,191694.976,192078.294,,51,easy
screen,html.Screen,2_1_1_1_52,2022-02-15T14:08:50.947Z,,,,,,,,,,,,,,,,,54,,,,,,,,,,,,,,343.1059999985155,,response,,,,100,,,,,,,Space,keypress(Space),,,,,,,,-- --- ---- --- ------ ----- ------- ---- -- --- ------- --<br>------- ---------- ------ -- ----- -- ----- -- ---- ------<br>--- ----- --- --- ------ -------- ----- --- ------ ----- --<br>----- ----- ---------- --- --- ------ ------ ---- -- ------<br>------- --- ------ ----- --- ---- ------- -- ---- way --<br>------- ------,192424.29999999702,192421.3999999985,192061.628,192065.79999999702,192078.294,192428.28,,52,way
screen,html.Screen,2_1_1_1_53,2022-02-15T14:08:51.285Z,,,,,,,,,,,,,,,,,54,,,,,,,,,,,,,,332.3199999940407,,response,,,,100,,,,,,,Space,keypress(Space),,,,,,,,-- --- ---- --- ------ ----- ------- ---- -- --- ------- --<br>------- ---------- ------ -- ----- -- ----- -- ---- ------<br>--- ----- --- --- ------ -------- ----- --- ------ ----- --<br>----- ----- ---------- --- --- ------ ------ ---- -- ------<br>------- --- ------ ----- --- ---- ------- -- ---- --- of<br>------- ------,192763,192760.59999999404,192411.614,192424.69999999553,192428.28,192778.266,,53,of
screen,html.Screen,2_1_1_1_54,2022-02-15T14:08:51.834Z,,,,,,,,,,,,,,,,,54,,,,,,,,,,,,,,530.5339999970165,,response,,,,100,,,,,,,Space,keypress(Space),,,,,,,,-- --- ---- --- ------ ----- ------- ---- -- --- ------- --<br>------- ---------- ------ -- ----- -- ----- -- ---- ------<br>--- ----- --- --- ------ -------- ----- --- ------ ----- --<br>----- ----- ---------- --- --- ------ ------ ---- -- ------<br>------- --- ------ ----- --- ---- ------- -- ---- --- --<br>raising ------,193311.8999999985,193308.79999999702,192761.6,192763.29999999702,192778.266,193328.244,,54,raising
screen,html.Screen,2_1_1_1_55,2022-02-15T14:08:52.319Z,,,,,,,,,,,,,,,,,54,,,,,,,,,,,,,,467.15599999850383,,response,,,,100,,,,,,,Space,keypress(Space),,,,,,,,-- --- ---- --- ------ ----- ------- ---- -- --- ------- --<br>------- ---------- ------ -- ----- -- ----- -- ---- ------<br>--- ----- --- --- ------ -------- ----- --- ------ ----- --<br>----- ----- ---------- --- --- ------ ------ ---- -- ------<br>------- --- ------ ----- --- ---- ------- -- ---- --- --<br>------- money.,193797,193795.3999999985,193311.578,193312.19999999553,193328.244,193811.558,,55,money.
Item 100,flow.Loop,2_1_1_1,2022-02-15T14:08:52.320Z,,,,,,,,,,,,,,,,,,,,,,,,,,,,,,,24082.877999998513,,completion,,,,,F,,,,,,,,,,,silence,,,,,193797.29999999702,193795.3999999985,169695.856,169697.8999999985,169712.522,193811.558,,,
Question 1,html.Screen,2_1_1_2,2022-02-15T14:08:55.396Z,,,,,,,,,,,,,,,,,,,,,,,,,,,,true,TRUE,,3060.5419999940495,,response,,,,100,F,,,,,,TRUE,click #choice-1,,,,silence,,,,,196873.69999999553,196872.09999999404,193794.892,193797.3999999985,193811.558,196878.102,,,
Question 2,html.Screen,2_1_1_3,2022-02-15T14:08:58.563Z,,,,,,,,,,,,,,,,,,,,,,,,,,,,true,FALSE,,3160.8979999999865,,response,,,,100,F,,,,,,FALSE,click #choice-2,,,,silence,,,,,200040.8999999985,200039,196861.436,196873.79999999702,196878.102,200044.642,,,
Item 100,flow.Sequence,2_1_1,2022-02-15T14:08:58.564Z,,,,,,,,,,,,,,,,,,,,,,,,,,,,,,,40326.07800000001,,completion,,,,,,,,,,,,,,,,,,,,,200041.29999999702,200039,159696.256,159709.59999999404,159712.922,200044.642,,,
End of Practice,html.Page,2_1_2,2022-02-15T14:09:02.080Z,,,,,,,,,,,,,,,,,,,,,,,,,,,,,,,3512.7579999985173,,form submission,,,,,,,,,,,,,,,,,,,,,203557.8999999985,203557.3999999985,200027.976,200041.5,200044.642,203561.168,,,
Practice,flow.Sequence,2_1,2022-02-15T14:09:02.080Z,,,,,,,,,,,,,,,,,,,,,,,,,,,,,,,83659.55199999851,,completion,,,,,,,,,,,,,,,,,,,,,203558,203557.3999999985,119881.182,119895.39999999851,119897.848,203561.168,,,
Trap_instruction,html.Page,2_2_0,2022-02-15T14:09:05.767Z,,,,,,,,,,,,,,,,,,,,,,,,,,,,,,,3682.831999999995,,form submission,,,,,,,,,,,,,,,,,,,,,207244.3999999985,207244,203544.502,203558.19999999553,203561.168,207261.02,,,
trap_trial,html.Screen,2_2_1,2022-02-15T14:09:09.232Z,,,,,,,,,,,,,,,,,,,,,,,,,,,,true,1,,3444.9800000000105,,response,,,,,,,,,,,1,click #choice-1,,,,,,,,,210710,210706,207227.688,207244.69999999553,207261.02,210710.882,,,
end of trap trial,html.Page,2_2_2,2022-02-15T14:09:11.213Z,,,,,,,,,,,,,,,,,,,,,,,,,,,,,,,1980.0179999984975,,form submission,,,,,,,,,,,,,,,,,,,,,212691.29999999702,212690.8999999985,210694.216,210710.09999999404,210710.882,212694.136,,,
Trap 1,flow.Sequence,2_2,2022-02-15T14:09:11.214Z,,,,,,,,,,,,,,,,,,,,,,,,,,,,,,,9129.731999998505,,completion,,,,,,,,,,,,,,,,,,,,,212691.5,212690.8999999985,203544.502,203558.19999999553,203561.168,212694.136,,,
Standby,html.Page,2_3_0,2022-02-15T14:09:19.201Z,,,,,,,,,,,,,,,,,,,,,,,,,,,,,,,7999.679999999993,,timeout,,,,,,,,,,,,,,,,,,,,,220679.29999999702,220677.15,212677.47,212691.69999999553,212694.136,220693.816,,,
Holding screen,html.Screen,2_3_1_0_0,2022-02-15T14:09:26.200Z,,,,,,,,,,,,,,,,,,,,,,,,,,,,,,,6999.720000000001,,timeout,,,,,,,,,,,,,,,,,,,,,227678.69999999553,227676.87,220677.15,220679.69999999553,220693.816,227693.536,,,
screen,html.Screen,2_3_1_0_1_0,2022-02-15T14:09:27.566Z,,,,,,,,,,,,,,,,,15,,,,,,,,,,,,,,1346.6639999955369,,response,,,,7,F,,,,,,Space,keypress(Space),,,,instrumental,,,,Greg --------- ---------- - --- ------- -- --- ------------<br>----- -- -------- ------- ---- ------ - -------- ---- -----<br>--- ------- ---- -- --- -------- --- - ----- ------ ---- --<br>-------- --- -------- -------- --- -------- ---- -- ----- -<br>-------- ---- --- ---------- --------- -- ------- ------ -<br>--------- ----- -----,229044.09999999404,229040.19999999553,227676.87,227679.09999999404,227693.536,229060.148,,0,Greg
screen,html.Screen,2_3_1_0_1_1,2022-02-15T14:09:28.023Z,,,,,,,,,,,,,,,,,15,,,,,,,,,,,,,,437.8520000000135,,response,,,,7,F,,,,,,Space,keypress(Space),,,,instrumental,,,,"---- Anderson, ---------- - --- ------- -- --- ------------<br>----- -- -------- ------- ---- ------ - -------- ---- -----<br>--- ------- ---- -- --- -------- --- - ----- ------ ---- --<br>-------- --- -------- -------- --- -------- ---- -- ----- -<br>-------- ---- --- ---------- --------- -- ------- ------ -<br>--------- ----- -----",229501.59999999404,229498,229043.482,229044.3999999985,229060.148,229510.13,,1,"Anderson,"
screen,html.Screen,2_3_1_0_1_2,2022-02-15T14:09:28.819Z,,,,,,,,,,,,,,,,,15,,,,,,,,,,,,,,784.2699999985052,,response,,,,7,F,,,,,,Space,keypress(Space),,,,instrumental,,,,---- --------- considered - --- ------- -- --- ------------<br>----- -- -------- ------- ---- ------ - -------- ---- -----<br>--- ------- ---- -- --- -------- --- - ----- ------ ---- --<br>-------- --- -------- -------- --- -------- ---- -- ----- -<br>-------- ---- --- ---------- --------- -- ------- ------ -<br>--------- ----- -----,230297.59999999404,230294.3999999985,229493.464,229501.79999999702,229510.13,230310.098,,2,considered
screen,html.Screen,2_3_1_0_1_3,2022-02-15T14:09:29.233Z,,,,,,,,,,,,,,,,,15,,,,,,,,,,,,,,398.30199999851175,,response,,,,7,F,,,,,,Space,keypress(Space),,,,instrumental,,,,---- --------- ---------- a --- ------- -- --- ------------<br>----- -- -------- ------- ---- ------ - -------- ---- -----<br>--- ------- ---- -- --- -------- --- - ----- ------ ---- --<br>-------- --- -------- -------- --- -------- ---- -- ----- -<br>-------- ---- --- ---------- --------- -- ------- ------ -<br>--------- ----- -----,230711.29999999702,230708.3999999985,230293.432,230297.8999999985,230310.098,230726.748,,3,a
screen,html.Screen,2_3_1_0_1_4,2022-02-15T14:09:29.606Z,,,,,,,,,,,,,,,,,15,,,,,,,,,,,,,,354.45199999553734,,response,,,,7,F,,,,,,Space,keypress(Space),,,,instrumental,,,,---- --------- ---------- - key ------- -- --- ------------<br>----- -- -------- ------- ---- ------ - -------- ---- -----<br>--- ------- ---- -- --- -------- --- - ----- ------ ---- --<br>-------- --- -------- -------- --- -------- ---- -- ----- -<br>-------- ---- --- ---------- --------- -- ------- ------ -<br>--------- ----- -----,231084.69999999553,231081.19999999553,230710.082,230711.5,230726.748,231093.4,,4,key
screen,html.Screen,2_3_1_0_1_5,2022-02-15T14:09:30.207Z,,,,,,,,,,,,,,,,,15,,,,,,,,,,,,,,588.7999999955355,,response,,,,7,F,,,,,,Space,keypress(Space),,,,instrumental,,,,---- --------- ---------- - --- witness -- --- ------------<br>----- -- -------- ------- ---- ------ - -------- ---- -----<br>--- ------- ---- -- --- -------- --- - ----- ------ ---- --<br>-------- --- -------- -------- --- -------- ---- -- ----- -<br>-------- ---- --- ---------- --------- -- ------- ------ -<br>--------- ----- -----,231685.5,231682.19999999553,231076.734,231084.8999999985,231093.4,231693.376,,5,witness
screen,html.Screen,2_3_1_0_1_6,2022-02-15T14:09:30.801Z,,,,,,,,,,,,,,,,,15,,,,,,,,,,,,,,582.6240000000107,,response,,,,7,F,,,,,,Space,keypress(Space),,,,instrumental,,,,---- --------- ---------- - --- ------- by --- ------------<br>----- -- -------- ------- ---- ------ - -------- ---- -----<br>--- ------- ---- -- --- -------- --- - ----- ------ ---- --<br>-------- --- -------- -------- --- -------- ---- -- ----- -<br>-------- ---- --- ---------- --------- -- ------- ------ -<br>--------- ----- -----,232279.29999999702,232276,231676.71,231685.79999999702,231693.376,232293.352,,6,by
screen,html.Screen,2_3_1_0_1_7,2022-02-15T14:09:31.240Z,,,,,,,,,,,,,,,,,15,,,,,,,,,,,,,,422.0479999984964,,response,,,,7,F,,,,,,Space,keypress(Space),,,,instrumental,,,,---- --------- ---------- - --- ------- -- the ------------<br>----- -- -------- ------- ---- ------ - -------- ---- -----<br>--- ------- ---- -- --- -------- --- - ----- ------ ---- --<br>-------- --- -------- -------- --- -------- ---- -- ----- -<br>-------- ---- --- ---------- --------- -- ------- ------ -<br>--------- ----- -----,232718.69999999553,232715.3999999985,232276.686,232279.59999999404,232293.352,232726.668,,7,the
screen,html.Screen,2_3_1_0_1_8,2022-02-15T14:09:31.688Z,,,,,,,,,,,,,,,,,15,,,,,,,,,,,,,,436.23199999850476,,response,,,,7,F,,,,,,Space,keypress(Space),,,,instrumental,,,,"---- --------- ---------- - --- ------- -- --- prosecution,<br>----- -- -------- ------- ---- ------ - -------- ---- -----<br>--- ------- ---- -- --- -------- --- - ----- ------ ---- --<br>-------- --- -------- -------- --- -------- ---- -- ----- -<br>-------- ---- --- ---------- --------- -- ------- ------ -<br>--------- ----- -----",233166.09999999404,233162.8999999985,232710.002,232718.8999999985,232726.668,233176.65,,8,"prosecution,"
screen,html.Screen,2_3_1_0_1_9,2022-02-15T14:09:32.222Z,,,,,,,,,,,,,,,,,15,,,,,,,,,,,,,,520.2499999985157,,response,,,,7,F,,,,,,Space,keypress(Space),,,,instrumental,,,,---- --------- ---------- - --- ------- -- --- ------------<br>vowed -- -------- ------- ---- ------ - -------- ---- -----<br>--- ------- ---- -- --- -------- --- - ----- ------ ---- --<br>-------- --- -------- -------- --- -------- ---- -- ----- -<br>-------- ---- --- ---------- --------- -- ------- ------ -<br>--------- ----- -----,233700.29999999702,233696.8999999985,233159.984,233166.29999999702,233176.65,233709.962,,9,vowed
screen,html.Screen,2_3_1_0_1_10,2022-02-15T14:09:32.610Z,,,,,,,,,,,,,,,,,15,,,,,,,,,,,,,,374.7379999955301,,response,,,,7,F,,,,,,Space,keypress(Space),,,,instrumental,,,,---- --------- ---------- - --- ------- -- --- ------------<br>----- he -------- ------- ---- ------ - -------- ---- -----<br>--- ------- ---- -- --- -------- --- - ----- ------ ---- --<br>-------- --- -------- -------- --- -------- ---- -- ----- -<br>-------- ---- --- ---------- --------- -- ------- ------ -<br>--------- ----- -----,234088,234084.69999999553,233693.296,233700.3999999985,233709.962,234093.28,,10,he
screen,html.Screen,2_3_1_0_1_11,2022-02-15T14:09:33.107Z,,,,,,,,,,,,,,,,,15,,,,,,,,,,,,,,489.01999999702093,,response,,,,7,F,,,,,,Space,keypress(Space),,,,instrumental,,,,---- --------- ---------- - --- ------- -- --- ------------<br>----- -- wouldn't ------- ---- ------ - -------- ---- -----<br>--- ------- ---- -- --- -------- --- - ----- ------ ---- --<br>-------- --- -------- -------- --- -------- ---- -- ----- -<br>-------- ---- --- ---------- --------- -- ------- ------ -<br>--------- ----- -----,234585.79999999702,234582.29999999702,234076.614,234088.19999999553,234093.28,234593.26,,11,wouldn't
screen,html.Screen,2_3_1_0_1_12,2022-02-15T14:09:33.502Z,,,,,,,,,,,,,,,,,15,,,,,,,,,,,,,,384.53999999701045,,response,,,,7,F,,,,,,Space,keypress(Space),,,,instrumental,,,,---- --------- ---------- - --- ------- -- --- ------------<br>----- -- -------- testify ---- ------ - -------- ---- -----<br>--- ------- ---- -- --- -------- --- - ----- ------ ---- --<br>-------- --- -------- -------- --- -------- ---- -- ----- -<br>-------- ---- --- ---------- --------- -- ------- ------ -<br>--------- ----- -----,234980.69999999553,234977.79999999702,234576.594,234585.8999999985,234593.26,234993.244,,12,testify
screen,html.Screen,2_3_1_0_1_13,2022-02-15T14:09:33.750Z,,,,,,,,,,,,,,,,,15,,,,,,,,,,,,,,232.0559999970137,,response,,,,7,F,,,,,,Space,keypress(Space),,,,instrumental,,,,---- --------- ---------- - --- ------- -- --- ------------<br>----- -- -------- ------- when ------ - -------- ---- -----<br>--- ------- ---- -- --- -------- --- - ----- ------ ---- --<br>-------- --- -------- -------- --- -------- ---- -- ----- -<br>-------- ---- --- ---------- --------- -- ------- ------ -<br>--------- ----- -----,235228,235225.29999999702,234976.578,234981,234993.244,235243.234,,13,when
screen,html.Screen,2_3_1_0_1_14,2022-02-15T14:09:33.998Z,,,,,,,,,,,,,,,,,15,,,,,,,,,,,,,,229.9659999955329,,response,,,,7,F,,,,,,Space,keypress(Space),,,,instrumental,,,,---- --------- ---------- - --- ------- -- --- ------------<br>----- -- -------- ------- ---- served - -------- ---- -----<br>--- ------- ---- -- --- -------- --- - ----- ------ ---- --<br>-------- --- -------- -------- --- -------- ---- -- ----- -<br>-------- ---- --- ---------- --------- -- ------- ------ -<br>--------- ----- -----,235476.5,235473.19999999553,235226.568,235228.19999999553,235243.234,235493.224,,14,served
screen,html.Screen,2_3_1_0_1_15,2022-02-15T14:09:34.337Z,,,,,,,,,,,,,,,,,15,,,,,,,,,,,,,,318.9759999955422,,response,,,,7,F,,,,,,Space,keypress(Space),,,,instrumental,,,,---- --------- ---------- - --- ------- -- --- ------------<br>----- -- -------- ------- ---- ------ a -------- ---- -----<br>--- ------- ---- -- --- -------- --- - ----- ------ ---- --<br>-------- --- -------- -------- --- -------- ---- -- ----- -<br>-------- ---- --- ---------- --------- -- ------- ------ -<br>--------- ----- -----,235815.29999999702,235812.19999999553,235476.558,235476.59999999404,235493.224,235826.544,,15,a
screen,html.Screen,2_3_1_0_1_16,2022-02-15T14:09:34.692Z,,,,,,,,,,,,,,,,,15,,,,,,,,,,,,,,341.15599999553524,,response,,,,7,F,,,,,,Space,keypress(Space),,,,instrumental,,,,---- --------- ---------- - --- ------- -- --- ------------<br>----- -- -------- ------- ---- ------ - subpoena ---- -----<br>--- ------- ---- -- --- -------- --- - ----- ------ ---- --<br>-------- --- -------- -------- --- -------- ---- -- ----- -<br>-------- ---- --- ---------- --------- -- ------- ------ -<br>--------- ----- -----,236170.8999999985,236167.69999999553,235809.878,235815.69999999553,235826.544,236176.53,,16,subpoena
screen,html.Screen,2_3_1_0_1_17,2022-02-15T14:09:35.085Z,,,,,,,,,,,,,,,,,15,,,,,,,,,,,,,,383.6699999955308,,response,,,,7,F,,,,,,Space,keypress(Space),,,,instrumental,,,,---- --------- ---------- - --- ------- -- --- ------------<br>----- -- -------- ------- ---- ------ - -------- last -----<br>--- ------- ---- -- --- -------- --- - ----- ------ ---- --<br>-------- --- -------- -------- --- -------- ---- -- ----- -<br>-------- ---- --- ---------- --------- -- ------- ------ -<br>--------- ----- -----,236563.29999999702,236560.19999999553,236159.864,236171.19999999553,236176.53,236576.514,,17,last
screen,html.Screen,2_3_1_0_1_18,2022-02-15T14:09:35.437Z,,,,,,,,,,,,,,,,,15,,,,,,,,,,,,,,336.1859999955341,,response,,,,7,F,,,,,,Space,keypress(Space),,,,instrumental,,,,---- --------- ---------- - --- ------- -- --- ------------<br>----- -- -------- ------- ---- ------ - -------- ---- week.<br>--- ------- ---- -- --- -------- --- - ----- ------ ---- --<br>-------- --- -------- -------- --- -------- ---- -- ----- -<br>-------- ---- --- ---------- --------- -- ------- ------ -<br>--------- ----- -----,236915.69999999553,236912.69999999553,236559.848,236563.59999999404,236576.514,236926.5,,18,week.
screen,html.Screen,2_3_1_0_1_19,2022-02-15T14:09:36.721Z,,,,,,,,,,,,,,,,,15,,,,,,,,,,,,,,1271,,response,,,,7,F,,,,,,Space,keypress(Space),,,,instrumental,,,,---- --------- ---------- - --- ------- -- --- ------------<br>----- -- -------- ------- ---- ------ - -------- ---- -----<br>His ------- ---- -- --- -------- --- - ----- ------ ---- --<br>-------- --- -------- -------- --- -------- ---- -- ----- -<br>-------- ---- --- ---------- --------- -- ------- ------ -<br>--------- ----- -----,238199.8999999985,238197.5,236909.834,236915.79999999702,236926.5,238209.782,,19,His
screen,html.Screen,2_3_1_0_1_20,2022-02-15T14:09:37.138Z,,,,,,,,,,,,,,,,,15,,,,,,,,,,,,,,403.317999994033,,response,,,,7,F,,,,,,Space,keypress(Space),,,,instrumental,,,,---- --------- ---------- - --- ------- -- --- ------------<br>----- -- -------- ------- ---- ------ - -------- ---- -----<br>--- lawyers ---- -- --- -------- --- - ----- ------ ---- --<br>-------- --- -------- -------- --- -------- ---- -- ----- -<br>-------- ---- --- ---------- --------- -- ------- ------ -<br>--------- ----- -----,238616.19999999553,238613.09999999404,238193.116,238200.3999999985,238209.782,238626.432,,20,lawyers
screen,html.Screen,2_3_1_0_1_21,2022-02-15T14:09:37.406Z,,,,,,,,,,,,,,,,,15,,,,,,,,,,,,,,254.16799999403884,,response,,,,7,F,,,,,,Space,keypress(Space),,,,instrumental,,,,---- --------- ---------- - --- ------- -- --- ------------<br>----- -- -------- ------- ---- ------ - -------- ---- -----<br>--- ------- said -- --- -------- --- - ----- ------ ---- --<br>-------- --- -------- -------- --- -------- ---- -- ----- -<br>-------- ---- --- ---------- --------- -- ------- ------ -<br>--------- ----- -----,238883.8999999985,238880.59999999404,238609.766,238616.3999999985,238626.432,238893.088,,21,said
screen,html.Screen,2_3_1_0_1_22,2022-02-15T14:09:37.645Z,,,,,,,,,,,,,,,,,15,,,,,,,,,,,,,,225.71199999703094,,response,,,,7,F,,,,,,Space,keypress(Space),,,,instrumental,,,,---- --------- ---------- - --- ------- -- --- ------------<br>----- -- -------- ------- ---- ------ - -------- ---- -----<br>--- ------- ---- he --- -------- --- - ----- ------ ---- --<br>-------- --- -------- -------- --- -------- ---- -- ----- -<br>-------- ---- --- ---------- --------- -- ------- ------ -<br>--------- ----- -----,239123.09999999404,239118.79999999702,238876.422,238884.29999999702,238893.088,239126.412,,22,he
screen,html.Screen,2_3_1_0_1_23,2022-02-15T14:09:37.955Z,,,,,,,,,,,,,,,,,15,,,,,,,,,,,,,,304.2879999955185,,response,,,,7,F,,,,,,Space,keypress(Space),,,,instrumental,,,,---- --------- ---------- - --- ------- -- --- ------------<br>----- -- -------- ------- ---- ------ - -------- ---- -----<br>--- ------- ---- -- was -------- --- - ----- ------ ---- --<br>-------- --- -------- -------- --- -------- ---- -- ----- -<br>-------- ---- --- ---------- --------- -- ------- ------ -<br>--------- ----- -----,239433.19999999553,239430.69999999553,239109.746,239123.29999999702,239126.412,239443.066,,23,was
screen,html.Screen,2_3_1_0_1_24,2022-02-15T14:09:38.256Z,,,,,,,,,,,,,,,,,15,,,,,,,,,,,,,,288.23399999702815,,response,,,,7,F,,,,,,Space,keypress(Space),,,,instrumental,,,,---- --------- ---------- - --- ------- -- --- ------------<br>----- -- -------- ------- ---- ------ - -------- ---- -----<br>--- ------- ---- -- --- prepared --- - ----- ------ ---- --<br>-------- --- -------- -------- --- -------- ---- -- ----- -<br>-------- ---- --- ---------- --------- -- ------- ------ -<br>--------- ----- -----,239734.19999999553,239731.29999999702,239426.4,239433.29999999702,239443.066,239743.054,,24,prepared
screen,html.Screen,2_3_1_0_1_25,2022-02-15T14:09:38.568Z,,,,,,,,,,,,,,,,,15,,,,,,,,,,,,,,300.5459999940358,,response,,,,7,F,,,,,,Space,keypress(Space),,,,instrumental,,,,---- --------- ---------- - --- ------- -- --- ------------<br>----- -- -------- ------- ---- ------ - -------- ---- -----<br>--- ------- ---- -- --- -------- for - ----- ------ ---- --<br>-------- --- -------- -------- --- -------- ---- -- ----- -<br>-------- ---- --- ---------- --------- -- ------- ------ -<br>--------- ----- -----,240046.59999999404,240043.59999999404,239726.388,239734.3999999985,239743.054,240059.708,,25,for
screen,html.Screen,2_3_1_0_1_26,2022-02-15T14:09:38.813Z,,,,,,,,,,,,,,,,,15,,,,,,,,,,,,,,229.0919999970065,,response,,,,7,F,,,,,,Space,keypress(Space),,,,instrumental,,,,---- --------- ---------- - --- ------- -- --- ------------<br>----- -- -------- ------- ---- ------ - -------- ---- -----<br>--- ------- ---- -- --- -------- --- a ----- ------ ---- --<br>-------- --- -------- -------- --- -------- ---- -- ----- -<br>-------- ---- --- ---------- --------- -- ------- ------ -<br>--------- ----- -----,240292,240288.79999999702,240043.042,240046.79999999702,240059.708,240293.032,,26,a
screen,html.Screen,2_3_1_0_1_27,2022-02-15T14:09:39.087Z,,,,,,,,,,,,,,,,,15,,,,,,,,,,,,,,269.26799999701325,,response,,,,7,F,,,,,,Space,keypress(Space),,,,instrumental,,,,---- --------- ---------- - --- ------- -- --- ------------<br>----- -- -------- ------- ---- ------ - -------- ---- -----<br>--- ------- ---- -- --- -------- --- - third ------ ---- --<br>-------- --- -------- -------- --- -------- ---- -- ----- -<br>-------- ---- --- ---------- --------- -- ------- ------ -<br>--------- ----- -----,240565.3999999985,240562.29999999702,240276.366,240292.09999999404,240293.032,240576.354,,27,third
screen,html.Screen,2_3_1_0_1_28,2022-02-15T14:09:39.436Z,,,,,,,,,,,,,,,,,15,,,,,,,,,,,,,,335.4459999970277,,response,,,,7,F,,,,,,Space,keypress(Space),,,,instrumental,,,,---- --------- ---------- - --- ------- -- --- ------------<br>----- -- -------- ------- ---- ------ - -------- ---- -----<br>--- ------- ---- -- --- -------- --- - ----- prison ---- --<br>-------- --- -------- -------- --- -------- ---- -- ----- -<br>-------- ---- --- ---------- --------- -- ------- ------ -<br>--------- ----- -----,240914.79999999702,240911.79999999702,240559.688,240565.79999999702,240576.354,240926.34,,28,prison
screen,html.Screen,2_3_1_0_1_29,2022-02-15T14:09:39.777Z,,,,,,,,,,,,,,,,,15,,,,,,,,,,,,,,326.5599999985134,,response,,,,7,F,,,,,,Space,keypress(Space),,,,instrumental,,,,---- --------- ---------- - --- ------- -- --- ------------<br>----- -- -------- ------- ---- ------ - -------- ---- -----<br>--- ------- ---- -- --- -------- --- - ----- ------ stay --<br>-------- --- -------- -------- --- -------- ---- -- ----- -<br>-------- ---- --- ---------- --------- -- ------- ------ -<br>--------- ----- -----,241255.8999999985,241252.8999999985,240909.674,240915.09999999404,240926.34,241259.66,,29,stay
screen,html.Screen,2_3_1_0_1_30,2022-02-15T14:09:40.090Z,,,,,,,,,,,,,,,,,15,,,,,,,,,,,,,,305.2399999985064,,response,,,,7,F,,,,,,Space,keypress(Space),,,,instrumental,,,,---- --------- ---------- - --- ------- -- --- ------------<br>----- -- -------- ------- ---- ------ - -------- ---- -----<br>--- ------- ---- -- --- -------- --- - ----- ------ ---- to<br>-------- --- -------- -------- --- -------- ---- -- ----- -<br>-------- ---- --- ---------- --------- -- ------- ------ -<br>--------- ----- -----,241568,241564.8999999985,241242.994,241256.19999999553,241259.66,241576.314,,30,to
screen,html.Screen,2_3_1_0_1_31,2022-02-15T14:09:40.461Z,,,,,,,,,,,,,,,,,15,,,,,,,,,,,,,,360.68599999998696,,response,,,,7,F,,,,,,Space,keypress(Space),,,,instrumental,,,,---- --------- ---------- - --- ------- -- --- ------------<br>----- -- -------- ------- ---- ------ - -------- ---- -----<br>--- ------- ---- -- --- -------- --- - ----- ------ ---- --<br>maintain --- -------- -------- --- -------- ---- -- ----- -<br>-------- ---- --- ---------- --------- -- ------- ------ -<br>--------- ----- -----,241939.8999999985,241937,241559.648,241568.3999999985,241576.314,241942.966,,31,maintain
screen,html.Screen,2_3_1_0_1_32,2022-02-15T14:09:40.742Z,,,,,,,,,,,,,,,,,15,,,,,,,,,,,,,,274.83399999703397,,response,,,,7,F,,,,,,Space,keypress(Space),,,,instrumental,,,,---- --------- ---------- - --- ------- -- --- ------------<br>----- -- -------- ------- ---- ------ - -------- ---- -----<br>--- ------- ---- -- --- -------- --- - ----- ------ ---- --<br>-------- his -------- -------- --- -------- ---- -- ----- -<br>-------- ---- --- ---------- --------- -- ------- ------ -<br>--------- ----- -----,242220.69999999553,242217.79999999702,241926.3,241940.19999999553,241942.966,242226.288,,32,his
screen,html.Screen,2_3_1_0_1_33,2022-02-15T14:09:40.947Z,,,,,,,,,,,,,,,,,15,,,,,,,,,,,,,,196.11199999850942,,response,,,,7,F,,,,,,Space,keypress(Space),,,,instrumental,,,,---- --------- ---------- - --- ------- -- --- ------------<br>----- -- -------- ------- ---- ------ - -------- ---- -----<br>--- ------- ---- -- --- -------- --- - ----- ------ ---- --<br>-------- --- silence. -------- --- -------- ---- -- ----- -<br>-------- ---- --- ---------- --------- -- ------- ------ -<br>--------- ----- -----,242425.09999999404,242422.3999999985,242209.622,242220.8999999985,242226.288,242426.28,,33,silence.
screen,html.Screen,2_3_1_0_1_34,2022-02-15T14:09:41.384Z,,,,,,,,,,,,,,,,,15,,,,,,,,,,,,,,433.22000000000116,,response,,,,7,F,,,,,,Space,keypress(Space),,,,instrumental,,,,---- --------- ---------- - --- ------- -- --- ------------<br>----- -- -------- ------- ---- ------ - -------- ---- -----<br>--- ------- ---- -- --- -------- --- - ----- ------ ---- --<br>-------- --- -------- Anderson --- -------- ---- -- ----- -<br>-------- ---- --- ---------- --------- -- ------- ------ -<br>--------- ----- -----,242862.69999999553,242859.5,242409.614,242425.3999999985,242426.28,242876.262,,34,Anderson
screen,html.Screen,2_3_1_0_1_35,2022-02-15T14:09:41.736Z,,,,,,,,,,,,,,,,,15,,,,,,,,,,,,,,335.33799999405164,,response,,,,7,F,,,,,,Space,keypress(Space),,,,instrumental,,,,---- --------- ---------- - --- ------- -- --- ------------<br>----- -- -------- ------- ---- ------ - -------- ---- -----<br>--- ------- ---- -- --- -------- --- - ----- ------ ---- --<br>-------- --- -------- -------- was -------- ---- -- ----- -<br>-------- ---- --- ---------- --------- -- ------- ------ -<br>--------- ----- -----,243214.3999999985,243211.59999999404,242859.596,242862.8999999985,242876.262,243226.248,,35,was
screen,html.Screen,2_3_1_0_1_36,2022-02-15T14:09:41.995Z,,,,,,,,,,,,,,,,,15,,,,,,,,,,,,,,244.45199999553734,,response,,,,7,F,,,,,,Space,keypress(Space),,,,instrumental,,,,---- --------- ---------- - --- ------- -- --- ------------<br>----- -- -------- ------- ---- ------ - -------- ---- -----<br>--- ------- ---- -- --- -------- --- - ----- ------ ---- --<br>-------- --- -------- -------- --- released ---- -- ----- -<br>-------- ---- --- ---------- --------- -- ------- ------ -<br>--------- ----- -----,243473.69999999553,243470.69999999553,243209.582,243214.79999999702,243226.248,243476.238,,36,released
screen,html.Screen,2_3_1_0_1_37,2022-02-15T14:09:42.374Z,,,,,,,,,,,,,,,,,15,,,,,,,,,,,,,,372.6619999984978,,response,,,,7,F,,,,,,Space,keypress(Space),,,,instrumental,,,,---- --------- ---------- - --- ------- -- --- ------------<br>----- -- -------- ------- ---- ------ - -------- ---- -----<br>--- ------- ---- -- --- -------- --- - ----- ------ ---- --<br>-------- --- -------- -------- --- -------- July -- ----- -<br>-------- ---- --- ---------- --------- -- ------- ------ -<br>--------- ----- -----,243852.3999999985,243848.8999999985,243459.572,243474,243476.238,243859.556,,37,July
screen,html.Screen,2_3_1_0_1_38,2022-02-15T14:09:43.233Z,,,,,,,,,,,,,,,,,15,,,,,,,,,,,,,,849.0439999940281,,response,,,,7,F,,,,,,Space,keypress(Space),,,,instrumental,,,,---- --------- ---------- - --- ------- -- --- ------------<br>----- -- -------- ------- ---- ------ - -------- ---- -----<br>--- ------- ---- -- --- -------- --- - ----- ------ ---- --<br>-------- --- -------- -------- --- -------- ---- 20 ----- -<br>-------- ---- --- ---------- --------- -- ------- ------ -<br>--------- ----- -----,244712,244708.59999999404,243842.89,243852.59999999404,243859.556,244726.188,,38,20
screen,html.Screen,2_3_1_0_1_39,2022-02-15T14:09:43.854Z,,,,,,,,,,,,,,,,,15,,,,,,,,,,,,,,602.9119999940449,,response,,,,7,F,,,,,,Space,keypress(Space),,,,instrumental,,,,---- --------- ---------- - --- ------- -- --- ------------<br>----- -- -------- ------- ---- ------ - -------- ---- -----<br>--- ------- ---- -- --- -------- --- - ----- ------ ---- --<br>-------- --- -------- -------- --- -------- ---- -- after -<br>-------- ---- --- ---------- --------- -- ------- ------ -<br>--------- ----- -----,245332.3999999985,245329.09999999404,244709.522,244712.29999999702,244726.188,245342.83,,39,after
screen,html.Screen,2_3_1_0_1_40,2022-02-15T14:09:44.341Z,,,,,,,,,,,,,,,,,15,,,,,,,,,,,,,,473.6700000000128,,response,,,,7,F,,,,,,Space,keypress(Space),,,,instrumental,,,,---- --------- ---------- - --- ------- -- --- ------------<br>----- -- -------- ------- ---- ------ - -------- ---- -----<br>--- ------- ---- -- --- -------- --- - ----- ------ ---- --<br>-------- --- -------- -------- --- -------- ---- -- ----- a<br>-------- ---- --- ---------- --------- -- ------- ------ -<br>--------- ----- -----,245819.59999999404,245816.5,245326.164,245332.69999999553,245342.83,245826.144,,40,a
