sender,sender_type,sender_id,timestamp,meta,,Blues,Classical,Country,Dance,Electronic,Folk,Gospel,Hip-Hop,Jazz,Latin,Musical/Film,New-age,Pop,Prolific_id,Provo_ID,R&B,Rap,Reggae,Religious,Rock,Soul,Swing,Traditional,age,artist_name,correct,correctResponse,distraction,duration,education,ended_on,familiarity,gender,headphone_check_performance,item,list,music_frequency,offensiveness,pleasantness,position_correct,preference,response,response_action,snippet_file,song_name,song_rating,sound,stimulus_1,stimulus_2,stimulus_3,text,time_commit,time_end,time_render,time_run,time_show,time_switch,url,word,word_ID
Prolific ID,html.Form,0,2022-05-03T18:28:15.304Z,"{""labjs_version"":""20.2.2"",""labjs_build"":{""flavor"":""production"",""commit"":""a25486e0c714a0ae2ce03ff94b7bb6896854dcfa""},""location"":""https://run.pavlovia.org/mvasilev/prolific3_music_a/"",""userAgent"":""Mozilla/5.0 (Windows NT 10.0; Win64; x64) AppleWebKit/537.36 (KHTML, like Gecko) Chrome/100.0.4896.127 Safari/537.36"",""platform"":""Win32"",""language"":""en-US"",""locale"":""en-GB"",""timeZone"":""Europe/London"",""timezoneOffset"":-60,""screen_width"":1920,""screen_height"":1080,""scroll_width"":1920,""scroll_height"":921,""window_innerWidth"":1920,""window_innerHeight"":969,""devicePixelRatio"":1}",,,,,,,,,,,,,,,606451b5aab2ec4afaae10f4,,,,,,,,,,,,,,,44963.04199999981,,form submission,,,,,,,,,,,,,,,,,,,,,51384.5,51384.299999999814,6406.121,6412.5999999996275,6421.258,51390.557,{},,
Introduction,html.Screen,1_0,2022-05-03T18:29:07.035Z,,,,,,,,,,,,,,,,,,,,,,,,,,,,,,,51723.34299999944,,response,,,,,,,,,,,continue,click button,,,,,,,,,103115.39999999944,103113.89999999944,51383.597,51384.699999999255,51390.557,103117.712,,,
Volume calibration,html.Screen,1_1,2022-05-03T18:29:32.276Z,,,,,,,,,,,,,,,,,,,,,,,,,,,,,,,25236.887999999628,,response,,,,,,,,,,,continue,click button,,,,,,,,,128356.19999999925,128354.59999999963,103110.761,103115.39999999944,103117.712,128359.774,,,
Task instructions,html.Screen,1_2,2022-05-03T18:29:45.852Z,,,,,,,,,,,,,,,,,,,,,,,,,,,,,,,13571.42599999925,,response,,,,,,,,,,,continue,click button,,,,,,,,,141931.7999999998,141931.19999999925,128352.906,128356.29999999981,128359.774,141935.585,,,
Sounds,html.Screen,1_3_0_0,2022-05-03T18:29:50.099Z,,,,,,,,,,,,,,,,,,,,,,,,,,,,,,,4249.873000000021,,timeout,,,,,,,,,1,,,,,,,,S,I,O,,146179.59999999963,146178.53,141928.764,141932,141935.585,146185.458,,,
Judgement,html.Screen,1_3_0_1,2022-05-03T18:29:53.722Z,,,,,,,,,,,,,,,,,,,,,,,,,,,,true,1,,3615.941999999428,,response,,,,,,,,,1,,1,click #choice-1,,,,,S,I,O,,149802,149801.39999999944,146178.53,146179.59999999963,146185.458,149803.426,,,
Trial,flow.Sequence,1_3_0,2022-05-03T18:29:53.722Z,,,,,,,,,,,,,,,,,,,,,,,,,,,,,,,7865.814999999449,,completion,,,,,,,,,1,,,,,,,,S,I,O,,149802,149801.39999999944,141928.764,141932,141935.585,149803.426,,,
Sounds,html.Screen,1_3_1_0,2022-05-03T18:29:57.966Z,,,,,,,,,,,,,,,,,,,,,,,,,,,,,,,4249.804000000004,,timeout,,,,,,,,,1,,,,,,,,S,O,I,,154046.69999999925,154046.368,149796.454,149802.19999999925,149803.426,154053.23,,,
Judgement,html.Screen,1_3_1_1,2022-05-03T18:29:58.341Z,,,,,,,,,,,,,,,,,,,,,,,,,,,,true,1,,367.56999999980326,,response,,,,,,,,,1,,1,click #choice-1,,,,,S,O,I,,154421.19999999925,154420.7999999998,154046.368,154046.7999999998,154053.23,154437.813,,,
Trial,flow.Sequence,1_3_1,2022-05-03T18:29:58.341Z,,,,,,,,,,,,,,,,,,,,,,,,,,,,,,,4617.373999999807,,completion,,,,,,,,,1,,,,,,,,S,O,I,,154421.39999999944,154420.7999999998,149796.454,149802.09999999963,149803.426,154437.813,,,
Sounds,html.Screen,1_3_2_0,2022-05-03T18:30:02.598Z,,,,,,,,,,,,,,,,,,,,,,,,,,,,,,,4247.270000000019,,timeout,,,,,,,,,3,,,,,,,,I,O,S,,158678.5,158678.124,154414.387,154421.5,154437.813,158685.083,,,
Judgement,html.Screen,1_3_2_1,2022-05-03T18:30:02.996Z,,,,,,,,,,,,,,,,,,,,,,,,,,,,true,3,,391.11699999924167,,response,,,,,,,,,3,,3,click #choice-3,,,,,I,O,S,,159076.59999999963,159076.19999999925,158678.124,158678.5,158685.083,159080.91,,,
Trial,flow.Sequence,1_3_2,2022-05-03T18:30:02.997Z,,,,,,,,,,,,,,,,,,,,,,,,,,,,,,,4638.38699999926,,completion,,,,,,,,,3,,,,,,,,I,O,S,,159076.7999999998,159076.19999999925,154414.387,154421.5,154437.813,159080.91,,,
Sounds,html.Screen,1_3_3_0,2022-05-03T18:30:07.244Z,,,,,,,,,,,,,,,,,,,,,,,,,,,,,,,4249.826000000001,,timeout,,,,,,,,,3,,,,,,,,O,I,S,,163324.19999999925,163323.793,159073.831,159076.7999999998,159080.91,163330.736,,,
Judgement,html.Screen,1_3_3_1,2022-05-03T18:30:07.652Z,,,,,,,,,,,,,,,,,,,,,,,,,,,,true,3,,401.0639999998093,,response,,,,,,,,,3,,3,click #choice-3,,,,,O,I,S,,163732.19999999925,163731.7999999998,163323.793,163324.19999999925,163330.736,163733.357,,,
Trial,flow.Sequence,1_3_3,2022-05-03T18:30:07.652Z,,,,,,,,,,,,,,,,,,,,,,,,,,,,,,,4650.88999999981,,completion,,,,,,,,,3,,,,,,,,O,I,S,,163732.2999999998,163731.7999999998,159073.831,159076.7999999998,159080.91,163733.357,,,
Sounds,html.Screen,1_3_4_0,2022-05-03T18:30:11.897Z,,,,,,,,,,,,,,,,,,,,,,,,,,,,,,,4249.959000000003,,timeout,,,,,,,,,2,,,,,,,,I,S,O,,167976.69999999925,167976.374,163726.502,163732.2999999998,163733.357,167983.316,,,
Judgement,html.Screen,1_3_4_1,2022-05-03T18:30:12.283Z,,,,,,,,,,,,,,,,,,,,,,,,,,,,true,2,,379.3839999992633,,response,,,,,,,,,2,,2,click #choice-2,,,,,I,S,O,,168363.19999999925,168362.69999999925,167976.374,167976.69999999925,167983.316,168365.198,,,
Trial,flow.Sequence,1_3_4,2022-05-03T18:30:12.283Z,,,,,,,,,,,,,,,,,,,,,,,,,,,,,,,4629.342999999266,,completion,,,,,,,,,2,,,,,,,,I,S,O,,168363.2999999998,168362.69999999925,163726.502,163732.2999999998,163733.357,168365.198,,,
Sounds,html.Screen,1_3_5_0,2022-05-03T18:30:16.528Z,,,,,,,,,,,,,,,,,,,,,,,,,,,,,,,4249.899999999994,,timeout,,,,,,,,,2,,,,,,,,O,S,I,,172608.2999999998,172608.059,168358.229,168363.2999999998,168365.198,172615.098,,,
Judgement,html.Screen,1_3_5_1,2022-05-03T18:30:16.913Z,,,,,,,,,,,,,,,,,,,,,,,,,,,,true,2,,377.2019999998156,,response,,,,,,,,,2,,2,click #choice-2,,,,,O,S,I,,172993,172992.2999999998,172608.059,172608.5,172615.098,172996.936,,,
Trial,flow.Sequence,1_3_5,2022-05-03T18:30:16.913Z,,,,,,,,,,,,,,,,,,,,,,,,,,,,,,,4627.10199999981,,completion,,,,,,,,,2,,,,,,,,O,S,I,,172993,172992.2999999998,168358.229,168363.2999999998,168365.198,172996.936,,,
Task,flow.Loop,1_3,2022-05-03T18:30:16.915Z,,,,,,,,,,,,,,,,,,,,,,,,,,,,,,,31056.714999999822,,completion,,,1,,,,,,,,,,,,,,,,,,172995.19999999925,172992.2999999998,141928.764,141931.89999999944,141935.585,172996.936,,,
Trap,html.Screen,1_4,2022-05-03T18:30:16.916Z,,,,,,,,,,,,,,,,,,,,,,,,,,,,,,,NaN,,skipped,,,,,,,,,,,,,,,,,,,,,172995.69999999925,172992.2999999998,,172995.69999999925,,172996.936,,,
Thanks,html.Screen,1_5,2022-05-03T18:30:21.528Z,,,,,,,,,,,,,,,,,,,,,,,,,,,,,,,4610.763999999268,,response,,,,,,,,,,,continue,click button,,,,,,,,,177608.2999999998,177607.69999999925,172990.059,172995.7999999998,172996.936,185628.372,,,
Headphone screening,flow.Sequence,1,2022-05-03T18:30:21.528Z,,,,,,,,,,,,,,,,,,,,,,,,,,,,,,,126217.14299999925,,completion,,,,,,,,,,,,,,,,,,,,,177608.5,177607.69999999925,51383.597,51384.699999999255,51390.557,185628.372,,,
Instructions,html.Page,2_0,2022-05-03T18:33:09.341Z,,,,,,,,,,,,,,,,,,,,,,,,,,,,,,,159792.22799999962,,form submission,,,,,,,,,,,,,,,,,,,,,345420.7999999998,345420.5999999996,185621.433,185630,185628.372,345420.802,,,
Holding screen,html.Screen,2_1_0_0,2022-05-03T18:33:19.335Z,,,,,,,,,,,,,,,,,,,,,,,,,,,,,,,9999.601999999955,,timeout,,,,,,,,,,,,,,,,,,,,,355414.69999999925,355413.547,345413.865,345420.89999999944,345420.802,355420.404,,,
screen,html.Screen,2_1_0_1_0,2022-05-03T18:33:20.357Z,,,,,,,,,,,,,,,,,53,,,,,,,,,,,,,,1016.2959999992745,,response,,,,99,,,,,,,Space,keypress(Space),,,,,,,,When -- ----- -- ------ - ------- --- ----------<br>------------- ------ ------ ---- ---- ------- ----- -- ----<br>-------- ------- -- ---------- --- - --- ----- ----- ----<br>---- --- --- ----- --- ---- ---- ------- ----- ---- -------<br>--- --- -- ----- -- --- ---- -- --- ---- -- ------ ------<br>--- ----- -- ----,356437.0999999996,356436.69999999925,355413.547,355414.7999999998,355420.404,356441.284,,0,When
screen,html.Screen,2_1_0_1_1,2022-05-03T18:33:20.765Z,,,,,,,,,,,,,,,,,53,,,,,,,,,,,,,,403.7160000000149,,response,,,,99,,,,,,,Space,keypress(Space),,,,,,,,---- it ----- -- ------ - ------- --- ----------<br>------------- ------ ------ ---- ---- ------- ----- -- ----<br>-------- ------- -- ---------- --- - --- ----- ----- ----<br>---- --- --- ----- --- ---- ---- ------- ----- ---- -------<br>--- --- -- ----- -- --- ---- -- --- ---- -- ------ ------<br>--- ----- -- ----,356845.2999999998,356845,356434.322,356437.19999999925,356441.284,356850.889,,1,it
screen,html.Screen,2_1_0_1_2,2022-05-03T18:33:21.101Z,,,,,,,,,,,,,,,,,53,,,,,,,,,,,,,,329.91099999978906,,response,,,,99,,,,,,,Space,keypress(Space),,,,,,,,---- -- comes -- ------ - ------- --- ----------<br>------------- ------ ------ ---- ---- ------- ----- -- ----<br>-------- ------- -- ---------- --- - --- ----- ----- ----<br>---- --- --- ----- --- ---- ---- ------- ----- ---- -------<br>--- --- -- ----- -- --- ---- -- --- ---- -- ------ ------<br>--- ----- -- ----,357181,357180.7999999998,356844.03,356845.2999999998,356850.889,357184.307,,2,comes
screen,html.Screen,2_1_0_1_3,2022-05-03T18:33:21.414Z,,,,,,,,,,,,,,,,,53,,,,,,,,,,,,,,309.5929999994696,,response,,,,99,,,,,,,Space,keypress(Space),,,,,,,,---- -- ----- to ------ - ------- --- ----------<br>------------- ------ ------ ---- ---- ------- ----- -- ----<br>-------- ------- -- ---------- --- - --- ----- ----- ----<br>---- --- --- ----- --- ---- ---- ------- ----- ---- -------<br>--- --- -- ----- -- --- ---- -- --- ---- -- ------ ------<br>--- ----- -- ----,357494.19999999925,357493.89999999944,357177.36,357181.0999999996,357184.307,357496.706,,3,to
screen,html.Screen,2_1_0_1_4,2022-05-03T18:33:21.724Z,,,,,,,,,,,,,,,,,53,,,,,,,,,,,,,,307.6939999994356,,response,,,,99,,,,,,,Space,keypress(Space),,,,,,,,---- -- ----- -- having - ------- --- ----------<br>------------- ------ ------ ---- ---- ------- ----- -- ----<br>-------- ------- -- ---------- --- - --- ----- ----- ----<br>---- --- --- ----- --- ---- ---- ------- ----- ---- -------<br>--- --- -- ----- -- --- ---- -- --- ---- -- ------ ------<br>--- ----- -- ----,357804.69999999925,357804.39999999944,357489.841,357494.19999999925,357496.706,357809.207,,4,having
screen,html.Screen,2_1_0_1_5,2022-05-03T18:33:22.037Z,,,,,,,,,,,,,,,,,53,,,,,,,,,,,,,,307.49299999926006,,response,,,,99,,,,,,,Space,keypress(Space),,,,,,,,---- -- ----- -- ------ a ------- --- ----------<br>------------- ------ ------ ---- ---- ------- ----- -- ----<br>-------- ------- -- ---------- --- - --- ----- ----- ----<br>---- --- --- ----- --- ---- ---- ------- ----- ---- -------<br>--- --- -- ----- -- --- ---- -- --- ---- -- ------ ------<br>--- ----- -- ----,358117.0999999996,358116.69999999925,357802.332,357804.69999999925,357809.207,358121.698,,5,a
screen,html.Screen,2_1_0_1_6,2022-05-03T18:33:22.341Z,,,,,,,,,,,,,,,,,53,,,,,,,,,,,,,,298.9019999996526,,response,,,,99,,,,,,,Space,keypress(Space),,,,,,,,---- -- ----- -- ------ - lasting --- ----------<br>------------- ------ ------ ---- ---- ------- ----- -- ----<br>-------- ------- -- ---------- --- - --- ----- ----- ----<br>---- --- --- ----- --- ---- ---- ------- ----- ---- -------<br>--- --- -- ----- -- --- ---- -- --- ---- -- ------ ------<br>--- ----- -- ----,358420.89999999944,358420.5999999996,358114.696,358117.2999999998,358121.698,358427.319,,6,lasting
screen,html.Screen,2_1_0_1_7,2022-05-03T18:33:22.661Z,,,,,,,,,,,,,,,,,53,,,,,,,,,,,,,,313.0809999994235,,response,,,,99,,,,,,,Space,keypress(Space),,,,,,,,---- -- ----- -- ------ - ------- and ----------<br>------------- ------ ------ ---- ---- ------- ----- -- ----<br>-------- ------- -- ---------- --- - --- ----- ----- ----<br>---- --- --- ----- --- ---- ---- ------- ----- ---- -------<br>--- --- -- ----- -- --- ---- -- --- ---- -- ------ ------<br>--- ----- -- ----,358740.7999999998,358740.39999999944,358420.267,358421,358427.319,358746.679,,7,and
screen,html.Screen,2_1_0_1_8,2022-05-03T18:33:22.941Z,,,,,,,,,,,,,,,,,53,,,,,,,,,,,,,,274.2209999994375,,response,,,,99,,,,,,,Space,keypress(Space),,,,,,,,---- -- ----- -- ------ - ------- --- fulfilling<br>------------- ------ ------ ---- ---- ------- ----- -- ----<br>-------- ------- -- ---------- --- - --- ----- ----- ----<br>---- --- --- ----- --- ---- ---- ------- ----- ---- -------<br>--- --- -- ----- -- --- ---- -- --- ---- -- ------ ------<br>--- ----- -- ----,359021.19999999925,359020.89999999944,358739.795,358740.89999999944,358746.679,359024.448,,8,fulfilling
screen,html.Screen,2_1_0_1_9,2022-05-03T18:33:23.229Z,,,,,,,,,,,,,,,,,53,,,,,,,,,,,,,,284.6519999996526,,response,,,,99,,,,,,,Space,keypress(Space),,,,,,,,"---- -- ----- -- ------ - ------- --- ----------<br>relationship, ------ ------ ---- ---- ------- ----- -- ----<br>-------- ------- -- ---------- --- - --- ----- ----- ----<br>---- --- --- ----- --- ---- ---- ------- ----- ---- -------<br>--- --- -- ----- -- --- ---- -- --- ---- -- ------ ------<br>--- ----- -- ----",359309.39999999944,359309.0999999996,359017.492,359021.2999999998,359024.448,359316.116,,9,"relationship,"
screen,html.Screen,2_1_0_1_10,2022-05-03T18:33:23.549Z,,,,,,,,,,,,,,,,,53,,,,,,,,,,,,,,312.38400000002,,response,,,,99,,,,,,,Space,keypress(Space),,,,,,,,---- -- ----- -- ------ - ------- --- ----------<br>------------- common ------ ---- ---- ------- ----- -- ----<br>-------- ------- -- ---------- --- - --- ----- ----- ----<br>---- --- --- ----- --- ---- ---- ------- ----- ---- -------<br>--- --- -- ----- -- --- ---- -- --- ---- -- ------ ------<br>--- ----- -- ----,359629,359628.5,359309.221,359309.5,359316.116,359635.489,,10,common
screen,html.Screen,2_1_0_1_11,2022-05-03T18:33:23.845Z,,,,,,,,,,,,,,,,,53,,,,,,,,,,,,,,289.1109999996261,,response,,,,99,,,,,,,Space,keypress(Space),,,,,,,,---- -- ----- -- ------ - ------- --- ----------<br>------------- ------ wisdom ---- ---- ------- ----- -- ----<br>-------- ------- -- ---------- --- - --- ----- ----- ----<br>---- --- --- ----- --- ---- ---- ------- ----- ---- -------<br>--- --- -- ----- -- --- ---- -- --- ---- -- ------ ------<br>--- ----- -- ----,359924.89999999944,359924.5999999996,359628.643,359629.0999999996,359635.489,359927.261,,11,wisdom
screen,html.Screen,2_1_0_1_12,2022-05-03T18:33:24.181Z,,,,,,,,,,,,,,,,,53,,,,,,,,,,,,,,333.43899999925634,,response,,,,99,,,,,,,Space,keypress(Space),,,,,,,,---- -- ----- -- ------ - ------- --- ----------<br>------------- ------ ------ says ---- ------- ----- -- ----<br>-------- ------- -- ---------- --- - --- ----- ----- ----<br>---- --- --- ----- --- ---- ---- ------- ----- ---- -------<br>--- --- -- ----- -- --- ---- -- --- ---- -- ------ ------<br>--- ----- -- ----,360261,360260.69999999925,359920.228,359924.89999999944,359927.261,360267.522,,12,says
screen,html.Screen,2_1_0_1_13,2022-05-03T18:33:24.485Z,,,,,,,,,,,,,,,,,53,,,,,,,,,,,,,,297.27799999981653,,response,,,,99,,,,,,,Space,keypress(Space),,,,,,,,---- -- ----- -- ------ - ------- --- ----------<br>------------- ------ ------ ---- that ------- ----- -- ----<br>-------- ------- -- ---------- --- - --- ----- ----- ----<br>---- --- --- ----- --- ---- ---- ------- ----- ---- -------<br>--- --- -- ----- -- --- ---- -- --- ---- -- ------ ------<br>--- ----- -- ----,360565.19999999925,360564.7999999998,360260.579,360261.0999999996,360267.522,360566.028,,13,that
screen,html.Screen,2_1_0_1_14,2022-05-03T18:33:24.788Z,,,,,,,,,,,,,,,,,53,,,,,,,,,,,,,,302.2719999998226,,response,,,,99,,,,,,,Space,keypress(Space),,,,,,,,---- -- ----- -- ------ - ------- --- ----------<br>------------- ------ ------ ---- ---- feeling ----- -- ----<br>-------- ------- -- ---------- --- - --- ----- ----- ----<br>---- --- --- ----- --- ---- ---- ------- ----- ---- -------<br>--- --- -- ----- -- --- ---- -- --- ---- -- ------ ------<br>--- ----- -- ----,360868.69999999925,360868.2999999998,360559.179,360565.19999999925,360566.028,360871.564,,14,feeling
screen,html.Screen,2_1_0_1_15,2022-05-03T18:33:25.093Z,,,,,,,,,,,,,,,,,53,,,,,,,,,,,,,,301.03599999961443,,response,,,,99,,,,,,,Space,keypress(Space),,,,,,,,---- -- ----- -- ------ - ------- --- ----------<br>------------- ------ ------ ---- ---- ------- close -- ----<br>-------- ------- -- ---------- --- - --- ----- ----- ----<br>---- --- --- ----- --- ---- ---- ------- ----- ---- -------<br>--- --- -- ----- -- --- ---- -- --- ---- -- ------ ------<br>--- ----- -- ----,361173,361172.5999999996,360864.614,360868.69999999925,360871.564,361177.227,,15,close
screen,html.Screen,2_1_0_1_16,2022-05-03T18:33:25.389Z,,,,,,,,,,,,,,,,,53,,,,,,,,,,,,,,291.7729999999865,,response,,,,99,,,,,,,Space,keypress(Space),,,,,,,,---- -- ----- -- ------ - ------- --- ----------<br>------------- ------ ------ ---- ---- ------- ----- to ----<br>-------- ------- -- ---------- --- - --- ----- ----- ----<br>---- --- --- ----- --- ---- ---- ------- ----- ---- -------<br>--- --- -- ----- -- --- ---- -- --- ---- -- ------ ------<br>--- ----- -- ----,361469.39999999944,361469,361170.278,361173.0999999996,361177.227,361475.802,,16,to
screen,html.Screen,2_1_0_1_17,2022-05-03T18:33:25.693Z,,,,,,,,,,,,,,,,,53,,,,,,,,,,,,,,296.69799999997485,,response,,,,99,,,,,,,Space,keypress(Space),,,,,,,,---- -- ----- -- ------ - ------- --- ----------<br>------------- ------ ------ ---- ---- ------- ----- -- your<br>-------- ------- -- ---------- --- - --- ----- ----- ----<br>---- --- --- ----- --- ---- ---- ------- ----- ---- -------<br>--- --- -- ----- -- --- ---- -- --- ---- -- ------ ------<br>--- ----- -- ----,361772.89999999944,361772.5,361468.872,361469.5,361475.802,361774.307,,17,your
screen,html.Screen,2_1_0_1_18,2022-05-03T18:33:25.989Z,,,,,,,,,,,,,,,,,53,,,,,,,,,,,,,,294.7929999996559,,response,,,,99,,,,,,,Space,keypress(Space),,,,,,,,---- -- ----- -- ------ - ------- --- ----------<br>------------- ------ ------ ---- ---- ------- ----- -- ----<br>romantic ------- -- ---------- --- - --- ----- ----- ----<br>---- --- --- ----- --- ---- ---- ------- ----- ---- -------<br>--- --- -- ----- -- --- ---- -- --- ---- -- ------ ------<br>--- ----- -- ----,362069.5,362069.0999999996,361767.464,361773,361774.307,362072.943,,18,romantic
screen,html.Screen,2_1_0_1_19,2022-05-03T18:33:26.285Z,,,,,,,,,,,,,,,,,53,,,,,,,,,,,,,,292.25699999922654,,response,,,,99,,,,,,,Space,keypress(Space),,,,,,,,---- -- ----- -- ------ - ------- --- ----------<br>------------- ------ ------ ---- ---- ------- ----- -- ----<br>-------- partner -- ---------- --- - --- ----- ----- ----<br>---- --- --- ----- --- ---- ---- ------- ----- ---- -------<br>--- --- -- ----- -- --- ---- -- --- ---- -- ------ ------<br>--- ----- -- ----,362365.39999999944,362365.19999999925,362065.959,362069.5999999996,362072.943,362371.512,,19,partner
screen,html.Screen,2_1_0_1_20,2022-05-03T18:33:26.589Z,,,,,,,,,,,,,,,,,53,,,,,,,,,,,,,,297.18799999926705,,response,,,,99,,,,,,,Space,keypress(Space),,,,,,,,---- -- ----- -- ------ - ------- --- ----------<br>------------- ------ ------ ---- ---- ------- ----- -- ----<br>-------- ------- is ---------- --- - --- ----- ----- ----<br>---- --- --- ----- --- ---- ---- ------- ----- ---- -------<br>--- --- -- ----- -- --- ---- -- --- ---- -- ------ ------<br>--- ----- -- ----,362669,362668.69999999925,362364.559,362365.5,362371.512,362670.12,,20,is
screen,html.Screen,2_1_0_1_21,2022-05-03T18:33:26.893Z,,,,,,,,,,,,,,,,,53,,,,,,,,,,,,,,302.88000000000466,,response,,,,99,,,,,,,Space,keypress(Space),,,,,,,,---- -- ----- -- ------ - ------- --- ----------<br>------------- ------ ------ ---- ---- ------- ----- -- ----<br>-------- ------- -- paramount. --- - --- ----- ----- ----<br>---- --- --- ----- --- ---- ---- ------- ----- ---- -------<br>--- --- -- ----- -- --- ---- -- --- ---- -- ------ ------<br>--- ----- -- ----,362973.39999999944,362973,362663.177,362669.0999999996,362670.12,362975.679,,21,paramount.
screen,html.Screen,2_1_0_1_22,2022-05-03T18:33:27.269Z,,,,,,,,,,,,,,,,,53,,,,,,,,,,,,,,372.92099999962375,,response,,,,99,,,,,,,Space,keypress(Space),,,,,,,,---- -- ----- -- ------ - ------- --- ----------<br>------------- ------ ------ ---- ---- ------- ----- -- ----<br>-------- ------- -- ---------- But - --- ----- ----- ----<br>---- --- --- ----- --- ---- ---- ------- ----- ---- -------<br>--- --- -- ----- -- --- ---- -- --- ---- -- ------ ------<br>--- ----- -- ----,363348.89999999944,363348.5999999996,362968.809,362973.5,362975.679,363350.659,,22,But
screen,html.Screen,2_1_0_1_23,2022-05-03T18:33:27.573Z,,,,,,,,,,,,,,,,,53,,,,,,,,,,,,,,301.8410000000149,,response,,,,99,,,,,,,Space,keypress(Space),,,,,,,,---- -- ----- -- ------ - ------- --- ----------<br>------------- ------ ------ ---- ---- ------- ----- -- ----<br>-------- ------- -- ---------- --- a --- ----- ----- ----<br>---- --- --- ----- --- ---- ---- ------- ----- ---- -------<br>--- --- -- ----- -- --- ---- -- --- ---- -- ------ ------<br>--- ----- -- ----,363652.69999999925,363652.5,363343.805,363349.0999999996,363350.659,363656.21,,23,a
screen,html.Screen,2_1_0_1_24,2022-05-03T18:33:27.893Z,,,,,,,,,,,,,,,,,53,,,,,,,,,,,,,,316.78999999997905,,response,,,,99,,,,,,,Space,keypress(Space),,,,,,,,---- -- ----- -- ------ - ------- --- ----------<br>------------- ------ ------ ---- ---- ------- ----- -- ----<br>-------- ------- -- ---------- --- - new ----- ----- ----<br>---- --- --- ----- --- ---- ---- ------- ----- ---- -------<br>--- --- -- ----- -- --- ---- -- --- ---- -- ------ ------<br>--- ----- -- ----,363973.2999999998,363973,363649.235,363652.7999999998,363656.21,363975.625,,24,new
screen,html.Screen,2_1_0_1_25,2022-05-03T18:33:28.205Z,,,,,,,,,,,,,,,,,53,,,,,,,,,,,,,,309.17499999981374,,response,,,,99,,,,,,,Space,keypress(Space),,,,,,,,---- -- ----- -- ------ - ------- --- ----------<br>------------- ------ ------ ---- ---- ------- ----- -- ----<br>-------- ------- -- ---------- --- - --- study ----- ----<br>---- --- --- ----- --- ---- ---- ------- ----- ---- -------<br>--- --- -- ----- -- --- ---- -- --- ---- -- ------ ------<br>--- ----- -- ----,364285.0999999996,364284.7999999998,363968.685,363973.2999999998,363975.625,364288.201,,25,study
screen,html.Screen,2_1_0_1_26,2022-05-03T18:33:28.509Z,,,,,,,,,,,,,,,,,53,,,,,,,,,,,,,,300.5989999998128,,response,,,,99,,,,,,,Space,keypress(Space),,,,,,,,---- -- ----- -- ------ - ------- --- ----------<br>------------- ------ ------ ---- ---- ------- ----- -- ----<br>-------- ------- -- ---------- --- - --- ----- finds ----<br>---- --- --- ----- --- ---- ---- ------- ----- ---- -------<br>--- --- -- ----- -- --- ---- -- --- ---- -- ------ ------<br>--- ----- -- ----,364589.0999999996,364588.7999999998,364281.203,364285.19999999925,364288.201,364593.769,,26,finds
screen,html.Screen,2_1_0_1_27,2022-05-03T18:33:28.821Z,,,,,,,,,,,,,,,,,53,,,,,,,,,,,,,,306.83099999965634,,response,,,,99,,,,,,,Space,keypress(Space),,,,,,,,---- -- ----- -- ------ - ------- --- ----------<br>------------- ------ ------ ---- ---- ------- ----- -- ----<br>-------- ------- -- ---------- --- - --- ----- ----- that<br>---- --- --- ----- --- ---- ---- ------- ----- ---- -------<br>--- --- -- ----- -- --- ---- -- --- ---- -- ------ ------<br>--- ----- -- ----,364901,364900.5999999996,364586.801,364589.19999999925,364593.769,364906.239,,27,that
screen,html.Screen,2_1_0_1_28,2022-05-03T18:33:29.141Z,,,,,,,,,,,,,,,,,53,,,,,,,,,,,,,,314.56099999981234,,response,,,,99,,,,,,,Space,keypress(Space),,,,,,,,---- -- ----- -- ------ - ------- --- ----------<br>------------- ------ ------ ---- ---- ------- ----- -- ----<br>-------- ------- -- ---------- --- - --- ----- ----- ----<br>it's --- --- ----- --- ---- ---- ------- ----- ---- -------<br>--- --- -- ----- -- --- ---- -- --- ---- -- ------ ------<br>--- ----- -- ----,365221.0999999996,365220.7999999998,364899.296,364901,364906.239,365225.662,,28,it's
screen,html.Screen,2_1_0_1_29,2022-05-03T18:33:29.461Z,,,,,,,,,,,,,,,,,53,,,,,,,,,,,,,,315.13799999980256,,response,,,,99,,,,,,,Space,keypress(Space),,,,,,,,---- -- ----- -- ------ - ------- --- ----------<br>------------- ------ ------ ---- ---- ------- ----- -- ----<br>-------- ------- -- ---------- --- - --- ----- ----- ----<br>---- not --- ----- --- ---- ---- ------- ----- ---- -------<br>--- --- -- ----- -- --- ---- -- --- ---- -- ------ ------<br>--- ----- -- ----,365541.19999999925,365540.7999999998,365218.725,365221.19999999925,365225.662,365545.012,,29,not
screen,html.Screen,2_1_0_1_30,2022-05-03T18:33:29.788Z,,,,,,,,,,,,,,,,,53,,,,,,,,,,,,,,323.28799999982584,,response,,,,99,,,,,,,Space,keypress(Space),,,,,,,,---- -- ----- -- ------ - ------- --- ----------<br>------------- ------ ------ ---- ---- ------- ----- -- ----<br>-------- ------- -- ---------- --- - --- ----- ----- ----<br>---- --- how ----- --- ---- ---- ------- ----- ---- -------<br>--- --- -- ----- -- --- ---- -- --- ---- -- ------ ------<br>--- ----- -- ----,365868.69999999925,365868.2999999998,365538.09,365541.39999999944,365545.012,365871.478,,30,how
screen,html.Screen,2_1_0_1_31,2022-05-03T18:33:30.109Z,,,,,,,,,,,,,,,,,53,,,,,,,,,,,,,,317.22199999925215,,response,,,,99,,,,,,,Space,keypress(Space),,,,,,,,---- -- ----- -- ------ - ------- --- ----------<br>------------- ------ ------ ---- ---- ------- ----- -- ----<br>-------- ------- -- ---------- --- - --- ----- ----- ----<br>---- --- --- close --- ---- ---- ------- ----- ---- -------<br>--- --- -- ----- -- --- ---- -- --- ---- -- ------ ------<br>--- ----- -- ----,366188.89999999944,366188.69999999925,365864.462,365868.7999999998,365871.478,366190.775,,31,close
screen,html.Screen,2_1_0_1_32,2022-05-03T18:33:30.453Z,,,,,,,,,,,,,,,,,53,,,,,,,,,,,,,,342.2249999999767,,response,,,,99,,,,,,,Space,keypress(Space),,,,,,,,---- -- ----- -- ------ - ------- --- ----------<br>------------- ------ ------ ---- ---- ------- ----- -- ----<br>-------- ------- -- ---------- --- - --- ----- ----- ----<br>---- --- --- ----- you ---- ---- ------- ----- ---- -------<br>--- --- -- ----- -- --- ---- -- --- ---- -- ------ ------<br>--- ----- -- ----,366533.19999999925,366533,366183.952,366189,366190.775,366538.026,,32,you
screen,html.Screen,2_1_0_1_33,2022-05-03T18:33:30.765Z,,,,,,,,,,,,,,,,,53,,,,,,,,,,,,,,306.77399999980116,,response,,,,99,,,,,,,Space,keypress(Space),,,,,,,,---- -- ----- -- ------ - ------- --- ----------<br>------------- ------ ------ ---- ---- ------- ----- -- ----<br>-------- ------- -- ---------- --- - --- ----- ----- ----<br>---- --- --- ----- --- feel ---- ------- ----- ---- -------<br>--- --- -- ----- -- --- ---- -- --- ---- -- ------ ------<br>--- ----- -- ----,366845.0999999996,366844.7999999998,366531.164,366533.2999999998,366538.026,366850.609,,33,feel
screen,html.Screen,2_1_0_1_34,2022-05-03T18:33:31.077Z,,,,,,,,,,,,,,,,,53,,,,,,,,,,,,,,306.49099999963073,,response,,,,99,,,,,,,Space,keypress(Space),,,,,,,,---- -- ----- -- ------ - ------- --- ----------<br>------------- ------ ------ ---- ---- ------- ----- -- ----<br>-------- ------- -- ---------- --- - --- ----- ----- ----<br>---- --- --- ----- --- ---- that ------- ----- ---- -------<br>--- --- -- ----- -- --- ---- -- --- ---- -- ------ ------<br>--- ----- -- ----,367157.5999999996,367157.0999999996,366843.658,366845.0999999996,366850.609,367163.111,,34,that
screen,html.Screen,2_1_0_1_35,2022-05-03T18:33:31.493Z,,,,,,,,,,,,,,,,,53,,,,,,,,,,,,,,409.6889999998384,,response,,,,99,,,,,,,Space,keypress(Space),,,,,,,,---- -- ----- -- ------ - ------- --- ----------<br>------------- ------ ------ ---- ---- ------- ----- -- ----<br>-------- ------- -- ---------- --- - --- ----- ----- ----<br>---- --- --- ----- --- ---- ---- matters ----- ---- -------<br>--- --- -- ----- -- --- ---- -- --- ---- -- ------ ------<br>--- ----- -- ----,367573.19999999925,367572.7999999998,367156.128,367157.5999999996,367163.111,367579.671,,35,matters
screen,html.Screen,2_1_0_1_36,2022-05-03T18:33:31.797Z,,,,,,,,,,,,,,,,,53,,,,,,,,,,,,,,297.2289999994682,,response,,,,99,,,,,,,Space,keypress(Space),,,,,,,,"---- -- ----- -- ------ - ------- --- ----------<br>------------- ------ ------ ---- ---- ------- ----- -- ----<br>-------- ------- -- ---------- --- - --- ----- ----- ----<br>---- --- --- ----- --- ---- ---- ------- most, ---- -------<br>--- --- -- ----- -- --- ---- -- --- ---- -- ------ ------<br>--- ----- -- ----",367877.2999999998,367876.89999999944,367572.789,367573.2999999998,367579.671,367878.27,,36,"most,"
screen,html.Screen,2_1_0_1_37,2022-05-03T18:33:32.133Z,,,,,,,,,,,,,,,,,53,,,,,,,,,,,,,,334.5299999997951,,response,,,,99,,,,,,,Space,keypress(Space),,,,,,,,---- -- ----- -- ------ - ------- --- ----------<br>------------- ------ ------ ---- ---- ------- ----- -- ----<br>-------- ------- -- ---------- --- - --- ----- ----- ----<br>---- --- --- ----- --- ---- ---- ------- ----- it's -------<br>--- --- -- ----- -- --- ---- -- --- ---- -- ------ ------<br>--- ----- -- ----,368213.19999999925,368212.7999999998,367871.389,367877.39999999944,367878.27,368218.611,,37,it's
screen,html.Screen,2_1_0_1_38,2022-05-03T18:33:32.469Z,,,,,,,,,,,,,,,,,53,,,,,,,,,,,,,,330.0889999992796,,response,,,,99,,,,,,,Space,keypress(Space),,,,,,,,---- -- ----- -- ------ - ------- --- ----------<br>------------- ------ ------ ---- ---- ------- ----- -- ----<br>-------- ------- -- ---------- --- - --- ----- ----- ----<br>---- --- --- ----- --- ---- ---- ------- ----- ---- whether<br>--- --- -- ----- -- --- ---- -- --- ---- -- ------ ------<br>--- ----- -- ----,368549,368548.69999999925,368211.557,368213.2999999998,368218.611,368551.924,,38,whether
screen,html.Screen,2_1_0_1_39,2022-05-03T18:33:32.789Z,,,,,,,,,,,,,,,,,53,,,,,,,,,,,,,,316.7759999992559,,response,,,,99,,,,,,,Space,keypress(Space),,,,,,,,---- -- ----- -- ------ - ------- --- ----------<br>------------- ------ ------ ---- ---- ------- ----- -- ----<br>-------- ------- -- ---------- --- - --- ----- ----- ----<br>---- --- --- ----- --- ---- ---- ------- ----- ---- -------<br>you --- -- ----- -- --- ---- -- --- ---- -- ------ ------<br>--- ----- -- ----,368869,368868.69999999925,368544.977,368549.0999999996,368551.924,368871.263,,39,you
screen,html.Screen,2_1_0_1_40,2022-05-03T18:33:33.125Z,,,,,,,,,,,,,,,,,53,,,,,,,,,,,,,,333.53699999983655,,response,,,,99,,,,,,,Space,keypress(Space),,,,,,,,---- -- ----- -- ------ - ------- --- ----------<br>------------- ------ ------ ---- ---- ------- ----- -- ----<br>-------- ------- -- ---------- --- - --- ----- ----- ----<br>---- --- --- ----- --- ---- ---- ------- ----- ---- -------<br>--- are -- ----- -- --- ---- -- --- ---- -- ------ ------<br>--- ----- -- ----,369205.19999999925,369204.7999999998,368864.41,368869.0999999996,368871.263,369211.628,,40,are
screen,html.Screen,2_1_0_1_41,2022-05-03T18:33:33.445Z,,,,,,,,,,,,,,,,,53,,,,,,,,,,,,,,313.4719999996014,,response,,,,99,,,,,,,Space,keypress(Space),,,,,,,,---- -- ----- -- ------ - ------- --- ----------<br>------------- ------ ------ ---- ---- ------- ----- -- ----<br>-------- ------- -- ---------- --- - --- ----- ----- ----<br>---- --- --- ----- --- ---- ---- ------- ----- ---- -------<br>--- --- as ----- -- --- ---- -- --- ---- -- ------ ------<br>--- ----- -- ----,369525.39999999944,369525.0999999996,369204.663,369205.19999999925,369211.628,369530.976,,41,as
screen,html.Screen,2_1_0_1_42,2022-05-03T18:33:33.821Z,,,,,,,,,,,,,,,,,53,,,,,,,,,,,,,,370.0239999999758,,response,,,,99,,,,,,,Space,keypress(Space),,,,,,,,---- -- ----- -- ------ - ------- --- ----------<br>------------- ------ ------ ---- ---- ------- ----- -- ----<br>-------- ------- -- ---------- --- - --- ----- ----- ----<br>---- --- --- ----- --- ---- ---- ------- ----- ---- -------<br>--- --- -- close -- --- ---- -- --- ---- -- ------ ------<br>--- ----- -- ----,369901.2999999998,369901,369524.092,369525.5,369530.976,369905.971,,42,close
screen,html.Screen,2_1_0_1_43,2022-05-03T18:33:34.141Z,,,,,,,,,,,,,,,,,53,,,,,,,,,,,,,,314.92899999942165,,response,,,,99,,,,,,,Space,keypress(Space),,,,,,,,---- -- ----- -- ------ - ------- --- ----------<br>------------- ------ ------ ---- ---- ------- ----- -- ----<br>-------- ------- -- ---------- --- - --- ----- ----- ----<br>---- --- --- ----- --- ---- ---- ------- ----- ---- -------<br>--- --- -- ----- as --- ---- -- --- ---- -- ------ ------<br>--- ----- -- ----,370221.2999999998,370220.89999999944,369899.009,369901.39999999944,369905.971,370225.462,,43,as
screen,html.Screen,2_1_0_1_44,2022-05-03T18:33:34.477Z,,,,,,,,,,,,,,,,,53,,,,,,,,,,,,,,331.3379999998142,,response,,,,99,,,,,,,Space,keypress(Space),,,,,,,,---- -- ----- -- ------ - ------- --- ----------<br>------------- ------ ------ ---- ---- ------- ----- -- ----<br>-------- ------- -- ---------- --- - --- ----- ----- ----<br>---- --- --- ----- --- ---- ---- ------- ----- ---- -------<br>--- --- -- ----- -- you ---- -- --- ---- -- ------ ------<br>--- ----- -- ----,370557,370556.7999999998,370218.449,370221.39999999944,370225.462,370558.728,,44,you
screen,html.Screen,2_1_0_1_45,2022-05-03T18:33:34.837Z,,,,,,,,,,,,,,,,,53,,,,,,,,,,,,,,357.97199999925215,,response,,,,99,,,,,,,Space,keypress(Space),,,,,,,,---- -- ----- -- ------ - ------- --- ----------<br>------------- ------ ------ ---- ---- ------- ----- -- ----<br>-------- ------- -- ---------- --- - --- ----- ----- ----<br>---- --- --- ----- --- ---- ---- ------- ----- ---- -------<br>--- --- -- ----- -- --- want -- --- ---- -- ------ ------<br>--- ----- -- ----,370917.0999999996,370916.69999999925,370551.739,370557.0999999996,370558.728,370919.783,,45,want
screen,html.Screen,2_1_0_1_46,2022-05-03T18:33:35.173Z,,,,,,,,,,,,,,,,,53,,,,,,,,,,,,,,332.91699999925913,,response,,,,99,,,,,,,Space,keypress(Space),,,,,,,,---- -- ----- -- ------ - ------- --- ----------<br>------------- ------ ------ ---- ---- ------- ----- -- ----<br>-------- ------- -- ---------- --- - --- ----- ----- ----<br>---- --- --- ----- --- ---- ---- ------- ----- ---- -------<br>--- --- -- ----- -- --- ---- to --- ---- -- ------ ------<br>--- ----- -- ----,371252.89999999944,371252.69999999925,370912.848,370917.19999999925,370919.783,371260.156,,46,to
screen,html.Screen,2_1_0_1_47,2022-05-03T18:33:35.509Z,,,,,,,,,,,,,,,,,53,,,,,,,,,,,,,,328.34399999998277,,response,,,,99,,,,,,,Space,keypress(Space),,,,,,,,"---- -- ----- -- ------ - ------- --- ----------<br>------------- ------ ------ ---- ---- ------- ----- -- ----<br>-------- ------- -- ---------- --- - --- ----- ----- ----<br>---- --- --- ----- --- ---- ---- ------- ----- ---- -------<br>--- --- -- ----- -- --- ---- -- be, ---- -- ------ ------<br>--- ----- -- ----",371588.89999999944,371588.5,371253.202,371253,371260.156,371593.436,,47,"be,"
screen,html.Screen,2_1_0_1_48,2022-05-03T18:33:35.845Z,,,,,,,,,,,,,,,,,53,,,,,,,,,,,,,,331.1639999996405,,response,,,,99,,,,,,,Space,keypress(Space),,,,,,,,---- -- ----- -- ------ - ------- --- ----------<br>------------- ------ ------ ---- ---- ------- ----- -- ----<br>-------- ------- -- ---------- --- - --- ----- ----- ----<br>---- --- --- ----- --- ---- ---- ------- ----- ---- -------<br>--- --- -- ----- -- --- ---- -- --- even -- ------ ------<br>--- ----- -- ----,371925,371924.5999999996,371586.49,371588.89999999944,371593.436,371926.717,,48,even
screen,html.Screen,2_1_0_1_49,2022-05-03T18:33:36.189Z,,,,,,,,,,,,,,,,,53,,,,,,,,,,,,,,341.98299999925075,,response,,,,99,,,,,,,Space,keypress(Space),,,,,,,,---- -- ----- -- ------ - ------- --- ----------<br>------------- ------ ------ ---- ---- ------- ----- -- ----<br>-------- ------- -- ---------- --- - --- ----- ----- ----<br>---- --- --- ----- --- ---- ---- ------- ----- ---- -------<br>--- --- -- ----- -- --- ---- -- --- ---- if ------ ------<br>--- ----- -- ----,372269,372268.69999999925,371919.848,371925,371926.717,372274.073,,49,if
screen,html.Screen,2_1_0_1_50,2022-05-03T18:33:36.549Z,,,,,,,,,,,,,,,,,53,,,,,,,,,,,,,,355.1269999992801,,response,,,,99,,,,,,,Space,keypress(Space),,,,,,,,---- -- ----- -- ------ - ------- --- ----------<br>------------- ------ ------ ---- ---- ------- ----- -- ----<br>-------- ------- -- ---------- --- - --- ----- ----- ----<br>---- --- --- ----- --- ---- ---- ------- ----- ---- -------<br>--- --- -- ----- -- --- ---- -- --- ---- -- that's ------<br>--- ----- -- ----,372629.69999999925,372629.19999999925,372267.07,372269.0999999996,372274.073,372635.098,,50,that's
screen,html.Screen,2_1_0_1_51,2022-05-03T18:33:36.908Z,,,,,,,,,,,,,,,,,53,,,,,,,,,,,,,,353.30199999944307,,response,,,,99,,,,,,,Space,keypress(Space),,,,,,,,---- -- ----- -- ------ - ------- --- ----------<br>------------- ------ ------ ---- ---- ------- ----- -- ----<br>-------- ------- -- ---------- --- - --- ----- ----- ----<br>---- --- --- ----- --- ---- ---- ------- ----- ---- -------<br>--- --- -- ----- -- --- ---- -- --- ---- -- ------ really<br>--- ----- -- ----,372988.69999999925,372988.39999999944,372628.071,372629.69999999925,372635.098,372989.166,,51,really
screen,html.Screen,2_1_0_1_52,2022-05-03T18:33:37.269Z,,,,,,,,,,,,,,,,,53,,,,,,,,,,,,,,359.6339999997872,,response,,,,99,,,,,,,Space,keypress(Space),,,,,,,,---- -- ----- -- ------ - ------- --- ----------<br>------------- ------ ------ ---- ---- ------- ----- -- ----<br>-------- ------- -- ---------- --- - --- ----- ----- ----<br>---- --- --- ----- --- ---- ---- ------- ----- ---- -------<br>--- --- -- ----- -- --- ---- -- --- ---- -- ------ ------<br>not ----- -- ----,373349.19999999925,373348.7999999998,372982.305,372988.69999999925,372989.166,373350.274,,52,not
screen,html.Screen,2_1_0_1_53,2022-05-03T18:33:37.628Z,,,,,,,,,,,,,,,,,53,,,,,,,,,,,,,,358.02599999983795,,response,,,,99,,,,,,,Space,keypress(Space),,,,,,,,---- -- ----- -- ------ - ------- --- ----------<br>------------- ------ ------ ---- ---- ------- ----- -- ----<br>-------- ------- -- ---------- --- - --- ----- ----- ----<br>---- --- --- ----- --- ---- ---- ------- ----- ---- -------<br>--- --- -- ----- -- --- ---- -- --- ---- -- ------ ------<br>--- close -- ----,373708.5999999996,373708.2999999998,373343.35,373349.19999999925,373350.274,373711.347,,53,close
screen,html.Screen,2_1_0_1_54,2022-05-03T18:33:38.037Z,,,,,,,,,,,,,,,,,53,,,,,,,,,,,,,,405.55299999943236,,response,,,,99,,,,,,,Space,keypress(Space),,,,,,,,---- -- ----- -- ------ - ------- --- ----------<br>------------- ------ ------ ---- ---- ------- ----- -- ----<br>-------- ------- -- ---------- --- - --- ----- ----- ----<br>---- --- --- ----- --- ---- ---- ------- ----- ---- -------<br>--- --- -- ----- -- --- ---- -- --- ---- -- ------ ------<br>--- ----- at ----,374117.19999999925,374116.89999999944,373704.499,373708.69999999925,373711.347,374121.138,,54,at
screen,html.Screen,2_1_0_1_55,2022-05-03T18:33:38.501Z,,,,,,,,,,,,,,,,,53,,,,,,,,,,,,,,459.9619999996503,,response,,,,99,,,,,,,Space,keypress(Space),,,,,,,,---- -- ----- -- ------ - ------- --- ----------<br>------------- ------ ------ ---- ---- ------- ----- -- ----<br>-------- ------- -- ---------- --- - --- ----- ----- ----<br>---- --- --- ----- --- ---- ---- ------- ----- ---- -------<br>--- --- -- ----- -- --- ---- -- --- ---- -- ------ ------<br>--- ----- -- all.,374581.5,374581.0999999996,374114.144,374117.2999999998,374121.138,374586.338,,55,all.
Item 99,flow.Loop,2_1_0_1,2022-05-03T18:33:38.502Z,,,,,,,,,,,,,,,,,,,,,,,,,,,,,,,19160.695999999647,,completion,,,,,A,,,,,,,,,,,silence,,,,,374582.39999999944,374581.0999999996,355413.547,355414.7999999998,355420.404,374586.338,,,
Question 1,html.Screen,2_1_0_2,2022-05-03T18:33:42.586Z,,,,,,,,,,,,,,,,,,,,,,,,,,,,true,FALSE,,4079.662000000011,,response,,,,99,A,,,,,,FALSE,click #choice-2,,,,silence,,,,,378666.39999999944,378666,374579.351,374582.39999999944,374586.338,378669.519,,,
Question 2,html.Screen,2_1_0_3,2022-05-03T18:33:48.020Z,,,,,,,,,,,,,,,,,,,,,,,,,,,,true,TRUE,,5430.88099999947,,response,,,,99,A,,,,,,TRUE,click #choice-1,,,,silence,,,,,384101,384100.39999999944,378662.665,378666.5999999996,378669.519,384106.813,,,
Item 99,flow.Sequence,2_1_0,2022-05-03T18:33:48.020Z,,,,,,,,,,,,,,,,,,,,,,,,,,,,,,,38679.597999999416,,completion,,,,,,,,,,,,,,,,,,,,,384101.0999999996,384100.39999999944,345413.865,345420.89999999944,345420.802,384106.813,,,
Holding screen,html.Screen,2_1_1_0,2022-05-03T18:33:58.019Z,,,,,,,,,,,,,,,,,,,,,,,,,,,,,,,9999.621999999974,,timeout,,,,,,,,,,,,,,,,,,,,,394099.7999999998,394099.482,384099.946,384101.19999999925,384106.813,394106.435,,,
screen,html.Screen,2_1_1_1_0,2022-05-03T18:33:58.709Z,,,,,,,,,,,,,,,,,54,,,,,,,,,,,,,,682.5650000000023,,response,,,,100,,,,,,,Space,keypress(Space),,,,,,,,At --- ---- --- ------ ----- ------- ---- -- --- ------- --<br>------- ---------- ------ -- ----- -- ----- -- ---- ------<br>--- ----- --- --- ------ -------- ----- --- ------ ----- --<br>----- ----- ---------- --- --- ------ ------ ---- -- ------<br>------- --- ------ ----- --- ---- ------- -- ---- --- --<br>------- ------,394789.39999999944,394789,394099.482,394099.89999999944,394106.435,394793.909,,0,At
screen,html.Screen,2_1_1_1_1,2022-05-03T18:33:59.004Z,,,,,,,,,,,,,,,,,54,,,,,,,,,,,,,,290.89099999982864,,response,,,,100,,,,,,,Space,keypress(Space),,,,,,,,-- the ---- --- ------ ----- ------- ---- -- --- ------- --<br>------- ---------- ------ -- ----- -- ----- -- ---- ------<br>--- ----- --- --- ------ -------- ----- --- ------ ----- --<br>----- ----- ---------- --- --- ------ ------ ---- -- ------<br>------- --- ------ ----- --- ---- ------- -- ---- --- --<br>------- ------,395085.0999999996,395084.7999999998,394786.997,394789.39999999944,394793.909,395085.581,,1,the
screen,html.Screen,2_1_1_1_2,2022-05-03T18:33:59.301Z,,,,,,,,,,,,,,,,,54,,,,,,,,,,,,,,295.3189999994356,,response,,,,100,,,,,,,Space,keypress(Space),,,,,,,,-- --- time --- ------ ----- ------- ---- -- --- ------- --<br>------- ---------- ------ -- ----- -- ----- -- ---- ------<br>--- ----- --- --- ------ -------- ----- --- ------ ----- --<br>----- ----- ---------- --- --- ------ ------ ---- -- ------<br>------- --- ------ ----- --- ---- ------- -- ---- --- --<br>------- ------,395381.19999999925,395380.89999999944,395078.66,395085.19999999925,395085.581,395384.169,,2,time
screen,html.Screen,2_1_1_1_3,2022-05-03T18:33:59.660Z,,,,,,,,,,,,,,,,,54,,,,,,,,,,,,,,356.3310000000056,,response,,,,100,,,,,,,Space,keypress(Space),,,,,,,,-- --- ---- the ------ ----- ------- ---- -- --- ------- --<br>------- ---------- ------ -- ----- -- ----- -- ---- ------<br>--- ----- --- --- ------ -------- ----- --- ------ ----- --<br>----- ----- ---------- --- --- ------ ------ ---- -- ------<br>------- --- ------ ----- --- ---- ------- -- ---- --- --<br>------- ------,395740.7999999998,395740.5,395377.284,395381.39999999944,395384.169,395745.188,,3,the
screen,html.Screen,2_1_1_1_4,2022-05-03T18:33:59.980Z,,,,,,,,,,,,,,,,,54,,,,,,,,,,,,,,315.61199999979,,response,,,,100,,,,,,,Space,keypress(Space),,,,,,,,-- --- ---- --- French ----- ------- ---- -- --- ------- --<br>------- ---------- ------ -- ----- -- ----- -- ---- ------<br>--- ----- --- --- ------ -------- ----- --- ------ ----- --<br>----- ----- ---------- --- --- ------ ------ ---- -- ------<br>------- --- ------ ----- --- ---- ------- -- ---- --- --<br>------- ------,396061.0999999996,396060.7999999998,395738.366,395740.89999999944,395745.188,396064.756,,4,French
screen,html.Screen,2_1_1_1_5,2022-05-03T18:34:00.284Z,,,,,,,,,,,,,,,,,54,,,,,,,,,,,,,,300.14399999944726,,response,,,,100,,,,,,,Space,keypress(Space),,,,,,,,-- --- ---- --- ------ crown ------- ---- -- --- ------- --<br>------- ---------- ------ -- ----- -- ----- -- ---- ------<br>--- ----- --- --- ------ -------- ----- --- ------ ----- --<br>----- ----- ---------- --- --- ------ ------ ---- -- ------<br>------- --- ------ ----- --- ---- ------- -- ---- --- --<br>------- ------,396365.19999999925,396364.89999999944,396057.716,396061.19999999925,396064.756,396370.228,,5,crown
screen,html.Screen,2_1_1_1_6,2022-05-03T18:34:00.588Z,,,,,,,,,,,,,,,,,54,,,,,,,,,,,,,,298.47199999925215,,response,,,,100,,,,,,,Space,keypress(Space),,,,,,,,-- --- ---- --- ------ ----- secured ---- -- --- ------- --<br>------- ---------- ------ -- ----- -- ----- -- ---- ------<br>--- ----- --- --- ------ -------- ----- --- ------ ----- --<br>----- ----- ---------- --- --- ------ ------ ---- -- ------<br>------- --- ------ ----- --- ---- ------- -- ---- --- --<br>------- ------,396669.0999999996,396668.69999999925,396363.345,396365.2999999998,396370.228,396675.796,,6,secured
screen,html.Screen,2_1_1_1_7,2022-05-03T18:34:00.972Z,,,,,,,,,,,,,,,,,54,,,,,,,,,,,,,,377.00399999984074,,response,,,,100,,,,,,,Space,keypress(Space),,,,,,,,-- --- ---- --- ------ ----- ------- much -- --- ------- --<br>------- ---------- ------ -- ----- -- ----- -- ---- ------<br>--- ----- --- --- ------ -------- ----- --- ------ ----- --<br>----- ----- ---------- --- --- ------ ------ ---- -- ------<br>------- --- ------ ----- --- ---- ------- -- ---- --- --<br>------- ------,397053.0999999996,397052.7999999998,396668.878,396669.19999999925,396675.796,397057.769,,7,much
screen,html.Screen,2_1_1_1_8,2022-05-03T18:34:01.292Z,,,,,,,,,,,,,,,,,54,,,,,,,,,,,,,,314.83099999965634,,response,,,,100,,,,,,,Space,keypress(Space),,,,,,,,-- --- ---- --- ------ ----- ------- ---- of --- ------- --<br>------- ---------- ------ -- ----- -- ----- -- ---- ------<br>--- ----- --- --- ------ -------- ----- --- ------ ----- --<br>----- ----- ---------- --- --- ------ ------ ---- -- ------<br>------- --- ------ ----- --- ---- ------- -- ---- --- --<br>------- ------,397372.89999999944,397372.5999999996,397050.813,397053.2999999998,397057.769,397377.204,,8,of
screen,html.Screen,2_1_1_1_9,2022-05-03T18:34:01.628Z,,,,,,,,,,,,,,,,,54,,,,,,,,,,,,,,331.6959999994142,,response,,,,100,,,,,,,Space,keypress(Space),,,,,,,,-- --- ---- --- ------ ----- ------- ---- -- its ------- --<br>------- ---------- ------ -- ----- -- ----- -- ---- ------<br>--- ----- --- --- ------ -------- ----- --- ------ ----- --<br>----- ----- ---------- --- --- ------ ------ ---- -- ------<br>------- --- ------ ----- --- ---- ------- -- ---- --- --<br>------- ------,397709.19999999925,397708.89999999944,397370.235,397372.89999999944,397377.204,397710.437,,9,its
screen,html.Screen,2_1_1_1_10,2022-05-03T18:34:01.956Z,,,,,,,,,,,,,,,,,54,,,,,,,,,,,,,,326.1629999996512,,response,,,,100,,,,,,,Space,keypress(Space),,,,,,,,-- --- ---- --- ------ ----- ------- ---- -- --- revenue --<br>------- ---------- ------ -- ----- -- ----- -- ---- ------<br>--- ----- --- --- ------ -------- ----- --- ------ ----- --<br>----- ----- ---------- --- --- ------ ------ ---- -- ------<br>------- --- ------ ----- --- ---- ------- -- ---- --- --<br>------- ------,398036.89999999944,398036.5999999996,397703.467,397709.2999999998,397710.437,398043.773,,10,revenue
screen,html.Screen,2_1_1_1_11,2022-05-03T18:34:02.293Z,,,,,,,,,,,,,,,,,54,,,,,,,,,,,,,,329.1269999994547,,response,,,,100,,,,,,,Space,keypress(Space),,,,,,,,-- --- ---- --- ------ ----- ------- ---- -- --- ------- by<br>------- ---------- ------ -- ----- -- ----- -- ---- ------<br>--- ----- --- --- ------ -------- ----- --- ------ ----- --<br>----- ----- ---------- --- --- ------ ------ ---- -- ------<br>------- --- ------ ----- --- ---- ------- -- ---- --- --<br>------- ------,398373.19999999925,398372.89999999944,398036.816,398037,398043.773,398377.139,,11,by
screen,html.Screen,2_1_1_1_12,2022-05-03T18:34:02.613Z,,,,,,,,,,,,,,,,,54,,,,,,,,,,,,,,315.9609999996028,,response,,,,100,,,,,,,Space,keypress(Space),,,,,,,,-- --- ---- --- ------ ----- ------- ---- -- --- ------- --<br>issuing ---------- ------ -- ----- -- ----- -- ---- ------<br>--- ----- --- --- ------ -------- ----- --- ------ ----- --<br>----- ----- ---------- --- --- ------ ------ ---- -- ------<br>------- --- ------ ----- --- ---- ------- -- ---- --- --<br>------- ------,398693.5999999996,398693.0999999996,398370.212,398373.2999999998,398377.139,398696.505,,12,issuing
screen,html.Screen,2_1_1_1_13,2022-05-03T18:34:02.957Z,,,,,,,,,,,,,,,,,54,,,,,,,,,,,,,,340.49499999999534,,response,,,,100,,,,,,,Space,keypress(Space),,,,,,,,-- --- ---- --- ------ ----- ------- ---- -- --- ------- --<br>------- government ------ -- ----- -- ----- -- ---- ------<br>--- ----- --- --- ------ -------- ----- --- ------ ----- --<br>----- ----- ---------- --- --- ------ ------ ---- -- ------<br>------- --- ------ ----- --- ---- ------- -- ---- --- --<br>------- ------,399037.5,399037,398689.593,398693.69999999925,398696.505,399043.723,,13,government
screen,html.Screen,2_1_1_1_14,2022-05-03T18:34:03.277Z,,,,,,,,,,,,,,,,,54,,,,,,,,,,,,,,313.37699999962933,,response,,,,100,,,,,,,Space,keypress(Space),,,,,,,,-- --- ---- --- ------ ----- ------- ---- -- --- ------- --<br>------- ---------- bonds. -- ----- -- ----- -- ---- ------<br>--- ----- --- --- ------ -------- ----- --- ------ ----- --<br>----- ----- ---------- --- --- ------ ------ ---- -- ------<br>------- --- ------ ----- --- ---- ------- -- ---- --- --<br>------- ------,399357.39999999944,399357.0999999996,399036.813,399037.69999999925,399043.723,399363.243,,14,bonds.
screen,html.Screen,2_1_1_1_15,2022-05-03T18:34:03.637Z,,,,,,,,,,,,,,,,,54,,,,,,,,,,,,,,353.65699999942444,,response,,,,100,,,,,,,Space,keypress(Space),,,,,,,,-- --- ---- --- ------ ----- ------- ---- -- --- ------- --<br>------- ---------- ------ In ----- -- ----- -- ---- ------<br>--- ----- --- --- ------ -------- ----- --- ------ ----- --<br>----- ----- ---------- --- --- ------ ------ ---- -- ------<br>------- --- ------ ----- --- ---- ------- -- ---- --- --<br>------- ------,399717.2999999998,399716.89999999944,399356.282,399357.5,399363.243,399724.23,,15,In
screen,html.Screen,2_1_1_1_16,2022-05-03T18:34:03.957Z,,,,,,,,,,,,,,,,,54,,,,,,,,,,,,,,312.8699999996461,,response,,,,100,,,,,,,Space,keypress(Space),,,,,,,,"-- --- ---- --- ------ ----- ------- ---- -- --- ------- --<br>------- ---------- ------ -- 1727, -- ----- -- ---- ------<br>--- ----- --- --- ------ -------- ----- --- ------ ----- --<br>----- ----- ---------- --- --- ------ ------ ---- -- ------<br>------- --- ------ ----- --- ---- ------- -- ---- --- --<br>------- ------",400037.5,400037.0999999996,399717.311,399717.39999999944,399724.23,400043.683,,16,"1727,"
screen,html.Screen,2_1_1_1_17,2022-05-03T18:34:04.524Z,,,,,,,,,,,,,,,,,54,,,,,,,,,,,,,,561.1169999997946,,response,,,,100,,,,,,,Space,keypress(Space),,,,,,,,-- --- ---- --- ------ ----- ------- ---- -- --- ------- --<br>------- ---------- ------ -- ----- in ----- -- ---- ------<br>--- ----- --- --- ------ -------- ----- --- ------ ----- --<br>----- ----- ---------- --- --- ------ ------ ---- -- ------<br>------- --- ------ ----- --- ---- ------- -- ---- --- --<br>------- ------,400605.0999999996,400604.7999999998,400036.74,400037.5,400043.683,400606.184,,17,in
screen,html.Screen,2_1_1_1_18,2022-05-03T18:34:04.980Z,,,,,,,,,,,,,,,,,54,,,,,,,,,,,,,,454.51599999924656,,response,,,,100,,,,,,,Space,keypress(Space),,,,,,,,-- --- ---- --- ------ ----- ------- ---- -- --- ------- --<br>------- ---------- ------ -- ----- -- order -- ---- ------<br>--- ----- --- --- ------ -------- ----- --- ------ ----- --<br>----- ----- ---------- --- --- ------ ------ ---- -- ------<br>------- --- ------ ----- --- ---- ------- -- ---- --- --<br>------- ------,401061,401060.69999999925,400599.272,400605.19999999925,400606.184,401064.478,,18,order
screen,html.Screen,2_1_1_1_19,2022-05-03T18:34:05.324Z,,,,,,,,,,,,,,,,,54,,,,,,,,,,,,,,340.22199999925215,,response,,,,100,,,,,,,Space,keypress(Space),,,,,,,,-- --- ---- --- ------ ----- ------- ---- -- --- ------- --<br>------- ---------- ------ -- ----- -- ----- to ---- ------<br>--- ----- --- --- ------ -------- ----- --- ------ ----- --<br>----- ----- ---------- --- --- ------ ------ ---- -- ------<br>------- --- ------ ----- --- ---- ------- -- ---- --- --<br>------- ------,401405.0999999996,401404.69999999925,401057.515,401061.0999999996,401064.478,401411.761,,19,to
screen,html.Screen,2_1_1_1_20,2022-05-03T18:34:05.709Z,,,,,,,,,,,,,,,,,54,,,,,,,,,,,,,,377.83899999962887,,response,,,,100,,,,,,,Space,keypress(Space),,,,,,,,-- --- ---- --- ------ ----- ------- ---- -- --- ------- --<br>------- ---------- ------ -- ----- -- ----- -- save ------<br>--- ----- --- --- ------ -------- ----- --- ------ ----- --<br>----- ----- ---------- --- --- ------ ------ ---- -- ------<br>------- --- ------ ----- --- ---- ------- -- ---- --- --<br>------- ------,401789.7999999998,401789.5999999996,401404.772,401405.19999999925,401411.761,401793.603,,20,save
screen,html.Screen,2_1_1_1_21,2022-05-03T18:34:06.053Z,,,,,,,,,,,,,,,,,54,,,,,,,,,,,,,,339.3969999999972,,response,,,,100,,,,,,,Space,keypress(Space),,,,,,,,"-- --- ---- --- ------ ----- ------- ---- -- --- ------- --<br>------- ---------- ------ -- ----- -- ----- -- ---- money,<br>--- ----- --- --- ------ -------- ----- --- ------ ----- --<br>----- ----- ---------- --- --- ------ ------ ---- -- ------<br>------- --- ------ ----- --- ---- ------- -- ---- --- --<br>------- ------",402133.39999999944,402133,401786.737,401789.89999999944,401793.603,402133.886,,21,"money,"
screen,html.Screen,2_1_1_1_22,2022-05-03T18:34:06.444Z,,,,,,,,,,,,,,,,,54,,,,,,,,,,,,,,390.81399999925634,,response,,,,100,,,,,,,Space,keypress(Space),,,,,,,,-- --- ---- --- ------ ----- ------- ---- -- --- ------- --<br>------- ---------- ------ -- ----- -- ----- -- ---- ------<br>the ----- --- --- ------ -------- ----- --- ------ ----- --<br>----- ----- ---------- --- --- ------ ------ ---- -- ------<br>------- --- ------ ----- --- ---- ------- -- ---- --- --<br>------- ------,402525.19999999925,402524.69999999925,402126.943,402133.39999999944,402133.886,402529.673,,22,the
screen,html.Screen,2_1_1_1_23,2022-05-03T18:34:06.812Z,,,,,,,,,,,,,,,,,54,,,,,,,,,,,,,,362.62699999980396,,response,,,,100,,,,,,,Space,keypress(Space),,,,,,,,-- --- ---- --- ------ ----- ------- ---- -- --- ------- --<br>------- ---------- ------ -- ----- -- ----- -- ---- ------<br>--- state --- --- ------ -------- ----- --- ------ ----- --<br>----- ----- ---------- --- --- ------ ------ ---- -- ------<br>------- --- ------ ----- --- ---- ------- -- ---- --- --<br>------- ------,402892.69999999925,402892.2999999998,402522.763,402525.2999999998,402529.673,402897.804,,23,state
screen,html.Screen,2_1_1_1_24,2022-05-03T18:34:07.132Z,,,,,,,,,,,,,,,,,54,,,,,,,,,,,,,,314.6959999999963,,response,,,,100,,,,,,,Space,keypress(Space),,,,,,,,-- --- ---- --- ------ ----- ------- ---- -- --- ------- --<br>------- ---------- ------ -- ----- -- ----- -- ---- ------<br>--- ----- cut --- ------ -------- ----- --- ------ ----- --<br>----- ----- ---------- --- --- ------ ------ ---- -- ------<br>------- --- ------ ----- --- ---- ------- -- ---- --- --<br>------- ------,403212.7999999998,403212.5,402890.844,402892.69999999925,402897.804,403217.235,,24,cut
screen,html.Screen,2_1_1_1_25,2022-05-03T18:34:07.460Z,,,,,,,,,,,,,,,,,54,,,,,,,,,,,,,,323.4649999992689,,response,,,,100,,,,,,,Space,keypress(Space),,,,,,,,-- --- ---- --- ------ ----- ------- ---- -- --- ------- --<br>------- ---------- ------ -- ----- -- ----- -- ---- ------<br>--- ----- --- the ------ -------- ----- --- ------ ----- --<br>----- ----- ---------- --- --- ------ ------ ---- -- ------<br>------- --- ------ ----- --- ---- ------- -- ---- --- --<br>------- ------,403541,403540.69999999925,403210.281,403212.89999999944,403217.235,403543.636,,25,the
screen,html.Screen,2_1_1_1_26,2022-05-03T18:34:07.797Z,,,,,,,,,,,,,,,,,54,,,,,,,,,,,,,,333.2639999994426,,response,,,,100,,,,,,,Space,keypress(Space),,,,,,,,-- --- ---- --- ------ ----- ------- ---- -- --- ------- --<br>------- ---------- ------ -- ----- -- ----- -- ---- ------<br>--- ----- --- --- bonds' -------- ----- --- ------ ----- --<br>----- ----- ---------- --- --- ------ ------ ---- -- ------<br>------- --- ------ ----- --- ---- ------- -- ---- --- --<br>------- ------,403877.19999999925,403876.89999999944,403536.588,403541.0999999996,403543.636,403883.894,,26,bonds'
screen,html.Screen,2_1_1_1_27,2022-05-03T18:34:08.108Z,,,,,,,,,,,,,,,,,54,,,,,,,,,,,,,,304.8059999992838,,response,,,,100,,,,,,,Space,keypress(Space),,,,,,,,-- --- ---- --- ------ ----- ------- ---- -- --- ------- --<br>------- ---------- ------ -- ----- -- ----- -- ---- ------<br>--- ----- --- --- ------ interest ----- --- ------ ----- --<br>----- ----- ---------- --- --- ------ ------ ---- -- ------<br>------- --- ------ ----- --- ---- ------- -- ---- --- --<br>------- ------,404189.19999999925,404188.69999999925,403876.938,403877.2999999998,403883.894,404196.294,,27,interest
screen,html.Screen,2_1_1_1_28,2022-05-03T18:34:08.468Z,,,,,,,,,,,,,,,,,54,,,,,,,,,,,,,,352.1059999994468,,response,,,,100,,,,,,,Space,keypress(Space),,,,,,,,-- --- ---- --- ------ ----- ------- ---- -- --- ------- --<br>------- ---------- ------ -- ----- -- ----- -- ---- ------<br>--- ----- --- --- ------ -------- rate. --- ------ ----- --<br>----- ----- ---------- --- --- ------ ------ ---- -- ------<br>------- --- ------ ----- --- ---- ------- -- ---- --- --<br>------- ------,404548.69999999925,404548.39999999944,404189.372,404189.19999999925,404196.294,404550.455,,28,rate.
screen,html.Screen,2_1_1_1_29,2022-05-03T18:34:08.813Z,,,,,,,,,,,,,,,,,54,,,,,,,,,,,,,,342.4449999994249,,response,,,,100,,,,,,,Space,keypress(Space),,,,,,,,-- --- ---- --- ------ ----- ------- ---- -- --- ------- --<br>------- ---------- ------ -- ----- -- ----- -- ---- ------<br>--- ----- --- --- ------ -------- ----- The ------ ----- --<br>----- ----- ---------- --- --- ------ ------ ---- -- ------<br>------- --- ------ ----- --- ---- ------- -- ---- --- --<br>------- ------,404893.2999999998,404892.89999999944,404543.587,404548.7999999998,404550.455,404897.75,,29,The
screen,html.Screen,2_1_1_1_30,2022-05-03T18:34:09.172Z,,,,,,,,,,,,,,,,,54,,,,,,,,,,,,,,354.94999999925494,,response,,,,100,,,,,,,Space,keypress(Space),,,,,,,,-- --- ---- --- ------ ----- ------- ---- -- --- ------- --<br>------- ---------- ------ -- ----- -- ----- -- ---- ------<br>--- ----- --- --- ------ -------- ----- --- market ----- --<br>----- ----- ---------- --- --- ------ ------ ---- -- ------<br>------- --- ------ ----- --- ---- ------- -- ---- --- --<br>------- ------,405253.19999999925,405252.69999999925,404890.79,404893.2999999998,404897.75,405258.831,,30,market
screen,html.Screen,2_1_1_1_31,2022-05-03T18:34:09.500Z,,,,,,,,,,,,,,,,,54,,,,,,,,,,,,,,321.86899999924935,,response,,,,100,,,,,,,Space,keypress(Space),,,,,,,,-- --- ---- --- ------ ----- ------- ---- -- --- ------- --<br>------- ---------- ------ -- ----- -- ----- -- ---- ------<br>--- ----- --- --- ------ -------- ----- --- ------ value --<br>----- ----- ---------- --- --- ------ ------ ---- -- ------<br>------- --- ------ ----- --- ---- ------- -- ---- --- --<br>------- ------,405581.0999999996,405580.69999999925,405251.821,405253.2999999998,405258.831,405585.094,,31,value
screen,html.Screen,2_1_1_1_32,2022-05-03T18:34:09.924Z,,,,,,,,,,,,,,,,,54,,,,,,,,,,,,,,419.80599999945844,,response,,,,100,,,,,,,Space,keypress(Space),,,,,,,,-- --- ---- --- ------ ----- ------- ---- -- --- ------- --<br>------- ---------- ------ -- ----- -- ----- -- ---- ------<br>--- ----- --- --- ------ -------- ----- --- ------ ----- of<br>----- ----- ---------- --- --- ------ ------ ---- -- ------<br>------- --- ------ ----- --- ---- ------- -- ---- --- --<br>------- ------,406005.19999999925,406004.89999999944,405578.195,405581.19999999925,405585.094,406008.75,,32,of
screen,html.Screen,2_1_1_1_33,2022-05-03T18:34:10.260Z,,,,,,,,,,,,,,,,,54,,,,,,,,,,,,,,331.75,,response,,,,100,,,,,,,Space,keypress(Space),,,,,,,,-- --- ---- --- ------ ----- ------- ---- -- --- ------- --<br>------- ---------- ------ -- ----- -- ----- -- ---- ------<br>--- ----- --- --- ------ -------- ----- --- ------ ----- --<br>these ----- ---------- --- --- ------ ------ ---- -- ------<br>------- --- ------ ----- --- ---- ------- -- ---- --- --<br>------- ------,406340.7999999998,406340.5,406001.765,406005.19999999925,406008.75,406349.08,,33,these
screen,html.Screen,2_1_1_1_34,2022-05-03T18:34:10.620Z,,,,,,,,,,,,,,,,,54,,,,,,,,,,,,,,351.61999999923864,,response,,,,100,,,,,,,Space,keypress(Space),,,,,,,,-- --- ---- --- ------ ----- ------- ---- -- --- ------- --<br>------- ---------- ------ -- ----- -- ----- -- ---- ------<br>--- ----- --- --- ------ -------- ----- --- ------ ----- --<br>----- bonds ---------- --- --- ------ ------ ---- -- ------<br>------- --- ------ ----- --- ---- ------- -- ---- --- --<br>------- ------,406701.0999999996,406700.69999999925,406335.081,406340.7999999998,406349.08,406703.23,,34,bonds
screen,html.Screen,2_1_1_1_35,2022-05-03T18:34:10.965Z,,,,,,,,,,,,,,,,,54,,,,,,,,,,,,,,341.66999999945983,,response,,,,100,,,,,,,Space,keypress(Space),,,,,,,,"-- --- ---- --- ------ ----- ------- ---- -- --- ------- --<br>------- ---------- ------ -- ----- -- ----- -- ---- ------<br>--- ----- --- --- ------ -------- ----- --- ------ ----- --<br>----- ----- plummeted, --- --- ------ ------ ---- -- ------<br>------- --- ------ ----- --- ---- ------- -- ---- --- --<br>------- ------",407045.2999999998,407044.89999999944,406696.267,406701.19999999925,406703.23,407050.402,,35,"plummeted,"
screen,html.Screen,2_1_1_1_36,2022-05-03T18:34:11.477Z,,,,,,,,,,,,,,,,,54,,,,,,,,,,,,,,506.7979999992531,,response,,,,100,,,,,,,Space,keypress(Space),,,,,,,,-- --- ---- --- ------ ----- ------- ---- -- --- ------- --<br>------- ---------- ------ -- ----- -- ----- -- ---- ------<br>--- ----- --- --- ------ -------- ----- --- ------ ----- --<br>----- ----- ---------- and --- ------ ------ ---- -- ------<br>------- --- ------ ----- --- ---- ------- -- ---- --- --<br>------- ------,407557.7999999998,407557.19999999925,407043.394,407045.2999999998,407050.402,407564.239,,36,and
screen,html.Screen,2_1_1_1_37,2022-05-03T18:34:11.844Z,,,,,,,,,,,,,,,,,54,,,,,,,,,,,,,,360.2609999999986,,response,,,,100,,,,,,,Space,keypress(Space),,,,,,,,-- --- ---- --- ------ ----- ------- ---- -- --- ------- --<br>------- ---------- ------ -- ----- -- ----- -- ---- ------<br>--- ----- --- --- ------ -------- ----- --- ------ ----- --<br>----- ----- ---------- --- the ------ ------ ---- -- ------<br>------- --- ------ ----- --- ---- ------- -- ---- --- --<br>------- ------,407924.7999999998,407924.5,407557.339,407557.7999999998,407564.239,407925.308,,37,the
screen,html.Screen,2_1_1_1_38,2022-05-03T18:34:12.180Z,,,,,,,,,,,,,,,,,54,,,,,,,,,,,,,,335.49199999979464,,response,,,,100,,,,,,,Space,keypress(Space),,,,,,,,-- --- ---- --- ------ ----- ------- ---- -- --- ------- --<br>------- ---------- ------ -- ----- -- ----- -- ---- ------<br>--- ----- --- --- ------ -------- ----- --- ------ ----- --<br>----- ----- ---------- --- --- market ------ ---- -- ------<br>------- --- ------ ----- --- ---- ------- -- ---- --- --<br>------- ------,408261.0999999996,408260.7999999998,407918.366,407925,407925.308,408265.669,,38,market
screen,html.Screen,2_1_1_1_39,2022-05-03T18:34:12.516Z,,,,,,,,,,,,,,,,,54,,,,,,,,,,,,,,331.2309999994468,,response,,,,100,,,,,,,Space,keypress(Space),,,,,,,,-- --- ---- --- ------ ----- ------- ---- -- --- ------- --<br>------- ---------- ------ -- ----- -- ----- -- ---- ------<br>--- ----- --- --- ------ -------- ----- --- ------ ----- --<br>----- ----- ---------- --- --- ------ became ---- -- ------<br>------- --- ------ ----- --- ---- ------- -- ---- --- --<br>------- ------,408597.19999999925,408596.89999999944,408258.725,408261.19999999925,408265.669,408598.868,,39,became
screen,html.Screen,2_1_1_1_40,2022-05-03T18:34:12.828Z,,,,,,,,,,,,,,,,,54,,,,,,,,,,,,,,310.03199999942444,,response,,,,100,,,,,,,Space,keypress(Space),,,,,,,,-- --- ---- --- ------ ----- ------- ---- -- --- ------- --<br>------- ---------- ------ -- ----- -- ----- -- ---- ------<br>--- ----- --- --- ------ -------- ----- --- ------ ----- --<br>----- ----- ---------- --- --- ------ ------ wary -- ------<br>------- --- ------ ----- --- ---- ------- -- ---- --- --<br>------- ------,408909.19999999925,408908.89999999944,408592.024,408597.19999999925,408598.868,408911.392,,40,wary
screen,html.Screen,2_1_1_1_41,2022-05-03T18:34:13.180Z,,,,,,,,,,,,,,,,,54,,,,,,,,,,,,,,349.3079999992624,,response,,,,100,,,,,,,Space,keypress(Space),,,,,,,,-- --- ---- --- ------ ----- ------- ---- -- --- ------- --<br>------- ---------- ------ -- ----- -- ----- -- ---- ------<br>--- ----- --- --- ------ -------- ----- --- ------ ----- --<br>----- ----- ---------- --- --- ------ ------ ---- of ------<br>------- --- ------ ----- --- ---- ------- -- ---- --- --<br>------- ------,409261,409260.69999999925,408904.522,408909.19999999925,408911.392,409265.635,,41,of
screen,html.Screen,2_1_1_1_42,2022-05-03T18:34:13.524Z,,,,,,,,,,,,,,,,,54,,,,,,,,,,,,,,339.1649999998044,,response,,,,100,,,,,,,Space,keypress(Space),,,,,,,,-- --- ---- --- ------ ----- ------- ---- -- --- ------- --<br>------- ---------- ------ -- ----- -- ----- -- ---- ------<br>--- ----- --- --- ------ -------- ----- --- ------ ----- --<br>----- ----- ---------- --- --- ------ ------ ---- -- French<br>------- --- ------ ----- --- ---- ------- -- ---- --- --<br>------- ------,409605.19999999925,409604.7999999998,409258.639,409261.0999999996,409265.635,409605.813,,42,French
screen,html.Screen,2_1_1_1_43,2022-05-03T18:34:13.853Z,,,,,,,,,,,,,,,,,54,,,,,,,,,,,,,,327.18699999997625,,response,,,,100,,,,,,,Space,keypress(Space),,,,,,,,-- --- ---- --- ------ ----- ------- ---- -- --- ------- --<br>------- ---------- ------ -- ----- -- ----- -- ---- ------<br>--- ----- --- --- ------ -------- ----- --- ------ ----- --<br>----- ----- ---------- --- --- ------ ------ ---- -- ------<br>credit. --- ------ ----- --- ---- ------- -- ---- --- --<br>------- ------,409933.39999999944,409933,409598.938,409605.19999999925,409605.813,409939.218,,43,credit.
screen,html.Screen,2_1_1_1_44,2022-05-03T18:34:14.204Z,,,,,,,,,,,,,,,,,54,,,,,,,,,,,,,,345.58199999982025,,response,,,,100,,,,,,,Space,keypress(Space),,,,,,,,-- --- ---- --- ------ ----- ------- ---- -- --- ------- --<br>------- ---------- ------ -- ----- -- ----- -- ---- ------<br>--- ----- --- --- ------ -------- ----- --- ------ ----- --<br>----- ----- ---------- --- --- ------ ------ ---- -- ------<br>------- The ------ ----- --- ---- ------- -- ---- --- --<br>------- ------,410285.0999999996,410284.7999999998,409932.18,409933.39999999944,409939.218,410286.342,,44,The
screen,html.Screen,2_1_1_1_45,2022-05-03T18:34:14.565Z,,,,,,,,,,,,,,,,,54,,,,,,,,,,,,,,358.6579999999958,,response,,,,100,,,,,,,Space,keypress(Space),,,,,,,,-- --- ---- --- ------ ----- ------- ---- -- --- ------- --<br>------- ---------- ------ -- ----- -- ----- -- ---- ------<br>--- ----- --- --- ------ -------- ----- --- ------ ----- --<br>----- ----- ---------- --- --- ------ ------ ---- -- ------<br>------- --- French ----- --- ---- ------- -- ---- --- --<br>------- ------,410645.2999999998,410645,410279.458,410285.19999999925,410286.342,410647.447,,45,French
screen,html.Screen,2_1_1_1_46,2022-05-03T18:34:14.924Z,,,,,,,,,,,,,,,,,54,,,,,,,,,,,,,,356.95299999945564,,response,,,,100,,,,,,,Space,keypress(Space),,,,,,,,-- --- ---- --- ------ ----- ------- ---- -- --- ------- --<br>------- ---------- ------ -- ----- -- ----- -- ---- ------<br>--- ----- --- --- ------ -------- ----- --- ------ ----- --<br>----- ----- ---------- --- --- ------ ------ ---- -- ------<br>------- --- ------ state --- ---- ------- -- ---- --- --<br>------- ------,411004.89999999944,411004.39999999944,410640.561,410645.39999999944,410647.447,411008.539,,46,state
screen,html.Screen,2_1_1_1_47,2022-05-03T18:34:15.236Z,,,,,,,,,,,,,,,,,54,,,,,,,,,,,,,,308.0609999996377,,response,,,,100,,,,,,,Space,keypress(Space),,,,,,,,-- --- ---- --- ------ ----- ------- ---- -- --- ------- --<br>------- ---------- ------ -- ----- -- ----- -- ---- ------<br>--- ----- --- --- ------ -------- ----- --- ------ ----- --<br>----- ----- ---------- --- --- ------ ------ ---- -- ------<br>------- --- ------ ----- was ---- ------- -- ---- --- --<br>------- ------,411316.7999999998,411316.5999999996,411001.657,411004.89999999944,411008.539,411321.077,,47,was
screen,html.Screen,2_1_1_1_48,2022-05-03T18:34:15.612Z,,,,,,,,,,,,,,,,,54,,,,,,,,,,,,,,371.6229999992647,,response,,,,100,,,,,,,Space,keypress(Space),,,,,,,,-- --- ---- --- ------ ----- ------- ---- -- --- ------- --<br>------- ---------- ------ -- ----- -- ----- -- ---- ------<br>--- ----- --- --- ------ -------- ----- --- ------ ----- --<br>----- ----- ---------- --- --- ------ ------ ---- -- ------<br>------- --- ------ ----- --- left ------- -- ---- --- --<br>------- ------,411693.0999999996,411692.69999999925,411314.077,411316.89999999944,411321.077,411696.069,,48,left
screen,html.Screen,2_1_1_1_49,2022-05-03T18:34:15.941Z,,,,,,,,,,,,,,,,,54,,,,,,,,,,,,,,324.9309999999823,,response,,,,100,,,,,,,Space,keypress(Space),,,,,,,,-- --- ---- --- ------ ----- ------- ---- -- --- ------- --<br>------- ---------- ------ -- ----- -- ----- -- ---- ------<br>--- ----- --- --- ------ -------- ----- --- ------ ----- --<br>----- ----- ---------- --- --- ------ ------ ---- -- ------<br>------- --- ------ ----- --- ---- without -- ---- --- --<br>------- ------,412021.2999999998,412021,411689.065,411693.0999999996,411696.069,412022.375,,49,without
screen,html.Screen,2_1_1_1_50,2022-05-03T18:34:16.260Z,,,,,,,,,,,,,,,,,54,,,,,,,,,,,,,,318.32499999925494,,response,,,,100,,,,,,,Space,keypress(Space),,,,,,,,-- --- ---- --- ------ ----- ------- ---- -- --- ------- --<br>------- ---------- ------ -- ----- -- ----- -- ---- ------<br>--- ----- --- --- ------ -------- ----- --- ------ ----- --<br>----- ----- ---------- --- --- ------ ------ ---- -- ------<br>------- --- ------ ----- --- ---- ------- an ---- --- --<br>------- ------,412341,412340.69999999925,412015.522,412021.39999999944,412022.375,412341.818,,50,an
screen,html.Screen,2_1_1_1_51,2022-05-03T18:34:16.604Z,,,,,,,,,,,,,,,,,54,,,,,,,,,,,,,,342.98199999978533,,response,,,,100,,,,,,,Space,keypress(Space),,,,,,,,-- --- ---- --- ------ ----- ------- ---- -- --- ------- --<br>------- ---------- ------ -- ----- -- ----- -- ---- ------<br>--- ----- --- --- ------ -------- ----- --- ------ ----- --<br>----- ----- ---------- --- --- ------ ------ ---- -- ------<br>------- --- ------ ----- --- ---- ------- -- easy --- --<br>------- ------,412685.19999999925,412684.7999999998,412334.957,412341,412341.818,412689.079,,51,easy
screen,html.Screen,2_1_1_1_52,2022-05-03T18:34:16.957Z,,,,,,,,,,,,,,,,,54,,,,,,,,,,,,,,348.8209999994142,,response,,,,100,,,,,,,Space,keypress(Space),,,,,,,,-- --- ---- --- ------ ----- ------- ---- -- --- ------- --<br>------- ---------- ------ -- ----- -- ----- -- ---- ------<br>--- ----- --- --- ------ -------- ----- --- ------ ----- --<br>----- ----- ---------- --- --- ------ ------ ---- -- ------<br>------- --- ------ ----- --- ---- ------- -- ---- way --<br>------- ------,413038.19999999925,413037.89999999944,412682.167,412685.19999999925,412689.079,413043.271,,52,way
screen,html.Screen,2_1_1_1_53,2022-05-03T18:34:17.284Z,,,,,,,,,,,,,,,,,54,,,,,,,,,,,,,,321.5289999998058,,response,,,,100,,,,,,,Space,keypress(Space),,,,,,,,-- --- ---- --- ------ ----- ------- ---- -- --- ------- --<br>------- ---------- ------ -- ----- -- ----- -- ---- ------<br>--- ----- --- --- ------ -------- ----- --- ------ ----- --<br>----- ----- ---------- --- --- ------ ------ ---- -- ------<br>------- --- ------ ----- --- ---- ------- -- ---- --- of<br>------- ------,413365.0999999996,413364.7999999998,413036.201,413038.2999999998,413043.271,413369.614,,53,of
screen,html.Screen,2_1_1_1_54,2022-05-03T18:34:17.604Z,,,,,,,,,,,,,,,,,54,,,,,,,,,,,,,,314.9859999996261,,response,,,,100,,,,,,,Space,keypress(Space),,,,,,,,-- --- ---- --- ------ ----- ------- ---- -- --- ------- --<br>------- ---------- ------ -- ----- -- ----- -- ---- ------<br>--- ----- --- --- ------ -------- ----- --- ------ ----- --<br>----- ----- ---------- --- --- ------ ------ ---- -- ------<br>------- --- ------ ----- --- ---- ------- -- ---- --- --<br>raising ------,413684.89999999944,413684.5999999996,413362.601,413365.19999999925,413369.614,413688.943,,54,raising
screen,html.Screen,2_1_1_1_55,2022-05-03T18:34:18.052Z,,,,,,,,,,,,,,,,,54,,,,,,,,,,,,,,443.65699999959907,,response,,,,100,,,,,,,Space,keypress(Space),,,,,,,,-- --- ---- --- ------ ----- ------- ---- -- --- ------- --<br>------- ---------- ------ -- ----- -- ----- -- ---- ------<br>--- ----- --- --- ------ -------- ----- --- ------ ----- --<br>----- ----- ---------- --- --- ------ ------ ---- -- ------<br>------- --- ------ ----- --- ---- ------- -- ---- --- --<br>------- money.,414132.89999999944,414132.5999999996,413682.113,413685,413688.943,414140.411,,55,money.
Item 100,flow.Loop,2_1_1_1,2022-05-03T18:34:18.052Z,,,,,,,,,,,,,,,,,,,,,,,,,,,,,,,20026.16499999963,,completion,,,,,A,,,,,,,,,,,silence,,,,,414133,414132.5999999996,394099.482,394099.89999999944,394106.435,414140.411,,,
Question 1,html.Screen,2_1_1_2,2022-05-03T18:34:21.421Z,,,,,,,,,,,,,,,,,,,,,,,,,,,,true,TRUE,,3361.1889999996056,,response,,,,100,A,,,,,,TRUE,click #choice-1,,,,silence,,,,,417502.0999999996,417501.5999999996,414133.449,414133,414140.411,417508.256,,,
Question 2,html.Screen,2_1_1_3,2022-05-03T18:34:25.667Z,,,,,,,,,,,,,,,,,,,,,,,,,,,,true,FALSE,,4239.54399999982,,response,,,,100,A,,,,,,FALSE,click #choice-2,,,,silence,,,,,421748.19999999925,421747.7999999998,417501.347,417502.19999999925,417508.256,421751.2,,,
Item 100,flow.Sequence,2_1_1,2022-05-03T18:34:25.668Z,,,,,,,,,,,,,,,,,,,,,,,,,,,,,,,37640.98699999979,,completion,,,,,,,,,,,,,,,,,,,,,421748.2999999998,421747.7999999998,384099.946,384101.0999999996,384106.813,421751.2,,,
End of Practice,html.Page,2_1_2,2022-05-03T18:34:28.595Z,,,,,,,,,,,,,,,,,,,,,,,,,,,,,,,2923.899999999616,,form submission,,,,,,,,,,,,,,,,,,,,,424675.2999999998,424675.0999999996,421744.299,421748.2999999998,421751.2,424681.584,,,
Practice,flow.Sequence,2_1,2022-05-03T18:34:28.595Z,,,,,,,,,,,,,,,,,,,,,,,,,,,,,,,79254.2979999996,,completion,,,,,,,,,,,,,,,,,,,,,424675.39999999944,424675.0999999996,345413.865,345420.89999999944,345420.802,424681.584,,,
Trap_instruction,html.Page,2_2_0,2022-05-03T18:34:34.407Z,,,,,,,,,,,,,,,,,,,,,,,,,,,,,,,5806.4160000000265,,form submission,,,,,,,,,,,,,,,,,,,,,430488.19999999925,430488,424674.659,424675.39999999944,424681.584,430493.899,,,
trap_trial,html.Screen,2_2_1,2022-05-03T18:34:36.446Z,,,,,,,,,,,,,,,,,,,,,,,,,,,,true,1,,2032.8009999992792,,response,,,,,,,,,,,1,click #choice-1,,,,,,,,,432527.0999999996,432526.69999999925,430487.018,430488.2999999998,430493.899,432528.531,,,
end of trap trial,html.Page,2_2_2,2022-05-03T18:34:38.532Z,,,,,,,,,,,,,,,,,,,,,,,,,,,,,,,2084.4689999999828,,form submission,,,,,,,,,,,,,,,,,,,,,434613.19999999925,434613,432521.63,432527.2999999998,432528.531,434618.801,,,
Trap 1,flow.Sequence,2_2,2022-05-03T18:34:38.533Z,,,,,,,,,,,,,,,,,,,,,,,,,,,,,,,9931.416000000027,,completion,,,,,,,,,,,,,,,,,,,,,434613.2999999998,434613,424674.659,424675.39999999944,424681.584,434618.801,,,
Standby,html.Page,2_3_0,2022-05-03T18:34:46.531Z,,,,,,,,,,,,,,,,,,,,,,,,,,,,,,,7999.584000000032,,timeout,,,,,,,,,,,,,,,,,,,,,442611.7999999998,442611.461,434611.846,434613.2999999998,434618.801,442618.385,,,
Holding screen,html.Screen,2_3_1_0_0,2022-05-03T18:34:53.531Z,,,,,,,,,,,,,,,,,,,,,,,,,,,,,,,6999.796999999962,,timeout,,,,,,,,,,,,,,,,,,,,,449611.5999999996,449611.167,442611.461,442611.89999999944,442618.385,449618.182,,,
screen,html.Screen,2_3_1_0_1_0,2022-05-03T18:34:56.293Z,,,,,,,,,,,,,,,,,12,,,,,,,,,,,,,,2754.617999999842,,response,,,,5,A,,,,,,Space,keypress(Space),,,,silence,,,,Some ------ ------ ------- ------ --- ------- -----------<br>-- ----- --- ---- -- --- ------ ---- - ---- -- ----------<br>-- ------ ---- --- ---- --- --- --- ----- -- -------- ---<br>------ ------- -------- --- ---- -- ------- ------------ --<br>------ -- ---- -- --- ---- -- -------- -- --- ------ ------,452373.19999999925,452372.7999999998,449611.167,449611.5999999996,449618.182,452374.994,,0,Some
screen,html.Screen,2_3_1_0_1_1,2022-05-03T18:34:56.613Z,,,,,,,,,,,,,,,,,12,,,,,,,,,,,,,,317.50599999999395,,response,,,,5,A,,,,,,Space,keypress(Space),,,,silence,,,,---- months ------ ------- ------ --- ------- -----------<br>-- ----- --- ---- -- --- ------ ---- - ---- -- ----------<br>-- ------ ---- --- ---- --- --- --- ----- -- -------- ---<br>------ ------- -------- --- ---- -- ------- ------------ --<br>------ -- ---- -- --- ---- -- -------- -- --- ------ ------,452692.7999999998,452692.5,452367.99,452373.2999999998,452374.994,452694.4,,1,months
screen,html.Screen,2_3_1_0_1_2,2022-05-03T18:34:56.941Z,,,,,,,,,,,,,,,,,12,,,,,,,,,,,,,,326.4999999994179,,response,,,,5,A,,,,,,Space,keypress(Space),,,,silence,,,,"---- ------ later, ------- ------ --- ------- -----------<br>-- ----- --- ---- -- --- ------ ---- - ---- -- ----------<br>-- ------ ---- --- ---- --- --- --- ----- -- -------- ---<br>------ ------- -------- --- ---- -- ------- ------------ --<br>------ -- ---- -- --- ---- -- -------- -- --- ------ ------",453021.2999999998,453020.89999999944,452687.428,452692.7999999998,452694.4,453027.809,,2,"later,"
screen,html.Screen,2_3_1_0_1_3,2022-05-03T18:34:57.277Z,,,,,,,,,,,,,,,,,12,,,,,,,,,,,,,,329.1909999999916,,response,,,,5,A,,,,,,Space,keypress(Space),,,,silence,,,,---- ------ ------ Michael ------ --- ------- -----------<br>-- ----- --- ---- -- --- ------ ---- - ---- -- ----------<br>-- ------ ---- --- ---- --- --- --- ----- -- -------- ---<br>------ ------- -------- --- ---- -- ------- ------------ --<br>------ -- ---- -- --- ---- -- -------- -- --- ------ ------,453357.19999999925,453357,453020.788,453021.2999999998,453027.809,453361.141,,3,Michael
screen,html.Screen,2_3_1_0_1_4,2022-05-03T18:34:57.621Z,,,,,,,,,,,,,,,,,12,,,,,,,,,,,,,,339.6589999998105,,response,,,,5,A,,,,,,Space,keypress(Space),,,,silence,,,,---- ------ ------ ------- Larson --- ------- -----------<br>-- ----- --- ---- -- --- ------ ---- - ---- -- ----------<br>-- ------ ---- --- ---- --- --- --- ----- -- -------- ---<br>------ ------- -------- --- ---- -- ------- ------------ --<br>------ -- ---- -- --- ---- -- -------- -- --- ------ ------,453701.0999999996,453700.7999999998,453354.171,453357.2999999998,453361.141,453708.26,,4,Larson
screen,html.Screen,2_3_1_0_1_5,2022-05-03T18:34:57.965Z,,,,,,,,,,,,,,,,,12,,,,,,,,,,,,,,336.1399999994319,,response,,,,5,A,,,,,,Space,keypress(Space),,,,silence,,,,---- ------ ------ ------- ------ saw ------- -----------<br>-- ----- --- ---- -- --- ------ ---- - ---- -- ----------<br>-- ------ ---- --- ---- --- --- --- ----- -- -------- ---<br>------ ------- -------- --- ---- -- ------- ------------ --<br>------ -- ---- -- --- ---- -- -------- -- --- ------ ------,454044.69999999925,454044.39999999944,453701.379,453701.19999999925,453708.26,454048.496,,5,saw
screen,html.Screen,2_3_1_0_1_6,2022-05-03T18:34:58.341Z,,,,,,,,,,,,,,,,,12,,,,,,,,,,,,,,372.3039999998291,,response,,,,5,A,,,,,,Space,keypress(Space),,,,silence,,,,---- ------ ------ ------- ------ --- another -----------<br>-- ----- --- ---- -- --- ------ ---- - ---- -- ----------<br>-- ------ ---- --- ---- --- --- --- ----- -- -------- ---<br>------ ------- -------- --- ---- -- ------- ------------ --<br>------ -- ---- -- --- ---- -- -------- -- --- ------ ------,454421.0999999996,454420.7999999998,454041.547,454044.7999999998,454048.496,454423.515,,6,another
screen,html.Screen,2_3_1_0_1_7,2022-05-03T18:34:58.694Z,,,,,,,,,,,,,,,,,12,,,,,,,,,,,,,,348.88499999942724,,response,,,,5,A,,,,,,Space,keypress(Space),,,,silence,,,,---- ------ ------ ------- ------ --- ------- opportunity<br>-- ----- --- ---- -- --- ------ ---- - ---- -- ----------<br>-- ------ ---- --- ---- --- --- --- ----- -- -------- ---<br>------ ------- -------- --- ---- -- ------- ------------ --<br>------ -- ---- -- --- ---- -- -------- -- --- ------ ------,454774.2999999998,454772.39999999944,454416.562,454421.19999999925,454423.515,454777.667,,7,opportunity
screen,html.Screen,2_3_1_0_1_8,2022-05-03T18:34:59.037Z,,,,,,,,,,,,,,,,,12,,,,,,,,,,,,,,339.0329999992391,,response,,,,5,A,,,,,,Space,keypress(Space),,,,silence,,,,---- ------ ------ ------- ------ --- ------- -----------<br>to ----- --- ---- -- --- ------ ---- - ---- -- ----------<br>-- ------ ---- --- ---- --- --- --- ----- -- -------- ---<br>------ ------- -------- --- ---- -- ------- ------------ --<br>------ -- ---- -- --- ---- -- -------- -- --- ------ ------,455117.0999999996,455116.69999999925,454770.725,454774.2999999998,454777.667,455117.96,,8,to
screen,html.Screen,2_3_1_0_1_9,2022-05-03T18:34:59.365Z,,,,,,,,,,,,,,,,,12,,,,,,,,,,,,,,326.6399999996065,,response,,,,5,A,,,,,,Space,keypress(Space),,,,silence,,,,---- ------ ------ ------- ------ --- ------- -----------<br>-- stack --- ---- -- --- ------ ---- - ---- -- ----------<br>-- ------ ---- --- ---- --- --- --- ----- -- -------- ---<br>------ ------- -------- --- ---- -- ------- ------------ --<br>------ -- ---- -- --- ---- -- -------- -- --- ------ ------,455445.0999999996,455444.5999999996,455110.984,455117.19999999925,455117.96,455451.25,,9,stack
screen,html.Screen,2_3_1_0_1_10,2022-05-03T18:34:59.701Z,,,,,,,,,,,,,,,,,12,,,,,,,,,,,,,,329.1499999994412,,response,,,,5,A,,,,,,Space,keypress(Space),,,,silence,,,,---- ------ ------ ------- ------ --- ------- -----------<br>-- ----- the ---- -- --- ------ ---- - ---- -- ----------<br>-- ------ ---- --- ---- --- --- --- ----- -- -------- ---<br>------ ------- -------- --- ---- -- ------- ------------ --<br>------ -- ---- -- --- ---- -- -------- -- --- ------ ------,455780.7999999998,455780.39999999944,455444.304,455445.0999999996,455451.25,455784.557,,10,the
screen,html.Screen,2_3_1_0_1_11,2022-05-03T18:35:00.029Z,,,,,,,,,,,,,,,,,12,,,,,,,,,,,,,,324.14299999928335,,response,,,,5,A,,,,,,Space,keypress(Space),,,,silence,,,,---- ------ ------ ------- ------ --- ------- -----------<br>-- ----- --- odds -- --- ------ ---- - ---- -- ----------<br>-- ------ ---- --- ---- --- --- --- ----- -- -------- ---<br>------ ------- -------- --- ---- -- ------- ------------ --<br>------ -- ---- -- --- ---- -- -------- -- --- ------ ------,456109,456108.69999999925,455777.626,455780.89999999944,455784.557,456110.968,,11,odds
screen,html.Screen,2_3_1_0_1_12,2022-05-03T18:35:00.381Z,,,,,,,,,,,,,,,,,12,,,,,,,,,,,,,,350.23199999926146,,response,,,,5,A,,,,,,Space,keypress(Space),,,,silence,,,,---- ------ ------ ------- ------ --- ------- -----------<br>-- ----- --- ---- in --- ------ ---- - ---- -- ----------<br>-- ------ ---- --- ---- --- --- --- ----- -- -------- ---<br>------ ------- -------- --- ---- -- ------- ------------ --<br>------ -- ---- -- --- ---- -- -------- -- --- ------ ------,456461.5,456461.19999999925,456104.012,456109.0999999996,456110.968,456465.114,,12,in
screen,html.Screen,2_3_1_0_1_13,2022-05-03T18:35:00.709Z,,,,,,,,,,,,,,,,,12,,,,,,,,,,,,,,323.4859999996261,,response,,,,5,A,,,,,,Space,keypress(Space),,,,silence,,,,---- ------ ------ ------- ------ --- ------- -----------<br>-- ----- --- ---- -- his ------ ---- - ---- -- ----------<br>-- ------ ---- --- ---- --- --- --- ----- -- -------- ---<br>------ ------- -------- --- ---- -- ------- ------------ --<br>------ -- ---- -- --- ---- -- -------- -- --- ------ ------,456788.89999999944,456788.5999999996,456458.177,456461.5999999996,456465.114,456791.471,,13,his
screen,html.Screen,2_3_1_0_1_14,2022-05-03T18:35:01.013Z,,,,,,,,,,,,,,,,,12,,,,,,,,,,,,,,300.92899999942165,,response,,,,5,A,,,,,,Space,keypress(Space),,,,silence,,,,---- ------ ------ ------- ------ --- ------- -----------<br>-- ----- --- ---- -- --- favour ---- - ---- -- ----------<br>-- ------ ---- --- ---- --- --- --- ----- -- -------- ---<br>------ ------- -------- --- ---- -- ------- ------------ --<br>------ -- ---- -- --- ---- -- -------- -- --- ------ ------,457092.7999999998,457092.39999999944,456784.527,456789,456791.471,457097.04,,14,favour
screen,html.Screen,2_3_1_0_1_15,2022-05-03T18:35:01.341Z,,,,,,,,,,,,,,,,,12,,,,,,,,,,,,,,323.46000000002095,,response,,,,5,A,,,,,,Space,keypress(Space),,,,silence,,,,---- ------ ------ ------- ------ --- ------- -----------<br>-- ----- --- ---- -- --- ------ with - ---- -- ----------<br>-- ------ ---- --- ---- --- --- --- ----- -- -------- ---<br>------ ------- -------- --- ---- -- ------- ------------ --<br>------ -- ---- -- --- ---- -- -------- -- --- ------ ------,457420.89999999944,457420.5,457090.099,457092.89999999944,457097.04,457423.408,,15,with
screen,html.Screen,2_3_1_0_1_16,2022-05-03T18:35:01.645Z,,,,,,,,,,,,,,,,,12,,,,,,,,,,,,,,301.19199999963166,,response,,,,5,A,,,,,,Space,keypress(Space),,,,silence,,,,---- ------ ------ ------- ------ --- ------- -----------<br>-- ----- --- ---- -- --- ------ ---- a ---- -- ----------<br>-- ------ ---- --- ---- --- --- --- ----- -- -------- ---<br>------ ------- -------- --- ---- -- ------- ------------ --<br>------ -- ---- -- --- ---- -- -------- -- --- ------ ------,457725,457724.5999999996,457416.453,457421,457423.408,457728.945,,16,a
screen,html.Screen,2_3_1_0_1_17,2022-05-03T18:35:01.981Z,,,,,,,,,,,,,,,,,12,,,,,,,,,,,,,,331.554999999993,,response,,,,5,A,,,,,,Space,keypress(Space),,,,silence,,,,---- ------ ------ ------- ------ --- ------- -----------<br>-- ----- --- ---- -- --- ------ ---- - dash -- ----------<br>-- ------ ---- --- ---- --- --- --- ----- -- -------- ---<br>------ ------- -------- --- ---- -- ------- ------------ --<br>------ -- ---- -- --- ---- -- -------- -- --- ------ ------,458060.89999999944,458060.5,457722.004,457725,457728.945,458062.288,,17,dash
screen,html.Screen,2_3_1_0_1_18,2022-05-03T18:35:02.301Z,,,,,,,,,,,,,,,,,12,,,,,,,,,,,,,,318.21199999999953,,response,,,,5,A,,,,,,Space,keypress(Space),,,,silence,,,,---- ------ ------ ------- ------ --- ------- -----------<br>-- ----- --- ---- -- --- ------ ---- - ---- of ----------<br>-- ------ ---- --- ---- --- --- --- ----- -- -------- ---<br>------ ------- -------- --- ---- -- ------- ------------ --<br>------ -- ---- -- --- ---- -- -------- -- --- ------ ------,458380.89999999944,458380.5,458055.314,458060.89999999944,458062.288,458381.716,,18,of
screen,html.Screen,2_3_1_0_1_19,2022-05-03T18:35:02.621Z,,,,,,,,,,,,,,,,,12,,,,,,,,,,,,,,318.98399999924004,,response,,,,5,A,,,,,,Space,keypress(Space),,,,silence,,,,---- ------ ------ ------- ------ --- ------- -----------<br>-- ----- --- ---- -- --- ------ ---- - ---- -- ingenuity.<br>-- ------ ---- --- ---- --- --- --- ----- -- -------- ---<br>------ ------- -------- --- ---- -- ------- ------------ --<br>------ -- ---- -- --- ---- -- -------- -- --- ------ ------,458701.0999999996,458700.69999999925,458374.756,458380.89999999944,458381.716,458708.078,,19,ingenuity.
screen,html.Screen,2_3_1_0_1_20,2022-05-03T18:35:02.965Z,,,,,,,,,,,,,,,,,12,,,,,,,,,,,,,,336.4220000000205,,response,,,,5,A,,,,,,Space,keypress(Space),,,,silence,,,,---- ------ ------ ------- ------ --- ------- -----------<br>-- ----- --- ---- -- --- ------ ---- - ---- -- ----------<br>He ------ ---- --- ---- --- --- --- ----- -- -------- ---<br>------ ------- -------- --- ---- -- ------- ------------ --<br>------ -- ---- -- --- ---- -- -------- -- --- ------ ------,459044.89999999944,459044.5,458701.16,458701.19999999925,458708.078,459048.327,,20,He
screen,html.Screen,2_3_1_0_1_21,2022-05-03T18:35:03.341Z,,,,,,,,,,,,,,,,,12,,,,,,,,,,,,,,372.3729999992647,,response,,,,5,A,,,,,,Space,keypress(Space),,,,silence,,,,---- ------ ------ ------- ------ --- ------- -----------<br>-- ----- --- ---- -- --- ------ ---- - ---- -- ----------<br>-- walked ---- --- ---- --- --- --- ----- -- -------- ---<br>------ ------- -------- --- ---- -- ------- ------------ --<br>------ -- ---- -- --- ---- -- -------- -- --- ------ ------,459421.19999999925,459420.69999999925,459041.422,459044.89999999944,459048.327,459423.372,,21,walked
screen,html.Screen,2_3_1_0_1_22,2022-05-03T18:35:03.701Z,,,,,,,,,,,,,,,,,12,,,,,,,,,,,,,,357.327999999281,,response,,,,5,A,,,,,,Space,keypress(Space),,,,silence,,,,---- ------ ------ ------- ------ --- ------- -----------<br>-- ----- --- ---- -- --- ------ ---- - ---- -- ----------<br>-- ------ into --- ---- --- --- --- ----- -- -------- ---<br>------ ------- -------- --- ---- -- ------- ------------ --<br>------ -- ---- -- --- ---- -- -------- -- --- ------ ------,459781.19999999925,459780.69999999925,459416.377,459421.19999999925,459423.372,459784.386,,22,into
screen,html.Screen,2_3_1_0_1_23,2022-05-03T18:35:04.037Z,,,,,,,,,,,,,,,,,12,,,,,,,,,,,,,,332.31399999925634,,response,,,,5,A,,,,,,Space,keypress(Space),,,,silence,,,,---- ------ ------ ------- ------ --- ------- -----------<br>-- ----- --- ---- -- --- ------ ---- - ---- -- ----------<br>-- ------ ---- his ---- --- --- --- ----- -- -------- ---<br>------ ------- -------- --- ---- -- ------- ------------ --<br>------ -- ---- -- --- ---- -- -------- -- --- ------ ------,460117,460116.69999999925,459777.49,459781.19999999925,459784.386,460117.741,,23,his
screen,html.Screen,2_3_1_0_1_24,2022-05-03T18:35:04.365Z,,,,,,,,,,,,,,,,,12,,,,,,,,,,,,,,327.05899999983376,,response,,,,5,A,,,,,,Space,keypress(Space),,,,silence,,,,---- ------ ------ ------- ------ --- ------- -----------<br>-- ----- --- ---- -- --- ------ ---- - ---- -- ----------<br>-- ------ ---- --- bank --- --- --- ----- -- -------- ---<br>------ ------- -------- --- ---- -- ------- ------------ --<br>------ -- ---- -- --- ---- -- -------- -- --- ------ ------,460445.19999999925,460444.7999999998,460110.792,460117.0999999996,460117.741,460451.079,,24,bank
screen,html.Screen,2_3_1_0_1_25,2022-05-03T18:35:04.701Z,,,,,,,,,,,,,,,,,12,,,,,,,,,,,,,,329.52099999960046,,response,,,,5,A,,,,,,Space,keypress(Space),,,,silence,,,,---- ------ ------ ------- ------ --- ------- -----------<br>-- ----- --- ---- -- --- ------ ---- - ---- -- ----------<br>-- ------ ---- --- ---- one --- --- ----- -- -------- ---<br>------ ------- -------- --- ---- -- ------- ------------ --<br>------ -- ---- -- --- ---- -- -------- -- --- ------ ------,460780.89999999944,460780.5999999996,460444.116,460445.2999999998,460451.079,460784.375,,25,one
screen,html.Screen,2_3_1_0_1_26,2022-05-03T18:35:05.029Z,,,,,,,,,,,,,,,,,12,,,,,,,,,,,,,,324.22499999962747,,response,,,,5,A,,,,,,Space,keypress(Space),,,,silence,,,,---- ------ ------ ------- ------ --- ------- -----------<br>-- ----- --- ---- -- --- ------ ---- - ---- -- ----------<br>-- ------ ---- --- ---- --- day --- ----- -- -------- ---<br>------ ------- -------- --- ---- -- ------- ------------ --<br>------ -- ---- -- --- ---- -- -------- -- --- ------ ------,461109,461108.5999999996,460777.443,460781,460784.375,461110.739,,26,day
screen,html.Screen,2_3_1_0_1_27,2022-05-03T18:35:05.349Z,,,,,,,,,,,,,,,,,12,,,,,,,,,,,,,,317.96099999925354,,response,,,,5,A,,,,,,Space,keypress(Space),,,,silence,,,,---- ------ ------ ------- ------ --- ------- -----------<br>-- ----- --- ---- -- --- ------ ---- - ---- -- ----------<br>-- ------ ---- --- ---- --- --- and ----- -- -------- ---<br>------ ------- -------- --- ---- -- ------- ------------ --<br>------ -- ---- -- --- ---- -- -------- -- --- ------ ------,461429.0999999996,461428.69999999925,461103.792,461109,461110.739,461430.164,,27,and
screen,html.Screen,2_3_1_0_1_28,2022-05-03T18:35:05.708Z,,,,,,,,,,,,,,,,,12,,,,,,,,,,,,,,358.135999999824,,response,,,,5,A,,,,,,Space,keypress(Space),,,,silence,,,,---- ------ ------ ------- ------ --- ------- -----------<br>-- ----- --- ---- -- --- ------ ---- - ---- -- ----------<br>-- ------ ---- --- ---- --- --- --- asked -- -------- ---<br>------ ------- -------- --- ---- -- ------- ------------ --<br>------ -- ---- -- --- ---- -- -------- -- --- ------ ------,461788.5999999996,461788.2999999998,461423.229,461429.0999999996,461430.164,461791.271,,28,asked
screen,html.Screen,2_3_1_0_1_29,2022-05-03T18:35:06.029Z,,,,,,,,,,,,,,,,,12,,,,,,,,,,,,,,317.32899999961955,,response,,,,5,A,,,,,,Space,keypress(Space),,,,silence,,,,---- ------ ------ ------- ------ --- ------- -----------<br>-- ----- --- ---- -- --- ------ ---- - ---- -- ----------<br>-- ------ ---- --- ---- --- --- --- ----- to -------- ---<br>------ ------- -------- --- ---- -- ------- ------------ --<br>------ -- ---- -- --- ---- -- -------- -- --- ------ ------,462108.89999999944,462108.5999999996,461784.333,461788.69999999925,461791.271,462110.742,,29,to
screen,html.Screen,2_3_1_0_1_30,2022-05-03T18:35:06.333Z,,,,,,,,,,,,,,,,,12,,,,,,,,,,,,,,302.3579999996,,response,,,,5,A,,,,,,Space,keypress(Space),,,,silence,,,,---- ------ ------ ------- ------ --- ------- -----------<br>-- ----- --- ---- -- --- ------ ---- - ---- -- ----------<br>-- ------ ---- --- ---- --- --- --- ----- -- withdraw ---<br>------ ------- -------- --- ---- -- ------- ------------ --<br>------ -- ---- -- --- ---- -- -------- -- --- ------ ------,462413.2999999998,462413.0999999996,462103.766,462109,462110.742,462416.257,,30,withdraw
screen,html.Screen,2_3_1_0_1_31,2022-05-03T18:35:06.749Z,,,,,,,,,,,,,,,,,12,,,,,,,,,,,,,,412.0429999998305,,response,,,,5,A,,,,,,Space,keypress(Space),,,,silence,,,,---- ------ ------ ------- ------ --- ------- -----------<br>-- ----- --- ---- -- --- ------ ---- - ---- -- ----------<br>-- ------ ---- --- ---- --- --- --- ----- -- -------- his<br>------ ------- -------- --- ---- -- ------- ------------ --<br>------ -- ---- -- --- ---- -- -------- -- --- ------ ------,462828.69999999925,462828.2999999998,462409.333,462413.39999999944,462416.257,462832.903,,31,his
screen,html.Screen,2_3_1_0_1_32,2022-05-03T18:35:07.093Z,,,,,,,,,,,,,,,,,12,,,,,,,,,,,,,,339.6969999996363,,response,,,,5,A,,,,,,Space,keypress(Space),,,,silence,,,,---- ------ ------ ------- ------ --- ------- -----------<br>-- ----- --- ---- -- --- ------ ---- - ---- -- ----------<br>-- ------ ---- --- ---- --- --- --- ----- -- -------- ---<br>entire ------- -------- --- ---- -- ------- ------------ --<br>------ -- ---- -- --- ---- -- -------- -- --- ------ ------,463172.7999999998,463172.5999999996,462825.956,462828.7999999998,462832.903,463180.128,,32,entire
screen,html.Screen,2_3_1_0_1_33,2022-05-03T18:35:07.469Z,,,,,,,,,,,,,,,,,12,,,,,,,,,,,,,,368.67199999978766,,response,,,,5,A,,,,,,Space,keypress(Space),,,,silence,,,,---- ------ ------ ------- ------ --- ------- -----------<br>-- ----- --- ---- -- --- ------ ---- - ---- -- ----------<br>-- ------ ---- --- ---- --- --- --- ----- -- -------- ---<br>------ account -------- --- ---- -- ------- ------------ --<br>------ -- ---- -- --- ---- -- -------- -- --- ------ ------,463549.19999999925,463548.7999999998,463166.253,463172.89999999944,463180.128,463555.106,,33,account
screen,html.Screen,2_3_1_0_1_34,2022-05-03T18:35:07.829Z,,,,,,,,,,,,,,,,,12,,,,,,,,,,,,,,353.79399999941234,,response,,,,5,A,,,,,,Space,keypress(Space),,,,silence,,,,"---- ------ ------ ------- ------ --- ------- -----------<br>-- ----- --- ---- -- --- ------ ---- - ---- -- ----------<br>-- ------ ---- --- ---- --- --- --- ----- -- -------- ---<br>------ ------- balance, --- ---- -- ------- ------------ --<br>------ -- ---- -- --- ---- -- -------- -- --- ------ ------",463909.2999999998,463908.89999999944,463548.158,463549.19999999925,463555.106,463916.341,,34,"balance,"
screen,html.Screen,2_3_1_0_1_35,2022-05-03T18:35:08.157Z,,,,,,,,,,,,,,,,,12,,,,,,,,,,,,,,320.75899999961257,,response,,,,5,A,,,,,,Space,keypress(Space),,,,silence,,,,---- ------ ------ ------- ------ --- ------- -----------<br>-- ----- --- ---- -- --- ------ ---- - ---- -- ----------<br>-- ------ ---- --- ---- --- --- --- ----- -- -------- ---<br>------ ------- -------- but ---- -- ------- ------------ --<br>------ -- ---- -- --- ---- -- -------- -- --- ------ ------,464237.39999999944,464237.0999999996,463909.317,463910,463916.341,464242.657,,35,but
screen,html.Screen,2_3_1_0_1_36,2022-05-03T18:35:08.501Z,,,,,,,,,,,,,,,,,12,,,,,,,,,,,,,,337.8429999999935,,response,,,,5,A,,,,,,Space,keypress(Space),,,,silence,,,,---- ------ ------ ------- ------ --- ------- -----------<br>-- ----- --- ---- -- --- ------ ---- - ---- -- ----------<br>-- ------ ---- --- ---- --- --- --- ----- -- -------- ---<br>------ ------- -------- --- with -- ------- ------------ --<br>------ -- ---- -- --- ---- -- -------- -- --- ------ ------,464580.7999999998,464580.5,464235.722,464237.39999999944,464242.657,464582.92,,36,with
screen,html.Screen,2_3_1_0_1_37,2022-05-03T18:35:08.869Z,,,,,,,,,,,,,,,,,12,,,,,,,,,,,,,,366.0800000000163,,response,,,,5,A,,,,,,Space,keypress(Space),,,,silence,,,,---- ------ ------ ------- ------ --- ------- -----------<br>-- ----- --- ---- -- --- ------ ---- - ---- -- ----------<br>-- ------ ---- --- ---- --- --- --- ----- -- -------- ---<br>------ ------- -------- --- ---- an ------- ------------ --<br>------ -- ---- -- --- ---- -- -------- -- --- ------ ------,464949.39999999944,464949,464575.885,464580.89999999944,464582.92,464950.892,,37,an
screen,html.Screen,2_3_1_0_1_38,2022-05-03T18:35:09.213Z,,,,,,,,,,,,,,,,,12,,,,,,,,,,,,,,341.60800000000745,,response,,,,5,A,,,,,,Space,keypress(Space),,,,silence,,,,---- ------ ------ ------- ------ --- ------- -----------<br>-- ----- --- ---- -- --- ------ ---- - ---- -- ----------<br>-- ------ ---- --- ---- --- --- --- ----- -- -------- ---<br>------ ------- -------- --- ---- -- unusual ------------ --<br>------ -- ---- -- --- ---- -- -------- -- --- ------ ------,465292.7999999998,465292.5,464944.041,464949.5,464950.892,465298.173,,38,unusual
screen,html.Screen,2_3_1_0_1_39,2022-05-03T18:35:09.573Z,,,,,,,,,,,,,,,,,12,,,,,,,,,,,,,,354.8269999999902,,response,,,,5,A,,,,,,Space,keypress(Space),,,,silence,,,,---- ------ ------ ------- ------ --- ------- -----------<br>-- ----- --- ---- -- --- ------ ---- - ---- -- ----------<br>-- ------ ---- --- ---- --- --- --- ----- -- -------- ---<br>------ ------- -------- --- ---- -- ------- stipulation: --<br>------ -- ---- -- --- ---- -- -------- -- --- ------ ------,465653.39999999944,465653,465291.22,465292.89999999944,465298.173,465659.223,,39,stipulation:
screen,html.Screen,2_3_1_0_1_40,2022-05-03T18:35:09.933Z,,,,,,,,,,,,,,,,,12,,,,,,,,,,,,,,353.37699999962933,,response,,,,5,A,,,,,,Space,keypress(Space),,,,silence,,,,---- ------ ------ ------- ------ --- ------- -----------<br>-- ----- --- ---- -- --- ------ ---- - ---- -- ----------<br>-- ------ ---- --- ---- --- --- --- ----- -- -------- ---<br>------ ------- -------- --- ---- -- ------- ------------ He<br>------ -- ---- -- --- ---- -- -------- -- --- ------ ------,466012.89999999944,466012.5999999996,465652.315,465653.39999999944,465659.223,466013.377,,40,He
screen,html.Screen,2_3_1_0_1_41,2022-05-03T18:35:10.269Z,,,,,,,,,,,,,,,,,12,,,,,,,,,,,,,,335.32299999927636,,response,,,,5,A,,,,,,Space,keypress(Space),,,,silence,,,,---- ------ ------ ------- ------ --- ------- -----------<br>-- ----- --- ---- -- --- ------ ---- - ---- -- ----------<br>-- ------ ---- --- ---- --- --- --- ----- -- -------- ---<br>------ ------- -------- --- ---- -- ------- ------------ --<br>wanted -- ---- -- --- ---- -- -------- -- --- ------ ------,466348.89999999944,466348.69999999925,466006.399,466013,466013.377,466353.609,,41,wanted
screen,html.Screen,2_3_1_0_1_42,2022-05-03T18:35:10.613Z,,,,,,,,,,,,,,,,,12,,,,,,,,,,,,,,339.39100000000326,,response,,,,5,A,,,,,,Space,keypress(Space),,,,silence,,,,---- ------ ------ ------- ------ --- ------- -----------<br>-- ----- --- ---- -- --- ------ ---- - ---- -- ----------<br>-- ------ ---- --- ---- --- --- --- ----- -- -------- ---<br>------ ------- -------- --- ---- -- ------- ------------ --<br>------ as ---- -- --- ---- -- -------- -- --- ------ ------,466693.39999999944,466693,466346.665,466349,466353.609,466693.841,,42,as
