sender,sender_type,sender_id,timestamp,meta,,Blues,Classical,Country,Dance,Electronic,Folk,Gospel,Hip-Hop,Jazz,Latin,Musical/Film,New-age,Pop,Prolific_id,Provo_ID,R&B,Rap,Reggae,Religious,Rock,Soul,Swing,Traditional,age,artist_name,correct,correctResponse,distraction,duration,education,ended_on,familiarity,gender,headphone_check_performance,item,list,music_frequency,offensiveness,pleasantness,position_correct,preference,response,response_action,snippet_file,song_name,song_rating,sound,stimulus_1,stimulus_2,stimulus_3,text,time_commit,time_end,time_render,time_run,time_show,time_switch,url,word,word_ID
Prolific ID,html.Form,0,2022-04-25T13:32:56.112Z,"{""labjs_version"":""20.2.2"",""labjs_build"":{""flavor"":""production"",""commit"":""a25486e0c714a0ae2ce03ff94b7bb6896854dcfa""},""location"":""https://run.pavlovia.org/mvasilev/prolific3_music_a/"",""userAgent"":""Mozilla/5.0 (Windows NT 10.0; Win64; x64) AppleWebKit/537.36 (KHTML, like Gecko) Chrome/100.0.4896.127 Safari/537.36 Edg/100.0.1185.50"",""platform"":""Win32"",""language"":""en-US"",""locale"":""en-US"",""timeZone"":""Europe/London"",""timezoneOffset"":-60,""screen_width"":1280,""screen_height"":720,""scroll_width"":1280,""scroll_height"":553,""window_innerWidth"":1280,""window_innerHeight"":601,""devicePixelRatio"":1.5}",,,,,,,,,,,,,,,5dff767f69a117bc2fbd4be8,,,,,,,,,,,,,,,12717.576000071527,,form submission,,,,,,,,,,,,,,,,,,,,,31543.600000023842,31542.800000071526,18808.567,18792.5,18825.224,31574.847,{},,
Introduction,html.Screen,1_0,2022-04-25T13:33:06.396Z,,,,,,,,,,,,,,,,,,,,,,,,,,,,,,,10248.353000047682,,response,,,,,,,,,,,continue,click button,,,,,,,,,41826.89999997616,41823.200000047684,31558.188,31544,31574.847,41848.012,,,
Volume calibration,html.Screen,1_1,2022-04-25T13:33:21.585Z,,,,,,,,,,,,,,,,,,,,,,,,,,,,,,,15164.188000047681,,response,,,,,,,,,,,continue,click button,,,,,,,,,57016,57012.200000047684,41808.033,41827.10000002384,41848.012,57024.346,,,
Task instructions,html.Screen,1_2,2022-04-25T13:33:30.520Z,,,,,,,,,,,,,,,,,,,,,,,,,,,,,,,8917.954000071528,,response,,,,,,,,,,,continue,click button,,,,,,,,,65943.60000002384,65942.30000007153,57007.744,57016.10000002384,57024.346,65957.511,,,
Sounds,html.Screen,1_3_0_0,2022-04-25T13:33:34.770Z,,,,,,,,,,,,,,,,,,,,,,,,,,,,,,,4249.898000000001,,timeout,,,,,,,,,1,,,,,,,,S,I,O,,70194.30000007153,70190.835,65940.946,65943.80000007153,65957.511,70207.409,,,
Judgement,html.Screen,1_3_0_1,2022-04-25T13:33:36.618Z,,,,,,,,,,,,,,,,,,,,,,,,,,,,true,1,,1833.4909999761585,,response,,,,,,,,,1,,1,click #choice-1,,,,,S,I,O,,72042.20000004768,72040.89999997616,70190.835,70194.5,70207.409,72057.43,,,
Trial,flow.Sequence,1_3_0,2022-04-25T13:33:36.619Z,,,,,,,,,,,,,,,,,,,,,,,,,,,,,,,6083.3889999761595,,completion,,,,,,,,,1,,,,,,,,S,I,O,,72042.60000002384,72040.89999997616,65940.946,65943.80000007153,65957.511,72057.43,,,
Sounds,html.Screen,1_3_1_0,2022-04-25T13:33:40.868Z,,,,,,,,,,,,,,,,,,,,,,,,,,,,,,,4249.94200000001,,timeout,,,,,,,,,2,,,,,,,,I,S,O,,76292.20000004768,76291.027,72040.691,72043.10000002384,72057.43,76307.372,,,
Judgement,html.Screen,1_3_1_1,2022-04-25T13:33:42.282Z,,,,,,,,,,,,,,,,,,,,,,,,,,,,true,2,,1397.3280000476807,,response,,,,,,,,,2,,2,click #choice-2,,,,,I,S,O,,77706.30000007153,77704.70000004768,76291.027,76292.30000007153,76307.372,77707.324,,,
Trial,flow.Sequence,1_3_1,2022-04-25T13:33:42.283Z,,,,,,,,,,,,,,,,,,,,,,,,,,,,,,,5647.270000047691,,completion,,,,,,,,,2,,,,,,,,I,S,O,,77706.60000002384,77704.70000004768,72040.691,72042.70000004768,72057.43,77707.324,,,
Sounds,html.Screen,1_3_2_0,2022-04-25T13:33:46.518Z,,,,,,,,,,,,,,,,,,,,,,,,,,,,,,,4249.992000000013,,timeout,,,,,,,,,3,,,,,,,,O,I,S,,81941.70000004768,81940.608,77690.74,77706.80000007153,77707.324,81957.316,,,
Judgement,html.Screen,1_3_2_1,2022-04-25T13:33:47.860Z,,,,,,,,,,,,,,,,,,,,,,,,,,,,true,3,,1325.7840000238357,,response,,,,,,,,,3,,3,click #choice-3,,,,,O,I,S,,83284.5,83283.10000002384,81940.608,81941.80000007153,81957.316,83290.599,,,
Trial,flow.Sequence,1_3_2,2022-04-25T13:33:47.861Z,,,,,,,,,,,,,,,,,,,,,,,,,,,,,,,5575.776000023849,,completion,,,,,,,,,3,,,,,,,,O,I,S,,83284.80000007153,83283.10000002384,77690.74,77706.80000007153,77707.324,83290.599,,,
Sounds,html.Screen,1_3_3_0,2022-04-25T13:33:52.101Z,,,,,,,,,,,,,,,,,,,,,,,,,,,,,,,4250.017999999996,,timeout,,,,,,,,,2,,,,,,,,O,S,I,,87525,87523.862,83273.993,83284.89999997616,83290.599,87540.617,,,
Judgement,html.Screen,1_3_3_1,2022-04-25T13:33:55.520Z,,,,,,,,,,,,,,,,,,,,,,,,,,,,false,2,,3402.3830000000016,,response,,,,,,,,,2,,1,click #choice-1,,,,,O,S,I,,90944.20000004768,90943,87523.862,87525.20000004768,87540.617,90957.084,,,
Trial,flow.Sequence,1_3_3,2022-04-25T13:33:55.520Z,,,,,,,,,,,,,,,,,,,,,,,,,,,,,,,7652.400999999998,,completion,,,,,,,,,2,,,,,,,,O,S,I,,90944.30000007153,90943,83273.993,83284.89999997616,83290.599,90957.084,,,
Sounds,html.Screen,1_3_4_0,2022-04-25T13:33:59.767Z,,,,,,,,,,,,,,,,,,,,,,,,,,,,,,,4249.921999999991,,timeout,,,,,,,,,3,,,,,,,,I,O,S,,95191.39999997616,95190.396,90940.689,90944.39999997616,90957.084,95207.006,,,
Judgement,html.Screen,1_3_4_1,2022-04-25T13:34:01.194Z,,,,,,,,,,,,,,,,,,,,,,,,,,,,true,3,,1409.7940000715316,,response,,,,,,,,,3,,3,click #choice-3,,,,,I,O,S,,96618,96616.80000007153,95190.396,95191.5,95207.006,96623.642,,,
Trial,flow.Sequence,1_3_4,2022-04-25T13:34:01.194Z,,,,,,,,,,,,,,,,,,,,,,,,,,,,,,,5659.716000071523,,completion,,,,,,,,,3,,,,,,,,I,O,S,,96618.30000007153,96616.80000007153,90940.689,90944.39999997616,90957.084,96623.642,,,
Sounds,html.Screen,1_3_5_0,2022-04-25T13:34:05.434Z,,,,,,,,,,,,,,,,,,,,,,,,,,,,,,,4249.962999999989,,timeout,,,,,,,,,1,,,,,,,,S,O,I,,100858.5,100856.943,96606.881,96618.39999997616,96623.642,100873.605,,,
Judgement,html.Screen,1_3_5_1,2022-04-25T13:34:06.560Z,,,,,,,,,,,,,,,,,,,,,,,,,,,,true,1,,1108.495000023846,,response,,,,,,,,,1,,1,click #choice-1,,,,,S,O,I,,101983.70000004768,101982.10000002384,100856.943,100858.60000002384,100873.605,101990.489,,,
Trial,flow.Sequence,1_3_5,2022-04-25T13:34:06.560Z,,,,,,,,,,,,,,,,,,,,,,,,,,,,,,,5358.458000023835,,completion,,,,,,,,,1,,,,,,,,S,O,I,,101983.89999997616,101982.10000002384,96606.881,96618.39999997616,96623.642,101990.489,,,
Task,flow.Loop,1_3,2022-04-25T13:34:06.566Z,,,,,,,,,,,,,,,,,,,,,,,,,,,,,,,36024.58900002384,,completion,,,0.8333333333333334,,,,,,,,,,,,,,,,,,101990.5,101982.10000002384,65940.946,65943.70000004768,65957.511,101990.489,,,
Trap,html.Screen,1_4,2022-04-25T13:34:06.568Z,,,,,,,,,,,,,,,,,,,,,,,,,,,,,,,NaN,,skipped,,,,,,,,,,,,,,,,,,,,,101992.39999997616,101982.10000002384,,101992.10000002384,,101990.489,,,
Thanks,html.Screen,1_5,2022-04-25T13:34:13.333Z,,,,,,,,,,,,,,,,,,,,,,,,,,,,,,,6764.811000071524,,response,,,,,,,,,,,continue,click button,,,,,,,,,108756.5,108755.30000007153,101973.704,101992.60000002384,101990.489,115673.336,,,
Headphone screening,flow.Sequence,1,2022-04-25T13:34:13.333Z,,,,,,,,,,,,,,,,,,,,,,,,,,,,,,,77180.45300007152,,completion,,,,,,,,,,,,,,,,,,,,,108756.80000007153,108755.30000007153,31558.188,31544,31574.847,115673.336,,,
Instructions,html.Page,2_0,2022-04-25T13:34:45.276Z,,,,,,,,,,,,,,,,,,,,,,,,,,,,,,,25026.864000047688,,form submission,,,,,,,,,,,,,,,,,,,,,140700.60000002384,140700.20000004768,115656.67,115676.30000007153,115673.336,140706.233,,,
Holding screen,html.Screen,2_1_0_0,2022-04-25T13:34:55.266Z,,,,,,,,,,,,,,,,,,,,,,,,,,,,,,,9999.870999999985,,timeout,,,,,,,,,,,,,,,,,,,,,150690.60000002384,150689.694,140689.579,140700.89999997616,140706.233,150706.104,,,
screen,html.Screen,2_1_0_1_0,2022-04-25T13:34:56.394Z,,,,,,,,,,,,,,,,,53,,,,,,,,,,,,,,1109.896000000008,,response,,,,99,,,,,,,Space,keypress(Space),,,,,,,,When -- ----- -- ------ - ------- --- ----------<br>------------- ------ ------ ---- ---- ------- ----- -- ----<br>-------- ------- -- ---------- --- - --- ----- ----- ----<br>---- --- --- ----- --- ---- ---- ------- ----- ---- -------<br>--- --- -- ----- -- --- ---- -- --- ---- -- ------ ------<br>--- ----- -- ----,151818.30000007153,151816,150689.694,150690.80000007153,150706.104,151822.682,,0,When
screen,html.Screen,2_1_0_1_1,2022-04-25T13:34:56.782Z,,,,,,,,,,,,,,,,,53,,,,,,,,,,,,,,383.518000047683,,response,,,,99,,,,,,,Space,keypress(Space),,,,,,,,---- it ----- -- ------ - ------- --- ----------<br>------------- ------ ------ ---- ---- ------- ----- -- ----<br>-------- ------- -- ---------- --- - --- ----- ----- ----<br>---- --- --- ----- --- ---- ---- ------- ----- ---- -------<br>--- --- -- ----- -- --- ---- -- --- ---- -- ------ ------<br>--- ----- -- ----,152206.89999997616,152206.20000004768,151806.273,151818.5,151822.682,152222.693,,1,it
screen,html.Screen,2_1_0_1_2,2022-04-25T13:34:57.162Z,,,,,,,,,,,,,,,,,53,,,,,,,,,,,,,,363.0070000476844,,response,,,,99,,,,,,,Space,keypress(Space),,,,,,,,---- -- comes -- ------ - ------- --- ----------<br>------------- ------ ------ ---- ---- ------- ----- -- ----<br>-------- ------- -- ---------- --- - --- ----- ----- ----<br>---- --- --- ----- --- ---- ---- ------- ----- ---- -------<br>--- --- -- ----- -- --- ---- -- --- ---- -- ------ ------<br>--- ----- -- ----,152586.39999997616,152585.70000004768,152206.138,152206.89999997616,152222.693,152589.336,,2,comes
screen,html.Screen,2_1_0_1_3,2022-04-25T13:34:57.360Z,,,,,,,,,,,,,,,,,53,,,,,,,,,,,,,,194.0639999761479,,response,,,,99,,,,,,,Space,keypress(Space),,,,,,,,---- -- ----- to ------ - ------- --- ----------<br>------------- ------ ------ ---- ---- ------- ----- -- ----<br>-------- ------- -- ---------- --- - --- ----- ----- ----<br>---- --- --- ----- --- ---- ---- ------- ----- ---- -------<br>--- --- -- ----- -- --- ---- -- --- ---- -- ------ ------<br>--- ----- -- ----,152784.10000002384,152783.39999997616,152572.754,152586.60000002384,152589.336,152789.342,,3,to
screen,html.Screen,2_1_0_1_4,2022-04-25T13:34:57.807Z,,,,,,,,,,,,,,,,,53,,,,,,,,,,,,,,441.4580000715214,,response,,,,99,,,,,,,Space,keypress(Space),,,,,,,,---- -- ----- -- having - ------- --- ----------<br>------------- ------ ------ ---- ---- ------- ----- -- ----<br>-------- ------- -- ---------- --- - --- ----- ----- ----<br>---- --- --- ----- --- ---- ---- ------- ----- ---- -------<br>--- --- -- ----- -- --- ---- -- --- ---- -- ------ ------<br>--- ----- -- ----,153231.60000002384,153230.80000007153,152772.688,152784.39999997616,152789.342,153239.29,,4,having
screen,html.Screen,2_1_0_1_5,2022-04-25T13:34:58.105Z,,,,,,,,,,,,,,,,,53,,,,,,,,,,,,,,289.20999999999185,,response,,,,99,,,,,,,Space,keypress(Space),,,,,,,,---- -- ----- -- ------ a ------- --- ----------<br>------------- ------ ------ ---- ---- ------- ----- -- ----<br>-------- ------- -- ---------- --- - --- ----- ----- ----<br>---- --- --- ----- --- ---- ---- ------- ----- ---- -------<br>--- --- -- ----- -- --- ---- -- --- ---- -- ------ ------<br>--- ----- -- ----,153529.39999997616,153528.5,153223.027,153231.70000004768,153239.29,153539.339,,5,a
screen,html.Screen,2_1_0_1_6,2022-04-25T13:34:58.355Z,,,,,,,,,,,,,,,,,53,,,,,,,,,,,,,,238.3610000476765,,response,,,,99,,,,,,,Space,keypress(Space),,,,,,,,---- -- ----- -- ------ - lasting --- ----------<br>------------- ------ ------ ---- ---- ------- ----- -- ----<br>-------- ------- -- ---------- --- - --- ----- ----- ----<br>---- --- --- ----- --- ---- ---- ------- ----- ---- -------<br>--- --- -- ----- -- --- ---- -- --- ---- -- ------ ------<br>--- ----- -- ----,153779.20000004768,153777.70000004768,153522.731,153529.5,153539.339,153789.302,,6,lasting
screen,html.Screen,2_1_0_1_7,2022-04-25T13:34:58.927Z,,,,,,,,,,,,,,,,,53,,,,,,,,,,,,,,561.0979999761621,,response,,,,99,,,,,,,Space,keypress(Space),,,,,,,,---- -- ----- -- ------ - ------- and ----------<br>------------- ------ ------ ---- ---- ------- ----- -- ----<br>-------- ------- -- ---------- --- - --- ----- ----- ----<br>---- --- --- ----- --- ---- ---- ------- ----- ---- -------<br>--- --- -- ----- -- --- ---- -- --- ---- -- ------ ------<br>--- ----- -- ----,154351.30000007153,154350.39999997616,153772.685,153779.30000007153,153789.302,154355.977,,7,and
screen,html.Screen,2_1_0_1_8,2022-04-25T13:34:59.562Z,,,,,,,,,,,,,,,,,53,,,,,,,,,,,,,,629.2230000476702,,response,,,,99,,,,,,,Space,keypress(Space),,,,,,,,---- -- ----- -- ------ - ------- --- fulfilling<br>------------- ------ ------ ---- ---- ------- ----- -- ----<br>-------- ------- -- ---------- --- - --- ----- ----- ----<br>---- --- --- ----- --- ---- ---- ------- ----- ---- -------<br>--- --- -- ----- -- --- ---- -- --- ---- -- ------ ------<br>--- ----- -- ----,154986.10000002384,154985.20000004768,154339.718,154351.39999997616,154355.977,154989.457,,8,fulfilling
screen,html.Screen,2_1_0_1_9,2022-04-25T13:35:00.458Z,,,,,,,,,,,,,,,,,53,,,,,,,,,,,,,,892.7430000476888,,response,,,,99,,,,,,,Space,keypress(Space),,,,,,,,"---- -- ----- -- ------ - ------- --- ----------<br>relationship, ------ ------ ---- ---- ------- ----- -- ----<br>-------- ------- -- ---------- --- - --- ----- ----- ----<br>---- --- --- ----- --- ---- ---- ------- ----- ---- -------<br>--- --- -- ----- -- --- ---- -- --- ---- -- ------ ------<br>--- ----- -- ----",155883,155882.20000004768,154973.084,154986.30000007153,154989.457,155889.248,,9,"relationship,"
screen,html.Screen,2_1_0_1_10,2022-04-25T13:35:00.952Z,,,,,,,,,,,,,,,,,53,,,,,,,,,,,,,,486.2520000000077,,response,,,,99,,,,,,,Space,keypress(Space),,,,,,,,---- -- ----- -- ------ - ------- --- ----------<br>------------- common ------ ---- ---- ------- ----- -- ----<br>-------- ------- -- ---------- --- - --- ----- ----- ----<br>---- --- --- ----- --- ---- ---- ------- ----- ---- -------<br>--- --- -- ----- -- --- ---- -- --- ---- -- ------ ------<br>--- ----- -- ----,156376.39999997616,156375.5,155872.803,155883.20000004768,155889.248,156389.295,,10,common
screen,html.Screen,2_1_0_1_11,2022-04-25T13:35:01.287Z,,,,,,,,,,,,,,,,,53,,,,,,,,,,,,,,321.30500002382905,,response,,,,99,,,,,,,Space,keypress(Space),,,,,,,,---- -- ----- -- ------ - ------- --- ----------<br>------------- ------ wisdom ---- ---- ------- ----- -- ----<br>-------- ------- -- ---------- --- - --- ----- ----- ----<br>---- --- --- ----- --- ---- ---- ------- ----- ---- -------<br>--- --- -- ----- -- --- ---- -- --- ---- -- ------ ------<br>--- ----- -- ----,156711.39999997616,156710.60000002384,156372.706,156376.70000004768,156389.295,156722.694,,11,wisdom
screen,html.Screen,2_1_0_1_12,2022-04-25T13:35:01.592Z,,,,,,,,,,,,,,,,,53,,,,,,,,,,,,,,293.3060000000114,,response,,,,99,,,,,,,Space,keypress(Space),,,,,,,,---- -- ----- -- ------ - ------- --- ----------<br>------------- ------ ------ says ---- ------- ----- -- ----<br>-------- ------- -- ---------- --- - --- ----- ----- ----<br>---- --- --- ----- --- ---- ---- ------- ----- ---- -------<br>--- --- -- ----- -- --- ---- -- --- ---- -- ------ ------<br>--- ----- -- ----,157016.70000004768,157016,156705.993,156711.60000002384,156722.694,157022.631,,12,says
screen,html.Screen,2_1_0_1_13,2022-04-25T13:35:01.927Z,,,,,,,,,,,,,,,,,53,,,,,,,,,,,,,,327.6690000715316,,response,,,,99,,,,,,,Space,keypress(Space),,,,,,,,---- -- ----- -- ------ - ------- --- ----------<br>------------- ------ ------ ---- that ------- ----- -- ----<br>-------- ------- -- ---------- --- - --- ----- ----- ----<br>---- --- --- ----- --- ---- ---- ------- ----- ---- -------<br>--- --- -- ----- -- --- ---- -- --- ---- -- ------ ------<br>--- ----- -- ----,157351.20000004768,157350.30000007153,157006.3,157017,157022.631,157355.934,,13,that
screen,html.Screen,2_1_0_1_14,2022-04-25T13:35:02.166Z,,,,,,,,,,,,,,,,,53,,,,,,,,,,,,,,233.8660000715172,,response,,,,99,,,,,,,Space,keypress(Space),,,,,,,,---- -- ----- -- ------ - ------- --- ----------<br>------------- ------ ------ ---- ---- feeling ----- -- ----<br>-------- ------- -- ---------- --- - --- ----- ----- ----<br>---- --- --- ----- --- ---- ---- ------- ----- ---- -------<br>--- --- -- ----- -- --- ---- -- --- ---- -- ------ ------<br>--- ----- -- ----,157590.60000002384,157589.80000007153,157339.341,157351.20000004768,157355.934,157606.218,,14,feeling
screen,html.Screen,2_1_0_1_15,2022-04-25T13:35:02.720Z,,,,,,,,,,,,,,,,,53,,,,,,,,,,,,,,537.4820000476902,,response,,,,99,,,,,,,Space,keypress(Space),,,,,,,,---- -- ----- -- ------ - ------- --- ----------<br>------------- ------ ------ ---- ---- ------- close -- ----<br>-------- ------- -- ---------- --- - --- ----- ----- ----<br>---- --- --- ----- --- ---- ---- ------- ----- ---- -------<br>--- --- -- ----- -- --- ---- -- --- ---- -- ------ ------<br>--- ----- -- ----,158144.39999997616,158143.70000004768,157589.318,157590.80000007153,157606.218,158155.969,,15,close
screen,html.Screen,2_1_0_1_16,2022-04-25T13:35:03.060Z,,,,,,,,,,,,,,,,,53,,,,,,,,,,,,,,328.0309999999881,,response,,,,99,,,,,,,Space,keypress(Space),,,,,,,,---- -- ----- -- ------ - ------- --- ----------<br>------------- ------ ------ ---- ---- ------- ----- to ----<br>-------- ------- -- ---------- --- - --- ----- ----- ----<br>---- --- --- ----- --- ---- ---- ------- ----- ---- -------<br>--- --- -- ----- -- --- ---- -- --- ---- -- ------ ------<br>--- ----- -- ----,158484.89999997616,158484,158139.651,158144.5,158155.969,158489.205,,16,to
screen,html.Screen,2_1_0_1_17,2022-04-25T13:35:03.532Z,,,,,,,,,,,,,,,,,53,,,,,,,,,,,,,,466.0950000715384,,response,,,,99,,,,,,,Space,keypress(Space),,,,,,,,---- -- ----- -- ------ - ------- --- ----------<br>------------- ------ ------ ---- ---- ------- ----- -- your<br>-------- ------- -- ---------- --- - --- ----- ----- ----<br>---- --- --- ----- --- ---- ---- ------- ----- ---- -------<br>--- --- -- ----- -- --- ---- -- --- ---- -- ------ ------<br>--- ----- -- ----,158956.30000007153,158955.30000007153,158472.687,158485.10000002384,158489.205,158972.807,,17,your
screen,html.Screen,2_1_0_1_18,2022-04-25T13:35:04.213Z,,,,,,,,,,,,,,,,,53,,,,,,,,,,,,,,663.9930000715249,,response,,,,99,,,,,,,Space,keypress(Space),,,,,,,,---- -- ----- -- ------ - ------- --- ----------<br>------------- ------ ------ ---- ---- ------- ----- -- ----<br>romantic ------- -- ---------- --- - --- ----- ----- ----<br>---- --- --- ----- --- ---- ---- ------- ----- ---- -------<br>--- --- -- ----- -- --- ---- -- --- ---- -- ------ ------<br>--- ----- -- ----,159637.70000004768,159636.80000007153,158955.965,158956.39999997616,158972.807,159670.824,,18,romantic
screen,html.Screen,2_1_0_1_19,2022-04-25T13:35:04.469Z,,,,,,,,,,,,,,,,,53,,,,,,,,,,,,,,222.47600007153233,,response,,,,99,,,,,,,Space,keypress(Space),,,,,,,,---- -- ----- -- ------ - ------- --- ----------<br>------------- ------ ------ ---- ---- ------- ----- -- ----<br>-------- partner -- ---------- --- - --- ----- ----- ----<br>---- --- --- ----- --- ---- ---- ------- ----- ---- -------<br>--- --- -- ----- -- --- ---- -- --- ---- -- ------ ------<br>--- ----- -- ----,159894.10000002384,159893.30000007153,159622.991,159637.80000007153,159670.824,159906.019,,19,partner
screen,html.Screen,2_1_0_1_20,2022-04-25T13:35:04.943Z,,,,,,,,,,,,,,,,,53,,,,,,,,,,,,,,460.28100007152534,,response,,,,99,,,,,,,Space,keypress(Space),,,,,,,,---- -- ----- -- ------ - ------- --- ----------<br>------------- ------ ------ ---- ---- ------- ----- -- ----<br>-------- ------- is ---------- --- - --- ----- ----- ----<br>---- --- --- ----- --- ---- ---- ------- ----- ---- -------<br>--- --- -- ----- -- --- ---- -- --- ---- -- ------ ------<br>--- ----- -- ----,160367.20000004768,160366.30000007153,159889.29,159894.20000004768,159906.019,160372.551,,20,is
screen,html.Screen,2_1_0_1_21,2022-04-25T13:35:05.220Z,,,,,,,,,,,,,,,,,53,,,,,,,,,,,,,,271.7490000715188,,response,,,,99,,,,,,,Space,keypress(Space),,,,,,,,---- -- ----- -- ------ - ------- --- ----------<br>------------- ------ ------ ---- ---- ------- ----- -- ----<br>-------- ------- -- paramount. --- - --- ----- ----- ----<br>---- --- --- ----- --- ---- ---- ------- ----- ---- -------<br>--- --- -- ----- -- --- ---- -- --- ---- -- ------ ------<br>--- ----- -- ----,160645,160644.30000007153,160356.271,160367.39999997616,160372.551,160655.854,,21,paramount.
screen,html.Screen,2_1_0_1_22,2022-04-25T13:35:06.022Z,,,,,,,,,,,,,,,,,53,,,,,,,,,,,,,,789.9460000715335,,response,,,,99,,,,,,,Space,keypress(Space),,,,,,,,---- -- ----- -- ------ - ------- --- ----------<br>------------- ------ ------ ---- ---- ------- ----- -- ----<br>-------- ------- -- ---------- But - --- ----- ----- ----<br>---- --- --- ----- --- ---- ---- ------- ----- ---- -------<br>--- --- -- ----- -- --- ---- -- --- ---- -- ------ ------<br>--- ----- -- ----,161446.60000002384,161445.80000007153,160639.562,160645.20000004768,160655.854,161456.275,,22,But
screen,html.Screen,2_1_0_1_23,2022-04-25T13:35:06.454Z,,,,,,,,,,,,,,,,,53,,,,,,,,,,,,,,421.62499997616396,,response,,,,99,,,,,,,Space,keypress(Space),,,,,,,,---- -- ----- -- ------ - ------- --- ----------<br>------------- ------ ------ ---- ---- ------- ----- -- ----<br>-------- ------- -- ---------- --- a --- ----- ----- ----<br>---- --- --- ----- --- ---- ---- ------- ----- ---- -------<br>--- --- -- ----- -- --- ---- -- --- ---- -- ------ ------<br>--- ----- -- ----,161878.60000002384,161877.89999997616,161439.566,161446.70000004768,161456.275,161889.446,,23,a
screen,html.Screen,2_1_0_1_24,2022-04-25T13:35:06.650Z,,,,,,,,,,,,,,,,,53,,,,,,,,,,,,,,184.15400002384558,,response,,,,99,,,,,,,Space,keypress(Space),,,,,,,,---- -- ----- -- ------ - ------- --- ----------<br>------------- ------ ------ ---- ---- ------- ----- -- ----<br>-------- ------- -- ---------- --- - new ----- ----- ----<br>---- --- --- ----- --- ---- ---- ------- ----- ---- -------<br>--- --- -- ----- -- --- ---- -- --- ---- -- ------ ------<br>--- ----- -- ----,162074.30000007153,162073.60000002384,161872.904,161878.80000007153,161889.446,162089.202,,24,new
screen,html.Screen,2_1_0_1_25,2022-04-25T13:35:07.160Z,,,,,,,,,,,,,,,,,53,,,,,,,,,,,,,,494.1979999761679,,response,,,,99,,,,,,,Space,keypress(Space),,,,,,,,---- -- ----- -- ------ - ------- --- ----------<br>------------- ------ ------ ---- ---- ------- ----- -- ----<br>-------- ------- -- ---------- --- - --- study ----- ----<br>---- --- --- ----- --- ---- ---- ------- ----- ---- -------<br>--- --- -- ----- -- --- ---- -- --- ---- -- ------ ------<br>--- ----- -- ----,162584.10000002384,162583.39999997616,162072.543,162074.5,162089.202,162589.178,,25,study
screen,html.Screen,2_1_0_1_26,2022-04-25T13:35:07.423Z,,,,,,,,,,,,,,,,,53,,,,,,,,,,,,,,258.12200007151114,,response,,,,99,,,,,,,Space,keypress(Space),,,,,,,,---- -- ----- -- ------ - ------- --- ----------<br>------------- ------ ------ ---- ---- ------- ----- -- ----<br>-------- ------- -- ---------- --- - --- ----- finds ----<br>---- --- --- ----- --- ---- ---- ------- ----- ---- -------<br>--- --- -- ----- -- --- ---- -- --- ---- -- ------ ------<br>--- ----- -- ----,162848.10000002384,162847.30000007153,162572.636,162584.20000004768,162589.178,162856.091,,26,finds
screen,html.Screen,2_1_0_1_27,2022-04-25T13:35:07.655Z,,,,,,,,,,,,,,,,,53,,,,,,,,,,,,,,222.70900007153978,,response,,,,99,,,,,,,Space,keypress(Space),,,,,,,,---- -- ----- -- ------ - ------- --- ----------<br>------------- ------ ------ ---- ---- ------- ----- -- ----<br>-------- ------- -- ---------- --- - --- ----- ----- that<br>---- --- --- ----- --- ---- ---- ------- ----- ---- -------<br>--- --- -- ----- -- --- ---- -- --- ---- -- ------ ------<br>--- ----- -- ----,163079.60000002384,163078.80000007153,162839.535,162848.20000004768,162856.091,163089.107,,27,that
screen,html.Screen,2_1_0_1_28,2022-04-25T13:35:08.141Z,,,,,,,,,,,,,,,,,53,,,,,,,,,,,,,,475.89300000001094,,response,,,,99,,,,,,,Space,keypress(Space),,,,,,,,---- -- ----- -- ------ - ------- --- ----------<br>------------- ------ ------ ---- ---- ------- ----- -- ----<br>-------- ------- -- ---------- --- - --- ----- ----- ----<br>it's --- --- ----- --- ---- ---- ------- ----- ---- -------<br>--- --- -- ----- -- --- ---- -- --- ---- -- ------ ------<br>--- ----- -- ----,163565.80000007153,163565,163072.832,163079.80000007153,163089.107,163572.537,,28,it's
screen,html.Screen,2_1_0_1_29,2022-04-25T13:35:08.416Z,,,,,,,,,,,,,,,,,53,,,,,,,,,,,,,,267.0630000238307,,response,,,,99,,,,,,,Space,keypress(Space),,,,,,,,---- -- ----- -- ------ - ------- --- ----------<br>------------- ------ ------ ---- ---- ------- ----- -- ----<br>-------- ------- -- ---------- --- - --- ----- ----- ----<br>---- not --- ----- --- ---- ---- ------- ----- ---- -------<br>--- --- -- ----- -- --- ---- -- --- ---- -- ------ ------<br>--- ----- -- ----,163840.30000007153,163839.60000002384,163555.889,163565.89999997616,163572.537,163855.876,,29,not
screen,html.Screen,2_1_0_1_30,2022-04-25T13:35:08.725Z,,,,,,,,,,,,,,,,,53,,,,,,,,,,,,,,293.02399997616885,,response,,,,99,,,,,,,Space,keypress(Space),,,,,,,,---- -- ----- -- ------ - ------- --- ----------<br>------------- ------ ------ ---- ---- ------- ----- -- ----<br>-------- ------- -- ---------- --- - --- ----- ----- ----<br>---- --- how ----- --- ---- ---- ------- ----- ---- -------<br>--- --- -- ----- -- --- ---- -- --- ---- -- ------ ------<br>--- ----- -- ----,164149.70000004768,164148.89999997616,163839.154,163840.39999997616,163855.876,164155.904,,30,how
screen,html.Screen,2_1_0_1_31,2022-04-25T13:35:09.204Z,,,,,,,,,,,,,,,,,53,,,,,,,,,,,,,,471.896000071516,,response,,,,99,,,,,,,Space,keypress(Space),,,,,,,,---- -- ----- -- ------ - ------- --- ----------<br>------------- ------ ------ ---- ---- ------- ----- -- ----<br>-------- ------- -- ---------- --- - --- ----- ----- ----<br>---- --- --- close --- ---- ---- ------- ----- ---- -------<br>--- --- -- ----- -- --- ---- -- --- ---- -- ------ ------<br>--- ----- -- ----,164628.39999997616,164627.80000007153,164139.472,164150,164155.904,164639.434,,31,close
screen,html.Screen,2_1_0_1_32,2022-04-25T13:35:09.677Z,,,,,,,,,,,,,,,,,53,,,,,,,,,,,,,,461.0659999999916,,response,,,,99,,,,,,,Space,keypress(Space),,,,,,,,---- -- ----- -- ------ - ------- --- ----------<br>------------- ------ ------ ---- ---- ------- ----- -- ----<br>-------- ------- -- ---------- --- - --- ----- ----- ----<br>---- --- --- ----- you ---- ---- ------- ----- ---- -------<br>--- --- -- ----- -- --- ---- -- --- ---- -- ------ ------<br>--- ----- -- ----,165101.20000004768,165100.5,164622.87,164628.60000002384,164639.434,165105.775,,32,you
screen,html.Screen,2_1_0_1_33,2022-04-25T13:35:10.485Z,,,,,,,,,,,,,,,,,53,,,,,,,,,,,,,,803.4250000476895,,response,,,,99,,,,,,,Space,keypress(Space),,,,,,,,---- -- ----- -- ------ - ------- --- ----------<br>------------- ------ ------ ---- ---- ------- ----- -- ----<br>-------- ------- -- ---------- --- - --- ----- ----- ----<br>---- --- --- ----- --- feel ---- ------- ----- ---- -------<br>--- --- -- ----- -- --- ---- -- --- ---- -- ------ ------<br>--- ----- -- ----,165909.89999997616,165909.20000004768,165089.262,165101.39999997616,165105.775,165922.523,,33,feel
screen,html.Screen,2_1_0_1_34,2022-04-25T13:35:10.859Z,,,,,,,,,,,,,,,,,53,,,,,,,,,,,,,,360.37699997617165,,response,,,,99,,,,,,,Space,keypress(Space),,,,,,,,---- -- ----- -- ------ - ------- --- ----------<br>------------- ------ ------ ---- ---- ------- ----- -- ----<br>-------- ------- -- ---------- --- - --- ----- ----- ----<br>---- --- --- ----- --- ---- that ------- ----- ---- -------<br>--- --- -- ----- -- --- ---- -- --- ---- -- ------ ------<br>--- ----- -- ----,166283.70000004768,166282.89999997616,165905.911,165910.20000004768,165922.523,166289.093,,34,that
screen,html.Screen,2_1_0_1_35,2022-04-25T13:35:11.066Z,,,,,,,,,,,,,,,,,53,,,,,,,,,,,,,,200.50700002384838,,response,,,,99,,,,,,,Space,keypress(Space),,,,,,,,---- -- ----- -- ------ - ------- --- ----------<br>------------- ------ ------ ---- ---- ------- ----- -- ----<br>-------- ------- -- ---------- --- - --- ----- ----- ----<br>---- --- --- ----- --- ---- ---- matters ----- ---- -------<br>--- --- -- ----- -- --- ---- -- --- ---- -- ------ ------<br>--- ----- -- ----,166490.20000004768,166489.60000002384,166272.807,166283.89999997616,166289.093,166505.881,,35,matters
screen,html.Screen,2_1_0_1_36,2022-04-25T13:35:11.535Z,,,,,,,,,,,,,,,,,53,,,,,,,,,,,,,,453.31900004768977,,response,,,,99,,,,,,,Space,keypress(Space),,,,,,,,"---- -- ----- -- ------ - ------- --- ----------<br>------------- ------ ------ ---- ---- ------- ----- -- ----<br>-------- ------- -- ---------- --- - --- ----- ----- ----<br>---- --- --- ----- --- ---- ---- ------- most, ---- -------<br>--- --- -- ----- -- --- ---- -- --- ---- -- ------ ------<br>--- ----- -- ----",166960,166959.20000004768,166489.45,166490.30000007153,166505.881,166972.38,,36,"most,"
screen,html.Screen,2_1_0_1_37,2022-04-25T13:35:11.828Z,,,,,,,,,,,,,,,,,53,,,,,,,,,,,,,,279.11999999999534,,response,,,,99,,,,,,,Space,keypress(Space),,,,,,,,---- -- ----- -- ------ - ------- --- ----------<br>------------- ------ ------ ---- ---- ------- ----- -- ----<br>-------- ------- -- ---------- --- - --- ----- ----- ----<br>---- --- --- ----- --- ---- ---- ------- ----- it's -------<br>--- --- -- ----- -- --- ---- -- --- ---- -- ------ ------<br>--- ----- -- ----,167252.39999997616,167251.5,166956.321,166961.20000004768,166972.38,167255.748,,37,it's
screen,html.Screen,2_1_0_1_38,2022-04-25T13:35:12.188Z,,,,,,,,,,,,,,,,,53,,,,,,,,,,,,,,355.6519999761658,,response,,,,99,,,,,,,Space,keypress(Space),,,,,,,,---- -- ----- -- ------ - ------- --- ----------<br>------------- ------ ------ ---- ---- ------- ----- -- ----<br>-------- ------- -- ---------- --- - --- ----- ----- ----<br>---- --- --- ----- --- ---- ---- ------- ----- ---- whether<br>--- --- -- ----- -- --- ---- -- --- ---- -- ------ ------<br>--- ----- -- ----,167612.10000002384,167611.39999997616,167239.168,167252.5,167255.748,167622.507,,38,whether
screen,html.Screen,2_1_0_1_39,2022-04-25T13:35:12.403Z,,,,,,,,,,,,,,,,,53,,,,,,,,,,,,,,204.29300007151323,,response,,,,99,,,,,,,Space,keypress(Space),,,,,,,,---- -- ----- -- ------ - ------- --- ----------<br>------------- ------ ------ ---- ---- ------- ----- -- ----<br>-------- ------- -- ---------- --- - --- ----- ----- ----<br>---- --- --- ----- --- ---- ---- ------- ----- ---- -------<br>you --- -- ----- -- --- ---- -- --- ---- -- ------ ------<br>--- ----- -- ----,167827.5,167826.80000007153,167606.128,167612.30000007153,167622.507,167839.386,,39,you
screen,html.Screen,2_1_0_1_40,2022-04-25T13:35:12.920Z,,,,,,,,,,,,,,,,,53,,,,,,,,,,,,,,504.71400002384325,,response,,,,99,,,,,,,Space,keypress(Space),,,,,,,,---- -- ----- -- ------ - ------- --- ----------<br>------------- ------ ------ ---- ---- ------- ----- -- ----<br>-------- ------- -- ---------- --- - --- ----- ----- ----<br>---- --- --- ----- --- ---- ---- ------- ----- ---- -------<br>--- are -- ----- -- --- ---- -- --- ---- -- ------ ------<br>--- ----- -- ----,168345,168344.10000002384,167822.46,167827.70000004768,167839.386,168355.761,,40,are
screen,html.Screen,2_1_0_1_41,2022-04-25T13:35:13.385Z,,,,,,,,,,,,,,,,,53,,,,,,,,,,,,,,452.9390000476851,,response,,,,99,,,,,,,Space,keypress(Space),,,,,,,,---- -- ----- -- ------ - ------- --- ----------<br>------------- ------ ------ ---- ---- ------- ----- -- ----<br>-------- ------- -- ---------- --- - --- ----- ----- ----<br>---- --- --- ----- --- ---- ---- ------- ----- ---- -------<br>--- --- as ----- -- --- ---- -- --- ---- -- ------ ------<br>--- ----- -- ----,168809.5,168808.70000004768,168339.445,168345.10000002384,168355.761,168822.673,,41,as
screen,html.Screen,2_1_0_1_42,2022-04-25T13:35:13.785Z,,,,,,,,,,,,,,,,,53,,,,,,,,,,,,,,386.22699997614836,,response,,,,99,,,,,,,Space,keypress(Space),,,,,,,,---- -- ----- -- ------ - ------- --- ----------<br>------------- ------ ------ ---- ---- ------- ----- -- ----<br>-------- ------- -- ---------- --- - --- ----- ----- ----<br>---- --- --- ----- --- ---- ---- ------- ----- ---- -------<br>--- --- -- close -- --- ---- -- --- ---- -- ------ ------<br>--- ----- -- ----,169209.70000004768,169208.89999997616,168806.111,168809.70000004768,168822.673,169222.582,,42,close
screen,html.Screen,2_1_0_1_43,2022-04-25T13:35:13.996Z,,,,,,,,,,,,,,,,,53,,,,,,,,,,,,,,196.81799997616326,,response,,,,99,,,,,,,Space,keypress(Space),,,,,,,,---- -- ----- -- ------ - ------- --- ----------<br>------------- ------ ------ ---- ---- ------- ----- -- ----<br>-------- ------- -- ---------- --- - --- ----- ----- ----<br>---- --- --- ----- --- ---- ---- ------- ----- ---- -------<br>--- --- -- ----- as --- ---- -- --- ---- -- ------ ------<br>--- ----- -- ----,169420.5,169419.39999997616,169205.797,169209.89999997616,169222.582,169447.184,,43,as
screen,html.Screen,2_1_0_1_44,2022-04-25T13:35:14.210Z,,,,,,,,,,,,,,,,,53,,,,,,,,,,,,,,186.21599997614976,,response,,,,99,,,,,,,Space,keypress(Space),,,,,,,,---- -- ----- -- ------ - ------- --- ----------<br>------------- ------ ------ ---- ---- ------- ----- -- ----<br>-------- ------- -- ---------- --- - --- ----- ----- ----<br>---- --- --- ----- --- ---- ---- ------- ----- ---- -------<br>--- --- -- ----- -- you ---- -- --- ---- -- ------ ------<br>--- ----- -- ----,169634.20000004768,169633.39999997616,169406.042,169420.70000004768,169447.184,169639.026,,44,you
screen,html.Screen,2_1_0_1_45,2022-04-25T13:35:14.562Z,,,,,,,,,,,,,,,,,53,,,,,,,,,,,,,,346.5740000238293,,response,,,,99,,,,,,,Space,keypress(Space),,,,,,,,---- -- ----- -- ------ - ------- --- ----------<br>------------- ------ ------ ---- ---- ------- ----- -- ----<br>-------- ------- -- ---------- --- - --- ----- ----- ----<br>---- --- --- ----- --- ---- ---- ------- ----- ---- -------<br>--- --- -- ----- -- --- want -- --- ---- -- ------ ------<br>--- ----- -- ----,169986.20000004768,169985.60000002384,169622.463,169634.30000007153,169639.026,169989.031,,45,want
screen,html.Screen,2_1_0_1_46,2022-04-25T13:35:14.822Z,,,,,,,,,,,,,,,,,53,,,,,,,,,,,,,,256.36899997617,,response,,,,99,,,,,,,Space,keypress(Space),,,,,,,,---- -- ----- -- ------ - ------- --- ----------<br>------------- ------ ------ ---- ---- ------- ----- -- ----<br>-------- ------- -- ---------- --- - --- ----- ----- ----<br>---- --- --- ----- --- ---- ---- ------- ----- ---- -------<br>--- --- -- ----- -- --- ---- to --- ---- -- ------ ------<br>--- ----- -- ----,170246.30000007153,170245.39999997616,169972.731,169986.30000007153,169989.031,170255.954,,46,to
screen,html.Screen,2_1_0_1_47,2022-04-25T13:35:15.047Z,,,,,,,,,,,,,,,,,53,,,,,,,,,,,,,,214.5460000000021,,response,,,,99,,,,,,,Space,keypress(Space),,,,,,,,"---- -- ----- -- ------ - ------- --- ----------<br>------------- ------ ------ ---- ---- ------- ----- -- ----<br>-------- ------- -- ---------- --- - --- ----- ----- ----<br>---- --- --- ----- --- ---- ---- ------- ----- ---- -------<br>--- --- -- ----- -- --- ---- -- be, ---- -- ------ ------<br>--- ----- -- ----",170471.20000004768,170470.5,170239.387,170246.39999997616,170255.954,170489.002,,47,"be,"
screen,html.Screen,2_1_0_1_48,2022-04-25T13:35:15.251Z,,,,,,,,,,,,,,,,,53,,,,,,,,,,,,,,185.49799999999232,,response,,,,99,,,,,,,Space,keypress(Space),,,,,,,,---- -- ----- -- ------ - ------- --- ----------<br>------------- ------ ------ ---- ---- ------- ----- -- ----<br>-------- ------- -- ---------- --- - --- ----- ----- ----<br>---- --- --- ----- --- ---- ---- ------- ----- ---- -------<br>--- --- -- ----- -- --- ---- -- --- even -- ------ ------<br>--- ----- -- ----,170675.30000007153,170674.5,170455.708,170471.5,170489.002,170689.117,,48,even
screen,html.Screen,2_1_0_1_49,2022-04-25T13:35:15.791Z,,,,,,,,,,,,,,,,,53,,,,,,,,,,,,,,526.0830000476853,,response,,,,99,,,,,,,Space,keypress(Space),,,,,,,,---- -- ----- -- ------ - ------- --- ----------<br>------------- ------ ------ ---- ---- ------- ----- -- ----<br>-------- ------- -- ---------- --- - --- ----- ----- ----<br>---- --- --- ----- --- ---- ---- ------- ----- ---- -------<br>--- --- -- ----- -- --- ---- -- --- ---- if ------ ------<br>--- ----- -- ----,171215.89999997616,171215.20000004768,170672.378,170675.39999997616,170689.117,171222.32,,49,if
screen,html.Screen,2_1_0_1_50,2022-04-25T13:35:16.040Z,,,,,,,,,,,,,,,,,53,,,,,,,,,,,,,,241.67999999999302,,response,,,,99,,,,,,,Space,keypress(Space),,,,,,,,---- -- ----- -- ------ - ------- --- ----------<br>------------- ------ ------ ---- ---- ------- ----- -- ----<br>-------- ------- -- ---------- --- - --- ----- ----- ----<br>---- --- --- ----- --- ---- ---- ------- ----- ---- -------<br>--- --- -- ----- -- --- ---- -- --- ---- -- that's ------<br>--- ----- -- ----,171464.80000007153,171464,171206.099,171216,171222.32,171472.595,,50,that's
screen,html.Screen,2_1_0_1_51,2022-04-25T13:35:16.542Z,,,,,,,,,,,,,,,,,53,,,,,,,,,,,,,,493.40499999999884,,response,,,,99,,,,,,,Space,keypress(Space),,,,,,,,---- -- ----- -- ------ - ------- --- ----------<br>------------- ------ ------ ---- ---- ------- ----- -- ----<br>-------- ------- -- ---------- --- - --- ----- ----- ----<br>---- --- --- ----- --- ---- ---- ------- ----- ---- -------<br>--- --- -- ----- -- --- ---- -- --- ---- -- ------ really<br>--- ----- -- ----,171966.80000007153,171966,171456.02,171464.89999997616,171472.595,171972.349,,51,really
screen,html.Screen,2_1_0_1_52,2022-04-25T13:35:16.941Z,,,,,,,,,,,,,,,,,53,,,,,,,,,,,,,,392.8510000476963,,response,,,,99,,,,,,,Space,keypress(Space),,,,,,,,---- -- ----- -- ------ - ------- --- ----------<br>------------- ------ ------ ---- ---- ------- ----- -- ----<br>-------- ------- -- ---------- --- - --- ----- ----- ----<br>---- --- --- ----- --- ---- ---- ------- ----- ---- -------<br>--- --- -- ----- -- --- ---- -- --- ---- -- ------ ------<br>not ----- -- ----,172366.10000002384,172365.20000004768,171955.758,171967,171972.349,172372.621,,52,not
screen,html.Screen,2_1_0_1_53,2022-04-25T13:35:17.261Z,,,,,,,,,,,,,,,,,53,,,,,,,,,,,,,,311.87899999998626,,response,,,,99,,,,,,,Space,keypress(Space),,,,,,,,---- -- ----- -- ------ - ------- --- ----------<br>------------- ------ ------ ---- ---- ------- ----- -- ----<br>-------- ------- -- ---------- --- - --- ----- ----- ----<br>---- --- --- ----- --- ---- ---- ------- ----- ---- -------<br>--- --- -- ----- -- --- ---- -- --- ---- -- ------ ------<br>--- close -- ----,172685.30000007153,172684.5,172356.051,172366.20000004768,172372.621,172688.986,,53,close
screen,html.Screen,2_1_0_1_54,2022-04-25T13:35:17.451Z,,,,,,,,,,,,,,,,,53,,,,,,,,,,,,,,185.51399999999558,,response,,,,99,,,,,,,Space,keypress(Space),,,,,,,,---- -- ----- -- ------ - ------- --- ----------<br>------------- ------ ------ ---- ---- ------- ----- -- ----<br>-------- ------- -- ---------- --- - --- ----- ----- ----<br>---- --- --- ----- --- ---- ---- ------- ----- ---- -------<br>--- --- -- ----- -- --- ---- -- --- ---- -- ------ ------<br>--- ----- at ----,172875.30000007153,172874.5,172672.692,172685.5,172688.986,172889.24,,54,at
screen,html.Screen,2_1_0_1_55,2022-04-25T13:35:17.676Z,,,,,,,,,,,,,,,,,53,,,,,,,,,,,,,,210.36000002385117,,response,,,,99,,,,,,,Space,keypress(Space),,,,,,,,---- -- ----- -- ------ - ------- --- ----------<br>------------- ------ ------ ---- ---- ------- ----- -- ----<br>-------- ------- -- ---------- --- - --- ----- ----- ----<br>---- --- --- ----- --- ---- ---- ------- ----- ---- -------<br>--- --- -- ----- -- --- ---- -- --- ---- -- ------ ------<br>--- ----- -- all.,173100.30000007153,173099.60000002384,172872.394,172875.5,172889.24,173105.844,,55,all.
Item 99,flow.Loop,2_1_0_1,2022-04-25T13:35:17.676Z,,,,,,,,,,,,,,,,,,,,,,,,,,,,,,,22393.49600002385,,completion,,,,,A,,,,,,,,,,,silence,,,,,173100.60000002384,173099.60000002384,150689.694,150690.80000007153,150706.104,173105.844,,,
Question 1,html.Screen,2_1_0_2,2022-04-25T13:35:24.013Z,,,,,,,,,,,,,,,,,,,,,,,,,,,,true,FALSE,,6330.155999999988,,response,,,,99,A,,,,,,FALSE,click #choice-2,,,,silence,,,,,179437.5,179436,173089.025,173100.80000007153,173105.844,179467.505,,,
Question 2,html.Screen,2_1_0_3,2022-04-25T13:35:30.219Z,,,,,,,,,,,,,,,,,,,,,,,,,,,,true,TRUE,,6174.494999999995,,response,,,,99,A,,,,,,TRUE,click #choice-1,,,,silence,,,,,185643.30000007153,185642,179422.561,179437.60000002384,179467.505,185655.336,,,
Item 99,flow.Sequence,2_1_0,2022-04-25T13:35:30.219Z,,,,,,,,,,,,,,,,,,,,,,,,,,,,,,,44935.76699999999,,completion,,,,,,,,,,,,,,,,,,,,,185643.60000002384,185642,140689.579,140700.89999997616,140706.233,185655.336,,,
Holding screen,html.Screen,2_1_1_0,2022-04-25T13:35:40.215Z,,,,,,,,,,,,,,,,,,,,,,,,,,,,,,,9999.951000000001,,timeout,,,,,,,,,,,,,,,,,,,,,195639.5,195638.607,185638.755,185643.70000004768,185655.336,195655.287,,,
screen,html.Screen,2_1_1_1_0,2022-04-25T13:35:41.199Z,,,,,,,,,,,,,,,,,54,,,,,,,,,,,,,,966.9130000476725,,response,,,,100,,,,,,,Space,keypress(Space),,,,,,,,At --- ---- --- ------ ----- ------- ---- -- --- ------- --<br>------- ---------- ------ -- ----- -- ----- -- ---- ------<br>--- ----- --- --- ------ -------- ----- --- ------ ----- --<br>----- ----- ---------- --- --- ------ ------ ---- -- ------<br>------- --- ------ ----- --- ---- ------- -- ---- --- --<br>------- ------,196623,196622.20000004768,195638.607,195639.60000002384,195655.287,196639.384,,0,At
screen,html.Screen,2_1_1_1_1,2022-04-25T13:35:41.633Z,,,,,,,,,,,,,,,,,54,,,,,,,,,,,,,,417.21600002385094,,response,,,,100,,,,,,,Space,keypress(Space),,,,,,,,-- the ---- --- ------ ----- ------- ---- -- --- ------- --<br>------- ---------- ------ -- ----- -- ----- -- ---- ------<br>--- ----- --- --- ------ -------- ----- --- ------ ----- --<br>----- ----- ---------- --- --- ------ ------ ---- -- ------<br>------- --- ------ ----- --- ---- ------- -- ---- --- --<br>------- ------,197057.39999997616,197056.60000002384,196622.314,196623.10000002384,196639.384,197071.932,,1,the
screen,html.Screen,2_1_1_1_2,2022-04-25T13:35:41.995Z,,,,,,,,,,,,,,,,,54,,,,,,,,,,,,,,346.5679999999993,,response,,,,100,,,,,,,Space,keypress(Space),,,,,,,,-- --- time --- ------ ----- ------- ---- -- --- ------- --<br>------- ---------- ------ -- ----- -- ----- -- ---- ------<br>--- ----- --- --- ------ -------- ----- --- ------ ----- --<br>----- ----- ---------- --- --- ------ ------ ---- -- ------<br>------- --- ------ ----- --- ---- ------- -- ---- --- --<br>------- ------,197419.30000007153,197418.5,197055.542,197057.60000002384,197071.932,197421.889,,2,time
screen,html.Screen,2_1_1_1_3,2022-04-25T13:35:42.185Z,,,,,,,,,,,,,,,,,54,,,,,,,,,,,,,,186.01099997616257,,response,,,,100,,,,,,,Space,keypress(Space),,,,,,,,-- --- ---- the ------ ----- ------- ---- -- --- ------- --<br>------- ---------- ------ -- ----- -- ----- -- ---- ------<br>--- ----- --- --- ------ -------- ----- --- ------ ----- --<br>----- ----- ---------- --- --- ------ ------ ---- -- ------<br>------- --- ------ ----- --- ---- ------- -- ---- --- --<br>------- ------,197608.60000002384,197607.89999997616,197405.591,197419.60000002384,197421.889,197622.142,,3,the
screen,html.Screen,2_1_1_1_4,2022-04-25T13:35:42.646Z,,,,,,,,,,,,,,,,,54,,,,,,,,,,,,,,446.9580000238493,,response,,,,100,,,,,,,Space,keypress(Space),,,,,,,,-- --- ---- --- French ----- ------- ---- -- --- ------- --<br>------- ---------- ------ -- ----- -- ----- -- ---- ------<br>--- ----- --- --- ------ -------- ----- --- ------ ----- --<br>----- ----- ---------- --- --- ------ ------ ---- -- ------<br>------- --- ------ ----- --- ---- ------- -- ---- --- --<br>------- ------,198069.80000007153,198069.10000002384,197605.216,197608.89999997616,197622.142,198071.874,,4,French
screen,html.Screen,2_1_1_1_5,2022-04-25T13:35:42.864Z,,,,,,,,,,,,,,,,,54,,,,,,,,,,,,,,215.1259999999893,,response,,,,100,,,,,,,Space,keypress(Space),,,,,,,,-- --- ---- --- ------ crown ------- ---- -- --- ------- --<br>------- ---------- ------ -- ----- -- ----- -- ---- ------<br>--- ----- --- --- ------ -------- ----- --- ------ ----- --<br>----- ----- ---------- --- --- ------ ------ ---- -- ------<br>------- --- ------ ----- --- ---- ------- -- ---- --- --<br>------- ------,198287.70000004768,198287,198055.314,198069.89999997616,198071.874,198305.239,,5,crown
screen,html.Screen,2_1_1_1_6,2022-04-25T13:35:43.214Z,,,,,,,,,,,,,,,,,54,,,,,,,,,,,,,,331.66099997615675,,response,,,,100,,,,,,,Space,keypress(Space),,,,,,,,-- --- ---- --- ------ ----- secured ---- -- --- ------- --<br>------- ---------- ------ -- ----- -- ----- -- ---- ------<br>--- ----- --- --- ------ -------- ----- --- ------ ----- --<br>----- ----- ---------- --- --- ------ ------ ---- -- ------<br>------- --- ------ ----- --- ---- ------- -- ---- --- --<br>------- ------,198637.70000004768,198636.89999997616,198271.833,198288,198305.239,198655.19,,6,secured
screen,html.Screen,2_1_1_1_7,2022-04-25T13:35:43.865Z,,,,,,,,,,,,,,,,,54,,,,,,,,,,,,,,633.4100000238395,,response,,,,100,,,,,,,Space,keypress(Space),,,,,,,,-- --- ---- --- ------ ----- ------- much -- --- ------- --<br>------- ---------- ------ -- ----- -- ----- -- ---- ------<br>--- ----- --- --- ------ -------- ----- --- ------ ----- --<br>----- ----- ---------- --- --- ------ ------ ---- -- ------<br>------- --- ------ ----- --- ---- ------- -- ---- --- --<br>------- ------,199289.20000004768,199288.60000002384,198621.941,198637.80000007153,198655.19,199305.234,,7,much
screen,html.Screen,2_1_1_1_8,2022-04-25T13:35:44.145Z,,,,,,,,,,,,,,,,,54,,,,,,,,,,,,,,263.1659999761614,,response,,,,100,,,,,,,Space,keypress(Space),,,,,,,,-- --- ---- --- ------ ----- ------- ---- of --- ------- --<br>------- ---------- ------ -- ----- -- ----- -- ---- ------<br>--- ----- --- --- ------ -------- ----- --- ------ ----- --<br>----- ----- ---------- --- --- ------ ------ ---- -- ------<br>------- --- ------ ----- --- ---- ------- -- ---- --- --<br>------- ------,199569.30000007153,199568.39999997616,199288.628,199289.39999997616,199305.234,199571.851,,8,of
screen,html.Screen,2_1_1_1_9,2022-04-25T13:35:44.379Z,,,,,,,,,,,,,,,,,54,,,,,,,,,,,,,,230.6490000000049,,response,,,,100,,,,,,,Space,keypress(Space),,,,,,,,-- --- ---- --- ------ ----- ------- ---- -- its ------- --<br>------- ---------- ------ -- ----- -- ----- -- ---- ------<br>--- ----- --- --- ------ -------- ----- --- ------ ----- --<br>----- ----- ---------- --- --- ------ ------ ---- -- ------<br>------- --- ------ ----- --- ---- ------- -- ---- --- --<br>------- ------,199803.20000004768,199802.5,199555.522,199569.5,199571.851,199805.166,,9,its
screen,html.Screen,2_1_1_1_10,2022-04-25T13:35:44.554Z,,,,,,,,,,,,,,,,,54,,,,,,,,,,,,,,171.83400000000256,,response,,,,100,,,,,,,Space,keypress(Space),,,,,,,,-- --- ---- --- ------ ----- ------- ---- -- --- revenue --<br>------- ---------- ------ -- ----- -- ----- -- ---- ------<br>--- ----- --- --- ------ -------- ----- --- ------ ----- --<br>----- ----- ---------- --- --- ------ ------ ---- -- ------<br>------- --- ------ ----- --- ---- ------- -- ---- --- --<br>------- ------,199977.70000004768,199977,199788.852,199803.39999997616,199805.166,199988.551,,10,revenue
screen,html.Screen,2_1_1_1_11,2022-04-25T13:35:45.588Z,,,,,,,,,,,,,,,,,54,,,,,,,,,,,,,,1022.7490000715188,,response,,,,100,,,,,,,Space,keypress(Space),,,,,,,,-- --- ---- --- ------ ----- ------- ---- -- --- ------- by<br>------- ---------- ------ -- ----- -- ----- -- ---- ------<br>--- ----- --- --- ------ -------- ----- --- ------ ----- --<br>----- ----- ---------- --- --- ------ ------ ---- -- ------<br>------- --- ------ ----- --- ---- ------- -- ---- --- --<br>------- ------,201012.10000002384,201011.30000007153,199971.884,199977.80000007153,199988.551,201021.768,,11,by
screen,html.Screen,2_1_1_1_12,2022-04-25T13:35:46.068Z,,,,,,,,,,,,,,,,,54,,,,,,,,,,,,,,469.53200007151463,,response,,,,100,,,,,,,Space,keypress(Space),,,,,,,,-- --- ---- --- ------ ----- ------- ---- -- --- ------- --<br>issuing ---------- ------ -- ----- -- ----- -- ---- ------<br>--- ----- --- --- ------ -------- ----- --- ------ ----- --<br>----- ----- ---------- --- --- ------ ------ ---- -- ------<br>------- --- ------ ----- --- ---- ------- -- ---- --- --<br>------- ------,201492.10000002384,201491.30000007153,201005.694,201012.20000004768,201021.768,201505.127,,12,issuing
screen,html.Screen,2_1_1_1_13,2022-04-25T13:35:46.631Z,,,,,,,,,,,,,,,,,54,,,,,,,,,,,,,,549.1730000715179,,response,,,,100,,,,,,,Space,keypress(Space),,,,,,,,-- --- ---- --- ------ ----- ------- ---- -- --- ------- --<br>------- government ------ -- ----- -- ----- -- ---- ------<br>--- ----- --- --- ------ -------- ----- --- ------ ----- --<br>----- ----- ---------- --- --- ------ ------ ---- -- ------<br>------- --- ------ ----- --- ---- ------- -- ---- --- --<br>------- ------,202055.10000002384,202054.30000007153,201488.544,201492.30000007153,201505.127,202072.196,,13,government
screen,html.Screen,2_1_1_1_14,2022-04-25T13:35:46.975Z,,,,,,,,,,,,,,,,,54,,,,,,,,,,,,,,325.9040000238456,,response,,,,100,,,,,,,Space,keypress(Space),,,,,,,,-- --- ---- --- ------ ----- ------- ---- -- --- ------- --<br>------- ---------- bonds. -- ----- -- ----- -- ---- ------<br>--- ----- --- --- ------ -------- ----- --- ------ ----- --<br>----- ----- ---------- --- --- ------ ------ ---- -- ------<br>------- --- ------ ----- --- ---- ------- -- ---- --- --<br>------- ------,202398.89999997616,202398.10000002384,202055.241,202055.30000007153,202072.196,202405.164,,14,bonds.
screen,html.Screen,2_1_1_1_15,2022-04-25T13:35:47.868Z,,,,,,,,,,,,,,,,,54,,,,,,,,,,,,,,886.6360000715358,,response,,,,100,,,,,,,Space,keypress(Space),,,,,,,,-- --- ---- --- ------ ----- ------- ---- -- --- ------- --<br>------- ---------- ------ In ----- -- ----- -- ---- ------<br>--- ----- --- --- ------ -------- ----- --- ------ ----- --<br>----- ----- ---------- --- --- ------ ------ ---- -- ------<br>------- --- ------ ----- --- ---- ------- -- ---- --- --<br>------- ------,203292.39999997616,203291.80000007153,202388.528,202399.10000002384,202405.164,203305.357,,15,In
screen,html.Screen,2_1_1_1_16,2022-04-25T13:35:48.476Z,,,,,,,,,,,,,,,,,54,,,,,,,,,,,,,,594.4430000715365,,response,,,,100,,,,,,,Space,keypress(Space),,,,,,,,"-- --- ---- --- ------ ----- ------- ---- -- --- ------- --<br>------- ---------- ------ -- 1727, -- ----- -- ---- ------<br>--- ----- --- --- ------ -------- ----- --- ------ ----- --<br>----- ----- ---------- --- --- ------ ------ ---- -- ------<br>------- --- ------ ----- --- ---- ------- -- ---- --- --<br>------- ------",203900.5,203899.80000007153,203288.945,203292.5,203305.357,203905.104,,16,"1727,"
screen,html.Screen,2_1_1_1_17,2022-04-25T13:35:49.085Z,,,,,,,,,,,,,,,,,54,,,,,,,,,,,,,,603.2959999761661,,response,,,,100,,,,,,,Space,keypress(Space),,,,,,,,-- --- ---- --- ------ ----- ------- ---- -- --- ------- --<br>------- ---------- ------ -- ----- in ----- -- ---- ------<br>--- ----- --- --- ------ -------- ----- --- ------ ----- --<br>----- ----- ---------- --- --- ------ ------ ---- -- ------<br>------- --- ------ ----- --- ---- ------- -- ---- --- --<br>------- ------,204509,204508.39999997616,203888.859,203900.60000002384,203905.104,204521.761,,17,in
screen,html.Screen,2_1_1_1_18,2022-04-25T13:35:49.508Z,,,,,,,,,,,,,,,,,54,,,,,,,,,,,,,,409.03900007152697,,response,,,,100,,,,,,,Space,keypress(Space),,,,,,,,-- --- ---- --- ------ ----- ------- ---- -- --- ------- --<br>------- ---------- ------ -- ----- -- order -- ---- ------<br>--- ----- --- --- ------ -------- ----- --- ------ ----- --<br>----- ----- ---------- --- --- ------ ------ ---- -- ------<br>------- --- ------ ----- --- ---- ------- -- ---- --- --<br>------- ------,204931.60000002384,204930.80000007153,204505.191,204509.10000002384,204521.761,204938.449,,18,order
screen,html.Screen,2_1_1_1_19,2022-04-25T13:35:49.777Z,,,,,,,,,,,,,,,,,54,,,,,,,,,,,,,,261.4509999761649,,response,,,,100,,,,,,,Space,keypress(Space),,,,,,,,-- --- ---- --- ------ ----- ------- ---- -- --- ------- --<br>------- ---------- ------ -- ----- -- ----- to ---- ------<br>--- ----- --- --- ------ -------- ----- --- ------ ----- --<br>----- ----- ---------- --- --- ------ ------ ---- -- ------<br>------- --- ------ ----- --- ---- ------- -- ---- --- --<br>------- ------,205200.70000004768,205199.89999997616,204921.806,204931.70000004768,204938.449,205205.089,,19,to
screen,html.Screen,2_1_1_1_20,2022-04-25T13:35:50.126Z,,,,,,,,,,,,,,,,,54,,,,,,,,,,,,,,343.71100007151836,,response,,,,100,,,,,,,Space,keypress(Space),,,,,,,,-- --- ---- --- ------ ----- ------- ---- -- --- ------- --<br>------- ---------- ------ -- ----- -- ----- -- save ------<br>--- ----- --- --- ------ -------- ----- --- ------ ----- --<br>----- ----- ---------- --- --- ------ ------ ---- -- ------<br>------- --- ------ ----- --- ---- ------- -- ---- --- --<br>------- ------,205549.60000002384,205548.80000007153,205188.769,205200.89999997616,205205.089,205555.082,,20,save
screen,html.Screen,2_1_1_1_21,2022-04-25T13:35:50.387Z,,,,,,,,,,,,,,,,,54,,,,,,,,,,,,,,255.31799997616326,,response,,,,100,,,,,,,Space,keypress(Space),,,,,,,,"-- --- ---- --- ------ ----- ------- ---- -- --- ------- --<br>------- ---------- ------ -- ----- -- ----- -- ---- money,<br>--- ----- --- --- ------ -------- ----- --- ------ ----- --<br>----- ----- ---------- --- --- ------ ------ ---- -- ------<br>------- --- ------ ----- --- ---- ------- -- ---- --- --<br>------- ------",205811.10000002384,205810.39999997616,205538.726,205549.80000007153,205555.082,205821.964,,21,"money,"
screen,html.Screen,2_1_1_1_22,2022-04-25T13:35:51.252Z,,,,,,,,,,,,,,,,,54,,,,,,,,,,,,,,853.0359999999928,,response,,,,100,,,,,,,Space,keypress(Space),,,,,,,,-- --- ---- --- ------ ----- ------- ---- -- --- ------- --<br>------- ---------- ------ -- ----- -- ----- -- ---- ------<br>the ----- --- --- ------ -------- ----- --- ------ ----- --<br>----- ----- ---------- --- --- ------ ------ ---- -- ------<br>------- --- ------ ----- --- ---- ------- -- ---- --- --<br>------- ------,206675.70000004768,206675,205805.403,205811.20000004768,205821.964,206688.34,,22,the
screen,html.Screen,2_1_1_1_23,2022-04-25T13:35:51.852Z,,,,,,,,,,,,,,,,,54,,,,,,,,,,,,,,586.9600000715291,,response,,,,100,,,,,,,Space,keypress(Space),,,,,,,,-- --- ---- --- ------ ----- ------- ---- -- --- ------- --<br>------- ---------- ------ -- ----- -- ----- -- ---- ------<br>--- state --- --- ------ -------- ----- --- ------ ----- --<br>----- ----- ---------- --- --- ------ ------ ---- -- ------<br>------- --- ------ ----- --- ---- ------- -- ---- --- --<br>------- ------,207276.30000007153,207275.30000007153,206671.81,206675.80000007153,206688.34,207288.429,,23,state
screen,html.Screen,2_1_1_1_24,2022-04-25T13:35:52.318Z,,,,,,,,,,,,,,,,,54,,,,,,,,,,,,,,453.0709999999963,,response,,,,100,,,,,,,Space,keypress(Space),,,,,,,,-- --- ---- --- ------ ----- ------- ---- -- --- ------- --<br>------- ---------- ------ -- ----- -- ----- -- ---- ------<br>--- ----- cut --- ------ -------- ----- --- ------ ----- --<br>----- ----- ---------- --- --- ------ ------ ---- -- ------<br>------- --- ------ ----- --- ---- ------- -- ---- --- --<br>------- ------,207742.30000007153,207741.5,207272.124,207276.60000002384,207288.429,207755.207,,24,cut
screen,html.Screen,2_1_1_1_25,2022-04-25T13:35:52.655Z,,,,,,,,,,,,,,,,,54,,,,,,,,,,,,,,323.2930000000051,,response,,,,100,,,,,,,Space,keypress(Space),,,,,,,,-- --- ---- --- ------ ----- ------- ---- -- --- ------- --<br>------- ---------- ------ -- ----- -- ----- -- ---- ------<br>--- ----- --- the ------ -------- ----- --- ------ ----- --<br>----- ----- ---------- --- --- ------ ------ ---- -- ------<br>------- --- ------ ----- --- ---- ------- -- ---- --- --<br>------- ------,208079.20000004768,208078.5,207738.788,207742.39999997616,207755.207,208088.61,,25,the
screen,html.Screen,2_1_1_1_26,2022-04-25T13:35:52.879Z,,,,,,,,,,,,,,,,,54,,,,,,,,,,,,,,214.09000004769769,,response,,,,100,,,,,,,Space,keypress(Space),,,,,,,,-- --- ---- --- ------ ----- ------- ---- -- --- ------- --<br>------- ---------- ------ -- ----- -- ----- -- ---- ------<br>--- ----- --- --- bonds' -------- ----- --- ------ ----- --<br>----- ----- ---------- --- --- ------ ------ ---- -- ------<br>------- --- ------ ----- --- ---- ------- -- ---- --- --<br>------- ------,208303.5,208302.70000004768,208072.052,208079.39999997616,208088.61,208328.057,,26,bonds'
screen,html.Screen,2_1_1_1_27,2022-04-25T13:35:53.496Z,,,,,,,,,,,,,,,,,54,,,,,,,,,,,,,,591.143000047683,,response,,,,100,,,,,,,Space,keypress(Space),,,,,,,,-- --- ---- --- ------ ----- ------- ---- -- --- ------- --<br>------- ---------- ------ -- ----- -- ----- -- ---- ------<br>--- ----- --- --- ------ interest ----- --- ------ ----- --<br>----- ----- ---------- --- --- ------ ------ ---- -- ------<br>------- --- ------ ----- --- ---- ------- -- ---- --- --<br>------- ------,208920,208919.20000004768,208288.389,208303.60000002384,208328.057,208942.204,,27,interest
screen,html.Screen,2_1_1_1_28,2022-04-25T13:35:53.989Z,,,,,,,,,,,,,,,,,54,,,,,,,,,,,,,,470.19599997616024,,response,,,,100,,,,,,,Space,keypress(Space),,,,,,,,-- --- ---- --- ------ ----- ------- ---- -- --- ------- --<br>------- ---------- ------ -- ----- -- ----- -- ---- ------<br>--- ----- --- --- ------ -------- rate. --- ------ ----- --<br>----- ----- ---------- --- --- ------ ------ ---- -- ------<br>------- --- ------ ----- --- ---- ------- -- ---- --- --<br>------- ------,209413.10000002384,209412.39999997616,208905.167,208920.10000002384,208942.204,209421.716,,28,rate.
screen,html.Screen,2_1_1_1_29,2022-04-25T13:35:54.545Z,,,,,,,,,,,,,,,,,54,,,,,,,,,,,,,,547.0840000715398,,response,,,,100,,,,,,,Space,keypress(Space),,,,,,,,-- --- ---- --- ------ ----- ------- ---- -- --- ------- --<br>------- ---------- ------ -- ----- -- ----- -- ---- ------<br>--- ----- --- --- ------ -------- ----- The ------ ----- --<br>----- ----- ---------- --- --- ------ ------ ---- -- ------<br>------- --- ------ ----- --- ---- ------- -- ---- --- --<br>------- ------,209969.5,209968.80000007153,209405.064,209413.20000004768,209421.716,209971.798,,29,The
screen,html.Screen,2_1_1_1_30,2022-04-25T13:35:54.796Z,,,,,,,,,,,,,,,,,54,,,,,,,,,,,,,,247.40200004767394,,response,,,,100,,,,,,,Space,keypress(Space),,,,,,,,-- --- ---- --- ------ ----- ------- ---- -- --- ------- --<br>------- ---------- ------ -- ----- -- ----- -- ---- ------<br>--- ----- --- --- ------ -------- ----- --- market ----- --<br>----- ----- ---------- --- --- ------ ------ ---- -- ------<br>------- --- ------ ----- --- ---- ------- -- ---- --- --<br>------- ------,210219.80000007153,210219.20000004768,209955.405,209969.60000002384,209971.798,210221.631,,30,market
screen,html.Screen,2_1_1_1_31,2022-04-25T13:35:55.042Z,,,,,,,,,,,,,,,,,54,,,,,,,,,,,,,,243.7689999761642,,response,,,,100,,,,,,,Space,keypress(Space),,,,,,,,-- --- ---- --- ------ ----- ------- ---- -- --- ------- --<br>------- ---------- ------ -- ----- -- ----- -- ---- ------<br>--- ----- --- --- ------ -------- ----- --- ------ value --<br>----- ----- ---------- --- --- ------ ------ ---- -- ------<br>------- --- ------ ----- --- ---- ------- -- ---- --- --<br>------- ------,210466.20000004768,210465.39999997616,210205.361,210219.89999997616,210221.631,210471.674,,31,value
screen,html.Screen,2_1_1_1_32,2022-04-25T13:35:55.502Z,,,,,,,,,,,,,,,,,54,,,,,,,,,,,,,,453.7259999761591,,response,,,,100,,,,,,,Space,keypress(Space),,,,,,,,-- --- ---- --- ------ ----- ------- ---- -- --- ------- --<br>------- ---------- ------ -- ----- -- ----- -- ---- ------<br>--- ----- --- --- ------ -------- ----- --- ------ ----- of<br>----- ----- ---------- --- --- ------ ------ ---- -- ------<br>------- --- ------ ----- --- ---- ------- -- ---- --- --<br>------- ------,210926,210925.39999997616,210455.343,210466.39999997616,210471.674,210938.347,,32,of
screen,html.Screen,2_1_1_1_33,2022-04-25T13:35:56.166Z,,,,,,,,,,,,,,,,,54,,,,,,,,,,,,,,651.0529999761493,,response,,,,100,,,,,,,Space,keypress(Space),,,,,,,,-- --- ---- --- ------ ----- ------- ---- -- --- ------- --<br>------- ---------- ------ -- ----- -- ----- -- ---- ------<br>--- ----- --- --- ------ -------- ----- --- ------ ----- --<br>these ----- ---------- --- --- ------ ------ ---- -- ------<br>------- --- ------ ----- --- ---- ------- -- ---- --- --<br>------- ------,211590.10000002384,211589.39999997616,210921.743,210926.20000004768,210938.347,211605.237,,33,these
screen,html.Screen,2_1_1_1_34,2022-04-25T13:35:56.706Z,,,,,,,,,,,,,,,,,54,,,,,,,,,,,,,,523.3630000238481,,response,,,,100,,,,,,,Space,keypress(Space),,,,,,,,-- --- ---- --- ------ ----- ------- ---- -- --- ------- --<br>------- ---------- ------ -- ----- -- ----- -- ---- ------<br>--- ----- --- --- ------ -------- ----- --- ------ ----- --<br>----- bonds ---------- --- --- ------ ------ ---- -- ------<br>------- --- ------ ----- --- ---- ------- -- ---- --- --<br>------- ------,212130.39999997616,212128.60000002384,211588.726,211590.20000004768,211605.237,212138.322,,34,bonds
screen,html.Screen,2_1_1_1_35,2022-04-25T13:35:57.214Z,,,,,,,,,,,,,,,,,54,,,,,,,,,,,,,,499.17800000001444,,response,,,,100,,,,,,,Space,keypress(Space),,,,,,,,"-- --- ---- --- ------ ----- ------- ---- -- --- ------- --<br>------- ---------- ------ -- ----- -- ----- -- ---- ------<br>--- ----- --- --- ------ -------- ----- --- ------ ----- --<br>----- ----- plummeted, --- --- ------ ------ ---- -- ------<br>------- --- ------ ----- --- ---- ------- -- ---- --- --<br>------- ------",212638.30000007153,212637.5,212122.042,212130.60000002384,212138.322,212654.912,,35,"plummeted,"
screen,html.Screen,2_1_1_1_36,2022-04-25T13:35:57.418Z,,,,,,,,,,,,,,,,,54,,,,,,,,,,,,,,186.08799999998882,,response,,,,100,,,,,,,Space,keypress(Space),,,,,,,,-- --- ---- --- ------ ----- ------- ---- -- --- ------- --<br>------- ---------- ------ -- ----- -- ----- -- ---- ------<br>--- ----- --- --- ------ -------- ----- --- ------ ----- --<br>----- ----- ---------- and --- ------ ------ ---- -- ------<br>------- --- ------ ----- --- ---- ------- -- ---- --- --<br>------- ------,212841.70000004768,212841,212638.625,212638.5,212654.912,212855.007,,36,and
screen,html.Screen,2_1_1_1_37,2022-04-25T13:35:57.737Z,,,,,,,,,,,,,,,,,54,,,,,,,,,,,,,,305.3929999761458,,response,,,,100,,,,,,,Space,keypress(Space),,,,,,,,-- --- ---- --- ------ ----- ------- ---- -- --- ------- --<br>------- ---------- ------ -- ----- -- ----- -- ---- ------<br>--- ----- --- --- ------ -------- ----- --- ------ ----- --<br>----- ----- ---------- --- the ------ ------ ---- -- ------<br>------- --- ------ ----- --- ---- ------- -- ---- --- --<br>------- ------,213161.20000004768,213160.39999997616,212838.263,212841.89999997616,212855.007,213172.062,,37,the
screen,html.Screen,2_1_1_1_38,2022-04-25T13:35:57.909Z,,,,,,,,,,,,,,,,,54,,,,,,,,,,,,,,159.93799999999464,,response,,,,100,,,,,,,Space,keypress(Space),,,,,,,,-- --- ---- --- ------ ----- ------- ---- -- --- ------- --<br>------- ---------- ------ -- ----- -- ----- -- ---- ------<br>--- ----- --- --- ------ -------- ----- --- ------ ----- --<br>----- ----- ---------- --- --- market ------ ---- -- ------<br>------- --- ------ ----- --- ---- ------- -- ---- --- --<br>------- ------,213332.70000004768,213332,213155.297,213161.39999997616,213172.062,213338.284,,38,market
screen,html.Screen,2_1_1_1_39,2022-04-25T13:35:58.171Z,,,,,,,,,,,,,,,,,54,,,,,,,,,,,,,,256.31600002382766,,response,,,,100,,,,,,,Space,keypress(Space),,,,,,,,-- --- ---- --- ------ ----- ------- ---- -- --- ------- --<br>------- ---------- ------ -- ----- -- ----- -- ---- ------<br>--- ----- --- --- ------ -------- ----- --- ------ ----- --<br>----- ----- ---------- --- --- ------ became ---- -- ------<br>------- --- ------ ----- --- ---- ------- -- ---- --- --<br>------- ------,213595.30000007153,213594.60000002384,213321.606,213333,213338.284,213605.012,,39,became
screen,html.Screen,2_1_1_1_40,2022-04-25T13:35:58.516Z,,,,,,,,,,,,,,,,,54,,,,,,,,,,,,,,334.6880000476958,,response,,,,100,,,,,,,Space,keypress(Space),,,,,,,,-- --- ---- --- ------ ----- ------- ---- -- --- ------- --<br>------- ---------- ------ -- ----- -- ----- -- ---- ------<br>--- ----- --- --- ------ -------- ----- --- ------ ----- --<br>----- ----- ---------- --- --- ------ ------ wary -- ------<br>------- --- ------ ----- --- ---- ------- -- ---- --- --<br>------- ------,213940.5,213939.70000004768,213588.553,213595.5,213605.012,213954.901,,40,wary
screen,html.Screen,2_1_1_1_41,2022-04-25T13:35:59.084Z,,,,,,,,,,,,,,,,,54,,,,,,,,,,,,,,552.5989999999874,,response,,,,100,,,,,,,Space,keypress(Space),,,,,,,,-- --- ---- --- ------ ----- ------- ---- -- --- ------- --<br>------- ---------- ------ -- ----- -- ----- -- ---- ------<br>--- ----- --- --- ------ -------- ----- --- ------ ----- --<br>----- ----- ---------- --- --- ------ ------ ---- of ------<br>------- --- ------ ----- --- ---- ------- -- ---- --- --<br>------- ------,214508.30000007153,214507.5,213938.622,213940.60000002384,213954.901,214521.605,,41,of
screen,html.Screen,2_1_1_1_42,2022-04-25T13:35:59.663Z,,,,,,,,,,,,,,,,,54,,,,,,,,,,,,,,564.7949999761477,,response,,,,100,,,,,,,Space,keypress(Space),,,,,,,,-- --- ---- --- ------ ----- ------- ---- -- --- ------- --<br>------- ---------- ------ -- ----- -- ----- -- ---- ------<br>--- ----- --- --- ------ -------- ----- --- ------ ----- --<br>----- ----- ---------- --- --- ------ ------ ---- -- French<br>------- --- ------ ----- --- ---- ------- -- ---- --- --<br>------- ------,215087.30000007153,215086.39999997616,214505.35,214508.39999997616,214521.605,215104.942,,42,French
screen,html.Screen,2_1_1_1_43,2022-04-25T13:35:59.959Z,,,,,,,,,,,,,,,,,54,,,,,,,,,,,,,,277.15800002383185,,response,,,,100,,,,,,,Space,keypress(Space),,,,,,,,-- --- ---- --- ------ ----- ------- ---- -- --- ------- --<br>------- ---------- ------ -- ----- -- ----- -- ---- ------<br>--- ----- --- --- ------ -------- ----- --- ------ ----- --<br>----- ----- ---------- --- --- ------ ------ ---- -- ------<br>credit. --- ------ ----- --- ---- ------- -- ---- --- --<br>------- ------,215382.89999997616,215382.10000002384,215071.664,215087.5,215104.942,215388.24,,43,credit.
screen,html.Screen,2_1_1_1_44,2022-04-25T13:36:00.647Z,,,,,,,,,,,,,,,,,54,,,,,,,,,,,,,,682.1599999761675,,response,,,,100,,,,,,,Space,keypress(Space),,,,,,,,-- --- ---- --- ------ ----- ------- ---- -- --- ------- --<br>------- ---------- ------ -- ----- -- ----- -- ---- ------<br>--- ----- --- --- ------ -------- ----- --- ------ ----- --<br>----- ----- ---------- --- --- ------ ------ ---- -- ------<br>------- The ------ ----- --- ---- ------- -- ---- --- --<br>------- ------,216071.20000004768,216070.39999997616,215371.923,215383,215388.24,216088.46,,44,The
screen,html.Screen,2_1_1_1_45,2022-04-25T13:36:01.302Z,,,,,,,,,,,,,,,,,54,,,,,,,,,,,,,,636.8400000715337,,response,,,,100,,,,,,,Space,keypress(Space),,,,,,,,-- --- ---- --- ------ ----- ------- ---- -- --- ------- --<br>------- ---------- ------ -- ----- -- ----- -- ---- ------<br>--- ----- --- --- ------ -------- ----- --- ------ ----- --<br>----- ----- ---------- --- --- ------ ------ ---- -- ------<br>------- --- French ----- --- ---- ------- -- ---- --- --<br>------- ------,216726.10000002384,216725.30000007153,216055.338,216071.5,216088.46,216738.369,,45,French
screen,html.Screen,2_1_1_1_46,2022-04-25T13:36:01.980Z,,,,,,,,,,,,,,,,,54,,,,,,,,,,,,,,665.130999999994,,response,,,,100,,,,,,,Space,keypress(Space),,,,,,,,-- --- ---- --- ------ ----- ------- ---- -- --- ------- --<br>------- ---------- ------ -- ----- -- ----- -- ---- ------<br>--- ----- --- --- ------ -------- ----- --- ------ ----- --<br>----- ----- ---------- --- --- ------ ------ ---- -- ------<br>------- --- ------ state --- ---- ------- -- ---- --- --<br>------- ------,217404.30000007153,217403.5,216721.826,216726.20000004768,216738.369,217421.568,,46,state
screen,html.Screen,2_1_1_1_47,2022-04-25T13:36:02.286Z,,,,,,,,,,,,,,,,,54,,,,,,,,,,,,,,287.2320000715263,,response,,,,100,,,,,,,Space,keypress(Space),,,,,,,,-- --- ---- --- ------ ----- ------- ---- -- --- ------- --<br>------- ---------- ------ -- ----- -- ----- -- ---- ------<br>--- ----- --- --- ------ -------- ----- --- ------ ----- --<br>----- ----- ---------- --- --- ------ ------ ---- -- ------<br>------- --- ------ ----- was ---- ------- -- ---- --- --<br>------- ------,217709.5,217708.80000007153,217388.361,217404.39999997616,217421.568,217721.511,,47,was
screen,html.Screen,2_1_1_1_48,2022-04-25T13:36:02.595Z,,,,,,,,,,,,,,,,,54,,,,,,,,,,,,,,296.78900007152697,,response,,,,100,,,,,,,Space,keypress(Space),,,,,,,,-- --- ---- --- ------ ----- ------- ---- -- --- ------- --<br>------- ---------- ------ -- ----- -- ----- -- ---- ------<br>--- ----- --- --- ------ -------- ----- --- ------ ----- --<br>----- ----- ---------- --- --- ------ ------ ---- -- ------<br>------- --- ------ ----- --- left ------- -- ---- --- --<br>------- ------,218019.10000002384,218018.30000007153,217705.224,217709.80000007153,217721.511,218021.524,,48,left
screen,html.Screen,2_1_1_1_49,2022-04-25T13:36:03.098Z,,,,,,,,,,,,,,,,,54,,,,,,,,,,,,,,499.6760000476788,,response,,,,100,,,,,,,Space,keypress(Space),,,,,,,,-- --- ---- --- ------ ----- ------- ---- -- --- ------- --<br>------- ---------- ------ -- ----- -- ----- -- ---- ------<br>--- ----- --- --- ------ -------- ----- --- ------ ----- --<br>----- ----- ---------- --- --- ------ ------ ---- -- ------<br>------- --- ------ ----- --- ---- without -- ---- --- --<br>------- ------,218522,218521.20000004768,218004.876,218019.30000007153,218021.524,218538.25,,49,without
screen,html.Screen,2_1_1_1_50,2022-04-25T13:36:03.364Z,,,,,,,,,,,,,,,,,54,,,,,,,,,,,,,,248.75,,response,,,,100,,,,,,,Space,keypress(Space),,,,,,,,-- --- ---- --- ------ ----- ------- ---- -- --- ------- --<br>------- ---------- ------ -- ----- -- ----- -- ---- ------<br>--- ----- --- --- ------ -------- ----- --- ------ ----- --<br>----- ----- ---------- --- --- ------ ------ ---- -- ------<br>------- --- ------ ----- --- ---- ------- an ---- --- --<br>------- ------,218787.80000007153,218787,218521.909,218522.20000004768,218538.25,218805.319,,50,an
screen,html.Screen,2_1_1_1_51,2022-04-25T13:36:03.593Z,,,,,,,,,,,,,,,,,54,,,,,,,,,,,,,,211.38100004769512,,response,,,,100,,,,,,,Space,keypress(Space),,,,,,,,-- --- ---- --- ------ ----- ------- ---- -- --- ------- --<br>------- ---------- ------ -- ----- -- ----- -- ---- ------<br>--- ----- --- --- ------ -------- ----- --- ------ ----- --<br>----- ----- ---------- --- --- ------ ------ ---- -- ------<br>------- --- ------ ----- --- ---- ------- -- easy --- --<br>------- ------,219017.5,219016.70000004768,218771.849,218787.89999997616,218805.319,219021.462,,51,easy
screen,html.Screen,2_1_1_1_52,2022-04-25T13:36:03.918Z,,,,,,,,,,,,,,,,,54,,,,,,,,,,,,,,319.9379999761586,,response,,,,100,,,,,,,Space,keypress(Space),,,,,,,,-- --- ---- --- ------ ----- ------- ---- -- --- ------- --<br>------- ---------- ------ -- ----- -- ----- -- ---- ------<br>--- ----- --- --- ------ -------- ----- --- ------ ----- --<br>----- ----- ---------- --- --- ------ ------ ---- -- ------<br>------- --- ------ ----- --- ---- ------- -- ---- way --<br>------- ------,219342.20000004768,219341.39999997616,219004.947,219017.60000002384,219021.462,219354.916,,52,way
screen,html.Screen,2_1_1_1_53,2022-04-25T13:36:04.339Z,,,,,,,,,,,,,,,,,54,,,,,,,,,,,,,,407.6840000238444,,response,,,,100,,,,,,,Space,keypress(Space),,,,,,,,-- --- ---- --- ------ ----- ------- ---- -- --- ------- --<br>------- ---------- ------ -- ----- -- ----- -- ---- ------<br>--- ----- --- --- ------ -------- ----- --- ------ ----- --<br>----- ----- ---------- --- --- ------ ------ ---- -- ------<br>------- --- ------ ----- --- ---- ------- -- ---- --- of<br>------- ------,219763.30000007153,219762.60000002384,219338.21,219342.39999997616,219354.916,219771.853,,53,of
screen,html.Screen,2_1_1_1_54,2022-04-25T13:36:05.005Z,,,,,,,,,,,,,,,,,54,,,,,,,,,,,,,,656.5469999761553,,response,,,,100,,,,,,,Space,keypress(Space),,,,,,,,-- --- ---- --- ------ ----- ------- ---- -- --- ------- --<br>------- ---------- ------ -- ----- -- ----- -- ---- ------<br>--- ----- --- --- ------ -------- ----- --- ------ ----- --<br>----- ----- ---------- --- --- ------ ------ ---- -- ------<br>------- --- ------ ----- --- ---- ------- -- ---- --- --<br>raising ------,220429.20000004768,220428.39999997616,219755.2,219763.39999997616,219771.853,220438.221,,54,raising
screen,html.Screen,2_1_1_1_55,2022-04-25T13:36:05.537Z,,,,,,,,,,,,,,,,,54,,,,,,,,,,,,,,521.8790000238514,,response,,,,100,,,,,,,Space,keypress(Space),,,,,,,,-- --- ---- --- ------ ----- ------- ---- -- --- ------- --<br>------- ---------- ------ -- ----- -- ----- -- ---- ------<br>--- ----- --- --- ------ -------- ----- --- ------ ----- --<br>----- ----- ---------- --- --- ------ ------ ---- -- ------<br>------- --- ------ ----- --- ---- ------- -- ---- --- --<br>------- money.,220960.89999997616,220960.10000002384,220421.578,220429.39999997616,220438.221,220971.453,,55,money.
Item 100,flow.Loop,2_1_1_1,2022-04-25T13:36:05.537Z,,,,,,,,,,,,,,,,,,,,,,,,,,,,,,,25304.81300002383,,completion,,,,,A,,,,,,,,,,,silence,,,,,220961.20000004768,220960.10000002384,195638.607,195639.60000002384,195655.287,220971.453,,,
Question 1,html.Screen,2_1_1_2,2022-04-25T13:36:08.853Z,,,,,,,,,,,,,,,,,,,,,,,,,,,,true,TRUE,,3304.5469999999914,,response,,,,100,A,,,,,,TRUE,click #choice-1,,,,silence,,,,,224277.5,224276,220955.23,220961.30000007153,220971.453,224288.074,,,
Question 2,html.Screen,2_1_1_3,2022-04-25T13:36:12.064Z,,,,,,,,,,,,,,,,,,,,,,,,,,,,false,FALSE,,3199.0260000238486,,response,,,,100,A,,,,,,TRUE,click #choice-1,,,,silence,,,,,227488.10000002384,227487.10000002384,224271.54,224277.70000004768,224288.074,227504.832,,,
Item 100,flow.Sequence,2_1_1,2022-04-25T13:36:12.064Z,,,,,,,,,,,,,,,,,,,,,,,,,,,,,,,41831.76400002383,,completion,,,,,,,,,,,,,,,,,,,,,227488.30000007153,227487.10000002384,185638.755,185643.70000004768,185655.336,227504.832,,,
End of Practice,html.Page,2_1_2,2022-04-25T13:36:19.221Z,,,,,,,,,,,,,,,,,,,,,,,,,,,,,,,7139.668000000005,,form submission,,,,,,,,,,,,,,,,,,,,,234644.89999997616,234644.5,227488.057,227488.39999997616,227504.832,234654.518,,,
Practice,flow.Sequence,2_1,2022-04-25T13:36:19.221Z,,,,,,,,,,,,,,,,,,,,,,,,,,,,,,,93938.26699999999,,completion,,,,,,,,,,,,,,,,,,,,,234645.10000002384,234644.5,140689.579,140700.80000007153,140706.233,234654.518,,,
Trap_instruction,html.Page,2_2_0,2022-04-25T13:36:24.976Z,,,,,,,,,,,,,,,,,,,,,,,,,,,,,,,5745.082000023831,,form submission,,,,,,,,,,,,,,,,,,,,,240399.89999997616,240399.60000002384,234638.023,234645.30000007153,234654.518,240421.263,,,
trap_trial,html.Screen,2_2_1,2022-04-25T13:36:29.267Z,,,,,,,,,,,,,,,,,,,,,,,,,,,,true,1,,4268.937000047677,,response,,,,,,,,,,,1,click #choice-1,,,,,,,,,244691.39999997616,244690.20000004768,240388.133,240400,240421.263,244704.912,,,
end of trap trial,html.Page,2_2_2,2022-04-25T13:36:32.617Z,,,,,,,,,,,,,,,,,,,,,,,,,,,,,,,3336.087999999989,,form submission,,,,,,,,,,,,,,,,,,,,,248041.39999997616,248041,244687.711,244691.60000002384,244704.912,248054.264,,,
Trap 1,flow.Sequence,2_2,2022-04-25T13:36:32.618Z,,,,,,,,,,,,,,,,,,,,,,,,,,,,,,,13386.481999999989,,completion,,,,,,,,,,,,,,,,,,,,,248041.5,248041,234638.023,234645.20000004768,234654.518,248054.264,,,
Standby,html.Page,2_3_0,2022-04-25T13:36:40.615Z,,,,,,,,,,,,,,,,,,,,,,,,,,,,,,,7999.940999999992,,timeout,,,,,,,,,,,,,,,,,,,,,256038.89999997616,256037.796,248037.719,248041.70000004768,248054.264,256054.205,,,
Holding screen,html.Screen,2_3_1_0_0,2022-04-25T13:36:47.615Z,,,,,,,,,,,,,,,,,,,,,,,,,,,,,,,6999.940000000031,,timeout,,,,,,,,,,,,,,,,,,,,,263038.8000000715,263037.684,256037.796,256039.10000002384,256054.205,263054.145,,,
screen,html.Screen,2_3_1_0_1_0,2022-04-25T13:36:49.169Z,,,,,,,,,,,,,,,,,19,,,,,,,,,,,,,,1538.3549999999814,,response,,,,17,A,,,,,,Space,keypress(Space),,,,silence,,,,"Interestingly, --- -------- -------- ---------- ---- -------<br>-- ---------- -- --- ----- ------ ----- ---- --------- ----<br>------- ------ -------- -- ------ ---------- ------ ---<br>------ -- -- ---- -- ---------- -------- ------ ---- -------<br>---- --- --------- ------- ----- --------- ---- ----- --<br>------ -------- -- ------ -- ---- ------------",264593.3000000715,264592.5,263037.684,263039,263054.145,264604.272,,0,"Interestingly,"
screen,html.Screen,2_3_1_0_1_1,2022-04-25T13:36:49.597Z,,,,,,,,,,,,,,,,,19,,,,,,,,,,,,,,416.02800007152837,,response,,,,17,A,,,,,,Space,keypress(Space),,,,silence,,,,-------------- the -------- -------- ---------- ---- -------<br>-- ---------- -- --- ----- ------ ----- ---- --------- ----<br>------- ------ -------- -- ------ ---------- ------ ---<br>------ -- -- ---- -- ---------- -------- ------ ---- -------<br>---- --- --------- ------- ----- --------- ---- ----- --<br>------ -------- -- ------ -- ---- ------------,265021,265020.3000000715,264587.994,264593.5,264604.272,265037.342,,1,the
screen,html.Screen,2_3_1_0_1_2,2022-04-25T13:36:50.264Z,,,,,,,,,,,,,,,,,19,,,,,,,,,,,,,,649.557999976154,,response,,,,17,A,,,,,,Space,keypress(Space),,,,silence,,,,-------------- --- heaviest -------- ---------- ---- -------<br>-- ---------- -- --- ----- ------ ----- ---- --------- ----<br>------- ------ -------- -- ------ ---------- ------ ---<br>------ -- -- ---- -- ---------- -------- ------ ---- -------<br>---- --- --------- ------- ----- --------- ---- ----- --<br>------ -------- -- ------ -- ---- ------------,265687.7000000477,265686.89999997616,265020.785,265021.2000000477,265037.342,265704.165,,2,heaviest
screen,html.Screen,2_3_1_0_1_3,2022-04-25T13:36:50.942Z,,,,,,,,,,,,,,,,,19,,,,,,,,,,,,,,661.2349999761791,,response,,,,17,A,,,,,,Space,keypress(Space),,,,silence,,,,-------------- --- -------- isotopes ---------- ---- -------<br>-- ---------- -- --- ----- ------ ----- ---- --------- ----<br>------- ------ -------- -- ------ ---------- ------ ---<br>------ -- -- ---- -- ---------- -------- ------ ---- -------<br>---- --- --------- ------- ----- --------- ---- ----- --<br>------ -------- -- ------ -- ---- ------------,266366.2000000477,266365.39999997616,265687.457,265687.89999997616,265704.165,266370.663,,3,isotopes
screen,html.Screen,2_3_1_0_1_4,2022-04-25T13:36:51.223Z,,,,,,,,,,,,,,,,,19,,,,,,,,,,,,,,275.2369999761577,,response,,,,17,A,,,,,,Space,keypress(Space),,,,silence,,,,-------------- --- -------- -------- physicists ---- -------<br>-- ---------- -- --- ----- ------ ----- ---- --------- ----<br>------- ------ -------- -- ------ ---------- ------ ---<br>------ -- -- ---- -- ---------- -------- ------ ---- -------<br>---- --- --------- ------- ----- --------- ---- ----- --<br>------ -------- -- ------ -- ---- ------------,266646.7000000477,266645.89999997616,266354.439,266366.39999997616,266370.663,266654.236,,4,physicists
screen,html.Screen,2_3_1_0_1_5,2022-04-25T13:36:51.717Z,,,,,,,,,,,,,,,,,19,,,,,,,,,,,,,,485.6639999761828,,response,,,,17,A,,,,,,Space,keypress(Space),,,,silence,,,,-------------- --- -------- -------- ---------- have -------<br>-- ---------- -- --- ----- ------ ----- ---- --------- ----<br>------- ------ -------- -- ------ ---------- ------ ---<br>------ -- -- ---- -- ---------- -------- ------ ---- -------<br>---- --- --------- ------- ----- --------- ---- ----- --<br>------ -------- -- ------ -- ---- ------------,267140.7000000477,267139.89999997616,266637.678,266646.8000000715,266654.236,267154.228,,5,have
screen,html.Screen,2_3_1_0_1_6,2022-04-25T13:36:52.096Z,,,,,,,,,,,,,,,,,19,,,,,,,,,,,,,,365.37200002383906,,response,,,,17,A,,,,,,Space,keypress(Space),,,,silence,,,,-------------- --- -------- -------- ---------- ---- managed<br>-- ---------- -- --- ----- ------ ----- ---- --------- ----<br>------- ------ -------- -- ------ ---------- ------ ---<br>------ -- -- ---- -- ---------- -------- ------ ---- -------<br>---- --- --------- ------- ----- --------- ---- ----- --<br>------ -------- -- ------ -- ---- ------------,267520.60000002384,267519.60000002384,267137.736,267140.8000000715,267154.228,267537.287,,6,managed
screen,html.Screen,2_3_1_0_1_7,2022-04-25T13:36:52.480Z,,,,,,,,,,,,,,,,,19,,,,,,,,,,,,,,365.8130000238307,,response,,,,17,A,,,,,,Space,keypress(Space),,,,silence,,,,-------------- --- -------- -------- ---------- ---- -------<br>to ---------- -- --- ----- ------ ----- ---- --------- ----<br>------- ------ -------- -- ------ ---------- ------ ---<br>------ -- -- ---- -- ---------- -------- ------ ---- -------<br>---- --- --------- ------- ----- --------- ---- ----- --<br>------ -------- -- ------ -- ---- ------------,267903.7000000477,267903.10000002384,267521.022,267520.7000000477,267537.287,267937.433,,7,to
screen,html.Screen,2_3_1_0_1_8,2022-04-25T13:36:53.358Z,,,,,,,,,,,,,,,,,19,,,,,,,,,,,,,,843.6670000238228,,response,,,,17,A,,,,,,Space,keypress(Space),,,,silence,,,,-------------- --- -------- -------- ---------- ---- -------<br>-- synthesize -- --- ----- ------ ----- ---- --------- ----<br>------- ------ -------- -- ------ ---------- ------ ---<br>------ -- -- ---- -- ---------- -------- ------ ---- -------<br>---- --- --------- ------- ----- --------- ---- ----- --<br>------ -------- -- ------ -- ---- ------------,268782,268781.10000002384,267920.591,267903.89999997616,267937.433,268787.281,,8,synthesize
screen,html.Screen,2_3_1_0_1_9,2022-04-25T13:36:53.937Z,,,,,,,,,,,,,,,,,19,,,,,,,,,,,,,,572.9190000476665,,response,,,,17,A,,,,,,Space,keypress(Space),,,,silence,,,,-------------- --- -------- -------- ---------- ---- -------<br>-- ---------- so --- ----- ------ ----- ---- --------- ----<br>------- ------ -------- -- ------ ---------- ------ ---<br>------ -- -- ---- -- ---------- -------- ------ ---- -------<br>---- --- --------- ------- ----- --------- ---- ----- --<br>------ -------- -- ------ -- ---- ------------,269361,269360.2000000477,268770.787,268782,268787.281,269370.861,,9,so
screen,html.Screen,2_3_1_0_1_10,2022-04-25T13:36:54.407Z,,,,,,,,,,,,,,,,,19,,,,,,,,,,,,,,459.73900002386654,,response,,,,17,A,,,,,,Space,keypress(Space),,,,silence,,,,-------------- --- -------- -------- ---------- ---- -------<br>-- ---------- -- far ----- ------ ----- ---- --------- ----<br>------- ------ -------- -- ------ ---------- ------ ---<br>------ -- -- ---- -- ---------- -------- ------ ---- -------<br>---- --- --------- ------- ----- --------- ---- ----- --<br>------ -------- -- ------ -- ---- ------------,269831.5,269830.60000002384,269354.059,269361.10000002384,269370.861,269837.227,,10,far
screen,html.Screen,2_3_1_0_1_11,2022-04-25T13:36:54.900Z,,,,,,,,,,,,,,,,,19,,,,,,,,,,,,,,486.2729999999865,,response,,,,17,A,,,,,,Space,keypress(Space),,,,silence,,,,-------------- --- -------- -------- ---------- ---- -------<br>-- ---------- -- --- don't ------ ----- ---- --------- ----<br>------- ------ -------- -- ------ ---------- ------ ---<br>------ -- -- ---- -- ---------- -------- ------ ---- -------<br>---- --- --------- ------- ----- --------- ---- ----- --<br>------ -------- -- ------ -- ---- ------------,270324.2000000477,270323.5,269820.983,269831.7000000477,269837.227,270337.499,,11,don't
screen,html.Screen,2_3_1_0_1_12,2022-04-25T13:36:55.611Z,,,,,,,,,,,,,,,,,19,,,,,,,,,,,,,,696.4009999761474,,response,,,,17,A,,,,,,Space,keypress(Space),,,,silence,,,,-------------- --- -------- -------- ---------- ---- -------<br>-- ---------- -- --- ----- behave ----- ---- --------- ----<br>------- ------ -------- -- ------ ---------- ------ ---<br>------ -- -- ---- -- ---------- -------- ------ ---- -------<br>---- --- --------- ------- ----- --------- ---- ----- --<br>------ -------- -- ------ -- ---- ------------,271034.7000000477,271033.89999997616,270320.688,270324.39999997616,270337.499,271037.232,,12,behave
screen,html.Screen,2_3_1_0_1_13,2022-04-25T13:36:55.892Z,,,,,,,,,,,,,,,,,19,,,,,,,,,,,,,,277.8680000238237,,response,,,,17,A,,,,,,Space,keypress(Space),,,,silence,,,,-------------- --- -------- -------- ---------- ---- -------<br>-- ---------- -- --- ----- ------ quite ---- --------- ----<br>------- ------ -------- -- ------ ---------- ------ ---<br>------ -- -- ---- -- ---------- -------- ------ ---- -------<br>---- --- --------- ------- ----- --------- ---- ----- --<br>------ -------- -- ------ -- ---- ------------,271315.8000000715,271315.10000002384,271021.003,271034.8000000715,271037.232,271320.57,,13,quite
screen,html.Screen,2_3_1_0_1_14,2022-04-25T13:36:56.150Z,,,,,,,,,,,,,,,,,19,,,,,,,,,,,,,,253.03000002383487,,response,,,,17,A,,,,,,Space,keypress(Space),,,,silence,,,,-------------- --- -------- -------- ---------- ---- -------<br>-- ---------- -- --- ----- ------ ----- like --------- ----<br>------- ------ -------- -- ------ ---------- ------ ---<br>------ -- -- ---- -- ---------- -------- ------ ---- -------<br>---- --- --------- ------- ----- --------- ---- ----- --<br>------ -------- -- ------ -- ---- ------------,271574.39999997616,271573.60000002384,271303.925,271316,271320.57,271587.591,,14,like
screen,html.Screen,2_3_1_0_1_15,2022-04-25T13:36:56.414Z,,,,,,,,,,,,,,,,,19,,,,,,,,,,,,,,250.20900007151067,,response,,,,17,A,,,,,,Space,keypress(Space),,,,silence,,,,-------------- --- -------- -------- ---------- ---- -------<br>-- ---------- -- --- ----- ------ ----- ---- science's ----<br>------- ------ -------- -- ------ ---------- ------ ---<br>------ -- -- ---- -- ---------- -------- ------ ---- -------<br>---- --- --------- ------- ----- --------- ---- ----- --<br>------ -------- -- ------ -- ---- ------------,271838.5,271837.8000000715,271570.61,271574.5,271587.591,271854.132,,15,science's
screen,html.Screen,2_3_1_0_1_16,2022-04-25T13:36:57.192Z,,,,,,,,,,,,,,,,,19,,,,,,,,,,,,,,761.2679999761749,,response,,,,17,A,,,,,,Space,keypress(Space),,,,silence,,,,-------------- --- -------- -------- ---------- ---- -------<br>-- ---------- -- --- ----- ------ ----- ---- --------- best<br>------- ------ -------- -- ------ ---------- ------ ---<br>------ -- -- ---- -- ---------- -------- ------ ---- -------<br>---- --- --------- ------- ----- --------- ---- ----- --<br>------ -------- -- ------ -- ---- ------------,272616.2000000477,272615.39999997616,271837.524,271838.7000000477,271854.132,272620.527,,16,best
screen,html.Screen,2_3_1_0_1_17,2022-04-25T13:36:57.760Z,,,,,,,,,,,,,,,,,19,,,,,,,,,,,,,,563.1730000476819,,response,,,,17,A,,,,,,Space,keypress(Space),,,,silence,,,,-------------- --- -------- -------- ---------- ---- -------<br>-- ---------- -- --- ----- ------ ----- ---- --------- ----<br>current ------ -------- -- ------ ---------- ------ ---<br>------ -- -- ---- -- ---------- -------- ------ ---- -------<br>---- --- --------- ------- ----- --------- ---- ----- --<br>------ -------- -- ------ -- ---- ------------,273184.5,273183.7000000477,272604.014,272616.3000000715,272620.527,273187.212,,17,current
screen,html.Screen,2_3_1_0_1_18,2022-04-25T13:36:58.201Z,,,,,,,,,,,,,,,,,19,,,,,,,,,,,,,,437.1879999761586,,response,,,,17,A,,,,,,Space,keypress(Space),,,,silence,,,,-------------- --- -------- -------- ---------- ---- -------<br>-- ---------- -- --- ----- ------ ----- ---- --------- ----<br>------- models -------- -- ------ ---------- ------ ---<br>------ -- -- ---- -- ---------- -------- ------ ---- -------<br>---- --- --------- ------- ----- --------- ---- ----- --<br>------ -------- -- ------ -- ---- ------------,273625.10000002384,273624.39999997616,273170.635,273184.7000000477,273187.212,273637.239,,18,models
screen,html.Screen,2_3_1_0_1_19,2022-04-25T13:36:58.888Z,,,,,,,,,,,,,,,,,19,,,,,,,,,,,,,,674.0610000715242,,response,,,,17,A,,,,,,Space,keypress(Space),,,,silence,,,,"-------------- --- -------- -------- ---------- ---- -------<br>-- ---------- -- --- ----- ------ ----- ---- --------- ----<br>------- ------ predict, -- ------ ---------- ------ ---<br>------ -- -- ---- -- ---------- -------- ------ ---- -------<br>---- --- --------- ------- ----- --------- ---- ----- --<br>------ -------- -- ------ -- ---- ------------",274312.10000002384,274311.3000000715,273620.547,273625.2000000477,273637.239,274320.77,,19,"predict,"
screen,html.Screen,2_3_1_0_1_20,2022-04-25T13:36:59.707Z,,,,,,,,,,,,,,,,,19,,,,,,,,,,,,,,809.1299999761395,,response,,,,17,A,,,,,,Space,keypress(Space),,,,silence,,,,-------------- --- -------- -------- ---------- ---- -------<br>-- ---------- -- --- ----- ------ ----- ---- --------- ----<br>------- ------ -------- so ------ ---------- ------ ---<br>------ -- -- ---- -- ---------- -------- ------ ---- -------<br>---- --- --------- ------- ----- --------- ---- ----- --<br>------ -------- -- ------ -- ---- ------------,275130.8000000715,275129.89999997616,274303.995,274312.3000000715,274320.77,275137.121,,20,so
screen,html.Screen,2_3_1_0_1_21,2022-04-25T13:37:00.016Z,,,,,,,,,,,,,,,,,19,,,,,,,,,,,,,,302.37900000001537,,response,,,,17,A,,,,,,Space,keypress(Space),,,,silence,,,,-------------- --- -------- -------- ---------- ---- -------<br>-- ---------- -- --- ----- ------ ----- ---- --------- ----<br>------- ------ -------- -- stable ---------- ------ ---<br>------ -- -- ---- -- ---------- -------- ------ ---- -------<br>---- --- --------- ------- ----- --------- ---- ----- --<br>------ -------- -- ------ -- ---- ------------,275440.39999997616,275439.5,275120.683,275131.10000002384,275137.121,275453.852,,21,stable
screen,html.Screen,2_3_1_0_1_22,2022-04-25T13:37:00.894Z,,,,,,,,,,,,,,,,,19,,,,,,,,,,,,,,863.2480000238284,,response,,,,17,A,,,,,,Space,keypress(Space),,,,silence,,,,-------------- --- -------- -------- ---------- ---- -------<br>-- ---------- -- --- ----- ------ ----- ---- --------- ----<br>------- ------ -------- -- ------ superheavy ------ ---<br>------ -- -- ---- -- ---------- -------- ------ ---- -------<br>---- --- --------- ------- ----- --------- ---- ----- --<br>------ -------- -- ------ -- ---- ------------,276317.8000000715,276317.10000002384,275437.513,275440.5,275453.852,276320.457,,22,superheavy
screen,html.Screen,2_3_1_0_1_23,2022-04-25T13:37:01.647Z,,,,,,,,,,,,,,,,,19,,,,,,,,,,,,,,749.7430000476888,,response,,,,17,A,,,,,,Space,keypress(Space),,,,silence,,,,-------------- --- -------- -------- ---------- ---- -------<br>-- ---------- -- --- ----- ------ ----- ---- --------- ----<br>------- ------ -------- -- ------ ---------- nuclei ---<br>------ -- -- ---- -- ---------- -------- ------ ---- -------<br>---- --- --------- ------- ----- --------- ---- ----- --<br>------ -------- -- ------ -- ---- ------------,277071.10000002384,277070.2000000477,276303.985,276317.89999997616,276320.457,277087.223,,23,nuclei
screen,html.Screen,2_3_1_0_1_24,2022-04-25T13:37:02.074Z,,,,,,,,,,,,,,,,,19,,,,,,,,,,,,,,410.17699997616,,response,,,,17,A,,,,,,Space,keypress(Space),,,,silence,,,,-------------- --- -------- -------- ---------- ---- -------<br>-- ---------- -- --- ----- ------ ----- ---- --------- ----<br>------- ------ -------- -- ------ ---------- ------ are<br>------ -- -- ---- -- ---------- -------- ------ ---- -------<br>---- --- --------- ------- ----- --------- ---- ----- --<br>------ -------- -- ------ -- ---- ------------,277498.10000002384,277497.39999997616,277070.727,277071.3000000715,277087.223,277503.796,,24,are
screen,html.Screen,2_3_1_0_1_25,2022-04-25T13:37:02.581Z,,,,,,,,,,,,,,,,,19,,,,,,,,,,,,,,500.9040000477107,,response,,,,17,A,,,,,,Space,keypress(Space),,,,silence,,,,-------------- --- -------- -------- ---------- ---- -------<br>-- ---------- -- --- ----- ------ ----- ---- --------- ----<br>------- ------ -------- -- ------ ---------- ------ ---<br>likely -- -- ---- -- ---------- -------- ------ ---- -------<br>---- --- --------- ------- ----- --------- ---- ----- --<br>------ -------- -- ------ -- ---- ------------,278005.5,278004.7000000477,277487.364,277498.3000000715,277503.796,278020.562,,25,likely
screen,html.Screen,2_3_1_0_1_26,2022-04-25T13:37:02.987Z,,,,,,,,,,,,,,,,,19,,,,,,,,,,,,,,390.2380000715493,,response,,,,17,A,,,,,,Space,keypress(Space),,,,silence,,,,-------------- --- -------- -------- ---------- ---- -------<br>-- ---------- -- --- ----- ------ ----- ---- --------- ----<br>------- ------ -------- -- ------ ---------- ------ ---<br>------ to -- ---- -- ---------- -------- ------ ---- -------<br>---- --- --------- ------- ----- --------- ---- ----- --<br>------ -------- -- ------ -- ---- ------------,278411.5,278410.8000000715,278004.202,278005.60000002384,278020.562,278420.458,,26,to
screen,html.Screen,2_3_1_0_1_27,2022-04-25T13:37:03.301Z,,,,,,,,,,,,,,,,,19,,,,,,,,,,,,,,303.3420000715414,,response,,,,17,A,,,,,,Space,keypress(Space),,,,silence,,,,-------------- --- -------- -------- ---------- ---- -------<br>-- ---------- -- --- ----- ------ ----- ---- --------- ----<br>------- ------ -------- -- ------ ---------- ------ ---<br>------ -- be ---- -- ---------- -------- ------ ---- -------<br>---- --- --------- ------- ----- --------- ---- ----- --<br>------ -------- -- ------ -- ---- ------------,278724.60000002384,278723.8000000715,278403.914,278411.7000000477,278420.458,278737.142,,27,be
screen,html.Screen,2_3_1_0_1_28,2022-04-25T13:37:03.490Z,,,,,,,,,,,,,,,,,19,,,,,,,,,,,,,,175.9580000238493,,response,,,,17,A,,,,,,Space,keypress(Space),,,,silence,,,,-------------- --- -------- -------- ---------- ---- -------<br>-- ---------- -- --- ----- ------ ----- ---- --------- ----<br>------- ------ -------- -- ------ ---------- ------ ---<br>------ -- -- full -- ---------- -------- ------ ---- -------<br>---- --- --------- ------- ----- --------- ---- ----- --<br>------ -------- -- ------ -- ---- ------------,278913.8000000715,278913.10000002384,278720.801,278724.7000000477,278737.142,278920.431,,28,full
screen,html.Screen,2_3_1_0_1_29,2022-04-25T13:37:04.052Z,,,,,,,,,,,,,,,,,19,,,,,,,,,,,,,,554.6690000238596,,response,,,,17,A,,,,,,Space,keypress(Space),,,,silence,,,,-------------- --- -------- -------- ---------- ---- -------<br>-- ---------- -- --- ----- ------ ----- ---- --------- ----<br>------- ------ -------- -- ------ ---------- ------ ---<br>------ -- -- ---- of ---------- -------- ------ ---- -------<br>---- --- --------- ------- ----- --------- ---- ----- --<br>------ -------- -- ------ -- ---- ------------,279475.89999997616,279475.10000002384,278903.796,278913.89999997616,278920.431,279487.034,,29,of
screen,html.Screen,2_3_1_0_1_30,2022-04-25T13:37:04.854Z,,,,,,,,,,,,,,,,,19,,,,,,,,,,,,,,789.865999976173,,response,,,,17,A,,,,,,Space,keypress(Space),,,,silence,,,,-------------- --- -------- -------- ---------- ---- -------<br>-- ---------- -- --- ----- ------ ----- ---- --------- ----<br>------- ------ -------- -- ------ ---------- ------ ---<br>------ -- -- ---- -- surprises. -------- ------ ---- -------<br>---- --- --------- ------- ----- --------- ---- ----- --<br>------ -------- -- ------ -- ---- ------------,280277.60000002384,280276.89999997616,279470.802,279476,279487.034,280287.167,,30,surprises.
screen,html.Screen,2_3_1_0_1_31,2022-04-25T13:37:05.483Z,,,,,,,,,,,,,,,,,19,,,,,,,,,,,,,,619.433000023826,,response,,,,17,A,,,,,,Space,keypress(Space),,,,silence,,,,-------------- --- -------- -------- ---------- ---- -------<br>-- ---------- -- --- ----- ------ ----- ---- --------- ----<br>------- ------ -------- -- ------ ---------- ------ ---<br>------ -- -- ---- -- ---------- Chemists ------ ---- -------<br>---- --- --------- ------- ----- --------- ---- ----- --<br>------ -------- -- ------ -- ---- ------------,280907.39999997616,280906.60000002384,280270.515,280277.8000000715,280287.167,280920.5,,31,Chemists
screen,html.Screen,2_3_1_0_1_32,2022-04-25T13:37:05.895Z,,,,,,,,,,,,,,,,,19,,,,,,,,,,,,,,398.2000000476837,,response,,,,17,A,,,,,,Space,keypress(Space),,,,silence,,,,-------------- --- -------- -------- ---------- ---- -------<br>-- ---------- -- --- ----- ------ ----- ---- --------- ----<br>------- ------ -------- -- ------ ---------- ------ ---<br>------ -- -- ---- -- ---------- -------- cannot ---- -------<br>---- --- --------- ------- ----- --------- ---- ----- --<br>------ -------- -- ------ -- ---- ------------,281319.5,281318.7000000477,280903.814,280907.89999997616,280920.5,281337.086,,32,cannot
screen,html.Screen,2_3_1_0_1_33,2022-04-25T13:37:06.084Z,,,,,,,,,,,,,,,,,19,,,,,,,,,,,,,,170.0140000238316,,response,,,,17,A,,,,,,Space,keypress(Space),,,,silence,,,,-------------- --- -------- -------- ---------- ---- -------<br>-- ---------- -- --- ----- ------ ----- ---- --------- ----<br>------- ------ -------- -- ------ ---------- ------ ---<br>------ -- -- ---- -- ---------- -------- ------ even -------<br>---- --- --------- ------- ----- --------- ---- ----- --<br>------ -------- -- ------ -- ---- ------------,281508,281507.10000002384,281303.808,281319.60000002384,281337.086,281520.426,,33,even
screen,html.Screen,2_3_1_0_1_34,2022-04-25T13:37:06.609Z,,,,,,,,,,,,,,,,,19,,,,,,,,,,,,,,511.4739999761805,,response,,,,17,A,,,,,,Space,keypress(Space),,,,silence,,,,-------------- --- -------- -------- ---------- ---- -------<br>-- ---------- -- --- ----- ------ ----- ---- --------- ----<br>------- ------ -------- -- ------ ---------- ------ ---<br>------ -- -- ---- -- ---------- -------- ------ ---- predict<br>---- --- --------- ------- ----- --------- ---- ----- --<br>------ -------- -- ------ -- ---- ------------,282032.60000002384,282031.89999997616,281504.072,281508.10000002384,281520.426,282037.017,,34,predict
screen,html.Screen,2_3_1_0_1_35,2022-04-25T13:37:07.010Z,,,,,,,,,,,,,,,,,19,,,,,,,,,,,,,,396.48300000000745,,response,,,,17,A,,,,,,Space,keypress(Space),,,,silence,,,,-------------- --- -------- -------- ---------- ---- -------<br>-- ---------- -- --- ----- ------ ----- ---- --------- ----<br>------- ------ -------- -- ------ ---------- ------ ---<br>------ -- -- ---- -- ---------- -------- ------ ---- -------<br>with --- --------- ------- ----- --------- ---- ----- --<br>------ -------- -- ------ -- ---- ------------,282434.60000002384,282433.5,282020.492,282032.8000000715,282037.017,282437.028,,35,with
screen,html.Screen,2_3_1_0_1_36,2022-04-25T13:37:07.450Z,,,,,,,,,,,,,,,,,19,,,,,,,,,,,,,,435.871999976167,,response,,,,17,A,,,,,,Space,keypress(Space),,,,silence,,,,-------------- --- -------- -------- ---------- ---- -------<br>-- ---------- -- --- ----- ------ ----- ---- --------- ----<br>------- ------ -------- -- ------ ---------- ------ ---<br>------ -- -- ---- -- ---------- -------- ------ ---- -------<br>---- any --------- ------- ----- --------- ---- ----- --<br>------ -------- -- ------ -- ---- ------------,282873.7000000477,282872.89999997616,282420.748,282434.7000000477,282437.028,282887.107,,36,any
screen,html.Screen,2_3_1_0_1_37,2022-04-25T13:37:07.721Z,,,,,,,,,,,,,,,,,19,,,,,,,,,,,,,,257.4930000238237,,response,,,,17,A,,,,,,Space,keypress(Space),,,,silence,,,,-------------- --- -------- -------- ---------- ---- -------<br>-- ---------- -- --- ----- ------ ----- ---- --------- ----<br>------- ------ -------- -- ------ ---------- ------ ---<br>------ -- -- ---- -- ---------- -------- ------ ---- -------<br>---- --- certainty ------- ----- --------- ---- ----- --<br>------ -------- -- ------ -- ---- ------------,283145.39999997616,283144.60000002384,282870.501,282873.8000000715,282887.107,283153.741,,37,certainty
screen,html.Screen,2_3_1_0_1_38,2022-04-25T13:37:08.103Z,,,,,,,,,,,,,,,,,19,,,,,,,,,,,,,,372.65899997617817,,response,,,,17,A,,,,,,Space,keypress(Space),,,,silence,,,,-------------- --- -------- -------- ---------- ---- -------<br>-- ---------- -- --- ----- ------ ----- ---- --------- ----<br>------- ------ -------- -- ------ ---------- ------ ---<br>------ -- -- ---- -- ---------- -------- ------ ---- -------<br>---- --- --------- whether ----- --------- ---- ----- --<br>------ -------- -- ------ -- ---- ------------,283527.2000000477,283526.39999997616,283137.085,283145.5,283153.741,283536.976,,38,whether
