sender,sender_type,sender_id,timestamp,meta,,Blues,Classical,Country,Dance,Electronic,Folk,Gospel,Hip-Hop,Jazz,Latin,Musical/Film,New-age,Pop,Provo_ID,R&B,Rap,Reggae,Religious,Rock,Soul,Swing,Traditional,age,artist_name,correct,correctResponse,distraction,duration,education,ended_on,familiarity,gender,item,list,music_frequency,offensiveness,pleasantness,preference,response,response_action,snippet_file,song_name,song_rating,sound,text,time_commit,time_end,time_render,time_run,time_show,time_switch,url,word,word_ID
Instructions,html.Page,0_0,2021-12-02T13:12:18.472Z,"{""labjs_version"":""20.2.3"",""labjs_build"":{""flavor"":""production"",""commit"":""7ea907d66ca8aeef8054924ca5d82ffbe11e34e5""},""location"":""https://run.pavlovia.org/mvasilev/lab_music_c/"",""userAgent"":""Mozilla/5.0 (Windows NT 6.1; Win64; x64) AppleWebKit/537.36 (KHTML, like Gecko) Chrome/96.0.4664.45 Safari/537.36"",""platform"":""Win32"",""language"":""en-US"",""locale"":""en-US"",""timeZone"":""Europe/London"",""timezoneOffset"":0,""screen_width"":1920,""screen_height"":1080,""scroll_width"":1920,""scroll_height"":959,""window_innerWidth"":1920,""window_innerHeight"":1007,""devicePixelRatio"":1}",,,,,,,,,,,,,,,,,,,,,,,,,,,,,25085.854,,form submission,,,,,,,,,,,,,,,,35207.800000000745,35207,10087.804,10103.60000000149,10121.146,35227.83,{},,
Headphones,html.Page,0_1,2021-12-02T13:12:20.605Z,,,,,,,,,,,,,,,,,,,,,,,,,,,,,,2112.6699999999983,,form submission,,,,,,,,,,,,,,,,37341,37340.5,35211.159,35208.20000000298,35227.83,37344.911,,,
Holding screen,html.Screen,0_2_0_0,2021-12-02T13:12:30.601Z,,,,,,,,,,,,,,,,,,,,,,,,,,,,,,10002.659,,timeout,,,,,,,,,,,,,,,,47337.400000002235,47330.9,37328.241,37341.5,37344.911,47347.57,,,
screen,html.Screen,0_2_0_1_0,2021-12-02T13:12:31.732Z,,,,,,,,,,,,,,,,53,,,,,,,,,,,,,,1119.7300000007453,,response,,,99,,,,,,Space,keypress(Space),,,,,When -- ----- -- ------ - ------- --- ----------<br>------------- ------ ------ ---- ---- ------- ----- -- ----<br>-------- ------- -- ---------- --- - --- ----- ----- ----<br>---- --- --- ----- --- ---- ---- ------- ----- ---- -------<br>--- --- -- ----- -- --- ---- -- --- ---- -- ------ ------<br>--- ----- -- ----,48468.60000000149,48467.300000000745,47330.9,47337.70000000298,47347.57,48481.336,,0,When
screen,html.Screen,0_2_0_1_1,2021-12-02T13:12:32.259Z,,,,,,,,,,,,,,,,53,,,,,,,,,,,,,,513.3640000029773,,response,,,99,,,,,,Space,keypress(Space),,,,,---- it ----- -- ------ - ------- --- ----------<br>------------- ------ ------ ---- ---- ------- ----- -- ----<br>-------- ------- -- ---------- --- - --- ----- ----- ----<br>---- --- --- ----- --- ---- ---- ------- ----- ---- -------<br>--- --- -- ----- -- --- ---- -- --- ---- -- ------ ------<br>--- ----- -- ----,48995.60000000149,48994.70000000298,48464.665,48469,48481.336,48998.213,,1,it
screen,html.Screen,0_2_0_1_2,2021-12-02T13:12:32.707Z,,,,,,,,,,,,,,,,53,,,,,,,,,,,,,,444.5870000007417,,response,,,99,,,,,,Space,keypress(Space),,,,,---- -- comes -- ------ - ------- --- ----------<br>------------- ------ ------ ---- ---- ------- ----- -- ----<br>-------- ------- -- ---------- --- - --- ----- ----- ----<br>---- --- --- ----- --- ---- ---- ------- ----- ---- -------<br>--- --- -- ----- -- --- ---- -- --- ---- -- ------ ------<br>--- ----- -- ----,49443.70000000298,49442.800000000745,48981.542,48995.900000002235,48998.213,49448.282,,2,comes
screen,html.Screen,0_2_0_1_3,2021-12-02T13:12:33.131Z,,,,,,,,,,,,,,,,53,,,,,,,,,,,,,,418.5180000007458,,response,,,99,,,,,,Space,keypress(Space),,,,,---- -- ----- to ------ - ------- --- ----------<br>------------- ------ ------ ---- ---- ------- ----- -- ----<br>-------- ------- -- ---------- --- - --- ----- ----- ----<br>---- --- --- ----- --- ---- ---- ------- ----- ---- -------<br>--- --- -- ----- -- --- ---- -- --- ---- -- ------ ------<br>--- ----- -- ----,49867.70000000298,49866.800000000745,49431.612,49443.900000002235,49448.282,49881.736,,3,to
screen,html.Screen,0_2_0_1_4,2021-12-02T13:12:33.572Z,,,,,,,,,,,,,,,,53,,,,,,,,,,,,,,425.0640000007479,,response,,,99,,,,,,Space,keypress(Space),,,,,---- -- ----- -- having - ------- --- ----------<br>------------- ------ ------ ---- ---- ------- ----- -- ----<br>-------- ------- -- ---------- --- - --- ----- ----- ----<br>---- --- --- ----- --- ---- ---- ------- ----- ---- -------<br>--- --- -- ----- -- --- ---- -- --- ---- -- ------ ------<br>--- ----- -- ----,50307.900000002235,50306.800000000745,49865.066,49868.20000000298,49881.736,50315.223,,4,having
screen,html.Screen,0_2_0_1_5,2021-12-02T13:12:33.947Z,,,,,,,,,,,,,,,,53,,,,,,,,,,,,,,367.4770000029821,,response,,,99,,,,,,Space,keypress(Space),,,,,---- -- ----- -- ------ a ------- --- ----------<br>------------- ------ ------ ---- ---- ------- ----- -- ----<br>-------- ------- -- ---------- --- - --- ----- ----- ----<br>---- --- --- ----- --- ---- ---- ------- ----- ---- -------<br>--- --- -- ----- -- --- ---- -- --- ---- -- ------ ------<br>--- ----- -- ----,50683.70000000298,50682.70000000298,50298.552,50308.10000000149,50315.223,50698.629,,5,a
screen,html.Screen,0_2_0_1_6,2021-12-02T13:12:34.372Z,,,,,,,,,,,,,,,,53,,,,,,,,,,,,,,408.0710000029794,,response,,,99,,,,,,Space,keypress(Space),,,,,---- -- ----- -- ------ - lasting --- ----------<br>------------- ------ ------ ---- ---- ------- ----- -- ----<br>-------- ------- -- ---------- --- - --- ----- ----- ----<br>---- --- --- ----- --- ---- ---- ------- ----- ---- -------<br>--- --- -- ----- -- --- ---- -- --- ---- -- ------ ------<br>--- ----- -- ----,51107.70000000298,51106.70000000298,50681.959,50684.10000000149,50698.629,51115.395,,6,lasting
screen,html.Screen,0_2_0_1_7,2021-12-02T13:12:34.779Z,,,,,,,,,,,,,,,,53,,,,,,,,,,,,,,399.30500000298343,,response,,,99,,,,,,Space,keypress(Space),,,,,---- -- ----- -- ------ - ------- and ----------<br>------------- ------ ------ ---- ---- ------- ----- -- ----<br>-------- ------- -- ---------- --- - --- ----- ----- ----<br>---- --- --- ----- --- ---- ---- ------- ----- ---- -------<br>--- --- -- ----- -- --- ---- -- --- ---- -- ------ ------<br>--- ----- -- ----,51515.70000000298,51514.70000000298,51098.725,51108,51115.395,51532.183,,7,and
screen,html.Screen,0_2_0_1_8,2021-12-02T13:12:35.132Z,,,,,,,,,,,,,,,,53,,,,,,,,,,,,,,334.51700000298297,,response,,,99,,,,,,Space,keypress(Space),,,,,---- -- ----- -- ------ - ------- --- fulfilling<br>------------- ------ ------ ---- ---- ------- ----- -- ----<br>-------- ------- -- ---------- --- - --- ----- ----- ----<br>---- --- --- ----- --- ---- ---- ------- ----- ---- -------<br>--- --- -- ----- -- --- ---- -- --- ---- -- ------ ------<br>--- ----- -- ----,51867.70000000298,51866.70000000298,51515.513,51515.900000002235,51532.183,51882.138,,8,fulfilling
screen,html.Screen,0_2_0_1_9,2021-12-02T13:12:35.619Z,,,,,,,,,,,,,,,,53,,,,,,,,,,,,,,472.4620000014911,,response,,,99,,,,,,Space,keypress(Space),,,,,"---- -- ----- -- ------ - ------- --- ----------<br>relationship, ------ ------ ---- ---- ------- ----- -- ----<br>-------- ------- -- ---------- --- - --- ----- ----- ----<br>---- --- --- ----- --- ---- ---- ------- ----- ---- -------<br>--- --- -- ----- -- --- ---- -- --- ---- -- ------ ------<br>--- ----- -- ----",52355.60000000149,52354.60000000149,51865.47,51868.10000000149,51882.138,52365.748,,9,"relationship,"
screen,html.Screen,0_2_0_1_10,2021-12-02T13:12:36.035Z,,,,,,,,,,,,,,,,53,,,,,,,,,,,,,,404.95200000298064,,response,,,99,,,,,,Space,keypress(Space),,,,,---- -- ----- -- ------ - ------- --- ----------<br>------------- common ------ ---- ---- ------- ----- -- ----<br>-------- ------- -- ---------- --- - --- ----- ----- ----<br>---- --- --- ----- --- ---- ---- ------- ----- ---- -------<br>--- --- -- ----- -- --- ---- -- --- ---- -- ------ ------<br>--- ----- -- ----,52771.60000000149,52770.70000000298,52349.077,52355.900000002235,52365.748,52782.442,,10,common
screen,html.Screen,0_2_0_1_11,2021-12-02T13:12:36.747Z,,,,,,,,,,,,,,,,53,,,,,,,,,,,,,,700.1580000014874,,response,,,99,,,,,,Space,keypress(Space),,,,,---- -- ----- -- ------ - ------- --- ----------<br>------------- ------ wisdom ---- ---- ------- ----- -- ----<br>-------- ------- -- ---------- --- - --- ----- ----- ----<br>---- --- --- ----- --- ---- ---- ------- ----- ---- -------<br>--- --- -- ----- -- --- ---- -- --- ---- -- ------ ------<br>--- ----- -- ----,53483.5,53482.60000000149,52765.772,52771.800000000745,52782.442,53499.47,,11,wisdom
screen,html.Screen,0_2_0_1_12,2021-12-02T13:12:37.147Z,,,,,,,,,,,,,,,,53,,,,,,,,,,,,,,383.13000000148895,,response,,,99,,,,,,Space,keypress(Space),,,,,---- -- ----- -- ------ - ------- --- ----------<br>------------- ------ ------ says ---- ------- ----- -- ----<br>-------- ------- -- ---------- --- - --- ----- ----- ----<br>---- --- --- ----- --- ---- ---- ------- ----- ---- -------<br>--- --- -- ----- -- --- ---- -- --- ---- -- ------ ------<br>--- ----- -- ----,53883.400000002235,53882.60000000149,53482.798,53483.800000000745,53499.47,53899.453,,12,says
screen,html.Screen,0_2_0_1_13,2021-12-02T13:12:37.571Z,,,,,,,,,,,,,,,,53,,,,,,,,,,,,,,407.1470000014888,,response,,,99,,,,,,Space,keypress(Space),,,,,---- -- ----- -- ------ - ------- --- ----------<br>------------- ------ ------ ---- that ------- ----- -- ----<br>-------- ------- -- ---------- --- - --- ----- ----- ----<br>---- --- --- ----- --- ---- ---- ------- ----- ---- -------<br>--- --- -- ----- -- --- ---- -- --- ---- -- ------ ------<br>--- ----- -- ----,54307.400000002235,54306.60000000149,53882.783,53883.70000000298,53899.453,54316.247,,13,that
screen,html.Screen,0_2_0_1_14,2021-12-02T13:12:38.011Z,,,,,,,,,,,,,,,,53,,,,,,,,,,,,,,430.252999999997,,response,,,99,,,,,,Space,keypress(Space),,,,,---- -- ----- -- ------ - ------- --- ----------<br>------------- ------ ------ ---- ---- feeling ----- -- ----<br>-------- ------- -- ---------- --- - --- ----- ----- ----<br>---- --- --- ----- --- ---- ---- ------- ----- ---- -------<br>--- --- -- ----- -- --- ---- -- --- ---- -- ------ ------<br>--- ----- -- ----,54747.300000000745,54746.5,54299.577,54307.60000000149,54316.247,54749.729,,14,feeling
screen,html.Screen,0_2_0_1_15,2021-12-02T13:12:38.387Z,,,,,,,,,,,,,,,,53,,,,,,,,,,,,,,372.77100000000064,,response,,,99,,,,,,Space,keypress(Space),,,,,---- -- ----- -- ------ - ------- --- ----------<br>------------- ------ ------ ---- ---- ------- close -- ----<br>-------- ------- -- ---------- --- - --- ----- ----- ----<br>---- --- --- ----- --- ---- ---- ------- ----- ---- -------<br>--- --- -- ----- -- --- ---- -- --- ---- -- ------ ------<br>--- ----- -- ----,55123.300000000745,55122.5,54733.058,54747.5,54749.729,55133.117,,15,close
screen,html.Screen,0_2_0_1_16,2021-12-02T13:12:38.755Z,,,,,,,,,,,,,,,,53,,,,,,,,,,,,,,357.2830000022368,,response,,,99,,,,,,Space,keypress(Space),,,,,---- -- ----- -- ------ - ------- --- ----------<br>------------- ------ ------ ---- ---- ------- ----- to ----<br>-------- ------- -- ---------- --- - --- ----- ----- ----<br>---- --- --- ----- --- ---- ---- ------- ----- ---- -------<br>--- --- -- ----- -- --- ---- -- --- ---- -- ------ ------<br>--- ----- -- ----,55491.20000000298,55490.400000002235,55116.447,55123.60000000149,55133.117,55499.894,,16,to
screen,html.Screen,0_2_0_1_17,2021-12-02T13:12:39.211Z,,,,,,,,,,,,,,,,53,,,,,,,,,,,,,,446.50600000223494,,response,,,99,,,,,,Space,keypress(Space),,,,,---- -- ----- -- ------ - ------- --- ----------<br>------------- ------ ------ ---- ---- ------- ----- -- your<br>-------- ------- -- ---------- --- - --- ----- ----- ----<br>---- --- --- ----- --- ---- ---- ------- ----- ---- -------<br>--- --- -- ----- -- --- ---- -- --- ---- -- ------ ------<br>--- ----- -- ----,55947.10000000149,55946.400000002235,55483.224,55491.5,55499.894,55950.044,,17,your
screen,html.Screen,0_2_0_1_18,2021-12-02T13:12:39.603Z,,,,,,,,,,,,,,,,53,,,,,,,,,,,,,,388.3560000022335,,response,,,99,,,,,,Space,keypress(Space),,,,,---- -- ----- -- ------ - ------- --- ----------<br>------------- ------ ------ ---- ---- ------- ----- -- ----<br>romantic ------- -- ---------- --- - --- ----- ----- ----<br>---- --- --- ----- --- ---- ---- ------- ----- ---- -------<br>--- --- -- ----- -- --- ---- -- --- ---- -- ------ ------<br>--- ----- -- ----,56339.20000000298,56338.400000002235,55933.373,55947.400000002235,55950.044,56350.129,,18,romantic
screen,html.Screen,0_2_0_1_19,2021-12-02T13:12:40.027Z,,,,,,,,,,,,,,,,53,,,,,,,,,,,,,,412.27100000223436,,response,,,99,,,,,,Space,keypress(Space),,,,,---- -- ----- -- ------ - ------- --- ----------<br>------------- ------ ------ ---- ---- ------- ----- -- ----<br>-------- partner -- ---------- --- - --- ----- ----- ----<br>---- --- --- ----- --- ---- ---- ------- ----- ---- -------<br>--- --- -- ----- -- --- ---- -- --- ---- -- ------ ------<br>--- ----- -- ----,56763.20000000298,56762.400000002235,56333.459,56339.400000002235,56350.129,56766.904,,19,partner
screen,html.Screen,0_2_0_1_20,2021-12-02T13:12:40.467Z,,,,,,,,,,,,,,,,53,,,,,,,,,,,,,,435.4960000022329,,response,,,99,,,,,,Space,keypress(Space),,,,,---- -- ----- -- ------ - ------- --- ----------<br>------------- ------ ------ ---- ---- ------- ----- -- ----<br>-------- ------- is ---------- --- - --- ----- ----- ----<br>---- --- --- ----- --- ---- ---- ------- ----- ---- -------<br>--- --- -- ----- -- --- ---- -- --- ---- -- ------ ------<br>--- ----- -- ----,57203.300000000745,57202.400000002235,56750.234,56763.400000002235,56766.904,57217.023,,20,is
screen,html.Screen,0_2_0_1_21,2021-12-02T13:12:40.827Z,,,,,,,,,,,,,,,,53,,,,,,,,,,,,,,345.47699999999895,,response,,,99,,,,,,Space,keypress(Space),,,,,---- -- ----- -- ------ - ------- --- ----------<br>------------- ------ ------ ---- ---- ------- ----- -- ----<br>-------- ------- -- paramount. --- - --- ----- ----- ----<br>---- --- --- ----- --- ---- ---- ------- ----- ---- -------<br>--- --- -- ----- -- --- ---- -- --- ---- -- ------ ------<br>--- ----- -- ----,57563.300000000745,57562.5,57200.353,57203.400000002235,57217.023,57566.96,,21,paramount.
screen,html.Screen,0_2_0_1_22,2021-12-02T13:12:41.219Z,,,,,,,,,,,,,,,,53,,,,,,,,,,,,,,387.44000000223605,,response,,,99,,,,,,Space,keypress(Space),,,,,---- -- ----- -- ------ - ------- --- ----------<br>------------- ------ ------ ---- ---- ------- ----- -- ----<br>-------- ------- -- ---------- But - --- ----- ----- ----<br>---- --- --- ----- --- ---- ---- ------- ----- ---- -------<br>--- --- -- ----- -- --- ---- -- --- ---- -- ------ ------<br>--- ----- -- ----,57955.20000000298,57954.400000002235,57550.292,57563.70000000298,57566.96,57967.342,,22,But
screen,html.Screen,0_2_0_1_23,2021-12-02T13:12:41.691Z,,,,,,,,,,,,,,,,53,,,,,,,,,,,,,,458.95800000074814,,response,,,99,,,,,,Space,keypress(Space),,,,,---- -- ----- -- ------ - ------- --- ----------<br>------------- ------ ------ ---- ---- ------- ----- -- ----<br>-------- ------- -- ---------- --- a --- ----- ----- ----<br>---- --- --- ----- --- ---- ---- ------- ----- ---- -------<br>--- --- -- ----- -- --- ---- -- --- ---- -- ------ ------<br>--- ----- -- ----,58427.20000000298,58426.300000000745,57950.669,57955.400000002235,57967.342,58434.008,,23,a
screen,html.Screen,0_2_0_1_24,2021-12-02T13:12:42.115Z,,,,,,,,,,,,,,,,53,,,,,,,,,,,,,,416.7920000007434,,response,,,99,,,,,,Space,keypress(Space),,,,,---- -- ----- -- ------ - ------- --- ----------<br>------------- ------ ------ ---- ---- ------- ----- -- ----<br>-------- ------- -- ---------- --- - new ----- ----- ----<br>---- --- --- ----- --- ---- ---- ------- ----- ---- -------<br>--- --- -- ----- -- --- ---- -- --- ---- -- ------ ------<br>--- ----- -- ----,58851.60000000149,58850.800000000745,58417.338,58427.400000002235,58434.008,58867.348,,24,new
screen,html.Screen,0_2_0_1_25,2021-12-02T13:12:42.443Z,,,,,,,,,,,,,,,,53,,,,,,,,,,,,,,311.05200000223704,,response,,,99,,,,,,Space,keypress(Space),,,,,---- -- ----- -- ------ - ------- --- ----------<br>------------- ------ ------ ---- ---- ------- ----- -- ----<br>-------- ------- -- ---------- --- - --- study ----- ----<br>---- --- --- ----- --- ---- ---- ------- ----- ---- -------<br>--- --- -- ----- -- --- ---- -- --- ---- -- ------ ------<br>--- ----- -- ----,59179.20000000298,59178.400000002235,58850.679,58851.900000002235,58867.348,59184.285,,25,study
screen,html.Screen,0_2_0_1_26,2021-12-02T13:12:42.771Z,,,,,,,,,,,,,,,,53,,,,,,,,,,,,,,322.01500000074157,,response,,,99,,,,,,Space,keypress(Space),,,,,---- -- ----- -- ------ - ------- --- ----------<br>------------- ------ ------ ---- ---- ------- ----- -- ----<br>-------- ------- -- ---------- --- - --- ----- finds ----<br>---- --- --- ----- --- ---- ---- ------- ----- ---- -------<br>--- --- -- ----- -- --- ---- -- --- ---- -- ------ ------<br>--- ----- -- ----,59507.20000000298,59506.300000000745,59167.613,59179.400000002235,59184.285,59517.605,,26,finds
screen,html.Screen,0_2_0_1_27,2021-12-02T13:12:43.179Z,,,,,,,,,,,,,,,,53,,,,,,,,,,,,,,396.69500000074186,,response,,,99,,,,,,Space,keypress(Space),,,,,---- -- ----- -- ------ - ------- --- ----------<br>------------- ------ ------ ---- ---- ------- ----- -- ----<br>-------- ------- -- ---------- --- - --- ----- ----- that<br>---- --- --- ----- --- ---- ---- ------- ----- ---- -------<br>--- --- -- ----- -- --- ---- -- --- ---- -- ------ ------<br>--- ----- -- ----,59915.10000000149,59914.300000000745,59500.935,59507.400000002235,59517.605,59917.772,,27,that
screen,html.Screen,0_2_0_1_28,2021-12-02T13:12:43.566Z,,,,,,,,,,,,,,,,53,,,,,,,,,,,,,,380.52800000074785,,response,,,99,,,,,,Space,keypress(Space),,,,,---- -- ----- -- ------ - ------- --- ----------<br>------------- ------ ------ ---- ---- ------- ----- -- ----<br>-------- ------- -- ---------- --- - --- ----- ----- ----<br>it's --- --- ----- --- ---- ---- ------- ----- ---- -------<br>--- --- -- ----- -- --- ---- -- --- ---- -- ------ ------<br>--- ----- -- ----,60299.10000000149,60298.300000000745,59901.101,59915.400000002235,59917.772,60301.175,,28,it's
screen,html.Screen,0_2_0_1_29,2021-12-02T13:12:44.014Z,,,,,,,,,,,,,,,,53,,,,,,,,,,,,,,445.12500000074215,,response,,,99,,,,,,Space,keypress(Space),,,,,---- -- ----- -- ------ - ------- --- ----------<br>------------- ------ ------ ---- ---- ------- ----- -- ----<br>-------- ------- -- ---------- --- - --- ----- ----- ----<br>---- not --- ----- --- ---- ---- ------- ----- ---- -------<br>--- --- -- ----- -- --- ---- -- --- ---- -- ------ ------<br>--- ----- -- ----,60747.10000000149,60746.300000000745,60284.505,60299.300000000745,60301.175,60751.278,,29,not
screen,html.Screen,0_2_0_1_30,2021-12-02T13:12:44.390Z,,,,,,,,,,,,,,,,53,,,,,,,,,,,,,,371.02200000074663,,response,,,99,,,,,,Space,keypress(Space),,,,,---- -- ----- -- ------ - ------- --- ----------<br>------------- ------ ------ ---- ---- ------- ----- -- ----<br>-------- ------- -- ---------- --- - --- ----- ----- ----<br>---- --- how ----- --- ---- ---- ------- ----- ---- -------<br>--- --- -- ----- -- --- ---- -- --- ---- -- ------ ------<br>--- ----- -- ----,61123.10000000149,61122.300000000745,60734.608,60747.300000000745,60751.278,61134.763,,30,how
screen,html.Screen,0_2_0_1_31,2021-12-02T13:12:44.774Z,,,,,,,,,,,,,,,,53,,,,,,,,,,,,,,371.4370000029812,,response,,,99,,,,,,Space,keypress(Space),,,,,---- -- ----- -- ------ - ------- --- ----------<br>------------- ------ ------ ---- ---- ------- ----- -- ----<br>-------- ------- -- ---------- --- - --- ----- ----- ----<br>---- --- --- close --- ---- ---- ------- ----- ---- -------<br>--- --- -- ----- -- --- ---- -- --- ---- -- ------ ------<br>--- ----- -- ----,61507,61506.20000000298,61118.092,61123.300000000745,61134.763,61518.157,,31,close
screen,html.Screen,0_2_0_1_32,2021-12-02T13:12:45.126Z,,,,,,,,,,,,,,,,53,,,,,,,,,,,,,,340.043000002981,,response,,,99,,,,,,Space,keypress(Space),,,,,---- -- ----- -- ------ - ------- --- ----------<br>------------- ------ ------ ---- ---- ------- ----- -- ----<br>-------- ------- -- ---------- --- - --- ----- ----- ----<br>---- --- --- ----- you ---- ---- ------- ----- ---- -------<br>--- --- -- ----- -- --- ---- -- --- ---- -- ------ ------<br>--- ----- -- ----,61859,61858.20000000298,61501.487,61507.20000000298,61518.157,61868.258,,32,you
screen,html.Screen,0_2_0_1_33,2021-12-02T13:12:45.558Z,,,,,,,,,,,,,,,,53,,,,,,,,,,,,,,421.9420000029786,,response,,,99,,,,,,Space,keypress(Space),,,,,---- -- ----- -- ------ - ------- --- ----------<br>------------- ------ ------ ---- ---- ------- ----- -- ----<br>-------- ------- -- ---------- --- - --- ----- ----- ----<br>---- --- --- ----- --- feel ---- ------- ----- ---- -------<br>--- --- -- ----- -- --- ---- -- --- ---- -- ------ ------<br>--- ----- -- ----,62291,62290.20000000298,61851.588,61859.20000000298,61868.258,62301.743,,33,feel
screen,html.Screen,0_2_0_1_34,2021-12-02T13:12:45.998Z,,,,,,,,,,,,,,,,53,,,,,,,,,,,,,,428.55700000074285,,response,,,99,,,,,,Space,keypress(Space),,,,,---- -- ----- -- ------ - ------- --- ----------<br>------------- ------ ------ ---- ---- ------- ----- -- ----<br>-------- ------- -- ---------- --- - --- ----- ----- ----<br>---- --- --- ----- --- ---- that ------- ----- ---- -------<br>--- --- -- ----- -- --- ---- -- --- ---- -- ------ ------<br>--- ----- -- ----,62731,62730.300000000745,62285.072,62291.300000000745,62301.743,62735.015,,34,that
screen,html.Screen,0_2_0_1_35,2021-12-02T13:12:46.358Z,,,,,,,,,,,,,,,,53,,,,,,,,,,,,,,355.1850000029808,,response,,,99,,,,,,Space,keypress(Space),,,,,---- -- ----- -- ------ - ------- --- ----------<br>------------- ------ ------ ---- ---- ------- ----- -- ----<br>-------- ------- -- ---------- --- - --- ----- ----- ----<br>---- --- --- ----- --- ---- ---- matters ----- ---- -------<br>--- --- -- ----- -- --- ---- -- --- ---- -- ------ ------<br>--- ----- -- ----,63091,63090.20000000298,62718.347,62731.300000000745,62735.015,63102.004,,35,matters
screen,html.Screen,0_2_0_1_36,2021-12-02T13:12:46.726Z,,,,,,,,,,,,,,,,53,,,,,,,,,,,,,,356.0960000014893,,response,,,99,,,,,,Space,keypress(Space),,,,,"---- -- ----- -- ------ - ------- --- ----------<br>------------- ------ ------ ---- ---- ------- ----- -- ----<br>-------- ------- -- ---------- --- - --- ----- ----- ----<br>---- --- --- ----- --- ---- ---- ------- most, ---- -------<br>--- --- -- ----- -- --- ---- -- --- ---- -- ------ ------<br>--- ----- -- ----",63459.20000000298,63458.10000000149,63085.332,63091.20000000298,63102.004,63468.721,,36,"most,"
screen,html.Screen,0_2_0_1_37,2021-12-02T13:12:47.110Z,,,,,,,,,,,,,,,,53,,,,,,,,,,,,,,373.4790000029825,,response,,,99,,,,,,Space,keypress(Space),,,,,---- -- ----- -- ------ - ------- --- ----------<br>------------- ------ ------ ---- ---- ------- ----- -- ----<br>-------- ------- -- ---------- --- - --- ----- ----- ----<br>---- --- --- ----- --- ---- ---- ------- ----- it's -------<br>--- --- -- ----- -- --- ---- -- --- ---- -- ------ ------<br>--- ----- -- ----,63842.900000002235,63842.20000000298,63452.05,63459.5,63468.721,63851.957,,37,it's
screen,html.Screen,0_2_0_1_38,2021-12-02T13:12:47.502Z,,,,,,,,,,,,,,,,53,,,,,,,,,,,,,,382.14300000148796,,response,,,99,,,,,,Space,keypress(Space),,,,,---- -- ----- -- ------ - ------- --- ----------<br>------------- ------ ------ ---- ---- ------- ----- -- ----<br>-------- ------- -- ---------- --- - --- ----- ----- ----<br>---- --- --- ----- --- ---- ---- ------- ----- ---- whether<br>--- --- -- ----- -- --- ---- -- --- ---- -- ------ ------<br>--- ----- -- ----,64234.900000002235,64234.10000000149,63835.289,63843.20000000298,63851.957,64252.342,,38,whether
screen,html.Screen,0_2_0_1_39,2021-12-02T13:12:47.894Z,,,,,,,,,,,,,,,,53,,,,,,,,,,,,,,373.7580000014932,,response,,,99,,,,,,Space,keypress(Space),,,,,---- -- ----- -- ------ - ------- --- ----------<br>------------- ------ ------ ---- ---- ------- ----- -- ----<br>-------- ------- -- ---------- --- - --- ----- ----- ----<br>---- --- --- ----- --- ---- ---- ------- ----- ---- -------<br>you --- -- ----- -- --- ---- -- --- ---- -- ------ ------<br>--- ----- -- ----,64627,64626.10000000149,64235.669,64235.20000000298,64252.342,64635.666,,39,you
screen,html.Screen,0_2_0_1_40,2021-12-02T13:12:48.237Z,,,,,,,,,,,,,,,,53,,,,,,,,,,,,,,334.4340000014927,,response,,,99,,,,,,Space,keypress(Space),,,,,---- -- ----- -- ------ - ------- --- ----------<br>------------- ------ ------ ---- ---- ------- ----- -- ----<br>-------- ------- -- ---------- --- - --- ----- ----- ----<br>---- --- --- ----- --- ---- ---- ------- ----- ---- -------<br>--- are -- ----- -- --- ---- -- --- ---- -- ------ ------<br>--- ----- -- ----,64970.800000000745,64970.10000000149,64618.996,64627.20000000298,64635.666,64985.6,,40,are
screen,html.Screen,0_2_0_1_41,2021-12-02T13:12:48.597Z,,,,,,,,,,,,,,,,53,,,,,,,,,,,,,,344.50000000149157,,response,,,99,,,,,,Space,keypress(Space),,,,,---- -- ----- -- ------ - ------- --- ----------<br>------------- ------ ------ ---- ---- ------- ----- -- ----<br>-------- ------- -- ---------- --- - --- ----- ----- ----<br>---- --- --- ----- --- ---- ---- ------- ----- ---- -------<br>--- --- as ----- -- --- ---- -- --- ---- -- ------ ------<br>--- ----- -- ----,65330.900000002235,65330.10000000149,64968.932,64971.10000000149,64985.6,65335.804,,41,as
screen,html.Screen,0_2_0_1_42,2021-12-02T13:12:48.981Z,,,,,,,,,,,,,,,,53,,,,,,,,,,,,,,378.19600000000355,,response,,,99,,,,,,Space,keypress(Space),,,,,---- -- ----- -- ------ - ------- --- ----------<br>------------- ------ ------ ---- ---- ------- ----- -- ----<br>-------- ------- -- ---------- --- - --- ----- ----- ----<br>---- --- --- ----- --- ---- ---- ------- ----- ---- -------<br>--- --- -- close -- --- ---- -- --- ---- -- ------ ------<br>--- ----- -- ----,65714.80000000075,65714,65319.134,65331,65335.804,65719.406,,42,close
screen,html.Screen,0_2_0_1_43,2021-12-02T13:12:49.301Z,,,,,,,,,,,,,,,,53,,,,,,,,,,,,,,314.5939999999973,,response,,,99,,,,,,Space,keypress(Space),,,,,---- -- ----- -- ------ - ------- --- ----------<br>------------- ------ ------ ---- ---- ------- ----- -- ----<br>-------- ------- -- ---------- --- - --- ----- ----- ----<br>---- --- --- ----- --- ---- ---- ------- ----- ---- -------<br>--- --- -- ----- as --- ---- -- --- ---- -- ------ ------<br>--- ----- -- ----,66034.80000000075,66034,65702.733,65715.10000000149,65719.406,66036.032,,43,as
screen,html.Screen,0_2_0_1_44,2021-12-02T13:12:49.629Z,,,,,,,,,,,,,,,,53,,,,,,,,,,,,,,325.9679999999935,,response,,,99,,,,,,Space,keypress(Space),,,,,---- -- ----- -- ------ - ------- --- ----------<br>------------- ------ ------ ---- ---- ------- ----- -- ----<br>-------- ------- -- ---------- --- - --- ----- ----- ----<br>---- --- --- ----- --- ---- ---- ------- ----- ---- -------<br>--- --- -- ----- -- you ---- -- --- ---- -- ------ ------<br>--- ----- -- ----,66362.70000000298,66362,66019.362,66035.10000000149,66036.032,66369.46,,44,you
screen,html.Screen,0_2_0_1_45,2021-12-02T13:12:50.021Z,,,,,,,,,,,,,,,,53,,,,,,,,,,,,,,384.5399999999936,,response,,,99,,,,,,Space,keypress(Space),,,,,---- -- ----- -- ------ - ------- --- ----------<br>------------- ------ ------ ---- ---- ------- ----- -- ----<br>-------- ------- -- ---------- --- - --- ----- ----- ----<br>---- --- --- ----- --- ---- ---- ------- ----- ---- -------<br>--- --- -- ----- -- --- want -- --- ---- -- ------ ------<br>--- ----- -- ----,66754.80000000075,66754,66352.79,66363,66369.46,66769.565,,45,want
screen,html.Screen,0_2_0_1_46,2021-12-02T13:12:50.333Z,,,,,,,,,,,,,,,,53,,,,,,,,,,,,,,296.4349999999977,,response,,,99,,,,,,Space,keypress(Space),,,,,---- -- ----- -- ------ - ------- --- ----------<br>------------- ------ ------ ---- ---- ------- ----- -- ----<br>-------- ------- -- ---------- --- - --- ----- ----- ----<br>---- --- --- ----- --- ---- ---- ------- ----- ---- -------<br>--- --- -- ----- -- --- ---- to --- ---- -- ------ ------<br>--- ----- -- ----,67066.70000000298,67066,66752.895,66755.10000000149,66769.565,67069.628,,46,to
screen,html.Screen,0_2_0_1_47,2021-12-02T13:12:50.717Z,,,,,,,,,,,,,,,,53,,,,,,,,,,,,,,380.372000000003,,response,,,99,,,,,,Space,keypress(Space),,,,,"---- -- ----- -- ------ - ------- --- ----------<br>------------- ------ ------ ---- ---- ------- ----- -- ----<br>-------- ------- -- ---------- --- - --- ----- ----- ----<br>---- --- --- ----- --- ---- ---- ------- ----- ---- -------<br>--- --- -- ----- -- --- ---- -- be, ---- -- ------ ------<br>--- ----- -- ----",67450.70000000298,67450,67052.958,67067,67069.628,67453.076,,47,"be,"
screen,html.Screen,0_2_0_1_48,2021-12-02T13:12:51.037Z,,,,,,,,,,,,,,,,53,,,,,,,,,,,,,,316.82400000223424,,response,,,99,,,,,,Space,keypress(Space),,,,,---- -- ----- -- ------ - ------- --- ----------<br>------------- ------ ------ ---- ---- ------- ----- -- ----<br>-------- ------- -- ---------- --- - --- ----- ----- ----<br>---- --- --- ----- --- ---- ---- ------- ----- ---- -------<br>--- --- -- ----- -- --- ---- -- --- even -- ------ ------<br>--- ----- -- ----,67770.70000000298,67769.90000000224,67436.406,67451,67453.076,67786.413,,48,even
screen,html.Screen,0_2_0_1_49,2021-12-02T13:12:51.381Z,,,,,,,,,,,,,,,,53,,,,,,,,,,,,,,327.4870000022347,,response,,,99,,,,,,Space,keypress(Space),,,,,---- -- ----- -- ------ - ------- --- ----------<br>------------- ------ ------ ---- ---- ------- ----- -- ----<br>-------- ------- -- ---------- --- - --- ----- ----- ----<br>---- --- --- ----- --- ---- ---- ------- ----- ---- -------<br>--- --- -- ----- -- --- ---- -- --- ---- if ------ ------<br>--- ----- -- ----,68114.60000000149,68113.90000000224,67769.744,67770.90000000224,67786.413,68119.991,,49,if
screen,html.Screen,0_2_0_1_50,2021-12-02T13:12:51.733Z,,,,,,,,,,,,,,,,53,,,,,,,,,,,,,,345.90900000224065,,response,,,99,,,,,,Space,keypress(Space),,,,,---- -- ----- -- ------ - ------- --- ----------<br>------------- ------ ------ ---- ---- ------- ----- -- ----<br>-------- ------- -- ---------- --- - --- ----- ----- ----<br>---- --- --- ----- --- ---- ---- ------- ----- ---- -------<br>--- --- -- ----- -- --- ---- -- --- ---- -- that's ------<br>--- ----- -- ----,68466.70000000298,68465.90000000224,68103.319,68114.80000000075,68119.991,68470.018,,50,that's
screen,html.Screen,0_2_0_1_51,2021-12-02T13:12:52.101Z,,,,,,,,,,,,,,,,53,,,,,,,,,,,,,,363.8820000022388,,response,,,99,,,,,,Space,keypress(Space),,,,,---- -- ----- -- ------ - ------- --- ----------<br>------------- ------ ------ ---- ---- ------- ----- -- ----<br>-------- ------- -- ---------- --- - --- ----- ----- ----<br>---- --- --- ----- --- ---- ---- ------- ----- ---- -------<br>--- --- -- ----- -- --- ---- -- --- ---- -- ------ really<br>--- ----- -- ----,68834.70000000298,68833.90000000224,68453.348,68466.90000000224,68470.018,68836.779,,51,really
screen,html.Screen,0_2_0_1_52,2021-12-02T13:12:52.486Z,,,,,,,,,,,,,,,,53,,,,,,,,,,,,,,381.42100000298524,,response,,,99,,,,,,Space,keypress(Space),,,,,---- -- ----- -- ------ - ------- --- ----------<br>------------- ------ ------ ---- ---- ------- ----- -- ----<br>-------- ------- -- ---------- --- - --- ----- ----- ----<br>---- --- --- ----- --- ---- ---- ------- ----- ---- -------<br>--- --- -- ----- -- --- ---- -- --- ---- -- ------ ------<br>not ----- -- ----,69219,69218.20000000298,68820.109,68834.90000000224,68836.779,69220.213,,52,not
screen,html.Screen,0_2_0_1_53,2021-12-02T13:12:52.893Z,,,,,,,,,,,,,,,,53,,,,,,,,,,,,,,405.2869999999966,,response,,,99,,,,,,Space,keypress(Space),,,,,---- -- ----- -- ------ - ------- --- ----------<br>------------- ------ ------ ---- ---- ------- ----- -- ----<br>-------- ------- -- ---------- --- - --- ----- ----- ----<br>---- --- --- ----- --- ---- ---- ------- ----- ---- -------<br>--- --- -- ----- -- --- ---- -- --- ---- -- ------ ------<br>--- close -- ----,69625.90000000224,69625.5,69203.543,69219.20000000298,69220.213,69636.961,,53,close
screen,html.Screen,0_2_0_1_54,2021-12-02T13:12:53.309Z,,,,,,,,,,,,,,,,53,,,,,,,,,,,,,,404.83900000074937,,response,,,99,,,,,,Space,keypress(Space),,,,,---- -- ----- -- ------ - ------- --- ----------<br>------------- ------ ------ ---- ---- ------- ----- -- ----<br>-------- ------- -- ---------- --- - --- ----- ----- ----<br>---- --- --- ----- --- ---- ---- ------- ----- ---- -------<br>--- --- -- ----- -- --- ---- -- --- ---- -- ------ ------<br>--- ----- at ----,70042.60000000149,70041.80000000075,69620.291,69626,69636.961,70053.804,,54,at
screen,html.Screen,0_2_0_1_55,2021-12-02T13:12:53.621Z,,,,,,,,,,,,,,,,53,,,,,,,,,,,,,,300.1959999999963,,response,,,99,,,,,,Space,keypress(Space),,,,,---- -- ----- -- ------ - ------- --- ----------<br>------------- ------ ------ ---- ---- ------- ----- -- ----<br>-------- ------- -- ---------- --- - --- ----- ----- ----<br>---- --- --- ----- --- ---- ---- ------- ----- ---- -------<br>--- --- -- ----- -- --- ---- -- --- ---- -- ------ ------<br>--- ----- -- all.,70354.70000000298,70354,70037.133,70042.80000000075,70053.804,70370.516,,55,all.
Item 99,flow.Loop,0_2_0_1,2021-12-02T13:12:53.626Z,,,,,,,,,,,,,,,,,,,,,,,,,,,,,,23006.43,,completion,,,,C,,,,,,,,,,silence,,70359.20000000298,70354,47330.9,47337.60000000149,47347.57,70370.516,,,
Question 1,html.Screen,0_2_0_2,2021-12-02T13:13:00.725Z,,,,,,,,,,,,,,,,,,,,,,,,,,,true,FALSE,,7086.784000000742,,response,,,99,C,,,,,FALSE,click #choice-2,,,,silence,,77458.80000000075,77457.30000000075,70353.846,70359.5,70370.516,77472.4,,,
Question 2,html.Screen,0_2_0_3,2021-12-02T13:13:05.269Z,,,,,,,,,,,,,,,,,,,,,,,,,,,true,TRUE,,4528.600000000006,,response,,,99,C,,,,,TRUE,click #choice-1,,,,silence,,82002.20000000298,82001,77455.73,77459.10000000149,77472.4,82007.051,,,
Item 99,flow.Sequence,0_2_0,2021-12-02T13:13:05.269Z,,,,,,,,,,,,,,,,,,,,,,,,,,,,,,44656.089,,completion,,,,,,,,,,,,,,,,82002.60000000149,82001,37328.241,37341.5,37344.911,82007.051,,,
Holding screen,html.Screen,0_2_1_0,2021-12-02T13:13:15.261Z,,,,,,,,,,,,,,,,,,,,,,,,,,,,,,10002.270999999993,,timeout,,,,,,,,,,,,,,,,91994,91992.653,81990.379,82003,82007.051,92009.322,,,
screen,html.Screen,0_2_1_1_0,2021-12-02T13:13:16.405Z,,,,,,,,,,,,,,,,54,,,,,,,,,,,,,,1127.8780000029801,,response,,,100,,,,,,Space,keypress(Space),,,,,At --- ---- --- ------ ----- ------- ---- -- --- ------- --<br>------- ---------- ------ -- ----- -- ----- -- ---- ------<br>--- ----- --- --- ------ -------- ----- --- ------ ----- --<br>----- ----- ---------- --- --- ------ ------ ---- -- ------<br>------- --- ------ ----- --- ---- ------- -- ---- --- --<br>------- ------,93138.10000000149,93137.20000000298,91992.653,91994.40000000224,92009.322,93143.3,,0,At
screen,html.Screen,0_2_1_1_1,2021-12-02T13:13:16.772Z,,,,,,,,,,,,,,,,54,,,,,,,,,,,,,,361.6999999999971,,response,,,100,,,,,,Space,keypress(Space),,,,,-- the ---- --- ------ ----- ------- ---- -- --- ------- --<br>------- ---------- ------ -- ----- -- ----- -- ---- ------<br>--- ----- --- --- ------ -------- ----- --- ------ ----- --<br>----- ----- ---------- --- --- ------ ------ ---- -- ------<br>------- --- ------ ----- --- ---- ------- -- ---- --- --<br>------- ------,93505.70000000298,93505,93126.629,93138.30000000075,93143.3,93509.996,,1,the
screen,html.Screen,0_2_1_1_2,2021-12-02T13:13:17.108Z,,,,,,,,,,,,,,,,54,,,,,,,,,,,,,,330.70400000298105,,response,,,100,,,,,,Space,keypress(Space),,,,,-- --- time --- ------ ----- ------- ---- -- --- ------- --<br>------- ---------- ------ -- ----- -- ----- -- ---- ------<br>--- ----- --- --- ------ -------- ----- --- ------ ----- --<br>----- ----- ---------- --- --- ------ ------ ---- -- ------<br>------- --- ------ ----- --- ---- ------- -- ---- --- --<br>------- ------,93841.60000000149,93840.70000000298,93493.326,93506,93509.996,93843.436,,2,time
screen,html.Screen,0_2_1_1_3,2021-12-02T13:13:17.580Z,,,,,,,,,,,,,,,,54,,,,,,,,,,,,,,469.2640000029787,,response,,,100,,,,,,Space,keypress(Space),,,,,-- --- ---- the ------ ----- ------- ---- -- --- ------- --<br>------- ---------- ------ -- ----- -- ----- -- ---- ------<br>--- ----- --- --- ------ -------- ----- --- ------ ----- --<br>----- ----- ---------- --- --- ------ ------ ---- -- ------<br>------- --- ------ ----- --- ---- ------- -- ---- --- --<br>------- ------,94313.5,94312.70000000298,93826.766,93841.80000000075,93843.436,94326.855,,3,the
screen,html.Screen,0_2_1_1_4,2021-12-02T13:13:17.996Z,,,,,,,,,,,,,,,,54,,,,,,,,,,,,,,401.8450000029843,,response,,,100,,,,,,Space,keypress(Space),,,,,-- --- ---- --- French ----- ------- ---- -- --- ------- --<br>------- ---------- ------ -- ----- -- ----- -- ---- ------<br>--- ----- --- --- ------ -------- ----- --- ------ ----- --<br>----- ----- ---------- --- --- ------ ------ ---- -- ------<br>------- --- ------ ----- --- ---- ------- -- ---- --- --<br>------- ------,94729.5,94728.70000000298,94310.185,94313.70000000298,94326.855,94743.717,,4,French
screen,html.Screen,0_2_1_1_5,2021-12-02T13:13:18.412Z,,,,,,,,,,,,,,,,54,,,,,,,,,,,,,,400.7829999999958,,response,,,100,,,,,,Space,keypress(Space),,,,,-- --- ---- --- ------ crown ------- ---- -- --- ------- --<br>------- ---------- ------ -- ----- -- ----- -- ---- ------<br>--- ----- --- --- ------ -------- ----- --- ------ ----- --<br>----- ----- ---------- --- --- ------ ------ ---- -- ------<br>------- --- ------ ----- --- ---- ------- -- ---- --- --<br>------- ------,95145.60000000149,95144.5,94727.046,94729.70000000298,94743.717,95160.293,,5,crown
screen,html.Screen,0_2_1_1_6,2021-12-02T13:13:18.860Z,,,,,,,,,,,,,,,,54,,,,,,,,,,,,,,432.4070000029751,,response,,,100,,,,,,Space,keypress(Space),,,,,-- --- ---- --- ------ ----- secured ---- -- --- ------- --<br>------- ---------- ------ -- ----- -- ----- -- ---- ------<br>--- ----- --- --- ------ -------- ----- --- ------ ----- --<br>----- ----- ---------- --- --- ------ ------ ---- -- ------<br>------- --- ------ ----- --- ---- ------- -- ---- --- --<br>------- ------,95593.30000000075,95592.70000000298,95143.625,95145.70000000298,95160.293,95610.566,,6,secured
screen,html.Screen,0_2_1_1_7,2021-12-02T13:13:19.252Z,,,,,,,,,,,,,,,,54,,,,,,,,,,,,,,374.03400000148395,,response,,,100,,,,,,Space,keypress(Space),,,,,-- --- ---- --- ------ ----- ------- much -- --- ------- --<br>------- ---------- ------ -- ----- -- ----- -- ---- ------<br>--- ----- --- --- ------ -------- ----- --- ------ ----- --<br>----- ----- ---------- --- --- ------ ------ ---- -- ------<br>------- --- ------ ----- --- ---- ------- -- ---- --- --<br>------- ------,95985.40000000224,95984.60000000149,95593.895,95593.5,95610.566,95993.866,,7,much
screen,html.Screen,0_2_1_1_8,2021-12-02T13:13:19.636Z,,,,,,,,,,,,,,,,54,,,,,,,,,,,,,,374.7340000014956,,response,,,100,,,,,,Space,keypress(Space),,,,,-- --- ---- --- ------ ----- ------- ---- of --- ------- --<br>------- ---------- ------ -- ----- -- ----- -- ---- ------<br>--- ----- --- --- ------ -------- ----- --- ------ ----- --<br>----- ----- ---------- --- --- ------ ------ ---- -- ------<br>------- --- ------ ----- --- ---- ------- -- ---- --- --<br>------- ------,96369.40000000224,96368.60000000149,95977.197,95985.70000000298,95993.866,96377.537,,8,of
screen,html.Screen,0_2_1_1_9,2021-12-02T13:13:19.980Z,,,,,,,,,,,,,,,,54,,,,,,,,,,,,,,335.1630000029836,,response,,,100,,,,,,Space,keypress(Space),,,,,-- --- ---- --- ------ ----- ------- ---- -- its ------- --<br>------- ---------- ------ -- ----- -- ----- -- ---- ------<br>--- ----- --- --- ------ -------- ----- --- ------ ----- --<br>----- ----- ---------- --- --- ------ ------ ---- -- ------<br>------- --- ------ ----- --- ---- ------- -- ---- --- --<br>------- ------,96713.30000000075,96712.70000000298,96360.864,96369.70000000298,96377.537,96727.418,,9,its
screen,html.Screen,0_2_1_1_10,2021-12-02T13:13:20.324Z,,,,,,,,,,,,,,,,54,,,,,,,,,,,,,,329.0819999999949,,response,,,100,,,,,,Space,keypress(Space),,,,,-- --- ---- --- ------ ----- ------- ---- -- --- revenue --<br>------- ---------- ------ -- ----- -- ----- -- ---- ------<br>--- ----- --- --- ------ -------- ----- --- ------ ----- --<br>----- ----- ---------- --- --- ------ ------ ---- -- ------<br>------- --- ------ ----- --- ---- ------- -- ---- --- --<br>------- ------,97057.40000000224,97056.5,96710.749,96713.60000000149,96727.418,97061.018,,10,revenue
screen,html.Screen,0_2_1_1_11,2021-12-02T13:13:21.060Z,,,,,,,,,,,,,,,,54,,,,,,,,,,,,,,731.5820000014937,,response,,,100,,,,,,Space,keypress(Space),,,,,-- --- ---- --- ------ ----- ------- ---- -- --- ------- by<br>------- ---------- ------ -- ----- -- ----- -- ---- ------<br>--- ----- --- --- ------ -------- ----- --- ------ ----- --<br>----- ----- ---------- --- --- ------ ------ ---- -- ------<br>------- --- ------ ----- --- ---- ------- -- ---- --- --<br>------- ------,97793.20000000298,97792.60000000149,97044.346,97057.70000000298,97061.018,97794.504,,11,by
screen,html.Screen,0_2_1_1_12,2021-12-02T13:13:21.524Z,,,,,,,,,,,,,,,,54,,,,,,,,,,,,,,461.9959999999992,,response,,,100,,,,,,Space,keypress(Space),,,,,-- --- ---- --- ------ ----- ------- ---- -- --- ------- --<br>issuing ---------- ------ -- ----- -- ----- -- ---- ------<br>--- ----- --- --- ------ -------- ----- --- ------ ----- --<br>----- ----- ---------- --- --- ------ ------ ---- -- ------<br>------- --- ------ ----- --- ---- ------- -- ---- --- --<br>------- ------,98257.30000000075,98256.5,97777.833,97793.5,97794.504,98261.059,,12,issuing
screen,html.Screen,0_2_1_1_13,2021-12-02T13:13:21.964Z,,,,,,,,,,,,,,,,54,,,,,,,,,,,,,,435.5410000014963,,response,,,100,,,,,,Space,keypress(Space),,,,,-- --- ---- --- ------ ----- ------- ---- -- --- ------- --<br>------- government ------ -- ----- -- ----- -- ---- ------<br>--- ----- --- --- ------ -------- ----- --- ------ ----- --<br>----- ----- ---------- --- --- ------ ------ ---- -- ------<br>------- --- ------ ----- --- ---- ------- -- ---- --- --<br>------- ------,98697.30000000075,98696.60000000149,98244.391,98257.60000000149,98261.059,98711.43,,13,government
screen,html.Screen,0_2_1_1_14,2021-12-02T13:13:22.380Z,,,,,,,,,,,,,,,,54,,,,,,,,,,,,,,401.070000000007,,response,,,100,,,,,,Space,keypress(Space),,,,,-- --- ---- --- ------ ----- ------- ---- -- --- ------- --<br>------- ---------- bonds. -- ----- -- ----- -- ---- ------<br>--- ----- --- --- ------ -------- ----- --- ------ ----- --<br>----- ----- ---------- --- --- ------ ------ ---- -- ------<br>------- --- ------ ----- --- ---- ------- -- ---- --- --<br>------- ------,99113.30000000075,99112.5,98694.759,98697.5,98711.43,99128.146,,14,bonds.
screen,html.Screen,0_2_1_1_15,2021-12-02T13:13:22.820Z,,,,,,,,,,,,,,,,54,,,,,,,,,,,,,,424.2540000022418,,response,,,100,,,,,,Space,keypress(Space),,,,,-- --- ---- --- ------ ----- ------- ---- -- --- ------- --<br>------- ---------- ------ In ----- -- ----- -- ---- ------<br>--- ----- --- --- ------ -------- ----- --- ------ ----- --<br>----- ----- ---------- --- --- ------ ------ ---- -- ------<br>------- --- ------ ----- --- ---- ------- -- ---- --- --<br>------- ------,99553.20000000298,99552.40000000224,99111.476,99113.60000000149,99128.146,99561.642,,15,In
screen,html.Screen,0_2_1_1_16,2021-12-02T13:13:23.164Z,,,,,,,,,,,,,,,,54,,,,,,,,,,,,,,334.8579999999929,,response,,,100,,,,,,Space,keypress(Space),,,,,"-- --- ---- --- ------ ----- ------- ---- -- --- ------- --<br>------- ---------- ------ -- 1727, -- ----- -- ---- ------<br>--- ----- --- --- ------ -------- ----- --- ------ ----- --<br>----- ----- ---------- --- --- ------ ------ ---- -- ------<br>------- --- ------ ----- --- ---- ------- -- ---- --- --<br>------- ------",99897.20000000298,99896.5,99544.971,99553.5,99561.642,99911.697,,16,"1727,"
screen,html.Screen,0_2_1_1_17,2021-12-02T13:13:23.596Z,,,,,,,,,,,,,,,,54,,,,,,,,,,,,,,416.70300000223506,,response,,,100,,,,,,Space,keypress(Space),,,,,-- --- ---- --- ------ ----- ------- ---- -- --- ------- --<br>------- ---------- ------ -- ----- in ----- -- ---- ------<br>--- ----- --- --- ------ -------- ----- --- ------ ----- --<br>----- ----- ---------- --- --- ------ ------ ---- -- ------<br>------- --- ------ ----- --- ---- ------- -- ---- --- --<br>------- ------,100329.20000000298,100328.40000000224,99895.027,99897.5,99911.697,100345.145,,17,in
screen,html.Screen,0_2_1_1_18,2021-12-02T13:13:23.996Z,,,,,,,,,,,,,,,,54,,,,,,,,,,,,,,383.2550000022311,,response,,,100,,,,,,Space,keypress(Space),,,,,-- --- ---- --- ------ ----- ------- ---- -- --- ------- --<br>------- ---------- ------ -- ----- -- order -- ---- ------<br>--- ----- --- --- ------ -------- ----- --- ------ ----- --<br>----- ----- ---------- --- --- ------ ------ ---- -- ------<br>------- --- ------ ----- --- ---- ------- -- ---- --- --<br>------- ------,100729.20000000298,100728.40000000224,100328.475,100329.5,100345.145,100745.113,,18,order
screen,html.Screen,0_2_1_1_19,2021-12-02T13:13:24.388Z,,,,,,,,,,,,,,,,54,,,,,,,,,,,,,,375.2870000022376,,response,,,100,,,,,,Space,keypress(Space),,,,,-- --- ---- --- ------ ----- ------- ---- -- --- ------- --<br>------- ---------- ------ -- ----- -- ----- to ---- ------<br>--- ----- --- --- ------ -------- ----- --- ------ ----- --<br>----- ----- ---------- --- --- ------ ------ ---- -- ------<br>------- --- ------ ----- --- ---- ------- -- ---- --- --<br>------- ------,101121.20000000298,101120.40000000224,100728.445,100729.40000000224,100745.113,101128.625,,19,to
screen,html.Screen,0_2_1_1_20,2021-12-02T13:13:24.748Z,,,,,,,,,,,,,,,,54,,,,,,,,,,,,,,351.7750000022352,,response,,,100,,,,,,Space,keypress(Space),,,,,-- --- ---- --- ------ ----- ------- ---- -- --- ------- --<br>------- ---------- ------ -- ----- -- ----- -- save ------<br>--- ----- --- --- ------ -------- ----- --- ------ ----- --<br>----- ----- ---------- --- --- ------ ------ ---- -- ------<br>------- --- ------ ----- --- ---- ------- -- ---- --- --<br>------- ------,101481.10000000149,101480.40000000224,101111.955,101121.40000000224,101128.625,101495.525,,20,save
screen,html.Screen,0_2_1_1_21,2021-12-02T13:13:25.156Z,,,,,,,,,,,,,,,,54,,,,,,,,,,,,,,392.875000002241,,response,,,100,,,,,,Space,keypress(Space),,,,,"-- --- ---- --- ------ ----- ------- ---- -- --- ------- --<br>------- ---------- ------ -- ----- -- ----- -- ---- money,<br>--- ----- --- --- ------ -------- ----- --- ------ ----- --<br>----- ----- ---------- --- --- ------ ------ ---- -- ------<br>------- --- ------ ----- --- ---- ------- -- ---- --- --<br>------- ------",101889.10000000149,101888.40000000224,101478.853,101481.40000000224,101495.525,101895.598,,21,"money,"
screen,html.Screen,0_2_1_1_22,2021-12-02T13:13:25.532Z,,,,,,,,,,,,,,,,54,,,,,,,,,,,,,,368.7020000007469,,response,,,100,,,,,,Space,keypress(Space),,,,,-- --- ---- --- ------ ----- ------- ---- -- --- ------- --<br>------- ---------- ------ -- ----- -- ----- -- ---- ------<br>the ----- --- --- ------ -------- ----- --- ------ ----- --<br>----- ----- ---------- --- --- ------ ------ ---- -- ------<br>------- --- ------ ----- --- ---- ------- -- ---- --- --<br>------- ------,102265.20000000298,102264.30000000075,101878.927,101889.40000000224,101895.598,102278.983,,22,the
screen,html.Screen,0_2_1_1_23,2021-12-02T13:13:25.884Z,,,,,,,,,,,,,,,,54,,,,,,,,,,,,,,337.31700000075216,,response,,,100,,,,,,Space,keypress(Space),,,,,-- --- ---- --- ------ ----- ------- ---- -- --- ------- --<br>------- ---------- ------ -- ----- -- ----- -- ---- ------<br>--- state --- --- ------ -------- ----- --- ------ ----- --<br>----- ----- ---------- --- --- ------ ------ ---- -- ------<br>------- --- ------ ----- --- ---- ------- -- ---- --- --<br>------- ------,102617.10000000149,102616.30000000075,102262.313,102265.40000000224,102278.983,102629.091,,23,state
screen,html.Screen,0_2_1_1_24,2021-12-02T13:13:26.276Z,,,,,,,,,,,,,,,,54,,,,,,,,,,,,,,379.3090000022348,,response,,,100,,,,,,Space,keypress(Space),,,,,-- --- ---- --- ------ ----- ------- ---- -- --- ------- --<br>------- ---------- ------ -- ----- -- ----- -- ---- ------<br>--- ----- cut --- ------ -------- ----- --- ------ ----- --<br>----- ----- ---------- --- --- ------ ------ ---- -- ------<br>------- --- ------ ----- --- ---- ------- -- ---- --- --<br>------- ------,103009.10000000149,103008.40000000224,102612.421,102617.40000000224,102629.091,103012.534,,24,cut
screen,html.Screen,0_2_1_1_25,2021-12-02T13:13:26.676Z,,,,,,,,,,,,,,,,54,,,,,,,,,,,,,,396.1660000029806,,response,,,100,,,,,,Space,keypress(Space),,,,,-- --- ---- --- ------ ----- ------- ---- -- --- ------- --<br>------- ---------- ------ -- ----- -- ----- -- ---- ------<br>--- ----- --- the ------ -------- ----- --- ------ ----- --<br>----- ----- ---------- --- --- ------ ------ ---- -- ------<br>------- --- ------ ----- --- ---- ------- -- ---- --- --<br>------- ------,103409.40000000224,103408.70000000298,102995.864,103009.30000000075,103012.534,103412.627,,25,the
screen,html.Screen,0_2_1_1_26,2021-12-02T13:13:26.996Z,,,,,,,,,,,,,,,,54,,,,,,,,,,,,,,315.6730000007519,,response,,,100,,,,,,Space,keypress(Space),,,,,-- --- ---- --- ------ ----- ------- ---- -- --- ------- --<br>------- ---------- ------ -- ----- -- ----- -- ---- ------<br>--- ----- --- --- bonds' -------- ----- --- ------ ----- --<br>----- ----- ---------- --- --- ------ ------ ---- -- ------<br>------- --- ------ ----- --- ---- ------- -- ---- --- --<br>------- ------,103729,103728.30000000075,103395.957,103409.70000000298,103412.627,103746.051,,26,bonds'
screen,html.Screen,0_2_1_1_27,2021-12-02T13:13:27.404Z,,,,,,,,,,,,,,,,54,,,,,,,,,,,,,,390.1490000029735,,response,,,100,,,,,,Space,keypress(Space),,,,,-- --- ---- --- ------ ----- ------- ---- -- --- ------- --<br>------- ---------- ------ -- ----- -- ----- -- ---- ------<br>--- ----- --- --- ------ interest ----- --- ------ ----- --<br>----- ----- ---------- --- --- ------ ------ ---- -- ------<br>------- --- ------ ----- --- ---- ------- -- ---- --- --<br>------- ------,104137.10000000149,104136.20000000298,103729.381,103729.30000000075,103746.051,104146.156,,27,interest
screen,html.Screen,0_2_1_1_28,2021-12-02T13:13:27.796Z,,,,,,,,,,,,,,,,54,,,,,,,,,,,,,,382.1440000007424,,response,,,100,,,,,,Space,keypress(Space),,,,,-- --- ---- --- ------ ----- ------- ---- -- --- ------- --<br>------- ---------- ------ -- ----- -- ----- -- ---- ------<br>--- ----- --- --- ------ -------- rate. --- ------ ----- --<br>----- ----- ---------- --- --- ------ ------ ---- -- ------<br>------- --- ------ ----- --- ---- ------- -- ---- --- --<br>------- ------,104529.10000000149,104528.30000000075,104129.486,104137.40000000224,104146.156,104546.225,,28,rate.
screen,html.Screen,0_2_1_1_29,2021-12-02T13:13:28.212Z,,,,,,,,,,,,,,,,54,,,,,,,,,,,,,,397.9750000029744,,response,,,100,,,,,,Space,keypress(Space),,,,,-- --- ---- --- ------ ----- ------- ---- -- --- ------- --<br>------- ---------- ------ -- ----- -- ----- -- ---- ------<br>--- ----- --- --- ------ -------- ----- The ------ ----- --<br>----- ----- ---------- --- --- ------ ------ ---- -- ------<br>------- --- ------ ----- --- ---- ------- -- ---- --- --<br>------- ------,104945,104944.20000000298,104529.555,104529.30000000075,104546.225,104946.421,,29,The
screen,html.Screen,0_2_1_1_30,2021-12-02T13:13:28.628Z,,,,,,,,,,,,,,,,54,,,,,,,,,,,,,,413.77900000297814,,response,,,100,,,,,,Space,keypress(Space),,,,,-- --- ---- --- ------ ----- ------- ---- -- --- ------- --<br>------- ---------- ------ -- ----- -- ----- -- ---- ------<br>--- ----- --- --- ------ -------- ----- --- market ----- --<br>----- ----- ---------- --- --- ------ ------ ---- -- ------<br>------- --- ------ ----- --- ---- ------- -- ---- --- --<br>------- ------,105361,105360.20000000298,104929.75,104945.10000000149,104946.421,105363.139,,30,market
screen,html.Screen,0_2_1_1_31,2021-12-02T13:13:29.012Z,,,,,,,,,,,,,,,,54,,,,,,,,,,,,,,380.96100000149454,,response,,,100,,,,,,Space,keypress(Space),,,,,-- --- ---- --- ------ ----- ------- ---- -- --- ------- --<br>------- ---------- ------ -- ----- -- ----- -- ---- ------<br>--- ----- --- --- ------ -------- ----- --- ------ value --<br>----- ----- ---------- --- --- ------ ------ ---- -- ------<br>------- --- ------ ----- --- ---- ------- -- ---- --- --<br>------- ------,105744.90000000224,105744.10000000149,105346.469,105361.20000000298,105363.139,105746.624,,31,value
screen,html.Screen,0_2_1_1_32,2021-12-02T13:13:29.404Z,,,,,,,,,,,,,,,,54,,,,,,,,,,,,,,389.5760000029841,,response,,,100,,,,,,Space,keypress(Space),,,,,-- --- ---- --- ------ ----- ------- ---- -- --- ------- --<br>------- ---------- ------ -- ----- -- ----- -- ---- ------<br>--- ----- --- --- ------ -------- ----- --- ------ ----- of<br>----- ----- ---------- --- --- ------ ------ ---- -- ------<br>------- --- ------ ----- --- ---- ------- -- ---- --- --<br>------- ------,106136.90000000224,106136.20000000298,105729.953,105745.10000000149,105746.624,106146.674,,32,of
screen,html.Screen,0_2_1_1_33,2021-12-02T13:13:29.812Z,,,,,,,,,,,,,,,,54,,,,,,,,,,,,,,397.52600000298116,,response,,,100,,,,,,Space,keypress(Space),,,,,-- --- ---- --- ------ ----- ------- ---- -- --- ------- --<br>------- ---------- ------ -- ----- -- ----- -- ---- ------<br>--- ----- --- --- ------ -------- ----- --- ------ ----- --<br>these ----- ---------- --- --- ------ ------ ---- -- ------<br>------- --- ------ ----- --- ---- ------- -- ---- --- --<br>------- ------,106544.90000000224,106544.20000000298,106130.004,106137.10000000149,106146.674,106546.794,,33,these
screen,html.Screen,0_2_1_1_34,2021-12-02T13:13:30.220Z,,,,,,,,,,,,,,,,54,,,,,,,,,,,,,,405.4060000029858,,response,,,100,,,,,,Space,keypress(Space),,,,,-- --- ---- --- ------ ----- ------- ---- -- --- ------- --<br>------- ---------- ------ -- ----- -- ----- -- ---- ------<br>--- ----- --- --- ------ -------- ----- --- ------ ----- --<br>----- bonds ---------- --- --- ------ ------ ---- -- ------<br>------- --- ------ ----- --- ---- ------- -- ---- --- --<br>------- ------,106953.10000000149,106952.20000000298,106530.124,106545.10000000149,106546.794,106963.491,,34,bonds
screen,html.Screen,0_2_1_1_35,2021-12-02T13:13:30.644Z,,,,,,,,,,,,,,,,54,,,,,,,,,,,,,,412.6090000014956,,response,,,100,,,,,,Space,keypress(Space),,,,,"-- --- ---- --- ------ ----- ------- ---- -- --- ------- --<br>------- ---------- ------ -- ----- -- ----- -- ---- ------<br>--- ----- --- --- ------ -------- ----- --- ------ ----- --<br>----- ----- plummeted, --- --- ------ ------ ---- -- ------<br>------- --- ------ ----- --- ---- ------- -- ---- --- --<br>------- ------",107376.90000000224,107376.10000000149,106946.822,106953.30000000075,106963.491,107380.428,,35,"plummeted,"
screen,html.Screen,0_2_1_1_36,2021-12-02T13:13:31.099Z,,,,,,,,,,,,,,,,54,,,,,,,,,,,,,,451.67200000149023,,response,,,100,,,,,,Space,keypress(Space),,,,,-- --- ---- --- ------ ----- ------- ---- -- --- ------- --<br>------- ---------- ------ -- ----- -- ----- -- ---- ------<br>--- ----- --- --- ------ -------- ----- --- ------ ----- --<br>----- ----- ---------- and --- ------ ------ ---- -- ------<br>------- --- ------ ----- --- ---- ------- -- ---- --- --<br>------- ------,107832.80000000075,107832.10000000149,107363.756,107377.10000000149,107380.428,107847.138,,36,and
screen,html.Screen,0_2_1_1_37,2021-12-02T13:13:31.507Z,,,,,,,,,,,,,,,,54,,,,,,,,,,,,,,392.8619999999937,,response,,,100,,,,,,Space,keypress(Space),,,,,-- --- ---- --- ------ ----- ------- ---- -- --- ------- --<br>------- ---------- ------ -- ----- -- ----- -- ---- ------<br>--- ----- --- --- ------ -------- ----- --- ------ ----- --<br>----- ----- ---------- --- the ------ ------ ---- -- ------<br>------- --- ------ ----- --- ---- ------- -- ---- --- --<br>------- ------,108240.90000000224,108240,107830.468,107833,107847.138,108247.299,,37,the
screen,html.Screen,0_2_1_1_38,2021-12-02T13:13:31.915Z,,,,,,,,,,,,,,,,54,,,,,,,,,,,,,,400.70100000000093,,response,,,100,,,,,,Space,keypress(Space),,,,,-- --- ---- --- ------ ----- ------- ---- -- --- ------- --<br>------- ---------- ------ -- ----- -- ----- -- ---- ------<br>--- ----- --- --- ------ -------- ----- --- ------ ----- --<br>----- ----- ---------- --- --- market ------ ---- -- ------<br>------- --- ------ ----- --- ---- ------- -- ---- --- --<br>------- ------,108648.80000000075,108648,108230.628,108241.10000000149,108247.299,108664.039,,38,market
screen,html.Screen,0_2_1_1_39,2021-12-02T13:13:32.331Z,,,,,,,,,,,,,,,,54,,,,,,,,,,,,,,399.9609999999957,,response,,,100,,,,,,Space,keypress(Space),,,,,-- --- ---- --- ------ ----- ------- ---- -- --- ------- --<br>------- ---------- ------ -- ----- -- ----- -- ---- ------<br>--- ----- --- --- ------ -------- ----- --- ------ ----- --<br>----- ----- ---------- --- --- ------ became ---- -- ------<br>------- --- ------ ----- --- ---- ------- -- ---- --- --<br>------- ------,109064.80000000075,109064,108647.369,108649,108664.039,109080.787,,39,became
screen,html.Screen,0_2_1_1_40,2021-12-02T13:13:32.771Z,,,,,,,,,,,,,,,,54,,,,,,,,,,,,,,423.2130000000034,,response,,,100,,,,,,Space,keypress(Space),,,,,-- --- ---- --- ------ ----- ------- ---- -- --- ------- --<br>------- ---------- ------ -- ----- -- ----- -- ---- ------<br>--- ----- --- --- ------ -------- ----- --- ------ ----- --<br>----- ----- ---------- --- --- ------ ------ wary -- ------<br>------- --- ------ ----- --- ---- ------- -- ---- --- --<br>------- ------,109504.80000000075,109504,109064.117,109065,109080.787,109514.292,,40,wary
screen,html.Screen,0_2_1_1_41,2021-12-02T13:13:33.203Z,,,,,,,,,,,,,,,,54,,,,,,,,,,,,,,421.7079999999987,,response,,,100,,,,,,Space,keypress(Space),,,,,-- --- ---- --- ------ ----- ------- ---- -- --- ------- --<br>------- ---------- ------ -- ----- -- ----- -- ---- ------<br>--- ----- --- --- ------ -------- ----- --- ------ ----- --<br>----- ----- ---------- --- --- ------ ------ ---- of ------<br>------- --- ------ ----- --- ---- ------- -- ---- --- --<br>------- ------,109936.80000000075,109936,109497.621,109505,109514.292,109947.682,,41,of
screen,html.Screen,0_2_1_1_42,2021-12-02T13:13:33.563Z,,,,,,,,,,,,,,,,54,,,,,,,,,,,,,,348.2180000022345,,response,,,100,,,,,,Space,keypress(Space),,,,,-- --- ---- --- ------ ----- ------- ---- -- --- ------- --<br>------- ---------- ------ -- ----- -- ----- -- ---- ------<br>--- ----- --- --- ------ -------- ----- --- ------ ----- --<br>----- ----- ---------- --- --- ------ ------ ---- -- French<br>------- --- ------ ----- --- ---- ------- -- ---- --- --<br>------- ------,110296.70000000298,110295.90000000224,109931.012,109937,109947.682,110297.848,,42,French
screen,html.Screen,0_2_1_1_43,2021-12-02T13:13:33.963Z,,,,,,,,,,,,,,,,54,,,,,,,,,,,,,,398.05200000223704,,response,,,100,,,,,,Space,keypress(Space),,,,,-- --- ---- --- ------ ----- ------- ---- -- --- ------- --<br>------- ---------- ------ -- ----- -- ----- -- ---- ------<br>--- ----- --- --- ------ -------- ----- --- ------ ----- --<br>----- ----- ---------- --- --- ------ ------ ---- -- ------<br>credit. --- ------ ----- --- ---- ------- -- ---- --- --<br>------- ------,110696.80000000075,110695.90000000224,110281.177,110297,110297.848,110697.88,,43,credit.
screen,html.Screen,0_2_1_1_44,2021-12-02T13:13:34.371Z,,,,,,,,,,,,,,,,54,,,,,,,,,,,,,,406.0200000022305,,response,,,100,,,,,,Space,keypress(Space),,,,,-- --- ---- --- ------ ----- ------- ---- -- --- ------- --<br>------- ---------- ------ -- ----- -- ----- -- ---- ------<br>--- ----- --- --- ------ -------- ----- --- ------ ----- --<br>----- ----- ---------- --- --- ------ ------ ---- -- ------<br>------- The ------ ----- --- ---- ------- -- ---- --- --<br>------- ------,111104.70000000298,111103.90000000224,110681.21,110696.90000000224,110697.88,111114.663,,44,The
screen,html.Screen,0_2_1_1_45,2021-12-02T13:13:34.755Z,,,,,,,,,,,,,,,,54,,,,,,,,,,,,,,373.2370000022347,,response,,,100,,,,,,Space,keypress(Space),,,,,-- --- ---- --- ------ ----- ------- ---- -- --- ------- --<br>------- ---------- ------ -- ----- -- ----- -- ---- ------<br>--- ----- --- --- ------ -------- ----- --- ------ ----- --<br>----- ----- ---------- --- --- ------ ------ ---- -- ------<br>------- --- French ----- --- ---- ------- -- ---- --- --<br>------- ------,111488.60000000149,111487.90000000224,111097.993,111104.90000000224,111114.663,111498.066,,45,French
screen,html.Screen,0_2_1_1_46,2021-12-02T13:13:35.107Z,,,,,,,,,,,,,,,,54,,,,,,,,,,,,,,341.834000002229,,response,,,100,,,,,,Space,keypress(Space),,,,,-- --- ---- --- ------ ----- ------- ---- -- --- ------- --<br>------- ---------- ------ -- ----- -- ----- -- ---- ------<br>--- ----- --- --- ------ -------- ----- --- ------ ----- --<br>----- ----- ---------- --- --- ------ ------ ---- -- ------<br>------- --- ------ state --- ---- ------- -- ---- --- --<br>------- ------,111840.70000000298,111839.90000000224,111481.396,111488.90000000224,111498.066,111848.246,,46,state
screen,html.Screen,0_2_1_1_47,2021-12-02T13:13:35.491Z,,,,,,,,,,,,,,,,54,,,,,,,,,,,,,,375.654000002236,,response,,,100,,,,,,Space,keypress(Space),,,,,-- --- ---- --- ------ ----- ------- ---- -- --- ------- --<br>------- ---------- ------ -- ----- -- ----- -- ---- ------<br>--- ----- --- --- ------ -------- ----- --- ------ ----- --<br>----- ----- ---------- --- --- ------ ------ ---- -- ------<br>------- --- ------ ----- was ---- ------- -- ---- --- --<br>------- ------,112224.60000000149,112223.90000000224,111831.575,111840.80000000075,111848.246,112231.672,,47,was
screen,html.Screen,0_2_1_1_48,2021-12-02T13:13:35.867Z,,,,,,,,,,,,,,,,54,,,,,,,,,,,,,,368.22800000222924,,response,,,100,,,,,,Space,keypress(Space),,,,,-- --- ---- --- ------ ----- ------- ---- -- --- ------- --<br>------- ---------- ------ -- ----- -- ----- -- ---- ------<br>--- ----- --- --- ------ -------- ----- --- ------ ----- --<br>----- ----- ---------- --- --- ------ ------ ---- -- ------<br>------- --- ------ ----- --- left ------- -- ---- --- --<br>------- ------,112600.60000000149,112599.90000000224,112215.001,112224.90000000224,112231.672,112615.073,,48,left
screen,html.Screen,0_2_1_1_49,2021-12-02T13:13:36.227Z,,,,,,,,,,,,,,,,54,,,,,,,,,,,,,,344.8270000022312,,response,,,100,,,,,,Space,keypress(Space),,,,,-- --- ---- --- ------ ----- ------- ---- -- --- ------- --<br>------- ---------- ------ -- ----- -- ----- -- ---- ------<br>--- ----- --- --- ------ -------- ----- --- ------ ----- --<br>----- ----- ---------- --- --- ------ ------ ---- -- ------<br>------- --- ------ ----- --- ---- without -- ---- --- --<br>------- ------,112960.60000000149,112959.90000000224,112598.403,112600.80000000075,112615.073,112965.175,,49,without
screen,html.Screen,0_2_1_1_50,2021-12-02T13:13:36.587Z,,,,,,,,,,,,,,,,54,,,,,,,,,,,,,,354.62500000074215,,response,,,100,,,,,,Space,keypress(Space),,,,,-- --- ---- --- ------ ----- ------- ---- -- --- ------- --<br>------- ---------- ------ -- ----- -- ----- -- ---- ------<br>--- ----- --- --- ------ -------- ----- --- ------ ----- --<br>----- ----- ---------- --- --- ------ ------ ---- -- ------<br>------- --- ------ ----- --- ---- ------- an ---- --- --<br>------- ------,113320.60000000149,113319.80000000075,112948.505,112960.90000000224,112965.175,113331.942,,50,an
screen,html.Screen,0_2_1_1_51,2021-12-02T13:13:37.003Z,,,,,,,,,,,,,,,,54,,,,,,,,,,,,,,404.15800000149466,,response,,,100,,,,,,Space,keypress(Space),,,,,-- --- ---- --- ------ ----- ------- ---- -- --- ------- --<br>------- ---------- ------ -- ----- -- ----- -- ---- ------<br>--- ----- --- --- ------ -------- ----- --- ------ ----- --<br>----- ----- ---------- --- --- ------ ------ ---- -- ------<br>------- --- ------ ----- --- ---- ------- -- easy --- --<br>------- ------,113736.90000000224,113736.10000000149,113315.272,113320.90000000224,113331.942,113748.703,,51,easy
screen,html.Screen,0_2_1_1_52,2021-12-02T13:13:37.339Z,,,,,,,,,,,,,,,,54,,,,,,,,,,,,,,323.097000000751,,response,,,100,,,,,,Space,keypress(Space),,,,,-- --- ---- --- ------ ----- ------- ---- -- --- ------- --<br>------- ---------- ------ -- ----- -- ----- -- ---- ------<br>--- ----- --- --- ------ -------- ----- --- ------ ----- --<br>----- ----- ---------- --- --- ------ ------ ---- -- ------<br>------- --- ------ ----- --- ---- ------- -- ---- way --<br>------- ------,114072.60000000149,114071.80000000075,113732.033,113737.20000000298,113748.703,114082.181,,52,way
screen,html.Screen,0_2_1_1_53,2021-12-02T13:13:37.755Z,,,,,,,,,,,,,,,,54,,,,,,,,,,,,,,405.6190000007482,,response,,,100,,,,,,Space,keypress(Space),,,,,-- --- ---- --- ------ ----- ------- ---- -- --- ------- --<br>------- ---------- ------ -- ----- -- ----- -- ---- ------<br>--- ----- --- --- ------ -------- ----- --- ------ ----- --<br>----- ----- ---------- --- --- ------ ------ ---- -- ------<br>------- --- ------ ----- --- ---- ------- -- ---- --- of<br>------- ------,114488.5,114487.80000000075,114065.51,114072.80000000075,114082.181,114498.898,,53,of
screen,html.Screen,0_2_1_1_54,2021-12-02T13:13:38.115Z,,,,,,,,,,,,,,,,54,,,,,,,,,,,,,,348.8020000029792,,response,,,100,,,,,,Space,keypress(Space),,,,,-- --- ---- --- ------ ----- ------- ---- -- --- ------- --<br>------- ---------- ------ -- ----- -- ----- -- ---- ------<br>--- ----- --- --- ------ -------- ----- --- ------ ----- --<br>----- ----- ---------- --- --- ------ ------ ---- -- ------<br>------- --- ------ ----- --- ---- ------- -- ---- --- --<br>raising ------,114848.5,114847.70000000298,114482.228,114488.80000000075,114498.898,114865.714,,54,raising
screen,html.Screen,0_2_1_1_55,2021-12-02T13:13:38.563Z,,,,,,,,,,,,,,,,54,,,,,,,,,,,,,,429.986000002973,,response,,,100,,,,,,Space,keypress(Space),,,,,-- --- ---- --- ------ ----- ------- ---- -- --- ------- --<br>------- ---------- ------ -- ----- -- ----- -- ---- ------<br>--- ----- --- --- ------ -------- ----- --- ------ ----- --<br>----- ----- ---------- --- --- ------ ------ ---- -- ------<br>------- --- ------ ----- --- ---- ------- -- ---- --- --<br>------- money.,115296.5,115295.70000000298,114849.043,114848.70000000298,114865.714,115299.117,,55,money.
Item 100,flow.Loop,0_2_1_1,2021-12-02T13:13:38.564Z,,,,,,,,,,,,,,,,,,,,,,,,,,,,,,23286.37800000298,,completion,,,,C,,,,,,,,,,silence,,115296.90000000224,115295.70000000298,91992.653,91994.20000000298,92009.322,115299.117,,,
Question 1,html.Screen,0_2_1_2,2021-12-02T13:13:45.525Z,,,,,,,,,,,,,,,,,,,,,,,,,,,true,TRUE,,6956.083000002982,,response,,,100,C,,,,,TRUE,click #choice-1,,,,silence,,122256.40000000224,122255.20000000298,115282.447,115297.10000000149,115299.117,122284.554,,,
Question 2,html.Screen,0_2_1_3,2021-12-02T13:13:48.029Z,,,,,,,,,,,,,,,,,,,,,,,,,,,true,FALSE,,2474.5460000014864,,response,,,100,C,,,,,FALSE,click #choice-2,,,,silence,,124760.20000000298,124759.10000000149,122267.878,122256.60000000149,122284.554,124768.307,,,
Item 100,flow.Sequence,0_2_1,2021-12-02T13:13:48.029Z,,,,,,,,,,,,,,,,,,,,,,,,,,,,,,42752.04900000148,,completion,,,,,,,,,,,,,,,,124760.60000000149,124759.10000000149,81990.379,82002.90000000224,82007.051,124768.307,,,
End of Practice,html.Page,0_2_2,2021-12-02T13:13:53.254Z,,,,,,,,,,,,,,,,,,,,,,,,,,,,,,5215.8930000029795,,form submission,,,,,,,,,,,,,,,,129984.80000000075,129984.20000000298,124751.637,124760.80000000075,124768.307,129986.044,,,
Practice,flow.Sequence,0_2,2021-12-02T13:13:53.254Z,,,,,,,,,,,,,,,,,,,,,,,,,,,,,,92639.28900000299,,completion,,,,,,,,,,,,,,,,129985.30000000075,129984.20000000298,37328.241,37341.300000000745,37344.911,129986.044,,,
Trap_instruction,html.Page,0_3_0,2021-12-02T13:13:58.766Z,,,,,,,,,,,,,,,,,,,,,,,,,,,,,,5510.156000002986,,form submission,,,,,,,,,,,,,,,,135496.80000000075,135496.20000000298,129969.374,129985.70000000298,129986.044,135520.09,,,
trap_trial,html.Screen,0_3_1,2021-12-02T13:14:01.685Z,,,,,,,,,,,,,,,,,,,,,,,,,,,true,1,,2894.3100000022387,,response,,,,,,,,,1,click #choice-1,,,,,,138415.70000000298,138414.40000000224,135486.756,135497.1000000015,135520.09,138421.885,,,
end of trap trial,html.Page,0_3_2,2021-12-02T13:14:04.061Z,,,,,,,,,,,,,,,,,,,,,,,,,,,,,,2369.9150000007357,,form submission,,,,,,,,,,,,,,,,140792.30000000075,140791.80000000075,138405.214,138416,138421.885,140805.771,,,
Trap 1,flow.Sequence,0_3,2021-12-02T13:14:04.061Z,,,,,,,,,,,,,,,,,,,,,,,,,,,,,,10805.75600000075,,completion,,,,,,,,,,,,,,,,140792.70000000298,140791.80000000075,129969.374,129985.60000000149,129986.044,140805.771,,,
Standby,html.Page,0_4_0,2021-12-02T13:14:12.062Z,,,,,,,,,,,,,,,,,,,,,,,,,,,,,,8002.234999999986,,timeout,,,,,,,,,,,,,,,,148793.1000000015,148791.335,140789.101,140793,140805.771,148808.006,,,
Holding screen,html.Screen,0_4_1_0_0,2021-12-02T13:14:19.063Z,,,,,,,,,,,,,,,,,,,,,,,,,,,,,,7001.787000000011,,timeout,,,,,,,,,,,,,,,,155794.70000000298,155793.123,148791.335,148793.40000000224,148808.006,155809.793,,,
screen,html.Screen,0_4_1_0_1_0,2021-12-02T13:14:19.884Z,,,,,,,,,,,,,,,,15,,,,,,,,,,,,,,804.60700000223,,response,,,7,C,,,,,Space,keypress(Space),,,,instrumental,Greg --------- ---------- - --- ------- -- --- ------------<br>----- -- -------- ------- ---- ------ - -------- ---- -----<br>--- ------- ---- -- --- -------- --- - ----- ------ ---- --<br>-------- --- -------- -------- --- -------- ---- -- ----- -<br>-------- ---- --- ---------- --------- -- ------- ------ -<br>--------- ----- -----,156615.5,156614.40000000224,155793.123,155795.1000000015,155809.793,156626.732,,0,Greg
screen,html.Screen,0_4_1_0_1_1,2021-12-02T13:14:20.435Z,,,,,,,,,,,,,,,,15,,,,,,,,,,,,,,539.068000000756,,response,,,7,C,,,,,Space,keypress(Space),,,,instrumental,"---- Anderson, ---------- - --- ------- -- --- ------------<br>----- -- -------- ------- ---- ------ - -------- ---- -----<br>--- ------- ---- -- --- -------- --- - ----- ------ ---- --<br>-------- --- -------- -------- --- -------- ---- -- ----- -<br>-------- ---- --- ---------- --------- -- ------- ------ -<br>--------- ----- -----",157166.6000000015,157165.80000000075,156610.062,156615.80000000075,156626.732,157176.813,,1,"Anderson,"
screen,html.Screen,0_4_1_0_1_2,2021-12-02T13:14:20.915Z,,,,,,,,,,,,,,,,15,,,,,,,,,,,,,,468.9870000007504,,response,,,7,C,,,,,Space,keypress(Space),,,,instrumental,---- --------- considered - --- ------- -- --- ------------<br>----- -- -------- ------- ---- ------ - -------- ---- -----<br>--- ------- ---- -- --- -------- --- - ----- ------ ---- --<br>-------- --- -------- -------- --- -------- ---- -- ----- -<br>-------- ---- --- ---------- --------- -- ------- ------ -<br>--------- ----- -----,157646.70000000298,157645.80000000075,157160.143,157166.90000000224,157176.813,157660.472,,2,considered
screen,html.Screen,0_4_1_0_1_3,2021-12-02T13:14:21.323Z,,,,,,,,,,,,,,,,15,,,,,,,,,,,,,,393.3280000007362,,response,,,7,C,,,,,Space,keypress(Space),,,,instrumental,---- --------- ---------- a --- ------- -- --- ------------<br>----- -- -------- ------- ---- ------ - -------- ---- -----<br>--- ------- ---- -- --- -------- --- - ----- ------ ---- --<br>-------- --- -------- -------- --- -------- ---- -- ----- -<br>-------- ---- --- ---------- --------- -- ------- ------ -<br>--------- ----- -----,158054.5,158053.80000000075,157643.8,157646.90000000224,157660.472,158060.493,,3,a
screen,html.Screen,0_4_1_0_1_4,2021-12-02T13:14:21.731Z,,,,,,,,,,,,,,,,15,,,,,,,,,,,,,,401.3070000007574,,response,,,7,C,,,,,Space,keypress(Space),,,,instrumental,---- --------- ---------- - key ------- -- --- ------------<br>----- -- -------- ------- ---- ------ - -------- ---- -----<br>--- ------- ---- -- --- -------- --- - ----- ------ ---- --<br>-------- --- -------- -------- --- -------- ---- -- ----- -<br>-------- ---- --- ---------- --------- -- ------- ------ -<br>--------- ----- -----,158462.5,158461.80000000075,158043.823,158054.90000000224,158060.493,158477.261,,4,key
screen,html.Screen,0_4_1_0_1_5,2021-12-02T13:14:22.251Z,,,,,,,,,,,,,,,,15,,,,,,,,,,,,,,504.43900000298163,,response,,,7,C,,,,,Space,keypress(Space),,,,instrumental,---- --------- ---------- - --- witness -- --- ------------<br>----- -- -------- ------- ---- ------ - -------- ---- -----<br>--- ------- ---- -- --- -------- --- - ----- ------ ---- --<br>-------- --- -------- -------- --- -------- ---- -- ----- -<br>-------- ---- --- ---------- --------- -- ------- ------ -<br>--------- ----- -----,158982.40000000224,158981.70000000298,158460.591,158462.80000000075,158477.261,158994.035,,5,witness
screen,html.Screen,0_4_1_0_1_6,2021-12-02T13:14:22.635Z,,,,,,,,,,,,,,,,15,,,,,,,,,,,,,,371.66500000297674,,response,,,7,C,,,,,Space,keypress(Space),,,,instrumental,---- --------- ---------- - --- ------- by --- ------------<br>----- -- -------- ------- ---- ------ - -------- ---- -----<br>--- ------- ---- -- --- -------- --- - ----- ------ ---- --<br>-------- --- -------- -------- --- -------- ---- -- ----- -<br>-------- ---- --- ---------- --------- -- ------- ------ -<br>--------- ----- -----,159366.6000000015,159365.70000000298,158977.365,158982.70000000298,158994.035,159377.535,,6,by
screen,html.Screen,0_4_1_0_1_7,2021-12-02T13:14:23.027Z,,,,,,,,,,,,,,,,15,,,,,,,,,,,,,,380.0650000014866,,response,,,7,C,,,,,Space,keypress(Space),,,,instrumental,---- --------- ---------- - --- ------- -- the ------------<br>----- -- -------- ------- ---- ------ - -------- ---- -----<br>--- ------- ---- -- --- -------- --- - ----- ------ ---- --<br>-------- --- -------- -------- --- -------- ---- -- ----- -<br>-------- ---- --- ---------- --------- -- ------- ------ -<br>--------- ----- -----,159758.5,159757.6000000015,159360.864,159366.90000000224,159377.535,159760.852,,7,the
screen,html.Screen,0_4_1_0_1_8,2021-12-02T13:14:23.483Z,,,,,,,,,,,,,,,,15,,,,,,,,,,,,,,452.7480000014766,,response,,,7,C,,,,,Space,keypress(Space),,,,instrumental,"---- --------- ---------- - --- ------- -- --- prosecution,<br>----- -- -------- ------- ---- ------ - -------- ---- -----<br>--- ------- ---- -- --- -------- --- - ----- ------ ---- --<br>-------- --- -------- -------- --- -------- ---- -- ----- -<br>-------- ---- --- ---------- --------- -- ------- ------ -<br>--------- ----- -----",160214.40000000224,160213.6000000015,159744.183,159758.70000000298,159760.852,160227.822,,8,"prosecution,"
screen,html.Screen,0_4_1_0_1_9,2021-12-02T13:14:24.323Z,,,,,,,,,,,,,,,,15,,,,,,,,,,,,,,825.7780000015046,,response,,,7,C,,,,,Space,keypress(Space),,,,instrumental,---- --------- ---------- - --- ------- -- --- ------------<br>vowed -- -------- ------- ---- ------ - -------- ---- -----<br>--- ------- ---- -- --- -------- --- - ----- ------ ---- --<br>-------- --- -------- -------- --- -------- ---- -- ----- -<br>-------- ---- --- ---------- --------- -- ------- ------ -<br>--------- ----- -----,161054.40000000224,161053.6000000015,160211.15,160214.6000000015,160227.822,161061.319,,9,vowed
screen,html.Screen,0_4_1_0_1_10,2021-12-02T13:14:24.803Z,,,,,,,,,,,,,,,,15,,,,,,,,,,,,,,472.2810000015015,,response,,,7,C,,,,,Space,keypress(Space),,,,instrumental,---- --------- ---------- - --- ------- -- --- ------------<br>----- he -------- ------- ---- ------ - -------- ---- -----<br>--- ------- ---- -- --- -------- --- - ----- ------ ---- --<br>-------- --- -------- -------- --- -------- ---- -- ----- -<br>-------- ---- --- ---------- --------- -- ------- ------ -<br>--------- ----- -----,161534.40000000224,161533.6000000015,161044.648,161054.6000000015,161061.319,161544.699,,10,he
screen,html.Screen,0_4_1_0_1_11,2021-12-02T13:14:25.307Z,,,,,,,,,,,,,,,,15,,,,,,,,,,,,,,492.90100000149687,,response,,,7,C,,,,,Space,keypress(Space),,,,instrumental,---- --------- ---------- - --- ------- -- --- ------------<br>----- -- wouldn't ------- ---- ------ - -------- ---- -----<br>--- ------- ---- -- --- -------- --- - ----- ------ ---- --<br>-------- --- -------- -------- --- -------- ---- -- ----- -<br>-------- ---- --- ---------- --------- -- ------- ------ -<br>--------- ----- -----,162038.30000000075,162037.6000000015,161528.029,161534.6000000015,161544.699,162044.836,,11,wouldn't
screen,html.Screen,0_4_1_0_1_12,2021-12-02T13:14:25.819Z,,,,,,,,,,,,,,,,15,,,,,,,,,,,,,,504.56400000222493,,response,,,7,C,,,,,Space,keypress(Space),,,,instrumental,---- --------- ---------- - --- ------- -- --- ------------<br>----- -- -------- testify ---- ------ - -------- ---- -----<br>--- ------- ---- -- --- -------- --- - ----- ------ ---- --<br>-------- --- -------- -------- --- -------- ---- -- ----- -<br>-------- ---- --- ---------- --------- -- ------- ------ -<br>--------- ----- -----,162550.30000000075,162549.40000000224,162028.166,162038.6000000015,162044.836,162561.706,,12,testify
screen,html.Screen,0_4_1_0_1_13,2021-12-02T13:14:26.395Z,,,,,,,,,,,,,,,,15,,,,,,,,,,,,,,563.7939999999944,,response,,,7,C,,,,,Space,keypress(Space),,,,instrumental,---- --------- ---------- - --- ------- -- --- ------------<br>----- -- -------- ------- when ------ - -------- ---- -----<br>--- ------- ---- -- --- -------- --- - ----- ------ ---- --<br>-------- --- -------- -------- --- -------- ---- -- ----- -<br>-------- ---- --- ---------- --------- -- ------- ------ -<br>--------- ----- -----,163126.30000000075,163125.5,162545.035,162550.5,162561.706,163128.544,,13,when
screen,html.Screen,0_4_1_0_1_14,2021-12-02T13:14:26.931Z,,,,,,,,,,,,,,,,15,,,,,,,,,,,,,,532.9560000000056,,response,,,7,C,,,,,Space,keypress(Space),,,,instrumental,---- --------- ---------- - --- ------- -- --- ------------<br>----- -- -------- ------- ---- served - -------- ---- -----<br>--- ------- ---- -- --- -------- --- - ----- ------ ---- --<br>-------- --- -------- -------- --- -------- ---- -- ----- -<br>-------- ---- --- ---------- --------- -- ------- ------ -<br>--------- ----- -----,163662.30000000075,163661.5,163111.873,163126.5,163128.544,163678.635,,14,served
screen,html.Screen,0_4_1_0_1_15,2021-12-02T13:14:27.499Z,,,,,,,,,,,,,,,,15,,,,,,,,,,,,,,550.7650000022259,,response,,,7,C,,,,,Space,keypress(Space),,,,instrumental,---- --------- ---------- - --- ------- -- --- ------------<br>----- -- -------- ------- ---- ------ a -------- ---- -----<br>--- ------- ---- -- --- -------- --- - ----- ------ ---- --<br>-------- --- -------- -------- --- -------- ---- -- ----- -<br>-------- ---- --- ---------- --------- -- ------- ------ -<br>--------- ----- -----,164230.20000000298,164229.40000000224,163661.965,163662.5,163678.635,164245.458,,15,a
screen,html.Screen,0_4_1_0_1_16,2021-12-02T13:14:28.355Z,,,,,,,,,,,,,,,,15,,,,,,,,,,,,,,839.9420000022219,,response,,,7,C,,,,,Space,keypress(Space),,,,instrumental,---- --------- ---------- - --- ------- -- --- ------------<br>----- -- -------- ------- ---- ------ - subpoena ---- -----<br>--- ------- ---- -- --- -------- --- - ----- ------ ---- --<br>-------- --- -------- -------- --- -------- ---- -- ----- -<br>-------- ---- --- ---------- --------- -- ------- ------ -<br>--------- ----- -----,165086.20000000298,165085.40000000224,164228.788,164230.40000000224,164245.458,165095.668,,16,subpoena
screen,html.Screen,0_4_1_0_1_17,2021-12-02T13:14:29.035Z,,,,,,,,,,,,,,,,15,,,,,,,,,,,,,,669.73200000223,,response,,,7,C,,,,,Space,keypress(Space),,,,instrumental,---- --------- ---------- - --- ------- -- --- ------------<br>----- -- -------- ------- ---- ------ - -------- last -----<br>--- ------- ---- -- --- -------- --- - ----- ------ ---- --<br>-------- --- -------- -------- --- -------- ---- -- ----- -<br>-------- ---- --- ---------- --------- -- ------- ------ -<br>--------- ----- -----,165766.20000000298,165765.40000000224,165078.998,165086.40000000224,165095.668,165779.195,,17,last
screen,html.Screen,0_4_1_0_1_18,2021-12-02T13:14:29.643Z,,,,,,,,,,,,,,,,15,,,,,,,,,,,,,,594.1050000007381,,response,,,7,C,,,,,Space,keypress(Space),,,,instrumental,---- --------- ---------- - --- ------- -- --- ------------<br>----- -- -------- ------- ---- ------ - -------- ---- week.<br>--- ------- ---- -- --- -------- --- - ----- ------ ---- --<br>-------- --- -------- -------- --- -------- ---- -- ----- -<br>-------- ---- --- ---------- --------- -- ------- ------ -<br>--------- ----- -----,166374.1000000015,166373.30000000075,165762.525,165766.40000000224,165779.195,166379.358,,18,week.
screen,html.Screen,0_4_1_0_1_19,2021-12-02T13:14:30.299Z,,,,,,,,,,,,,,,,15,,,,,,,,,,,,,,650.3420000029728,,response,,,7,C,,,,,Space,keypress(Space),,,,instrumental,---- --------- ---------- - --- ------- -- --- ------------<br>----- -- -------- ------- ---- ------ - -------- ---- -----<br>His ------- ---- -- --- -------- --- - ----- ------ ---- --<br>-------- --- -------- -------- --- -------- ---- -- ----- -<br>-------- ---- --- ---------- --------- -- ------- ------ -<br>--------- ----- -----,167030.40000000224,167029.70000000298,166362.688,166374.40000000224,166379.358,167046.181,,19,His
screen,html.Screen,0_4_1_0_1_20,2021-12-02T13:14:30.867Z,,,,,,,,,,,,,,,,15,,,,,,,,,,,,,,551.1190000007336,,response,,,7,C,,,,,Space,keypress(Space),,,,instrumental,---- --------- ---------- - --- ------- -- --- ------------<br>----- -- -------- ------- ---- ------ - -------- ---- -----<br>--- lawyers ---- -- --- -------- --- - ----- ------ ---- --<br>-------- --- -------- -------- --- -------- ---- -- ----- -<br>-------- ---- --- ---------- --------- -- ------- ------ -<br>--------- ----- -----,167598.1000000015,167597.30000000075,167029.511,167030.70000000298,167046.181,167613.056,,20,lawyers
screen,html.Screen,0_4_1_0_1_21,2021-12-02T13:14:31.427Z,,,,,,,,,,,,,,,,15,,,,,,,,,,,,,,544.2440000007336,,response,,,7,C,,,,,Space,keypress(Space),,,,instrumental,---- --------- ---------- - --- ------- -- --- ------------<br>----- -- -------- ------- ---- ------ - -------- ---- -----<br>--- ------- said -- --- -------- --- - ----- ------ ---- --<br>-------- --- -------- -------- --- -------- ---- -- ----- -<br>-------- ---- --- ---------- --------- -- ------- ------ -<br>--------- ----- -----,168158,168157.30000000075,167596.385,167598.30000000075,167613.056,168163.169,,21,said
screen,html.Screen,0_4_1_0_1_22,2021-12-02T13:14:32.027Z,,,,,,,,,,,,,,,,15,,,,,,,,,,,,,,594.0310000029858,,response,,,7,C,,,,,Space,keypress(Space),,,,instrumental,---- --------- ---------- - --- ------- -- --- ------------<br>----- -- -------- ------- ---- ------ - -------- ---- -----<br>--- ------- ---- he --- -------- --- - ----- ------ ---- --<br>-------- --- -------- -------- --- -------- ---- -- ----- -<br>-------- ---- --- ---------- --------- -- ------- ------ -<br>--------- ----- -----,168757.90000000224,168757.20000000298,168146.499,168158.30000000075,168163.169,168763.195,,22,he
screen,html.Screen,0_4_1_0_1_23,2021-12-02T13:14:32.547Z,,,,,,,,,,,,,,,,15,,,,,,,,,,,,,,514.0050000029732,,response,,,7,C,,,,,Space,keypress(Space),,,,instrumental,---- --------- ---------- - --- ------- -- --- ------------<br>----- -- -------- ------- ---- ------ - -------- ---- -----<br>--- ------- ---- -- was -------- --- - ----- ------ ---- --<br>-------- --- -------- -------- --- -------- ---- -- ----- -<br>-------- ---- --- ---------- --------- -- ------- ------ -<br>--------- ----- -----,169278,169277.20000000298,168746.526,168758.1000000015,168763.195,169280.231,,23,was
screen,html.Screen,0_4_1_0_1_24,2021-12-02T13:14:33.235Z,,,,,,,,,,,,,,,,15,,,,,,,,,,,,,,684.9690000029805,,response,,,7,C,,,,,Space,keypress(Space),,,,instrumental,---- --------- ---------- - --- ------- -- --- ------------<br>----- -- -------- ------- ---- ------ - -------- ---- -----<br>--- ------- ---- -- --- prepared --- - ----- ------ ---- --<br>-------- --- -------- -------- --- -------- ---- -- ----- -<br>-------- ---- --- ---------- --------- -- ------- ------ -<br>--------- ----- -----,169966,169965.20000000298,169263.559,169278.30000000075,169280.231,169980.306,,24,prepared
screen,html.Screen,0_4_1_0_1_25,2021-12-02T13:14:33.835Z,,,,,,,,,,,,,,,,15,,,,,,,,,,,,,,584.7940000014787,,response,,,7,C,,,,,Space,keypress(Space),,,,instrumental,---- --------- ---------- - --- ------- -- --- ------------<br>----- -- -------- ------- ---- ------ - -------- ---- -----<br>--- ------- ---- -- --- -------- for - ----- ------ ---- --<br>-------- --- -------- -------- --- -------- ---- -- ----- -<br>-------- ---- --- ---------- --------- -- ------- ------ -<br>--------- ----- -----,170566,170565.1000000015,169963.636,169966.20000000298,169980.306,170580.468,,25,for
screen,html.Screen,0_4_1_0_1_26,2021-12-02T13:14:34.379Z,,,,,,,,,,,,,,,,15,,,,,,,,,,,,,,528.6320000014966,,response,,,7,C,,,,,Space,keypress(Space),,,,instrumental,---- --------- ---------- - --- ------- -- --- ------------<br>----- -- -------- ------- ---- ------ - -------- ---- -----<br>--- ------- ---- -- --- -------- --- a ----- ------ ---- --<br>-------- --- -------- -------- --- -------- ---- -- ----- -<br>-------- ---- --- ---------- --------- -- ------- ------ -<br>--------- ----- -----,171109.80000000075,171109.1000000015,170563.798,170566.20000000298,170580.468,171113.948,,26,a
screen,html.Screen,0_4_1_0_1_27,2021-12-02T13:14:34.923Z,,,,,,,,,,,,,,,,15,,,,,,,,,,,,,,539.1520000014862,,response,,,7,C,,,,,Space,keypress(Space),,,,instrumental,---- --------- ---------- - --- ------- -- --- ------------<br>----- -- -------- ------- ---- ------ - -------- ---- -----<br>--- ------- ---- -- --- -------- --- - third ------ ---- --<br>-------- --- -------- -------- --- -------- ---- -- ----- -<br>-------- ---- --- ---------- --------- -- ------- ------ -<br>--------- ----- -----,171653.90000000224,171653.1000000015,171097.278,171110,171113.948,171664.102,,27,third
screen,html.Screen,0_4_1_0_1_28,2021-12-02T13:14:35.443Z,,,,,,,,,,,,,,,,15,,,,,,,,,,,,,,508.9980000014766,,response,,,7,C,,,,,Space,keypress(Space),,,,instrumental,---- --------- ---------- - --- ------- -- --- ------------<br>----- -- -------- ------- ---- ------ - -------- ---- -----<br>--- ------- ---- -- --- -------- --- - ----- prison ---- --<br>-------- --- -------- -------- --- -------- ---- -- ----- -<br>-------- ---- --- ---------- --------- -- ------- ------ -<br>--------- ----- -----,172173.80000000075,172173.1000000015,171647.432,171654.1000000015,171664.102,172180.869,,28,prison
screen,html.Screen,0_4_1_0_1_29,2021-12-02T13:14:36.051Z,,,,,,,,,,,,,,,,15,,,,,,,,,,,,,,600.130999999994,,response,,,7,C,,,,,Space,keypress(Space),,,,instrumental,---- --------- ---------- - --- ------- -- --- ------------<br>----- -- -------- ------- ---- ------ - -------- ---- -----<br>--- ------- ---- -- --- -------- --- - ----- ------ stay --<br>-------- --- -------- -------- --- -------- ---- -- ----- -<br>-------- ---- --- ---------- --------- -- ------- ------ -<br>--------- ----- -----,172781.80000000075,172781,172164.199,172174.1000000015,172180.869,172797.769,,29,stay
screen,html.Screen,0_4_1_0_1_30,2021-12-02T13:14:36.739Z,,,,,,,,,,,,,,,,15,,,,,,,,,,,,,,671.1310000022349,,response,,,7,C,,,,,Space,keypress(Space),,,,instrumental,---- --------- ---------- - --- ------- -- --- ------------<br>----- -- -------- ------- ---- ------ - -------- ---- -----<br>--- ------- ---- -- --- -------- --- - ----- ------ ---- to<br>-------- --- -------- -------- --- -------- ---- -- ----- -<br>-------- ---- --- ---------- --------- -- ------- ------ -<br>--------- ----- -----,173469.70000000298,173468.90000000224,172781.098,172782.1000000015,172797.769,173481.207,,30,to
screen,html.Screen,0_4_1_0_1_31,2021-12-02T13:14:37.307Z,,,,,,,,,,,,,,,,15,,,,,,,,,,,,,,555.7930000000051,,response,,,7,C,,,,,Space,keypress(Space),,,,instrumental,---- --------- ---------- - --- ------- -- --- ------------<br>----- -- -------- ------- ---- ------ - -------- ---- -----<br>--- ------- ---- -- --- -------- --- - ----- ------ ---- --<br>maintain --- -------- -------- --- -------- ---- -- ----- -<br>-------- ---- --- ---------- --------- -- ------- ------ -<br>--------- ----- -----,174037.80000000075,174037,173464.537,173469.90000000224,173481.207,174048.057,,31,maintain
screen,html.Screen,0_4_1_0_1_32,2021-12-02T13:14:37.835Z,,,,,,,,,,,,,,,,15,,,,,,,,,,,,,,516.9429999999993,,response,,,7,C,,,,,Space,keypress(Space),,,,instrumental,---- --------- ---------- - --- ------- -- --- ------------<br>----- -- -------- ------- ---- ------ - -------- ---- -----<br>--- ------- ---- -- --- -------- --- - ----- ------ ---- --<br>-------- his -------- -------- --- -------- ---- -- ----- -<br>-------- ---- --- ---------- --------- -- ------- ------ -<br>--------- ----- -----,174565.90000000224,174565,174031.387,174038,174048.057,174581.586,,32,his
screen,html.Screen,0_4_1_0_1_33,2021-12-02T13:14:38.411Z,,,,,,,,,,,,,,,,15,,,,,,,,,,,,,,559.4139999999898,,response,,,7,C,,,,,Space,keypress(Space),,,,instrumental,---- --------- ---------- - --- ------- -- --- ------------<br>----- -- -------- ------- ---- ------ - -------- ---- -----<br>--- ------- ---- -- --- -------- --- - ----- ------ ---- --<br>-------- --- silence. -------- --- -------- ---- -- ----- -<br>-------- ---- --- ---------- --------- -- ------- ------ -<br>--------- ----- -----,175141.70000000298,175141,174564.915,174566.20000000298,174581.586,175148.344,,33,silence.
screen,html.Screen,0_4_1_0_1_34,2021-12-02T13:14:39.050Z,,,,,,,,,,,,,,,,15,,,,,,,,,,,,,,632.5560000022233,,response,,,7,C,,,,,Space,keypress(Space),,,,instrumental,---- --------- ---------- - --- ------- -- --- ------------<br>----- -- -------- ------- ---- ------ - -------- ---- -----<br>--- ------- ---- -- --- -------- --- - ----- ------ ---- --<br>-------- --- -------- Anderson --- -------- ---- -- ----- -<br>-------- ---- --- ---------- --------- -- ------- ------ -<br>--------- ----- -----,175781.6000000015,175780.90000000224,175131.674,175142,175148.344,175798.372,,34,Anderson
screen,html.Screen,0_4_1_0_1_35,2021-12-02T13:14:39.546Z,,,,,,,,,,,,,,,,15,,,,,,,,,,,,,,478.52800000223215,,response,,,7,C,,,,,Space,keypress(Space),,,,instrumental,---- --------- ---------- - --- ------- -- --- ------------<br>----- -- -------- ------- ---- ------ - -------- ---- -----<br>--- ------- ---- -- --- -------- --- - ----- ------ ---- --<br>-------- --- -------- -------- was -------- ---- -- ----- -<br>-------- ---- --- ---------- --------- -- ------- ------ -<br>--------- ----- -----,176277.6000000015,176276.90000000224,175781.703,175781.90000000224,175798.372,176282.092,,35,was
screen,html.Screen,0_4_1_0_1_36,2021-12-02T13:14:40.090Z,,,,,,,,,,,,,,,,15,,,,,,,,,,,,,,538.608000002976,,response,,,7,C,,,,,Space,keypress(Space),,,,instrumental,---- --------- ---------- - --- ------- -- --- ------------<br>----- -- -------- ------- ---- ------ - -------- ---- -----<br>--- ------- ---- -- --- -------- --- - ----- ------ ---- --<br>-------- --- -------- -------- --- released ---- -- ----- -<br>-------- ---- --- ---------- --------- -- ------- ------ -<br>--------- ----- -----,176821.40000000224,176820.70000000298,176265.42,176277.90000000224,176282.092,176832.138,,36,released
screen,html.Screen,0_4_1_0_1_37,2021-12-02T13:14:40.763Z,,,,,,,,,,,,,,,,15,,,,,,,,,,,,,,661.1620000007388,,response,,,7,C,,,,,Space,keypress(Space),,,,instrumental,---- --------- ---------- - --- ------- -- --- ------------<br>----- -- -------- ------- ---- ------ - -------- ---- -----<br>--- ------- ---- -- --- -------- --- - ----- ------ ---- --<br>-------- --- -------- -------- --- -------- July -- ----- -<br>-------- ---- --- ---------- --------- -- ------- ------ -<br>--------- ----- -----,177494,177493.30000000075,176815.468,176821.5,176832.138,177498.97,,37,July
screen,html.Screen,0_4_1_0_1_38,2021-12-02T13:14:41.346Z,,,,,,,,,,,,,,,,15,,,,,,,,,,,,,,577.8300000007439,,response,,,7,C,,,,,Space,keypress(Space),,,,instrumental,---- --------- ---------- - --- ------- -- --- ------------<br>----- -- -------- ------- ---- ------ - -------- ---- -----<br>--- ------- ---- -- --- -------- --- - ----- ------ ---- --<br>-------- --- -------- -------- --- -------- ---- 20 ----- -<br>-------- ---- --- ---------- --------- -- ------- ------ -<br>--------- ----- -----,178077.6000000015,178076.80000000075,177482.3,177494.30000000075,177498.97,178082.323,,38,20
screen,html.Screen,0_4_1_0_1_39,2021-12-02T13:14:41.962Z,,,,,,,,,,,,,,,,15,,,,,,,,,,,,,,610.4770000007411,,response,,,7,C,,,,,Space,keypress(Space),,,,instrumental,---- --------- ---------- - --- ------- -- --- ------------<br>----- -- -------- ------- ---- ------ - -------- ---- -----<br>--- ------- ---- -- --- -------- --- - ----- ------ ---- --<br>-------- --- -------- -------- --- -------- ---- -- after -<br>-------- ---- --- ---------- --------- -- ------- ------ -<br>--------- ----- -----,178693.5,178692.80000000075,178065.654,178077.90000000224,178082.323,178699.409,,39,after
screen,html.Screen,0_4_1_0_1_40,2021-12-02T13:14:42.634Z,,,,,,,,,,,,,,,,15,,,,,,,,,,,,,,665.3910000007309,,response,,,7,C,,,,,Space,keypress(Space),,,,instrumental,---- --------- ---------- - --- ------- -- --- ------------<br>----- -- -------- ------- ---- ------ - -------- ---- -----<br>--- ------- ---- -- --- -------- --- - ----- ------ ---- --<br>-------- --- -------- -------- --- -------- ---- -- ----- a<br>-------- ---- --- ---------- --------- -- ------- ------ -<br>--------- ----- -----,179365.6000000015,179364.80000000075,178682.737,178693.80000000075,178699.409,179382.786,,40,a
screen,html.Screen,0_4_1_0_1_41,2021-12-02T13:14:43.194Z,,,,,,,,,,,,,,,,15,,,,,,,,,,,,,,541.9140000029874,,response,,,7,C,,,,,Space,keypress(Space),,,,instrumental,---- --------- ---------- - --- ------- -- --- ------------<br>----- -- -------- ------- ---- ------ - -------- ---- -----<br>--- ------- ---- -- --- -------- --- - ----- ------ ---- --<br>-------- --- -------- -------- --- -------- ---- -- ----- -<br>two-week ---- --- ---------- --------- -- ------- ------ -<br>--------- ----- -----,179925.5,179924.70000000298,179366.116,179365.80000000075,179382.786,179932.814,,41,two-week
screen,html.Screen,0_4_1_0_1_42,2021-12-02T13:14:43.768Z,,,,,,,,,,,,,,,,15,,,,,,,,,,,,,,567.8860000029672,,response,,,7,C,,,,,Space,keypress(Space),,,,instrumental,---- --------- ---------- - --- ------- -- --- ------------<br>----- -- -------- ------- ---- ------ - -------- ---- -----<br>--- ------- ---- -- --- -------- --- - ----- ------ ---- --<br>-------- --- -------- -------- --- -------- ---- -- ----- -<br>-------- stay --- ---------- --------- -- ------- ------ -<br>--------- ----- -----,180501.5,180500.70000000298,179916.145,179925.80000000075,179932.814,180516.37,,42,stay
screen,html.Screen,0_4_1_0_1_43,2021-12-02T13:14:44.280Z,,,,,,,,,,,,,,,,15,,,,,,,,,,,,,,496.2300000014948,,response,,,7,C,,,,,Space,keypress(Space),,,,instrumental,---- --------- ---------- - --- ------- -- --- ------------<br>----- -- -------- ------- ---- ------ - -------- ---- -----<br>--- ------- ---- -- --- -------- --- - ----- ------ ---- --<br>-------- --- -------- -------- --- -------- ---- -- ----- -<br>-------- ---- for ---------- --------- -- ------- ------ -<br>--------- ----- -----,181013.40000000224,181012.6000000015,180499.7,180501.80000000075,180516.37,181016.681,,43,for
screen,html.Screen,0_4_1_0_1_44,2021-12-02T13:14:44.824Z,,,,,,,,,,,,,,,,15,,,,,,,,,,,,,,540.0190000029688,,response,,,7,C,,,,,Space,keypress(Space),,,,instrumental,---- --------- ---------- - --- ------- -- --- ------------<br>----- -- -------- ------- ---- ------ - -------- ---- -----<br>--- ------- ---- -- --- -------- --- - ----- ------ ---- --<br>-------- --- -------- -------- --- -------- ---- -- ----- -<br>-------- ---- --- previously --------- -- ------- ------ -<br>--------- ----- -----,181557.6000000015,181556.70000000298,181000.009,181013.6000000015,181016.681,181566.726,,44,previously
screen,html.Screen,0_4_1_0_1_45,2021-12-02T13:14:45.512Z,,,,,,,,,,,,,,,,15,,,,,,,,,,,,,,677.874000001495,,response,,,7,C,,,,,Space,keypress(Space),,,,instrumental,---- --------- ---------- - --- ------- -- --- ------------<br>----- -- -------- ------- ---- ------ - -------- ---- -----<br>--- ------- ---- -- --- -------- --- - ----- ------ ---- --<br>-------- --- -------- -------- --- -------- ---- -- ----- -<br>-------- ---- --- ---------- declining -- ------- ------ -<br>--------- ----- -----,182245.40000000224,182244.6000000015,181550.056,181557.90000000224,181566.726,182250.197,,45,declining
screen,html.Screen,0_4_1_0_1_46,2021-12-02T13:14:46.144Z,,,,,,,,,,,,,,,,15,,,,,,,,,,,,,,626.4030000015046,,response,,,7,C,,,,,Space,keypress(Space),,,,instrumental,---- --------- ---------- - --- ------- -- --- ------------<br>----- -- -------- ------- ---- ------ - -------- ---- -----<br>--- ------- ---- -- --- -------- --- - ----- ------ ---- --<br>-------- --- -------- -------- --- -------- ---- -- ----- -<br>-------- ---- --- ---------- --------- to ------- ------ -<br>--------- ----- -----,182877.40000000224,182876.6000000015,182233.527,182245.6000000015,182250.197,182883.82,,46,to
screen,html.Screen,0_4_1_0_1_47,2021-12-02T13:14:46.784Z,,,,,,,,,,,,,,,,15,,,,,,,,,,,,,,632.7800000014831,,response,,,7,C,,,,,Space,keypress(Space),,,,instrumental,---- --------- ---------- - --- ------- -- --- ------------<br>----- -- -------- ------- ---- ------ - -------- ---- -----<br>--- ------- ---- -- --- -------- --- - ----- ------ ---- --<br>-------- --- -------- -------- --- -------- ---- -- ----- -<br>-------- ---- --- ---------- --------- -- testify ------ -<br>--------- ----- -----,183517.40000000224,183516.6000000015,182867.149,182877.6000000015,182883.82,183533.878,,47,testify
screen,html.Screen,0_4_1_0_1_48,2021-12-02T13:14:47.320Z,,,,,,,,,,,,,,,,15,,,,,,,,,,,,,,518.622000000003,,response,,,7,C,,,,,Space,keypress(Space),,,,instrumental,---- --------- ---------- - --- ------- -- --- ------------<br>----- -- -------- ------- ---- ------ - -------- ---- -----<br>--- ------- ---- -- --- -------- --- - ----- ------ ---- --<br>-------- --- -------- -------- --- -------- ---- -- ----- -<br>-------- ---- --- ---------- --------- -- ------- before -<br>--------- ----- -----,184053.30000000075,184052.5,183517.208,183517.5,183533.878,184067.395,,48,before
screen,html.Screen,0_4_1_0_1_49,2021-12-02T13:14:47.872Z,,,,,,,,,,,,,,,,15,,,,,,,,,,,,,,537.1050000000105,,response,,,7,C,,,,,Space,keypress(Space),,,,instrumental,---- --------- ---------- - --- ------- -- --- ------------<br>----- -- -------- ------- ---- ------ - -------- ---- -----<br>--- ------- ---- -- --- -------- --- - ----- ------ ---- --<br>-------- --- -------- -------- --- -------- ---- -- ----- -<br>-------- ---- --- ---------- --------- -- ------- ------ a<br>--------- ----- -----,184605.30000000075,184604.5,184050.725,184053.5,184067.395,184617.543,,49,a
screen,html.Screen,0_4_1_0_1_50,2021-12-02T13:14:48.488Z,,,,,,,,,,,,,,,,15,,,,,,,,,,,,,,602.9569999999949,,response,,,7,C,,,,,Space,keypress(Space),,,,instrumental,---- --------- ---------- - --- ------- -- --- ------------<br>----- -- -------- ------- ---- ------ - -------- ---- -----<br>--- ------- ---- -- --- -------- --- - ----- ------ ---- --<br>-------- --- -------- -------- --- -------- ---- -- ----- -<br>-------- ---- --- ---------- --------- -- ------- ------ -<br>different ----- -----,185221.30000000075,185220.5,184600.873,184605.5,184617.543,185234.352,,50,different
screen,html.Screen,0_4_1_0_1_51,2021-12-02T13:14:49.104Z,,,,,,,,,,,,,,,,15,,,,,,,,,,,,,,602.0480000022217,,response,,,7,C,,,,,Space,keypress(Space),,,,instrumental,---- --------- ---------- - --- ------- -- --- ------------<br>----- -- -------- ------- ---- ------ - -------- ---- -----<br>--- ------- ---- -- --- -------- --- - ----- ------ ---- --<br>-------- --- -------- -------- --- -------- ---- -- ----- -<br>-------- ---- --- ---------- --------- -- ------- ------ -<br>--------- grand -----,185837.20000000298,185836.40000000224,185217.682,185221.5,185234.352,185851.195,,51,grand
screen,html.Screen,0_4_1_0_1_52,2021-12-02T13:14:49.728Z,,,,,,,,,,,,,,,,15,,,,,,,,,,,,,,609.304999999993,,response,,,7,C,,,,,Space,keypress(Space),,,,instrumental,---- --------- ---------- - --- ------- -- --- ------------<br>----- -- -------- ------- ---- ------ - -------- ---- -----<br>--- ------- ---- -- --- -------- --- - ----- ------ ---- --<br>-------- --- -------- -------- --- -------- ---- -- ----- -<br>-------- ---- --- ---------- --------- -- ------- ------ -<br>--------- ----- jury.,186461.20000000298,186460.5,185834.525,185837.5,185851.195,186468.025,,52,jury.
