sender,sender_type,sender_id,timestamp,meta,,Blues,Classical,Country,Dance,Electronic,Folk,Gospel,Hip-Hop,Jazz,Latin,Musical/Film,New-age,Pop,Prolific_id,Provo_ID,R&B,Rap,Reggae,Religious,Rock,Soul,Swing,Traditional,age,artist_name,correct,correctResponse,distraction,duration,education,ended_on,familiarity,gender,headphone_check_performance,item,list,music_frequency,offensiveness,pleasantness,position_correct,preference,response,response_action,snippet_file,song_name,song_rating,sound,stimulus_1,stimulus_2,stimulus_3,text,time_commit,time_end,time_render,time_run,time_show,time_switch,url,word,word_ID
Prolific ID,html.Form,0,2022-02-03T13:03:07.530Z,"{""labjs_version"":""20.2.2"",""labjs_build"":{""flavor"":""production"",""commit"":""a25486e0c714a0ae2ce03ff94b7bb6896854dcfa""},""location"":""https://run.pavlovia.org/mvasilev/prolific2_music_f/"",""userAgent"":""Mozilla/5.0 (Macintosh; Intel Mac OS X 10_15_7) AppleWebKit/537.36 (KHTML, like Gecko) Chrome/94.0.4606.81 Safari/537.36"",""platform"":""MacIntel"",""language"":""en-GB"",""locale"":""en-GB"",""timeZone"":""Europe/London"",""timezoneOffset"":0,""screen_width"":1440,""screen_height"":900,""scroll_width"":1440,""scroll_height"":716,""window_innerWidth"":1440,""window_innerHeight"":764,""devicePixelRatio"":2}",,,,,,,,,,,,,,,6162dc2bee2699a19022b8f4,,,,,,,,,,,,,,,5755.226999999999,,form submission,,,,,,,,,,,,,,,,,,,,,37111.80000001192,37111,31339.107,31341.80000001192,31355.773,37119.515,{},,
Introduction,html.Screen,1_0,2022-02-03T13:03:12.057Z,,,,,,,,,,,,,,,,,,,,,,,,,,,,,,,4512.985000000001,,response,,,,,,,,,,,continue,click button,,,,,,,,,41638.80000001192,41632.5,37102.849,37112.59999999404,37119.515,41636.001,,,
Volume calibration,html.Screen,1_1,2022-02-03T13:03:32.907Z,,,,,,,,,,,,,,,,,,,,,,,,,,,,,,,20842.399000005964,,response,,,,,,,,,,,continue,click button,,,,,,,,,62488.09999999404,62478.40000000596,41619.335,41639,41636.001,62492.855,,,
Task instructions,html.Screen,1_2,2022-02-03T13:03:40.169Z,,,,,,,,,,,,,,,,,,,,,,,,,,,,,,,7254.144999999997,,response,,,,,,,,,,,continue,click button,,,,,,,,,69750.09999999404,69747,62476.189,62488.20000001788,62492.855,69756.546,,,
Sounds,html.Screen,1_3_0_0,2022-02-03T13:03:44.415Z,,,,,,,,,,,,,,,,,,,,,,,,,,,,,,,4249.830000000002,,timeout,,,,,,,,,1,,,,,,,,S,O,I,,73995.59999999404,73989.71,69739.88,69750.40000000596,69756.546,74006.376,,,
Judgement,html.Screen,1_3_0_1,2022-02-03T13:03:48.124Z,,,,,,,,,,,,,,,,,,,,,,,,,,,,true,1,,3694.8240000178776,,response,,,,,,,,,1,,1,click #choice-1,,,,,S,O,I,,77705.30000001192,77701.20000001788,73989.71,73995.80000001192,74006.376,77719.297,,,
Trial,flow.Sequence,1_3_0,2022-02-03T13:03:48.127Z,,,,,,,,,,,,,,,,,,,,,,,,,,,,,,,7944.654000017879,,completion,,,,,,,,,1,,,,,,,,S,O,I,,77708,77701.20000001788,69739.88,69750.40000000596,69756.546,77719.297,,,
Sounds,html.Screen,1_3_1_0,2022-02-03T13:03:52.374Z,,,,,,,,,,,,,,,,,,,,,,,,,,,,,,,4249.829999999987,,timeout,,,,,,,,,2,,,,,,,,O,S,I,,81954.59999999404,81952.461,77702.631,77709.20000001788,77719.297,81969.127,,,
Judgement,html.Screen,1_3_1_1,2022-02-03T13:03:53.491Z,,,,,,,,,,,,,,,,,,,,,,,,,,,,false,2,,1099.4729999940464,,response,,,,,,,,,2,,1,click #choice-1,,,,,O,S,I,,83072.30000001192,83068.59999999404,81952.461,81954.80000001192,81969.127,83085.749,,,
Trial,flow.Sequence,1_3_1,2022-02-03T13:03:53.492Z,,,,,,,,,,,,,,,,,,,,,,,,,,,,,,,5349.302999994034,,completion,,,,,,,,,2,,,,,,,,O,S,I,,83072.80000001192,83068.59999999404,77702.631,77708.90000000596,77719.297,83085.749,,,
Sounds,html.Screen,1_3_2_0,2022-02-03T13:03:57.740Z,,,,,,,,,,,,,,,,,,,,,,,,,,,,,,,4249.830000000002,,timeout,,,,,,,,,3,,,,,,,,O,I,S,,87320.59999999404,87318.913,83069.083,83073.09999999404,83085.749,87335.579,,,
Judgement,html.Screen,1_3_2_1,2022-02-03T13:03:58.417Z,,,,,,,,,,,,,,,,,,,,,,,,,,,,true,3,,657.9210000000021,,response,,,,,,,,,3,,3,click #choice-3,,,,,O,I,S,,87997.40000000596,87993.5,87318.913,87320.90000000596,87335.579,88001.188,,,
Trial,flow.Sequence,1_3_2,2022-02-03T13:03:58.417Z,,,,,,,,,,,,,,,,,,,,,,,,,,,,,,,4907.751000000004,,completion,,,,,,,,,3,,,,,,,,O,I,S,,87997.90000000596,87993.5,83069.083,83073,83085.749,88001.188,,,
Sounds,html.Screen,1_3_3_0,2022-02-03T13:04:02.657Z,,,,,,,,,,,,,,,,,,,,,,,,,,,,,,,4249.830000000002,,timeout,,,,,,,,,1,,,,,,,,S,I,O,,92237.59999999404,92234.352,87984.522,87998.09999999404,88001.188,92251.018,,,
Judgement,html.Screen,1_3_3_1,2022-02-03T13:04:03.490Z,,,,,,,,,,,,,,,,,,,,,,,,,,,,true,1,,815.7820000119245,,response,,,,,,,,,1,,1,click #choice-1,,,,,S,I,O,,93070.40000000596,93066.80000001192,92234.352,92237.80000001192,92251.018,93084.318,,,
Trial,flow.Sequence,1_3_3,2022-02-03T13:04:03.490Z,,,,,,,,,,,,,,,,,,,,,,,,,,,,,,,5065.612000011926,,completion,,,,,,,,,1,,,,,,,,S,I,O,,93070.80000001192,93066.80000001192,87984.522,87998,88001.188,93084.318,,,
Sounds,html.Screen,1_3_4_0,2022-02-03T13:04:07.740Z,,,,,,,,,,,,,,,,,,,,,,,,,,,,,,,4249.830000000002,,timeout,,,,,,,,,2,,,,,,,,I,S,O,,97320.90000000596,97317.482,93067.652,93070.90000000596,93084.318,97334.148,,,
Judgement,html.Screen,1_3_4_1,2022-02-03T13:04:08.143Z,,,,,,,,,,,,,,,,,,,,,,,,,,,,true,2,,385.85199999999895,,response,,,,,,,,,2,,2,click #choice-2,,,,,I,S,O,,97723.09999999404,97720,97317.482,97321.09999999404,97334.148,97750.798,,,
Trial,flow.Sequence,1_3_4,2022-02-03T13:04:08.143Z,,,,,,,,,,,,,,,,,,,,,,,,,,,,,,,4635.682000000001,,completion,,,,,,,,,2,,,,,,,,I,S,O,,97723.40000000596,97720,93067.652,93070.80000001192,93084.318,97750.798,,,
Sounds,html.Screen,1_3_5_0,2022-02-03T13:04:12.406Z,,,,,,,,,,,,,,,,,,,,,,,,,,,,,,,4249.830000000002,,timeout,,,,,,,,,3,,,,,,,,I,O,S,,101986.5,101983.962,97734.132,97723.5,97750.798,102000.628,,,
Judgement,html.Screen,1_3_5_1,2022-02-03T13:04:13.179Z,,,,,,,,,,,,,,,,,,,,,,,,,,,,true,3,,755.4719999940426,,response,,,,,,,,,3,,3,click #choice-3,,,,,I,O,S,,102759.59999999404,102756.09999999404,101983.962,101986.59999999404,102000.628,102771.728,,,
Trial,flow.Sequence,1_3_5,2022-02-03T13:04:13.179Z,,,,,,,,,,,,,,,,,,,,,,,,,,,,,,,5005.301999994044,,completion,,,,,,,,,3,,,,,,,,I,O,S,,102759.90000000596,102756.09999999404,97734.132,97723.40000000596,97750.798,102771.728,,,
Task,flow.Loop,1_3,2022-02-03T13:04:13.188Z,,,,,,,,,,,,,,,,,,,,,,,,,,,,,,,32999.55399999404,,completion,,,0.8333333333333334,,,,,,,,,,,,,,,,,,102768.40000000596,102756.09999999404,69739.88,69750.30000001192,69756.546,102771.728,,,
Trap,html.Screen,1_4,2022-02-03T13:04:13.189Z,,,,,,,,,,,,,,,,,,,,,,,,,,,,,,,NaN,,skipped,,,,,,,,,,,,,,,,,,,,,102769.59999999404,102756.09999999404,,102769.5,,102771.728,,,
Thanks,html.Screen,1_5,2022-02-03T13:04:15.809Z,,,,,,,,,,,,,,,,,,,,,,,,,,,,,,,2613.771999999997,,response,,,,,,,,,,,continue,click button,,,,,,,,,105389.40000000596,105385.5,102755.062,102769.80000001192,102771.728,110321.426,,,
Headphone screening,flow.Sequence,1,2022-02-03T13:04:15.809Z,,,,,,,,,,,,,,,,,,,,,,,,,,,,,,,68265.985,,completion,,,,,,,,,,,,,,,,,,,,,105389.59999999404,105385.5,37102.849,37112.5,37119.515,110321.426,,,
Instructions,html.Page,2_0,2022-02-03T13:04:31.590Z,,,,,,,,,,,,,,,,,,,,,,,,,,,,,,,10848.173999994033,,form submission,,,,,,,,,,,,,,,,,,,,,121170.09999999404,121169.59999999404,110204.764,110327.59999999404,110321.426,121184.95,,,
Holding screen,html.Screen,2_1_0_0,2022-02-03T13:04:41.586Z,,,,,,,,,,,,,,,,,,,,,,,,,,,,,,,10012.18800000001,,timeout,,,,,,,,,,,,,,,,,,,,,131165.5,131163.806,121168.284,121170.40000000596,121184.95,131197.138,,,
screen,html.Screen,2_1_0_1_0,2022-02-03T13:04:43.671Z,,,,,,,,,,,,,,,,,53,,,,,,,,,,,,,,2043.7620000059542,,response,,,,99,,,,,,,Space,keypress(Space),,,,,,,,When -- ----- -- ------ - ------- --- ----------<br>------------- ------ ------ ---- ---- ------- ----- -- ----<br>-------- ------- -- ---------- --- - --- ----- ----- ----<br>---- --- --- ----- --- ---- ---- ------- ----- ---- -------<br>--- --- -- ----- -- --- ---- -- --- ---- -- ------ ------<br>--- ----- -- ----,133251,133240.90000000596,131163.806,131165.80000001192,131197.138,133263.722,,0,When
screen,html.Screen,2_1_0_1_1,2022-02-03T13:04:44.214Z,,,,,,,,,,,,,,,,,53,,,,,,,,,,,,,,523.7779999999912,,response,,,,99,,,,,,,Space,keypress(Space),,,,,,,,---- it ----- -- ------ - ------- --- ----------<br>------------- ------ ------ ---- ---- ------- ----- -- ----<br>-------- ------- -- ---------- --- - --- ----- ----- ----<br>---- --- --- ----- --- ---- ---- ------- ----- ---- -------<br>--- --- -- ----- -- --- ---- -- --- ---- -- ------ ------<br>--- ----- -- ----,133794.20000001788,133787.5,133247.056,133251.09999999404,133263.722,133798.293,,1,it
screen,html.Screen,2_1_0_1_2,2022-02-03T13:04:44.627Z,,,,,,,,,,,,,,,,,53,,,,,,,,,,,,,,402.2069999999949,,response,,,,99,,,,,,,Space,keypress(Space),,,,,,,,---- -- comes -- ------ - ------- --- ----------<br>------------- ------ ------ ---- ---- ------- ----- -- ----<br>-------- ------- -- ---------- --- - --- ----- ----- ----<br>---- --- --- ----- --- ---- ---- ------- ----- ---- -------<br>--- --- -- ----- -- --- ---- -- --- ---- -- ------ ------<br>--- ----- -- ----,134207.40000000596,134200.5,133781.627,133794.40000000596,133798.293,134214.943,,2,comes
screen,html.Screen,2_1_0_1_3,2022-02-03T13:04:45.016Z,,,,,,,,,,,,,,,,,53,,,,,,,,,,,,,,373.5570000000007,,response,,,,99,,,,,,,Space,keypress(Space),,,,,,,,---- -- ----- to ------ - ------- --- ----------<br>------------- ------ ------ ---- ---- ------- ----- -- ----<br>-------- ------- -- ---------- --- - --- ----- ----- ----<br>---- --- --- ----- --- ---- ---- ------- ----- ---- -------<br>--- --- -- ----- -- --- ---- -- --- ---- -- ------ ------<br>--- ----- -- ----,134596.40000000596,134588.5,134198.277,134207.59999999404,134214.943,134614.927,,3,to
screen,html.Screen,2_1_0_1_4,2022-02-03T13:04:45.445Z,,,,,,,,,,,,,,,,,53,,,,,,,,,,,,,,403.57300000000396,,response,,,,99,,,,,,,Space,keypress(Space),,,,,,,,---- -- ----- -- having - ------- --- ----------<br>------------- ------ ------ ---- ---- ------- ----- -- ----<br>-------- ------- -- ---------- --- - --- ----- ----- ----<br>---- --- --- ----- --- ---- ---- ------- ----- ---- -------<br>--- --- -- ----- -- --- ---- -- --- ---- -- ------ ------<br>--- ----- -- ----,135025.20000001788,135018.5,134598.261,134596.5,134614.927,135031.577,,4,having
screen,html.Screen,2_1_0_1_5,2022-02-03T13:04:45.811Z,,,,,,,,,,,,,,,,,53,,,,,,,,,,,,,,351.0229999940493,,response,,,,99,,,,,,,Space,keypress(Space),,,,,,,,---- -- ----- -- ------ a ------- --- ----------<br>------------- ------ ------ ---- ---- ------- ----- -- ----<br>-------- ------- -- ---------- --- - --- ----- ----- ----<br>---- --- --- ----- --- ---- ---- ------- ----- ---- -------<br>--- --- -- ----- -- --- ---- -- --- ---- -- ------ ------<br>--- ----- -- ----,135390.70000001788,135382.59999999404,135014.911,135025.30000001192,135031.577,135398.229,,5,a
screen,html.Screen,2_1_0_1_6,2022-02-03T13:04:46.283Z,,,,,,,,,,,,,,,,,53,,,,,,,,,,,,,,457.37099999404745,,response,,,,99,,,,,,,Space,keypress(Space),,,,,,,,---- -- ----- -- ------ - lasting --- ----------<br>------------- ------ ------ ---- ---- ------- ----- -- ----<br>-------- ------- -- ---------- --- - --- ----- ----- ----<br>---- --- --- ----- --- ---- ---- ------- ----- ---- -------<br>--- --- -- ----- -- --- ---- -- --- ---- -- ------ ------<br>--- ----- -- ----,135862.5,135855.59999999404,135381.563,135390.80000001192,135398.229,135864.877,,6,lasting
screen,html.Screen,2_1_0_1_7,2022-02-03T13:04:46.759Z,,,,,,,,,,,,,,,,,53,,,,,,,,,,,,,,467.6229999999923,,response,,,,99,,,,,,,Space,keypress(Space),,,,,,,,---- -- ----- -- ------ - ------- and ----------<br>------------- ------ ------ ---- ---- ------- ----- -- ----<br>-------- ------- -- ---------- --- - --- ----- ----- ----<br>---- --- --- ----- --- ---- ---- ------- ----- ---- -------<br>--- --- -- ----- -- --- ---- -- --- ---- -- ------ ------<br>--- ----- -- ----,136339.09999999404,136332.5,135848.211,135862.59999999404,135864.877,136348.191,,7,and
screen,html.Screen,2_1_0_1_8,2022-02-03T13:04:47.236Z,,,,,,,,,,,,,,,,,53,,,,,,,,,,,,,,460.4089999940479,,response,,,,99,,,,,,,Space,keypress(Space),,,,,,,,---- -- ----- -- ------ - ------- --- fulfilling<br>------------- ------ ------ ---- ---- ------- ----- -- ----<br>-------- ------- -- ---------- --- - --- ----- ----- ----<br>---- --- --- ----- --- ---- ---- ------- ----- ---- -------<br>--- --- -- ----- -- --- ---- -- --- ---- -- ------ ------<br>--- ----- -- ----,136815.40000000596,136808.59999999404,136331.525,136339.20000001788,136348.191,136831.505,,8,fulfilling
screen,html.Screen,2_1_0_1_9,2022-02-03T13:04:48.430Z,,,,,,,,,,,,,,,,,53,,,,,,,,,,,,,,1171.8950000059558,,response,,,,99,,,,,,,Space,keypress(Space),,,,,,,,"---- -- ----- -- ------ - ------- --- ----------<br>relationship, ------ ------ ---- ---- ------- ----- -- ----<br>-------- ------- -- ---------- --- - --- ----- ----- ----<br>---- --- --- ----- --- ---- ---- ------- ----- ---- -------<br>--- --- -- ----- -- --- ---- -- --- ---- -- ------ ------<br>--- ----- -- ----",138010.40000000596,138003.40000000596,136814.839,136815.59999999404,136831.505,138014.791,,9,"relationship,"
screen,html.Screen,2_1_0_1_10,2022-02-03T13:04:49.140Z,,,,,,,,,,,,,,,,,53,,,,,,,,,,,,,,697.7090000000026,,response,,,,99,,,,,,,Space,keypress(Space),,,,,,,,---- -- ----- -- ------ - ------- --- ----------<br>------------- common ------ ---- ---- ------- ----- -- ----<br>-------- ------- -- ---------- --- - --- ----- ----- ----<br>---- --- --- ----- --- ---- ---- ------- ----- ---- -------<br>--- --- -- ----- -- --- ---- -- --- ---- -- ------ ------<br>--- ----- -- ----,138719.30000001192,138712.5,137998.125,138010.40000000596,138014.791,138731.429,,10,common
screen,html.Screen,2_1_0_1_11,2022-02-03T13:04:49.721Z,,,,,,,,,,,,,,,,,53,,,,,,,,,,,,,,562.8710000119172,,response,,,,99,,,,,,,Space,keypress(Space),,,,,,,,---- -- ----- -- ------ - ------- --- ----------<br>------------- ------ wisdom ---- ---- ------- ----- -- ----<br>-------- ------- -- ---------- --- - --- ----- ----- ----<br>---- --- --- ----- --- ---- ---- ------- ----- ---- -------<br>--- --- -- ----- -- --- ---- -- --- ---- -- ------ ------<br>--- ----- -- ----,139301.30000001192,139294.30000001192,138714.763,138719.5,138731.429,139314.739,,11,wisdom
screen,html.Screen,2_1_0_1_12,2022-02-03T13:04:50.266Z,,,,,,,,,,,,,,,,,53,,,,,,,,,,,,,,524.46100001788,,response,,,,99,,,,,,,Space,keypress(Space),,,,,,,,---- -- ----- -- ------ - ------- --- ----------<br>------------- ------ ------ says ---- ------- ----- -- ----<br>-------- ------- -- ---------- --- - --- ----- ----- ----<br>---- --- --- ----- --- ---- ---- ------- ----- ---- -------<br>--- --- -- ----- -- --- ---- -- --- ---- -- ------ ------<br>--- ----- -- ----,139846,139839.20000001788,139298.073,139301.40000000596,139314.739,139848.051,,12,says
screen,html.Screen,2_1_0_1_13,2022-02-03T13:04:50.726Z,,,,,,,,,,,,,,,,,53,,,,,,,,,,,,,,451.3490000059537,,response,,,,99,,,,,,,Space,keypress(Space),,,,,,,,---- -- ----- -- ------ - ------- --- ----------<br>------------- ------ ------ ---- that ------- ----- -- ----<br>-------- ------- -- ---------- --- - --- ----- ----- ----<br>---- --- --- ----- --- ---- ---- ------- ----- ---- -------<br>--- --- -- ----- -- --- ---- -- --- ---- -- ------ ------<br>--- ----- -- ----,140306.20000001788,140299.40000000596,139831.385,139846.20000001788,139848.051,140314.699,,13,that
screen,html.Screen,2_1_0_1_14,2022-02-03T13:04:51.157Z,,,,,,,,,,,,,,,,,53,,,,,,,,,,,,,,414.50100001788815,,response,,,,99,,,,,,,Space,keypress(Space),,,,,,,,---- -- ----- -- ------ - ------- --- ----------<br>------------- ------ ------ ---- ---- feeling ----- -- ----<br>-------- ------- -- ---------- --- - --- ----- ----- ----<br>---- --- --- ----- --- ---- ---- ------- ----- ---- -------<br>--- --- -- ----- -- --- ---- -- --- ---- -- ------ ------<br>--- ----- -- ----,140736.90000000596,140729.20000001788,140298.033,140306.30000001192,140314.699,140748.015,,14,feeling
screen,html.Screen,2_1_0_1_15,2022-02-03T13:04:51.581Z,,,,,,,,,,,,,,,,,53,,,,,,,,,,,,,,406.3850000059465,,response,,,,99,,,,,,,Space,keypress(Space),,,,,,,,---- -- ----- -- ------ - ------- --- ----------<br>------------- ------ ------ ---- ---- ------- close -- ----<br>-------- ------- -- ---------- --- - --- ----- ----- ----<br>---- --- --- ----- --- ---- ---- ------- ----- ---- -------<br>--- --- -- ----- -- --- ---- -- --- ---- -- ------ ------<br>--- ----- -- ----,141161.09999999404,141154.40000000596,140731.349,140737,140748.015,141164.665,,15,close
screen,html.Screen,2_1_0_1_16,2022-02-03T13:04:52.016Z,,,,,,,,,,,,,,,,,53,,,,,,,,,,,,,,424.7350000059523,,response,,,,99,,,,,,,Space,keypress(Space),,,,,,,,---- -- ----- -- ------ - ------- --- ----------<br>------------- ------ ------ ---- ---- ------- ----- to ----<br>-------- ------- -- ---------- --- - --- ----- ----- ----<br>---- --- --- ----- --- ---- ---- ------- ----- ---- -------<br>--- --- -- ----- -- --- ---- -- --- ---- -- ------ ------<br>--- ----- -- ----,141596.20000001788,141589.40000000596,141147.999,141161.30000001192,141164.665,141597.981,,16,to
screen,html.Screen,2_1_0_1_17,2022-02-03T13:04:52.431Z,,,,,,,,,,,,,,,,,53,,,,,,,,,,,,,,405.4190000059607,,response,,,,99,,,,,,,Space,keypress(Space),,,,,,,,---- -- ----- -- ------ - ------- --- ----------<br>------------- ------ ------ ---- ---- ------- ----- -- your<br>-------- ------- -- ---------- --- - --- ----- ----- ----<br>---- --- --- ----- --- ---- ---- ------- ----- ---- -------<br>--- --- -- ----- -- --- ---- -- --- ---- -- ------ ------<br>--- ----- -- ----,142010.40000000596,142003.40000000596,141581.315,141596.40000000596,141597.981,142014.631,,17,your
screen,html.Screen,2_1_0_1_18,2022-02-03T13:04:52.991Z,,,,,,,,,,,,,,,,,53,,,,,,,,,,,,,,549.7690000059665,,response,,,,99,,,,,,,Space,keypress(Space),,,,,,,,---- -- ----- -- ------ - ------- --- ----------<br>------------- ------ ------ ---- ---- ------- ----- -- ----<br>romantic ------- -- ---------- --- - --- ----- ----- ----<br>---- --- --- ----- --- ---- ---- ------- ----- ---- -------<br>--- --- -- ----- -- --- ---- -- --- ---- -- ------ ------<br>--- ----- -- ----,142570.80000001192,142564.40000000596,141997.965,142010.5,142014.631,142586.095,,18,romantic
screen,html.Screen,2_1_0_1_19,2022-02-03T13:04:53.450Z,,,,,,,,,,,,,,,,,53,,,,,,,,,,,,,,437.20500001191976,,response,,,,99,,,,,,,Space,keypress(Space),,,,,,,,---- -- ----- -- ------ - ------- --- ----------<br>------------- ------ ------ ---- ---- ------- ----- -- ----<br>-------- partner -- ---------- --- - --- ----- ----- ----<br>---- --- --- ----- --- ---- ---- ------- ----- ---- -------<br>--- --- -- ----- -- --- ---- -- --- ---- -- ------ ------<br>--- ----- -- ----,143030,143023.30000001192,142569.429,142571,142586.095,143036.077,,19,partner
screen,html.Screen,2_1_0_1_20,2022-02-03T13:04:53.884Z,,,,,,,,,,,,,,,,,53,,,,,,,,,,,,,,419.2230000119307,,response,,,,99,,,,,,,Space,keypress(Space),,,,,,,,---- -- ----- -- ------ - ------- --- ----------<br>------------- ------ ------ ---- ---- ------- ----- -- ----<br>-------- ------- is ---------- --- - --- ----- ----- ----<br>---- --- --- ----- --- ---- ---- ------- ----- ---- -------<br>--- --- -- ----- -- --- ---- -- --- ---- -- ------ ------<br>--- ----- -- ----,143463.90000000596,143455.30000001192,143019.411,143030.20000001788,143036.077,143469.393,,20,is
screen,html.Screen,2_1_0_1_21,2022-02-03T13:04:54.888Z,,,,,,,,,,,,,,,,,53,,,,,,,,,,,,,,991.8070000178705,,response,,,,99,,,,,,,Space,keypress(Space),,,,,,,,---- -- ----- -- ------ - ------- --- ----------<br>------------- ------ ------ ---- ---- ------- ----- -- ----<br>-------- ------- -- paramount. --- - --- ----- ----- ----<br>---- --- --- ----- --- ---- ---- ------- ----- ---- -------<br>--- --- -- ----- -- --- ---- -- --- ---- -- ------ ------<br>--- ----- -- ----,144468.20000001788,144461.20000001788,143452.727,143464,143469.393,144486.019,,21,paramount.
screen,html.Screen,2_1_0_1_22,2022-02-03T13:04:55.594Z,,,,,,,,,,,,,,,,,53,,,,,,,,,,,,,,681.2810000119207,,response,,,,99,,,,,,,Space,keypress(Space),,,,,,,,---- -- ----- -- ------ - ------- --- ----------<br>------------- ------ ------ ---- ---- ------- ----- -- ----<br>-------- ------- -- ---------- But - --- ----- ----- ----<br>---- --- --- ----- --- ---- ---- ------- ----- ---- -------<br>--- --- -- ----- -- --- ---- -- --- ---- -- ------ ------<br>--- ----- -- ----,145174,145167.30000001192,144469.353,144468.40000000596,144486.019,145185.991,,22,But
screen,html.Screen,2_1_0_1_23,2022-02-03T13:04:56.134Z,,,,,,,,,,,,,,,,,53,,,,,,,,,,,,,,521.2090000178723,,response,,,,99,,,,,,,Space,keypress(Space),,,,,,,,---- -- ----- -- ------ - ------- --- ----------<br>------------- ------ ------ ---- ---- ------- ----- -- ----<br>-------- ------- -- ---------- --- a --- ----- ----- ----<br>---- --- --- ----- --- ---- ---- ------- ----- ---- -------<br>--- --- -- ----- -- --- ---- -- --- ---- -- ------ ------<br>--- ----- -- ----,145714,145707.20000001788,145169.325,145174.20000001788,145185.991,145719.303,,23,a
screen,html.Screen,2_1_0_1_24,2022-02-03T13:04:57.141Z,,,,,,,,,,,,,,,,,53,,,,,,,,,,,,,,991.897000017867,,response,,,,99,,,,,,,Space,keypress(Space),,,,,,,,---- -- ----- -- ------ - ------- --- ----------<br>------------- ------ ------ ---- ---- ------- ----- -- ----<br>-------- ------- -- ---------- --- - new ----- ----- ----<br>---- --- --- ----- --- ---- ---- ------- ----- ---- -------<br>--- --- -- ----- -- --- ---- -- --- ---- -- ------ ------<br>--- ----- -- ----,146720.09999999404,146711.20000001788,145702.637,145714.09999999404,145719.303,146735.929,,24,new
screen,html.Screen,2_1_0_1_25,2022-02-03T13:04:57.640Z,,,,,,,,,,,,,,,,,53,,,,,,,,,,,,,,476.27100001787767,,response,,,,99,,,,,,,Space,keypress(Space),,,,,,,,---- -- ----- -- ------ - ------- --- ----------<br>------------- ------ ------ ---- ---- ------- ----- -- ----<br>-------- ------- -- ---------- --- - --- study ----- ----<br>---- --- --- ----- --- ---- ---- ------- ----- ---- -------<br>--- --- -- ----- -- --- ---- -- --- ---- -- ------ ------<br>--- ----- -- ----,147219.20000001788,147212.20000001788,146719.263,146720.30000001192,146735.929,147235.909,,25,study
screen,html.Screen,2_1_0_1_26,2022-02-03T13:04:58.124Z,,,,,,,,,,,,,,,,,53,,,,,,,,,,,,,,460.2910000178672,,response,,,,99,,,,,,,Space,keypress(Space),,,,,,,,---- -- ----- -- ------ - ------- --- ----------<br>------------- ------ ------ ---- ---- ------- ----- -- ----<br>-------- ------- -- ---------- --- - --- ----- finds ----<br>---- --- --- ----- --- ---- ---- ------- ----- ---- -------<br>--- --- -- ----- -- --- ---- -- --- ---- -- ------ ------<br>--- ----- -- ----,147703.70000001788,147696.20000001788,147219.243,147219.40000000596,147235.909,147719.223,,26,finds
screen,html.Screen,2_1_0_1_27,2022-02-03T13:04:58.537Z,,,,,,,,,,,,,,,,,53,,,,,,,,,,,,,,390.77700000000186,,response,,,,99,,,,,,,Space,keypress(Space),,,,,,,,---- -- ----- -- ------ - ------- --- ----------<br>------------- ------ ------ ---- ---- ------- ----- -- ----<br>-------- ------- -- ---------- --- - --- ----- ----- that<br>---- --- --- ----- --- ---- ---- ------- ----- ---- -------<br>--- --- -- ----- -- --- ---- -- --- ---- -- ------ ------<br>--- ----- -- ----,148117,148110,147702.557,147705.5,147719.223,148119.207,,27,that
screen,html.Screen,2_1_0_1_28,2022-02-03T13:04:59.027Z,,,,,,,,,,,,,,,,,53,,,,,,,,,,,,,,480.7930000000051,,response,,,,99,,,,,,,Space,keypress(Space),,,,,,,,---- -- ----- -- ------ - ------- --- ----------<br>------------- ------ ------ ---- ---- ------- ----- -- ----<br>-------- ------- -- ---------- --- - --- ----- ----- ----<br>it's --- --- ----- --- ---- ---- ------- ----- ---- -------<br>--- --- -- ----- -- --- ---- -- --- ---- -- ------ ------<br>--- ----- -- ----,148606.90000000596,148600,148102.541,148117.20000001788,148119.207,148619.187,,28,it's
screen,html.Screen,2_1_0_1_29,2022-02-03T13:04:59.443Z,,,,,,,,,,,,,,,,,53,,,,,,,,,,,,,,396.81299999999464,,response,,,,99,,,,,,,Space,keypress(Space),,,,,,,,---- -- ----- -- ------ - ------- --- ----------<br>------------- ------ ------ ---- ---- ------- ----- -- ----<br>-------- ------- -- ---------- --- - --- ----- ----- ----<br>---- not --- ----- --- ---- ---- ------- ----- ---- -------<br>--- --- -- ----- -- --- ---- -- --- ---- -- ------ ------<br>--- ----- -- ----,149022.80000001192,149016,148602.521,148607.09999999404,148619.187,149035.837,,29,not
screen,html.Screen,2_1_0_1_30,2022-02-03T13:04:59.880Z,,,,,,,,,,,,,,,,,53,,,,,,,,,,,,,,415.16300000000047,,response,,,,99,,,,,,,Space,keypress(Space),,,,,,,,---- -- ----- -- ------ - ------- --- ----------<br>------------- ------ ------ ---- ---- ------- ----- -- ----<br>-------- ------- -- ---------- --- - --- ----- ----- ----<br>---- --- how ----- --- ---- ---- ------- ----- ---- -------<br>--- --- -- ----- -- --- ---- -- --- ---- -- ------ ------<br>--- ----- -- ----,149459.80000001192,149451,149019.171,149022.90000000596,149035.837,149469.153,,30,how
screen,html.Screen,2_1_0_1_31,2022-02-03T13:05:00.295Z,,,,,,,,,,,,,,,,,53,,,,,,,,,,,,,,399.04700001789024,,response,,,,99,,,,,,,Space,keypress(Space),,,,,,,,---- -- ----- -- ------ - ------- --- ----------<br>------------- ------ ------ ---- ---- ------- ----- -- ----<br>-------- ------- -- ---------- --- - --- ----- ----- ----<br>---- --- --- close --- ---- ---- ------- ----- ---- -------<br>--- --- -- ----- -- --- ---- -- --- ---- -- ------ ------<br>--- ----- -- ----,149875,149868.20000001788,149452.487,149459.90000000596,149469.153,149885.803,,31,close
screen,html.Screen,2_1_0_1_32,2022-02-03T13:05:00.665Z,,,,,,,,,,,,,,,,,53,,,,,,,,,,,,,,352.39700001786696,,response,,,,99,,,,,,,Space,keypress(Space),,,,,,,,---- -- ----- -- ------ - ------- --- ----------<br>------------- ------ ------ ---- ---- ------- ----- -- ----<br>-------- ------- -- ---------- --- - --- ----- ----- ----<br>---- --- --- ----- you ---- ---- ------- ----- ---- -------<br>--- --- -- ----- -- --- ---- -- --- ---- -- ------ ------<br>--- ----- -- ----,150245,150238.20000001788,149869.137,149875.20000001788,149885.803,150252.455,,32,you
screen,html.Screen,2_1_0_1_33,2022-02-03T13:05:01.364Z,,,,,,,,,,,,,,,,,53,,,,,,,,,,,,,,684.5450000000128,,response,,,,99,,,,,,,Space,keypress(Space),,,,,,,,---- -- ----- -- ------ - ------- --- ----------<br>------------- ------ ------ ---- ---- ------- ----- -- ----<br>-------- ------- -- ---------- --- - --- ----- ----- ----<br>---- --- --- ----- --- feel ---- ------- ----- ---- -------<br>--- --- -- ----- -- --- ---- -- --- ---- -- ------ ------<br>--- ----- -- ----,150943.59999999404,150937,150235.789,150245.09999999404,150252.455,150952.427,,33,feel
screen,html.Screen,2_1_0_1_34,2022-02-03T13:05:01.874Z,,,,,,,,,,,,,,,,,53,,,,,,,,,,,,,,494.6729999940435,,response,,,,99,,,,,,,Space,keypress(Space),,,,,,,,---- -- ----- -- ------ - ------- --- ----------<br>------------- ------ ------ ---- ---- ------- ----- -- ----<br>-------- ------- -- ---------- --- - --- ----- ----- ----<br>---- --- --- ----- --- ---- that ------- ----- ---- -------<br>--- --- -- ----- -- --- ---- -- --- ---- -- ------ ------<br>--- ----- -- ----,151453.70000001788,151447.09999999404,150935.761,150943.80000001192,150952.427,151469.073,,34,that
screen,html.Screen,2_1_0_1_35,2022-02-03T13:05:02.347Z,,,,,,,,,,,,,,,,,53,,,,,,,,,,,,,,450.92699999999604,,response,,,,99,,,,,,,Space,keypress(Space),,,,,,,,---- -- ----- -- ------ - ------- --- ----------<br>------------- ------ ------ ---- ---- ------- ----- -- ----<br>-------- ------- -- ---------- --- - --- ----- ----- ----<br>---- --- --- ----- --- ---- ---- matters ----- ---- -------<br>--- --- -- ----- -- --- ---- -- --- ---- -- ------ ------<br>--- ----- -- ----,151926.80000001192,151920,151452.407,151453.90000000596,151469.073,151935.721,,35,matters
screen,html.Screen,2_1_0_1_36,2022-02-03T13:05:02.828Z,,,,,,,,,,,,,,,,,53,,,,,,,,,,,,,,463.27900000000955,,response,,,,99,,,,,,,Space,keypress(Space),,,,,,,,"---- -- ----- -- ------ - ------- --- ----------<br>------------- ------ ------ ---- ---- ------- ----- -- ----<br>-------- ------- -- ---------- --- - --- ----- ----- ----<br>---- --- --- ----- --- ---- ---- ------- most, ---- -------<br>--- --- -- ----- -- --- ---- -- --- ---- -- ------ ------<br>--- ----- -- ----",152407.20000001788,152399,151919.055,151928.09999999404,151935.721,152419.035,,36,"most,"
screen,html.Screen,2_1_0_1_37,2022-02-03T13:05:03.276Z,,,,,,,,,,,,,,,,,53,,,,,,,,,,,,,,429.06499999403604,,response,,,,99,,,,,,,Space,keypress(Space),,,,,,,,---- -- ----- -- ------ - ------- --- ----------<br>------------- ------ ------ ---- ---- ------- ----- -- ----<br>-------- ------- -- ---------- --- - --- ----- ----- ----<br>---- --- --- ----- --- ---- ---- ------- ----- it's -------<br>--- --- -- ----- -- --- ---- -- --- ---- -- ------ ------<br>--- ----- -- ----,152855.09999999404,152848.09999999404,152402.369,152407.30000001192,152419.035,152866.331,,37,it's
screen,html.Screen,2_1_0_1_38,2022-02-03T13:05:03.741Z,,,,,,,,,,,,,,,,,53,,,,,,,,,,,,,,447.6689999999944,,response,,,,99,,,,,,,Space,keypress(Space),,,,,,,,---- -- ----- -- ------ - ------- --- ----------<br>------------- ------ ------ ---- ---- ------- ----- -- ----<br>-------- ------- -- ---------- --- - --- ----- ----- ----<br>---- --- --- ----- --- ---- ---- ------- ----- ---- whether<br>--- --- -- ----- -- --- ---- -- --- ---- -- ------ ------<br>--- ----- -- ----,153320.59999999404,153314,152849.665,152855.30000001192,152866.331,153332.979,,38,whether
screen,html.Screen,2_1_0_1_39,2022-02-03T13:05:04.141Z,,,,,,,,,,,,,,,,,53,,,,,,,,,,,,,,379.9210000059684,,response,,,,99,,,,,,,Space,keypress(Space),,,,,,,,---- -- ----- -- ------ - ------- --- ----------<br>------------- ------ ------ ---- ---- ------- ----- -- ----<br>-------- ------- -- ---------- --- - --- ----- ----- ----<br>---- --- --- ----- --- ---- ---- ------- ----- ---- -------<br>you --- -- ----- -- --- ---- -- --- ---- -- ------ ------<br>--- ----- -- ----,153720.80000001192,153712.90000000596,153316.313,153320.80000001192,153332.979,153732.963,,39,you
screen,html.Screen,2_1_0_1_40,2022-02-03T13:05:04.556Z,,,,,,,,,,,,,,,,,53,,,,,,,,,,,,,,396.0370000000112,,response,,,,99,,,,,,,Space,keypress(Space),,,,,,,,---- -- ----- -- ------ - ------- --- ----------<br>------------- ------ ------ ---- ---- ------- ----- -- ----<br>-------- ------- -- ---------- --- - --- ----- ----- ----<br>---- --- --- ----- --- ---- ---- ------- ----- ---- -------<br>--- are -- ----- -- --- ---- -- --- ---- -- ------ ------<br>--- ----- -- ----,154135.70000001788,154129,153716.297,153721,153732.963,154149.613,,40,are
screen,html.Screen,2_1_0_1_41,2022-02-03T13:05:05.007Z,,,,,,,,,,,,,,,,,53,,,,,,,,,,,,,,430.28700000594836,,response,,,,99,,,,,,,Space,keypress(Space),,,,,,,,---- -- ----- -- ------ - ------- --- ----------<br>------------- ------ ------ ---- ---- ------- ----- -- ----<br>-------- ------- -- ---------- --- - --- ----- ----- ----<br>---- --- --- ----- --- ---- ---- ------- ----- ---- -------<br>--- --- as ----- -- --- ---- -- --- ---- -- ------ ------<br>--- ----- -- ----,154586.59999999404,154579.90000000596,154132.947,154135.90000000596,154149.613,154599.595,,41,as
screen,html.Screen,2_1_0_1_42,2022-02-03T13:05:05.482Z,,,,,,,,,,,,,,,,,53,,,,,,,,,,,,,,455.40499999999884,,response,,,,99,,,,,,,Space,keypress(Space),,,,,,,,---- -- ----- -- ------ - ------- --- ----------<br>------------- ------ ------ ---- ---- ------- ----- -- ----<br>-------- ------- -- ---------- --- - --- ----- ----- ----<br>---- --- --- ----- --- ---- ---- ------- ----- ---- -------<br>--- --- -- close -- --- ---- -- --- ---- -- ------ ------<br>--- ----- -- ----,155061.80000001192,155055,154582.929,154586.90000000596,154599.595,155066.243,,42,close
screen,html.Screen,2_1_0_1_43,2022-02-03T13:05:05.954Z,,,,,,,,,,,,,,,,,53,,,,,,,,,,,,,,460.6570000059728,,response,,,,99,,,,,,,Space,keypress(Space),,,,,,,,---- -- ----- -- ------ - ------- --- ----------<br>------------- ------ ------ ---- ---- ------- ----- -- ----<br>-------- ------- -- ---------- --- - --- ----- ----- ----<br>---- --- --- ----- --- ---- ---- ------- ----- ---- -------<br>--- --- -- ----- as --- ---- -- --- ---- -- ------ ------<br>--- ----- -- ----,155533.90000000596,155526.90000000596,155049.577,155062,155066.243,155549.557,,43,as
screen,html.Screen,2_1_0_1_44,2022-02-03T13:05:06.372Z,,,,,,,,,,,,,,,,,53,,,,,,,,,,,,,,395.34300000595977,,response,,,,99,,,,,,,Space,keypress(Space),,,,,,,,---- -- ----- -- ------ - ------- --- ----------<br>------------- ------ ------ ---- ---- ------- ----- -- ----<br>-------- ------- -- ---------- --- - --- ----- ----- ----<br>---- --- --- ----- --- ---- ---- ------- ----- ---- -------<br>--- --- -- ----- -- you ---- -- --- ---- -- ------ ------<br>--- ----- -- ----,155951.59999999404,155944.90000000596,155532.891,155534,155549.557,155966.207,,44,you
screen,html.Screen,2_1_0_1_45,2022-02-03T13:05:06.791Z,,,,,,,,,,,,,,,,,53,,,,,,,,,,,,,,397.59300001192605,,response,,,,99,,,,,,,Space,keypress(Space),,,,,,,,---- -- ----- -- ------ - ------- --- ----------<br>------------- ------ ------ ---- ---- ------- ----- -- ----<br>-------- ------- -- ---------- --- - --- ----- ----- ----<br>---- --- --- ----- --- ---- ---- ------- ----- ---- -------<br>--- --- -- ----- -- --- want -- --- ---- -- ------ ------<br>--- ----- -- ----,156370.59999999404,156363.80000001192,155949.541,155951.70000001788,155966.207,156382.857,,45,want
screen,html.Screen,2_1_0_1_46,2022-02-03T13:05:07.180Z,,,,,,,,,,,,,,,,,53,,,,,,,,,,,,,,370.0430000059714,,response,,,,99,,,,,,,Space,keypress(Space),,,,,,,,---- -- ----- -- ------ - ------- --- ----------<br>------------- ------ ------ ---- ---- ------- ----- -- ----<br>-------- ------- -- ---------- --- - --- ----- ----- ----<br>---- --- --- ----- --- ---- ---- ------- ----- ---- -------<br>--- --- -- ----- -- --- ---- to --- ---- -- ------ ------<br>--- ----- -- ----,156759.70000001788,156752.90000000596,156366.191,156370.80000001192,156382.857,156766.175,,46,to
screen,html.Screen,2_1_0_1_47,2022-02-03T13:05:07.607Z,,,,,,,,,,,,,,,,,53,,,,,,,,,,,,,,413.7250000059721,,response,,,,99,,,,,,,Space,keypress(Space),,,,,,,,"---- -- ----- -- ------ - ------- --- ----------<br>------------- ------ ------ ---- ---- ------- ----- -- ----<br>-------- ------- -- ---------- --- - --- ----- ----- ----<br>---- --- --- ----- --- ---- ---- ------- ----- ---- -------<br>--- --- -- ----- -- --- ---- -- be, ---- -- ------ ------<br>--- ----- -- ----",157186.70000001788,157179.90000000596,156749.509,156759.80000001192,156766.175,157199.491,,47,"be,"
screen,html.Screen,2_1_0_1_48,2022-02-03T13:05:08.054Z,,,,,,,,,,,,,,,,,53,,,,,,,,,,,,,,426.30900001191185,,response,,,,99,,,,,,,Space,keypress(Space),,,,,,,,---- -- ----- -- ------ - ------- --- ----------<br>------------- ------ ------ ---- ---- ------- ----- -- ----<br>-------- ------- -- ---------- --- - --- ----- ----- ----<br>---- --- --- ----- --- ---- ---- ------- ----- ---- -------<br>--- --- -- ----- -- --- ---- -- --- even -- ------ ------<br>--- ----- -- ----,157633.20000001788,157625.80000001192,157182.825,157187,157199.491,157649.473,,48,even
screen,html.Screen,2_1_0_1_49,2022-02-03T13:05:08.503Z,,,,,,,,,,,,,,,,,53,,,,,,,,,,,,,,426.4270000059623,,response,,,,99,,,,,,,Space,keypress(Space),,,,,,,,---- -- ----- -- ------ - ------- --- ----------<br>------------- ------ ------ ---- ---- ------- ----- -- ----<br>-------- ------- -- ---------- --- - --- ----- ----- ----<br>---- --- --- ----- --- ---- ---- ------- ----- ---- -------<br>--- --- -- ----- -- --- ---- -- --- ---- if ------ ------<br>--- ----- -- ----,158082.59999999404,158075.90000000596,157632.807,157633.40000000596,157649.473,158099.455,,49,if
screen,html.Screen,2_1_0_1_50,2022-02-03T13:05:08.989Z,,,,,,,,,,,,,,,,,53,,,,,,,,,,,,,,462.44500000597327,,response,,,,99,,,,,,,Space,keypress(Space),,,,,,,,---- -- ----- -- ------ - ------- --- ----------<br>------------- ------ ------ ---- ---- ------- ----- -- ----<br>-------- ------- -- ---------- --- - --- ----- ----- ----<br>---- --- --- ----- --- ---- ---- ------- ----- ---- -------<br>--- --- -- ----- -- --- ---- -- --- ---- -- that's ------<br>--- ----- -- ----,158568.5,158561.90000000596,158082.789,158082.70000001788,158099.455,158582.769,,50,that's
screen,html.Screen,2_1_0_1_51,2022-02-03T13:05:09.435Z,,,,,,,,,,,,,,,,,53,,,,,,,,,,,,,,425.0310000119207,,response,,,,99,,,,,,,Space,keypress(Space),,,,,,,,---- -- ----- -- ------ - ------- --- ----------<br>------------- ------ ------ ---- ---- ------- ----- -- ----<br>-------- ------- -- ---------- --- - --- ----- ----- ----<br>---- --- --- ----- --- ---- ---- ------- ----- ---- -------<br>--- --- -- ----- -- --- ---- -- --- ---- -- ------ really<br>--- ----- -- ----,159014.90000000596,159007.80000001192,158566.103,158568.70000001788,158582.769,159016.085,,51,really
screen,html.Screen,2_1_0_1_52,2022-02-03T13:05:09.908Z,,,,,,,,,,,,,,,,,53,,,,,,,,,,,,,,464.8150000059686,,response,,,,99,,,,,,,Space,keypress(Space),,,,,,,,---- -- ----- -- ------ - ------- --- ----------<br>------------- ------ ------ ---- ---- ------- ----- -- ----<br>-------- ------- -- ---------- --- - --- ----- ----- ----<br>---- --- --- ----- --- ---- ---- ------- ----- ---- -------<br>--- --- -- ----- -- --- ---- -- --- ---- -- ------ ------<br>not ----- -- ----,159487.30000001192,159480.90000000596,158999.419,159015,159016.085,159499.399,,52,not
screen,html.Screen,2_1_0_1_53,2022-02-03T13:05:10.336Z,,,,,,,,,,,,,,,,,53,,,,,,,,,,,,,,409.5010000059556,,response,,,,99,,,,,,,Space,keypress(Space),,,,,,,,---- -- ----- -- ------ - ------- --- ----------<br>------------- ------ ------ ---- ---- ------- ----- -- ----<br>-------- ------- -- ---------- --- - --- ----- ----- ----<br>---- --- --- ----- --- ---- ---- ------- ----- ---- -------<br>--- --- -- ----- -- --- ---- -- --- ---- -- ------ ------<br>--- close -- ----,159915.40000000596,159908.90000000596,159482.733,159487.5,159499.399,159932.715,,53,close
screen,html.Screen,2_1_0_1_54,2022-02-03T13:05:10.786Z,,,,,,,,,,,,,,,,,53,,,,,,,,,,,,,,426.0850000119244,,response,,,,99,,,,,,,Space,keypress(Space),,,,,,,,---- -- ----- -- ------ - ------- --- ----------<br>------------- ------ ------ ---- ---- ------- ----- -- ----<br>-------- ------- -- ---------- --- - --- ----- ----- ----<br>---- --- --- ----- --- ---- ---- ------- ----- ---- -------<br>--- --- -- ----- -- --- ---- -- --- ---- -- ------ ------<br>--- ----- at ----,160365.59999999404,160358.80000001192,159916.049,159915.59999999404,159932.715,160382.697,,54,at
screen,html.Screen,2_1_0_1_55,2022-02-03T13:05:11.215Z,,,,,,,,,,,,,,,,,53,,,,,,,,,,,,,,405.2030000059749,,response,,,,99,,,,,,,Space,keypress(Space),,,,,,,,---- -- ----- -- ------ - ------- --- ----------<br>------------- ------ ------ ---- ---- ------- ----- -- ----<br>-------- ------- -- ---------- --- - --- ----- ----- ----<br>---- --- --- ----- --- ---- ---- ------- ----- ---- -------<br>--- --- -- ----- -- --- ---- -- --- ---- -- ------ ------<br>--- ----- -- all.,160794.5,160787.90000000596,160366.031,160365.80000001192,160382.697,160799.347,,55,all.
Item 99,flow.Loop,2_1_0_1,2022-02-03T13:05:11.216Z,,,,,,,,,,,,,,,,,,,,,,,,,,,,,,,29590.762000005954,,completion,,,,,F,,,,,,,,,,,silence,,,,,160794.90000000596,160787.90000000596,131163.806,131165.70000001788,131197.138,160799.347,,,
Question 1,html.Screen,2_1_0_2,2022-02-03T13:05:21.852Z,,,,,,,,,,,,,,,,,,,,,,,,,,,,true,FALSE,,10628.853000017873,,response,,,,99,F,,,,,,FALSE,click #choice-2,,,,silence,,,,,171431.5,171428.20000001788,160782.681,160795.20000001788,160799.347,171431.787,,,
Question 2,html.Screen,2_1_0_3,2022-02-03T13:05:25.557Z,,,,,,,,,,,,,,,,,,,,,,,,,,,,false,TRUE,,3700.91300001787,,response,,,,99,F,,,,,,FALSE,click #choice-2,,,,silence,,,,,175136.09999999404,175132.70000001788,171415.121,171431.70000001788,171431.787,175146.51,,,
Item 99,flow.Sequence,2_1_0,2022-02-03T13:05:25.557Z,,,,,,,,,,,,,,,,,,,,,,,,,,,,,,,53947.750000017884,,completion,,,,,,,,,,,,,,,,,,,,,175136.40000000596,175132.70000001788,121168.284,121170.30000001192,121184.95,175146.51,,,
Holding screen,html.Screen,2_1_1_0,2022-02-03T13:05:35.553Z,,,,,,,,,,,,,,,,,,,,,,,,,,,,,,,9999.599999999977,,timeout,,,,,,,,,,,,,,,,,,,,,185131.80000001192,185129.444,175129.844,175136.5,175146.51,185146.11,,,
screen,html.Screen,2_1_1_1_0,2022-02-03T13:05:41.173Z,,,,,,,,,,,,,,,,,54,,,,,,,,,,,,,,5597.290000005974,,response,,,,100,,,,,,,Space,keypress(Space),,,,,,,,At --- ---- --- ------ ----- ------- ---- -- --- ------- --<br>------- ---------- ------ -- ----- -- ----- -- ---- ------<br>--- ----- --- --- ------ -------- ----- --- ------ ----- --<br>----- ----- ---------- --- --- ------ ------ ---- -- ------<br>------- --- ------ ----- --- ---- ------- -- ---- --- --<br>------- ------,190752.09999999404,190743.40000000596,185129.444,185132,185146.11,190764.695,,0,At
screen,html.Screen,2_1_1_1_1,2022-02-03T13:05:41.597Z,,,,,,,,,,,,,,,,,54,,,,,,,,,,,,,,403.90499999403255,,response,,,,100,,,,,,,Space,keypress(Space),,,,,,,,-- the ---- --- ------ ----- ------- ---- -- --- ------- --<br>------- ---------- ------ -- ----- -- ----- -- ---- ------<br>--- ----- --- --- ------ -------- ----- --- ------ ----- --<br>----- ----- ---------- --- --- ------ ------ ---- -- ------<br>------- --- ------ ----- --- ---- ------- -- ---- --- --<br>------- ------,191175.5,191168.59999999404,190748.029,190752.30000001192,190764.695,191181.345,,1,the
screen,html.Screen,2_1_1_1_2,2022-02-03T13:05:42.218Z,,,,,,,,,,,,,,,,,54,,,,,,,,,,,,,,609.2549999940384,,response,,,,100,,,,,,,Space,keypress(Space),,,,,,,,-- --- time --- ------ ----- ------- ---- -- --- ------- --<br>------- ---------- ------ -- ----- -- ----- -- ---- ------<br>--- ----- --- --- ------ -------- ----- --- ------ ----- --<br>----- ----- ---------- --- --- ------ ------ ---- -- ------<br>------- --- ------ ----- --- ---- ------- -- ---- --- --<br>------- ------,191796.90000000596,191790.59999999404,191164.679,191176,191181.345,191814.653,,2,time
screen,html.Screen,2_1_1_1_3,2022-02-03T13:05:42.628Z,,,,,,,,,,,,,,,,,54,,,,,,,,,,,,,,385.04700001789024,,response,,,,100,,,,,,,Space,keypress(Space),,,,,,,,-- --- ---- the ------ ----- ------- ---- -- --- ------- --<br>------- ---------- ------ -- ----- -- ----- -- ---- ------<br>--- ----- --- --- ------ -------- ----- --- ------ ----- --<br>----- ----- ---------- --- --- ------ ------ ---- -- ------<br>------- --- ------ ----- --- ---- ------- -- ---- --- --<br>------- ------,192206.40000000596,192199.70000001788,191797.987,191797.09999999404,191814.653,192214.637,,3,the
screen,html.Screen,2_1_1_1_4,2022-02-03T13:05:43.118Z,,,,,,,,,,,,,,,,,54,,,,,,,,,,,,,,475.0630000178935,,response,,,,100,,,,,,,Space,keypress(Space),,,,,,,,-- --- ---- --- French ----- ------- ---- -- --- ------- --<br>------- ---------- ------ -- ----- -- ----- -- ---- ------<br>--- ----- --- --- ------ -------- ----- --- ------ ----- --<br>----- ----- ---------- --- --- ------ ------ ---- -- ------<br>------- --- ------ ----- --- ---- ------- -- ---- --- --<br>------- ------,192696.5,192689.70000001788,192197.971,192206.5,192214.637,192697.951,,4,French
screen,html.Screen,2_1_1_1_5,2022-02-03T13:05:43.532Z,,,,,,,,,,,,,,,,,54,,,,,,,,,,,,,,405.6489999940386,,response,,,,100,,,,,,,Space,keypress(Space),,,,,,,,-- --- ---- --- ------ crown ------- ---- -- --- ------- --<br>------- ---------- ------ -- ----- -- ----- -- ---- ------<br>--- ----- --- --- ------ -------- ----- --- ------ ----- --<br>----- ----- ---------- --- --- ------ ------ ---- -- ------<br>------- --- ------ ----- --- ---- ------- -- ---- --- --<br>------- ------,193110.30000001192,193103.59999999404,192681.285,192696.59999999404,192697.951,193114.601,,5,crown
screen,html.Screen,2_1_1_1_6,2022-02-03T13:05:43.980Z,,,,,,,,,,,,,,,,,54,,,,,,,,,,,,,,437.0990000178863,,response,,,,100,,,,,,,Space,keypress(Space),,,,,,,,-- --- ---- --- ------ ----- secured ---- -- --- ------- --<br>------- ---------- ------ -- ----- -- ----- -- ---- ------<br>--- ----- --- --- ------ -------- ----- --- ------ ----- --<br>----- ----- ---------- --- --- ------ ------ ---- -- ------<br>------- --- ------ ----- --- ---- ------- -- ---- --- --<br>------- ------,193558.40000000596,193551.70000001788,193097.935,193110.5,193114.601,193564.583,,6,secured
screen,html.Screen,2_1_1_1_7,2022-02-03T13:05:44.570Z,,,,,,,,,,,,,,,,,54,,,,,,,,,,,,,,576.8170000059472,,response,,,,100,,,,,,,Space,keypress(Space),,,,,,,,-- --- ---- --- ------ ----- ------- much -- --- ------- --<br>------- ---------- ------ -- ----- -- ----- -- ---- ------<br>--- ----- --- --- ------ -------- ----- --- ------ ----- --<br>----- ----- ---------- --- --- ------ ------ ---- -- ------<br>------- --- ------ ----- --- ---- ------- -- ---- --- --<br>------- ------,194148.80000001192,194141.40000000596,193547.917,193558.5,193564.583,194164.559,,7,much
screen,html.Screen,2_1_1_1_8,2022-02-03T13:05:44.955Z,,,,,,,,,,,,,,,,,54,,,,,,,,,,,,,,360.8410000059521,,response,,,,100,,,,,,,Space,keypress(Space),,,,,,,,-- --- ---- --- ------ ----- ------- ---- of --- ------- --<br>------- ---------- ------ -- ----- -- ----- -- ---- ------<br>--- ----- --- --- ------ -------- ----- --- ------ ----- --<br>----- ----- ---------- --- --- ------ ------ ---- -- ------<br>------- --- ------ ----- --- ---- ------- -- ---- --- --<br>------- ------,194533.30000001192,194525.40000000596,194147.893,194148.80000001192,194164.559,194547.877,,8,of
screen,html.Screen,2_1_1_1_9,2022-02-03T13:05:47.089Z,,,,,,,,,,,,,,,,,54,,,,,,,,,,,,,,2111.9230000119132,,response,,,,100,,,,,,,Space,keypress(Space),,,,,,,,-- --- ---- --- ------ ----- ------- ---- -- its ------- --<br>------- ---------- ------ -- ----- -- ----- -- ---- ------<br>--- ----- --- --- ------ -------- ----- --- ------ ----- --<br>----- ----- ---------- --- --- ------ ------ ---- -- ------<br>------- --- ------ ----- --- ---- ------- -- ---- --- --<br>------- ------,196668.09999999404,196659.80000001192,194531.211,194533.40000000596,194547.877,196685.057,,9,its
screen,html.Screen,2_1_1_1_10,2022-02-03T13:05:47.593Z,,,,,,,,,,,,,,,,,54,,,,,,,,,,,,,,480.24300001192023,,response,,,,100,,,,,,,Space,keypress(Space),,,,,,,,-- --- ---- --- ------ ----- ------- ---- -- --- revenue --<br>------- ---------- ------ -- ----- -- ----- -- ---- ------<br>--- ----- --- --- ------ -------- ----- --- ------ ----- --<br>----- ----- ---------- --- --- ------ ------ ---- -- ------<br>------- --- ------ ----- --- ---- ------- -- ---- --- --<br>------- ------,197172.09999999404,197165.30000001192,196668.391,196668.80000001192,196685.057,197185.037,,10,revenue
screen,html.Screen,2_1_1_1_11,2022-02-03T13:05:48.459Z,,,,,,,,,,,,,,,,,54,,,,,,,,,,,,,,846.3630000059493,,response,,,,100,,,,,,,Space,keypress(Space),,,,,,,,-- --- ---- --- ------ ----- ------- ---- -- --- ------- by<br>------- ---------- ------ -- ----- -- ----- -- ---- ------<br>--- ----- --- --- ------ -------- ----- --- ------ ----- --<br>----- ----- ---------- --- --- ------ ------ ---- -- ------<br>------- --- ------ ----- --- ---- ------- -- ---- --- --<br>------- ------,198038.09999999404,198031.40000000596,197168.371,197172.30000001192,197185.037,198051.669,,11,by
screen,html.Screen,2_1_1_1_12,2022-02-03T13:05:49.297Z,,,,,,,,,,,,,,,,,54,,,,,,,,,,,,,,816.731000005966,,response,,,,100,,,,,,,Space,keypress(Space),,,,,,,,-- --- ---- --- ------ ----- ------- ---- -- --- ------- --<br>issuing ---------- ------ -- ----- -- ----- -- ---- ------<br>--- ----- --- --- ------ -------- ----- --- ------ ----- --<br>----- ----- ---------- --- --- ------ ------ ---- -- ------<br>------- --- ------ ----- --- ---- ------- -- ---- --- --<br>------- ------,198875.5,198868.40000000596,198035.003,198038.40000000596,198051.669,198884.969,,12,issuing
screen,html.Screen,2_1_1_1_13,2022-02-03T13:05:49.370Z,,,,,,,,,,,,,,,,,54,,,,,,,,,,,,,,57.43100000594859,,response,,,,100,,,,,,,Space,keypress(Space),,,,,,,,-- --- ---- --- ------ ----- ------- ---- -- --- ------- --<br>------- government ------ -- ----- -- ----- -- ---- ------<br>--- ----- --- --- ------ -------- ----- --- ------ ----- --<br>----- ----- ---------- --- --- ------ ------ ---- -- ------<br>------- --- ------ ----- --- ---- ------- -- ---- --- --<br>------- ------,198949,198942.40000000596,198868.303,198875.59999999404,198884.969,198951.633,,13,government
screen,html.Screen,2_1_1_1_14,2022-02-03T13:05:50.224Z,,,,,,,,,,,,,,,,,54,,,,,,,,,,,,,,844.6670000119193,,response,,,,100,,,,,,,Space,keypress(Space),,,,,,,,-- --- ---- --- ------ ----- ------- ---- -- --- ------- --<br>------- ---------- bonds. -- ----- -- ----- -- ---- ------<br>--- ----- --- --- ------ -------- ----- --- ------ ----- --<br>----- ----- ---------- --- --- ------ ------ ---- -- ------<br>------- --- ------ ----- --- ---- ------- -- ---- --- --<br>------- ------,199802.59999999404,199796.30000001192,198934.967,198949.20000001788,198951.633,199818.265,,14,bonds.
screen,html.Screen,2_1_1_1_15,2022-02-03T13:05:50.770Z,,,,,,,,,,,,,,,,,54,,,,,,,,,,,,,,523.1350000059465,,response,,,,100,,,,,,,Space,keypress(Space),,,,,,,,-- --- ---- --- ------ ----- ------- ---- -- --- ------- --<br>------- ---------- ------ In ----- -- ----- -- ---- ------<br>--- ----- --- --- ------ -------- ----- --- ------ ----- --<br>----- ----- ---------- --- --- ------ ------ ---- -- ------<br>------- --- ------ ----- --- ---- ------- -- ---- --- --<br>------- ------,200348.30000001192,200341.40000000596,199801.599,199802.70000001788,199818.265,200351.577,,15,In
screen,html.Screen,2_1_1_1_16,2022-02-03T13:05:52.009Z,,,,,,,,,,,,,,,,,54,,,,,,,,,,,,,,1216.8230000059702,,response,,,,100,,,,,,,Space,keypress(Space),,,,,,,,"-- --- ---- --- ------ ----- ------- ---- -- --- ------- --<br>------- ---------- ------ -- 1727, -- ----- -- ---- ------<br>--- ----- --- --- ------ -------- ----- --- ------ ----- --<br>----- ----- ---------- --- --- ------ ------ ---- -- ------<br>------- --- ------ ----- --- ---- ------- -- ---- --- --<br>------- ------",201587.5,201568.40000000596,200334.911,200348.5,200351.577,201601.527,,16,"1727,"
screen,html.Screen,2_1_1_1_17,2022-02-03T13:05:52.820Z,,,,,,,,,,,,,,,,,54,,,,,,,,,,,,,,789.9729999999981,,response,,,,100,,,,,,,Space,keypress(Space),,,,,,,,-- --- ---- --- ------ ----- ------- ---- -- --- ------- --<br>------- ---------- ------ -- ----- in ----- -- ---- ------<br>--- ----- --- --- ------ -------- ----- --- ------ ----- --<br>----- ----- ---------- --- --- ------ ------ ---- -- ------<br>------- --- ------ ----- --- ---- ------- -- ---- --- --<br>------- ------,202398.30000001192,202391.5,201584.861,201587.59999999404,201601.527,202401.495,,17,in
screen,html.Screen,2_1_1_1_18,2022-02-03T13:05:53.381Z,,,,,,,,,,,,,,,,,54,,,,,,,,,,,,,,550.6049999940442,,response,,,,100,,,,,,,Space,keypress(Space),,,,,,,,-- --- ---- --- ------ ----- ------- ---- -- --- ------- --<br>------- ---------- ------ -- ----- -- order -- ---- ------<br>--- ----- --- --- ------ -------- ----- --- ------ ----- --<br>----- ----- ---------- --- --- ------ ------ ---- -- ------<br>------- --- ------ ----- --- ---- ------- -- ---- --- --<br>------- ------,202959.20000001788,202952.09999999404,202384.829,202398.5,202401.495,202968.139,,18,order
screen,html.Screen,2_1_1_1_19,2022-02-03T13:05:54.025Z,,,,,,,,,,,,,,,,,54,,,,,,,,,,,,,,629.1610000119254,,response,,,,100,,,,,,,Space,keypress(Space),,,,,,,,-- --- ---- --- ------ ----- ------- ---- -- --- ------- --<br>------- ---------- ------ -- ----- -- ----- to ---- ------<br>--- ----- --- --- ------ -------- ----- --- ------ ----- --<br>----- ----- ---------- --- --- ------ ------ ---- -- ------<br>------- --- ------ ----- --- ---- ------- -- ---- --- --<br>------- ------,203603.80000001192,203597.30000001192,202951.473,202959.40000000596,202968.139,203618.113,,19,to
screen,html.Screen,2_1_1_1_20,2022-02-03T13:05:54.892Z,,,,,,,,,,,,,,,,,54,,,,,,,,,,,,,,844.1870000119088,,response,,,,100,,,,,,,Space,keypress(Space),,,,,,,,-- --- ---- --- ------ ----- ------- ---- -- --- ------- --<br>------- ---------- ------ -- ----- -- ----- -- save ------<br>--- ----- --- --- ------ -------- ----- --- ------ ----- --<br>----- ----- ---------- --- --- ------ ------ ---- -- ------<br>------- --- ------ ----- --- ---- ------- -- ---- --- --<br>------- ------,204470.80000001192,204462.30000001192,203601.447,203604,203618.113,204484.745,,20,save
screen,html.Screen,2_1_1_1_21,2022-02-03T13:06:01.408Z,,,,,,,,,,,,,,,,,54,,,,,,,,,,,,,,6495.455000017886,,response,,,,100,,,,,,,Space,keypress(Space),,,,,,,,"-- --- ---- --- ------ ----- ------- ---- -- --- ------- --<br>------- ---------- ------ -- ----- -- ----- -- ---- money,<br>--- ----- --- --- ------ -------- ----- --- ------ ----- --<br>----- ----- ---------- --- --- ------ ------ ---- -- ------<br>------- --- ------ ----- --- ---- ------- -- ---- --- --<br>------- ------",210986.90000000596,210980.20000001788,204468.079,204470.90000000596,204484.745,211001.151,,21,"money,"
screen,html.Screen,2_1_1_1_22,2022-02-03T13:06:01.522Z,,,,,,,,,,,,,,,,,54,,,,,,,,,,,,,,91.94899999402696,,response,,,,100,,,,,,,Space,keypress(Space),,,,,,,,-- --- ---- --- ------ ----- ------- ---- -- --- ------- --<br>------- ---------- ------ -- ----- -- ----- -- ---- ------<br>the ----- --- --- ------ -------- ----- --- ------ ----- --<br>----- ----- ---------- --- --- ------ ------ ---- -- ------<br>------- --- ------ ----- --- ---- ------- -- ---- --- --<br>------- ------,211100,211093.09999999404,210984.485,210987.59999999404,211001.151,211106.406,,22,the
screen,html.Screen,2_1_1_1_23,2022-02-03T13:06:02.478Z,,,,,,,,,,,,,,,,,54,,,,,,,,,,,,,,942.7940000178933,,response,,,,100,,,,,,,Space,keypress(Space),,,,,,,,-- --- ---- --- ------ ----- ------- ---- -- --- ------- --<br>------- ---------- ------ -- ----- -- ----- -- ---- ------<br>--- state --- --- ------ -------- ----- --- ------ ----- --<br>----- ----- ---------- --- --- ------ ------ ---- -- ------<br>------- --- ------ ----- --- ---- ------- -- ---- --- --<br>------- ------,212056.40000000596,212049.20000001788,211089.74,211100.09999999404,211106.406,212073.034,,23,state
screen,html.Screen,2_1_1_1_24,2022-02-03T13:06:02.565Z,,,,,,,,,,,,,,,,,54,,,,,,,,,,,,,,62.86600000594626,,response,,,,100,,,,,,,Space,keypress(Space),,,,,,,,-- --- ---- --- ------ ----- ------- ---- -- --- ------- --<br>------- ---------- ------ -- ----- -- ----- -- ---- ------<br>--- ----- cut --- ------ -------- ----- --- ------ ----- --<br>----- ----- ---------- --- --- ------ ------ ---- -- ------<br>------- --- ------ ----- --- ---- ------- -- ---- --- --<br>------- ------,212143.70000001788,212135.90000000596,212056.368,212056.59999999404,212073.034,212156.364,,24,cut
screen,html.Screen,2_1_1_1_25,2022-02-03T13:06:03.265Z,,,,,,,,,,,,,,,,,54,,,,,,,,,,,,,,680.6359999999986,,response,,,,100,,,,,,,Space,keypress(Space),,,,,,,,-- --- ---- --- ------ ----- ------- ---- -- --- ------- --<br>------- ---------- ------ -- ----- -- ----- -- ---- ------<br>--- ----- --- the ------ -------- ----- --- ------ ----- --<br>----- ----- ---------- --- --- ------ ------ ---- -- ------<br>------- --- ------ ----- --- ---- ------- -- ---- --- --<br>------- ------,212843.30000001192,212837,212139.698,212143.80000001192,212156.364,212856.336,,25,the
screen,html.Screen,2_1_1_1_26,2022-02-03T13:06:03.832Z,,,,,,,,,,,,,,,,,54,,,,,,,,,,,,,,544.7639999940293,,response,,,,100,,,,,,,Space,keypress(Space),,,,,,,,-- --- ---- --- ------ ----- ------- ---- -- --- ------- --<br>------- ---------- ------ -- ----- -- ----- -- ---- ------<br>--- ----- --- --- bonds' -------- ----- --- ------ ----- --<br>----- ----- ---------- --- --- ------ ------ ---- -- ------<br>------- --- ------ ----- --- ---- ------- -- ---- --- --<br>------- ------,213410.09999999404,213401.09999999404,212839.67,212843.40000000596,212856.336,213422.98,,26,bonds'
screen,html.Screen,2_1_1_1_27,2022-02-03T13:06:03.890Z,,,,,,,,,,,,,,,,,54,,,,,,,,,,,,,,39.01999999998952,,response,,,,100,,,,,,,Space,keypress(Space),,,,,,,,-- --- ---- --- ------ ----- ------- ---- -- --- ------- --<br>------- ---------- ------ -- ----- -- ----- -- ---- ------<br>--- ----- --- --- ------ interest ----- --- ------ ----- --<br>----- ----- ---------- --- --- ------ ------ ---- -- ------<br>------- --- ------ ----- --- ---- ------- -- ---- --- --<br>------- ------,213468.30000001192,213462,213406.314,213410.30000001192,213422.98,213489.644,,27,interest
screen,html.Screen,2_1_1_1_28,2022-02-03T13:06:04.661Z,,,,,,,,,,,,,,,,,54,,,,,,,,,,,,,,743.2560000059602,,response,,,,100,,,,,,,Space,keypress(Space),,,,,,,,-- --- ---- --- ------ ----- ------- ---- -- --- ------- --<br>------- ---------- ------ -- ----- -- ----- -- ---- ------<br>--- ----- --- --- ------ -------- rate. --- ------ ----- --<br>----- ----- ---------- --- --- ------ ------ ---- -- ------<br>------- --- ------ ----- --- ---- ------- -- ---- --- --<br>------- ------,214239.70000001788,214232.90000000596,213472.978,213468.5,213489.644,214256.28,,28,rate.
screen,html.Screen,2_1_1_1_29,2022-02-03T13:06:05.058Z,,,,,,,,,,,,,,,,,54,,,,,,,,,,,,,,371.8199999940407,,response,,,,100,,,,,,,Space,keypress(Space),,,,,,,,-- --- ---- --- ------ ----- ------- ---- -- --- ------- --<br>------- ---------- ------ -- ----- -- ----- -- ---- ------<br>--- ----- --- --- ------ -------- ----- The ------ ----- --<br>----- ----- ---------- --- --- ------ ------ ---- -- ------<br>------- --- ------ ----- --- ---- ------- -- ---- --- --<br>------- ------,214636,214628.09999999404,214239.614,214239.90000000596,214256.28,214656.264,,29,The
screen,html.Screen,2_1_1_1_30,2022-02-03T13:06:05.141Z,,,,,,,,,,,,,,,,,54,,,,,,,,,,,,,,55.63600000596489,,response,,,,100,,,,,,,Space,keypress(Space),,,,,,,,-- --- ---- --- ------ ----- ------- ---- -- --- ------- --<br>------- ---------- ------ -- ----- -- ----- -- ---- ------<br>--- ----- --- --- ------ -------- ----- --- market ----- --<br>----- ----- ---------- --- --- ------ ------ ---- -- ------<br>------- --- ------ ----- --- ---- ------- -- ---- --- --<br>------- ------,214718.90000000596,214711.90000000596,214639.598,214636.09999999404,214656.264,214722.928,,30,market
screen,html.Screen,2_1_1_1_31,2022-02-03T13:06:06.078Z,,,,,,,,,,,,,,,,,54,,,,,,,,,,,,,,926.1719999940251,,response,,,,100,,,,,,,Space,keypress(Space),,,,,,,,-- --- ---- --- ------ ----- ------- ---- -- --- ------- --<br>------- ---------- ------ -- ----- -- ----- -- ---- ------<br>--- ----- --- --- ------ -------- ----- --- ------ value --<br>----- ----- ---------- --- --- ------ ------ ---- -- ------<br>------- --- ------ ----- --- ---- ------- -- ---- --- --<br>------- ------,215655.90000000596,215649.09999999404,214706.262,214719.09999999404,214722.928,215672.819,,31,value
screen,html.Screen,2_1_1_1_32,2022-02-03T13:06:06.794Z,,,,,,,,,,,,,,,,,54,,,,,,,,,,,,,,692.0810000059719,,response,,,,100,,,,,,,Space,keypress(Space),,,,,,,,-- --- ---- --- ------ ----- ------- ---- -- --- ------- --<br>------- ---------- ------ -- ----- -- ----- -- ---- ------<br>--- ----- --- --- ------ -------- ----- --- ------ ----- of<br>----- ----- ---------- --- --- ------ ------ ---- -- ------<br>------- --- ------ ----- --- ---- ------- -- ---- --- --<br>------- ------,216371.90000000596,216364.90000000596,215656.153,215656,215672.819,216389.457,,32,of
screen,html.Screen,2_1_1_1_33,2022-02-03T13:06:06.908Z,,,,,,,,,,,,,,,,,54,,,,,,,,,,,,,,90.44300000596559,,response,,,,100,,,,,,,Space,keypress(Space),,,,,,,,-- --- ---- --- ------ ----- ------- ---- -- --- ------- --<br>------- ---------- ------ -- ----- -- ----- -- ---- ------<br>--- ----- --- --- ------ -------- ----- --- ------ ----- --<br>these ----- ---------- --- --- ------ ------ ---- -- ------<br>------- --- ------ ----- --- ---- ------- -- ---- --- --<br>------- ------,216486.70000001788,216479.90000000596,216372.791,216372,216389.457,216489.453,,33,these
screen,html.Screen,2_1_1_1_34,2022-02-03T13:06:07.543Z,,,,,,,,,,,,,,,,,54,,,,,,,,,,,,,,625.5469999999914,,response,,,,100,,,,,,,Space,keypress(Space),,,,,,,,-- --- ---- --- ------ ----- ------- ---- -- --- ------- --<br>------- ---------- ------ -- ----- -- ----- -- ---- ------<br>--- ----- --- --- ------ -------- ----- --- ------ ----- --<br>----- bonds ---------- --- --- ------ ------ ---- -- ------<br>------- --- ------ ----- --- ---- ------- -- ---- --- --<br>------- ------,217121.80000001192,217115,216472.787,216486.80000001192,216489.453,217139.427,,34,bonds
screen,html.Screen,2_1_1_1_35,2022-02-03T13:06:07.630Z,,,,,,,,,,,,,,,,,54,,,,,,,,,,,,,,61.47300000596442,,response,,,,100,,,,,,,Space,keypress(Space),,,,,,,,"-- --- ---- --- ------ ----- ------- ---- -- --- ------- --<br>------- ---------- ------ -- ----- -- ----- -- ---- ------<br>--- ----- --- --- ------ -------- ----- --- ------ ----- --<br>----- ----- plummeted, --- --- ------ ------ ---- -- ------<br>------- --- ------ ----- --- ---- ------- -- ---- --- --<br>------- ------",217208.40000000596,217200.90000000596,217122.761,217121.90000000596,217139.427,217222.757,,35,"plummeted,"
screen,html.Screen,2_1_1_1_36,2022-02-03T13:06:08.501Z,,,,,,,,,,,,,,,,,54,,,,,,,,,,,,,,849.1430000059481,,response,,,,100,,,,,,,Space,keypress(Space),,,,,,,,-- --- ---- --- ------ ----- ------- ---- -- --- ------- --<br>------- ---------- ------ -- ----- -- ----- -- ---- ------<br>--- ----- --- --- ------ -------- ----- --- ------ ----- --<br>----- ----- ---------- and --- ------ ------ ---- -- ------<br>------- --- ------ ----- --- ---- ------- -- ---- --- --<br>------- ------,218079.09999999404,218071.90000000596,217206.091,217208.80000001192,217222.757,218089.389,,36,and
screen,html.Screen,2_1_1_1_37,2022-02-03T13:06:08.582Z,,,,,,,,,,,,,,,,,54,,,,,,,,,,,,,,64.41100001192535,,response,,,,100,,,,,,,Space,keypress(Space),,,,,,,,-- --- ---- --- ------ ----- ------- ---- -- --- ------- --<br>------- ---------- ------ -- ----- -- ----- -- ---- ------<br>--- ----- --- --- ------ -------- ----- --- ------ ----- --<br>----- ----- ---------- --- the ------ ------ ---- -- ------<br>------- --- ------ ----- --- ---- ------- -- ---- --- --<br>------- ------,218160.70000001788,218153.80000001192,218072.723,218079.20000001788,218089.389,218172.719,,37,the
screen,html.Screen,2_1_1_1_38,2022-02-03T13:06:09.121Z,,,,,,,,,,,,,,,,,54,,,,,,,,,,,,,,520.081000011909,,response,,,,100,,,,,,,Space,keypress(Space),,,,,,,,-- --- ---- --- ------ ----- ------- ---- -- --- ------- --<br>------- ---------- ------ -- ----- -- ----- -- ---- ------<br>--- ----- --- --- ------ -------- ----- --- ------ ----- --<br>----- ----- ---------- --- --- market ------ ---- -- ------<br>------- --- ------ ----- --- ---- ------- -- ---- --- --<br>------- ------,218699.80000001192,218692.80000001192,218156.053,218160.90000000596,218172.719,218706.031,,38,market
screen,html.Screen,2_1_1_1_39,2022-02-03T13:06:09.170Z,,,,,,,,,,,,,,,,,54,,,,,,,,,,,,,,34.86900000597234,,response,,,,100,,,,,,,Space,keypress(Space),,,,,,,,-- --- ---- --- ------ ----- ------- ---- -- --- ------- --<br>------- ---------- ------ -- ----- -- ----- -- ---- ------<br>--- ----- --- --- ------ -------- ----- --- ------ ----- --<br>----- ----- ---------- --- --- ------ became ---- -- ------<br>------- --- ------ ----- --- ---- ------- -- ---- --- --<br>------- ------,218748,218740.90000000596,218689.365,218700,218706.031,218772.695,,39,became
screen,html.Screen,2_1_1_1_40,2022-02-03T13:06:10.303Z,,,,,,,,,,,,,,,,,54,,,,,,,,,,,,,,1102.0050000178744,,response,,,,100,,,,,,,Space,keypress(Space),,,,,,,,-- --- ---- --- ------ ----- ------- ---- -- --- ------- --<br>------- ---------- ------ -- ----- -- ----- -- ---- ------<br>--- ----- --- --- ------ -------- ----- --- ------ ----- --<br>----- ----- ---------- --- --- ------ ------ wary -- ------<br>------- --- ------ ----- --- ---- ------- -- ---- --- --<br>------- ------,219881.59999999404,219874.70000001788,218756.029,218748.20000001788,218772.695,219889.317,,40,wary
screen,html.Screen,2_1_1_1_41,2022-02-03T13:06:10.732Z,,,,,,,,,,,,,,,,,54,,,,,,,,,,,,,,414.58300000595045,,response,,,,100,,,,,,,Space,keypress(Space),,,,,,,,-- --- ---- --- ------ ----- ------- ---- -- --- ------- --<br>------- ---------- ------ -- ----- -- ----- -- ---- ------<br>--- ----- --- --- ------ -------- ----- --- ------ ----- --<br>----- ----- ---------- --- --- ------ ------ ---- of ------<br>------- --- ------ ----- --- ---- ------- -- ---- --- --<br>------- ------,220310.5,220303.90000000596,219872.651,219881.80000001192,219889.317,220322.633,,41,of
screen,html.Screen,2_1_1_1_42,2022-02-03T13:06:10.806Z,,,,,,,,,,,,,,,,,54,,,,,,,,,,,,,,55.067000017879764,,response,,,,100,,,,,,,Space,keypress(Space),,,,,,,,-- --- ---- --- ------ ----- ------- ---- -- --- ------- --<br>------- ---------- ------ -- ----- -- ----- -- ---- ------<br>--- ----- --- --- ------ -------- ----- --- ------ ----- --<br>----- ----- ---------- --- --- ------ ------ ---- -- French<br>------- --- ------ ----- --- ---- ------- -- ---- --- --<br>------- ------,220383.90000000596,220377.70000001788,220305.967,220310.70000001788,220322.633,220389.297,,42,French
screen,html.Screen,2_1_1_1_43,2022-02-03T13:06:11.493Z,,,,,,,,,,,,,,,,,54,,,,,,,,,,,,,,675.5030000119295,,response,,,,100,,,,,,,Space,keypress(Space),,,,,,,,-- --- ---- --- ------ ----- ------- ---- -- --- ------- --<br>------- ---------- ------ -- ----- -- ----- -- ---- ------<br>--- ----- --- --- ------ -------- ----- --- ------ ----- --<br>----- ----- ---------- --- --- ------ ------ ---- -- ------<br>credit. --- ------ ----- --- ---- ------- -- ---- --- --<br>------- ------,221071.59999999404,221064.80000001192,220372.631,220384.09999999404,220389.297,221089.269,,43,credit.
screen,html.Screen,2_1_1_1_44,2022-02-03T13:06:11.533Z,,,,,,,,,,,,,,,,,54,,,,,,,,,,,,,,15.43100001788116,,response,,,,100,,,,,,,Space,keypress(Space),,,,,,,,-- --- ---- --- ------ ----- ------- ---- -- --- ------- --<br>------- ---------- ------ -- ----- -- ----- -- ---- ------<br>--- ----- --- --- ------ -------- ----- --- ------ ----- --<br>----- ----- ---------- --- --- ------ ------ ---- -- ------<br>------- The ------ ----- --- ---- ------- -- ---- --- --<br>------- ------,221111.5,221104.70000001788,221072.603,221071.80000001192,221089.269,221122.601,,44,The
screen,html.Screen,2_1_1_1_45,2022-02-03T13:06:12.280Z,,,,,,,,,,,,,,,,,54,,,,,,,,,,,,,,729.1990000119258,,response,,,,100,,,,,,,Space,keypress(Space),,,,,,,,-- --- ---- --- ------ ----- ------- ---- -- --- ------- --<br>------- ---------- ------ -- ----- -- ----- -- ---- ------<br>--- ----- --- --- ------ -------- ----- --- ------ ----- --<br>----- ----- ---------- --- --- ------ ------ ---- -- ------<br>------- --- French ----- --- ---- ------- -- ---- --- --<br>------- ------,221858.30000001192,221851.80000001192,221105.935,221111.70000001788,221122.601,221872.571,,45,French
screen,html.Screen,2_1_1_1_46,2022-02-03T13:06:12.800Z,,,,,,,,,,,,,,,,,54,,,,,,,,,,,,,,498.1290000178851,,response,,,,100,,,,,,,Space,keypress(Space),,,,,,,,-- --- ---- --- ------ ----- ------- ---- -- --- ------- --<br>------- ---------- ------ -- ----- -- ----- -- ---- ------<br>--- ----- --- --- ------ -------- ----- --- ------ ----- --<br>----- ----- ---------- --- --- ------ ------ ---- -- ------<br>------- --- ------ state --- ---- ------- -- ---- --- --<br>------- ------,222378.20000001788,222370.70000001788,221855.905,221859.70000001788,221872.571,222389.217,,46,state
screen,html.Screen,2_1_1_1_47,2022-02-03T13:06:13.206Z,,,,,,,,,,,,,,,,,54,,,,,,,,,,,,,,388.4830000178772,,response,,,,100,,,,,,,Space,keypress(Space),,,,,,,,-- --- ---- --- ------ ----- ------- ---- -- --- ------- --<br>------- ---------- ------ -- ----- -- ----- -- ---- ------<br>--- ----- --- --- ------ -------- ----- --- ------ ----- --<br>----- ----- ---------- --- --- ------ ------ ---- -- ------<br>------- --- ------ ----- was ---- ------- -- ---- --- --<br>------- ------,222784.40000000596,222777.70000001788,222372.551,222378.40000000596,222389.217,222789.201,,47,was
screen,html.Screen,2_1_1_1_48,2022-02-03T13:06:13.583Z,,,,,,,,,,,,,,,,,54,,,,,,,,,,,,,,365.49900001788046,,response,,,,100,,,,,,,Space,keypress(Space),,,,,,,,-- --- ---- --- ------ ----- ------- ---- -- --- ------- --<br>------- ---------- ------ -- ----- -- ----- -- ---- ------<br>--- ----- --- --- ------ -------- ----- --- ------ ----- --<br>----- ----- ---------- --- --- ------ ------ ---- -- ------<br>------- --- ------ ----- --- left ------- -- ---- --- --<br>------- ------,223161.20000001788,223154.70000001788,222772.535,222784.59999999404,222789.201,223172.519,,48,left
screen,html.Screen,2_1_1_1_49,2022-02-03T13:06:14.046Z,,,,,,,,,,,,,,,,,54,,,,,,,,,,,,,,443.18100001788116,,response,,,,100,,,,,,,Space,keypress(Space),,,,,,,,-- --- ---- --- ------ ----- ------- ---- -- --- ------- --<br>------- ---------- ------ -- ----- -- ----- -- ---- ------<br>--- ----- --- --- ------ -------- ----- --- ------ ----- --<br>----- ----- ---------- --- --- ------ ------ ---- -- ------<br>------- --- ------ ----- --- ---- without -- ---- --- --<br>------- ------,223624,223615.70000001788,223155.853,223162.30000001192,223172.519,223639.167,,49,without
screen,html.Screen,2_1_1_1_50,2022-02-03T13:06:14.423Z,,,,,,,,,,,,,,,,,54,,,,,,,,,,,,,,355.6330000119342,,response,,,,100,,,,,,,Space,keypress(Space),,,,,,,,-- --- ---- --- ------ ----- ------- ---- -- --- ------- --<br>------- ---------- ------ -- ----- -- ----- -- ---- ------<br>--- ----- --- --- ------ -------- ----- --- ------ ----- --<br>----- ----- ---------- --- --- ------ ------ ---- -- ------<br>------- --- ------ ----- --- ---- ------- an ---- --- --<br>------- ------,224001.5,223994.80000001192,223622.501,223624.09999999404,223639.167,224005.819,,50,an
screen,html.Screen,2_1_1_1_51,2022-02-03T13:06:14.827Z,,,,,,,,,,,,,,,,,54,,,,,,,,,,,,,,392.8810000178928,,response,,,,100,,,,,,,Space,keypress(Space),,,,,,,,-- --- ---- --- ------ ----- ------- ---- -- --- ------- --<br>------- ---------- ------ -- ----- -- ----- -- ---- ------<br>--- ----- --- --- ------ -------- ----- --- ------ ----- --<br>----- ----- ---------- --- --- ------ ------ ---- -- ------<br>------- --- ------ ----- --- ---- ------- -- easy --- --<br>------- ------,224405.30000001192,224398.70000001788,223989.153,224001.70000001788,224005.819,224422.469,,51,easy
screen,html.Screen,2_1_1_1_52,2022-02-03T13:06:15.221Z,,,,,,,,,,,,,,,,,54,,,,,,,,,,,,,,369.33100001190905,,response,,,,100,,,,,,,Space,keypress(Space),,,,,,,,-- --- ---- --- ------ ----- ------- ---- -- --- ------- --<br>------- ---------- ------ -- ----- -- ----- -- ---- ------<br>--- ----- --- --- ------ -------- ----- --- ------ ----- --<br>----- ----- ---------- --- --- ------ ------ ---- -- ------<br>------- --- ------ ----- --- ---- ------- -- ---- way --<br>------- ------,224798.90000000596,224791.80000001192,224405.803,224405.40000000596,224422.469,224805.787,,52,way
screen,html.Screen,2_1_1_1_53,2022-02-03T13:06:15.597Z,,,,,,,,,,,,,,,,,54,,,,,,,,,,,,,,362.1130000059493,,response,,,,100,,,,,,,Space,keypress(Space),,,,,,,,-- --- ---- --- ------ ----- ------- ---- -- --- ------- --<br>------- ---------- ------ -- ----- -- ----- -- ---- ------<br>--- ----- --- --- ------ -------- ----- --- ------ ----- --<br>----- ----- ---------- --- --- ------ ------ ---- -- ------<br>------- --- ------ ----- --- ---- ------- -- ---- --- of<br>------- ------,225175,225167.90000000596,224789.121,224799.09999999404,224805.787,225189.105,,53,of
screen,html.Screen,2_1_1_1_54,2022-02-03T13:06:16.005Z,,,,,,,,,,,,,,,,,54,,,,,,,,,,,,,,387.5950000178709,,response,,,,100,,,,,,,Space,keypress(Space),,,,,,,,-- --- ---- --- ------ ----- ------- ---- -- --- ------- --<br>------- ---------- ------ -- ----- -- ----- -- ---- ------<br>--- ----- --- --- ------ -------- ----- --- ------ ----- --<br>----- ----- ---------- --- --- ------ ------ ---- -- ------<br>------- --- ------ ----- --- ---- ------- -- ---- --- --<br>raising ------,225583.59999999404,225576.70000001788,225172.439,225175.20000001788,225189.105,225586.466,,54,raising
screen,html.Screen,2_1_1_1_55,2022-02-03T13:06:16.352Z,,,,,,,,,,,,,,,,,54,,,,,,,,,,,,,,337.2340000178956,,response,,,,100,,,,,,,Space,keypress(Space),,,,,,,,-- --- ---- --- ------ ----- ------- ---- -- --- ------- --<br>------- ---------- ------ -- ----- -- ----- -- ---- ------<br>--- ----- --- --- ------ -------- ----- --- ------ ----- --<br>----- ----- ---------- --- --- ------ ------ ---- -- ------<br>------- --- ------ ----- --- ---- ------- -- ---- --- --<br>------- money.,225930.59999999404,225923.70000001788,225569.8,225583.70000001788,225586.466,225936.452,,55,money.
Item 100,flow.Loop,2_1_1_1,2022-02-03T13:06:16.353Z,,,,,,,,,,,,,,,,,,,,,,,,,,,,,,,40777.590000017895,,completion,,,,,F,,,,,,,,,,,silence,,,,,225930.90000000596,225923.70000001788,185129.444,185132,185146.11,225936.452,,,
Question 1,html.Screen,2_1_1_2,2022-02-03T13:06:19.398Z,,,,,,,,,,,,,,,,,,,,,,,,,,,,true,TRUE,,3035.9480000059702,,response,,,,100,F,,,,,,TRUE,click #choice-1,,,,silence,,,,,228975.80000001192,228972.40000000596,225919.786,225931,225936.452,229002.996,,,
Question 2,html.Screen,2_1_1_3,2022-02-03T13:06:21.654Z,,,,,,,,,,,,,,,,,,,,,,,,,,,,true,FALSE,,2225.304000011907,,response,,,,100,F,,,,,,FALSE,click #choice-2,,,,silence,,,,,231231.59999999404,231228.30000001192,228986.33,228976,229002.996,231236.24,,,
Item 100,flow.Sequence,2_1_1,2022-02-03T13:06:21.654Z,,,,,,,,,,,,,,,,,,,,,,,,,,,,,,,56081.79000001191,,completion,,,,,,,,,,,,,,,,,,,,,231231.80000001192,231228.30000001192,175129.844,175136.5,175146.51,231236.24,,,
End of Practice,html.Page,2_1_2,2022-02-03T13:06:41.644Z,,,,,,,,,,,,,,,,,,,,,,,,,,,,,,,19999.20000000001,,timeout,,,,,,,,,,,,,,,,,,,,,251221.70000001788,251218.774,231219.574,231231.90000000596,231236.24,251235.44,,,
Practice,flow.Sequence,2_1,2022-02-03T13:06:41.644Z,,,,,,,,,,,,,,,,,,,,,,,,,,,,,,,130033.82400000001,,completion,,,,,,,,,,,,,,,,,,,,,251221.90000000596,251218.774,121168.284,121170.20000001788,121184.95,251235.44,,,
Trap_instruction,html.Page,2_2_0,2022-02-03T13:06:45.050Z,,,,,,,,,,,,,,,,,,,,,,,,,,,,,,,3391.5599999999977,,form submission,,,,,,,,,,,,,,,,,,,,,254627.5,254627,251218.774,251222,251235.44,254644.017,,,
trap_trial,html.Screen,2_2_1,2022-02-03T13:06:51.256Z,,,,,,,,,,,,,,,,,,,,,,,,,,,,true,1,,6185.783000011928,,response,,,,,,,,,,,1,click #choice-1,,,,,,,,,260833.30000001192,260829.80000001192,254610.685,254627.70000001788,254644.017,260843.769,,,
end of trap trial,html.Page,2_2_2,2022-02-03T13:07:01.252Z,,,,,,,,,,,,,,,,,,,,,,,,,,,,,,,9999.600000000006,,timeout,,,,,,,,,,,,,,,,,,,,,270829.2000000179,270826.703,260827.103,260833.59999999404,260843.769,270843.369,,,
Trap 1,flow.Sequence,2_2,2022-02-03T13:07:01.252Z,,,,,,,,,,,,,,,,,,,,,,,,,,,,,,,19591.262999999977,,completion,,,,,,,,,,,,,,,,,,,,,270829.40000000596,270826.703,251218.774,251222,251235.44,270843.369,,,
Standby,html.Page,2_3_0,2022-02-03T13:07:09.252Z,,,,,,,,,,,,,,,,,,,,,,,,,,,,,,,7999.679999999993,,timeout,,,,,,,,,,,,,,,,,,,,,278829.09999999404,278826.383,270826.703,270829.7000000179,270843.369,278843.049,,,
Holding screen,html.Screen,2_3_1_0_0,2022-02-03T13:07:16.255Z,,,,,,,,,,,,,,,,,,,,,,,,,,,,,,,7004.305999999982,,timeout,,,,,,,,,,,,,,,,,,,,,285832.40000000596,285830.689,278826.383,278829.40000000596,278843.049,285847.355,,,
screen,html.Screen,2_3_1_0_1_0,2022-02-03T13:07:19.988Z,,,,,,,,,,,,,,,,,48,,,,,,,,,,,,,,3708.1450000000186,,response,,,,10,F,,,,,,Space,keypress(Space),,,,instrumental,,,,As -- --- ------ ------- --------- ----------- --------<br>--------- -------- --- ------- -- ------- ---- -- ------<br>-- --- -------- -------- ---------- ---- ---- ---- ------<br>-- --------- -- ---- -- --- -- --- ------- -- - -----<br>---------- -- -- -- ---- ----- -- ------ -- --- ------<br>-------,289565.09999999404,289555.5,285830.689,285832.59999999404,285847.355,289580.539,,0,As
screen,html.Screen,2_3_1_0_1_1,2022-02-03T13:07:20.390Z,,,,,,,,,,,,,,,,,48,,,,,,,,,,,,,,380.8610000059707,,response,,,,10,F,,,,,,Space,keypress(Space),,,,instrumental,,,,-- in --- ------ ------- --------- ----------- --------<br>--------- -------- --- ------- -- ------- ---- -- ------<br>-- --- -------- -------- ---------- ---- ---- ---- ------<br>-- --------- -- ---- -- --- -- --- ------- -- - -----<br>---------- -- -- -- ---- ----- -- ------ -- --- ------<br>-------,289967,289961.40000000596,289563.873,289565.2000000179,289580.539,289980.523,,1,in
screen,html.Screen,2_3_1_0_1_2,2022-02-03T13:07:21.580Z,,,,,,,,,,,,,,,,,48,,,,,,,,,,,,,,1169.677000017895,,response,,,,10,F,,,,,,Space,keypress(Space),,,,instrumental,,,,-- -- the ------ ------- --------- ----------- --------<br>--------- -------- --- ------- -- ------- ---- -- ------<br>-- --- -------- -------- ---------- ---- ---- ---- ------<br>-- --------- -- ---- -- --- -- --- ------- -- - -----<br>---------- -- -- -- ---- ----- -- ------ -- --- ------<br>-------,291157.09999999404,291150.2000000179,289963.857,289967.09999999404,289980.523,291163.809,,2,the
screen,html.Screen,2_3_1_0_1_3,2022-02-03T13:07:22.077Z,,,,,,,,,,,,,,,,,48,,,,,,,,,,,,,,483.391000017873,,response,,,,10,F,,,,,,Space,keypress(Space),,,,instrumental,,,,-- -- --- United ------- --------- ----------- --------<br>--------- -------- --- ------- -- ------- ---- -- ------<br>-- --- -------- -------- ---------- ---- ---- ---- ------<br>-- --------- -- ---- -- --- -- --- ------- -- - -----<br>---------- -- -- -- ---- ----- -- ------ -- --- ------<br>-------,291654.2000000179,291647.2000000179,291147.143,291157.2000000179,291163.809,291663.789,,3,United
screen,html.Screen,2_3_1_0_1_4,2022-02-03T13:07:22.583Z,,,,,,,,,,,,,,,,,48,,,,,,,,,,,,,,489.41100001789164,,response,,,,10,F,,,,,,Space,keypress(Space),,,,instrumental,,,,"-- -- --- ------ States, --------- ----------- --------<br>--------- -------- --- ------- -- ------- ---- -- ------<br>-- --- -------- -------- ---------- ---- ---- ---- ------<br>-- --------- -- ---- -- --- -- --- ------- -- - -----<br>---------- -- -- -- ---- ----- -- ------ -- --- ------<br>-------",292160.09999999404,292153.2000000179,291647.123,291654.40000000596,291663.789,292163.769,,4,"States,"
screen,html.Screen,2_3_1_0_1_5,2022-02-03T13:07:22.692Z,,,,,,,,,,,,,,,,,48,,,,,,,,,,,,,,97.43100001791026,,response,,,,10,F,,,,,,Space,keypress(Space),,,,instrumental,,,,-- -- --- ------ ------- Colombian ----------- --------<br>--------- -------- --- ------- -- ------- ---- -- ------<br>-- --- -------- -------- ---------- ---- ---- ---- ------<br>-- --------- -- ---- -- --- -- --- ------- -- - -----<br>---------- -- -- -- ---- ----- -- ------ -- --- ------<br>-------,292268.7000000179,292261.2000000179,292147.103,292160.3000000119,292163.769,292280.431,,5,Colombian
screen,html.Screen,2_3_1_0_1_6,2022-02-03T13:07:24.779Z,,,,,,,,,,,,,,,,,48,,,,,,,,,,,,,,2067.6689999940572,,response,,,,10,F,,,,,,Space,keypress(Space),,,,instrumental,,,,-- -- --- ------ ------- --------- legislation --------<br>--------- -------- --- ------- -- ------- ---- -- ------<br>-- --- -------- -------- ---------- ---- ---- ---- ------<br>-- --------- -- ---- -- --- -- --- ------- -- - -----<br>---------- -- -- -- ---- ----- -- ------ -- --- ------<br>-------,294355.5,294348.09999999404,292263.765,292268.8000000119,292280.431,294361.792,,6,legislation
screen,html.Screen,2_3_1_0_1_7,2022-02-03T13:07:25.148Z,,,,,,,,,,,,,,,,,48,,,,,,,,,,,,,,356.3079999940237,,response,,,,10,F,,,,,,Space,keypress(Space),,,,instrumental,,,,-- -- --- ------ ------- --------- ----------- requires<br>--------- -------- --- ------- -- ------- ---- -- ------<br>-- --- -------- -------- ---------- ---- ---- ---- ------<br>-- --------- -- ---- -- --- -- --- ------- -- - -----<br>---------- -- -- -- ---- ----- -- ------ -- --- ------<br>-------,294724.7000000179,294718.09999999404,294345.126,294355.7000000179,294361.792,294728.444,,7,requires
screen,html.Screen,2_3_1_0_1_8,2022-02-03T13:07:25.627Z,,,,,,,,,,,,,,,,,48,,,,,,,,,,,,,,467.65599999402184,,response,,,,10,F,,,,,,Space,keypress(Space),,,,instrumental,,,,-- -- --- ------ ------- --------- ----------- --------<br>travelers -------- --- ------- -- ------- ---- -- ------<br>-- --- -------- -------- ---------- ---- ---- ---- ------<br>-- --------- -- ---- -- --- -- --- ------- -- - -----<br>---------- -- -- -- ---- ----- -- ------ -- --- ------<br>-------,295203.7000000179,295196.09999999404,294711.778,294725,294728.444,295211.758,,8,travelers
screen,html.Screen,2_3_1_0_1_9,2022-02-03T13:07:26.075Z,,,,,,,,,,,,,,,,,48,,,,,,,,,,,,,,432.44200001790887,,response,,,,10,F,,,,,,Space,keypress(Space),,,,instrumental,,,,-- -- --- ------ ------- --------- ----------- --------<br>--------- entering --- ------- -- ------- ---- -- ------<br>-- --- -------- -------- ---------- ---- ---- ---- ------<br>-- --------- -- ---- -- --- -- --- ------- -- - -----<br>---------- -- -- -- ---- ----- -- ------ -- --- ------<br>-------,295651.3000000119,295644.2000000179,295195.092,295204.09999999404,295211.758,295661.74,,9,entering
screen,html.Screen,2_3_1_0_1_10,2022-02-03T13:07:26.816Z,,,,,,,,,,,,,,,,,48,,,,,,,,,,,,,,723.4600000178907,,response,,,,10,F,,,,,,Space,keypress(Space),,,,instrumental,,,,-- -- --- ------ ------- --------- ----------- --------<br>--------- -------- the ------- -- ------- ---- -- ------<br>-- --- -------- -------- ---------- ---- ---- ---- ------<br>-- --------- -- ---- -- --- -- --- ------- -- - -----<br>---------- -- -- -- ---- ----- -- ------ -- --- ------<br>-------,296392.40000000596,296385.2000000179,295645.074,295651.59999999404,295661.74,296395.044,,10,the
screen,html.Screen,2_3_1_0_1_11,2022-02-03T13:07:27.223Z,,,,,,,,,,,,,,,,,48,,,,,,,,,,,,,,397.156000017887,,response,,,,10,F,,,,,,Space,keypress(Space),,,,instrumental,,,,-- -- --- ------ ------- --------- ----------- --------<br>--------- -------- --- country -- ------- ---- -- ------<br>-- --- -------- -------- ---------- ---- ---- ---- ------<br>-- --------- -- ---- -- --- -- --- ------- -- - -----<br>---------- -- -- -- ---- ----- -- ------ -- --- ------<br>-------,296799.5,296792.2000000179,296378.378,296392.59999999404,296395.044,296811.694,,11,country
screen,html.Screen,2_3_1_0_1_12,2022-02-03T13:07:27.358Z,,,,,,,,,,,,,,,,,48,,,,,,,,,,,,,,116.40599999402184,,response,,,,10,F,,,,,,Space,keypress(Space),,,,instrumental,,,,-- -- --- ------ ------- --------- ----------- --------<br>--------- -------- --- ------- to ------- ---- -- ------<br>-- --- -------- -------- ---------- ---- ---- ---- ------<br>-- --------- -- ---- -- --- -- --- ------- -- - -----<br>---------- -- -- -- ---- ----- -- ------ -- --- ------<br>-------,296934.59999999404,296928.09999999404,296795.028,296799.59999999404,296811.694,296945.022,,12,to
screen,html.Screen,2_3_1_0_1_13,2022-02-03T13:07:27.814Z,,,,,,,,,,,,,,,,,48,,,,,,,,,,,,,,437.9780000000028,,response,,,,10,F,,,,,,Space,keypress(Space),,,,instrumental,,,,-- -- --- ------ ------- --------- ----------- --------<br>--------- -------- --- ------- -- declare ---- -- ------<br>-- --- -------- -------- ---------- ---- ---- ---- ------<br>-- --------- -- ---- -- --- -- --- ------- -- - -----<br>---------- -- -- -- ---- ----- -- ------ -- --- ------<br>-------,297390.59999999404,297383,296928.356,296935.8000000119,296945.022,297395.004,,13,declare
screen,html.Screen,2_3_1_0_1_14,2022-02-03T13:07:28.245Z,,,,,,,,,,,,,,,,,48,,,,,,,,,,,,,,419.99599999998463,,response,,,,10,F,,,,,,Space,keypress(Space),,,,instrumental,,,,-- -- --- ------ ------- --------- ----------- --------<br>--------- -------- --- ------- -- ------- cash -- ------<br>-- --- -------- -------- ---------- ---- ---- ---- ------<br>-- --------- -- ---- -- --- -- --- ------- -- - -----<br>---------- -- -- -- ---- ----- -- ------ -- --- ------<br>-------,297821.90000000596,297815,297378.338,297390.7000000179,297395.004,297828.32,,14,cash
screen,html.Screen,2_3_1_0_1_15,2022-02-03T13:07:28.573Z,,,,,,,,,,,,,,,,,48,,,,,,,,,,,,,,314.77999999403255,,response,,,,10,F,,,,,,Space,keypress(Space),,,,instrumental,,,,-- -- --- ------ ------- --------- ----------- --------<br>--------- -------- --- ------- -- ------- ---- in ------<br>-- --- -------- -------- ---------- ---- ---- ---- ------<br>-- --------- -- ---- -- --- -- --- ------- -- - -----<br>---------- -- -- -- ---- ----- -- ------ -- --- ------<br>-------,298150,298143.09999999404,297811.654,297822,297828.32,298161.64,,15,in
screen,html.Screen,2_3_1_0_1_16,2022-02-03T13:07:28.902Z,,,,,,,,,,,,,,,,,48,,,,,,,,,,,,,,310.45999999402557,,response,,,,10,F,,,,,,Space,keypress(Space),,,,instrumental,,,,-- -- --- ------ ------- --------- ----------- --------<br>--------- -------- --- ------- -- ------- ---- -- excess<br>-- --- -------- -------- ---------- ---- ---- ---- ------<br>-- --------- -- ---- -- --- -- --- ------- -- - -----<br>---------- -- -- -- ---- ----- -- ------ -- --- ------<br>-------,298479.09999999404,298472.09999999404,298144.974,298150.2000000179,298161.64,298494.96,,16,excess
screen,html.Screen,2_3_1_0_1_17,2022-02-03T13:07:29.308Z,,,,,,,,,,,,,,,,,48,,,,,,,,,,,,,,383.03999999997905,,response,,,,10,F,,,,,,Space,keypress(Space),,,,instrumental,,,,-- -- --- ------ ------- --------- ----------- --------<br>--------- -------- --- ------- -- ------- ---- -- ------<br>of --- -------- -------- ---------- ---- ---- ---- ------<br>-- --------- -- ---- -- --- -- --- ------- -- - -----<br>---------- -- -- -- ---- ----- -- ------ -- --- ------<br>-------,298884.8000000119,298878,298478.294,298479.2000000179,298494.96,298894.944,,17,of
screen,html.Screen,2_3_1_0_1_18,2022-02-03T13:07:29.455Z,,,,,,,,,,,,,,,,,48,,,,,,,,,,,,,,130.0559999999823,,response,,,,10,F,,,,,,Space,keypress(Space),,,,instrumental,,,,-- -- --- ------ ------- --------- ----------- --------<br>--------- -------- --- ------- -- ------- ---- -- ------<br>-- ten -------- -------- ---------- ---- ---- ---- ------<br>-- --------- -- ---- -- --- -- --- ------- -- - -----<br>---------- -- -- -- ---- ----- -- ------ -- --- ------<br>-------,299032.3000000119,299025,298878.278,298885,298894.944,299044.938,,18,ten
screen,html.Screen,2_3_1_0_1_19,2022-02-03T13:07:29.908Z,,,,,,,,,,,,,,,,,48,,,,,,,,,,,,,,433.06199999997625,,response,,,,10,F,,,,,,Space,keypress(Space),,,,instrumental,,,,-- -- --- ------ ------- --------- ----------- --------<br>--------- -------- --- ------- -- ------- ---- -- ------<br>-- --- thousand -------- ---------- ---- ---- ---- ------<br>-- --------- -- ---- -- --- -- --- ------- -- - -----<br>---------- -- -- -- ---- ----- -- ------ -- --- ------<br>-------,299485.2000000179,299478,299028.272,299033,299044.938,299494.92,,19,thousand
screen,html.Screen,2_3_1_0_1_20,2022-02-03T13:07:30.327Z,,,,,,,,,,,,,,,,,48,,,,,,,,,,,,,,401.17999999405583,,response,,,,10,F,,,,,,Space,keypress(Space),,,,instrumental,,,,-- -- --- ------ ------- --------- ----------- --------<br>--------- -------- --- ------- -- ------- ---- -- ------<br>-- --- -------- dollars. ---------- ---- ---- ---- ------<br>-- --------- -- ---- -- --- -- --- ------- -- - -----<br>---------- -- -- -- ---- ----- -- ------ -- --- ------<br>-------,299903.7000000179,299896.09999999404,299478.254,299485.3000000119,299494.92,299911.57,,20,dollars.
screen,html.Screen,2_3_1_0_1_21,2022-02-03T13:07:30.861Z,,,,,,,,,,,,,,,,,48,,,,,,,,,,,,,,519.429999999993,,response,,,,10,F,,,,,,Space,keypress(Space),,,,instrumental,,,,-- -- --- ------ ------- --------- ----------- --------<br>--------- -------- --- ------- -- ------- ---- -- ------<br>-- --- -------- -------- Concealing ---- ---- ---- ------<br>-- --------- -- ---- -- --- -- --- ------- -- - -----<br>---------- -- -- -- ---- ----- -- ------ -- --- ------<br>-------,300438.2000000179,300431,299894.904,299903.8000000119,299911.57,300444.882,,21,Concealing
screen,html.Screen,2_3_1_0_1_22,2022-02-03T13:07:30.952Z,,,,,,,,,,,,,,,,,48,,,,,,,,,,,,,,77.11800000001676,,response,,,,10,F,,,,,,Space,keypress(Space),,,,instrumental,,,,-- -- --- ------ ------- --------- ----------- --------<br>--------- -------- --- ------- -- ------- ---- -- ------<br>-- --- -------- -------- ---------- more ---- ---- ------<br>-- --------- -- ---- -- --- -- --- ------- -- - -----<br>---------- -- -- -- ---- ----- -- ------ -- --- ------<br>-------,300528.59999999404,300522,300428.216,300438.3000000119,300444.882,300544.878,,22,more
screen,html.Screen,2_3_1_0_1_23,2022-02-03T13:07:31.800Z,,,,,,,,,,,,,,,,,48,,,,,,,,,,,,,,825.1219999999739,,response,,,,10,F,,,,,,Space,keypress(Space),,,,instrumental,,,,-- -- --- ------ ------- --------- ----------- --------<br>--------- -------- --- ------- -- ------- ---- -- ------<br>-- --- -------- -------- ---------- ---- than ---- ------<br>-- --------- -- ---- -- --- -- --- ------- -- - -----<br>---------- -- -- -- ---- ----- -- ------ -- --- ------<br>-------,301376.90000000596,301370,300528.212,300528.7000000179,300544.878,301394.844,,23,than
screen,html.Screen,2_3_1_0_1_24,2022-02-03T13:07:32.249Z,,,,,,,,,,,,,,,,,48,,,,,,,,,,,,,,423.15600000001723,,response,,,,10,F,,,,,,Space,keypress(Space),,,,instrumental,,,,-- -- --- ------ ------- --------- ----------- --------<br>--------- -------- --- ------- -- ------- ---- -- ------<br>-- --- -------- -------- ---------- ---- ---- that ------<br>-- --------- -- ---- -- --- -- --- ------- -- - -----<br>---------- -- -- -- ---- ----- -- ------ -- --- ------<br>-------,301825.7000000179,301818,301378.178,301377,301394.844,301828.16,,24,that
screen,html.Screen,2_3_1_0_1_25,2022-02-03T13:07:32.623Z,,,,,,,,,,,,,,,,,48,,,,,,,,,,,,,,363.8400000000256,,response,,,,10,F,,,,,,Space,keypress(Space),,,,instrumental,,,,-- -- --- ------ ------- --------- ----------- --------<br>--------- -------- --- ------- -- ------- ---- -- ------<br>-- --- -------- -------- ---------- ---- ---- ---- amount<br>-- --------- -- ---- -- --- -- --- ------- -- - -----<br>---------- -- -- -- ---- ----- -- ------ -- --- ------<br>-------,302199.59999999404,302192,301811.494,301825.8000000119,301828.16,302211.478,,25,amount
screen,html.Screen,2_3_1_0_1_26,2022-02-03T13:07:33.023Z,,,,,,,,,,,,,,,,,48,,,,,,,,,,,,,,380.5219999999972,,response,,,,10,F,,,,,,Space,keypress(Space),,,,instrumental,,,,-- -- --- ------ ------- --------- ----------- --------<br>--------- -------- --- ------- -- ------- ---- -- ------<br>-- --- -------- -------- ---------- ---- ---- ---- ------<br>to --------- -- ---- -- --- -- --- ------- -- - -----<br>---------- -- -- -- ---- ----- -- ------ -- --- ------<br>-------,302599.3000000119,302592,302194.812,302199.8000000119,302211.478,302611.462,,26,to
screen,html.Screen,2_3_1_0_1_27,2022-02-03T13:07:35.077Z,,,,,,,,,,,,,,,,,48,,,,,,,,,,,,,,2034.5380000000005,,response,,,,10,F,,,,,,Space,keypress(Space),,,,instrumental,,,,-- -- --- ------ ------- --------- ----------- --------<br>--------- -------- --- ------- -- ------- ---- -- ------<br>-- --- -------- -------- ---------- ---- ---- ---- ------<br>-- transport -- ---- -- --- -- --- ------- -- - -----<br>---------- -- -- -- ---- ----- -- ------ -- --- ------<br>-------,304653.59999999404,304646,302594.796,302599.5,302611.462,304661.539,,27,transport
screen,html.Screen,2_3_1_0_1_28,2022-02-03T13:07:35.513Z,,,,,,,,,,,,,,,,,48,,,,,,,,,,,,,,421.5609999940498,,response,,,,10,F,,,,,,Space,keypress(Space),,,,instrumental,,,,-- -- --- ------ ------- --------- ----------- --------<br>--------- -------- --- ------- -- ------- ---- -- ------<br>-- --- -------- -------- ---------- ---- ---- ---- ------<br>-- --------- it ---- -- --- -- --- ------- -- - -----<br>---------- -- -- -- ---- ----- -- ------ -- --- ------<br>-------,305090.09999999404,305083.09999999404,304644.873,304653.8000000119,304661.539,305094.855,,28,it
screen,html.Screen,2_3_1_0_1_29,2022-02-03T13:07:35.830Z,,,,,,,,,,,,,,,,,48,,,,,,,,,,,,,,304.8450000179,,response,,,,10,F,,,,,,Space,keypress(Space),,,,instrumental,,,,-- -- --- ------ ------- --------- ----------- --------<br>--------- -------- --- ------- -- ------- ---- -- ------<br>-- --- -------- -------- ---------- ---- ---- ---- ------<br>-- --------- -- into -- --- -- --- ------- -- - -----<br>---------- -- -- -- ---- ----- -- ------ -- --- ------<br>-------,305406.09999999404,305399.7000000179,305078.189,305090.3000000119,305094.855,305411.509,,29,into
screen,html.Screen,2_3_1_0_1_30,2022-02-03T13:07:36.128Z,,,,,,,,,,,,,,,,,48,,,,,,,,,,,,,,285.39100000594044,,response,,,,10,F,,,,,,Space,keypress(Space),,,,instrumental,,,,-- -- --- ------ ------- --------- ----------- --------<br>--------- -------- --- ------- -- ------- ---- -- ------<br>-- --- -------- -------- ---------- ---- ---- ---- ------<br>-- --------- -- ---- or --- -- --- ------- -- - -----<br>---------- -- -- -- ---- ----- -- ------ -- --- ------<br>-------,305704.40000000596,305696.90000000596,305394.843,305406.3000000119,305411.509,305711.497,,30,or
screen,html.Screen,2_3_1_0_1_31,2022-02-03T13:07:36.430Z,,,,,,,,,,,,,,,,,48,,,,,,,,,,,,,,288.40300000598654,,response,,,,10,F,,,,,,Space,keypress(Space),,,,instrumental,,,,-- -- --- ------ ------- --------- ----------- --------<br>--------- -------- --- ------- -- ------- ---- -- ------<br>-- --- -------- -------- ---------- ---- ---- ---- ------<br>-- --------- -- ---- -- out -- --- ------- -- - -----<br>---------- -- -- -- ---- ----- -- ------ -- --- ------<br>-------,306007,305999.90000000596,305694.831,305704.5,305711.497,306011.485,,31,out
screen,html.Screen,2_3_1_0_1_32,2022-02-03T13:07:36.731Z,,,,,,,,,,,,,,,,,48,,,,,,,,,,,,,,289.21500001789536,,response,,,,10,F,,,,,,Space,keypress(Space),,,,instrumental,,,,-- -- --- ------ ------- --------- ----------- --------<br>--------- -------- --- ------- -- ------- ---- -- ------<br>-- --- -------- -------- ---------- ---- ---- ---- ------<br>-- --------- -- ---- -- --- of --- ------- -- - -----<br>---------- -- -- -- ---- ----- -- ------ -- --- ------<br>-------,306307.7000000179,306300.7000000179,305994.819,306007.2000000179,306011.485,306311.473,,32,of
screen,html.Screen,2_3_1_0_1_33,2022-02-03T13:07:37.015Z,,,,,,,,,,,,,,,,,48,,,,,,,,,,,,,,273.4270000059623,,response,,,,10,F,,,,,,Space,keypress(Space),,,,instrumental,,,,-- -- --- ------ ------- --------- ----------- --------<br>--------- -------- --- ------- -- ------- ---- -- ------<br>-- --- -------- -------- ---------- ---- ---- ---- ------<br>-- --------- -- ---- -- --- -- the ------- -- - -----<br>---------- -- -- -- ---- ----- -- ------ -- --- ------<br>-------,306591.59999999404,306584.90000000596,306294.807,306307.8000000119,306311.473,306594.795,,33,the
screen,html.Screen,2_3_1_0_1_34,2022-02-03T13:07:37.303Z,,,,,,,,,,,,,,,,,48,,,,,,,,,,,,,,278.0050000119372,,response,,,,10,F,,,,,,Space,keypress(Space),,,,instrumental,,,,-- -- --- ------ ------- --------- ----------- --------<br>--------- -------- --- ------- -- ------- ---- -- ------<br>-- --- -------- -------- ---------- ---- ---- ---- ------<br>-- --------- -- ---- -- --- -- --- country -- - -----<br>---------- -- -- -- ---- ----- -- ------ -- --- ------<br>-------,306879.40000000596,306872.8000000119,306578.129,306591.7000000179,306594.795,306894.783,,34,country
screen,html.Screen,2_3_1_0_1_35,2022-02-03T13:07:37.635Z,,,,,,,,,,,,,,,,,48,,,,,,,,,,,,,,310.0170000119251,,response,,,,10,F,,,,,,Space,keypress(Space),,,,instrumental,,,,-- -- --- ------ ------- --------- ----------- --------<br>--------- -------- --- ------- -- ------- ---- -- ------<br>-- --- -------- -------- ---------- ---- ---- ---- ------<br>-- --------- -- ---- -- --- -- --- ------- is - -----<br>---------- -- -- -- ---- ----- -- ------ -- --- ------<br>-------,307211.5,307204.8000000119,306878.117,306879.59999999404,306894.783,307228.103,,35,is
screen,html.Screen,2_3_1_0_1_36,2022-02-03T13:07:37.962Z,,,,,,,,,,,,,,,,,48,,,,,,,,,,,,,,303.69700001191813,,response,,,,10,F,,,,,,Space,keypress(Space),,,,instrumental,,,,-- -- --- ------ ------- --------- ----------- --------<br>--------- -------- --- ------- -- ------- ---- -- ------<br>-- --- -------- -------- ---------- ---- ---- ---- ------<br>-- --------- -- ---- -- --- -- --- ------- -- a -----<br>---------- -- -- -- ---- ----- -- ------ -- --- ------<br>-------,307538.90000000596,307531.8000000119,307211.437,307211.59999999404,307228.103,307544.757,,36,a
screen,html.Screen,2_3_1_0_1_37,2022-02-03T13:07:38.287Z,,,,,,,,,,,,,,,,,48,,,,,,,,,,,,,,311.0430000119377,,response,,,,10,F,,,,,,Space,keypress(Space),,,,instrumental,,,,-- -- --- ------ ------- --------- ----------- --------<br>--------- -------- --- ------- -- ------- ---- -- ------<br>-- --- -------- -------- ---------- ---- ---- ---- ------<br>-- --------- -- ---- -- --- -- --- ------- -- - crime<br>---------- -- -- -- ---- ----- -- ------ -- --- ------<br>-------,307864,307855.8000000119,307528.091,307539.09999999404,307544.757,307878.077,,37,crime
screen,html.Screen,2_3_1_0_1_38,2022-02-03T13:07:38.620Z,,,,,,,,,,,,,,,,,48,,,,,,,,,,,,,,311.82300000597024,,response,,,,10,F,,,,,,Space,keypress(Space),,,,instrumental,,,,-- -- --- ------ ------- --------- ----------- --------<br>--------- -------- --- ------- -- ------- ---- -- ------<br>-- --- -------- -------- ---------- ---- ---- ---- ------<br>-- --------- -- ---- -- --- -- --- ------- -- - -----<br>punishable -- -- -- ---- ----- -- ------ -- --- ------<br>-------,308197,308189.90000000596,307861.411,307864.2000000179,307878.077,308211.397,,38,punishable
screen,html.Screen,2_3_1_0_1_39,2022-02-03T13:07:38.952Z,,,,,,,,,,,,,,,,,48,,,,,,,,,,,,,,310.4030000119237,,response,,,,10,F,,,,,,Space,keypress(Space),,,,instrumental,,,,-- -- --- ------ ------- --------- ----------- --------<br>--------- -------- --- ------- -- ------- ---- -- ------<br>-- --- -------- -------- ---------- ---- ---- ---- ------<br>-- --------- -- ---- -- --- -- --- ------- -- - -----<br>---------- by -- -- ---- ----- -- ------ -- --- ------<br>-------,308528.59999999404,308521.8000000119,308194.731,308197,308211.397,308544.717,,39,by
screen,html.Screen,2_3_1_0_1_40,2022-02-03T13:07:39.298Z,,,,,,,,,,,,,,,,,48,,,,,,,,,,,,,,322.9830000178772,,response,,,,10,F,,,,,,Space,keypress(Space),,,,instrumental,,,,-- -- --- ------ ------- --------- ----------- --------<br>--------- -------- --- ------- -- ------- ---- -- ------<br>-- --- -------- -------- ---------- ---- ---- ---- ------<br>-- --------- -- ---- -- --- -- --- ------- -- - -----<br>---------- -- up -- ---- ----- -- ------ -- --- ------<br>-------,308874.40000000596,308867.7000000179,308528.051,308528.7000000179,308544.717,308878.037,,40,up
screen,html.Screen,2_3_1_0_1_41,2022-02-03T13:07:39.595Z,,,,,,,,,,,,,,,,,48,,,,,,,,,,,,,,285.8630000059493,,response,,,,10,F,,,,,,Space,keypress(Space),,,,instrumental,,,,-- -- --- ------ ------- --------- ----------- --------<br>--------- -------- --- ------- -- ------- ---- -- ------<br>-- --- -------- -------- ---------- ---- ---- ---- ------<br>-- --------- -- ---- -- --- -- --- ------- -- - -----<br>---------- -- -- to ---- ----- -- ------ -- --- ------<br>-------,309171.3000000119,309163.90000000596,308861.371,308874.59999999404,308878.037,309178.025,,41,to
screen,html.Screen,2_3_1_0_1_42,2022-02-03T13:07:39.902Z,,,,,,,,,,,,,,,,,48,,,,,,,,,,,,,,292.8750000059372,,response,,,,10,F,,,,,,Space,keypress(Space),,,,instrumental,,,,-- -- --- ------ ------- --------- ----------- --------<br>--------- -------- --- ------- -- ------- ---- -- ------<br>-- --- -------- -------- ---------- ---- ---- ---- ------<br>-- --------- -- ---- -- --- -- --- ------- -- - -----<br>---------- -- -- -- five ----- -- ------ -- --- ------<br>-------,309478.40000000596,309470.90000000596,309161.359,309171.5,309178.025,309494.679,,42,five
