sender,sender_type,sender_id,timestamp,meta,,Blues,Classical,Country,Dance,Electronic,Folk,Gospel,Hip-Hop,Jazz,Latin,Musical/Film,New-age,Pop,Provo_ID,R&B,Rap,Reggae,Religious,Rock,Soul,Swing,Traditional,age,artist_name,correct,correctResponse,distraction,duration,ended_on,familiarity,gender,headphone_check_performance,item,list,offensiveness,pleasantness,position_correct,preference,response,response_action,snippet_file,song_name,song_rating,sound,stimulus_1,stimulus_2,stimulus_3,text,time_commit,time_end,time_render,time_run,time_show,time_switch,url,word,word_ID
Introduction,html.Screen,0_0,2021-03-29T09:15:38.271Z,"{""labjs_version"":""20.2.2"",""labjs_build"":{""flavor"":""production"",""commit"":""a25486e0c714a0ae2ce03ff94b7bb6896854dcfa""},""location"":""https://run.pavlovia.org/mvasilev/music_e/"",""userAgent"":""Mozilla/5.0 (Windows NT 10.0; Win64; x64) AppleWebKit/537.36 (KHTML, like Gecko) Chrome/89.0.4389.90 Safari/537.36"",""platform"":""Win32"",""language"":""en-GB"",""locale"":""en-GB"",""timeZone"":""Europe/London"",""timezoneOffset"":-60,""screen_width"":1536,""screen_height"":864,""scroll_width"":1536,""scroll_height"":674,""window_innerWidth"":1536,""window_innerHeight"":722,""devicePixelRatio"":1.25}",,,,,,,,,,,,,,,,,,,,,,,,,,,,,10587.748000210406,response,,,,,,,,,,continue,click button,,,,,,,,,28946.660000132397,28942.420000210404,18205.591,18326.250000158325,18354.672,28954.718,{},,
Volume calibration,html.Screen,0_1,2021-03-29T09:16:00.698Z,,,,,,,,,,,,,,,,,,,,,,,,,,,,,,22414.48200007376,response,,,,,,,,,,continue,click button,,,,,,,,,51373.760000104085,51369.20000007376,28938.317,28947.099999990314,28954.718,51371.328,,,
Task instructions,html.Screen,0_2,2021-03-29T09:16:11.461Z,,,,,,,,,,,,,,,,,,,,,,,,,,,,,,10768.507000038146,response,,,,,,,,,,continue,click button,,,,,,,,,62141.60000020638,62139.83500003815,51354.834,51374.04000014067,51371.328,62154.688,,,
Sounds,html.Screen,0_3_0_0,2021-03-29T09:16:15.712Z,,,,,,,,,,,,,,,,,,,,,,,,,,,,,,4250.771000000001,timeout,,,,,,,,1,,,,,,,,S,I,O,,66391.9050002005,66388.277,62138.346,62141.95500011556,62154.688,66405.459,,,
Judgement,html.Screen,0_3_0_1,2021-03-29T09:16:18.228Z,,,,,,,,,,,,,,,,,,,,,,,,,,,true,1,,2500.006000076217,response,,,,,,,,1,,1,click #choice-1,,,,,S,I,O,,68908.53000013158,68905.46500007622,66388.277,66392.15500000864,66405.459,68921.775,,,
Trial,flow.Sequence,0_3_0,2021-03-29T09:16:18.229Z,,,,,,,,,,,,,,,,,,,,,,,,,,,,,,6750.7770000762175,completion,,,,,,,,1,,,,,,,,S,I,O,,68909.04000005685,68905.46500007622,62138.346,62141.88000001013,62154.688,68921.775,,,
Sounds,html.Screen,0_3_1_0,2021-03-29T09:16:22.476Z,,,,,,,,,,,,,,,,,,,,,,,,,,,,,,4250.091,timeout,,,,,,,,2,,,,,,,,O,S,I,,73156.18500020355,73154.908,68904.638,68909.25500006415,68921.775,73171.866,,,
Judgement,html.Screen,0_3_1_1,2021-03-29T09:16:24.093Z,,,,,,,,,,,,,,,,,,,,,,,,,,,true,2,,1599.689000217637,response,,,,,,,,2,,2,click #choice-2,,,,,O,S,I,,74773.22000009008,74771.55500021763,73154.908,73156.42000013031,73171.866,74787.93,,,
Trial,flow.Sequence,0_3_1,2021-03-29T09:16:24.093Z,,,,,,,,,,,,,,,,,,,,,,,,,,,,,,5849.780000217637,completion,,,,,,,,2,,,,,,,,O,S,I,,74773.57000019401,74771.55500021763,68904.638,68909.19500007294,68921.775,74787.93,,,
Sounds,html.Screen,0_3_2_0,2021-03-29T09:16:28.343Z,,,,,,,,,,,,,,,,,,,,,,,,,,,,,,4250.017000000007,timeout,,,,,,,,3,,,,,,,,O,I,S,,79022.87500002421,79021.35,74771.267,74773.81000015885,74787.93,79037.947,,,
Judgement,html.Screen,0_3_2_1,2021-03-29T09:16:29.843Z,,,,,,,,,,,,,,,,,,,,,,,,,,,true,3,,1482.9480000815092,response,,,,,,,,3,,3,click #choice-3,,,,,O,I,S,,80522.98500016332,80520.89500008151,79021.35,79023.08499999344,79037.947,80537.924,,,
Trial,flow.Sequence,0_3_2,2021-03-29T09:16:29.843Z,,,,,,,,,,,,,,,,,,,,,,,,,,,,,,5732.965000081516,completion,,,,,,,,3,,,,,,,,O,I,S,,80523.2950001955,80520.89500008151,74771.267,74773.73500005342,74787.93,80537.924,,,
Sounds,html.Screen,0_3_3_0,2021-03-29T09:16:34.093Z,,,,,,,,,,,,,,,,,,,,,,,,,,,,,,4250.444000000003,timeout,,,,,,,,1,,,,,,,,S,O,I,,84772.84500002861,84771.333,80521.255,80523.49000005051,80537.924,84788.368,,,
Judgement,html.Screen,0_3_3_1,2021-03-29T09:16:35.143Z,,,,,,,,,,,,,,,,,,,,,,,,,,,true,1,,1032.3220001969166,response,,,,,,,,1,,1,click #choice-1,,,,,S,O,I,,85823.38000019081,85820.69000019692,84771.333,84773.06500007398,84788.368,85837.915,,,
Trial,flow.Sequence,0_3_3,2021-03-29T09:16:35.143Z,,,,,,,,,,,,,,,,,,,,,,,,,,,,,,5282.76600019692,completion,,,,,,,,1,,,,,,,,S,O,I,,85823.65500018932,85820.69000019692,80521.255,80523.42500002123,80537.924,85837.915,,,
Sounds,html.Screen,0_3_4_0,2021-03-29T09:16:39.393Z,,,,,,,,,,,,,,,,,,,,,,,,,,,,,,4250.010000000009,timeout,,,,,,,,3,,,,,,,,I,O,S,,90073.57500004582,90071.938,85821.278,85823.83500016294,85837.915,90087.925,,,
Judgement,html.Screen,0_3_4_1,2021-03-29T09:16:40.370Z,,,,,,,,,,,,,,,,,,,,,,,,,,,true,3,,960.9700000144512,response,,,,,,,,3,,3,click #choice-3,,,,,I,O,S,,91050.49000005238,91048.89500001445,90071.938,90073.74500017613,90087.925,91054.821,,,
Trial,flow.Sequence,0_3_4,2021-03-29T09:16:40.371Z,,,,,,,,,,,,,,,,,,,,,,,,,,,,,,5210.9800000144605,completion,,,,,,,,3,,,,,,,,I,O,S,,91050.79000000842,91048.89500001445,85821.278,85823.78000020981,85837.915,91054.821,,,
Sounds,html.Screen,0_3_5_0,2021-03-29T09:16:44.611Z,,,,,,,,,,,,,,,,,,,,,,,,,,,,,,4249.858000000007,timeout,,,,,,,,2,,,,,,,,I,S,O,,95290.73500004597,95287.948,91037.899,91050.99000013433,91054.821,95304.679,,,
Judgement,html.Screen,0_3_5_1,2021-03-29T09:16:45.572Z,,,,,,,,,,,,,,,,,,,,,,,,,,,true,2,,946.2760000540875,response,,,,,,,,2,,2,click #choice-2,,,,,I,S,O,,96252.35000019893,96250.95500005409,95287.948,95290.9150000196,95304.679,96254.942,,,
Trial,flow.Sequence,0_3_5,2021-03-29T09:16:45.572Z,,,,,,,,,,,,,,,,,,,,,,,,,,,,,,5196.134000054095,completion,,,,,,,,2,,,,,,,,I,S,O,,96252.62000015937,96250.95500005409,91037.899,91050.9350001812,91054.821,96254.942,,,
Task,flow.Loop,0_3,2021-03-29T09:16:45.579Z,,,,,,,,,,,,,,,,,,,,,,,,,,,,,,34096.26700005409,completion,,,1,,,,,,,,,,,,,,,,,96259.17500001378,96250.95500005409,62138.346,62141.800000099465,62154.688,96254.942,,,
Trap,html.Screen,0_4,2021-03-29T09:16:45.581Z,,,,,,,,,,,,,,,,,,,,,,,,,,,,,,NaN,skipped,,,,,,,,,,,,,,,,,,,,96261.04500005022,96250.95500005409,,96260.84000011906,,96254.942,,,
Thanks,html.Screen,0_5,2021-03-29T09:16:49.138Z,,,,,,,,,,,,,,,,,,,,,,,,,,,,,,3561.5929999908403,response,,,,,,,,,,continue,click button,,,,,,,,,99817.95000005513,99816.53499999084,96238.133,96261.36000012048,96254.942,102338.062,,,
Headphone screening,flow.Sequence,0,2021-03-29T09:16:49.138Z,,,,,,,,,,,,,,,,,,,,,,,,,,,,,,81461.86299999084,completion,,,,,,,,,,,,,,,,,,,,99818.22000001557,99816.53499999084,18205.591,18326.225000200793,18354.672,102338.062,,,
Instructions,html.Page,1_0,2021-03-29T09:17:09.106Z,,,,,,,,,,,,,,,,,,,,,,,,,,,,,,17447.693000077183,form submission,,,,,,,,,,,,,,,,,,,,119786.12000006251,119785.75500007719,102237.91,102279.42000003532,102338.062,119788.283,,,
Holding screen,html.Screen,1_1_0_0,2021-03-29T09:17:16.095Z,,,,,,,,,,,,,,,,,,,,,,,,,,,,,,7016.434999999998,timeout,,,,,,,,,,,,,,,,,,,,126772.220000159,126771.223,119771.205,119786.41500021331,119788.283,126804.718,,,
screen,html.Screen,1_1_0_1_0,2021-03-29T09:17:17.811Z,,,,,,,,,,,,,,,,53,,,,,,,,,,,,,,1679.3720001581823,response,,,,99,,,,,,Space,keypress(Space),,,,,,,,When -- ----- -- ------ - ------- --- ----------<br>------------- ------ ------ ---- ---- ------- ----- -- ----<br>-------- ------- -- ---------- --- - --- ----- ----- ----<br>---- --- --- ----- --- ---- ---- ------- ----- ---- -------<br>--- --- -- ----- -- --- ---- -- --- ---- -- ------ ------<br>--- ----- -- ----,128488.82000008598,128484.09000015818,126771.223,126772.50000019558,126804.718,128487.863,,0,When
screen,html.Screen,1_1_0_1_1,2021-03-29T09:17:18.342Z,,,,,,,,,,,,,,,,53,,,,,,,,,,,,,,530.8120001739735,response,,,,99,,,,,,Space,keypress(Space),,,,,,,,---- it ----- -- ------ - ------- --- ----------<br>------------- ------ ------ ---- ---- ------- ----- -- ----<br>-------- ------- -- ---------- --- - --- ----- ----- ----<br>---- --- --- ----- --- ---- ---- ------- ----- ---- -------<br>--- --- -- ----- -- --- ---- -- --- ---- -- ------ ------<br>--- ----- -- ----,129019.81000020169,129018.67500017397,128471.116,128489.06000005081,128487.863,129046.699,,1,it
screen,html.Screen,1_1_0_1_2,2021-03-29T09:17:18.815Z,,,,,,,,,,,,,,,,53,,,,,,,,,,,,,,443.64600005655666,response,,,,99,,,,,,Space,keypress(Space),,,,,,,,---- -- comes -- ------ - ------- --- ----------<br>------------- ------ ------ ---- ---- ------- ----- -- ----<br>-------- ------- -- ---------- --- - --- ----- ----- ----<br>---- --- --- ----- --- ---- ---- ------- ----- ---- -------<br>--- --- -- ----- -- --- ---- -- --- ---- -- ------ ------<br>--- ----- -- ----,129492.12500010617,129490.34500005655,129004.682,129020.02500020899,129046.699,129504.656,,2,comes
screen,html.Screen,1_1_0_1_3,2021-03-29T09:17:19.260Z,,,,,,,,,,,,,,,,53,,,,,,,,,,,,,,431.53900007480115,response,,,,99,,,,,,Space,keypress(Space),,,,,,,,---- -- ----- to ------ - ------- --- ----------<br>------------- ------ ------ ---- ---- ------- ----- -- ----<br>-------- ------- -- ---------- --- - --- ----- ----- ----<br>---- --- --- ----- --- ---- ---- ------- ----- ---- -------<br>--- --- -- ----- -- --- ---- -- --- ---- -- ------ ------<br>--- ----- -- ----,129937.35500006005,129936.1950000748,129488.157,129492.33000003733,129504.656,129954.509,,3,to
screen,html.Screen,1_1_0_1_4,2021-03-29T09:17:19.728Z,,,,,,,,,,,,,,,,53,,,,,,,,,,,,,,450.3810001216625,response,,,,99,,,,,,Space,keypress(Space),,,,,,,,---- -- ----- -- having - ------- --- ----------<br>------------- ------ ------ ---- ---- ------- ----- -- ----<br>-------- ------- -- ---------- --- - --- ----- ----- ----<br>---- --- --- ----- --- ---- ---- ------- ----- ---- -------<br>--- --- -- ----- -- --- ---- -- --- ---- -- ------ ------<br>--- ----- -- ----,130405.90500016697,130404.89000012167,129938.186,129939.11500019021,129954.509,130421.203,,4,having
screen,html.Screen,1_1_0_1_5,2021-03-29T09:17:20.142Z,,,,,,,,,,,,,,,,53,,,,,,,,,,,,,,396.99200005804596,response,,,,99,,,,,,Space,keypress(Space),,,,,,,,---- -- ----- -- ------ a ------- --- ----------<br>------------- ------ ------ ---- ---- ------- ----- -- ----<br>-------- ------- -- ---------- --- - --- ----- ----- ----<br>---- --- --- ----- --- ---- ---- ------- ----- ---- -------<br>--- --- -- ----- -- --- ---- -- --- ---- -- ------ ------<br>--- ----- -- ----,130819.8450000491,130818.19500005804,130404.57,130406.08500014059,130421.203,130837.868,,5,a
screen,html.Screen,1_1_0_1_6,2021-03-29T09:17:20.628Z,,,,,,,,,,,,,,,,53,,,,,,,,,,,,,,466.142000079868,response,,,,99,,,,,,Space,keypress(Space),,,,,,,,---- -- ----- -- ------ - lasting --- ----------<br>------------- ------ ------ ---- ---- ------- ----- -- ----<br>-------- ------- -- ---------- --- - --- ----- ----- ----<br>---- --- --- ----- --- ---- ---- ------- ----- ---- -------<br>--- --- -- ----- -- --- ---- -- --- ---- -- ------ ------<br>--- ----- -- ----,131305.93000003137,131304.01000007987,130821.226,130820.0300000608,130837.868,131321.206,,6,lasting
screen,html.Screen,1_1_0_1_7,2021-03-29T09:17:21.016Z,,,,,,,,,,,,,,,,53,,,,,,,,,,,,,,367.5840000438038,response,,,,99,,,,,,Space,keypress(Space),,,,,,,,---- -- ----- -- ------ - ------- and ----------<br>------------- ------ ------ ---- ---- ------- ----- -- ----<br>-------- ------- -- ---------- --- - --- ----- ----- ----<br>---- --- --- ----- --- ---- ---- ------- ----- ---- -------<br>--- --- -- ----- -- --- ---- -- --- ---- -- ------ ------<br>--- ----- -- ----,131693.339999998,131688.7900000438,131304.86,131306.10500019975,131321.206,131705.364,,7,and
screen,html.Screen,1_1_0_1_8,2021-03-29T09:17:21.430Z,,,,,,,,,,,,,,,,53,,,,,,,,,,,,,,400.9710001350031,response,,,,99,,,,,,Space,keypress(Space),,,,,,,,---- -- ----- -- ------ - ------- --- fulfilling<br>------------- ------ ------ ---- ---- ------- ----- -- ----<br>-------- ------- -- ---------- --- - --- ----- ----- ----<br>---- --- --- ----- --- ---- ---- ------- ----- ---- -------<br>--- --- -- ----- -- --- ---- -- --- ---- -- ------ ------<br>--- ----- -- ----,132107.7500001993,132106.335000135,131687.833,131693.51500016637,131705.364,132121.66,,8,fulfilling
screen,html.Screen,1_1_0_1_9,2021-03-29T09:17:22.044Z,,,,,,,,,,,,,,,,53,,,,,,,,,,,,,,598.5650000555033,response,,,,99,,,,,,Space,keypress(Space),,,,,,,,"---- -- ----- -- ------ - ------- --- ----------<br>relationship, ------ ------ ---- ---- ------- ----- -- ----<br>-------- ------- -- ---------- --- - --- ----- ----- ----<br>---- --- --- ----- --- ---- ---- ------- ----- ---- -------<br>--- --- -- ----- -- --- ---- -- --- ---- -- ------ ------<br>--- ----- -- ----",132721.9800001476,132720.2250000555,132104.548,132107.92500013486,132121.66,132737.838,,9,"relationship,"
screen,html.Screen,1_1_0_1_10,2021-03-29T09:17:22.534Z,,,,,,,,,,,,,,,,53,,,,,,,,,,,,,,472.4620001516305,response,,,,99,,,,,,Space,keypress(Space),,,,,,,,---- -- ----- -- ------ - ------- --- ----------<br>------------- common ------ ---- ---- ------- ----- -- ----<br>-------- ------- -- ---------- --- - --- ----- ----- ----<br>---- --- --- ----- --- ---- ---- ------- ----- ---- -------<br>--- --- -- ----- -- --- ---- -- --- ---- -- ------ ------<br>--- ----- -- ----,133211.9450001046,133210.30000015162,132721.516,132722.21000003628,132737.838,133221.235,,10,common
screen,html.Screen,1_1_0_1_11,2021-03-29T09:17:22.975Z,,,,,,,,,,,,,,,,53,,,,,,,,,,,,,,430.39000017323997,response,,,,99,,,,,,Space,keypress(Space),,,,,,,,---- -- ----- -- ------ - ------- --- ----------<br>------------- ------ wisdom ---- ---- ------- ----- -- ----<br>-------- ------- -- ---------- --- - --- ----- ----- ----<br>---- --- --- ----- --- ---- ---- ------- ----- ---- -------<br>--- --- -- ----- -- --- ---- -- --- ---- -- ------ ------<br>--- ----- -- ----,133652.67000021413,133651.62500017323,133204.855,133212.12000004016,133221.235,133654.519,,11,wisdom
screen,html.Screen,1_1_0_1_12,2021-03-29T09:17:23.412Z,,,,,,,,,,,,,,,,53,,,,,,,,,,,,,,433.6810001147387,response,,,,99,,,,,,Space,keypress(Space),,,,,,,,---- -- ----- -- ------ - ------- --- ----------<br>------------- ------ ------ says ---- ------- ----- -- ----<br>-------- ------- -- ---------- --- - --- ----- ----- ----<br>---- --- --- ----- --- ---- ---- ------- ----- ---- -------<br>--- --- -- ----- -- --- ---- -- --- ---- -- ------ ------<br>--- ----- -- ----,134090.02000000328,134088.20000011474,133638.331,133652.854999993,133654.519,134104.806,,12,says
screen,html.Screen,1_1_0_1_13,2021-03-29T09:17:23.910Z,,,,,,,,,,,,,,,,53,,,,,,,,,,,,,,481.6890001705324,response,,,,99,,,,,,Space,keypress(Space),,,,,,,,---- -- ----- -- ------ - ------- --- ----------<br>------------- ------ ------ ---- that ------- ----- -- ----<br>-------- ------- -- ---------- --- - --- ----- ----- ----<br>---- --- --- ----- --- ---- ---- ------- ----- ---- -------<br>--- --- -- ----- -- --- ---- -- --- ---- -- ------ ------<br>--- ----- -- ----,134587.7900000196,134586.49500017054,134088.222,134090.23500001058,134104.806,134604.525,,13,that
screen,html.Screen,1_1_0_1_14,2021-03-29T09:17:24.352Z,,,,,,,,,,,,,,,,53,,,,,,,,,,,,,,423.235000200948,response,,,,99,,,,,,Space,keypress(Space),,,,,,,,---- -- ----- -- ------ - ------- --- ----------<br>------------- ------ ------ ---- ---- feeling ----- -- ----<br>-------- ------- -- ---------- --- - --- ----- ----- ----<br>---- --- --- ----- --- ---- ---- ------- ----- ---- -------<br>--- --- -- ----- -- --- ---- -- --- ---- -- ------ ------<br>--- ----- -- ----,135029.2700000573,135027.76000020094,134587.853,134588.0850001704,134604.525,135037.83,,14,feeling
screen,html.Screen,1_1_0_1_15,2021-03-29T09:17:25.214Z,,,,,,,,,,,,,,,,53,,,,,,,,,,,,,,852.085000181658,response,,,,99,,,,,,Space,keypress(Space),,,,,,,,---- -- ----- -- ------ - ------- --- ----------<br>------------- ------ ------ ---- ---- ------- close -- ----<br>-------- ------- -- ---------- --- - --- ----- ----- ----<br>---- --- --- ----- --- ---- ---- ------- ----- ---- -------<br>--- --- -- ----- -- --- ---- -- --- ---- -- ------ ------<br>--- ----- -- ----,135891.31500013173,135889.91500018165,135021.73,135029.4700001832,135037.83,135904.515,,15,close
screen,html.Screen,1_1_0_1_16,2021-03-29T09:17:25.982Z,,,,,,,,,,,,,,,,53,,,,,,,,,,,,,,753.2350000130245,response,,,,99,,,,,,Space,keypress(Space),,,,,,,,---- -- ----- -- ------ - ------- --- ----------<br>------------- ------ ------ ---- ---- ------- ----- to ----<br>-------- ------- -- ---------- --- - --- ----- ----- ----<br>---- --- --- ----- --- ---- ---- ------- ----- ---- -------<br>--- --- -- ----- -- --- ---- -- --- ---- -- ------ ------<br>--- ----- -- ----,136659.22000003047,136657.75000001304,135887.882,135891.50000014342,135904.515,136671.519,,16,to
screen,html.Screen,1_1_0_1_17,2021-03-29T09:17:26.476Z,,,,,,,,,,,,,,,,53,,,,,,,,,,,,,,480.72600000476814,response,,,,99,,,,,,Space,keypress(Space),,,,,,,,---- -- ----- -- ------ - ------- --- ----------<br>------------- ------ ------ ---- ---- ------- ----- -- your<br>-------- ------- -- ---------- --- - --- ----- ----- ----<br>---- --- --- ----- --- ---- ---- ------- ----- ---- -------<br>--- --- -- ----- -- --- ---- -- --- ---- -- ------ ------<br>--- ----- -- ----,137153.6850000266,137152.24500000477,136654.833,136659.42500019446,136671.519,137187.898,,17,your
screen,html.Screen,1_1_0_1_18,2021-03-29T09:17:26.926Z,,,,,,,,,,,,,,,,53,,,,,,,,,,,,,,414.09200011199573,response,,,,99,,,,,,Space,keypress(Space),,,,,,,,---- -- ----- -- ------ - ------- --- ----------<br>------------- ------ ------ ---- ---- ------- ----- -- ----<br>romantic ------- -- ---------- --- - --- ----- ----- ----<br>---- --- --- ----- --- ---- ---- ------- ----- ---- -------<br>--- --- -- ----- -- --- ---- -- --- ---- -- ------ ------<br>--- ----- -- ----,137603.340000147,137601.99000011198,137178.02,137153.87500007637,137187.898,137621.804,,18,romantic
screen,html.Screen,1_1_0_1_19,2021-03-29T09:17:27.329Z,,,,,,,,,,,,,,,,53,,,,,,,,,,,,,,382.9260001606308,response,,,,99,,,,,,Space,keypress(Space),,,,,,,,---- -- ----- -- ------ - ------- --- ----------<br>------------- ------ ------ ---- ---- ------- ----- -- ----<br>-------- partner -- ---------- --- - --- ----- ----- ----<br>---- --- --- ----- --- ---- ---- ------- ----- ---- -------<br>--- --- -- ----- -- --- ---- -- --- ---- -- ------ ------<br>--- ----- -- ----,138006.43500010483,138004.73000016063,137588.184,137603.54000004008,137621.804,138021.161,,19,partner
screen,html.Screen,1_1_0_1_20,2021-03-29T09:17:27.762Z,,,,,,,,,,,,,,,,53,,,,,,,,,,,,,,416.404000029288,response,,,,99,,,,,,Space,keypress(Space),,,,,,,,---- -- ----- -- ------ - ------- --- ----------<br>------------- ------ ------ ---- ---- ------- ----- -- ----<br>-------- ------- is ---------- --- - --- ----- ----- ----<br>---- --- --- ----- --- ---- ---- ------- ----- ---- -------<br>--- --- -- ----- -- --- ---- -- --- ---- -- ------ ------<br>--- ----- -- ----,138439.61000000127,138437.56500002928,138004.552,138006.61500007845,138021.161,138454.495,,20,is
screen,html.Screen,1_1_0_1_21,2021-03-29T09:17:28.250Z,,,,,,,,,,,,,,,,53,,,,,,,,,,,,,,472.4200001928257,response,,,,99,,,,,,Space,keypress(Space),,,,,,,,---- -- ----- -- ------ - ------- --- ----------<br>------------- ------ ------ ---- ---- ------- ----- -- ----<br>-------- ------- -- paramount. --- - --- ----- ----- ----<br>---- --- --- ----- --- ---- ---- ------- ----- ---- -------<br>--- --- -- ----- -- --- ---- -- --- ---- -- ------ ------<br>--- ----- -- ----,138927.98500019126,138926.91500019282,138437.814,138439.79000020772,138454.495,138938.019,,21,paramount.
screen,html.Screen,1_1_0_1_22,2021-03-29T09:17:28.767Z,,,,,,,,,,,,,,,,53,,,,,,,,,,,,,,504.2710001518426,response,,,,99,,,,,,Space,keypress(Space),,,,,,,,---- -- ----- -- ------ - ------- --- ----------<br>------------- ------ ------ ---- ---- ------- ----- -- ----<br>-------- ------- -- ---------- But - --- ----- ----- ----<br>---- --- --- ----- --- ---- ---- ------- ----- ---- -------<br>--- --- -- ----- -- --- ---- -- --- ---- -- ------ ------<br>--- ----- -- ----,139444.65499999933,139442.29000015184,138921.184,138928.16500016488,138938.019,139454.783,,22,But
screen,html.Screen,1_1_0_1_23,2021-03-29T09:17:29.212Z,,,,,,,,,,,,,,,,53,,,,,,,,,,,,,,431.0770000385237,response,,,,99,,,,,,Space,keypress(Space),,,,,,,,---- -- ----- -- ------ - ------- --- ----------<br>------------- ------ ------ ---- ---- ------- ----- -- ----<br>-------- ------- -- ---------- --- a --- ----- ----- ----<br>---- --- --- ----- --- ---- ---- ------- ----- ---- -------<br>--- --- -- ----- -- --- ---- -- --- ---- -- ------ ------<br>--- ----- -- ----,139889.26500012167,139885.86000003852,139438.172,139444.8750000447,139454.783,139904.518,,23,a
screen,html.Screen,1_1_0_1_24,2021-03-29T09:17:29.623Z,,,,,,,,,,,,,,,,53,,,,,,,,,,,,,,394.87700009639957,response,,,,99,,,,,,Space,keypress(Space),,,,,,,,---- -- ----- -- ------ - ------- --- ----------<br>------------- ------ ------ ---- ---- ------- ----- -- ----<br>-------- ------- -- ---------- --- - new ----- ----- ----<br>---- --- --- ----- --- ---- ---- ------- ----- ---- -------<br>--- --- -- ----- -- --- ---- -- --- ---- -- ------ ------<br>--- ----- -- ----,140300.625000149,140299.3950000964,139888.223,139889.43500001915,139904.518,140304.638,,24,new
screen,html.Screen,1_1_0_1_25,2021-03-29T09:17:30.064Z,,,,,,,,,,,,,,,,53,,,,,,,,,,,,,,435.7120000946161,response,,,,99,,,,,,Space,keypress(Space),,,,,,,,---- -- ----- -- ------ - ------- --- ----------<br>------------- ------ ------ ---- ---- ------- ----- -- ----<br>-------- ------- -- ---------- --- - --- study ----- ----<br>---- --- --- ----- --- ---- ---- ------- ----- ---- -------<br>--- --- -- ----- -- --- ---- -- --- ---- -- ------ ------<br>--- ----- -- ----,140741.61000014283,140740.35000009462,140288.188,140300.80000008456,140304.638,140754.488,,25,study
screen,html.Screen,1_1_0_1_26,2021-03-29T09:17:30.419Z,,,,,,,,,,,,,,,,53,,,,,,,,,,,,,,340.6369999925373,response,,,,99,,,,,,Space,keypress(Space),,,,,,,,---- -- ----- -- ------ - ------- --- ----------<br>------------- ------ ------ ---- ---- ------- ----- -- ----<br>-------- ------- -- ---------- --- - --- ----- finds ----<br>---- --- --- ----- --- ---- ---- ------- ----- ---- -------<br>--- --- -- ----- -- --- ---- -- --- ---- -- ------ ------<br>--- ----- -- ----,141096.37500019744,141095.12499999255,140738.192,140741.78500007838,140754.488,141104.513,,26,finds
screen,html.Screen,1_1_0_1_27,2021-03-29T09:17:30.824Z,,,,,,,,,,,,,,,,53,,,,,,,,,,,,,,396.0720000306901,response,,,,99,,,,,,Space,keypress(Space),,,,,,,,---- -- ----- -- ------ - ------- --- ----------<br>------------- ------ ------ ---- ---- ------- ----- -- ----<br>-------- ------- -- ---------- --- - --- ----- ----- that<br>---- --- --- ----- --- ---- ---- ------- ----- ---- -------<br>--- --- -- ----- -- --- ---- -- --- ---- -- ------ ------<br>--- ----- -- ----,141501.8450000789,141500.5850000307,141087.866,141096.550000133,141104.513,141504.556,,27,that
screen,html.Screen,1_1_0_1_28,2021-03-29T09:17:31.315Z,,,,,,,,,,,,,,,,53,,,,,,,,,,,,,,486.13400012240163,response,,,,99,,,,,,Space,keypress(Space),,,,,,,,---- -- ----- -- ------ - ------- --- ----------<br>------------- ------ ------ ---- ---- ------- ----- -- ----<br>-------- ------- -- ---------- --- - --- ----- ----- ----<br>it's --- --- ----- --- ---- ---- ------- ----- ---- -------<br>--- --- -- ----- -- --- ---- -- --- ---- -- ------ ------<br>--- ----- -- ----,141992.73000005633,141990.6900001224,141488.166,141502.02000001445,141504.556,142004.513,,28,it's
screen,html.Screen,1_1_0_1_29,2021-03-29T09:17:31.772Z,,,,,,,,,,,,,,,,53,,,,,,,,,,,,,,442.8870001791802,response,,,,99,,,,,,Space,keypress(Space),,,,,,,,---- -- ----- -- ------ - ------- --- ----------<br>------------- ------ ------ ---- ---- ------- ----- -- ----<br>-------- ------- -- ---------- --- - --- ----- ----- ----<br>---- not --- ----- --- ---- ---- ------- ----- ---- -------<br>--- --- -- ----- -- --- ---- -- --- ---- -- ------ ------<br>--- ----- -- ----,142449.9150000047,142447.4000001792,141988.337,141992.91000002995,142004.513,142455.123,,29,not
screen,html.Screen,1_1_0_1_30,2021-03-29T09:17:32.245Z,,,,,,,,,,,,,,,,53,,,,,,,,,,,,,,465.6570000440406,response,,,,99,,,,,,Space,keypress(Space),,,,,,,,---- -- ----- -- ------ - ------- --- ----------<br>------------- ------ ------ ---- ---- ------- ----- -- ----<br>-------- ------- -- ---------- --- - --- ----- ----- ----<br>---- --- how ----- --- ---- ---- ------- ----- ---- -------<br>--- --- -- ----- -- --- ---- -- --- ---- -- ------ ------<br>--- ----- -- ----,142922.71000007167,142920.78000004403,142438.169,142450.1450001262,142455.123,142937.908,,30,how
screen,html.Screen,1_1_0_1_31,2021-03-29T09:17:32.701Z,,,,,,,,,,,,,,,,53,,,,,,,,,,,,,,438.78700010088505,response,,,,99,,,,,,Space,keypress(Space),,,,,,,,---- -- ----- -- ------ - ------- --- ----------<br>------------- ------ ------ ---- ---- ------- ----- -- ----<br>-------- ------- -- ---------- --- - --- ----- ----- ----<br>---- --- --- close --- ---- ---- ------- ----- ---- -------<br>--- --- -- ----- -- --- ---- -- --- ---- -- ------ ------<br>--- ----- -- ----,143378.11500020325,143376.69500010088,142921.501,142922.93500015512,142937.908,143387.818,,31,close
screen,html.Screen,1_1_0_1_32,2021-03-29T09:17:33.112Z,,,,,,,,,,,,,,,,53,,,,,,,,,,,,,,399.52200003896724,response,,,,99,,,,,,Space,keypress(Space),,,,,,,,---- -- ----- -- ------ - ------- --- ----------<br>------------- ------ ------ ---- ---- ------- ----- -- ----<br>-------- ------- -- ---------- --- - --- ----- ----- ----<br>---- --- --- ----- you ---- ---- ------- ----- ---- -------<br>--- --- -- ----- -- --- ---- -- --- ---- -- ------ ------<br>--- ----- -- ----,143789.31500017643,143787.34000003897,143371.507,143378.31500009634,143387.818,143804.494,,32,you
screen,html.Screen,1_1_0_1_33,2021-03-29T09:17:33.522Z,,,,,,,,,,,,,,,,53,,,,,,,,,,,,,,393.75600013224175,response,,,,99,,,,,,Space,keypress(Space),,,,,,,,---- -- ----- -- ------ - ------- --- ----------<br>------------- ------ ------ ---- ---- ------- ----- -- ----<br>-------- ------- -- ---------- --- - --- ----- ----- ----<br>---- --- --- ----- --- feel ---- ------- ----- ---- -------<br>--- --- -- ----- -- --- ---- -- --- ---- -- ------ ------<br>--- ----- -- ----,144199.60500020534,144198.25000013225,143787.912,143789.49500015005,143804.494,144204.513,,33,feel
screen,html.Screen,1_1_0_1_34,2021-03-29T09:17:33.952Z,,,,,,,,,,,,,,,,53,,,,,,,,,,,,,,422.2670000496146,response,,,,99,,,,,,Space,keypress(Space),,,,,,,,---- -- ----- -- ------ - ------- --- ----------<br>------------- ------ ------ ---- ---- ------- ----- -- ----<br>-------- ------- -- ---------- --- - --- ----- ----- ----<br>---- --- --- ----- --- ---- that ------- ----- ---- -------<br>--- --- -- ----- -- --- ---- -- --- ---- -- ------ ------<br>--- ----- -- ----,144629.14000009187,144626.78000004962,144188.081,144199.79000021704,144204.513,144638.659,,34,that
screen,html.Screen,1_1_0_1_35,2021-03-29T09:17:34.432Z,,,,,,,,,,,,,,,,53,,,,,,,,,,,,,,468.05600000169943,response,,,,99,,,,,,Space,keypress(Space),,,,,,,,---- -- ----- -- ------ - ------- --- ----------<br>------------- ------ ------ ---- ---- ------- ----- -- ----<br>-------- ------- -- ---------- --- - --- ----- ----- ----<br>---- --- --- ----- --- ---- ---- matters ----- ---- -------<br>--- --- -- ----- -- --- ---- -- --- ---- -- ------ ------<br>--- ----- -- ----,145109.13500003517,145106.7150000017,144621.171,144629.35500009917,144638.659,145121.162,,35,matters
screen,html.Screen,1_1_0_1_36,2021-03-29T09:17:34.842Z,,,,,,,,,,,,,,,,53,,,,,,,,,,,,,,396.533000162337,response,,,,99,,,,,,Space,keypress(Space),,,,,,,,"---- -- ----- -- ------ - ------- --- ----------<br>------------- ------ ------ ---- ---- ------- ----- -- ----<br>-------- ------- -- ---------- --- - --- ----- ----- ----<br>---- --- --- ----- --- ---- ---- ------- most, ---- -------<br>--- --- -- ----- -- --- ---- -- --- ---- -- ------ ------<br>--- ----- -- ----",145519.05500004068,145517.69500016235,145104.813,145109.35000004247,145121.162,145521.165,,36,"most,"
screen,html.Screen,1_1_0_1_37,2021-03-29T09:17:35.314Z,,,,,,,,,,,,,,,,53,,,,,,,,,,,,,,469.24500008582254,response,,,,99,,,,,,Space,keypress(Space),,,,,,,,---- -- ----- -- ------ - ------- --- ----------<br>------------- ------ ------ ---- ---- ------- ----- -- ----<br>-------- ------- -- ---------- --- - --- ----- ----- ----<br>---- --- --- ----- --- ---- ---- ------- ----- it's -------<br>--- --- -- ----- -- --- ---- -- --- ---- -- ------ ------<br>--- ----- -- ----,145991.7500000447,145990.41000008583,145504.838,145519.24000005238,145521.165,146004.48,,37,it's
screen,html.Screen,1_1_0_1_38,2021-03-29T09:17:35.690Z,,,,,,,,,,,,,,,,53,,,,,,,,,,,,,,360.12000020450796,response,,,,99,,,,,,Space,keypress(Space),,,,,,,,---- -- ----- -- ------ - ------- --- ----------<br>------------- ------ ------ ---- ---- ------- ----- -- ----<br>-------- ------- -- ---------- --- - --- ----- ----- ----<br>---- --- --- ----- --- ---- ---- ------- ----- ---- whether<br>--- --- -- ----- -- --- ---- -- --- ---- -- ------ ------<br>--- ----- -- ----,146367.03500011936,146364.60000020452,145987.901,145991.9350000564,146004.48,146372.132,,38,whether
screen,html.Screen,1_1_0_1_39,2021-03-29T09:17:36.135Z,,,,,,,,,,,,,,,,53,,,,,,,,,,,,,,438.07299998702365,response,,,,99,,,,,,Space,keypress(Space),,,,,,,,---- -- ----- -- ------ - ------- --- ----------<br>------------- ------ ------ ---- ---- ------- ----- -- ----<br>-------- ------- -- ---------- --- - --- ----- ----- ----<br>---- --- --- ----- --- ---- ---- ------- ----- ---- -------<br>you --- -- ----- -- --- ---- -- --- ---- -- ------ ------<br>--- ----- -- ----,146812.58500018157,146810.20499998704,146354.508,146367.2450000886,146372.132,146821.1,,39,you
screen,html.Screen,1_1_0_1_40,2021-03-29T09:17:36.568Z,,,,,,,,,,,,,,,,53,,,,,,,,,,,,,,422.605000029871,response,,,,99,,,,,,Space,keypress(Space),,,,,,,,---- -- ----- -- ------ - ------- --- ----------<br>------------- ------ ------ ---- ---- ------- ----- -- ----<br>-------- ------- -- ---------- --- - --- ----- ----- ----<br>---- --- --- ----- --- ---- ---- ------- ----- ---- -------<br>--- are -- ----- -- --- ---- -- --- ---- -- ------ ------<br>--- ----- -- ----,147245.0550000649,147243.70500002988,146804.852,146812.78000003658,146821.1,147254.516,,40,are
screen,html.Screen,1_1_0_1_41,2021-03-29T09:17:36.966Z,,,,,,,,,,,,,,,,53,,,,,,,,,,,,,,386.40900018886896,response,,,,99,,,,,,Space,keypress(Space),,,,,,,,---- -- ----- -- ------ - ------- --- ----------<br>------------- ------ ------ ---- ---- ------- ----- -- ----<br>-------- ------- -- ---------- --- - --- ----- ----- ----<br>---- --- --- ----- --- ---- ---- ------- ----- ---- -------<br>--- --- as ----- -- --- ---- -- --- ---- -- ------ ------<br>--- ----- -- ----,147643.29500007443,147640.92500018887,147238.184,147245.24500011466,147254.516,147654.487,,41,as
screen,html.Screen,1_1_0_1_42,2021-03-29T09:17:37.365Z,,,,,,,,,,,,,,,,53,,,,,,,,,,,,,,386.72300017040106,response,,,,99,,,,,,Space,keypress(Space),,,,,,,,---- -- ----- -- ------ - ------- --- ----------<br>------------- ------ ------ ---- ---- ------- ----- -- ----<br>-------- ------- -- ---------- --- - --- ----- ----- ----<br>---- --- --- ----- --- ---- ---- ------- ----- ---- -------<br>--- --- -- close -- --- ---- -- --- ---- -- ------ ------<br>--- ----- -- ----,148042.5750000868,148041.2100001704,147637.993,147643.51000008173,147654.487,148054.477,,42,close
screen,html.Screen,1_1_0_1_43,2021-03-29T09:17:37.787Z,,,,,,,,,,,,,,,,53,,,,,,,,,,,,,,407.76300002256176,response,,,,99,,,,,,Space,keypress(Space),,,,,,,,---- -- ----- -- ------ - ------- --- ----------<br>------------- ------ ------ ---- ---- ------- ----- -- ----<br>-------- ------- -- ---------- --- - --- ----- ----- ----<br>---- --- --- ----- --- ---- ---- ------- ----- ---- -------<br>--- --- -- ----- as --- ---- -- --- ---- -- ------ ------<br>--- ----- -- ----,148464.760000119,148462.24000002258,148038.171,148042.7600000985,148054.477,148471.662,,43,as
screen,html.Screen,1_1_0_1_44,2021-03-29T09:17:38.217Z,,,,,,,,,,,,,,,,53,,,,,,,,,,,,,,420.6129999910481,response,,,,99,,,,,,Space,keypress(Space),,,,,,,,---- -- ----- -- ------ - ------- --- ----------<br>------------- ------ ------ ---- ---- ------- ----- -- ----<br>-------- ------- -- ---------- --- - --- ----- ----- ----<br>---- --- --- ----- --- ---- ---- ------- ----- ---- -------<br>--- --- -- ----- -- you ---- -- --- ---- -- ------ ------<br>--- ----- -- ----,148894.65000014752,148892.27499999106,148454.835,148465.00000008382,148471.662,148904.564,,44,you
screen,html.Screen,1_1_0_1_45,2021-03-29T09:17:38.587Z,,,,,,,,,,,,,,,,53,,,,,,,,,,,,,,357.6610001877416,response,,,,99,,,,,,Space,keypress(Space),,,,,,,,---- -- ----- -- ------ - ------- --- ----------<br>------------- ------ ------ ---- ---- ------- ----- -- ----<br>-------- ------- -- ---------- --- - --- ----- ----- ----<br>---- --- --- ----- --- ---- ---- ------- ----- ---- -------<br>--- --- -- ----- -- --- want -- --- ---- -- ------ ------<br>--- ----- -- ----,149264.65000002645,149262.22500018775,148888.228,148894.86500015482,148904.564,149271.264,,45,want
screen,html.Screen,1_1_0_1_46,2021-03-29T09:17:38.995Z,,,,,,,,,,,,,,,,53,,,,,,,,,,,,,,399.0160001949116,response,,,,99,,,,,,Space,keypress(Space),,,,,,,,---- -- ----- -- ------ - ------- --- ----------<br>------------- ------ ------ ---- ---- ------- ----- -- ----<br>-------- ------- -- ---------- --- - --- ----- ----- ----<br>---- --- --- ----- --- ---- ---- ------- ----- ---- -------<br>--- --- -- ----- -- --- ---- to --- ---- -- ------ ------<br>--- ----- -- ----,149672.0300000161,149670.2800001949,149254.84,149264.85500019044,149271.264,149687.9,,46,to
screen,html.Screen,1_1_0_1_47,2021-03-29T09:17:39.435Z,,,,,,,,,,,,,,,,53,,,,,,,,,,,,,,422.9950001653342,response,,,,99,,,,,,Space,keypress(Space),,,,,,,,"---- -- ----- -- ------ - ------- --- ----------<br>------------- ------ ------ ---- ---- ------- ----- -- ----<br>-------- ------- -- ---------- --- - --- ----- ----- ----<br>---- --- --- ----- --- ---- ---- ------- ----- ---- -------<br>--- --- -- ----- -- --- ---- -- be, ---- -- ------ ------<br>--- ----- -- ----",150112.23000008613,150110.89500016533,149671.508,149672.22500010394,149687.9,150121.531,,47,"be,"
screen,html.Screen,1_1_0_1_48,2021-03-29T09:17:39.880Z,,,,,,,,,,,,,,,,53,,,,,,,,,,,,,,432.1590002043813,response,,,,99,,,,,,Space,keypress(Space),,,,,,,,---- -- ----- -- ------ - ------- --- ----------<br>------------- ------ ------ ---- ---- ------- ----- -- ----<br>-------- ------- -- ---------- --- - --- ----- ----- ----<br>---- --- --- ----- --- ---- ---- ------- ----- ---- -------<br>--- --- -- ----- -- --- ---- -- --- even -- ------ ------<br>--- ----- -- ----,150557.10500013083,150553.69000020437,150104.83,150112.42500017397,150121.531,150571.461,,48,even
screen,html.Screen,1_1_0_1_49,2021-03-29T09:17:40.298Z,,,,,,,,,,,,,,,,53,,,,,,,,,,,,,,400.27400014468003,response,,,,99,,,,,,Space,keypress(Space),,,,,,,,---- -- ----- -- ------ - ------- --- ----------<br>------------- ------ ------ ---- ---- ------- ----- -- ----<br>-------- ------- -- ---------- --- - --- ----- ----- ----<br>---- --- --- ----- --- ---- ---- ------- ----- ---- -------<br>--- --- -- ----- -- --- ---- -- --- ---- if ------ ------<br>--- ----- -- ----,150975.1300001517,150971.7350001447,150554.722,150557.32000013813,150571.461,150988.203,,49,if
screen,html.Screen,1_1_0_1_50,2021-03-29T09:17:40.757Z,,,,,,,,,,,,,,,,53,,,,,,,,,,,,,,444.76200016002986,response,,,,99,,,,,,Space,keypress(Space),,,,,,,,---- -- ----- -- ------ - ------- --- ----------<br>------------- ------ ------ ---- ---- ------- ----- -- ----<br>-------- ------- -- ---------- --- - --- ----- ----- ----<br>---- --- --- ----- --- ---- ---- ------- ----- ---- -------<br>--- --- -- ----- -- --- ---- -- --- ---- -- that's ------<br>--- ----- -- ----,151434.99000021257,151432.96500016004,150971.226,150975.345000159,150988.203,151437.799,,50,that's
screen,html.Screen,1_1_0_1_51,2021-03-29T09:17:41.181Z,,,,,,,,,,,,,,,,53,,,,,,,,,,,,,,415.9610000854591,response,,,,99,,,,,,Space,keypress(Space),,,,,,,,---- -- ----- -- ------ - ------- --- ----------<br>------------- ------ ------ ---- ---- ------- ----- -- ----<br>-------- ------- -- ---------- --- - --- ----- ----- ----<br>---- --- --- ----- --- ---- ---- ------- ----- ---- -------<br>--- --- -- ----- -- --- ---- -- --- ---- -- ------ really<br>--- ----- -- ----,151858.58500003815,151853.76000008546,151421.505,151435.16000011005,151437.799,151871.164,,51,really
screen,html.Screen,1_1_0_1_52,2021-03-29T09:17:41.619Z,,,,,,,,,,,,,,,,53,,,,,,,,,,,,,,422.62099998712074,response,,,,99,,,,,,Space,keypress(Space),,,,,,,,---- -- ----- -- ------ - ------- --- ----------<br>------------- ------ ------ ---- ---- ------- ----- -- ----<br>-------- ------- -- ---------- --- - --- ----- ----- ----<br>---- --- --- ----- --- ---- ---- ------- ----- ---- -------<br>--- --- -- ----- -- --- ---- -- --- ---- -- ------ ------<br>not ----- -- ----,152296.22500017285,152293.7849999871,151854.847,151861.20000015944,151871.164,152304.453,,52,not
screen,html.Screen,1_1_0_1_53,2021-03-29T09:17:42.083Z,,,,,,,,,,,,,,,,53,,,,,,,,,,,,,,454.9570001733664,response,,,,99,,,,,,Space,keypress(Space),,,,,,,,---- -- ----- -- ------ - ------- --- ----------<br>------------- ------ ------ ---- ---- ------- ----- -- ----<br>-------- ------- -- ---------- --- - --- ----- ----- ----<br>---- --- --- ----- --- ---- ---- ------- ----- ---- -------<br>--- --- -- ----- -- --- ---- -- --- ---- -- ------ ------<br>--- close -- ----,152760.67500002682,152759.41000017338,152288.174,152296.43500014208,152304.453,152771.097,,53,close
screen,html.Screen,1_1_0_1_54,2021-03-29T09:17:42.562Z,,,,,,,,,,,,,,,,53,,,,,,,,,,,,,,466.2680001827539,response,,,,99,,,,,,Space,keypress(Space),,,,,,,,---- -- ----- -- ------ - ------- --- ----------<br>------------- ------ ------ ---- ---- ------- ----- -- ----<br>-------- ------- -- ---------- --- - --- ----- ----- ----<br>---- --- --- ----- --- ---- ---- ------- ----- ---- -------<br>--- --- -- ----- -- --- ---- -- --- ---- -- ------ ------<br>--- ----- at ----,153239.55000005662,153237.36500018276,152754.498,152760.84500015713,152771.097,153254.469,,54,at
screen,html.Screen,1_1_0_1_55,2021-03-29T09:17:43.355Z,,,,,,,,,,,,,,,,53,,,,,,,,,,,,,,776.7010000893206,response,,,,99,,,,,,Space,keypress(Space),,,,,,,,---- -- ----- -- ------ - ------- --- ----------<br>------------- ------ ------ ---- ---- ------- ----- -- ----<br>-------- ------- -- ---------- --- - --- ----- ----- ----<br>---- --- --- ----- --- ---- ---- ------- ----- ---- -------<br>--- --- -- ----- -- --- ---- -- --- ---- -- ------ ------<br>--- ----- -- all.,154032.44000021368,154031.17000008933,153238.142,153239.72000018694,153254.469,154037.828,,55,all.
Item 99,flow.Loop,1_1_0_1,2021-03-29T09:17:43.355Z,,,,,,,,,,,,,,,,,,,,,,,,,,,,,,27226.45200008934,completion,,,,,E,,,,,,,,,,silence,,,,,154032.79500012286,154031.17000008933,126771.223,126772.42500009015,126804.718,154037.828,,,
Question 1,html.Screen,1_1_0_2,2021-03-29T09:17:48.329Z,,,,,,,,,,,,,,,,,,,,,,,,,,,true,FALSE,,4967.532000068313,response,,,,99,E,,,,,FALSE,click #choice-2,,,,silence,,,,,159006.9650001824,159005.36000006832,154021.184,154032.94500010088,154037.828,159021.123,,,
Question 2,html.Screen,1_1_0_3,2021-03-29T09:17:54.637Z,,,,,,,,,,,,,,,,,,,,,,,,,,,true,TRUE,,6291.422000109829,response,,,,99,E,,,,,TRUE,click #choice-1,,,,silence,,,,,165314.0250002034,165312.54500010982,159004.543,159007.1600000374,159021.123,165321.262,,,
Item 99,flow.Sequence,1_1_0,2021-03-29T09:17:54.637Z,,,,,,,,,,,,,,,,,,,,,,,,,,,,,,45524.262000109826,completion,,,,,,,,,,,,,,,,,,,,165314.29500016384,165312.54500010982,119771.205,119786.37000010349,119788.283,165321.262,,,
Holding screen,html.Screen,1_1_1_0,2021-03-29T09:18:01.628Z,,,,,,,,,,,,,,,,,,,,,,,,,,,,,,7000.314000000013,timeout,,,,,,,,,,,,,,,,,,,,172305.93500006944,172304.803,165304.687,165314.46500006132,165321.262,172321.576,,,
screen,html.Screen,1_1_1_1_0,2021-03-29T09:18:02.711Z,,,,,,,,,,,,,,,,54,,,,,,,,,,,,,,1065.3440001936397,response,,,,100,,,,,,Space,keypress(Space),,,,,,,,At --- ---- --- ------ ----- ------- ---- -- --- ------- --<br>------- ---------- ------ -- ----- -- ----- -- ---- ------<br>--- ----- --- --- ------ -------- ----- --- ------ ----- --<br>----- ----- ---------- --- --- ------ ------ ---- -- ------<br>------- --- ------ ----- --- ---- ------- -- ---- --- --<br>------- ------,173388.9200000558,173386.92000019364,172304.803,172306.21500010602,172321.576,173414.63,,0,At
screen,html.Screen,1_1_1_1_1,2021-03-29T09:18:03.088Z,,,,,,,,,,,,,,,,54,,,,,,,,,,,,,,349.2000000689877,response,,,,100,,,,,,Space,keypress(Space),,,,,,,,-- the ---- --- ------ ----- ------- ---- -- --- ------- --<br>------- ---------- ------ -- ----- -- ----- -- ---- ------<br>--- ----- --- --- ------ -------- ----- --- ------ ----- --<br>----- ----- ---------- --- --- ------ ------ ---- -- ------<br>------- --- ------ ----- --- ---- ------- -- ---- --- --<br>------- ------,173765.53000020795,173763.830000069,173371.106,173389.10000002943,173414.63,173771.571,,1,the
screen,html.Screen,1_1_1_1_2,2021-03-29T09:18:03.480Z,,,,,,,,,,,,,,,,54,,,,,,,,,,,,,,385.0139999897219,response,,,,100,,,,,,Space,keypress(Space),,,,,,,,-- --- time --- ------ ----- ------- ---- -- --- ------- --<br>------- ---------- ------ -- ----- -- ----- -- ---- ------<br>--- ----- --- --- ------ -------- ----- --- ------ ----- --<br>----- ----- ---------- --- --- ------ ------ ---- -- ------<br>------- --- ------ ----- --- ---- ------- -- ---- --- --<br>------- ------,174157.60000003502,174156.58499998972,173754.399,173765.74000017717,173771.571,174171.424,,2,time
screen,html.Screen,1_1_1_1_3,2021-03-29T09:18:03.819Z,,,,,,,,,,,,,,,,54,,,,,,,,,,,,,,323.6810002127895,response,,,,100,,,,,,Space,keypress(Space),,,,,,,,-- --- ---- the ------ ----- ------- ---- -- --- ------- --<br>------- ---------- ------ -- ----- -- ----- -- ---- ------<br>--- ----- --- --- ------ -------- ----- --- ------ ----- --<br>----- ----- ---------- --- --- ------ ------ ---- -- ------<br>------- --- ------ ----- --- ---- ------- -- ---- --- --<br>------- ------,174496.17000017315,174495.1050002128,174154.813,174157.78500004672,174171.424,174504.379,,3,the
screen,html.Screen,1_1_1_1_4,2021-03-29T09:18:04.271Z,,,,,,,,,,,,,,,,54,,,,,,,,,,,,,,443.07600013233605,response,,,,100,,,,,,Space,keypress(Space),,,,,,,,-- --- ---- --- French ----- ------- ---- -- --- ------- --<br>------- ---------- ------ -- ----- -- ----- -- ---- ------<br>--- ----- --- --- ------ -------- ----- --- ------ ----- --<br>----- ----- ---------- --- --- ------ ------ ---- -- ------<br>------- --- ------ ----- --- ---- ------- -- ---- --- --<br>------- ------,174948.52500013076,174947.45500013232,174487.826,174496.5300001204,174504.379,174954.463,,4,French
screen,html.Screen,1_1_1_1_5,2021-03-29T09:18:04.651Z,,,,,,,,,,,,,,,,54,,,,,,,,,,,,,,372.842000042554,response,,,,100,,,,,,Space,keypress(Space),,,,,,,,-- --- ---- --- ------ crown ------- ---- -- --- ------- --<br>------- ---------- ------ -- ----- -- ----- -- ---- ------<br>--- ----- --- --- ------ -------- ----- --- ------ ----- --<br>----- ----- ---------- --- --- ------ ------ ---- -- ------<br>------- --- ------ ----- --- ---- ------- -- ---- --- --<br>------- ------,175328.96000007167,175327.30500004254,174938.112,174948.74000013806,174954.463,175338.575,,5,crown
screen,html.Screen,1_1_1_1_6,2021-03-29T09:18:05.029Z,,,,,,,,,,,,,,,,54,,,,,,,,,,,,,,366.930000194523,response,,,,100,,,,,,Space,keypress(Space),,,,,,,,-- --- ---- --- ------ ----- secured ---- -- --- ------- --<br>------- ---------- ------ -- ----- -- ----- -- ---- ------<br>--- ----- --- --- ------ -------- ----- --- ------ ----- --<br>----- ----- ---------- --- --- ------ ------ ---- -- ------<br>------- --- ------ ----- --- ---- ------- -- ---- --- --<br>------- ------,175706.7050000187,175705.50500019453,175321.133,175329.17500007898,175338.575,175721.106,,6,secured
screen,html.Screen,1_1_1_1_7,2021-03-29T09:18:05.417Z,,,,,,,,,,,,,,,,54,,,,,,,,,,,,,,372.10900011719787,response,,,,100,,,,,,Space,keypress(Space),,,,,,,,-- --- ---- --- ------ ----- ------- much -- --- ------- --<br>------- ---------- ------ -- ----- -- ----- -- ---- ------<br>--- ----- --- --- ------ -------- ----- --- ------ ----- --<br>----- ----- ---------- --- --- ------ ------ ---- -- ------<br>------- --- ------ ----- --- ---- ------- -- ---- --- --<br>------- ------,176094.81999999844,176093.2150001172,175704.848,175706.920000026,175721.106,176104.816,,7,much
screen,html.Screen,1_1_1_1_8,2021-03-29T09:18:05.826Z,,,,,,,,,,,,,,,,54,,,,,,,,,,,,,,397.18900013307575,response,,,,100,,,,,,Space,keypress(Space),,,,,,,,-- --- ---- --- ------ ----- ------- ---- of --- ------- --<br>------- ---------- ------ -- ----- -- ----- -- ---- ------<br>--- ----- --- --- ------ -------- ----- --- ------ ----- --<br>----- ----- ---------- --- --- ------ ------ ---- -- ------<br>------- --- ------ ----- --- ---- ------- -- ---- --- --<br>------- ------,176503.70000000112,176502.00500013307,176088.096,176095.0000002049,176104.816,176538.237,,8,of
screen,html.Screen,1_1_1_1_9,2021-03-29T09:18:06.154Z,,,,,,,,,,,,,,,,54,,,,,,,,,,,,,,292.39800002027187,response,,,,100,,,,,,Space,keypress(Space),,,,,,,,-- --- ---- --- ------ ----- ------- ---- -- its ------- --<br>------- ---------- ------ -- ----- -- ----- -- ---- ------<br>--- ----- --- --- ------ -------- ----- --- ------ ----- --<br>----- ----- ---------- --- --- ------ ------ ---- -- ------<br>------- --- ------ ----- --- ---- ------- -- ---- --- --<br>------- ------,176831.75000012852,176830.63500002027,176521.465,176503.91500000842,176538.237,176837.799,,9,its
screen,html.Screen,1_1_1_1_10,2021-03-29T09:18:06.700Z,,,,,,,,,,,,,,,,54,,,,,,,,,,,,,,538.0510001858929,response,,,,100,,,,,,Space,keypress(Space),,,,,,,,-- --- ---- --- ------ ----- ------- ---- -- --- revenue --<br>------- ---------- ------ -- ----- -- ----- -- ---- ------<br>--- ----- --- --- ------ -------- ----- --- ------ ----- --<br>----- ----- ---------- --- --- ------ ------ ---- -- ------<br>------- --- ------ ----- --- ---- ------- -- ---- --- --<br>------- ------,177377.07000016235,177375.8500001859,176821.449,176832.9950000625,176837.799,177387.772,,10,revenue
screen,html.Screen,1_1_1_1_11,2021-03-29T09:18:07.112Z,,,,,,,,,,,,,,,,54,,,,,,,,,,,,,,399.7330001312075,response,,,,100,,,,,,Space,keypress(Space),,,,,,,,-- --- ---- --- ------ ----- ------- ---- -- --- ------- by<br>------- ---------- ------ -- ----- -- ----- -- ---- ------<br>--- ----- --- --- ------ -------- ----- --- ------ ----- --<br>----- ----- ---------- --- --- ------ ------ ---- -- ------<br>------- --- ------ ----- --- ---- ------- -- ---- --- --<br>------- ------,177789.38500001095,177787.5050001312,177371.457,177377.2750000935,177387.772,177804.439,,11,by
screen,html.Screen,1_1_1_1_12,2021-03-29T09:18:07.618Z,,,,,,,,,,,,,,,,54,,,,,,,,,,,,,,490.20600001630373,response,,,,100,,,,,,Space,keypress(Space),,,,,,,,-- --- ---- --- ------ ----- ------- ---- -- --- ------- --<br>issuing ---------- ------ -- ----- -- ----- -- ---- ------<br>--- ----- --- --- ------ -------- ----- --- ------ ----- --<br>----- ----- ---------- --- --- ------ ------ ---- -- ------<br>------- --- ------ ----- --- ---- ------- -- ---- --- --<br>------- ------,178296.01000016555,178294.64500001632,177788.116,177789.57000002265,177804.439,178304.426,,12,issuing
screen,html.Screen,1_1_1_1_13,2021-03-29T09:18:08.100Z,,,,,,,,,,,,,,,,54,,,,,,,,,,,,,,471.1890001659922,response,,,,100,,,,,,Space,keypress(Space),,,,,,,,-- --- ---- --- ------ ----- ------- ---- -- --- ------- --<br>------- government ------ -- ----- -- ----- -- ---- ------<br>--- ----- --- --- ------ -------- ----- --- ------ ----- --<br>----- ----- ---------- --- --- ------ ------ ---- -- ------<br>------- --- ------ ----- --- ---- ------- -- ---- --- --<br>------- ------,178777.07000006922,178775.615000166,178287.823,178296.19000013918,178304.426,178788.079,,13,government
screen,html.Screen,1_1_1_1_14,2021-03-29T09:18:09.013Z,,,,,,,,,,,,,,,,54,,,,,,,,,,,,,,898.6460001523665,response,,,,100,,,,,,Space,keypress(Space),,,,,,,,-- --- ---- --- ------ ----- ------- ---- -- --- ------- --<br>------- ---------- bonds. -- ----- -- ----- -- ---- ------<br>--- ----- --- --- ------ -------- ----- --- ------ ----- --<br>----- ----- ---------- --- --- ------ ------ ---- -- ------<br>------- --- ------ ----- --- ---- ------- -- ---- --- --<br>------- ------,179690.03000017256,179686.72500015236,178771.145,178777.25000004284,178788.079,179704.52,,14,bonds.
screen,html.Screen,1_1_1_1_15,2021-03-29T09:18:09.663Z,,,,,,,,,,,,,,,,54,,,,,,,,,,,,,,632.5000002100423,response,,,,100,,,,,,Space,keypress(Space),,,,,,,,-- --- ---- --- ------ ----- ------- ---- -- --- ------- --<br>------- ---------- ------ In ----- -- ----- -- ---- ------<br>--- ----- --- --- ------ -------- ----- --- ------ ----- --<br>----- ----- ---------- --- --- ------ ------ ---- -- ------<br>------- --- ------ ----- --- ---- ------- -- ---- --- --<br>------- ------,180340.43000009842,180337.02000021003,179688.094,179690.24500017986,179704.52,180354.819,,15,In
screen,html.Screen,1_1_1_1_16,2021-03-29T09:18:11.052Z,,,,,,,,,,,,,,,,54,,,,,,,,,,,,,,1373.641000129428,response,,,,100,,,,,,Space,keypress(Space),,,,,,,,"-- --- ---- --- ------ ----- ------- ---- -- --- ------- --<br>------- ---------- ------ -- 1727, -- ----- -- ---- ------<br>--- ----- --- --- ------ -------- ----- --- ------ ----- --<br>----- ----- ---------- --- --- ------ ------ ---- -- ------<br>------- --- ------ ----- --- ---- ------- -- ---- --- --<br>------- ------",181729.90999999456,181728.46000012942,180338.1,180340.64000006765,180354.819,181739.103,,16,"1727,"
screen,html.Screen,1_1_1_1_17,2021-03-29T09:18:11.748Z,,,,,,,,,,,,,,,,54,,,,,,,,,,,,,,681.9970001523616,response,,,,100,,,,,,Space,keypress(Space),,,,,,,,-- --- ---- --- ------ ----- ------- ---- -- --- ------- --<br>------- ---------- ------ -- ----- in ----- -- ---- ------<br>--- ----- --- --- ------ -------- ----- --- ------ ----- --<br>----- ----- ---------- --- --- ------ ------ ---- -- ------<br>------- --- ------ ----- --- ---- ------- -- ---- --- --<br>------- ------,182424.56000018865,182421.10000015236,181721.095,181730.31000001356,181739.103,182438.187,,17,in
screen,html.Screen,1_1_1_1_18,2021-03-29T09:18:12.233Z,,,,,,,,,,,,,,,,54,,,,,,,,,,,,,,468.89300003359676,response,,,,100,,,,,,Space,keypress(Space),,,,,,,,-- --- ---- --- ------ ----- ------- ---- -- --- ------- --<br>------- ---------- ------ -- ----- -- order -- ---- ------<br>--- ----- --- --- ------ -------- ----- --- ------ ----- --<br>----- ----- ---------- --- --- ------ ------ ---- -- ------<br>------- --- ------ ----- --- ---- ------- -- ---- --- --<br>------- ------,182909.14500015788,182907.0800000336,182421.062,182424.77000015788,182438.187,182921.483,,18,order
screen,html.Screen,1_1_1_1_19,2021-03-29T09:18:12.676Z,,,,,,,,,,,,,,,,54,,,,,,,,,,,,,,428.38700003456324,response,,,,100,,,,,,Space,keypress(Space),,,,,,,,-- --- ---- --- ------ ----- ------- ---- -- --- ------- --<br>------- ---------- ------ -- ----- -- ----- to ---- ------<br>--- ----- --- --- ------ -------- ----- --- ------ ----- --<br>----- ----- ---------- --- --- ------ ------ ---- -- ------<br>------- --- ------ ----- --- ---- ------- -- ---- --- --<br>------- ------,183352.44000004604,183349.87000003457,182904.774,182909.32000009343,182921.483,183354.43,,19,to
screen,html.Screen,1_1_1_1_20,2021-03-29T09:18:13.066Z,,,,,,,,,,,,,,,,54,,,,,,,,,,,,,,386.69000013702316,response,,,,100,,,,,,Space,keypress(Space),,,,,,,,-- --- ---- --- ------ ----- ------- ---- -- --- ------- --<br>------- ---------- ------ -- ----- -- ----- -- save ------<br>--- ----- --- --- ------ -------- ----- --- ------ ----- --<br>----- ----- ---------- --- --- ------ ------ ---- -- ------<br>------- --- ------ ----- --- ---- ------- -- ---- --- --<br>------- ------,183742.51500004902,183741.12000013702,183338.107,183352.6350001339,183354.43,183754.429,,20,save
screen,html.Screen,1_1_1_1_21,2021-03-29T09:18:13.465Z,,,,,,,,,,,,,,,,54,,,,,,,,,,,,,,385.52100021531805,response,,,,100,,,,,,Space,keypress(Space),,,,,,,,"-- --- ---- --- ------ ----- ------- ---- -- --- ------- --<br>------- ---------- ------ -- ----- -- ----- -- ---- money,<br>--- ----- --- --- ------ -------- ----- --- ------ ----- --<br>----- ----- ---------- --- --- ------ ------ ---- -- ------<br>------- --- ------ ----- --- ---- ------- -- ---- --- --<br>------- ------",184141.2900001742,184139.95000021532,183738.12,183742.75000020862,183754.429,184154.509,,21,"money,"
screen,html.Screen,1_1_1_1_22,2021-03-29T09:18:14.178Z,,,,,,,,,,,,,,,,54,,,,,,,,,,,,,,698.3209999889077,response,,,,100,,,,,,Space,keypress(Space),,,,,,,,-- --- ---- --- ------ ----- ------- ---- -- --- ------- --<br>------- ---------- ------ -- ----- -- ----- -- ---- ------<br>the ----- --- --- ------ -------- ----- --- ------ ----- --<br>----- ----- ---------- --- --- ------ ------ ---- -- ------<br>------- --- ------ ----- --- ---- ------- -- ---- --- --<br>------- ------,184854.3850001879,184852.8299999889,184138.106,184141.47000014782,184154.509,184871.178,,22,the
screen,html.Screen,1_1_1_1_23,2021-03-29T09:18:14.669Z,,,,,,,,,,,,,,,,54,,,,,,,,,,,,,,472.6019999955897,response,,,,100,,,,,,Space,keypress(Space),,,,,,,,-- --- ---- --- ------ ----- ------- ---- -- --- ------- --<br>------- ---------- ------ -- ----- -- ----- -- ---- ------<br>--- state --- --- ------ -------- ----- --- ------ ----- --<br>----- ----- ---------- --- --- ------ ------ ---- -- ------<br>------- --- ------ ----- --- ---- ------- -- ---- --- --<br>------- ------,185345.24000016972,185343.7799999956,184854.754,184854.5700001996,184871.178,185354.718,,23,state
screen,html.Screen,1_1_1_1_24,2021-03-29T09:18:15.185Z,,,,,,,,,,,,,,,,54,,,,,,,,,,,,,,504.4020001537865,response,,,,100,,,,,,Space,keypress(Space),,,,,,,,-- --- ---- --- ------ ----- ------- ---- -- --- ------- --<br>------- ---------- ------ -- ----- -- ----- -- ---- ------<br>--- ----- cut --- ------ -------- ----- --- ------ ----- --<br>----- ----- ---------- --- --- ------ ------ ---- -- ------<br>------- --- ------ ----- --- ---- ------- -- ---- --- --<br>------- ------,185861.47500015795,185859.12000015378,185338.092,185345.4400000628,185354.718,185871.143,,24,cut
screen,html.Screen,1_1_1_1_25,2021-03-29T09:18:15.568Z,,,,,,,,,,,,,,,,54,,,,,,,,,,,,,,370.29700001250603,response,,,,100,,,,,,Space,keypress(Space),,,,,,,,-- --- ---- --- ------ ----- ------- ---- -- --- ------- --<br>------- ---------- ------ -- ----- -- ----- -- ---- ------<br>--- ----- --- the ------ -------- ----- --- ------ ----- --<br>----- ----- ---------- --- --- ------ ------ ---- -- ------<br>------- --- ------ ----- --- ---- ------- -- ---- --- --<br>------- ------,186243.95000003278,186241.44000001252,185854.757,185861.68500012718,185871.143,186254.787,,25,the
screen,html.Screen,1_1_1_1_26,2021-03-29T09:18:16.017Z,,,,,,,,,,,,,,,,54,,,,,,,,,,,,,,435.65800007293,response,,,,100,,,,,,Space,keypress(Space),,,,,,,,-- --- ---- --- ------ ----- ------- ---- -- --- ------- --<br>------- ---------- ------ -- ----- -- ----- -- ---- ------<br>--- ----- --- --- bonds' -------- ----- --- ------ ----- --<br>----- ----- ---------- --- --- ------ ------ ---- -- ------<br>------- --- ------ ----- --- ---- ------- -- ---- --- --<br>------- ------,186692.84000014886,186690.44500007294,186238.141,186244.17500011623,186254.787,186704.799,,26,bonds'
screen,html.Screen,1_1_1_1_27,2021-03-29T09:18:16.454Z,,,,,,,,,,,,,,,,54,,,,,,,,,,,,,,423.956000187085,response,,,,100,,,,,,Space,keypress(Space),,,,,,,,-- --- ---- --- ------ ----- ------- ---- -- --- ------- --<br>------- ---------- ------ -- ----- -- ----- -- ---- ------<br>--- ----- --- --- ------ interest ----- --- ------ ----- --<br>----- ----- ---------- --- --- ------ ------ ---- -- ------<br>------- --- ------ ----- --- ---- ------- -- ---- --- --<br>------- ------,187130.12500014156,187128.75500018708,186688.23,186693.05500015616,186704.799,187137.876,,27,interest
screen,html.Screen,1_1_1_1_28,2021-03-29T09:18:16.877Z,,,,,,,,,,,,,,,,54,,,,,,,,,,,,,,414.1790000947076,response,,,,100,,,,,,Space,keypress(Space),,,,,,,,-- --- ---- --- ------ ----- ------- ---- -- --- ------- --<br>------- ---------- ------ -- ----- -- ----- -- ---- ------<br>--- ----- --- --- ------ -------- rate. --- ------ ----- --<br>----- ----- ---------- --- --- ------ ------ ---- -- ------<br>------- --- ------ ----- --- ---- ------- -- ---- --- --<br>------- ------,187553.52000007406,187552.0550000947,187121.433,187130.3000000771,187137.876,187588.059,,28,rate.
screen,html.Screen,1_1_1_1_29,2021-03-29T09:18:17.882Z,,,,,,,,,,,,,,,,54,,,,,,,,,,,,,,968.3910000327742,response,,,,100,,,,,,Space,keypress(Space),,,,,,,,-- --- ---- --- ------ ----- ------- ---- -- --- ------- --<br>------- ---------- ------ -- ----- -- ----- -- ---- ------<br>--- ----- --- --- ------ -------- ----- The ------ ----- --<br>----- ----- ---------- --- --- ------ ------ ---- -- ------<br>------- --- ------ ----- --- ---- ------- -- ---- --- --<br>------- ------,188557.94500000775,188556.45000003278,187580.479,187553.7150001619,187588.059,188571.076,,29,The
screen,html.Screen,1_1_1_1_30,2021-03-29T09:18:18.366Z,,,,,,,,,,,,,,,,54,,,,,,,,,,,,,,469.459000152885,response,,,,100,,,,,,Space,keypress(Space),,,,,,,,-- --- ---- --- ------ ----- ------- ---- -- --- ------- --<br>------- ---------- ------ -- ----- -- ----- -- ---- ------<br>--- ----- --- --- ------ -------- ----- --- market ----- --<br>----- ----- ---------- --- --- ------ ------ ---- -- ------<br>------- --- ------ ----- --- ---- ------- -- ---- --- --<br>------- ------,189042.65000019222,189040.5350001529,188554.807,188558.13500005752,188571.076,189054.73,,30,market
screen,html.Screen,1_1_1_1_31,2021-03-29T09:18:18.901Z,,,,,,,,,,,,,,,,54,,,,,,,,,,,,,,520.355000134994,response,,,,100,,,,,,Space,keypress(Space),,,,,,,,-- --- ---- --- ------ ----- ------- ---- -- --- ------- --<br>------- ---------- ------ -- ----- -- ----- -- ---- ------<br>--- ----- --- --- ------ -------- ----- --- ------ value --<br>----- ----- ---------- --- --- ------ ------ ---- -- ------<br>------- --- ------ ----- --- ---- ------- -- ---- --- --<br>------- ------,189577.49000005424,189575.085000135,189037.756,189042.8200000897,189054.73,189588.126,,31,value
screen,html.Screen,1_1_1_1_32,2021-03-29T09:18:19.597Z,,,,,,,,,,,,,,,,54,,,,,,,,,,,,,,683.9489999862271,response,,,,100,,,,,,Space,keypress(Space),,,,,,,,-- --- ---- --- ------ ----- ------- ---- -- --- ------- --<br>------- ---------- ------ -- ----- -- ----- -- ---- ------<br>--- ----- --- --- ------ -------- ----- --- ------ ----- of<br>----- ----- ---------- --- --- ------ ------ ---- -- ------<br>------- --- ------ ----- --- ---- ------- -- ---- --- --<br>------- ------,190273.56000011787,190272.07499998622,189571.42,189577.69500021823,189588.126,190287.739,,32,of
screen,html.Screen,1_1_1_1_33,2021-03-29T09:18:20.171Z,,,,,,,,,,,,,,,,54,,,,,,,,,,,,,,557.5010001697228,response,,,,100,,,,,,Space,keypress(Space),,,,,,,,-- --- ---- --- ------ ----- ------- ---- -- --- ------- --<br>------- ---------- ------ -- ----- -- ----- -- ---- ------<br>--- ----- --- --- ------ -------- ----- --- ------ ----- --<br>these ----- ---------- --- --- ------ ------ ---- -- ------<br>------- --- ------ ----- --- ---- ------- -- ---- --- --<br>------- ------,190847.63500001281,190845.24000016972,190271.408,190273.77500012517,190287.739,190854.421,,33,these
screen,html.Screen,1_1_1_1_34,2021-03-29T09:18:20.619Z,,,,,,,,,,,,,,,,54,,,,,,,,,,,,,,438.1740000062564,response,,,,100,,,,,,Space,keypress(Space),,,,,,,,-- --- ---- --- ------ ----- ------- ---- -- --- ------- --<br>------- ---------- ------ -- ----- -- ----- -- ---- ------<br>--- ----- --- --- ------ -------- ----- --- ------ ----- --<br>----- bonds ---------- --- --- ------ ------ ---- -- ------<br>------- --- ------ ----- --- ---- ------- -- ---- --- --<br>------- ------,191295.09000014514,191292.59500000626,190838.083,190848.01000007428,190854.421,191305.027,,34,bonds
screen,html.Screen,1_1_1_1_35,2021-03-29T09:18:21.158Z,,,,,,,,,,,,,,,,54,,,,,,,,,,,,,,527.268000087468,response,,,,100,,,,,,Space,keypress(Space),,,,,,,,"-- --- ---- --- ------ ----- ------- ---- -- --- ------- --<br>------- ---------- ------ -- ----- -- ----- -- ---- ------<br>--- ----- --- --- ------ -------- ----- --- ------ ----- --<br>----- ----- plummeted, --- --- ------ ------ ---- -- ------<br>------- --- ------ ----- --- ---- ------- -- ---- --- --<br>------- ------",191834.65500012971,191832.29500008747,191288.074,191295.29000003822,191305.027,191837.757,,35,"plummeted,"
screen,html.Screen,1_1_1_1_36,2021-03-29T09:18:21.812Z,,,,,,,,,,,,,,,,54,,,,,,,,,,,,,,648.6380000144418,response,,,,100,,,,,,Space,keypress(Space),,,,,,,,-- --- ---- --- ------ ----- ------- ---- -- --- ------- --<br>------- ---------- ------ -- ----- -- ----- -- ---- ------<br>--- ----- --- --- ------ -------- ----- --- ------ ----- --<br>----- ----- ---------- and --- ------ ------ ---- -- ------<br>------- --- ------ ----- --- ---- ------- -- ---- --- --<br>------- ------,192488.22500021197,192486.39500001445,191821.426,191834.86500009894,191837.757,192504.414,,36,and
screen,html.Screen,1_1_1_1_37,2021-03-29T09:18:22.191Z,,,,,,,,,,,,,,,,54,,,,,,,,,,,,,,361.09600014879834,response,,,,100,,,,,,Space,keypress(Space),,,,,,,,-- --- ---- --- ------ ----- ------- ---- -- --- ------- --<br>------- ---------- ------ -- ----- -- ----- -- ---- ------<br>--- ----- --- --- ------ -------- ----- --- ------ ----- --<br>----- ----- ---------- --- the ------ ------ ---- -- ------<br>------- --- ------ ----- --- ---- ------- -- ---- --- --<br>------- ------,192866.91000009887,192865.5100001488,192487.725,192488.4800000582,192504.414,192871.088,,37,the
screen,html.Screen,1_1_1_1_38,2021-03-29T09:18:22.631Z,,,,,,,,,,,,,,,,54,,,,,,,,,,,,,,434.8420000313781,response,,,,100,,,,,,Space,keypress(Space),,,,,,,,-- --- ---- --- ------ ----- ------- ---- -- --- ------- --<br>------- ---------- ------ -- ----- -- ----- -- ---- ------<br>--- ----- --- --- ------ -------- ----- --- ------ ----- --<br>----- ----- ---------- --- --- market ------ ---- -- ------<br>------- --- ------ ----- --- ---- ------- -- ---- --- --<br>------- ------,193307.29999998584,193305.93000003137,192854.754,192867.0900000725,192871.088,193321.067,,38,market
screen,html.Screen,1_1_1_1_39,2021-03-29T09:18:23.067Z,,,,,,,,,,,,,,,,54,,,,,,,,,,,,,,419.2680002132256,response,,,,100,,,,,,Space,keypress(Space),,,,,,,,-- --- ---- --- ------ ----- ------- ---- -- --- ------- --<br>------- ---------- ------ -- ----- -- ----- -- ---- ------<br>--- ----- --- --- ------ -------- ----- --- ------ ----- --<br>----- ----- ---------- --- --- ------ became ---- -- ------<br>------- --- ------ ----- --- ---- ------- -- ---- --- --<br>------- ------,193742.7050000988,193740.33500021324,193304.6,193307.4900000356,193321.067,193754.795,,39,became
screen,html.Screen,1_1_1_1_40,2021-03-29T09:18:23.566Z,,,,,,,,,,,,,,,,54,,,,,,,,,,,,,,484.95000014445395,response,,,,100,,,,,,Space,keypress(Space),,,,,,,,-- --- ---- --- ------ ----- ------- ---- -- --- ------- --<br>------- ---------- ------ -- ----- -- ----- -- ---- ------<br>--- ----- --- --- ------ -------- ----- --- ------ ----- --<br>----- ----- ---------- --- --- ------ ------ wary -- ------<br>------- --- ------ ----- --- ---- ------- -- ---- --- --<br>------- ------,194242.04000015743,194239.74500014447,193737.752,193742.90499999188,193754.795,194254.72,,40,wary
screen,html.Screen,1_1_1_1_41,2021-03-29T09:18:23.906Z,,,,,,,,,,,,,,,,54,,,,,,,,,,,,,,326.21500020913663,response,,,,100,,,,,,Space,keypress(Space),,,,,,,,-- --- ---- --- ------ ----- ------- ---- -- --- ------- --<br>------- ---------- ------ -- ----- -- ----- -- ---- ------<br>--- ----- --- --- ------ -------- ----- --- ------ ----- --<br>----- ----- ---------- --- --- ------ ------ ---- of ------<br>------- --- ------ ----- --- ---- ------- -- ---- --- --<br>------- ------,194582.18000014313,194580.93500020914,194238.084,194242.2450000886,194254.72,194587.744,,41,of
screen,html.Screen,1_1_1_1_42,2021-03-29T09:18:24.302Z,,,,,,,,,,,,,,,,54,,,,,,,,,,,,,,388.27100013842573,response,,,,100,,,,,,Space,keypress(Space),,,,,,,,-- --- ---- --- ------ ----- ------- ---- -- --- ------- --<br>------- ---------- ------ -- ----- -- ----- -- ---- ------<br>--- ----- --- --- ------ -------- ----- --- ------ ----- --<br>----- ----- ---------- --- --- ------ ------ ---- -- French<br>------- --- ------ ----- --- ---- ------- -- ---- --- --<br>------- ------,194978.36500010453,194976.01500013843,194571.42,194582.34500000253,194587.744,194988.816,,42,French
screen,html.Screen,1_1_1_1_43,2021-03-29T09:18:24.714Z,,,,,,,,,,,,,,,,54,,,,,,,,,,,,,,397.87400007213,response,,,,100,,,,,,Space,keypress(Space),,,,,,,,-- --- ---- --- ------ ----- ------- ---- -- --- ------- --<br>------- ---------- ------ -- ----- -- ----- -- ---- ------<br>--- ----- --- --- ------ -------- ----- --- ------ ----- --<br>----- ----- ---------- --- --- ------ ------ ---- -- ------<br>credit. --- ------ ----- --- ---- ------- -- ---- --- --<br>------- ------,195390.04500000738,195386.69000007212,194971.445,194978.5700000357,194988.816,195404.795,,43,credit.
screen,html.Screen,1_1_1_1_44,2021-03-29T09:18:25.783Z,,,,,,,,,,,,,,,,54,,,,,,,,,,,,,,1052.1300000640622,response,,,,100,,,,,,Space,keypress(Space),,,,,,,,-- --- ---- --- ------ ----- ------- ---- -- --- ------- --<br>------- ---------- ------ -- ----- -- ----- -- ---- ------<br>--- ----- --- --- ------ -------- ----- --- ------ ----- --<br>----- ----- ---------- --- --- ------ ------ ---- -- ------<br>------- The ------ ----- --- ---- ------- -- ---- --- --<br>------- ------,196459.53000010923,196456.92500006407,195388.146,195390.2450001333,195404.795,196479.71,,44,The
screen,html.Screen,1_1_1_1_45,2021-03-29T09:18:26.202Z,,,,,,,,,,,,,,,,54,,,,,,,,,,,,,,397.47500010670046,response,,,,100,,,,,,Space,keypress(Space),,,,,,,,-- --- ---- --- ------ ----- ------- ---- -- --- ------- --<br>------- ---------- ------ -- ----- -- ----- -- ---- ------<br>--- ----- --- --- ------ -------- ----- --- ------ ----- --<br>----- ----- ---------- --- --- ------ ------ ---- -- ------<br>------- --- French ----- --- ---- ------- -- ---- --- --<br>------- ------,196878.6100000143,196877.1850001067,196455.954,196459.72500019707,196479.71,196888.058,,45,French
screen,html.Screen,1_1_1_1_46,2021-03-29T09:18:26.653Z,,,,,,,,,,,,,,,,54,,,,,,,,,,,,,,439.3370000293653,response,,,,100,,,,,,Space,keypress(Space),,,,,,,,-- --- ---- --- ------ ----- ------- ---- -- --- ------- --<br>------- ---------- ------ -- ----- -- ----- -- ---- ------<br>--- ----- --- --- ------ -------- ----- --- ------ ----- --<br>----- ----- ---------- --- --- ------ ------ ---- -- ------<br>------- --- ------ state --- ---- ------- -- ---- --- --<br>------- ------,197328.67000019178,197327.39500002936,196871.427,196878.81000014022,196888.058,197338.041,,46,state
screen,html.Screen,1_1_1_1_47,2021-03-29T09:18:27.197Z,,,,,,,,,,,,,,,,54,,,,,,,,,,,,,,534.0590000368829,response,,,,100,,,,,,Space,keypress(Space),,,,,,,,-- --- ---- --- ------ ----- ------- ---- -- --- ------- --<br>------- ---------- ------ -- ----- -- ----- -- ---- ------<br>--- ----- --- --- ------ -------- ----- --- ------ ----- --<br>----- ----- ---------- --- --- ------ ------ ---- -- ------<br>------- --- ------ ----- was ---- ------- -- ---- --- --<br>------- ------,197873.5750000924,197872.10000003688,197321.411,197328.84500012733,197338.041,197887.818,,47,was
screen,html.Screen,1_1_1_1_48,2021-03-29T09:18:27.616Z,,,,,,,,,,,,,,,,54,,,,,,,,,,,,,,403.39700020846794,response,,,,100,,,,,,Space,keypress(Space),,,,,,,,-- --- ---- --- ------ ----- ------- ---- -- --- ------- --<br>------- ---------- ------ -- ----- -- ----- -- ---- ------<br>--- ----- --- --- ------ -------- ----- --- ------ ----- --<br>----- ----- ---------- --- --- ------ ------ ---- -- ------<br>------- --- ------ ----- --- left ------- -- ---- --- --<br>------- ------,198292.59000020102,198291.21500020847,197871.404,197873.76000010408,197887.818,198304.389,,48,left
screen,html.Screen,1_1_1_1_49,2021-03-29T09:18:28.048Z,,,,,,,,,,,,,,,,54,,,,,,,,,,,,,,418.80100004791166,response,,,,100,,,,,,Space,keypress(Space),,,,,,,,-- --- ---- --- ------ ----- ------- ---- -- --- ------- --<br>------- ---------- ------ -- ----- -- ----- -- ---- ------<br>--- ----- --- --- ------ -------- ----- --- ------ ----- --<br>----- ----- ---------- --- --- ------ ------ ---- -- ------<br>------- --- ------ ----- --- ---- without -- ---- --- --<br>------- ------,198724.4500000961,198723.1900000479,198288.074,198292.7600000985,198304.389,198737.735,,49,without
screen,html.Screen,1_1_1_1_50,2021-03-29T09:18:28.473Z,,,,,,,,,,,,,,,,54,,,,,,,,,,,,,,410.26500004471745,response,,,,100,,,,,,Space,keypress(Space),,,,,,,,-- --- ---- --- ------ ----- ------- ---- -- --- ------- --<br>------- ---------- ------ -- ----- -- ----- -- ---- ------<br>--- ----- --- --- ------ -------- ----- --- ------ ----- --<br>----- ----- ---------- --- --- ------ ------ ---- -- ------<br>------- --- ------ ----- --- ---- ------- an ---- --- --<br>------- ------,199148.79500004463,199148.0000000447,198721.282,198724.73500017077,198737.735,199154.363,,50,an
screen,html.Screen,1_1_1_1_51,2021-03-29T09:18:28.879Z,,,,,,,,,,,,,,,,54,,,,,,,,,,,,,,398.38700003165286,response,,,,100,,,,,,Space,keypress(Space),,,,,,,,-- --- ---- --- ------ ----- ------- ---- -- --- ------- --<br>------- ---------- ------ -- ----- -- ----- -- ---- ------<br>--- ----- --- --- ------ -------- ----- --- ------ ----- --<br>----- ----- ---------- --- --- ------ ------ ---- -- ------<br>------- --- ------ ----- --- ---- ------- -- easy --- --<br>------- ------,199554.91000018083,199552.75000003166,199138.07,199148.9250001032,199154.363,199571.093,,51,easy
screen,html.Screen,1_1_1_1_52,2021-03-29T09:18:29.339Z,,,,,,,,,,,,,,,,54,,,,,,,,,,,,,,441.63700007495936,response,,,,100,,,,,,Space,keypress(Space),,,,,,,,-- --- ---- --- ------ ----- ------- ---- -- --- ------- --<br>------- ---------- ------ -- ----- -- ----- -- ---- ------<br>--- ----- --- --- ------ -------- ----- --- ------ ----- --<br>----- ----- ---------- --- --- ------ ------ ---- -- ------<br>------- --- ------ ----- --- ---- ------- -- ---- way --<br>------- ------,200015.1200001128,200012.73000007495,199554.777,199555.08500011638,199571.093,200022.34,,52,way
screen,html.Screen,1_1_1_1_53,2021-03-29T09:18:29.757Z,,,,,,,,,,,,,,,,54,,,,,,,,,,,,,,409.7250000590866,response,,,,100,,,,,,Space,keypress(Space),,,,,,,,-- --- ---- --- ------ ----- ------- ---- -- --- ------- --<br>------- ---------- ------ -- ----- -- ----- -- ---- ------<br>--- ----- --- --- ------ -------- ----- --- ------ ----- --<br>----- ----- ---------- --- --- ------ ------ ---- -- ------<br>------- --- ------ ----- --- ---- ------- -- ---- --- of<br>------- ------,200433.49000019953,200432.06500005908,200004.424,200015.33000008203,200022.34,200437.74,,53,of
screen,html.Screen,1_1_1_1_54,2021-03-29T09:18:30.207Z,,,,,,,,,,,,,,,,54,,,,,,,,,,,,,,443.8800001165364,response,,,,100,,,,,,Space,keypress(Space),,,,,,,,-- --- ---- --- ------ ----- ------- ---- -- --- ------- --<br>------- ---------- ------ -- ----- -- ----- -- ---- ------<br>--- ----- --- --- ------ -------- ----- --- ------ ----- --<br>----- ----- ---------- --- --- ------ ------ ---- -- ------<br>------- --- ------ ----- --- ---- ------- -- ---- --- --<br>raising ------,200883.04500002414,200881.62000011653,200421.07,200433.68000001647,200437.74,200887.848,,54,raising
screen,html.Screen,1_1_1_1_55,2021-03-29T09:18:30.756Z,,,,,,,,,,,,,,,,54,,,,,,,,,,,,,,543.3219999962021,response,,,,100,,,,,,Space,keypress(Space),,,,,,,,-- --- ---- --- ------ ----- ------- ---- -- --- ------- --<br>------- ---------- ------ -- ----- -- ----- -- ---- ------<br>--- ----- --- --- ------ -------- ----- --- ------ ----- --<br>----- ----- ---------- --- --- ------ ------ ---- -- ------<br>------- --- ------ ----- --- ---- ------- -- ---- --- --<br>------- money.,201432.5850000605,201431.1699999962,200871.134,200883.22499999776,200887.848,201437.748,,55,money.
Item 100,flow.Loop,1_1_1_1,2021-03-29T09:18:30.757Z,,,,,,,,,,,,,,,,,,,,,,,,,,,,,,29109.5939999962,completion,,,,,E,,,,,,,,,,silence,,,,,201433.02500015125,201431.1699999962,172304.803,172306.14500003867,172321.576,201437.748,,,
Question 1,html.Screen,1_1_1_2,2021-03-29T09:18:33.457Z,,,,,,,,,,,,,,,,,,,,,,,,,,,true,TRUE,,2693.5620000843483,response,,,,100,E,,,,,TRUE,click #choice-1,,,,silence,,,,,204132.92500004172,204131.31000008434,201421.415,201433.16000001505,201437.748,204137.746,,,
Question 2,html.Screen,1_1_1_3,2021-03-29T09:18:36.863Z,,,,,,,,,,,,,,,,,,,,,,,,,,,true,FALSE,,3398.3940002147865,response,,,,100,E,,,,,FALSE,click #choice-2,,,,silence,,,,,207538.840000052,207536.1400002148,204121.434,204133.1000002101,204137.746,207558.147,,,
Item 100,flow.Sequence,1_1_1,2021-03-29T09:18:36.863Z,,,,,,,,,,,,,,,,,,,,,,,,,,,,,,42214.87800021481,completion,,,,,,,,,,,,,,,,,,,,207539.24500010908,207536.1400002148,165304.687,165314.42000018433,165321.262,207558.147,,,
End of Practice,html.Page,1_1_2,2021-03-29T09:18:43.873Z,,,,,,,,,,,,,,,,,,,,,,,,,,,,,,6990.398000143352,form submission,,,,,,,,,,,,,,,,,,,,214548.91000012867,214548.54500014335,207521.402,207539.3650000915,207558.147,214554.396,,,
Practice,flow.Sequence,1_1,2021-03-29T09:18:43.873Z,,,,,,,,,,,,,,,,,,,,,,,,,,,,,,94760.26200014335,completion,,,,,,,,,,,,,,,,,,,,214549.2100000847,214548.54500014335,119771.205,119786.31500015035,119788.283,214554.396,,,
Trap_instruction,html.Page,1_2_0,2021-03-29T09:18:47.781Z,,,,,,,,,,,,,,,,,,,,,,,,,,,,,,3902.4290000011097,form submission,,,,,,,,,,,,,,,,,,,,218457.20500010066,218456.82500000112,214537.782,214549.37500017695,214554.396,218471.658,,,
trap_trial,html.Screen,1_2_1,2021-03-29T09:18:51.765Z,,,,,,,,,,,,,,,,,,,,,,,,,,,true,1,,3968.242000113998,response,,,,,,,,,,1,click #choice-1,,,,,,,,,222441.3750001695,222439.900000114,218454.378,218457.38500007428,218471.658,222454.478,,,
end of trap trial,html.Page,1_2_2,2021-03-29T09:18:54.136Z,,,,,,,,,,,,,,,,,,,,,,,,,,,,,,2357.5019999985816,form submission,,,,,,,,,,,,,,,,,,,,224812.30000010692,224811.97999999858,222437.672,222441.56499998644,222454.478,224821.732,,,
Trap 1,flow.Sequence,1_2,2021-03-29T09:18:54.136Z,,,,,,,,,,,,,,,,,,,,,,,,,,,,,,10257.583999998576,completion,,,,,,,,,,,,,,,,,,,,224812.5299999956,224811.97999999858,214537.782,214549.32500002906,214554.396,224821.732,,,
Holding screen,html.Screen,1_3_0_0,2021-03-29T09:19:01.130Z,,,,,,,,,,,,,,,,,,,,,,,,,,,,,,6999.3550000000105,timeout,,,,,,,,,,,,,,,,,,,,231805.7900001295,231804.682,224804.66,224812.72000004537,224821.732,231821.087,,,
screen,html.Screen,1_3_0_1_0,2021-03-29T09:19:02.208Z,,,,,,,,,,,,,,,,2,,,,,,,,,,,,,,1061.013000046194,response,,,,1,E,,,,,Space,keypress(Space),,,,lyrical,,,,Two ---- ------ --- ------- ---------- ------- ----------<br>--- --------- --- ----------- ------- ----- ------- ---<br>--------- ---- -- --- ---- -- --------- -- ---- -------<br>-- --------- ------ --- ----- ------ ---- --- --------- --<br>------ - ---- -- --- ----------- ------- ---- ----- -----<br>--- -------- - ------ ---- -- ----- ---- --- --- -----------<br>-- -------,232884.49500012212,232882.1000000462,231804.682,231806.04500020854,231821.087,232887.7,,0,Two
screen,html.Screen,1_3_0_1_1,2021-03-29T09:19:02.716Z,,,,,,,,,,,,,,,,2,,,,,,,,,,,,,,502.73000014497666,response,,,,1,E,,,,,Space,keypress(Space),,,,lyrical,,,,--- days ------ --- ------- ---------- ------- ----------<br>--- --------- --- ----------- ------- ----- ------- ---<br>--------- ---- -- --- ---- -- --------- -- ---- -------<br>-- --------- ------ --- ----- ------ ---- --- --------- --<br>------ - ---- -- --- ----------- ------- ---- ----- -----<br>--- -------- - ------ ---- -- ----- ---- --- --- -----------<br>-- -------,233392.5300000701,233390.430000145,232871.258,232884.7450001631,232887.7,233404.629,,1,days
screen,html.Screen,1_3_0_1_2,2021-03-29T09:19:03.161Z,,,,,,,,,,,,,,,,2,,,,,,,,,,,,,,430.6610000754881,response,,,,1,E,,,,,Space,keypress(Space),,,,lyrical,,,,"--- ---- later, --- ------- ---------- ------- ----------<br>--- --------- --- ----------- ------- ----- ------- ---<br>--------- ---- -- --- ---- -- --------- -- ---- -------<br>-- --------- ------ --- ----- ------ ---- --- --------- --<br>------ - ---- -- --- ----------- ------- ---- ----- -----<br>--- -------- - ------ ---- -- ----- ---- --- --- -----------<br>-- -------",233837.10500015877,233835.29000007547,233388.121,233392.69500016235,233404.629,233854.717,,2,"later,"
screen,html.Screen,1_3_0_1_3,2021-03-29T09:19:03.679Z,,,,,,,,,,,,,,,,2,,,,,,,,,,,,,,498.023000002082,response,,,,1,E,,,,,Space,keypress(Space),,,,lyrical,,,,--- ---- ------ the ------- ---------- ------- ----------<br>--- --------- --- ----------- ------- ----- ------- ---<br>--------- ---- -- --- ---- -- --------- -- ---- -------<br>-- --------- ------ --- ----- ------ ---- --- --------- --<br>------ - ---- -- --- ----------- ------- ---- ----- -----<br>--- -------- - ------ ---- -- ----- ---- --- --- -----------<br>-- -------,234355.42500019073,234352.7400000021,233837.952,233837.30500005186,233854.717,234371.217,,3,the
screen,html.Screen,1_3_0_1_4,2021-03-29T09:19:04.201Z,,,,,,,,,,,,,,,,2,,,,,,,,,,,,,,504.6679999867338,response,,,,1,E,,,,,Space,keypress(Space),,,,lyrical,,,,--- ---- ------ --- British ---------- ------- ----------<br>--- --------- --- ----------- ------- ----- ------- ---<br>--------- ---- -- --- ---- -- --------- -- ---- -------<br>-- --------- ------ --- ----- ------ ---- --- --------- --<br>------ - ---- -- --- ----------- ------- ---- ----- -----<br>--- -------- - ------ ---- -- ----- ---- --- --- -----------<br>-- -------,234876.99000001885,234875.88499998674,234354.612,234355.62500008382,234371.217,234887.962,,4,British
screen,html.Screen,1_3_0_1_5,2021-03-29T09:19:05.200Z,,,,,,,,,,,,,,,,2,,,,,,,,,,,,,,986.643000019074,response,,,,1,E,,,,,Space,keypress(Space),,,,lyrical,,,,--- ---- ------ --- ------- astronomer ------- ----------<br>--- --------- --- ----------- ------- ----- ------- ---<br>--------- ---- -- --- ---- -- --------- -- ---- -------<br>-- --------- ------ --- ----- ------ ---- --- --------- --<br>------ - ---- -- --- ----------- ------- ---- ----- -----<br>--- -------- - ------ ---- -- ----- ---- --- --- -----------<br>-- -------,235876.28500000574,235874.60500001907,234870.998,234877.16500018723,234887.962,235887.688,,5,astronomer
screen,html.Screen,1_3_0_1_6,2021-03-29T09:19:05.714Z,,,,,,,,,,,,,,,,2,,,,,,,,,,,,,,501.6720001465583,response,,,,1,E,,,,,Space,keypress(Space),,,,lyrical,,,,--- ---- ------ --- ------- ---------- Richard ----------<br>--- --------- --- ----------- ------- ----- ------- ---<br>--------- ---- -- --- ---- -- --------- -- ---- -------<br>-- --------- ------ --- ----- ------ ---- --- --------- --<br>------ - ---- -- --- ----------- ------- ---- ----- -----<br>--- -------- - ------ ---- -- ----- ---- --- --- -----------<br>-- -------,236390.45000006445,236389.36000014655,235871.109,235876.48500013165,235887.688,236404.331,,6,Richard
screen,html.Screen,1_3_0_1_7,2021-03-29T09:19:06.134Z,,,,,,,,,,,,,,,,2,,,,,,,,,,,,,,400.38400009297766,response,,,,1,E,,,,,Space,keypress(Space),,,,lyrical,,,,--- ---- ------ --- ------- ---------- ------- Carrington<br>--- --------- --- ----------- ------- ----- ------- ---<br>--------- ---- -- --- ---- -- --------- -- ---- -------<br>-- --------- ------ --- ----- ------ ---- --- --------- --<br>------ - ---- -- --- ----------- ------- ---- ----- -----<br>--- -------- - ------ ---- -- ----- ---- --- --- -----------<br>-- -------,236809.99000021257,236804.71500009298,236387.921,236390.62000019476,236404.331,236823.196,,7,Carrington
screen,html.Screen,1_3_0_1_8,2021-03-29T09:19:06.687Z,,,,,,,,,,,,,,,,2,,,,,,,,,,,,,,538.3690001447685,response,,,,1,E,,,,,Space,keypress(Space),,,,lyrical,,,,--- ---- ------ --- ------- ---------- ------- ----------<br>was --------- --- ----------- ------- ----- ------- ---<br>--------- ---- -- --- ---- -- --------- -- ---- -------<br>-- --------- ------ --- ----- ------ ---- --- --------- --<br>------ - ---- -- --- ----------- ------- ---- ----- -----<br>--- -------- - ------ ---- -- ----- ---- --- --- -----------<br>-- -------,237363.42500010505,237361.56500014476,236804.635,236810.3200001642,236823.196,237371.481,,8,was
screen,html.Screen,1_3_0_1_9,2021-03-29T09:19:07.182Z,,,,,,,,,,,,,,,,2,,,,,,,,,,,,,,485.3040000690671,response,,,,1,E,,,,,Space,keypress(Space),,,,lyrical,,,,--- ---- ------ --- ------- ---------- ------- ----------<br>--- observing --- ----------- ------- ----- ------- ---<br>--------- ---- -- --- ---- -- --------- -- ---- -------<br>-- --------- ------ --- ----- ------ ---- --- --------- --<br>------ - ---- -- --- ----------- ------- ---- ----- -----<br>--- -------- - ------ ---- -- ----- ---- --- --- -----------<br>-- -------,237858.5000000894,237856.78500006907,237354.613,237363.6200001929,237371.481,237871.885,,9,observing
screen,html.Screen,1_3_0_1_10,2021-03-29T09:19:07.761Z,,,,,,,,,,,,,,,,2,,,,,,,,,,,,,,563.0600001027342,response,,,,1,E,,,,,Space,keypress(Space),,,,lyrical,,,,--- ---- ------ --- ------- ---------- ------- ----------<br>--- --------- the ----------- ------- ----- ------- ---<br>--------- ---- -- --- ---- -- --------- -- ---- -------<br>-- --------- ------ --- ----- ------ ---- --- --------- --<br>------ - ---- -- --- ----------- ------- ---- ----- -----<br>--- -------- - ------ ---- -- ----- ---- --- --- -----------<br>-- -------,238436.96000007913,238434.94500010274,237855.028,237858.69500017725,237871.885,238471.15,,10,the
screen,html.Screen,1_3_0_1_11,2021-03-29T09:19:08.170Z,,,,,,,,,,,,,,,,2,,,,,,,,,,,,,,373.1150001961796,response,,,,1,E,,,,,Space,keypress(Space),,,,lyrical,,,,--- ---- ------ --- ------- ---------- ------- ----------<br>--- --------- --- interesting ------- ----- ------- ---<br>--------- ---- -- --- ---- -- --------- -- ---- -------<br>-- --------- ------ --- ----- ------ ---- --- --------- --<br>------ - ---- -- --- ----------- ------- ---- ----- -----<br>--- -------- - ------ ---- -- ----- ---- --- --- -----------<br>-- -------,238846.43500018865,238844.26500019617,238454.795,238437.16000020504,238471.15,238854.327,,11,interesting
screen,html.Screen,1_3_0_1_12,2021-03-29T09:19:08.767Z,,,,,,,,,,,,,,,,2,,,,,,,,,,,,,,585.8730000700452,response,,,,1,E,,,,,Space,keypress(Space),,,,lyrical,,,,--- ---- ------ --- ------- ---------- ------- ----------<br>--- --------- --- ----------- sunspot ----- ------- ---<br>--------- ---- -- --- ---- -- --------- -- ---- -------<br>-- --------- ------ --- ----- ------ ---- --- --------- --<br>------ - ---- -- --- ----------- ------- ---- ----- -----<br>--- -------- - ------ ---- -- ----- ---- --- --- -----------<br>-- -------,239443.16500006244,239440.20000007004,238837.968,238846.6250000056,238854.327,239454.834,,12,sunspot
screen,html.Screen,1_3_0_1_13,2021-03-29T09:19:09.228Z,,,,,,,,,,,,,,,,2,,,,,,,,,,,,,,448.0209999929939,response,,,,1,E,,,,,Space,keypress(Space),,,,lyrical,,,,--- ---- ------ --- ------- ---------- ------- ----------<br>--- --------- --- ----------- ------- group ------- ---<br>--------- ---- -- --- ---- -- --------- -- ---- -------<br>-- --------- ------ --- ----- ------ ---- --- --------- --<br>------ - ---- -- --- ----------- ------- ---- ----- -----<br>--- -------- - ------ ---- -- ----- ---- --- --- -----------<br>-- -------,239904.19000014663,239902.854999993,239437.958,239443.3550001122,239454.834,239921.151,,13,group
screen,html.Screen,1_3_0_1_14,2021-03-29T09:19:09.667Z,,,,,,,,,,,,,,,,2,,,,,,,,,,,,,,419.064000091108,response,,,,1,E,,,,,Space,keypress(Space),,,,lyrical,,,,--- ---- ------ --- ------- ---------- ------- ----------<br>--- --------- --- ----------- ------- ----- through ---<br>--------- ---- -- --- ---- -- --------- -- ---- -------<br>-- --------- ------ --- ----- ------ ---- --- --------- --<br>------ - ---- -- --- ----------- ------- ---- ----- -----<br>--- -------- - ------ ---- -- ----- ---- --- --- -----------<br>-- -------,240343.10500021093,240340.21500009112,239904.623,239904.3600000441,239921.151,240354.712,,14,through
screen,html.Screen,1_3_0_1_15,2021-03-29T09:19:10.042Z,,,,,,,,,,,,,,,,2,,,,,,,,,,,,,,362.4480000001495,response,,,,1,E,,,,,Space,keypress(Space),,,,lyrical,,,,--- ---- ------ --- ------- ---------- ------- ----------<br>--- --------- --- ----------- ------- ----- ------- his<br>--------- ---- -- --- ---- -- --------- -- ---- -------<br>-- --------- ------ --- ----- ------ ---- --- --------- --<br>------ - ---- -- --- ----------- ------- ---- ----- -----<br>--- -------- - ------ ---- -- ----- ---- --- --- -----------<br>-- -------,240718.60500006005,240717.16000000015,240338.006,240343.2899999898,240354.712,240721.157,,15,his
screen,html.Screen,1_3_0_1_16,2021-03-29T09:19:10.558Z,,,,,,,,,,,,,,,,2,,,,,,,,,,,,,,511.63300003821496,response,,,,1,E,,,,,Space,keypress(Space),,,,lyrical,,,,--- ---- ------ --- ------- ---------- ------- ----------<br>--- --------- --- ----------- ------- ----- ------- ---<br>telescope ---- -- --- ---- -- --------- -- ---- -------<br>-- --------- ------ --- ----- ------ ---- --- --------- --<br>------ - ---- -- --- ----------- ------- ---- ----- -----<br>--- -------- - ------ ---- -- ----- ---- --- --- -----------<br>-- -------,241234.1450001113,241232.79000003822,240704.674,240718.79500010982,240721.157,241237.672,,16,telescope
screen,html.Screen,1_3_0_1_17,2021-03-29T09:19:11.091Z,,,,,,,,,,,,,,,,2,,,,,,,,,,,,,,526.7380000616249,response,,,,1,E,,,,,Space,keypress(Space),,,,lyrical,,,,--- ---- ------ --- ------- ---------- ------- ----------<br>--- --------- --- ----------- ------- ----- ------- ---<br>--------- when -- --- ---- -- --------- -- ---- -------<br>-- --------- ------ --- ----- ------ ---- --- --------- --<br>------ - ---- -- --- ----------- ------- ---- ----- -----<br>--- -------- - ------ ---- -- ----- ---- --- --- -----------<br>-- -------,241766.89500012435,241764.41000006162,241221.333,241234.30500016548,241237.672,241771.136,,17,when
screen,html.Screen,1_3_0_1_18,2021-03-29T09:19:11.495Z,,,,,,,,,,,,,,,,2,,,,,,,,,,,,,,398.36400007636985,response,,,,1,E,,,,,Space,keypress(Space),,,,lyrical,,,,--- ---- ------ --- ------- ---------- ------- ----------<br>--- --------- --- ----------- ------- ----- ------- ---<br>--------- ---- he --- ---- -- --------- -- ---- -------<br>-- --------- ------ --- ----- ------ ---- --- --------- --<br>------ - ---- -- --- ----------- ------- ---- ----- -----<br>--- -------- - ------ ---- -- ----- ---- --- --- -----------<br>-- -------,242171.62000015378,242169.50000007637,241754.325,241767.1000000555,241771.136,242187.965,,18,he
screen,html.Screen,1_3_0_1_19,2021-03-29T09:19:11.892Z,,,,,,,,,,,,,,,,2,,,,,,,,,,,,,,381.2900002131646,response,,,,1,E,,,,,Space,keypress(Space),,,,lyrical,,,,--- ---- ------ --- ------- ---------- ------- ----------<br>--- --------- --- ----------- ------- ----- ------- ---<br>--------- ---- -- saw ---- -- --------- -- ---- -------<br>-- --------- ------ --- ----- ------ ---- --- --------- --<br>------ - ---- -- --- ----------- ------- ---- ----- -----<br>--- -------- - ------ ---- -- ----- ---- --- --- -----------<br>-- -------,242570.80500014126,242569.25500021316,242171.285,242171.8950001523,242187.965,242587.649,,19,saw
screen,html.Screen,1_3_0_1_20,2021-03-29T09:19:12.274Z,,,,,,,,,,,,,,,,2,,,,,,,,,,,,,,363.3560001554142,response,,,,1,E,,,,,Space,keypress(Space),,,,lyrical,,,,--- ---- ------ --- ------- ---------- ------- ----------<br>--- --------- --- ----------- ------- ----- ------- ---<br>--------- ---- -- --- what -- --------- -- ---- -------<br>-- --------- ------ --- ----- ------ ---- --- --------- --<br>------ - ---- -- --- ----------- ------- ---- ----- -----<br>--- -------- - ------ ---- -- ----- ---- --- --- -----------<br>-- -------,242952.55500008352,242951.00500015542,242571.253,242570.99500019103,242587.649,242954.334,,20,what
screen,html.Screen,1_3_0_1_21,2021-03-29T09:19:12.865Z,,,,,,,,,,,,,,,,2,,,,,,,,,,,,,,587.3109999902372,response,,,,1,E,,,,,Space,keypress(Space),,,,lyrical,,,,--- ---- ------ --- ------- ---------- ------- ----------<br>--- --------- --- ----------- ------- ----- ------- ---<br>--------- ---- -- --- ---- he --------- -- ---- -------<br>-- --------- ------ --- ----- ------ ---- --- --------- --<br>------ - ---- -- --- ----------- ------- ---- ----- -----<br>--- -------- - ------ ---- -- ----- ---- --- --- -----------<br>-- -------,243543.98500011303,243541.64499999024,242938.089,242952.72000017576,242954.334,243554.364,,21,he
screen,html.Screen,1_3_0_1_22,2021-03-29T09:19:13.483Z,,,,,,,,,,,,,,,,2,,,,,,,,,,,,,,605.7510000933544,response,,,,1,E,,,,,Space,keypress(Space),,,,lyrical,,,,--- ---- ------ --- ------- ---------- ------- ----------<br>--- --------- --- ----------- ------- ----- ------- ---<br>--------- ---- -- --- ---- -- described -- ---- -------<br>-- --------- ------ --- ----- ------ ---- --- --------- --<br>------ - ---- -- --- ----------- ------- ---- ----- -----<br>--- -------- - ------ ---- -- ----- ---- --- --- -----------<br>-- -------,244161.79500008002,244160.11500009336,243537.942,243544.18000020087,243554.364,244171.042,,22,described
screen,html.Screen,1_3_0_1_23,2021-03-29T09:19:13.890Z,,,,,,,,,,,,,,,,2,,,,,,,,,,,,,,396.4830000786169,response,,,,1,E,,,,,Space,keypress(Space),,,,lyrical,,,,--- ---- ------ --- ------- ---------- ------- ----------<br>--- --------- --- ----------- ------- ----- ------- ---<br>--------- ---- -- --- ---- -- --------- as ---- -------<br>-- --------- ------ --- ----- ------ ---- --- --------- --<br>------ - ---- -- --- ----------- ------- ---- ----- -----<br>--- -------- - ------ ---- -- ----- ---- --- --- -----------<br>-- -------,244568.98000021465,244567.5250000786,244154.599,244161.9850001298,244171.042,244574.865,,23,as
screen,html.Screen,1_3_0_1_24,2021-03-29T09:19:14.274Z,,,,,,,,,,,,,,,,2,,,,,,,,,,,,,,376.68000007630326,response,,,,1,E,,,,,Space,keypress(Space),,,,lyrical,,,,"--- ---- ------ --- ------- ---------- ------- ----------<br>--- --------- --- ----------- ------- ----- ------- ---<br>--------- ---- -- --- ---- -- --------- -- ""two -------<br>-- --------- ------ --- ----- ------ ---- --- --------- --<br>------ - ---- -- --- ----------- ------- ---- ----- -----<br>--- -------- - ------ ---- -- ----- ---- --- --- -----------<br>-- -------",244952.9099999927,244951.5450000763,244554.605,244569.16000018828,244574.865,244980.315,,24,"""two"
screen,html.Screen,1_3_0_1_25,2021-03-29T09:19:14.663Z,,,,,,,,,,,,,,,,2,,,,,,,,,,,,,,360.4300001686788,response,,,,1,E,,,,,Space,keypress(Space),,,,lyrical,,,,--- ---- ------ --- ------- ---------- ------- ----------<br>--- --------- --- ----------- ------- ----- ------- ---<br>--------- ---- -- --- ---- -- --------- -- ---- patches<br>-- --------- ------ --- ----- ------ ---- --- --------- --<br>------ - ---- -- --- ----------- ------- ---- ----- -----<br>--- -------- - ------ ---- -- ----- ---- --- --- -----------<br>-- -------,245342.18000015244,245340.74500016868,244937.642,244953.080000123,244980.315,245354.621,,25,patches
screen,html.Screen,1_3_0_1_26,2021-03-29T09:19:15.094Z,,,,,,,,,,,,,,,,2,,,,,,,,,,,,,,416.289000195713,response,,,,1,E,,,,,Space,keypress(Space),,,,lyrical,,,,--- ---- ------ --- ------- ---------- ------- ----------<br>--- --------- --- ----------- ------- ----- ------- ---<br>--------- ---- -- --- ---- -- --------- -- ---- -------<br>of --------- ------ --- ----- ------ ---- --- --------- --<br>------ - ---- -- --- ----------- ------- ---- ----- -----<br>--- -------- - ------ ---- -- ----- ---- --- --- -----------<br>-- -------,245773.01000012085,245770.91000019573,245337.685,245342.3400002066,245354.621,245787.645,,26,of
screen,html.Screen,1_3_0_1_27,2021-03-29T09:19:15.534Z,,,,,,,,,,,,,,,,2,,,,,,,,,,,,,,423.58000021011685,response,,,,1,E,,,,,Space,keypress(Space),,,,lyrical,,,,--- ---- ------ --- ------- ---------- ------- ----------<br>--- --------- --- ----------- ------- ----- ------- ---<br>--------- ---- -- --- ---- -- --------- -- ---- -------<br>-- intensely ------ --- ----- ------ ---- --- --------- --<br>------ - ---- -- --- ----------- ------- ---- ----- -----<br>--- -------- - ------ ---- -- ----- ---- --- --- -----------<br>-- -------,246212.715000147,246211.2250002101,245771.407,245773.20000017062,245787.645,246221.016,,27,intensely
screen,html.Screen,1_3_0_1_28,2021-03-29T09:19:15.982Z,,,,,,,,,,,,,,,,2,,,,,,,,,,,,,,438.874000009906,response,,,,1,E,,,,,Space,keypress(Space),,,,lyrical,,,,--- ---- ------ --- ------- ---------- ------- ----------<br>--- --------- --- ----------- ------- ----- ------- ---<br>--------- ---- -- --- ---- -- --------- -- ---- -------<br>-- --------- bright --- ----- ------ ---- --- --------- --<br>------ - ---- -- --- ----------- ------- ---- ----- -----<br>--- -------- - ------ ---- -- ----- ---- --- --- -----------<br>-- -------,246661.4300000947,246659.8900000099,246204.585,246212.89500012062,246221.016,246671.039,,28,bright
screen,html.Screen,1_3_0_1_29,2021-03-29T09:19:16.458Z,,,,,,,,,,,,,,,,2,,,,,,,,,,,,,,464.79600008099806,response,,,,1,E,,,,,Space,keypress(Space),,,,lyrical,,,,--- ---- ------ --- ------- ---------- ------- ----------<br>--- --------- --- ----------- ------- ----- ------- ---<br>--------- ---- -- --- ---- -- --------- -- ---- -------<br>-- --------- ------ and ----- ------ ---- --- --------- --<br>------ - ---- -- --- ----------- ------- ---- ----- -----<br>--- -------- - ------ ---- -- ----- ---- --- --- -----------<br>-- -------,247137.29000021704,247135.835000081,246654.691,246661.6150001064,246671.039,247154.584,,29,and
screen,html.Screen,1_3_0_1_30,2021-03-29T09:19:16.867Z,,,,,,,,,,,,,,,,2,,,,,,,,,,,,,,388.2210002083157,response,,,,1,E,,,,,Space,keypress(Space),,,,lyrical,,,,--- ---- ------ --- ------- ---------- ------- ----------<br>--- --------- --- ----------- ------- ----- ------- ---<br>--------- ---- -- --- ---- -- --------- -- ---- -------<br>-- --------- ------ --- white ------ ---- --- --------- --<br>------ - ---- -- --- ----------- ------- ---- ----- -----<br>--- -------- - ------ ---- -- ----- ---- --- --- -----------<br>-- -------,247546.16500018165,247542.80500020832,247121.685,247137.4749999959,247154.584,247554.457,,30,white
screen,html.Screen,1_3_0_1_31,2021-03-29T09:19:17.252Z,,,,,,,,,,,,,,,,2,,,,,,,,,,,,,,373.59800002578413,response,,,,1,E,,,,,Space,keypress(Space),,,,lyrical,,,,"--- ---- ------ --- ------- ---------- ------- ----------<br>--- --------- --- ----------- ------- ----- ------- ---<br>--------- ---- -- --- ---- -- --------- -- ---- -------<br>-- --------- ------ --- ----- light"" ---- --- --------- --<br>------ - ---- -- --- ----------- ------- ---- ----- -----<br>--- -------- - ------ ---- -- ----- ---- --- --- -----------<br>-- -------",247930.67000014707,247928.05500002578,247537.697,247546.34500015527,247554.457,247937.89,,31,"light"""
screen,html.Screen,1_3_0_1_32,2021-03-29T09:19:17.989Z,,,,,,,,,,,,,,,,2,,,,,,,,,,,,,,727.645000152872,response,,,,1,E,,,,,Space,keypress(Space),,,,lyrical,,,,--- ---- ------ --- ------- ---------- ------- ----------<br>--- --------- --- ----------- ------- ----- ------- ---<br>--------- ---- -- --- ---- -- --------- -- ---- -------<br>-- --------- ------ --- ----- ------ over --- --------- --<br>------ - ---- -- --- ----------- ------- ---- ----- -----<br>--- -------- - ------ ---- -- ----- ---- --- --- -----------<br>-- -------,248667.90000000037,248665.5350001529,247921.282,247930.87000004016,247937.89,248671.023,,32,over
screen,html.Screen,1_3_0_1_33,2021-03-29T09:19:18.478Z,,,,,,,,,,,,,,,,2,,,,,,,,,,,,,,484.9720001537935,response,,,,1,E,,,,,Space,keypress(Space),,,,lyrical,,,,--- ---- ------ --- ------- ---------- ------- ----------<br>--- --------- --- ----------- ------- ----- ------- ---<br>--------- ---- -- --- ---- -- --------- -- ---- -------<br>-- --------- ------ --- ----- ------ ---- the --------- --<br>------ - ---- -- --- ----------- ------- ---- ----- -----<br>--- -------- - ------ ---- -- ----- ---- --- --- -----------<br>-- -------,249157.3750001844,249155.99500015378,248654.825,248668.09500008821,248671.023,249171.181,,33,the
screen,html.Screen,1_3_0_1_34,2021-03-29T09:19:18.928Z,,,,,,,,,,,,,,,,2,,,,,,,,,,,,,,434.40400001205853,response,,,,1,E,,,,,Space,keypress(Space),,,,lyrical,,,,--- ---- ------ --- ------- ---------- ------- ----------<br>--- --------- --- ----------- ------- ----- ------- ---<br>--------- ---- -- --- ---- -- --------- -- ---- -------<br>-- --------- ------ --- ----- ------ ---- --- sunspots. --<br>------ - ---- -- --- ----------- ------- ---- ----- -----<br>--- -------- - ------ ---- -- ----- ---- --- --- -----------<br>-- -------,249607.0100001525,249605.58500001207,249154.336,249157.55000011995,249171.181,249621.186,,34,sunspots.
screen,html.Screen,1_3_0_1_35,2021-03-29T09:19:19.664Z,,,,,,,,,,,,,,,,2,,,,,,,,,,,,,,719.3040000896435,response,,,,1,E,,,,,Space,keypress(Space),,,,lyrical,,,,--- ---- ------ --- ------- ---------- ------- ----------<br>--- --------- --- ----------- ------- ----- ------- ---<br>--------- ---- -- --- ---- -- --------- -- ---- -------<br>-- --------- ------ --- ----- ------ ---- --- --------- He<br>------ - ---- -- --- ----------- ------- ---- ----- -----<br>--- -------- - ------ ---- -- ----- ---- --- --- -----------<br>-- -------,250343.22000015527,250340.49000008963,249604.284,249607.18500008807,249621.186,250354.687,,35,He
screen,html.Screen,1_3_0_1_36,2021-03-29T09:19:20.309Z,,,,,,,,,,,,,,,,2,,,,,,,,,,,,,,631.8780001447594,response,,,,1,E,,,,,Space,keypress(Space),,,,lyrical,,,,--- ---- ------ --- ------- ---------- ------- ----------<br>--- --------- --- ----------- ------- ----- ------- ---<br>--------- ---- -- --- ---- -- --------- -- ---- -------<br>-- --------- ------ --- ----- ------ ---- --- --------- --<br>jotted - ---- -- --- ----------- ------- ---- ----- -----<br>--- -------- - ------ ---- -- ----- ---- --- --- -----------<br>-- -------,250988.15000010654,250986.56500014476,250337.618,250343.39000005275,250354.687,251004.378,,36,jotted
screen,html.Screen,1_3_0_1_37,2021-03-29T09:19:20.949Z,,,,,,,,,,,,,,,,2,,,,,,,,,,,,,,620.9070000746578,response,,,,1,E,,,,,Space,keypress(Space),,,,lyrical,,,,--- ---- ------ --- ------- ---------- ------- ----------<br>--- --------- --- ----------- ------- ----- ------- ---<br>--------- ---- -- --- ---- -- --------- -- ---- -------<br>-- --------- ------ --- ----- ------ ---- --- --------- --<br>------ a ---- -- --- ----------- ------- ---- ----- -----<br>--- -------- - ------ ---- -- ----- ---- --- --- -----------<br>-- -------,251627.63500004075,251625.28500007465,250987.968,250988.4150000289,251004.378,251637.621,,37,a
