sender,sender_type,sender_id,timestamp,meta,,Blues,Classical,Country,Dance,Electronic,Folk,Gospel,Hip-Hop,Jazz,Latin,Musical/Film,New-age,Pop,Provo_ID,R&B,Rap,Reggae,Religious,Rock,Soul,Swing,Traditional,age,artist_name,correct,correctResponse,distraction,duration,ended_on,familiarity,gender,headphone_check_performance,item,list,offensiveness,pleasantness,position_correct,preference,response,response_action,snippet_file,song_name,song_rating,sound,stimulus_1,stimulus_2,stimulus_3,text,time_commit,time_end,time_render,time_run,time_show,time_switch,url,word,word_ID
Introduction,html.Screen,0_0,2021-03-27T17:27:54.100Z,"{""labjs_version"":""20.2.2"",""labjs_build"":{""flavor"":""production"",""commit"":""a25486e0c714a0ae2ce03ff94b7bb6896854dcfa""},""location"":""https://run.pavlovia.org/mvasilev/music_c/"",""userAgent"":""Mozilla/5.0 (Macintosh; Intel Mac OS X 11_2_3) AppleWebKit/537.36 (KHTML, like Gecko) Chrome/89.0.4389.90 Safari/537.36"",""platform"":""MacIntel"",""language"":""en-GB"",""locale"":""en-GB"",""timeZone"":""Europe/London"",""timezoneOffset"":0,""screen_width"":1680,""screen_height"":1050,""scroll_width"":1680,""scroll_height"":890,""window_innerWidth"":1680,""window_innerHeight"":938,""devicePixelRatio"":2}",,,,,,,,,,,,,,,,,,,,,,,,,,,,,9138.603999999392,response,,,,,,,,,,continue,click button,,,,,,,,,16738.250000002154,16733.534999999392,7578.265,7588.430000003427,7594.931,16739.622,{},,
Volume calibration,html.Screen,0_1,2021-03-27T17:28:14.832Z,,,,,,,,,,,,,,,,,,,,,,,,,,,,,,20726.083000002345,response,,,,,,,,,,continue,click button,,,,,,,,,37470.69000000192,37465.705000002345,16722.956,16738.615000002028,16739.622,37472.94,,,
Task instructions,html.Screen,0_2,2021-03-27T17:28:31.226Z,,,,,,,,,,,,,,,,,,,,,,,,,,,,,,16390.149999998917,response,,,,,,,,,,continue,click button,,,,,,,,,53865.51999999938,53863.08999999892,37456.274,37470.869999997376,37472.94,53875.86,,,
Sounds,html.Screen,0_3_0_0,2021-03-27T17:28:35.474Z,,,,,,,,,,,,,,,,,,,,,,,,,,,,,,4249.830000000002,timeout,,,,,,,,1,,,,,,,,S,O,I,,58113.64499999763,58109.024,53859.194,53865.79999999958,53875.86,58125.69,,,
Judgement,html.Screen,0_3_0_1,2021-03-27T17:28:39.257Z,,,,,,,,,,,,,,,,,,,,,,,,,,,true,1,,3768.770000003162,response,,,,,,,,1,,1,click #choice-1,,,,,S,O,I,,61896.91999999923,61894.460000003164,58109.024,58113.835000003746,58125.69,61902.299,,,
Trial,flow.Sequence,0_3_0,2021-03-27T17:28:39.259Z,,,,,,,,,,,,,,,,,,,,,,,,,,,,,,8018.600000003164,completion,,,,,,,,1,,,,,,,,S,O,I,,61898.79500000097,61894.460000003164,53859.194,53865.72999999771,53875.86,61902.299,,,
Sounds,html.Screen,0_3_1_0,2021-03-27T17:28:43.497Z,,,,,,,,,,,,,,,,,,,,,,,,,,,,,,4249.830000000002,timeout,,,,,,,,2,,,,,,,,O,S,I,,66137.13499999722,66135.463,61885.633,61898.94500000082,61902.299,66152.129,,,
Judgement,html.Screen,0_3_1_1,2021-03-27T17:28:44.044Z,,,,,,,,,,,,,,,,,,,,,,,,,,,true,2,,529.1509999970585,response,,,,,,,,2,,2,click #choice-2,,,,,O,S,I,,66683.7050000031,66681.27999999706,66135.463,66137.32500000333,66152.129,66685.441,,,
Trial,flow.Sequence,0_3_1,2021-03-27T17:28:44.044Z,,,,,,,,,,,,,,,,,,,,,,,,,,,,,,4778.98099999706,completion,,,,,,,,2,,,,,,,,O,S,I,,66684.0400000001,66681.27999999706,61885.633,61898.90000000014,61902.299,66685.441,,,
Sounds,html.Screen,0_3_2_0,2021-03-27T17:28:48.281Z,,,,,,,,,,,,,,,,,,,,,,,,,,,,,,4249.829999999987,timeout,,,,,,,,3,,,,,,,,I,O,S,,70920.76999999699,70918.605,66668.775,66684.22499999724,66685.441,70935.271,,,
Judgement,html.Screen,0_3_2_1,2021-03-27T17:28:48.938Z,,,,,,,,,,,,,,,,,,,,,,,,,,,true,3,,639.7539999982837,response,,,,,,,,3,,3,click #choice-3,,,,,I,O,S,,71577.43499999924,71575.02499999828,70918.605,70920.97500000091,70935.271,71592.116,,,
Trial,flow.Sequence,0_3_2,2021-03-27T17:28:48.938Z,,,,,,,,,,,,,,,,,,,,,,,,,,,,,,4889.583999998271,completion,,,,,,,,3,,,,,,,,I,O,S,,71577.64999999927,71575.02499999828,66668.775,66684.16499999876,66685.441,71592.116,,,
Sounds,html.Screen,0_3_3_0,2021-03-27T17:28:53.187Z,,,,,,,,,,,,,,,,,,,,,,,,,,,,,,4249.830000000002,timeout,,,,,,,,2,,,,,,,,I,S,O,,75827.14000000124,75825.28,71575.45,71577.80500000081,71592.116,75841.946,,,
Judgement,html.Screen,0_3_3_1,2021-03-27T17:28:53.578Z,,,,,,,,,,,,,,,,,,,,,,,,,,,true,2,,373.69900000386406,response,,,,,,,,2,,2,click #choice-2,,,,,I,S,O,,76218.09500000381,76215.64500000386,75825.28,75827.2649999999,75841.946,76225.264,,,
Trial,flow.Sequence,0_3_3,2021-03-27T17:28:53.578Z,,,,,,,,,,,,,,,,,,,,,,,,,,,,,,4623.529000003866,completion,,,,,,,,2,,,,,,,,I,S,O,,76218.31000000384,76215.64500000386,71575.45,71577.74500000232,71592.116,76225.264,,,
Sounds,html.Screen,0_3_4_0,2021-03-27T17:28:57.820Z,,,,,,,,,,,,,,,,,,,,,,,,,,,,,,4249.830000000002,timeout,,,,,,,,3,,,,,,,,O,I,S,,80460.30500000052,80458.428,76208.598,76218.44499999861,76225.264,80475.094,,,
Judgement,html.Screen,0_3_4_1,2021-03-27T17:28:58.276Z,,,,,,,,,,,,,,,,,,,,,,,,,,,true,3,,438.26099999695725,response,,,,,,,,3,,3,click #choice-3,,,,,O,I,S,,80915.67999999825,80913.35499999695,80458.428,80460.50000000105,80475.094,80925.076,,,
Trial,flow.Sequence,0_3_4,2021-03-27T17:28:58.276Z,,,,,,,,,,,,,,,,,,,,,,,,,,,,,,4688.090999996959,completion,,,,,,,,3,,,,,,,,O,I,S,,80915.88000000047,80913.35499999695,76208.598,76218.40499999962,76225.264,80925.076,,,
Sounds,html.Screen,0_3_5_0,2021-03-27T17:29:02.519Z,,,,,,,,,,,,,,,,,,,,,,,,,,,,,,4249.830000000002,timeout,,,,,,,,1,,,,,,,,S,I,O,,85159.42000000359,85158.24,80908.41,80916.01500000252,80925.076,85174.906,,,
Judgement,html.Screen,0_3_5_1,2021-03-27T17:29:03.097Z,,,,,,,,,,,,,,,,,,,,,,,,,,,true,1,,559.7340000023978,response,,,,,,,,1,,1,click #choice-1,,,,,S,I,O,,85737.06500000117,85734.6400000024,85158.24,85159.60500000074,85174.906,85742.103,,,
Trial,flow.Sequence,0_3_5,2021-03-27T17:29:03.097Z,,,,,,,,,,,,,,,,,,,,,,,,,,,,,,4809.5640000024,completion,,,,,,,,1,,,,,,,,S,I,O,,85737.2600000017,85734.6400000024,80908.41,80915.97500000353,80925.076,85742.103,,,
Task,flow.Loop,0_3,2021-03-27T17:29:03.101Z,,,,,,,,,,,,,,,,,,,,,,,,,,,,,,31858.7800000024,completion,,,1,,,,,,,,,,,,,,,,,85741.3549999983,85734.6400000024,53859.194,53865.66999999923,53875.86,85742.103,,,
Trap,html.Screen,0_4,2021-03-27T17:29:03.103Z,,,,,,,,,,,,,,,,,,,,,,,,,,,,,,NaN,skipped,,,,,,,,,,,,,,,,,,,,85742.63500000234,85734.6400000024,,85742.50000000029,,85742.103,,,
Thanks,html.Screen,0_5,2021-03-27T17:29:06.321Z,,,,,,,,,,,,,,,,,,,,,,,,,,,,,,3216.4470000030124,response,,,,,,,,,,continue,click button,,,,,,,,,88960.83499999804,88958.55000000302,85725.437,85742.72999999812,85742.103,91225.217,,,
Headphone screening,flow.Sequence,0,2021-03-27T17:29:06.321Z,,,,,,,,,,,,,,,,,,,,,,,,,,,,,,81363.61900000302,completion,,,,,,,,,,,,,,,,,,,,88961.02999999857,88958.55000000302,7578.265,7588.40500000224,7594.931,91225.217,,,
Instructions,html.Page,1_0,2021-03-27T17:29:23.937Z,,,,,,,,,,,,,,,,,,,,,,,,,,,,,,15352.078000002773,form submission,,,,,,,,,,,,,,,,,,,,106577.49999999942,106577.29500000278,91208.551,91227.77499999938,91225.217,106584.399,,,
Holding screen,html.Screen,1_1_0_0,2021-03-27T17:29:30.929Z,,,,,,,,,,,,,,,,,,,,,,,,,,,,,,6999.720000000001,timeout,,,,,,,,,,,,,,,,,,,,113569.51999999728,113567.453,106567.733,106577.66999999876,106584.399,113584.119,,,
screen,html.Screen,1_1_0_1_0,2021-03-27T17:29:33.138Z,,,,,,,,,,,,,,,,53,,,,,,,,,,,,,,2117.7410000010277,response,,,,99,,,,,,Space,keypress(Space),,,,,,,,When -- ----- -- ------ - ------- --- ----------<br>------------- ------ ------ ---- ---- ------- ----- -- ----<br>-------- ------- -- ---------- --- - --- ----- ----- ----<br>---- --- --- ----- --- ---- ---- ------- ----- ---- -------<br>--- --- -- ----- -- --- ---- -- --- ---- -- ------ ------<br>--- ----- -- ----,115705.40500000061,115701.86000000103,113567.453,113569.80499999918,113584.119,115717.367,,0,When
screen,html.Screen,1_1_0_1_1,2021-03-27T17:29:33.567Z,,,,,,,,,,,,,,,,53,,,,,,,,,,,,,,414.4530000023369,response,,,,99,,,,,,Space,keypress(Space),,,,,,,,---- it ----- -- ------ - ------- --- ----------<br>------------- ------ ------ ---- ---- ------- ----- -- ----<br>-------- ------- -- ---------- --- - --- ----- ----- ----<br>---- --- --- ----- --- ---- ---- ------- ----- ---- -------<br>--- --- -- ----- -- --- ---- -- --- ---- -- ------ ------<br>--- ----- -- ----,116134.51999999961,116131.82000000234,115700.701,115705.4799999969,115717.367,116150.683,,1,it
screen,html.Screen,1_1_0_1_2,2021-03-27T17:29:33.948Z,,,,,,,,,,,,,,,,53,,,,,,,,,,,,,,359.3220000037254,response,,,,99,,,,,,Space,keypress(Space),,,,,,,,---- -- comes -- ------ - ------- --- ----------<br>------------- ------ ------ ---- ---- ------- ----- -- ----<br>-------- ------- -- ---------- --- - --- ----- ----- ----<br>---- --- --- ----- --- ---- ---- ------- ----- ---- -------<br>--- --- -- ----- -- --- ---- -- --- ---- -- ------ ------<br>--- ----- -- ----,116515.81499999884,116510.00500000373,116134.017,116134.61000000098,116150.683,116517.335,,2,comes
screen,html.Screen,1_1_0_1_3,2021-03-27T17:29:34.322Z,,,,,,,,,,,,,,,,53,,,,,,,,,,,,,,368.6649999985966,response,,,,99,,,,,,Space,keypress(Space),,,,,,,,---- -- ----- to ------ - ------- --- ----------<br>------------- ------ ------ ---- ---- ------- ----- -- ----<br>-------- ------- -- ---------- --- - --- ----- ----- ----<br>---- --- --- ----- --- ---- ---- ------- ----- ---- -------<br>--- --- -- ----- -- --- ---- -- --- ---- -- ------ ------<br>--- ----- -- ----,116890.22500000283,116885.9999999986,116500.669,116515.9399999975,116517.335,116900.653,,3,to
screen,html.Screen,1_1_0_1_4,2021-03-27T17:29:34.727Z,,,,,,,,,,,,,,,,53,,,,,,,,,,,,,,392.14700000289304,response,,,,99,,,,,,Space,keypress(Space),,,,,,,,---- -- ----- -- having - ------- --- ----------<br>------------- ------ ------ ---- ---- ------- ----- -- ----<br>-------- ------- -- ---------- --- - --- ----- ----- ----<br>---- --- --- ----- --- ---- ---- ------- ----- ---- -------<br>--- --- -- ----- -- --- ---- -- --- ---- -- ------ ------<br>--- ----- -- ----,117295.27000000235,117292.8000000029,116883.987,116890.35000000149,116900.653,117298.113,,4,having
screen,html.Screen,1_1_0_1_5,2021-03-27T17:29:35.097Z,,,,,,,,,,,,,,,,53,,,,,,,,,,,,,,362.75199999801407,response,,,,99,,,,,,Space,keypress(Space),,,,,,,,---- -- ----- -- ------ a ------- --- ----------<br>------------- ------ ------ ---- ---- ------- ----- -- ----<br>-------- ------- -- ---------- --- - --- ----- ----- ----<br>---- --- --- ----- --- ---- ---- ------- ----- ---- -------<br>--- --- -- ----- -- --- ---- -- --- ---- -- ------ ------<br>--- ----- -- ----,117664.76500000135,117660.86499999801,117281.447,117295.35500000202,117298.113,117681.431,,5,a
screen,html.Screen,1_1_0_1_6,2021-03-27T17:29:35.481Z,,,,,,,,,,,,,,,,53,,,,,,,,,,,,,,362.524000001009,response,,,,99,,,,,,Space,keypress(Space),,,,,,,,---- -- ----- -- ------ - lasting --- ----------<br>------------- ------ ------ ---- ---- ------- ----- -- ----<br>-------- ------- -- ---------- --- - --- ----- ----- ----<br>---- --- --- ----- --- ---- ---- ------- ----- ---- -------<br>--- --- -- ----- -- --- ---- -- --- ---- -- ------ ------<br>--- ----- -- ----,118049.1949999996,118043.955000001,117664.765,117664.87000000052,117681.431,118064.749,,6,lasting
screen,html.Screen,1_1_0_1_7,2021-03-27T17:29:35.866Z,,,,,,,,,,,,,,,,53,,,,,,,,,,,,,,364.08599999880244,response,,,,99,,,,,,Space,keypress(Space),,,,,,,,---- -- ----- -- ------ - ------- and ----------<br>------------- ------ ------ ---- ---- ------- ----- -- ----<br>-------- ------- -- ---------- --- - --- ----- ----- ----<br>---- --- --- ----- --- ---- ---- ------- ----- ---- -------<br>--- --- -- ----- -- --- ---- -- --- ---- -- ------ ------<br>--- ----- -- ----,118433.54499999987,118428.8349999988,118048.083,118049.33999999776,118064.749,118448.067,,7,and
screen,html.Screen,1_1_0_1_8,2021-03-27T17:29:36.269Z,,,,,,,,,,,,,,,,53,,,,,,,,,,,,,,384.7480000015785,response,,,,99,,,,,,Space,keypress(Space),,,,,,,,---- -- ----- -- ------ - ------- --- fulfilling<br>------------- ------ ------ ---- ---- ------- ----- -- ----<br>-------- ------- -- ---------- --- - --- ----- ----- ----<br>---- --- --- ----- --- ---- ---- ------- ----- ---- -------<br>--- --- -- ----- -- --- ---- -- --- ---- -- ------ ------<br>--- ----- -- ----,118837.27000000363,118832.81500000157,118431.401,118433.68999999802,118448.067,118848.051,,8,fulfilling
screen,html.Screen,1_1_0_1_9,2021-03-27T17:29:36.689Z,,,,,,,,,,,,,,,,53,,,,,,,,,,,,,,403.86900000242167,response,,,,99,,,,,,Space,keypress(Space),,,,,,,,"---- -- ----- -- ------ - ------- --- ----------<br>relationship, ------ ------ ---- ---- ------- ----- -- ----<br>-------- ------- -- ---------- --- - --- ----- ----- ----<br>---- --- --- ----- --- ---- ---- ------- ----- ---- -------<br>--- --- -- ----- -- --- ---- -- --- ---- -- ------ ------<br>--- ----- -- ----",119257.09500000085,119251.92000000243,118831.385,118837.4049999984,118848.051,119264.701,,9,"relationship,"
screen,html.Screen,1_1_0_1_10,2021-03-27T17:29:37.099Z,,,,,,,,,,,,,,,,53,,,,,,,,,,,,,,397.23400000372203,response,,,,99,,,,,,Space,keypress(Space),,,,,,,,---- -- ----- -- ------ - ------- --- ----------<br>------------- common ------ ---- ---- ------- ----- -- ----<br>-------- ------- -- ---------- --- - --- ----- ----- ----<br>---- --- --- ----- --- ---- ---- ------- ----- ---- -------<br>--- --- -- ----- -- --- ---- -- --- ---- -- ------ ------<br>--- ----- -- ----,119666.41499999969,119661.93500000372,119248.035,119257.23000000289,119264.701,119681.351,,10,common
screen,html.Screen,1_1_0_1_11,2021-03-27T17:29:37.479Z,,,,,,,,,,,,,,,,53,,,,,,,,,,,,,,360.52400000262423,response,,,,99,,,,,,Space,keypress(Space),,,,,,,,---- -- ----- -- ------ - ------- --- ----------<br>------------- ------ wisdom ---- ---- ------- ----- -- ----<br>-------- ------- -- ---------- --- - --- ----- ----- ----<br>---- --- --- ----- --- ---- ---- ------- ----- ---- -------<br>--- --- -- ----- -- --- ---- -- --- ---- -- ------ ------<br>--- ----- -- ----,120046.46499999944,120041.87500000262,119664.685,119666.52500000055,119681.351,120048.003,,11,wisdom
screen,html.Screen,1_1_0_1_12,2021-03-27T17:29:37.878Z,,,,,,,,,,,,,,,,53,,,,,,,,,,,,,,393.9219999991765,response,,,,99,,,,,,Space,keypress(Space),,,,,,,,---- -- ----- -- ------ - ------- --- ----------<br>------------- ------ ------ says ---- ------- ----- -- ----<br>-------- ------- -- ---------- --- - --- ----- ----- ----<br>---- --- --- ----- --- ---- ---- ------- ----- ---- -------<br>--- --- -- ----- -- --- ---- -- --- ---- -- ------ ------<br>--- ----- -- ----,120446.20500000019,120441.92499999917,120031.337,120046.60500000318,120048.003,120447.987,,12,says
screen,html.Screen,1_1_0_1_13,2021-03-27T17:29:38.242Z,,,,,,,,,,,,,,,,53,,,,,,,,,,,,,,356.92299999893294,response,,,,99,,,,,,Space,keypress(Space),,,,,,,,---- -- ----- -- ------ - ------- --- ----------<br>------------- ------ ------ ---- that ------- ----- -- ----<br>-------- ------- -- ---------- --- - --- ----- ----- ----<br>---- --- --- ----- --- ---- ---- ------- ----- ---- -------<br>--- --- -- ----- -- --- ---- -- --- ---- -- ------ ------<br>--- ----- -- ----,120809.914999998,120804.90999999893,120431.321,120446.32499999716,120447.987,120814.639,,13,that
screen,html.Screen,1_1_0_1_14,2021-03-27T17:29:38.593Z,,,,,,,,,,,,,,,,53,,,,,,,,,,,,,,341.2209999989427,response,,,,99,,,,,,Space,keypress(Space),,,,,,,,---- -- ----- -- ------ - ------- --- ----------<br>------------- ------ ------ ---- ---- feeling ----- -- ----<br>-------- ------- -- ---------- --- - --- ----- ----- ----<br>---- --- --- ----- --- ---- ---- ------- ----- ---- -------<br>--- --- -- ----- -- --- ---- -- --- ---- -- ------ ------<br>--- ----- -- ----,121160.3099999993,121155.85999999894,120797.973,120810.03999999666,120814.639,121164.625,,14,feeling
screen,html.Screen,1_1_0_1_15,2021-03-27T17:29:38.973Z,,,,,,,,,,,,,,,,53,,,,,,,,,,,,,,371.250000001397,response,,,,99,,,,,,Space,keypress(Space),,,,,,,,---- -- ----- -- ------ - ------- --- ----------<br>------------- ------ ------ ---- ---- ------- close -- ----<br>-------- ------- -- ---------- --- - --- ----- ----- ----<br>---- --- --- ----- --- ---- ---- ------- ----- ---- -------<br>--- --- -- ----- -- --- ---- -- --- ---- -- ------ ------<br>--- ----- -- ----,121541.19000000355,121535.8750000014,121147.959,121160.43499999796,121164.625,121547.943,,15,close
screen,html.Screen,1_1_0_1_16,2021-03-27T17:29:39.348Z,,,,,,,,,,,,,,,,53,,,,,,,,,,,,,,363.6919999967504,response,,,,99,,,,,,Space,keypress(Space),,,,,,,,---- -- ----- -- ------ - ------- --- ----------<br>------------- ------ ------ ---- ---- ------- ----- to ----<br>-------- ------- -- ---------- --- - --- ----- ----- ----<br>---- --- --- ----- --- ---- ---- ------- ----- ---- -------<br>--- --- -- ----- -- --- ---- -- --- ---- -- ------ ------<br>--- ----- -- ----,121916.19499999797,121911.63499999675,121531.277,121541.31500000221,121547.943,121931.261,,16,to
screen,html.Screen,1_1_0_1_17,2021-03-27T17:29:39.922Z,,,,,,,,,,,,,,,,53,,,,,,,,,,,,,,553.6039999985369,response,,,,99,,,,,,Space,keypress(Space),,,,,,,,---- -- ----- -- ------ - ------- --- ----------<br>------------- ------ ------ ---- ---- ------- ----- -- your<br>-------- ------- -- ---------- --- - --- ----- ----- ----<br>---- --- --- ----- --- ---- ---- ------- ----- ---- -------<br>--- --- -- ----- -- --- ---- -- --- ---- -- ------ ------<br>--- ----- -- ----,122490.24500000087,122484.86499999854,121914.595,121916.32499999832,121931.261,122497.905,,17,your
screen,html.Screen,1_1_0_1_18,2021-03-27T17:29:40.420Z,,,,,,,,,,,,,,,,53,,,,,,,,,,,,,,485.77499999754946,response,,,,99,,,,,,Space,keypress(Space),,,,,,,,---- -- ----- -- ------ - ------- --- ----------<br>------------- ------ ------ ---- ---- ------- ----- -- ----<br>romantic ------- -- ---------- --- - --- ----- ----- ----<br>---- --- --- ----- --- ---- ---- ------- ----- ---- -------<br>--- --- -- ----- -- --- ---- -- --- ---- -- ------ ------<br>--- ----- -- ----,122987.81500000041,122983.67999999755,122481.239,122490.36999999953,122497.905,122997.885,,18,romantic
screen,html.Screen,1_1_0_1_19,2021-03-27T17:29:40.868Z,,,,,,,,,,,,,,,,53,,,,,,,,,,,,,,432.88499999903433,response,,,,99,,,,,,Space,keypress(Space),,,,,,,,---- -- ----- -- ------ - ------- --- ----------<br>------------- ------ ------ ---- ---- ------- ----- -- ----<br>-------- partner -- ---------- --- - --- ----- ----- ----<br>---- --- --- ----- --- ---- ---- ------- ----- ---- -------<br>--- --- -- ----- -- --- ---- -- --- ---- -- ------ ------<br>--- ----- -- ----,123436.02999999712,123430.76999999903,122981.219,122987.91999999958,122997.885,123447.867,,19,partner
screen,html.Screen,1_1_0_1_20,2021-03-27T17:29:41.295Z,,,,,,,,,,,,,,,,53,,,,,,,,,,,,,,410.908000000607,response,,,,99,,,,,,Space,keypress(Space),,,,,,,,---- -- ----- -- ------ - ------- --- ----------<br>------------- ------ ------ ---- ---- ------- ----- -- ----<br>-------- ------- is ---------- --- - --- ----- ----- ----<br>---- --- --- ----- --- ---- ---- ------- ----- ---- -------<br>--- --- -- ----- -- --- ---- -- --- ---- -- ------ ------<br>--- ----- -- ----,123863.27999999776,123858.7750000006,123431.201,123436.15000000136,123447.867,123864.517,,20,is
screen,html.Screen,1_1_0_1_21,2021-03-27T17:29:41.755Z,,,,,,,,,,,,,,,,53,,,,,,,,,,,,,,453.24799999977404,response,,,,99,,,,,,Space,keypress(Space),,,,,,,,---- -- ----- -- ------ - ------- --- ----------<br>------------- ------ ------ ---- ---- ------- ----- -- ----<br>-------- ------- -- paramount. --- - --- ----- ----- ----<br>---- --- --- ----- --- ---- ---- ------- ----- ---- -------<br>--- --- -- ----- -- --- ---- -- --- ---- -- ------ ------<br>--- ----- -- ----,124322.48499999696,124317.76499999978,123847.851,123863.40999999811,123864.517,124331.165,,21,paramount.
screen,html.Screen,1_1_0_1_22,2021-03-27T17:29:42.203Z,,,,,,,,,,,,,,,,53,,,,,,,,,,,,,,435.41999999758264,response,,,,99,,,,,,Space,keypress(Space),,,,,,,,---- -- ----- -- ------ - ------- --- ----------<br>------------- ------ ------ ---- ---- ------- ----- -- ----<br>-------- ------- -- ---------- But - --- ----- ----- ----<br>---- --- --- ----- --- ---- ---- ------- ----- ---- -------<br>--- --- -- ----- -- --- ---- -- --- ---- -- ------ ------<br>--- ----- -- ----,124770.49000000261,124766.58499999758,124314.499,124322.6050000012,124331.165,124781.147,,22,But
screen,html.Screen,1_1_0_1_23,2021-03-27T17:29:42.573Z,,,,,,,,,,,,,,,,53,,,,,,,,,,,,,,355.5980000034324,response,,,,99,,,,,,Space,keypress(Space),,,,,,,,---- -- ----- -- ------ - ------- --- ----------<br>------------- ------ ------ ---- ---- ------- ----- -- ----<br>-------- ------- -- ---------- --- a --- ----- ----- ----<br>---- --- --- ----- --- ---- ---- ------- ----- ---- -------<br>--- --- -- ----- -- --- ---- -- --- ---- -- ------ ------<br>--- ----- -- ----,125141.28999999957,125136.74500000343,124764.481,124770.59000000008,124781.147,125147.799,,23,a
screen,html.Screen,1_1_0_1_24,2021-03-27T17:29:42.821Z,,,,,,,,,,,,,,,,53,,,,,,,,,,,,,,236.93599999963772,response,,,,99,,,,,,Space,keypress(Space),,,,,,,,---- -- ----- -- ------ - ------- --- ----------<br>------------- ------ ------ ---- ---- ------- ----- -- ----<br>-------- ------- -- ---------- --- - new ----- ----- ----<br>---- --- --- ----- --- ---- ---- ------- ----- ---- -------<br>--- --- -- ----- -- --- ---- -- --- ---- -- ------ ------<br>--- ----- -- ----,125389.04000000184,125384.73499999964,125131.133,125141.41499999823,125147.799,125397.789,,24,new
screen,html.Screen,1_1_0_1_25,2021-03-27T17:29:43.112Z,,,,,,,,,,,,,,,,53,,,,,,,,,,,,,,277.8809999968944,response,,,,99,,,,,,Space,keypress(Space),,,,,,,,---- -- ----- -- ------ - ------- --- ----------<br>------------- ------ ------ ---- ---- ------- ----- -- ----<br>-------- ------- -- ---------- --- - --- study ----- ----<br>---- --- --- ----- --- ---- ---- ------- ----- ---- -------<br>--- --- -- ----- -- --- ---- -- --- ---- -- ------ ------<br>--- ----- -- ----,125680.03999999928,125675.6699999969,125381.123,125389.1700000022,125397.789,125681.111,,25,study
screen,html.Screen,1_1_0_1_26,2021-03-27T17:29:43.494Z,,,,,,,,,,,,,,,,53,,,,,,,,,,,,,,376.5939999992552,response,,,,99,,,,,,Space,keypress(Space),,,,,,,,---- -- ----- -- ------ - ------- --- ----------<br>------------- ------ ------ ---- ---- ------- ----- -- ----<br>-------- ------- -- ---------- --- - --- ----- finds ----<br>---- --- --- ----- --- ---- ---- ------- ----- ---- -------<br>--- --- -- ----- -- --- ---- -- --- ---- -- ------ ------<br>--- ----- -- ----,126061.82000000263,126057.70499999926,125664.445,125680.20499999693,125681.111,126064.429,,26,finds
screen,html.Screen,1_1_0_1_27,2021-03-27T17:29:43.849Z,,,,,,,,,,,,,,,,53,,,,,,,,,,,,,,347.24600000301143,response,,,,99,,,,,,Space,keypress(Space),,,,,,,,---- -- ----- -- ------ - ------- --- ----------<br>------------- ------ ------ ---- ---- ------- ----- -- ----<br>-------- ------- -- ---------- --- - --- ----- ----- that<br>---- --- --- ----- --- ---- ---- ------- ----- ---- -------<br>--- --- -- ----- -- --- ---- -- --- ---- -- ------ ------<br>--- ----- -- ----,126416.3899999985,126411.67500000302,126047.763,126061.9250000018,126064.429,126431.081,,27,that
screen,html.Screen,1_1_0_1_28,2021-03-27T17:29:44.200Z,,,,,,,,,,,,,,,,53,,,,,,,,,,,,,,331.67899999779183,response,,,,99,,,,,,Space,keypress(Space),,,,,,,,---- -- ----- -- ------ - ------- --- ----------<br>------------- ------ ------ ---- ---- ------- ----- -- ----<br>-------- ------- -- ---------- --- - --- ----- ----- ----<br>it's --- --- ----- --- ---- ---- ------- ----- ---- -------<br>--- --- -- ----- -- --- ---- -- --- ---- -- ------ ------<br>--- ----- -- ----,126767.73500000127,126762.7599999978,126414.415,126416.51000000275,126431.081,126781.067,,28,it's
screen,html.Screen,1_1_0_1_29,2021-03-27T17:29:44.514Z,,,,,,,,,,,,,,,,53,,,,,,,,,,,,,,296.60800000045856,response,,,,99,,,,,,Space,keypress(Space),,,,,,,,---- -- ----- -- ------ - ------- --- ----------<br>------------- ------ ------ ---- ---- ------- ----- -- ----<br>-------- ------- -- ---------- --- - --- ----- ----- ----<br>---- not --- ----- --- ---- ---- ------- ----- ---- -------<br>--- --- -- ----- -- --- ---- -- --- ---- -- ------ ------<br>--- ----- -- ----,127082.15999999811,127077.67500000045,126764.401,126767.84000000043,126781.067,127097.721,,29,not
screen,html.Screen,1_1_0_1_30,2021-03-27T17:29:44.793Z,,,,,,,,,,,,,,,,53,,,,,,,,,,,,,,258.923999999839,response,,,,99,,,,,,Space,keypress(Space),,,,,,,,---- -- ----- -- ------ - ------- --- ----------<br>------------- ------ ------ ---- ---- ------- ----- -- ----<br>-------- ------- -- ---------- --- - --- ----- ----- ----<br>---- --- how ----- --- ---- ---- ------- ----- ---- -------<br>--- --- -- ----- -- --- ---- -- --- ---- -- ------ ------<br>--- ----- -- ----,127360.88500000187,127356.64499999984,127081.055,127082.28000000236,127097.721,127373.283,,30,how
screen,html.Screen,1_1_0_1_31,2021-03-27T17:29:45.062Z,,,,,,,,,,,,,,,,53,,,,,,,,,,,,,,251.3570000018226,response,,,,99,,,,,,Space,keypress(Space),,,,,,,,---- -- ----- -- ------ - ------- --- ----------<br>------------- ------ ------ ---- ---- ------- ----- -- ----<br>-------- ------- -- ---------- --- - --- ----- ----- ----<br>---- --- --- close --- ---- ---- ------- ----- ---- -------<br>--- --- -- ----- -- --- ---- -- --- ---- -- ------ ------<br>--- ----- -- ----,127629.6349999975,127624.64000000182,127356.617,127360.99000000104,127373.283,127639.939,,31,close
screen,html.Screen,1_1_0_1_32,2021-03-27T17:29:45.354Z,,,,,,,,,,,,,,,,53,,,,,,,,,,,,,,276.64599999903294,response,,,,99,,,,,,Space,keypress(Space),,,,,,,,---- -- ----- -- ------ - ------- --- ----------<br>------------- ------ ------ ---- ---- ------- ----- -- ----<br>-------- ------- -- ---------- --- - --- ----- ----- ----<br>---- --- --- ----- you ---- ---- ------- ----- ---- -------<br>--- --- -- ----- -- --- ---- -- --- ---- -- ------ ------<br>--- ----- -- ----,127921.62500000268,127916.58499999903,127623.273,127629.75500000175,127639.939,127923.261,,32,you
screen,html.Screen,1_1_0_1_33,2021-03-27T17:29:45.617Z,,,,,,,,,,,,,,,,53,,,,,,,,,,,,,,256.37900000211084,response,,,,99,,,,,,Space,keypress(Space),,,,,,,,---- -- ----- -- ------ - ------- --- ----------<br>------------- ------ ------ ---- ---- ------- ----- -- ----<br>-------- ------- -- ---------- --- - --- ----- ----- ----<br>---- --- --- ----- --- feel ---- ------- ----- ---- -------<br>--- --- -- ----- -- --- ---- -- --- ---- -- ------ ------<br>--- ----- -- ----,128184.97999999818,128179.64000000211,127906.595,127921.74499999965,127923.261,128189.917,,33,feel
screen,html.Screen,1_1_0_1_34,2021-03-27T17:29:45.995Z,,,,,,,,,,,,,,,,53,,,,,,,,,,,,,,368.7230000029231,response,,,,99,,,,,,Space,keypress(Space),,,,,,,,---- -- ----- -- ------ - ------- --- ----------<br>------------- ------ ------ ---- ---- ------- ----- -- ----<br>-------- ------- -- ---------- --- - --- ----- ----- ----<br>---- --- --- ----- --- ---- that ------- ----- ---- -------<br>--- --- -- ----- -- --- ---- -- --- ---- -- ------ ------<br>--- ----- -- ----,128562.96000000293,128558.64000000292,128173.251,128185.10499999684,128189.917,128573.235,,34,that
screen,html.Screen,1_1_0_1_35,2021-03-27T17:29:46.383Z,,,,,,,,,,,,,,,,53,,,,,,,,,,,,,,372.4249999975873,response,,,,99,,,,,,Space,keypress(Space),,,,,,,,---- -- ----- -- ------ - ------- --- ----------<br>------------- ------ ------ ---- ---- ------- ----- -- ----<br>-------- ------- -- ---------- --- - --- ----- ----- ----<br>---- --- --- ----- --- ---- ---- matters ----- ---- -------<br>--- --- -- ----- -- --- ---- -- --- ---- -- ------ ------<br>--- ----- -- ----,128950.90999999957,128945.65999999759,128556.569,128563.09000000329,128573.235,128956.553,,35,matters
screen,html.Screen,1_1_0_1_36,2021-03-27T17:29:46.786Z,,,,,,,,,,,,,,,,53,,,,,,,,,,,,,,393.0619999991759,response,,,,99,,,,,,Space,keypress(Space),,,,,,,,"---- -- ----- -- ------ - ------- --- ----------<br>------------- ------ ------ ---- ---- ------- ----- -- ----<br>-------- ------- -- ---------- --- - --- ----- ----- ----<br>---- --- --- ----- --- ---- ---- ------- most, ---- -------<br>--- --- -- ----- -- --- ---- -- --- ---- -- ------ ------<br>--- ----- -- ----",129353.83000000002,129349.61499999918,128939.887,128951.03499999823,128956.553,129356.537,,36,"most,"
screen,html.Screen,1_1_0_1_37,2021-03-27T17:29:47.433Z,,,,,,,,,,,,,,,,53,,,,,,,,,,,,,,640.9780000027531,response,,,,99,,,,,,Space,keypress(Space),,,,,,,,---- -- ----- -- ------ - ------- --- ----------<br>------------- ------ ------ ---- ---- ------- ----- -- ----<br>-------- ------- -- ---------- --- - --- ----- ----- ----<br>---- --- --- ----- --- ---- ---- ------- ----- it's -------<br>--- --- -- ----- -- --- ---- -- --- ---- -- ------ ------<br>--- ----- -- ----,130000.9149999969,129997.51500000275,129339.871,129353.95499999868,129356.537,130006.511,,37,it's
screen,html.Screen,1_1_0_1_38,2021-03-27T17:29:47.853Z,,,,,,,,,,,,,,,,53,,,,,,,,,,,,,,410.0640000029234,response,,,,99,,,,,,Space,keypress(Space),,,,,,,,---- -- ----- -- ------ - ------- --- ----------<br>------------- ------ ------ ---- ---- ------- ----- -- ----<br>-------- ------- -- ---------- --- - --- ----- ----- ----<br>---- --- --- ----- --- ---- ---- ------- ----- ---- whether<br>--- --- -- ----- -- --- ---- -- --- ---- -- ------ ------<br>--- ----- -- ----,130421.17500000313,130416.57500000292,129989.845,130001.02499999775,130006.511,130423.161,,38,whether
screen,html.Screen,1_1_0_1_39,2021-03-27T17:29:48.241Z,,,,,,,,,,,,,,,,53,,,,,,,,,,,,,,381.43900000312715,response,,,,99,,,,,,Space,keypress(Space),,,,,,,,---- -- ----- -- ------ - ------- --- ----------<br>------------- ------ ------ ---- ---- ------- ----- -- ----<br>-------- ------- -- ---------- --- - --- ----- ----- ----<br>---- --- --- ----- --- ---- ---- ------- ----- ---- -------<br>you --- -- ----- -- --- ---- -- --- ---- -- ------ ------<br>--- ----- -- ----,130808.68999999802,130804.60000000312,130406.495,130421.3000000018,130423.161,130823.145,,39,you
screen,html.Screen,1_1_0_1_40,2021-03-27T17:29:48.690Z,,,,,,,,,,,,,,,,53,,,,,,,,,,,,,,430.49500000262924,response,,,,99,,,,,,Space,keypress(Space),,,,,,,,---- -- ----- -- ------ - ------- --- ----------<br>------------- ------ ------ ---- ---- ------- ----- -- ----<br>-------- ------- -- ---------- --- - --- ----- ----- ----<br>---- --- --- ----- --- ---- ---- ------- ----- ---- -------<br>--- are -- ----- -- --- ---- -- --- ---- -- ------ ------<br>--- ----- -- ----,131257.98500000383,131253.64000000263,130806.479,130808.79000000277,130823.145,131273.127,,40,are
screen,html.Screen,1_1_0_1_41,2021-03-27T17:29:49.031Z,,,,,,,,,,,,,,,,53,,,,,,,,,,,,,,321.39800000042305,response,,,,99,,,,,,Space,keypress(Space),,,,,,,,---- -- ----- -- ------ - ------- --- ----------<br>------------- ------ ------ ---- ---- ------- ----- -- ----<br>-------- ------- -- ---------- --- - --- ----- ----- ----<br>---- --- --- ----- --- ---- ---- ------- ----- ---- -------<br>--- --- as ----- -- --- ---- -- --- ---- -- ------ ------<br>--- ----- -- ----,131599.09000000334,131594.52500000043,131256.461,131258.1100000025,131273.127,131606.447,,41,as
screen,html.Screen,1_1_0_1_42,2021-03-27T17:29:49.378Z,,,,,,,,,,,,,,,,53,,,,,,,,,,,,,,335.06299999693874,response,,,,99,,,,,,Space,keypress(Space),,,,,,,,---- -- ----- -- ------ - ------- --- ----------<br>------------- ------ ------ ---- ---- ------- ----- -- ----<br>-------- ------- -- ---------- --- - --- ----- ----- ----<br>---- --- --- ----- --- ---- ---- ------- ----- ---- -------<br>--- --- -- close -- --- ---- -- --- ---- -- ------ ------<br>--- ----- -- ----,131946.02499999746,131941.50999999692,131589.781,131599.215000002,131606.447,131956.433,,42,close
screen,html.Screen,1_1_0_1_43,2021-03-27T17:29:49.677Z,,,,,,,,,,,,,,,,53,,,,,,,,,,,,,,284.07700000327895,response,,,,99,,,,,,Space,keypress(Space),,,,,,,,---- -- ----- -- ------ - ------- --- ----------<br>------------- ------ ------ ---- ---- ------- ----- -- ----<br>-------- ------- -- ---------- --- - --- ----- ----- ----<br>---- --- --- ----- --- ---- ---- ------- ----- ---- -------<br>--- --- -- ----- as --- ---- -- --- ---- -- ------ ------<br>--- ----- -- ----,132245.0600000011,132240.51000000327,131939.767,131946.1500000034,131956.433,132256.421,,43,as
screen,html.Screen,1_1_0_1_44,2021-03-27T17:29:50.048Z,,,,,,,,,,,,,,,,53,,,,,,,,,,,,,,355.0589999995718,response,,,,99,,,,,,Space,keypress(Space),,,,,,,,---- -- ----- -- ------ - ------- --- ----------<br>------------- ------ ------ ---- ---- ------- ----- -- ----<br>-------- ------- -- ---------- --- - --- ----- ----- ----<br>---- --- --- ----- --- ---- ---- ------- ----- ---- -------<br>--- --- -- ----- -- you ---- -- --- ---- -- ------ ------<br>--- ----- -- ----,132616.06500000198,132611.47999999957,132239.755,132245.18499999976,132256.421,132623.073,,44,you
screen,html.Screen,1_1_0_1_45,2021-03-27T17:29:50.357Z,,,,,,,,,,,,,,,,53,,,,,,,,,,,,,,297.40199999898323,response,,,,99,,,,,,Space,keypress(Space),,,,,,,,---- -- ----- -- ------ - ------- --- ----------<br>------------- ------ ------ ---- ---- ------- ----- -- ----<br>-------- ------- -- ---------- --- - --- ----- ----- ----<br>---- --- --- ----- --- ---- ---- ------- ----- ---- -------<br>--- --- -- ----- -- --- want -- --- ---- -- ------ ------<br>--- ----- -- ----,132925.0350000002,132920.474999999,132606.407,132616.18499999895,132623.073,132939.727,,45,want
screen,html.Screen,1_1_0_1_46,2021-03-27T17:29:50.699Z,,,,,,,,,,,,,,,,53,,,,,,,,,,,,,,321.73800000321353,response,,,,99,,,,,,Space,keypress(Space),,,,,,,,---- -- ----- -- ------ - ------- --- ----------<br>------------- ------ ------ ---- ---- ------- ----- -- ----<br>-------- ------- -- ---------- --- - --- ----- ----- ----<br>---- --- --- ----- --- ---- ---- ------- ----- ---- -------<br>--- --- -- ----- -- --- ---- to --- ---- -- ------ ------<br>--- ----- -- ----,133266.73499999742,133261.46500000323,132923.061,132925.15999999887,132939.727,133273.047,,46,to
screen,html.Screen,1_1_0_1_47,2021-03-27T17:29:51.005Z,,,,,,,,,,,,,,,,53,,,,,,,,,,,,,,295.41800000393414,response,,,,99,,,,,,Space,keypress(Space),,,,,,,,"---- -- ----- -- ------ - ------- --- ----------<br>------------- ------ ------ ---- ---- ------- ----- -- ----<br>-------- ------- -- ---------- --- - --- ----- ----- ----<br>---- --- --- ----- --- ---- ---- ------- ----- ---- -------<br>--- --- -- ----- -- --- ---- -- be, ---- -- ------ ------<br>--- ----- -- ----",133572.79500000004,133568.46500000393,133256.381,133266.85500000167,133273.047,133589.701,,47,"be,"
screen,html.Screen,1_1_0_1_48,2021-03-27T17:29:51.377Z,,,,,,,,,,,,,,,,53,,,,,,,,,,,,,,349.83899999939604,response,,,,99,,,,,,Space,keypress(Space),,,,,,,,---- -- ----- -- ------ - ------- --- ----------<br>------------- ------ ------ ---- ---- ------- ----- -- ----<br>-------- ------- -- ---------- --- - --- ----- ----- ----<br>---- --- --- ----- --- ---- ---- ------- ----- ---- -------<br>--- --- -- ----- -- --- ---- -- --- even -- ------ ------<br>--- ----- -- ----,133944.53999999678,133939.5399999994,133573.035,133572.9300000021,133589.701,133956.353,,48,even
screen,html.Screen,1_1_0_1_49,2021-03-27T17:29:51.681Z,,,,,,,,,,,,,,,,53,,,,,,,,,,,,,,288.20699999917997,response,,,,99,,,,,,Space,keypress(Space),,,,,,,,---- -- ----- -- ------ - ------- --- ----------<br>------------- ------ ------ ---- ---- ------- ----- -- ----<br>-------- ------- -- ---------- --- - --- ----- ----- ----<br>---- --- --- ----- --- ---- ---- ------- ----- ---- -------<br>--- --- -- ----- -- --- ---- -- --- ---- if ------ ------<br>--- ----- -- ----,134248.63000000187,134244.55999999918,133939.687,133944.66000000102,133956.353,134256.341,,49,if
screen,html.Screen,1_1_0_1_50,2021-03-27T17:29:52.002Z,,,,,,,,,,,,,,,,53,,,,,,,,,,,,,,309.08900000239373,response,,,,99,,,,,,Space,keypress(Space),,,,,,,,---- -- ----- -- ------ - ------- --- ----------<br>------------- ------ ------ ---- ---- ------- ----- -- ----<br>-------- ------- -- ---------- --- - --- ----- ----- ----<br>---- --- --- ----- --- ---- ---- ------- ----- ---- -------<br>--- --- -- ----- -- --- ---- -- --- ---- -- that's ------<br>--- ----- -- ----,134569.7300000029,134565.43000000238,134239.675,134248.72999999934,134256.341,134572.995,,50,that's
screen,html.Screen,1_1_0_1_51,2021-03-27T17:29:52.378Z,,,,,,,,,,,,,,,,53,,,,,,,,,,,,,,368.4700000035227,response,,,,99,,,,,,Space,keypress(Space),,,,,,,,---- -- ----- -- ------ - ------- --- ----------<br>------------- ------ ------ ---- ---- ------- ----- -- ----<br>-------- ------- -- ---------- --- - --- ----- ----- ----<br>---- --- --- ----- --- ---- ---- ------- ----- ---- -------<br>--- --- -- ----- -- --- ---- -- --- ---- -- ------ really<br>--- ----- -- ----,134945.80500000302,134941.46500000352,134556.329,134569.83000000037,134572.995,134956.313,,51,really
screen,html.Screen,1_1_0_1_52,2021-03-27T17:29:52.728Z,,,,,,,,,,,,,,,,53,,,,,,,,,,,,,,335.04700000290177,response,,,,99,,,,,,Space,keypress(Space),,,,,,,,---- -- ----- -- ------ - ------- --- ----------<br>------------- ------ ------ ---- ---- ------- ----- -- ----<br>-------- ------- -- ---------- --- - --- ----- ----- ----<br>---- --- --- ----- --- ---- ---- ------- ----- ---- -------<br>--- --- -- ----- -- --- ---- -- --- ---- -- ------ ------<br>not ----- -- ----,135295.7499999975,135291.3600000029,134939.647,134946.86999999976,134956.313,135306.299,,52,not
screen,html.Screen,1_1_0_1_53,2021-03-27T17:29:53.083Z,,,,,,,,,,,,,,,,53,,,,,,,,,,,,,,340.1009999978123,response,,,,99,,,,,,Space,keypress(Space),,,,,,,,---- -- ----- -- ------ - ------- --- ----------<br>------------- ------ ------ ---- ---- ------- ----- -- ----<br>-------- ------- -- ---------- --- - --- ----- ----- ----<br>---- --- --- ----- --- ---- ---- ------- ----- ---- -------<br>--- --- -- ----- -- --- ---- -- --- ---- -- ------ ------<br>--- close -- ----,135651.0249999992,135646.3999999978,135289.633,135295.88499999954,135306.299,135656.285,,53,close
screen,html.Screen,1_1_0_1_54,2021-03-27T17:29:53.409Z,,,,,,,,,,,,,,,,53,,,,,,,,,,,,,,316.1050000026298,response,,,,99,,,,,,Space,keypress(Space),,,,,,,,---- -- ----- -- ------ - ------- --- ----------<br>------------- ------ ------ ---- ---- ------- ----- -- ----<br>-------- ------- -- ---------- --- - --- ----- ----- ----<br>---- --- --- ----- --- ---- ---- ------- ----- ---- -------<br>--- --- -- ----- -- --- ---- -- --- ---- -- ------ ------<br>--- ----- at ----,135976.61499999958,135972.39000000263,135639.619,135651.14000000176,135656.285,135989.605,,54,at
screen,html.Screen,1_1_0_1_55,2021-03-27T17:29:53.749Z,,,,,,,,,,,,,,,,53,,,,,,,,,,,,,,322.7700000013283,response,,,,99,,,,,,Space,keypress(Space),,,,,,,,---- -- ----- -- ------ - ------- --- ----------<br>------------- ------ ------ ---- ---- ------- ----- -- ----<br>-------- ------- -- ---------- --- - --- ----- ----- ----<br>---- --- --- ----- --- ---- ---- ------- ----- ---- -------<br>--- --- -- ----- -- --- ---- -- --- ---- -- ------ ------<br>--- ----- -- all.,136316.67000000016,136312.37500000134,135972.939,135976.73500000383,135989.605,136322.925,,55,all.
Item 99,flow.Loop,1_1_0_1,2021-03-27T17:29:53.749Z,,,,,,,,,,,,,,,,,,,,,,,,,,,,,,22728.256000001333,completion,,,,,C,,,,,,,,,,silence,,,,,136316.8799999985,136312.37500000134,113567.453,113569.7199999995,113584.119,136322.925,,,
Question 1,html.Screen,1_1_0_2,2021-03-27T17:29:57.707Z,,,,,,,,,,,,,,,,,,,,,,,,,,,false,FALSE,,3950.1250000034343,response,,,,99,C,,,,,TRUE,click #choice-1,,,,silence,,,,,140275.450000001,140273.05000000342,136306.259,136316.98499999766,136322.925,140287.23,,,
Question 2,html.Screen,1_1_0_3,2021-03-27T17:30:02.905Z,,,,,,,,,,,,,,,,,,,,,,,,,,,true,TRUE,,5183.780000001105,response,,,,99,C,,,,,TRUE,click #choice-1,,,,silence,,,,,145473.4150000004,145471.01000000112,140270.564,140275.60500000254,140287.23,145487.022,,,
Item 99,flow.Sequence,1_1_0,2021-03-27T17:30:02.906Z,,,,,,,,,,,,,,,,,,,,,,,,,,,,,,38886.61100000111,completion,,,,,,,,,,,,,,,,,,,,145473.61000000092,145471.01000000112,106567.733,106577.64000000316,106584.399,145487.022,,,
Holding screen,html.Screen,1_1_1_0,2021-03-27T17:30:09.897Z,,,,,,,,,,,,,,,,,,,,,,,,,,,,,,6992.236999999994,timeout,,,,,,,,,,,,,,,,,,,,152464.61999999883,152462.593,145470.356,145473.74000000127,145487.022,152479.259,,,
screen,html.Screen,1_1_1_1_0,2021-03-27T17:30:10.530Z,,,,,,,,,,,,,,,,54,,,,,,,,,,,,,,614.0159999992757,response,,,,100,,,,,,Space,keypress(Space),,,,,,,,At --- ---- --- ------ ----- ------- ---- -- --- ------- --<br>------- ---------- ------ -- ----- -- ----- -- ---- ------<br>--- ----- --- --- ------ -------- ----- --- ------ ----- --<br>----- ----- ---------- --- --- ------ ------ ---- -- ------<br>------- --- ------ ----- --- ---- ------- -- ---- --- --<br>------- ------,153098.4099999987,153093.27499999927,152462.593,152464.84000000055,152479.259,153112.567,,0,At
screen,html.Screen,1_1_1_1_1,2021-03-27T17:30:10.969Z,,,,,,,,,,,,,,,,54,,,,,,,,,,,,,,420.24299999696086,response,,,,100,,,,,,Space,keypress(Space),,,,,,,,-- the ---- --- ------ ----- ------- ---- -- --- ------- --<br>------- ---------- ------ -- ----- -- ----- -- ---- ------<br>--- ----- --- --- ------ -------- ----- --- ------ ----- --<br>----- ----- ---------- --- --- ------ ------ ---- -- ------<br>------- --- ------ ----- --- ---- ------- -- ---- --- --<br>------- ------,153537.304999998,153532.80999999697,153095.901,153098.52500000125,153112.567,153545.883,,1,the
screen,html.Screen,1_1_1_1_2,2021-03-27T17:30:11.257Z,,,,,,,,,,,,,,,,54,,,,,,,,,,,,,,274.9020000035234,response,,,,100,,,,,,Space,keypress(Space),,,,,,,,-- --- time --- ------ ----- ------- ---- -- --- ------- --<br>------- ---------- ------ -- ----- -- ----- -- ---- ------<br>--- ----- --- --- ------ -------- ----- --- ------ ----- --<br>----- ----- ---------- --- --- ------ ------ ---- -- ------<br>------- --- ------ ----- --- ---- ------- -- ---- --- --<br>------- ------,153825.38999999815,153820.78500000353,153529.217,153537.42000000057,153545.883,153829.205,,2,time
screen,html.Screen,1_1_1_1_3,2021-03-27T17:30:11.457Z,,,,,,,,,,,,,,,,54,,,,,,,,,,,,,,191.63499999741907,response,,,,100,,,,,,Space,keypress(Space),,,,,,,,-- --- ---- the ------ ----- ------- ---- -- --- ------- --<br>------- ---------- ------ -- ----- -- ----- -- ---- ------<br>--- ----- --- --- ------ -------- ----- --- ------ ----- --<br>----- ----- ---------- --- --- ------ ------ ---- -- ------<br>------- --- ------ ----- --- ---- ------- -- ---- --- --<br>------- ------,154025.28500000335,154020.8399999974,153812.539,153825.5050000007,153829.205,154029.197,,3,the
screen,html.Screen,1_1_1_1_4,2021-03-27T17:30:11.685Z,,,,,,,,,,,,,,,,54,,,,,,,,,,,,,,219.73800000327174,response,,,,100,,,,,,Space,keypress(Space),,,,,,,,-- --- ---- --- French ----- ------- ---- -- --- ------- --<br>------- ---------- ------ -- ----- -- ----- -- ---- ------<br>--- ----- --- --- ------ -------- ----- --- ------ ----- --<br>----- ----- ---------- --- --- ------ ------ ---- -- ------<br>------- --- ------ ----- --- ---- ------- -- ---- --- --<br>------- ------,154253.1900000031,154248.93500000326,154012.531,154025.39999999863,154029.197,154262.521,,4,French
screen,html.Screen,1_1_1_1_5,2021-03-27T17:30:12.041Z,,,,,,,,,,,,,,,,54,,,,,,,,,,,,,,341.32899999950314,response,,,,100,,,,,,Space,keypress(Space),,,,,,,,-- --- ---- --- ------ crown ------- ---- -- --- ------- --<br>------- ---------- ------ -- ----- -- ----- -- ---- ------<br>--- ----- --- --- ------ -------- ----- --- ------ ----- --<br>----- ----- ---------- --- --- ------ ------ ---- -- ------<br>------- --- ------ ----- --- ---- ------- -- ---- --- --<br>------- ------,154608.62500000076,154603.8499999995,154245.855,154253.33500000124,154262.521,154612.507,,5,crown
screen,html.Screen,1_1_1_1_6,2021-03-27T17:30:12.641Z,,,,,,,,,,,,,,,,54,,,,,,,,,,,,,,592.3480000035779,response,,,,100,,,,,,Space,keypress(Space),,,,,,,,-- --- ---- --- ------ ----- secured ---- -- --- ------- --<br>------- ---------- ------ -- ----- -- ----- -- ---- ------<br>--- ----- --- --- ------ -------- ----- --- ------ ----- --<br>----- ----- ---------- --- --- ------ ------ ---- -- ------<br>------- --- ------ ----- --- ---- ------- -- ---- --- --<br>------- ------,155209.1900000014,155204.8550000036,154595.841,154608.7400000033,154612.507,155212.483,,6,secured
screen,html.Screen,1_1_1_1_7,2021-03-27T17:30:13.212Z,,,,,,,,,,,,,,,,54,,,,,,,,,,,,,,563.3620000037481,response,,,,100,,,,,,Space,keypress(Space),,,,,,,,-- --- ---- --- ------ ----- ------- much -- --- ------- --<br>------- ---------- ------ -- ----- -- ----- -- ---- ------<br>--- ----- --- --- ------ -------- ----- --- ------ ----- --<br>----- ----- ---------- --- --- ------ ------ ---- -- ------<br>------- --- ------ ----- --- ---- ------- -- ---- --- --<br>------- ------,155780.49499999906,155775.84500000376,155195.817,155209.30000000226,155212.483,155795.793,,7,much
screen,html.Screen,1_1_1_1_8,2021-03-27T17:30:13.636Z,,,,,,,,,,,,,,,,54,,,,,,,,,,,,,,403.8370000027935,response,,,,100,,,,,,Space,keypress(Space),,,,,,,,-- --- ---- --- ------ ----- ------- ---- of --- ------- --<br>------- ---------- ------ -- ----- -- ----- -- ---- ------<br>--- ----- --- --- ------ -------- ----- --- ------ ----- --<br>----- ----- ---------- --- --- ------ ------ ---- -- ------<br>------- --- ------ ----- --- ---- ------- -- ---- --- --<br>------- ------,156203.82000000245,156199.6300000028,155779.127,155780.60499999992,155795.793,156212.443,,8,of
screen,html.Screen,1_1_1_1_9,2021-03-27T17:30:13.999Z,,,,,,,,,,,,,,,,54,,,,,,,,,,,,,,350.17699999696924,response,,,,100,,,,,,Space,keypress(Space),,,,,,,,-- --- ---- --- ------ ----- ------- ---- -- its ------- --<br>------- ---------- ------ -- ----- -- ----- -- ---- ------<br>--- ----- --- --- ------ -------- ----- --- ------ ----- --<br>----- ----- ---------- --- --- ------ ------ ---- -- ------<br>------- --- ------ ----- --- ---- ------- -- ---- --- --<br>------- ------,156567.1650000004,156562.61999999697,156195.777,156203.93499999773,156212.443,156579.095,,9,its
screen,html.Screen,1_1_1_1_10,2021-03-27T17:30:14.315Z,,,,,,,,,,,,,,,,54,,,,,,,,,,,,,,299.5650000021269,response,,,,100,,,,,,Space,keypress(Space),,,,,,,,-- --- ---- --- ------ ----- ------- ---- -- --- revenue --<br>------- ---------- ------ -- ----- -- ----- -- ---- ------<br>--- ----- --- --- ------ -------- ----- --- ------ ----- --<br>----- ----- ---------- --- --- ------ ------ ---- -- ------<br>------- --- ------ ----- --- ---- ------- -- ---- --- --<br>------- ------,156882.96999999875,156878.66000000213,156562.429,156567.82499999827,156579.095,156895.749,,10,revenue
screen,html.Screen,1_1_1_1_11,2021-03-27T17:30:14.935Z,,,,,,,,,,,,,,,,54,,,,,,,,,,,,,,602.8160000016796,response,,,,100,,,,,,Space,keypress(Space),,,,,,,,-- --- ---- --- ------ ----- ------- ---- -- --- ------- by<br>------- ---------- ------ -- ----- -- ----- -- ---- ------<br>--- ----- --- --- ------ -------- ----- --- ------ ----- --<br>----- ----- ---------- --- --- ------ ------ ---- -- ------<br>------- --- ------ ----- --- ---- ------- -- ---- --- --<br>------- ------,157503.04499999766,157498.5650000017,156879.083,156883.1199999986,156895.749,157512.391,,11,by
screen,html.Screen,1_1_1_1_12,2021-03-27T17:30:15.372Z,,,,,,,,,,,,,,,,54,,,,,,,,,,,,,,423.2339999982505,response,,,,100,,,,,,Space,keypress(Space),,,,,,,,-- --- ---- --- ------ ----- ------- ---- -- --- ------- --<br>issuing ---------- ------ -- ----- -- ----- -- ---- ------<br>--- ----- --- --- ------ -------- ----- --- ------ ----- --<br>----- ----- ---------- --- --- ------ ------ ---- -- ------<br>------- --- ------ ----- --- ---- ------- -- ---- --- --<br>------- ------,157939.96999999945,157935.62499999825,157495.725,157503.1400000007,157512.391,157945.707,,12,issuing
screen,html.Screen,1_1_1_1_13,2021-03-27T17:30:15.743Z,,,,,,,,,,,,,,,,54,,,,,,,,,,,,,,360.8930000035325,response,,,,100,,,,,,Space,keypress(Space),,,,,,,,-- --- ---- --- ------ ----- ------- ---- -- --- ------- --<br>------- government ------ -- ----- -- ----- -- ---- ------<br>--- ----- --- --- ------ -------- ----- --- ------ ----- --<br>----- ----- ---------- --- --- ------ ------ ---- -- ------<br>------- --- ------ ----- --- ---- ------- -- ---- --- --<br>------- ------,158310.94999999914,158306.60000000353,157929.041,157940.0800000003,157945.707,158311.513,,13,government
screen,html.Screen,1_1_1_1_14,2021-03-27T17:30:16.125Z,,,,,,,,,,,,,,,,54,,,,,,,,,,,,,,377.1819999970903,response,,,,100,,,,,,Space,keypress(Space),,,,,,,,-- --- ---- --- ------ ----- ------- ---- -- --- ------- --<br>------- ---------- bonds. -- ----- -- ----- -- ---- ------<br>--- ----- --- --- ------ -------- ----- --- ------ ----- --<br>----- ----- ---------- --- --- ------ ------ ---- -- ------<br>------- --- ------ ----- --- ---- ------- -- ---- --- --<br>------- ------,158692.9999999993,158688.6949999971,158294.847,158311.0650000017,158311.513,158694.831,,14,bonds.
screen,html.Screen,1_1_1_1_15,2021-03-27T17:30:16.636Z,,,,,,,,,,,,,,,,54,,,,,,,,,,,,,,504.80899999890244,response,,,,100,,,,,,Space,keypress(Space),,,,,,,,-- --- ---- --- ------ ----- ------- ---- -- --- ------- --<br>------- ---------- ------ In ----- -- ----- -- ---- ------<br>--- ----- --- --- ------ -------- ----- --- ------ ----- --<br>----- ----- ---------- --- --- ------ ------ ---- -- ------<br>------- --- ------ ----- --- ---- ------- -- ---- --- --<br>------- ------,159204.18999999674,159199.6399999989,158678.165,158693.09000000067,158694.831,159211.477,,15,In
screen,html.Screen,1_1_1_1_16,2021-03-27T17:30:17.003Z,,,,,,,,,,,,,,,,54,,,,,,,,,,,,,,355.1679999989574,response,,,,100,,,,,,Space,keypress(Space),,,,,,,,"-- --- ---- --- ------ ----- ------- ---- -- --- ------- --<br>------- ---------- ------ -- 1727, -- ----- -- ---- ------<br>--- ----- --- --- ------ -------- ----- --- ------ ----- --<br>----- ----- ---------- --- --- ------ ------ ---- -- ------<br>------- --- ------ ----- --- ---- ------- -- ---- --- --<br>------- ------",159571.1599999995,159566.64499999897,159194.811,159204.3049999993,159211.477,159578.129,,16,"1727,"
screen,html.Screen,1_1_1_1_17,2021-03-27T17:30:17.764Z,,,,,,,,,,,,,,,,54,,,,,,,,,,,,,,749.3509999999369,response,,,,100,,,,,,Space,keypress(Space),,,,,,,,-- --- ---- --- ------ ----- ------- ---- -- --- ------- --<br>------- ---------- ------ -- ----- in ----- -- ---- ------<br>--- ----- --- --- ------ -------- ----- --- ------ ----- --<br>----- ----- ---------- --- --- ------ ------ ---- -- ------<br>------- --- ------ ----- --- ---- ------- -- ---- --- --<br>------- ------,160331.78000000044,160327.47999999992,159561.463,159571.27000000037,159578.129,160344.765,,17,in
screen,html.Screen,1_1_1_1_18,2021-03-27T17:30:18.455Z,,,,,,,,,,,,,,,,54,,,,,,,,,,,,,,673.9249999971362,response,,,,100,,,,,,Space,keypress(Space),,,,,,,,-- --- ---- --- ------ ----- ------- ---- -- --- ------- --<br>------- ---------- ------ -- ----- -- order -- ---- ------<br>--- ----- --- --- ------ -------- ----- --- ------ ----- --<br>----- ----- ---------- --- --- ------ ------ ---- -- ------<br>------- --- ------ ----- --- ---- ------- -- ---- --- --<br>------- ------,161023.37499999703,161018.68999999715,160328.099,160331.8700000018,160344.765,161028.071,,18,order
screen,html.Screen,1_1_1_1_19,2021-03-27T17:30:18.861Z,,,,,,,,,,,,,,,,54,,,,,,,,,,,,,,396.61899999983143,response,,,,100,,,,,,Space,keypress(Space),,,,,,,,-- --- ---- --- ------ ----- ------- ---- -- --- ------- --<br>------- ---------- ------ -- ----- -- ----- to ---- ------<br>--- ----- --- --- ------ -------- ----- --- ------ ----- --<br>----- ----- ---------- --- --- ------ ------ ---- -- ------<br>------- --- ------ ----- --- ---- ------- -- ---- --- --<br>------- ------,161429.1050000029,161424.68999999983,161011.405,161023.48999999958,161028.071,161444.721,,19,to
screen,html.Screen,1_1_1_1_20,2021-03-27T17:30:19.214Z,,,,,,,,,,,,,,,,54,,,,,,,,,,,,,,332.69899999853806,response,,,,100,,,,,,Space,keypress(Space),,,,,,,,-- --- ---- --- ------ ----- ------- ---- -- --- ------- --<br>------- ---------- ------ -- ----- -- ----- -- save ------<br>--- ----- --- --- ------ -------- ----- --- ------ ----- --<br>----- ----- ---------- --- --- ------ ------ ---- -- ------<br>------- --- ------ ----- --- ---- ------- -- ---- --- --<br>------- ------,161781.88999999838,161777.41999999853,161428.055,161429.21500000375,161444.721,161794.707,,20,save
screen,html.Screen,1_1_1_1_21,2021-03-27T17:30:19.597Z,,,,,,,,,,,,,,,,54,,,,,,,,,,,,,,366.14300000021467,response,,,,100,,,,,,Space,keypress(Space),,,,,,,,"-- --- ---- --- ------ ----- ------- ---- -- --- ------- --<br>------- ---------- ------ -- ----- -- ----- -- ---- money,<br>--- ----- --- --- ------ -------- ----- --- ------ ----- --<br>----- ----- ---------- --- --- ------ ------ ---- -- ------<br>------- --- ------ ----- --- ---- ------- -- ---- --- --<br>------- ------",162165.2150000009,162160.8500000002,161778.041,161782.00500000094,161794.707,162178.025,,21,"money,"
screen,html.Screen,1_1_1_1_22,2021-03-27T17:30:20.021Z,,,,,,,,,,,,,,,,54,,,,,,,,,,,,,,405.4699999989534,response,,,,100,,,,,,Space,keypress(Space),,,,,,,,-- --- ---- --- ------ ----- ------- ---- -- --- ------- --<br>------- ---------- ------ -- ----- -- ----- -- ---- ------<br>the ----- --- --- ------ -------- ----- --- ------ ----- --<br>----- ----- ---------- --- --- ------ ------ ---- -- ------<br>------- --- ------ ----- --- ---- ------- -- ---- --- --<br>------- ------,162588.66999999736,162583.49499999895,162161.359,162165.33499999787,162178.025,162594.675,,22,the
screen,html.Screen,1_1_1_1_23,2021-03-27T17:30:20.427Z,,,,,,,,,,,,,,,,54,,,,,,,,,,,,,,395.94000000244705,response,,,,100,,,,,,Space,keypress(Space),,,,,,,,-- --- ---- --- ------ ----- ------- ---- -- --- ------- --<br>------- ---------- ------ -- ----- -- ----- -- ---- ------<br>--- state --- --- ------ -------- ----- --- ------ ----- --<br>----- ----- ---------- --- --- ------ ------ ---- -- ------<br>------- --- ------ ----- --- ---- ------- -- ---- --- --<br>------- ------,162995.24000000383,162990.61500000244,162578.009,162588.78499999992,162594.675,163011.325,,23,state
screen,html.Screen,1_1_1_1_24,2021-03-27T17:30:20.754Z,,,,,,,,,,,,,,,,54,,,,,,,,,,,,,,306.1799999990617,response,,,,100,,,,,,Space,keypress(Space),,,,,,,,-- --- ---- --- ------ ----- ------- ---- -- --- ------- --<br>------- ---------- ------ -- ----- -- ----- -- ---- ------<br>--- ----- cut --- ------ -------- ----- --- ------ ----- --<br>----- ----- ---------- --- --- ------ ------ ---- -- ------<br>------- --- ------ ----- --- ---- ------- -- ---- --- --<br>------- ------,163322.11999999708,163317.50499999907,162994.659,162995.3549999991,163011.325,163327.979,,24,cut
screen,html.Screen,1_1_1_1_25,2021-03-27T17:30:21.052Z,,,,,,,,,,,,,,,,54,,,,,,,,,,,,,,288.48099999746773,response,,,,100,,,,,,Space,keypress(Space),,,,,,,,-- --- ---- --- ------ ----- ------- ---- -- --- ------- --<br>------- ---------- ------ -- ----- -- ----- -- ---- ------<br>--- ----- --- the ------ -------- ----- --- ------ ----- --<br>----- ----- ---------- --- --- ------ ------ ---- -- ------<br>------- --- ------ ----- --- ---- ------- -- ---- --- --<br>------- ------,163620.6850000017,163616.45999999746,163311.313,163322.21500000014,163327.979,163627.967,,25,the
screen,html.Screen,1_1_1_1_26,2021-03-27T17:30:21.391Z,,,,,,,,,,,,,,,,54,,,,,,,,,,,,,,326.50799999863375,response,,,,100,,,,,,Space,keypress(Space),,,,,,,,-- --- ---- --- ------ ----- ------- ---- -- --- ------- --<br>------- ---------- ------ -- ----- -- ----- -- ---- ------<br>--- ----- --- --- bonds' -------- ----- --- ------ ----- --<br>----- ----- ---------- --- --- ------ ------ ---- -- ------<br>------- --- ------ ----- --- ---- ------- -- ---- --- --<br>------- ------,163958.8900000017,163954.47499999864,163611.301,163620.77500000305,163627.967,163961.287,,26,bonds'
screen,html.Screen,1_1_1_1_27,2021-03-27T17:30:21.843Z,,,,,,,,,,,,,,,,54,,,,,,,,,,,,,,445.1880000033998,response,,,,100,,,,,,Space,keypress(Space),,,,,,,,-- --- ---- --- ------ ----- ------- ---- -- --- ------- --<br>------- ---------- ------ -- ----- -- ----- -- ---- ------<br>--- ----- --- --- ------ interest ----- --- ------ ----- --<br>----- ----- ---------- --- --- ------ ------ ---- -- ------<br>------- --- ------ ----- --- ---- ------- -- ---- --- --<br>------- ------,164411.03000000294,164406.4750000034,163944.621,163959.00000000256,163961.287,164427.935,,27,interest
screen,html.Screen,1_1_1_1_28,2021-03-27T17:30:22.228Z,,,,,,,,,,,,,,,,54,,,,,,,,,,,,,,363.4999999991851,response,,,,100,,,,,,Space,keypress(Space),,,,,,,,-- --- ---- --- ------ ----- ------- ---- -- --- ------- --<br>------- ---------- ------ -- ----- -- ----- -- ---- ------<br>--- ----- --- --- ------ -------- rate. --- ------ ----- --<br>----- ----- ---------- --- --- ------ ------ ---- -- ------<br>------- --- ------ ----- --- ---- ------- -- ---- --- --<br>------- ------,164795.7000000024,164791.43499999918,164411.269,164411.1449999982,164427.935,164811.253,,28,rate.
screen,html.Screen,1_1_1_1_29,2021-03-27T17:30:22.833Z,,,,,,,,,,,,,,,,54,,,,,,,,,,,,,,586.116999998776,response,,,,100,,,,,,Space,keypress(Space),,,,,,,,-- --- ---- --- ------ ----- ------- ---- -- --- ------- --<br>------- ---------- ------ -- ----- -- ----- -- ---- ------<br>--- ----- --- --- ------ -------- ----- The ------ ----- --<br>----- ----- ---------- --- --- ------ ------ ---- -- ------<br>------- --- ------ ----- --- ---- ------- -- ---- --- --<br>------- ------,165401.6199999969,165397.36999999877,164794.587,164795.81499999767,164811.253,165411.229,,29,The
screen,html.Screen,1_1_1_1_30,2021-03-27T17:30:23.218Z,,,,,,,,,,,,,,,,54,,,,,,,,,,,,,,370.3310000030906,response,,,,100,,,,,,Space,keypress(Space),,,,,,,,-- --- ---- --- ------ ----- ------- ---- -- --- ------- --<br>------- ---------- ------ -- ----- -- ----- -- ---- ------<br>--- ----- --- --- ------ -------- ----- --- market ----- --<br>----- ----- ---------- --- --- ------ ------ ---- -- ------<br>------- --- ------ ----- --- ---- ------- -- ---- --- --<br>------- ------,165785.94000000157,165781.56000000308,165394.563,165401.71499999997,165411.229,165794.547,,30,market
screen,html.Screen,1_1_1_1_31,2021-03-27T17:30:23.577Z,,,,,,,,,,,,,,,,54,,,,,,,,,,,,,,345.98299999695155,response,,,,100,,,,,,Space,keypress(Space),,,,,,,,-- --- ---- --- ------ ----- ------- ---- -- --- ------- --<br>------- ---------- ------ -- ----- -- ----- -- ---- ------<br>--- ----- --- --- ------ -------- ----- --- ------ value --<br>----- ----- ---------- --- --- ------ ------ ---- -- ------<br>------- --- ------ ----- --- ---- ------- -- ---- --- --<br>------- ------,166144.77500000066,166140.52999999694,165777.881,165786.05499999685,165794.547,166161.199,,31,value
screen,html.Screen,1_1_1_1_32,2021-03-27T17:30:24.027Z,,,,,,,,,,,,,,,,54,,,,,,,,,,,,,,431.02099999864004,response,,,,100,,,,,,Space,keypress(Space),,,,,,,,-- --- ---- --- ------ ----- ------- ---- -- --- ------- --<br>------- ---------- ------ -- ----- -- ----- -- ---- ------<br>--- ----- --- --- ------ -------- ----- --- ------ ----- of<br>----- ----- ---------- --- --- ------ ------ ---- -- ------<br>------- --- ------ ----- --- ---- ------- -- ---- --- --<br>------- ------,166595.2099999995,166592.21999999863,166144.533,166144.89499999763,166161.199,166611.181,,32,of
screen,html.Screen,1_1_1_1_33,2021-03-27T17:30:24.490Z,,,,,,,,,,,,,,,,54,,,,,,,,,,,,,,442.29900000229827,response,,,,100,,,,,,Space,keypress(Space),,,,,,,,-- --- ---- --- ------ ----- ------- ---- -- --- ------- --<br>------- ---------- ------ -- ----- -- ----- -- ---- ------<br>--- ----- --- --- ------ -------- ----- --- ------ ----- --<br>these ----- ---------- --- --- ------ ------ ---- -- ------<br>------- --- ------ ----- --- ---- ------- -- ---- --- --<br>------- ------,167057.78000000282,167053.4800000023,166594.515,166595.30500000255,166611.181,167061.163,,33,these
screen,html.Screen,1_1_1_1_34,2021-03-27T17:30:24.820Z,,,,,,,,,,,,,,,,54,,,,,,,,,,,,,,322.23699999880046,response,,,,100,,,,,,Space,keypress(Space),,,,,,,,-- --- ---- --- ------ ----- ------- ---- -- --- ------- --<br>------- ---------- ------ -- ----- -- ----- -- ---- ------<br>--- ----- --- --- ------ -------- ----- --- ------ ----- --<br>----- bonds ---------- --- --- ------ ------ ---- -- ------<br>------- --- ------ ----- --- ---- ------- -- ---- --- --<br>------- ------,167388.05500000308,167383.3999999988,167044.497,167057.8699999969,167061.163,167394.483,,34,bonds
screen,html.Screen,1_1_1_1_35,2021-03-27T17:30:25.220Z,,,,,,,,,,,,,,,,54,,,,,,,,,,,,,,388.9069999968633,response,,,,100,,,,,,Space,keypress(Space),,,,,,,,"-- --- ---- --- ------ ----- ------- ---- -- --- ------- --<br>------- ---------- ------ -- ----- -- ----- -- ---- ------<br>--- ----- --- --- ------ -------- ----- --- ------ ----- --<br>----- ----- plummeted, --- --- ------ ------ ---- -- ------<br>------- --- ------ ----- --- ---- ------- -- ---- --- --<br>------- ------",167787.79500000383,167783.38999999687,167377.817,167388.16999999835,167394.483,167794.467,,35,"plummeted,"
screen,html.Screen,1_1_1_1_36,2021-03-27T17:30:25.655Z,,,,,,,,,,,,,,,,54,,,,,,,,,,,,,,424.9029999988852,response,,,,100,,,,,,Space,keypress(Space),,,,,,,,-- --- ---- --- ------ ----- ------- ---- -- --- ------- --<br>------- ---------- ------ -- ----- -- ----- -- ---- ------<br>--- ----- --- --- ------ -------- ----- --- ------ ----- --<br>----- ----- ---------- and --- ------ ------ ---- -- ------<br>------- --- ------ ----- --- ---- ------- -- ---- --- --<br>------- ------,168223.55000000243,168219.3699999989,167777.801,167788.45,167794.467,168227.783,,36,and
screen,html.Screen,1_1_1_1_37,2021-03-27T17:30:25.975Z,,,,,,,,,,,,,,,,54,,,,,,,,,,,,,,310.5820000003441,response,,,,100,,,,,,Space,keypress(Space),,,,,,,,-- --- ---- --- ------ ----- ------- ---- -- --- ------- --<br>------- ---------- ------ -- ----- -- ----- -- ---- ------<br>--- ----- --- --- ------ -------- ----- --- ------ ----- --<br>----- ----- ---------- --- the ------ ------ ---- -- ------<br>------- --- ------ ----- --- ---- ------- -- ---- --- --<br>------- ------,168542.97000000224,168538.36500000034,168211.117,168223.6449999982,168227.783,168545.611,,37,the
screen,html.Screen,1_1_1_1_38,2021-03-27T17:30:26.264Z,,,,,,,,,,,,,,,,54,,,,,,,,,,,,,,282.6989999971411,response,,,,100,,,,,,Space,keypress(Space),,,,,,,,-- --- ---- --- ------ ----- ------- ---- -- --- ------- --<br>------- ---------- ------ -- ----- -- ----- -- ---- ------<br>--- ----- --- --- ------ -------- ----- --- ------ ----- --<br>----- ----- ---------- --- --- market ------ ---- -- ------<br>------- --- ------ ----- --- ---- ------- -- ---- --- --<br>------- ------,168832.4900000007,168828.30999999715,168528.945,168543.0800000031,168545.611,168845.599,,38,market
screen,html.Screen,1_1_1_1_39,2021-03-27T17:30:26.598Z,,,,,,,,,,,,,,,,54,,,,,,,,,,,,,,316.73099999921396,response,,,,100,,,,,,Space,keypress(Space),,,,,,,,-- --- ---- --- ------ ----- ------- ---- -- --- ------- --<br>------- ---------- ------ -- ----- -- ----- -- ---- ------<br>--- ----- --- --- ------ -------- ----- --- ------ ----- --<br>----- ----- ---------- --- --- ------ became ---- -- ------<br>------- --- ------ ----- --- ---- ------- -- ---- --- --<br>------- ------,169166.47000000376,169162.3299999992,168828.933,168832.58000000205,168845.599,169178.919,,39,became
screen,html.Screen,1_1_1_1_40,2021-03-27T17:30:26.977Z,,,,,,,,,,,,,,,,54,,,,,,,,,,,,,,362.4059999983292,response,,,,100,,,,,,Space,keypress(Space),,,,,,,,-- --- ---- --- ------ ----- ------- ---- -- --- ------- --<br>------- ---------- ------ -- ----- -- ----- -- ---- ------<br>--- ----- --- --- ------ -------- ----- --- ------ ----- --<br>----- ----- ---------- --- --- ------ ------ wary -- ------<br>------- --- ------ ----- --- ---- ------- -- ---- --- --<br>------- ------,169545.51999999967,169541.32499999832,169162.253,169166.55999999784,169178.919,169562.237,,40,wary
screen,html.Screen,1_1_1_1_41,2021-03-27T17:30:27.375Z,,,,,,,,,,,,,,,,54,,,,,,,,,,,,,,376.01800000094227,response,,,,100,,,,,,Space,keypress(Space),,,,,,,,-- --- ---- --- ------ ----- ------- ---- -- --- ------- --<br>------- ---------- ------ -- ----- -- ----- -- ---- ------<br>--- ----- --- --- ------ -------- ----- --- ------ ----- --<br>----- ----- ---------- --- --- ------ ------ ---- of ------<br>------- --- ------ ----- --- ---- ------- -- ---- --- --<br>------- ------,169942.77999999758,169938.25500000094,169545.571,169545.61500000273,169562.237,169945.555,,41,of
screen,html.Screen,1_1_1_1_42,2021-03-27T17:30:27.701Z,,,,,,,,,,,,,,,,54,,,,,,,,,,,,,,318.89000000071246,response,,,,100,,,,,,Space,keypress(Space),,,,,,,,-- --- ---- --- ------ ----- ------- ---- -- --- ------- --<br>------- ---------- ------ -- ----- -- ----- -- ---- ------<br>--- ----- --- --- ------ -------- ----- --- ------ ----- --<br>----- ----- ---------- --- --- ------ ------ ---- -- French<br>------- --- ------ ----- --- ---- ------- -- ---- --- --<br>------- ------,170268.75499999733,170264.4450000007,169928.889,169942.89500000014,169945.555,170278.875,,42,French
screen,html.Screen,1_1_1_1_43,2021-03-27T17:30:28.168Z,,,,,,,,,,,,,,,,54,,,,,,,,,,,,,,453.4349999994156,response,,,,100,,,,,,Space,keypress(Space),,,,,,,,-- --- ---- --- ------ ----- ------- ---- -- --- ------- --<br>------- ---------- ------ -- ----- -- ----- -- ---- ------<br>--- ----- --- --- ------ -------- ----- --- ------ ----- --<br>----- ----- ---------- --- --- ------ ------ ---- -- ------<br>credit. --- ------ ----- --- ---- ------- -- ---- --- --<br>------- ------,170736.55999999755,170732.30999999942,170262.209,170268.8449999987,170278.875,170745.523,,43,credit.
screen,html.Screen,1_1_1_1_44,2021-03-27T17:30:28.634Z,,,,,,,,,,,,,,,,54,,,,,,,,,,,,,,452.7219999996014,response,,,,100,,,,,,Space,keypress(Space),,,,,,,,-- --- ---- --- ------ ----- ------- ---- -- --- ------- --<br>------- ---------- ------ -- ----- -- ----- -- ---- ------<br>--- ----- --- --- ------ -------- ----- --- ------ ----- --<br>----- ----- ---------- --- --- ------ ------ ---- -- ------<br>------- The ------ ----- --- ---- ------- -- ---- --- --<br>------- ------,171202.5300000023,171198.2449999996,170728.857,170736.6949999996,170745.523,171212.171,,44,The
screen,html.Screen,1_1_1_1_45,2021-03-27T17:30:28.944Z,,,,,,,,,,,,,,,,54,,,,,,,,,,,,,,295.08399999680114,response,,,,100,,,,,,Space,keypress(Space),,,,,,,,-- --- ---- --- ------ ----- ------- ---- -- --- ------- --<br>------- ---------- ------ -- ----- -- ----- -- ---- ------<br>--- ----- --- --- ------ -------- ----- --- ------ ----- --<br>----- ----- ---------- --- --- ------ ------ ---- -- ------<br>------- --- French ----- --- ---- ------- -- ---- --- --<br>------- ------,171512.06500000262,171507.2549999968,171195.505,171202.64499999757,171212.171,171528.825,,45,French
screen,html.Screen,1_1_1_1_46,2021-03-27T17:30:29.276Z,,,,,,,,,,,,,,,,54,,,,,,,,,,,,,,311.4250000010943,response,,,,100,,,,,,Space,keypress(Space),,,,,,,,-- --- ---- --- ------ ----- ------- ---- -- --- ------- --<br>------- ---------- ------ -- ----- -- ----- -- ---- ------<br>--- ----- --- --- ------ -------- ----- --- ------ ----- --<br>----- ----- ---------- --- --- ------ ------ ---- -- ------<br>------- --- ------ state --- ---- ------- -- ---- --- --<br>------- ------,171844.50500000094,171840.2500000011,171512.159,171512.1799999979,171528.825,171845.479,,46,state
screen,html.Screen,1_1_1_1_47,2021-03-27T17:30:29.886Z,,,,,,,,,,,,,,,,54,,,,,,,,,,,,,,604.6160000001546,response,,,,100,,,,,,Space,keypress(Space),,,,,,,,-- --- ---- --- ------ ----- ------- ---- -- --- ------- --<br>------- ---------- ------ -- ----- -- ----- -- ---- ------<br>--- ----- --- --- ------ -------- ----- --- ------ ----- --<br>----- ----- ---------- --- --- ------ ------ ---- -- ------<br>------- --- ------ ----- was ---- ------- -- ---- --- --<br>------- ------,172454.45499999914,172450.09500000015,171828.813,171844.5950000023,171845.479,172462.121,,47,was
screen,html.Screen,1_1_1_1_48,2021-03-27T17:30:30.480Z,,,,,,,,,,,,,,,,54,,,,,,,,,,,,,,582.123999997304,response,,,,100,,,,,,Space,keypress(Space),,,,,,,,-- --- ---- --- ------ ----- ------- ---- -- --- ------- --<br>------- ---------- ------ -- ----- -- ----- -- ---- ------<br>--- ----- --- --- ------ -------- ----- --- ------ ----- --<br>----- ----- ---------- --- --- ------ ------ ---- -- ------<br>------- --- ------ ----- --- left ------- -- ---- --- --<br>------- ------,173048.5400000034,173044.24499999732,172445.455,172454.5500000022,172462.121,173062.097,,48,left
screen,html.Screen,1_1_1_1_49,2021-03-27T17:30:30.860Z,,,,,,,,,,,,,,,,54,,,,,,,,,,,,,,361.1679999976186,response,,,,100,,,,,,Space,keypress(Space),,,,,,,,-- --- ---- --- ------ ----- ------- ---- -- --- ------- --<br>------- ---------- ------ -- ----- -- ----- -- ---- ------<br>--- ----- --- --- ------ -------- ----- --- ------ ----- --<br>----- ----- ---------- --- --- ------ ------ ---- -- ------<br>------- --- ------ ----- --- ---- without -- ---- --- --<br>------- ------,173428.33999999857,173423.26499999763,173045.431,173048.6299999975,173062.097,173445.415,,49,without
screen,html.Screen,1_1_1_1_50,2021-03-27T17:30:31.254Z,,,,,,,,,,,,,,,,54,,,,,,,,,,,,,,371.76499999818043,response,,,,100,,,,,,Space,keypress(Space),,,,,,,,-- --- ---- --- ------ ----- ------- ---- -- --- ------- --<br>------- ---------- ------ -- ----- -- ----- -- ---- ------<br>--- ----- --- --- ------ -------- ----- --- ------ ----- --<br>----- ----- ---------- --- --- ------ ------ ---- -- ------<br>------- --- ------ ----- --- ---- ------- an ---- --- --<br>------- ------,173821.94000000163,173817.1799999982,173428.749,173428.45500000112,173445.415,173828.733,,50,an
screen,html.Screen,1_1_1_1_51,2021-03-27T17:30:31.683Z,,,,,,,,,,,,,,,,54,,,,,,,,,,,,,,417.5370000032708,response,,,,100,,,,,,Space,keypress(Space),,,,,,,,-- --- ---- --- ------ ----- ------- ---- -- --- ------- --<br>------- ---------- ------ -- ----- -- ----- -- ---- ------<br>--- ----- --- --- ------ -------- ----- --- ------ ----- --<br>----- ----- ---------- --- --- ------ ------ ---- -- ------<br>------- --- ------ ----- --- ---- ------- -- easy --- --<br>------- ------,174251.34499999695,174246.27000000328,173812.067,173822.0549999969,173828.733,174262.049,,51,easy
screen,html.Screen,1_1_1_1_52,2021-03-27T17:30:32.068Z,,,,,,,,,,,,,,,,54,,,,,,,,,,,,,,370.11600000271574,response,,,,100,,,,,,Space,keypress(Space),,,,,,,,-- --- ---- --- ------ ----- ------- ---- -- --- ------- --<br>------- ---------- ------ -- ----- -- ----- -- ---- ------<br>--- ----- --- --- ------ -------- ----- --- ------ ----- --<br>----- ----- ---------- --- --- ------ ------ ---- -- ------<br>------- --- ------ ----- --- ---- ------- -- ---- way --<br>------- ------,174636.61500000308,174632.16500000271,174245.383,174251.4549999978,174262.049,174645.367,,52,way
screen,html.Screen,1_1_1_1_53,2021-03-27T17:30:32.458Z,,,,,,,,,,,,,,,,54,,,,,,,,,,,,,,376.85299999892595,response,,,,100,,,,,,Space,keypress(Space),,,,,,,,-- --- ---- --- ------ ----- ------- ---- -- --- ------- --<br>------- ---------- ------ -- ----- -- ----- -- ---- ------<br>--- ----- --- --- ------ -------- ----- --- ------ ----- --<br>----- ----- ---------- --- --- ------ ------ ---- -- ------<br>------- --- ------ ----- --- ---- ------- -- ---- --- of<br>------- ------,175026.55499999673,175022.21999999892,174628.701,174636.73500000004,174645.367,175028.685,,53,of
screen,html.Screen,1_1_1_1_54,2021-03-27T17:30:32.914Z,,,,,,,,,,,,,,,,54,,,,,,,,,,,,,,449.47499999875436,response,,,,100,,,,,,Space,keypress(Space),,,,,,,,-- --- ---- --- ------ ----- ------- ---- -- --- ------- --<br>------- ---------- ------ -- ----- -- ----- -- ---- ------<br>--- ----- --- --- ------ -------- ----- --- ------ ----- --<br>----- ----- ---------- --- --- ------ ------ ---- -- ------<br>------- --- ------ ----- --- ---- ------- -- ---- --- --<br>raising ------,175482.62499999691,175478.15999999875,175012.019,175026.6499999998,175028.685,175495.333,,54,raising
screen,html.Screen,1_1_1_1_55,2021-03-27T17:30:33.304Z,,,,,,,,,,,,,,,,54,,,,,,,,,,,,,,372.902000001719,response,,,,100,,,,,,Space,keypress(Space),,,,,,,,-- --- ---- --- ------ ----- ------- ---- -- --- ------- --<br>------- ---------- ------ -- ----- -- ----- -- ---- ------<br>--- ----- --- --- ------ -------- ----- --- ------ ----- --<br>----- ----- ---------- --- --- ------ ------ ---- -- ------<br>------- --- ------ ----- --- ---- ------- -- ---- --- --<br>------- money.,175872.53999999666,175868.23500000173,175478.667,175482.71499999828,175495.333,175878.651,,55,money.
Item 100,flow.Loop,1_1_1_1,2021-03-27T17:30:33.304Z,,,,,,,,,,,,,,,,,,,,,,,,,,,,,,23388.97600000174,completion,,,,,C,,,,,,,,,,silence,,,,,175872.6999999999,175868.23500000173,152462.593,152464.78999999817,152479.259,175878.651,,,
Question 1,html.Screen,1_1_1_2,2021-03-27T17:30:38.670Z,,,,,,,,,,,,,,,,,,,,,,,,,,,true,TRUE,,5357.044000003021,response,,,,100,C,,,,,TRUE,click #choice-1,,,,silence,,,,,181238.0950000006,181235.69500000303,175861.985,175872.76500000007,175878.651,181244.803,,,
Question 2,html.Screen,1_1_1_3,2021-03-27T17:30:41.532Z,,,,,,,,,,,,,,,,,,,,,,,,,,,true,FALSE,,2852.9270000013057,response,,,,100,C,,,,,FALSE,click #choice-2,,,,silence,,,,,184100.1249999972,184097.73000000132,181228.137,181238.21999999927,181244.803,184111.355,,,
Item 100,flow.Sequence,1_1_1,2021-03-27T17:30:41.532Z,,,,,,,,,,,,,,,,,,,,,,,,,,,,,,38610.70800000132,completion,,,,,,,,,,,,,,,,,,,,184100.3849999979,184097.73000000132,145470.356,145473.7049999967,145487.022,184111.355,,,
End of Practice,html.Page,1_1_2,2021-03-27T17:30:53.529Z,,,,,,,,,,,,,,,,,,,,,,,,,,,,,,11986.06000000381,form submission,,,,,,,,,,,,,,,,,,,,196097.73999999743,196097.41500000382,184094.689,184100.51000000385,184111.355,196110.875,,,
Practice,flow.Sequence,1_1,2021-03-27T17:30:53.529Z,,,,,,,,,,,,,,,,,,,,,,,,,,,,,,89513.01600000382,completion,,,,,,,,,,,,,,,,,,,,196097.92500000185,196097.41500000382,106567.733,106577.61000000028,106584.399,196110.875,,,
Trap_instruction,html.Page,1_2_0,2021-03-27T17:30:57.308Z,,,,,,,,,,,,,,,,,,,,,,,,,,,,,,3765.1299999982584,form submission,,,,,,,,,,,,,,,,,,,,199876.26499999897,199876.00499999826,196094.209,196098.03999999713,196110.875,199888.513,,,
trap_trial,html.Screen,1_2_1,2021-03-27T17:31:01.932Z,,,,,,,,,,,,,,,,,,,,,,,,,,,true,1,,4609.806999998778,response,,,,,,,,,,1,click #choice-1,,,,,,,,,204500.37500000326,204498.31999999878,199871.847,199876.36500000372,199888.513,204521.661,,,
end of trap trial,html.Page,1_2_2,2021-03-27T17:31:05.068Z,,,,,,,,,,,,,,,,,,,,,,,,,,,,,,3114.5890000032086,form submission,,,,,,,,,,,,,,,,,,,,207636.45499999984,207636.2500000032,204504.995,204500.5050000036,204521.661,207643.782,,,
Trap 1,flow.Sequence,1_2,2021-03-27T17:31:05.068Z,,,,,,,,,,,,,,,,,,,,,,,,,,,,,,11525.375000003201,completion,,,,,,,,,,,,,,,,,,,,207636.63000000088,207636.2500000032,196094.209,196098.00499999983,196110.875,207643.782,,,
Holding screen,html.Screen,1_3_0_0,2021-03-27T17:31:12.060Z,,,,,,,,,,,,,,,,,,,,,,,,,,,,,,6999.720000000001,timeout,,,,,,,,,,,,,,,,,,,,214628.42999999702,214626.836,207627.116,207636.77499999903,207643.782,214643.502,,,
screen,html.Screen,1_3_0_1_0,2021-03-27T17:31:14.956Z,,,,,,,,,,,,,,,,48,,,,,,,,,,,,,,2875.868000001792,response,,,,10,C,,,,,Space,keypress(Space),,,,instrumental,,,,As -- --- ------ ------- --------- ----------- --------<br>--------- -------- --- ------- -- ------- ---- -- ------<br>-- --- -------- -------- ---------- ---- ---- ---- ------<br>-- --------- -- ---- -- --- -- --- ------- -- - -----<br>---------- -- -- -- ---- ----- -- ------ -- --- ------<br>-------,217524.68999999837,217519.3700000018,214626.836,214628.64499999705,214643.502,217526.72,,0,As
screen,html.Screen,1_3_0_1_1,2021-03-27T17:31:15.604Z,,,,,,,,,,,,,,,,48,,,,,,,,,,,,,,641.0150000027206,response,,,,10,C,,,,,Space,keypress(Space),,,,instrumental,,,,-- in --- ------ ------- --------- ----------- --------<br>--------- -------- --- ------- -- ------- ---- -- ------<br>-- --- -------- -------- ---------- ---- ---- ---- ------<br>-- --------- -- ---- -- --- -- --- ------- -- - -----<br>---------- -- -- -- ---- ----- -- ------ -- --- ------<br>-------,218172.37000000023,218167.73500000272,217510.054,217524.81999999873,217526.72,218176.694,,1,in
screen,html.Screen,1_3_0_1_2,2021-03-27T17:31:16.025Z,,,,,,,,,,,,,,,,48,,,,,,,,,,,,,,412.24600000146893,response,,,,10,C,,,,,Space,keypress(Space),,,,instrumental,,,,-- -- the ------ ------- --------- ----------- --------<br>--------- -------- --- ------- -- ------- ---- -- ------<br>-- --- -------- -------- ---------- ---- ---- ---- ------<br>-- --------- -- ---- -- --- -- --- ------- -- - -----<br>---------- -- -- -- ---- ----- -- ------ -- --- ------<br>-------,218593.4600000037,218588.94000000146,218160.028,218172.4899999972,218176.694,218606.868,,2,the
screen,html.Screen,1_3_0_1_3,2021-03-27T17:31:16.415Z,,,,,,,,,,,,,,,,48,,,,,,,,,,,,,,372.01699999682023,response,,,,10,C,,,,,Space,keypress(Space),,,,instrumental,,,,-- -- --- United ------- --------- ----------- --------<br>--------- -------- --- ------- -- ------- ---- -- ------<br>-- --- -------- -------- ---------- ---- ---- ---- ------<br>-- --------- -- ---- -- --- -- --- ------- -- - -----<br>---------- -- -- -- ---- ----- -- ------ -- --- ------<br>-------,218983.33499999717,218978.8849999968,218590.202,218593.57499999896,218606.868,218990.186,,3,United
screen,html.Screen,1_3_0_1_4,2021-03-27T17:31:16.814Z,,,,,,,,,,,,,,,,48,,,,,,,,,,,,,,387.79899999918416,response,,,,10,C,,,,,Space,keypress(Space),,,,instrumental,,,,"-- -- --- ------ States, --------- ----------- --------<br>--------- -------- --- ------- -- ------- ---- -- ------<br>-- --- -------- -------- ---------- ---- ---- ---- ------<br>-- --------- -- ---- -- --- -- --- ------- -- - -----<br>---------- -- -- -- ---- ----- -- ------ -- --- ------<br>-------",219382.85000000178,219377.98499999917,218973.52,218983.44999999972,218990.186,219390.17,,4,"States,"
screen,html.Screen,1_3_0_1_5,2021-03-27T17:31:17.579Z,,,,,,,,,,,,,,,,48,,,,,,,,,,,,,,753.5849999973143,response,,,,10,C,,,,,Space,keypress(Space),,,,instrumental,,,,-- -- --- ------ ------- Colombian ----------- --------<br>--------- -------- --- ------- -- ------- ---- -- ------<br>-- --- -------- -------- ---------- ---- ---- ---- ------<br>-- --------- -- ---- -- --- -- --- ------- -- - -----<br>---------- -- -- -- ---- ----- -- ------ -- --- ------<br>-------,220147.43499999895,220143.75499999733,219373.504,219382.96999999875,219390.17,220156.806,,5,Colombian
screen,html.Screen,1_3_0_1_6,2021-03-27T17:31:17.972Z,,,,,,,,,,,,,,,,48,,,,,,,,,,,,,,379.078999997495,response,,,,10,C,,,,,Space,keypress(Space),,,,instrumental,,,,-- -- --- ------ ------- --------- legislation --------<br>--------- -------- --- ------- -- ------- ---- -- ------<br>-- --- -------- -------- ---------- ---- ---- ---- ------<br>-- --------- -- ---- -- --- -- --- ------- -- - -----<br>---------- -- -- -- ---- ----- -- ------ -- --- ------<br>-------,220541.04499999812,220535.8849999975,220140.14,220147.5350000037,220156.806,220556.79,,6,legislation
screen,html.Screen,1_3_0_1_7,2021-03-27T17:31:18.541Z,,,,,,,,,,,,,,,,48,,,,,,,,,,,,,,548.0849999972561,response,,,,10,C,,,,,Space,keypress(Space),,,,instrumental,,,,-- -- --- ------ ------- --------- ----------- requires<br>--------- -------- --- ------- -- ------- ---- -- ------<br>-- --- -------- -------- ---------- ---- ---- ---- ------<br>-- --------- -- ---- -- --- -- --- ------- -- - -----<br>---------- -- -- -- ---- ----- -- ------ -- --- ------<br>-------,221109.49999999866,221104.87499999726,220540.124,220541.16000000067,220556.79,221123.434,,7,requires
screen,html.Screen,1_3_0_1_8,2021-03-27T17:31:19.461Z,,,,,,,,,,,,,,,,48,,,,,,,,,,,,,,901.5660000014468,response,,,,10,C,,,,,Space,keypress(Space),,,,instrumental,,,,-- -- --- ------ ------- --------- ----------- --------<br>travelers -------- --- ------- -- ------- ---- -- ------<br>-- --- -------- -------- ---------- ---- ---- ---- ------<br>-- --------- -- ---- -- --- -- --- ------- -- - -----<br>---------- -- -- -- ---- ----- -- ------ -- --- ------<br>-------,222029.95000000374,222025.00000000146,221106.768,221109.6200000029,221123.434,222040.064,,8,travelers
screen,html.Screen,1_3_0_1_9,2021-03-27T17:31:20.019Z,,,,,,,,,,,,,,,,48,,,,,,,,,,,,,,542.5709999988321,response,,,,10,C,,,,,Space,keypress(Space),,,,instrumental,,,,-- -- --- ------ ------- --------- ----------- --------<br>--------- entering --- ------- -- ------- ---- -- ------<br>-- --- -------- -------- ---------- ---- ---- ---- ------<br>-- --------- -- ---- -- --- -- --- ------- -- - -----<br>---------- -- -- -- ---- ----- -- ------ -- --- ------<br>-------,222587.31499999703,222582.63499999885,222023.398,222030.064999999,222040.064,222590.042,,9,entering
screen,html.Screen,1_3_0_1_10,2021-03-27T17:31:20.432Z,,,,,,,,,,,,,,,,48,,,,,,,,,,,,,,405.7980000032403,response,,,,10,C,,,,,Space,keypress(Space),,,,instrumental,,,,-- -- --- ------ ------- --------- ----------- --------<br>--------- -------- the ------- -- ------- ---- -- ------<br>-- --- -------- -------- ---------- ---- ---- ---- ------<br>-- --------- -- ---- -- --- -- --- ------- -- - -----<br>---------- -- -- -- ---- ----- -- ------ -- --- ------<br>-------,223000.36499999987,222995.84000000323,222573.376,222587.4299999996,222590.042,223006.692,,10,the
screen,html.Screen,1_3_0_1_11,2021-03-27T17:31:20.736Z,,,,,,,,,,,,,,,,48,,,,,,,,,,,,,,293.0829999994894,response,,,,10,C,,,,,Space,keypress(Space),,,,instrumental,,,,-- -- --- ------ ------- --------- ----------- --------<br>--------- -------- --- country -- ------- ---- -- ------<br>-- --- -------- -------- ---------- ---- ---- ---- ------<br>-- --------- -- ---- -- --- -- --- ------- -- - -----<br>---------- -- -- -- ---- ----- -- ------ -- --- ------<br>-------,223304.53000000125,223299.7749999995,222990.026,223000.48000000243,223006.692,223306.68,,11,country
screen,html.Screen,1_3_0_1_12,2021-03-27T17:31:21.037Z,,,,,,,,,,,,,,,,48,,,,,,,,,,,,,,295.1100000006263,response,,,,10,C,,,,,Space,keypress(Space),,,,instrumental,,,,-- -- --- ------ ------- --------- ----------- --------<br>--------- -------- --- ------- to ------- ---- -- ------<br>-- --- -------- -------- ---------- ---- ---- ---- ------<br>-- --------- -- ---- -- --- -- --- ------- -- - -----<br>---------- -- -- -- ---- ----- -- ------ -- --- ------<br>-------,223606.05000000214,223601.79000000062,223290.014,223304.6450000038,223306.68,223606.668,,12,to
screen,html.Screen,1_3_0_1_13,2021-03-27T17:31:21.420Z,,,,,,,,,,,,,,,,48,,,,,,,,,,,,,,377.1720000007772,response,,,,10,C,,,,,Space,keypress(Space),,,,instrumental,,,,-- -- --- ------ ------- --------- ----------- --------<br>--------- -------- --- ------- -- declare ---- -- ------<br>-- --- -------- -------- ---------- ---- ---- ---- ------<br>-- --------- -- ---- -- --- -- --- ------- -- - -----<br>---------- -- -- -- ---- ----- -- ------ -- --- ------<br>-------,223988.50500000117,223983.84000000078,223590.002,223606.1400000035,223606.668,223989.986,,13,declare
screen,html.Screen,1_3_0_1_14,2021-03-27T17:31:21.902Z,,,,,,,,,,,,,,,,48,,,,,,,,,,,,,,475.78400000251713,response,,,,10,C,,,,,Space,keypress(Space),,,,instrumental,,,,-- -- --- ------ ------- --------- ----------- --------<br>--------- -------- --- ------- -- ------- cash -- ------<br>-- --- -------- -------- ---------- ---- ---- ---- ------<br>-- --------- -- ---- -- --- -- --- ------- -- - -----<br>---------- -- -- -- ---- ----- -- ------ -- --- ------<br>-------,224470.484999998,224465.77000000252,223973.32,223988.62000000372,223989.986,224473.3,,14,cash
screen,html.Screen,1_3_0_1_15,2021-03-27T17:31:22.347Z,,,,,,,,,,,,,,,,48,,,,,,,,,,,,,,438.53499999898486,response,,,,10,C,,,,,Space,keypress(Space),,,,instrumental,,,,-- -- --- ------ ------- --------- ----------- --------<br>--------- -------- --- ------- -- ------- ---- in ------<br>-- --- -------- -------- ---------- ---- ---- ---- ------<br>-- --------- -- ---- -- --- -- --- ------- -- - -----<br>---------- -- -- -- ---- ----- -- ------ -- --- ------<br>-------,224915.99500000302,224911.83499999897,224456.634,224470.60500000225,224473.3,224923.282,,15,in
screen,html.Screen,1_3_0_1_16,2021-03-27T17:31:23.498Z,,,,,,,,,,,,,,,,48,,,,,,,,,,,,,,1138.5479999987292,response,,,,10,C,,,,,Space,keypress(Space),,,,instrumental,,,,-- -- --- ------ ------- --------- ----------- --------<br>--------- -------- --- ------- -- ------- ---- -- excess<br>-- --- -------- -------- ---------- ---- ---- ---- ------<br>-- --------- -- ---- -- --- -- --- ------- -- - -----<br>---------- -- -- -- ---- ----- -- ------ -- --- ------<br>-------,226066.31500000367,226061.82999999874,224906.616,224916.0899999988,224923.282,226073.236,,16,excess
screen,html.Screen,1_3_0_1_17,2021-03-27T17:31:24.276Z,,,,,,,,,,,,,,,,48,,,,,,,,,,,,,,766.3690000010247,response,,,,10,C,,,,,Space,keypress(Space),,,,instrumental,,,,-- -- --- ------ ------- --------- ----------- --------<br>--------- -------- --- ------- -- ------- ---- -- ------<br>of --- -------- -------- ---------- ---- ---- ---- ------<br>-- --------- -- ---- -- --- -- --- ------- -- - -----<br>---------- -- -- -- ---- ----- -- ------ -- --- ------<br>-------,226844.76500000164,226839.60500000103,226056.57,226066.40999999945,226073.236,226856.538,,17,of
screen,html.Screen,1_3_0_1_18,2021-03-27T17:31:24.661Z,,,,,,,,,,,,,,,,48,,,,,,,,,,,,,,368.23700000240933,response,,,,10,C,,,,,Space,keypress(Space),,,,instrumental,,,,-- -- --- ------ ------- --------- ----------- --------<br>--------- -------- --- ------- -- ------- ---- -- ------<br>-- ten -------- -------- ---------- ---- ---- ---- ------<br>-- --------- -- ---- -- --- -- --- ------- -- - -----<br>---------- -- -- -- ---- ----- -- ------ -- --- ------<br>-------,227229.4550000006,227224.7750000024,226839.872,226844.87999999692,226856.538,227239.856,,18,ten
screen,html.Screen,1_3_0_1_19,2021-03-27T17:31:25.036Z,,,,,,,,,,,,,,,,48,,,,,,,,,,,,,,359.9089999990247,response,,,,10,C,,,,,Space,keypress(Space),,,,instrumental,,,,-- -- --- ------ ------- --------- ----------- --------<br>--------- -------- --- ------- -- ------- ---- -- ------<br>-- --- thousand -------- ---------- ---- ---- ---- ------<br>-- --------- -- ---- -- --- -- --- ------- -- - -----<br>---------- -- -- -- ---- ----- -- ------ -- --- ------<br>-------,227604.56500000146,227599.76499999902,227223.19,227229.57499999757,227239.856,227606.508,,19,thousand
screen,html.Screen,1_3_0_1_20,2021-03-27T17:31:25.431Z,,,,,,,,,,,,,,,,48,,,,,,,,,,,,,,389.19199999948614,response,,,,10,C,,,,,Space,keypress(Space),,,,instrumental,,,,-- -- --- ------ ------- --------- ----------- --------<br>--------- -------- --- ------- -- ------- ---- -- ------<br>-- --- -------- dollars. ---------- ---- ---- ---- ------<br>-- --------- -- ---- -- --- -- --- ------- -- - -----<br>---------- -- -- -- ---- ----- -- ------ -- --- ------<br>-------,228000.20000000222,227995.6999999995,227589.842,227604.68499999843,227606.508,228006.492,,20,dollars.
screen,html.Screen,1_3_0_1_21,2021-03-27T17:31:25.980Z,,,,,,,,,,,,,,,,48,,,,,,,,,,,,,,538.0129999980272,response,,,,10,C,,,,,Space,keypress(Space),,,,instrumental,,,,-- -- --- ------ ------- --------- ----------- --------<br>--------- -------- --- ------- -- ------- ---- -- ------<br>-- --- -------- -------- Concealing ---- ---- ---- ------<br>-- --------- -- ---- -- --- -- --- ------- -- - -----<br>---------- -- -- -- ---- ----- -- ------ -- --- ------<br>-------,228548.86499999702,228544.50499999803,227989.826,228000.39500000275,228006.492,228562.327,,21,Concealing
screen,html.Screen,1_3_0_1_22,2021-03-27T17:31:26.410Z,,,,,,,,,,,,,,,,48,,,,,,,,,,,,,,412.3180000020657,response,,,,10,C,,,,,Space,keypress(Space),,,,instrumental,,,,-- -- --- ------ ------- --------- ----------- --------<br>--------- -------- --- ------- -- ------- ---- -- ------<br>-- --- -------- -------- ---------- more ---- ---- ------<br>-- --------- -- ---- -- --- -- --- ------- -- - -----<br>---------- -- -- -- ---- ----- -- ------ -- --- ------<br>-------,228979.1899999982,228974.64500000206,228545.661,228548.96000000008,228562.327,228995.643,,22,more
screen,html.Screen,1_3_0_1_23,2021-03-27T17:31:26.733Z,,,,,,,,,,,,,,,,48,,,,,,,,,,,,,,300.9019999974116,response,,,,10,C,,,,,Space,keypress(Space),,,,instrumental,,,,-- -- --- ------ ------- --------- ----------- --------<br>--------- -------- --- ------- -- ------- ---- -- ------<br>-- --- -------- -------- ---------- ---- than ---- ------<br>-- --------- -- ---- -- --- -- --- ------- -- - -----<br>---------- -- -- -- ---- ----- -- ------ -- --- ------<br>-------,229301.84000000008,229296.54499999742,228978.977,228979.30500000075,228995.643,229312.297,,23,than
screen,html.Screen,1_3_0_1_24,2021-03-27T17:31:27.054Z,,,,,,,,,,,,,,,,48,,,,,,,,,,,,,,305.358000001841,response,,,,10,C,,,,,Space,keypress(Space),,,,instrumental,,,,-- -- --- ------ ------- --------- ----------- --------<br>--------- -------- --- ------- -- ------- ---- -- ------<br>-- --- -------- -------- ---------- ---- ---- that ------<br>-- --------- -- ---- -- --- -- --- ------- -- - -----<br>---------- -- -- -- ---- ----- -- ------ -- --- ------<br>-------,229622.6850000021,229617.65500000183,229295.631,229301.95999999705,229312.297,229628.951,,24,that
screen,html.Screen,1_3_0_1_25,2021-03-27T17:31:27.469Z,,,,,,,,,,,,,,,,48,,,,,,,,,,,,,,405.43900000071153,response,,,,10,C,,,,,Space,keypress(Space),,,,instrumental,,,,-- -- --- ------ ------- --------- ----------- --------<br>--------- -------- --- ------- -- ------- ---- -- ------<br>-- --- -------- -------- ---------- ---- ---- ---- amount<br>-- --------- -- ---- -- --- -- --- ------- -- - -----<br>---------- -- -- -- ---- ----- -- ------ -- --- ------<br>-------,230037.96000000148,230034.3900000007,229612.285,229622.80499999906,229628.951,230045.601,,25,amount
screen,html.Screen,1_3_0_1_26,2021-03-27T17:31:28.074Z,,,,,,,,,,,,,,,,48,,,,,,,,,,,,,,592.9139999987383,response,,,,10,C,,,,,Space,keypress(Space),,,,instrumental,,,,-- -- --- ------ ------- --------- ----------- --------<br>--------- -------- --- ------- -- ------- ---- -- ------<br>-- --- -------- -------- ---------- ---- ---- ---- ------<br>to --------- -- ---- -- --- -- --- ------- -- - -----<br>---------- -- -- -- ---- ----- -- ------ -- --- ------<br>-------,230642.9649999991,230638.51499999873,230028.935,230038.05000000284,230045.601,230645.577,,26,to
screen,html.Screen,1_3_0_1_27,2021-03-27T17:31:28.876Z,,,,,,,,,,,,,,,,48,,,,,,,,,,,,,,794.8480000006966,response,,,,10,C,,,,,Space,keypress(Space),,,,instrumental,,,,-- -- --- ------ ------- --------- ----------- --------<br>--------- -------- --- ------- -- ------- ---- -- ------<br>-- --- -------- -------- ---------- ---- ---- ---- ------<br>-- transport -- ---- -- --- -- --- ------- -- - -----<br>---------- -- -- -- ---- ----- -- ------ -- --- ------<br>-------,231444.96000000072,231440.4250000007,230628.911,230643.07499999995,230645.577,231445.545,,27,transport
screen,html.Screen,1_3_0_1_28,2021-03-27T17:31:29.620Z,,,,,,,,,,,,,,,,48,,,,,,,,,,,,,,738.6900000006135,response,,,,10,C,,,,,Space,keypress(Space),,,,instrumental,,,,-- -- --- ------ ------- --------- ----------- --------<br>--------- -------- --- ------- -- ------- ---- -- ------<br>-- --- -------- -------- ---------- ---- ---- ---- ------<br>-- --------- it ---- -- --- -- --- ------- -- - -----<br>---------- -- -- -- ---- ----- -- ------ -- --- ------<br>-------,232189.07500000205,232184.23500000063,231428.879,231445.07500000327,231445.545,232195.515,,28,it
screen,html.Screen,1_3_0_1_29,2021-03-27T17:31:30.135Z,,,,,,,,,,,,,,,,48,,,,,,,,,,,,,,503.81999999750406,response,,,,10,C,,,,,Space,keypress(Space),,,,instrumental,,,,-- -- --- ------ ------- --------- ----------- --------<br>--------- -------- --- ------- -- ------- ---- -- ------<br>-- --- -------- -------- ---------- ---- ---- ---- ------<br>-- --------- -- into -- --- -- --- ------- -- - -----<br>---------- -- -- -- ---- ----- -- ------ -- --- ------<br>-------,232703.9700000023,232699.33499999752,232178.849,232189.19499999902,232195.515,232712.161,,29,into
screen,html.Screen,1_3_0_1_30,2021-03-27T17:31:30.637Z,,,,,,,,,,,,,,,,48,,,,,,,,,,,,,,489.4339999986405,response,,,,10,C,,,,,Space,keypress(Space),,,,instrumental,,,,-- -- --- ------ ------- --------- ----------- --------<br>--------- -------- --- ------- -- ------- ---- -- ------<br>-- --- -------- -------- ---------- ---- ---- ---- ------<br>-- --------- -- ---- or --- -- --- ------- -- - -----<br>---------- -- -- -- ---- ----- -- ------ -- --- ------<br>-------,233205.84999999846,233201.59499999863,232695.495,232704.08499999758,232712.161,233212.141,,30,or
screen,html.Screen,1_3_0_1_31,2021-03-27T17:31:31.095Z,,,,,,,,,,,,,,,,48,,,,,,,,,,,,,,447.1589999993448,response,,,,10,C,,,,,Space,keypress(Space),,,,instrumental,,,,-- -- --- ------ ------- --------- ----------- --------<br>--------- -------- --- ------- -- ------- ---- -- ------<br>-- --- -------- -------- ---------- ---- ---- ---- ------<br>-- --------- -- ---- -- out -- --- ------- -- - -----<br>---------- -- -- -- ---- ----- -- ------ -- --- ------<br>-------,233664.01000000042,233659.29999999935,233195.475,233205.94500000152,233212.141,233678.789,,31,out
screen,html.Screen,1_3_0_1_32,2021-03-27T17:31:31.537Z,,,,,,,,,,,,,,,,48,,,,,,,,,,,,,,422.54099999769824,response,,,,10,C,,,,,Space,keypress(Space),,,,instrumental,,,,-- -- --- ------ ------- --------- ----------- --------<br>--------- -------- --- ------- -- ------- ---- -- ------<br>-- --- -------- -------- ---------- ---- ---- ---- ------<br>-- --------- -- ---- -- --- of --- ------- -- - -----<br>---------- -- -- -- ---- ----- -- ------ -- --- ------<br>-------,234105.80499999924,234101.3299999977,233662.123,233664.12000000128,233678.789,234112.105,,32,of
screen,html.Screen,1_3_0_1_33,2021-03-27T17:31:31.921Z,,,,,,,,,,,,,,,,48,,,,,,,,,,,,,,373.22999999756576,response,,,,10,C,,,,,Space,keypress(Space),,,,instrumental,,,,-- -- --- ------ ------- --------- ----------- --------<br>--------- -------- --- ------- -- ------- ---- -- ------<br>-- --- -------- -------- ---------- ---- ---- ---- ------<br>-- --------- -- ---- -- --- -- the ------- -- - -----<br>---------- -- -- -- ---- ----- -- ------ -- --- ------<br>-------,234489.5800000013,234485.33499999758,234095.439,234105.8950000006,234112.105,234495.423,,33,the
screen,html.Screen,1_3_0_1_34,2021-03-27T17:31:32.241Z,,,,,,,,,,,,,,,,48,,,,,,,,,,,,,,309.9169999989681,response,,,,10,C,,,,,Space,keypress(Space),,,,instrumental,,,,-- -- --- ------ ------- --------- ----------- --------<br>--------- -------- --- ------- -- ------- ---- -- ------<br>-- --- -------- -------- ---------- ---- ---- ---- ------<br>-- --------- -- ---- -- --- -- --- country -- - -----<br>---------- -- -- -- ---- ----- -- ------ -- --- ------<br>-------,234809.85499999952,234805.33999999898,234478.757,234489.69500000385,234495.423,234812.077,,34,country
screen,html.Screen,1_3_0_1_35,2021-03-27T17:31:32.550Z,,,,,,,,,,,,,,,,48,,,,,,,,,,,,,,302.19799999991665,response,,,,10,C,,,,,Space,keypress(Space),,,,instrumental,,,,-- -- --- ------ ------- --------- ----------- --------<br>--------- -------- --- ------- -- ------- ---- -- ------<br>-- --- -------- -------- ---------- ---- ---- ---- ------<br>-- --------- -- ---- -- --- -- --- ------- is - -----<br>---------- -- -- -- ---- ----- -- ------ -- --- ------<br>-------,235118.97000000317,235114.2749999999,234795.411,234809.97500000376,234812.077,235128.731,,35,is
screen,html.Screen,1_3_0_1_36,2021-03-27T17:31:32.867Z,,,,,,,,,,,,,,,,48,,,,,,,,,,,,,,302.7239999980957,response,,,,10,C,,,,,Space,keypress(Space),,,,instrumental,,,,-- -- --- ------ ------- --------- ----------- --------<br>--------- -------- --- ------- -- ------- ---- -- ------<br>-- --- -------- -------- ---------- ---- ---- ---- ------<br>-- --------- -- ---- -- --- -- --- ------- -- a -----<br>---------- -- -- -- ---- ----- -- ------ -- --- ------<br>-------,235435.64999999944,235431.4549999981,235112.065,235119.07999999676,235128.731,235445.385,,36,a
screen,html.Screen,1_3_0_1_37,2021-03-27T17:31:33.163Z,,,,,,,,,,,,,,,,48,,,,,,,,,,,,,,282.83999999891967,response,,,,10,C,,,,,Space,keypress(Space),,,,instrumental,,,,-- -- --- ------ ------- --------- ----------- --------<br>--------- -------- --- ------- -- ------- ---- -- ------<br>-- --- -------- -------- ---------- ---- ---- ---- ------<br>-- --------- -- ---- -- --- -- --- ------- -- - crime<br>---------- -- -- -- ---- ----- -- ------ -- --- ------<br>-------,235731.93000000174,235728.22499999893,235428.719,235435.7450000025,235445.385,235745.373,,37,crime
screen,html.Screen,1_3_0_1_38,2021-03-27T17:31:33.496Z,,,,,,,,,,,,,,,,48,,,,,,,,,,,,,,314.9969999992463,response,,,,10,C,,,,,Space,keypress(Space),,,,instrumental,,,,-- -- --- ------ ------- --------- ----------- --------<br>--------- -------- --- ------- -- ------- ---- -- ------<br>-- --- -------- -------- ---------- ---- ---- ---- ------<br>-- --------- -- ---- -- --- -- --- ------- -- - -----<br>punishable -- -- -- ---- ----- -- ------ -- --- ------<br>-------,236064.85000000248,236060.36999999924,235728.707,235732.0200000031,235745.373,236078.693,,38,punishable
screen,html.Screen,1_3_0_1_39,2021-03-27T17:31:33.907Z,,,,,,,,,,,,,,,,48,,,,,,,,,,,,,,392.557000002329,response,,,,10,C,,,,,Space,keypress(Space),,,,instrumental,,,,-- -- --- ------ ------- --------- ----------- --------<br>--------- -------- --- ------- -- ------- ---- -- ------<br>-- --- -------- -------- ---------- ---- ---- ---- ------<br>-- --------- -- ---- -- --- -- --- ------- -- - -----<br>---------- by -- -- ---- ----- -- ------ -- --- ------<br>-------,236476.04000000138,236471.25000000233,236062.027,236064.96499999776,236078.693,236478.677,,39,by
screen,html.Screen,1_3_0_1_40,2021-03-27T17:31:34.283Z,,,,,,,,,,,,,,,,48,,,,,,,,,,,,,,368.6680000019551,response,,,,10,C,,,,,Space,keypress(Space),,,,instrumental,,,,-- -- --- ------ ------- --------- ----------- --------<br>--------- -------- --- ------- -- ------- ---- -- ------<br>-- --- -------- -------- ---------- ---- ---- ---- ------<br>-- --------- -- ---- -- --- -- --- ------- -- - -----<br>---------- -- up -- ---- ----- -- ------ -- --- ------<br>-------,236851.98500000115,236847.34500000195,236462.011,236476.15999999834,236478.677,236861.995,,40,up
screen,html.Screen,1_3_0_1_41,2021-03-27T17:31:34.596Z,,,,,,,,,,,,,,,,48,,,,,,,,,,,,,,298.6000000011991,response,,,,10,C,,,,,Space,keypress(Space),,,,instrumental,,,,-- -- --- ------ ------- --------- ----------- --------<br>--------- -------- --- ------- -- ------- ---- -- ------<br>-- --- -------- -------- ---------- ---- ---- ---- ------<br>-- --------- -- ---- -- --- -- --- ------- -- - -----<br>---------- -- -- to ---- ----- -- ------ -- --- ------<br>-------,237165.24500000378,237160.5950000012,236845.329,236852.095000002,236861.995,237178.649,,41,to
screen,html.Screen,1_3_0_1_42,2021-03-27T17:31:34.944Z,,,,,,,,,,,,,,,,48,,,,,,,,,,,,,,329.73600000099395,response,,,,10,C,,,,,Space,keypress(Space),,,,instrumental,,,,-- -- --- ------ ------- --------- ----------- --------<br>--------- -------- --- ------- -- ------- ---- -- ------<br>-- --- -------- -------- ---------- ---- ---- ---- ------<br>-- --------- -- ---- -- --- -- --- ------- -- - -----<br>---------- -- -- -- five ----- -- ------ -- --- ------<br>-------,237512.58499999676,237508.385000001,237161.983,237165.35499999736,237178.649,237528.635,,42,five
