sender,sender_type,sender_id,timestamp,meta,,Blues,Classical,Country,Dance,Electronic,Folk,Gospel,Hip-Hop,Jazz,Latin,Musical/Film,New-age,Pop,Provo_ID,R&B,Rap,Reggae,Religious,Rock,Soul,Swing,Traditional,age,artist_name,correct,correctResponse,distraction,duration,ended_on,familiarity,gender,headphone_check_performance,item,list,offensiveness,pleasantness,position_correct,preference,response,response_action,snippet_file,song_name,song_rating,sound,stimulus_1,stimulus_2,stimulus_3,text,time_commit,time_end,time_render,time_run,time_show,time_switch,url,word,word_ID
Introduction,html.Screen,0_0,2021-03-28T16:40:18.449Z,"{""labjs_version"":""20.2.2"",""labjs_build"":{""flavor"":""production"",""commit"":""a25486e0c714a0ae2ce03ff94b7bb6896854dcfa""},""location"":""https://run.pavlovia.org/mvasilev/music_b/"",""userAgent"":""Mozilla/5.0 (Windows NT 10.0; Win64; x64) AppleWebKit/537.36 (KHTML, like Gecko) Chrome/89.0.4389.90 Safari/537.36"",""platform"":""Win32"",""language"":""en-GB"",""locale"":""en-US"",""timeZone"":""Europe/London"",""timezoneOffset"":-60,""screen_width"":1536,""screen_height"":864,""scroll_width"":1536,""scroll_height"":674,""window_innerWidth"":1536,""window_innerHeight"":722,""devicePixelRatio"":1.25}",,,,,,,,,,,,,,,,,,,,,,,,,,,,,4890.883000000009,response,,,,,,,,,,continue,click button,,,,,,,,,15276.650000000018,15275.14500000001,10334.355,10348.420000000033,10384.262,15287.566,{},,
Volume calibration,html.Screen,0_1,2021-03-28T16:40:46.149Z,,,,,,,,,,,,,,,,,,,,,,,,,,,,,,27685.643999999993,response,,,,,,,,,,continue,click button,,,,,,,,,42975.90500000001,42973.20999999999,15270.999,15276.929999999993,15287.566,42978.65,,,
Task instructions,html.Screen,0_2,2021-03-28T16:40:54.991Z,,,,,,,,,,,,,,,,,,,,,,,,,,,,,,8838.73999999999,response,,,,,,,,,,continue,click button,,,,,,,,,51818.16000000003,51817.38999999999,42962.202,42976.11000000001,42978.65,51821.236,,,
Sounds,html.Screen,0_3_0_0,2021-03-28T16:40:59.240Z,,,,,,,,,,,,,,,,,,,,,,,,,,,,,,4255.129000000001,timeout,,,,,,,,2,,,,,,,,O,S,I,,56066.940000000046,56059.71,51804.725,51818.410000000025,51821.236,56076.365,,,
Judgement,html.Screen,0_3_0_1,2021-03-28T16:40:59.929Z,,,,,,,,,,,,,,,,,,,,,,,,,,,true,2,,678.9850000000224,response,,,,,,,,2,,2,click #choice-2,,,,,O,S,I,,56756.41999999999,56755.35000000002,56059.71,56067.385,56076.365,56757.752,,,
Trial,flow.Sequence,0_3_0,2021-03-28T16:40:59.930Z,,,,,,,,,,,,,,,,,,,,,,,,,,,,,,4934.114000000023,completion,,,,,,,,2,,,,,,,,O,S,I,,56756.799999999996,56755.35000000002,51804.725,51818.350000000006,51821.236,56757.752,,,
Sounds,html.Screen,0_3_1_0,2021-03-28T16:41:04.171Z,,,,,,,,,,,,,,,,,,,,,,,,,,,,,,4255.218000000001,timeout,,,,,,,,1,,,,,,,,S,O,I,,60997.95499999999,60996.299,56741.234,56756.96500000004,56757.752,61012.97,,,
Judgement,html.Screen,0_3_1_1,2021-03-28T16:41:06.937Z,,,,,,,,,,,,,,,,,,,,,,,,,,,true,1,,2750.3800000000047,response,,,,,,,,1,,1,click #choice-1,,,,,S,O,I,,63764.22500000001,63763.350000000006,60996.299,60998.320000000036,61012.97,63772.063,,,
Trial,flow.Sequence,0_3_1,2021-03-28T16:41:06.937Z,,,,,,,,,,,,,,,,,,,,,,,,,,,,,,7005.598000000005,completion,,,,,,,,1,,,,,,,,S,O,I,,63764.44500000002,63763.350000000006,56741.234,56756.920000000035,56757.752,63772.063,,,
Sounds,html.Screen,0_3_2_0,2021-03-28T16:41:11.185Z,,,,,,,,,,,,,,,,,,,,,,,,,,,,,,4254.998,timeout,,,,,,,,3,,,,,,,,I,O,S,,68012.24000000002,68010.407,63755.498,63764.60500000002,63772.063,68027.061,,,
Judgement,html.Screen,0_3_2_1,2021-03-28T16:41:11.607Z,,,,,,,,,,,,,,,,,,,,,,,,,,,true,3,,406.28400000002875,response,,,,,,,,3,,3,click #choice-3,,,,,I,O,S,,68434.28500000005,68433.34500000003,68010.407,68012.55500000002,68027.061,68442.636,,,
Trial,flow.Sequence,0_3_2,2021-03-28T16:41:11.607Z,,,,,,,,,,,,,,,,,,,,,,,,,,,,,,4661.282000000028,completion,,,,,,,,3,,,,,,,,I,O,S,,68434.49000000003,68433.34500000003,63755.498,63764.55500000003,63772.063,68442.636,,,
Sounds,html.Screen,0_3_3_0,2021-03-28T16:41:15.856Z,,,,,,,,,,,,,,,,,,,,,,,,,,,,,,4255.019,timeout,,,,,,,,1,,,,,,,,S,I,O,,72683.155,72681.087,68426.035,68434.64,68442.636,72697.655,,,
Judgement,html.Screen,0_3_3_1,2021-03-28T16:41:16.507Z,,,,,,,,,,,,,,,,,,,,,,,,,,,true,1,,635.730000000025,response,,,,,,,,1,,1,click #choice-1,,,,,S,I,O,,73334.225,73333.38500000002,72681.087,72683.55000000003,72697.655,73345.943,,,
Trial,flow.Sequence,0_3_3,2021-03-28T16:41:16.507Z,,,,,,,,,,,,,,,,,,,,,,,,,,,,,,4890.749000000025,completion,,,,,,,,1,,,,,,,,S,I,O,,73334.43,73333.38500000002,68426.035,68434.58500000002,68442.636,73345.943,,,
Sounds,html.Screen,0_3_4_0,2021-03-28T16:41:20.759Z,,,,,,,,,,,,,,,,,,,,,,,,,,,,,,4254.9679999999935,timeout,,,,,,,,2,,,,,,,,I,S,O,,77586.37500000003,77584.368,73329.336,73334.56000000001,73345.943,77600.911,,,
Judgement,html.Screen,0_3_4_1,2021-03-28T16:41:21.219Z,,,,,,,,,,,,,,,,,,,,,,,,,,,true,2,,444.5840000000171,response,,,,,,,,2,,2,click #choice-2,,,,,I,S,O,,78046.54500000004,78045.49500000001,77584.368,77586.74500000001,77600.911,78049.605,,,
Trial,flow.Sequence,0_3_4,2021-03-28T16:41:21.220Z,,,,,,,,,,,,,,,,,,,,,,,,,,,,,,4699.552000000011,completion,,,,,,,,2,,,,,,,,I,S,O,,78046.83500000005,78045.49500000001,73329.336,73334.52500000004,73345.943,78049.605,,,
Sounds,html.Screen,0_3_5_0,2021-03-28T16:41:25.463Z,,,,,,,,,,,,,,,,,,,,,,,,,,,,,,4255.167000000001,timeout,,,,,,,,3,,,,,,,,O,I,S,,82290.27500000001,82288.198,78033.147,78047.07000000002,78049.605,82304.772,,,
Judgement,html.Screen,0_3_5_1,2021-03-28T16:41:26.083Z,,,,,,,,,,,,,,,,,,,,,,,,,,,true,3,,604.6080000000075,response,,,,,,,,3,,3,click #choice-3,,,,,O,I,S,,82910.39000000006,82909.38,82288.198,82290.595,82304.772,82919.653,,,
Trial,flow.Sequence,0_3_5,2021-03-28T16:41:26.083Z,,,,,,,,,,,,,,,,,,,,,,,,,,,,,,4859.775000000009,completion,,,,,,,,3,,,,,,,,O,I,S,,82910.59999999999,82909.38,78033.147,78046.98000000003,78049.605,82919.653,,,
Task,flow.Loop,0_3,2021-03-28T16:41:26.087Z,,,,,,,,,,,,,,,,,,,,,,,,,,,,,,31088.144000000008,completion,,,1,,,,,,,,,,,,,,,,,82914.46500000001,82909.38,51804.725,51818.295000000035,51821.236,82919.653,,,
Trap,html.Screen,0_4,2021-03-28T16:41:26.089Z,,,,,,,,,,,,,,,,,,,,,,,,,,,,,,NaN,skipped,,,,,,,,,,,,,,,,,,,,82915.775,82909.38,,82915.61000000007,,82919.653,,,
Thanks,html.Screen,0_5,2021-03-28T16:41:28.851Z,,,,,,,,,,,,,,,,,,,,,,,,,,,,,,2757.6720000000496,response,,,,,,,,,,continue,click button,,,,,,,,,85678.17500000006,85677.32500000006,82903.2,82915.91499999998,82919.653,88919.955,,,
Headphone screening,flow.Sequence,0,2021-03-28T16:41:28.851Z,,,,,,,,,,,,,,,,,,,,,,,,,,,,,,75293.06300000005,completion,,,,,,,,,,,,,,,,,,,,85678.37000000002,85677.32500000006,10334.355,10348.385000000007,10384.262,88919.955,,,
Instructions,html.Page,1_0,2021-03-28T16:41:41.380Z,,,,,,,,,,,,,,,,,,,,,,,,,,,,,,9286.430000000008,form submission,,,,,,,,,,,,,,,,,,,,98206.885,98206.38500000001,88886.781,88925.48500000004,88919.955,98211.304,,,
Holding screen,html.Screen,1_1_0_0,2021-03-28T16:41:48.367Z,,,,,,,,,,,,,,,,,,,,,,,,,,,,,,7030.838000000003,timeout,,,,,,,,,,,,,,,,,,,,105194.07000000007,105192.385,98194.792,98207.08000000007,98211.304,105242.142,,,
screen,html.Screen,1_1_0_1_0,2021-03-28T16:41:49.178Z,,,,,,,,,,,,,,,,53,,,,,,,,,,,,,,756.6430000000546,response,,,,99,,,,,,Space,keypress(Space),,,,,,,,When -- ----- -- ------ - ------- --- ----------<br>------------- ------ ------ ---- ---- ------- ----- -- ----<br>-------- ------- -- ---------- --- - --- ----- ----- ----<br>---- --- --- ----- --- ---- ---- ------- ----- ---- -------<br>--- --- -- ----- -- --- ---- -- --- ---- -- ------ ------<br>--- ----- -- ----,106004.61000000002,105998.78500000006,105192.385,105194.61500000005,105242.142,106006.717,,0,When
screen,html.Screen,1_1_0_1_1,2021-03-28T16:41:49.484Z,,,,,,,,,,,,,,,,53,,,,,,,,,,,,,,302.1629999999859,response,,,,99,,,,,,Space,keypress(Space),,,,,,,,---- it ----- -- ------ - ------- --- ----------<br>------------- ------ ------ ---- ---- ------- ----- -- ----<br>-------- ------- -- ---------- --- - --- ----- ----- ----<br>---- --- --- ----- --- ---- ---- ------- ----- ---- -------<br>--- --- -- ----- -- --- ---- -- --- ---- -- ------ ------<br>--- ----- -- ----,106310.68999999996,106308.87999999999,105990.204,106004.99500000007,106006.717,106322.603,,1,it
screen,html.Screen,1_1_0_1_2,2021-03-28T16:41:49.799Z,,,,,,,,,,,,,,,,53,,,,,,,,,,,,,,301.68700000003446,response,,,,99,,,,,,Space,keypress(Space),,,,,,,,---- -- comes -- ------ - ------- --- ----------<br>------------- ------ ------ ---- ---- ------- ----- -- ----<br>-------- ------- -- ---------- --- - --- ----- ----- ----<br>---- --- --- ----- --- ---- ---- ------- ----- ---- -------<br>--- --- -- ----- -- --- ---- -- --- ---- -- ------ ------<br>--- ----- -- ----,106625.56499999999,106624.29000000004,106305.951,106311.125,106322.603,106638.454,,2,comes
screen,html.Screen,1_1_0_1_3,2021-03-28T16:41:50.149Z,,,,,,,,,,,,,,,,53,,,,,,,,,,,,,,336.35599999999977,response,,,,99,,,,,,Space,keypress(Space),,,,,,,,---- -- ----- to ------ - ------- --- ----------<br>------------- ------ ------ ---- ---- ------- ----- -- ----<br>-------- ------- -- ---------- --- - --- ----- ----- ----<br>---- --- --- ----- --- ---- ---- ------- ----- ---- -------<br>--- --- -- ----- -- --- ---- -- --- ---- -- ------ ------<br>--- ----- -- ----,106975.88500000001,106974.81,106621.805,106625.99000000006,106638.454,106987.466,,3,to
screen,html.Screen,1_1_0_1_4,2021-03-28T16:41:50.458Z,,,,,,,,,,,,,,,,53,,,,,,,,,,,,,,296.3190000000177,response,,,,99,,,,,,Space,keypress(Space),,,,,,,,---- -- ----- -- having - ------- --- ----------<br>------------- ------ ------ ---- ---- ------- ----- -- ----<br>-------- ------- -- ---------- --- - --- ----- ----- ----<br>---- --- --- ----- --- ---- ---- ------- ----- ---- -------<br>--- --- -- ----- -- --- ---- -- --- ---- -- ------ ------<br>--- ----- -- ----,107285.10999999997,107283.78500000002,106970.788,106976.19500000002,106987.466,107311.118,,4,having
screen,html.Screen,1_1_0_1_5,2021-03-28T16:41:50.782Z,,,,,,,,,,,,,,,,53,,,,,,,,,,,,,,296.8770000000077,response,,,,99,,,,,,Space,keypress(Space),,,,,,,,---- -- ----- -- ------ a ------- --- ----------<br>------------- ------ ------ ---- ---- ------- ----- -- ----<br>-------- ------- -- ---------- --- - --- ----- ----- ----<br>---- --- --- ----- --- ---- ---- ------- ----- ---- -------<br>--- --- -- ----- -- --- ---- -- --- ---- -- ------ ------<br>--- ----- -- ----,107609.20500000003,107607.99500000001,107270.028,107285.63000000002,107311.118,107618.936,,5,a
screen,html.Screen,1_1_0_1_6,2021-03-28T16:41:51.065Z,,,,,,,,,,,,,,,,53,,,,,,,,,,,,,,271.9290000000183,response,,,,99,,,,,,Space,keypress(Space),,,,,,,,---- -- ----- -- ------ - lasting --- ----------<br>------------- ------ ------ ---- ---- ------- ----- -- ----<br>-------- ------- -- ---------- --- - --- ----- ----- ----<br>---- --- --- ----- --- ---- ---- ------- ----- ---- -------<br>--- --- -- ----- -- --- ---- -- --- ---- -- ------ ------<br>--- ----- -- ----,107892.13,107890.86500000002,107602.439,107609.53000000001,107618.936,107901.558,,6,lasting
screen,html.Screen,1_1_0_1_7,2021-03-28T16:41:51.405Z,,,,,,,,,,,,,,,,53,,,,,,,,,,,,,,329.86200000000827,response,,,,99,,,,,,Space,keypress(Space),,,,,,,,---- -- ----- -- ------ - ------- and ----------<br>------------- ------ ------ ---- ---- ------- ----- -- ----<br>-------- ------- -- ---------- --- - --- ----- ----- ----<br>---- --- --- ----- --- ---- ---- ------- ----- ---- -------<br>--- --- -- ----- -- --- ---- -- --- ---- -- ------ ------<br>--- ----- -- ----,108232.51,108231.42000000001,107885.018,107892.495,107901.558,108269.172,,7,and
screen,html.Screen,1_1_0_1_8,2021-03-28T16:41:51.721Z,,,,,,,,,,,,,,,,53,,,,,,,,,,,,,,277.38800000004994,response,,,,99,,,,,,Space,keypress(Space),,,,,,,,---- -- ----- -- ------ - ------- --- fulfilling<br>------------- ------ ------ ---- ---- ------- ----- -- ----<br>-------- ------- -- ---------- --- - --- ----- ----- ----<br>---- --- --- ----- --- ---- ---- ------- ----- ---- -------<br>--- --- -- ----- -- --- ---- -- --- ---- -- ------ ------<br>--- ----- -- ----,108547.75999999998,108546.56000000006,108217.441,108232.825,108269.172,108549.802,,8,fulfilling
screen,html.Screen,1_1_0_1_9,2021-03-28T16:41:52.066Z,,,,,,,,,,,,,,,,53,,,,,,,,,,,,,,342.1380000000354,response,,,,99,,,,,,Space,keypress(Space),,,,,,,,"---- -- ----- -- ------ - ------- --- ----------<br>relationship, ------ ------ ---- ---- ------- ----- -- ----<br>-------- ------- -- ---------- --- - --- ----- ----- ----<br>---- --- --- ----- --- ---- ---- ------- ----- ---- -------<br>--- --- -- ----- -- --- ---- -- --- ---- -- ------ ------<br>--- ----- -- ----",108893.11500000002,108891.94000000003,108533.302,108548.07499999998,108549.802,108898.817,,9,"relationship,"
screen,html.Screen,1_1_0_1_10,2021-03-28T16:41:52.393Z,,,,,,,,,,,,,,,,53,,,,,,,,,,,,,,319.8480000000418,response,,,,99,,,,,,Space,keypress(Space),,,,,,,,---- -- ----- -- ------ - ------- --- ----------<br>------------- common ------ ---- ---- ------- ----- -- ----<br>-------- ------- -- ---------- --- - --- ----- ----- ----<br>---- --- --- ----- --- ---- ---- ------- ----- ---- -------<br>--- --- -- ----- -- --- ---- -- --- ---- -- ------ ------<br>--- ----- -- ----,109220.01500000004,109218.66500000004,108882.305,108893.46000000006,108898.817,109231.241,,10,common
screen,html.Screen,1_1_0_1_11,2021-03-28T16:41:52.703Z,,,,,,,,,,,,,,,,53,,,,,,,,,,,,,,297.5790000000561,response,,,,99,,,,,,Space,keypress(Space),,,,,,,,---- -- ----- -- ------ - ------- --- ----------<br>------------- ------ wisdom ---- ---- ------- ----- -- ----<br>-------- ------- -- ---------- --- - --- ----- ----- ----<br>---- --- --- ----- --- ---- ---- ------- ----- ---- -------<br>--- --- -- ----- -- --- ---- -- --- ---- -- ------ ------<br>--- ----- -- ----,109530.17000000006,109528.82000000005,109214.727,109220.45500000007,109231.241,109547.205,,11,wisdom
screen,html.Screen,1_1_0_1_12,2021-03-28T16:41:52.997Z,,,,,,,,,,,,,,,,53,,,,,,,,,,,,,,276.07500000001164,response,,,,99,,,,,,Space,keypress(Space),,,,,,,,---- -- ----- -- ------ - ------- --- ----------<br>------------- ------ ------ says ---- ------- ----- -- ----<br>-------- ------- -- ---------- --- - --- ----- ----- ----<br>---- --- --- ----- --- ---- ---- ------- ----- ---- -------<br>--- --- -- ----- -- --- ---- -- --- ---- -- ------ ------<br>--- ----- -- ----,109824.45999999999,109823.28000000001,109530.432,109531.04500000001,109547.205,109829.697,,12,says
screen,html.Screen,1_1_0_1_13,2021-03-28T16:41:53.328Z,,,,,,,,,,,,,,,,53,,,,,,,,,,,,,,323.99300000004587,response,,,,99,,,,,,Space,keypress(Space),,,,,,,,---- -- ----- -- ------ - ------- --- ----------<br>------------- ------ ------ ---- that ------- ----- -- ----<br>-------- ------- -- ---------- --- - --- ----- ----- ----<br>---- --- --- ----- --- ---- ---- ------- ----- ---- -------<br>--- --- -- ----- -- --- ---- -- --- ---- -- ------ ------<br>--- ----- -- ----,110154.92999999998,110153.69000000005,109813.046,109824.81000000001,109829.697,110162.066,,13,that
screen,html.Screen,1_1_0_1_14,2021-03-28T16:41:53.643Z,,,,,,,,,,,,,,,,53,,,,,,,,,,,,,,306.5240000000049,response,,,,99,,,,,,Space,keypress(Space),,,,,,,,---- -- ----- -- ------ - ------- --- ----------<br>------------- ------ ------ ---- ---- feeling ----- -- ----<br>-------- ------- -- ---------- --- - --- ----- ----- ----<br>---- --- --- ----- --- ---- ---- ------- ----- ---- -------<br>--- --- -- ----- -- --- ---- -- --- ---- -- ------ ------<br>--- ----- -- ----,110470.16000000002,110468.59000000001,110145.524,110155.30000000006,110162.066,110477.828,,14,feeling
screen,html.Screen,1_1_0_1_15,2021-03-28T16:41:53.935Z,,,,,,,,,,,,,,,,53,,,,,,,,,,,,,,281.9620000000141,response,,,,99,,,,,,Space,keypress(Space),,,,,,,,---- -- ----- -- ------ - ------- --- ----------<br>------------- ------ ------ ---- ---- ------- close -- ----<br>-------- ------- -- ---------- --- - --- ----- ----- ----<br>---- --- --- ----- --- ---- ---- ------- ----- ---- -------<br>--- --- -- ----- -- --- ---- -- --- ---- -- ------ ------<br>--- ----- -- ----,110761.60499999998,110759.79000000001,110461.322,110470.59500000006,110477.828,110777.163,,15,close
screen,html.Screen,1_1_0_1_16,2021-03-28T16:41:54.219Z,,,,,,,,,,,,,,,,53,,,,,,,,,,,,,,267.66699999998673,response,,,,99,,,,,,Space,keypress(Space),,,,,,,,---- -- ----- -- ------ - ------- --- ----------<br>------------- ------ ------ ---- ---- ------- ----- to ----<br>-------- ------- -- ---------- --- - --- ----- ----- ----<br>---- --- --- ----- --- ---- ---- ------- ----- ---- -------<br>--- --- -- ----- -- --- ---- -- --- ---- -- ------ ------<br>--- ----- -- ----,111046.13,111044.82999999999,110760.484,110761.94000000003,110777.163,111059.729,,16,to
screen,html.Screen,1_1_0_1_17,2021-03-28T16:41:54.505Z,,,,,,,,,,,,,,,,53,,,,,,,,,,,,,,270.68099999996775,response,,,,99,,,,,,Space,keypress(Space),,,,,,,,---- -- ----- -- ------ - ------- --- ----------<br>------------- ------ ------ ---- ---- ------- ----- -- your<br>-------- ------- -- ---------- --- - --- ----- ----- ----<br>---- --- --- ----- --- ---- ---- ------- ----- ---- -------<br>--- --- -- ----- -- --- ---- -- --- ---- -- ------ ------<br>--- ----- -- ----,111331.87000000004,111330.40999999997,111043.02,111046.45999999996,111059.729,111342.196,,17,your
screen,html.Screen,1_1_0_1_18,2021-03-28T16:41:54.769Z,,,,,,,,,,,,,,,,53,,,,,,,,,,,,,,253.00900000002002,response,,,,99,,,,,,Space,keypress(Space),,,,,,,,---- -- ----- -- ------ - ------- --- ----------<br>------------- ------ ------ ---- ---- ------- ----- -- ----<br>romantic ------- -- ---------- --- - --- ----- ----- ----<br>---- --- --- ----- --- ---- ---- ------- ----- ---- -------<br>--- --- -- ----- -- --- ---- -- --- ---- -- ------ ------<br>--- ----- -- ----,111596.45000000006,111595.20500000002,111325.614,111332.37000000002,111342.196,111608.153,,18,romantic
screen,html.Screen,1_1_0_1_19,2021-03-28T16:41:55.055Z,,,,,,,,,,,,,,,,53,,,,,,,,,,,,,,272.7520000000368,response,,,,99,,,,,,Space,keypress(Space),,,,,,,,---- -- ----- -- ------ - ------- --- ----------<br>------------- ------ ------ ---- ---- ------- ----- -- ----<br>-------- partner -- ---------- --- - --- ----- ----- ----<br>---- --- --- ----- --- ---- ---- ------- ----- ---- -------<br>--- --- -- ----- -- --- ---- -- --- ---- -- ------ ------<br>--- ----- -- ----,111882.26500000001,111880.90500000004,111591.565,111596.77000000005,111608.153,111890.693,,19,partner
screen,html.Screen,1_1_0_1_20,2021-03-28T16:41:55.351Z,,,,,,,,,,,,,,,,53,,,,,,,,,,,,,,284.9919999999838,response,,,,99,,,,,,Space,keypress(Space),,,,,,,,---- -- ----- -- ------ - ------- --- ----------<br>------------- ------ ------ ---- ---- ------- ----- -- ----<br>-------- ------- is ---------- --- - --- ----- ----- ----<br>---- --- --- ----- --- ---- ---- ------- ----- ---- -------<br>--- --- -- ----- -- --- ---- -- --- ---- -- ------ ------<br>--- ----- -- ----,112178.28500000002,112175.68499999998,111874.126,111882.65500000006,111890.693,112189.943,,20,is
screen,html.Screen,1_1_0_1_21,2021-03-28T16:41:55.611Z,,,,,,,,,,,,,,,,53,,,,,,,,,,,,,,246.5569999999716,response,,,,99,,,,,,Space,keypress(Space),,,,,,,,---- -- ----- -- ------ - ------- --- ----------<br>------------- ------ ------ ---- ---- ------- ----- -- ----<br>-------- ------- -- paramount. --- - --- ----- ----- ----<br>---- --- --- ----- --- ---- ---- ------- ----- ---- -------<br>--- --- -- ----- -- --- ---- -- --- ---- -- ------ ------<br>--- ----- -- ----,112437.795,112436.49999999997,112173.265,112178.74999999999,112189.943,112457.924,,21,paramount.
screen,html.Screen,1_1_0_1_22,2021-03-28T16:41:55.956Z,,,,,,,,,,,,,,,,53,,,,,,,,,,,,,,323.9859999999899,response,,,,99,,,,,,Space,keypress(Space),,,,,,,,---- -- ----- -- ------ - ------- --- ----------<br>------------- ------ ------ ---- ---- ------- ----- -- ----<br>-------- ------- -- ---------- But - --- ----- ----- ----<br>---- --- --- ----- --- ---- ---- ------- ----- ---- -------<br>--- --- -- ----- -- --- ---- -- --- ---- -- ------ ------<br>--- ----- -- ----,112783.15000000004,112781.90999999999,112422.492,112438.22000000006,112457.924,112788.196,,22,But
screen,html.Screen,1_1_0_1_23,2021-03-28T16:41:56.312Z,,,,,,,,,,,,,,,,53,,,,,,,,,,,,,,348.74400000003516,response,,,,99,,,,,,Space,keypress(Space),,,,,,,,---- -- ----- -- ------ - ------- --- ----------<br>------------- ------ ------ ---- ---- ------- ----- -- ----<br>-------- ------- -- ---------- --- a --- ----- ----- ----<br>---- --- --- ----- --- ---- ---- ------- ----- ---- -------<br>--- --- -- ----- -- --- ---- -- --- ---- -- ------ ------<br>--- ----- -- ----,113138.80999999998,113136.94000000003,112771.673,112783.59500000004,112788.196,113153.907,,23,a
screen,html.Screen,1_1_0_1_24,2021-03-28T16:41:56.537Z,,,,,,,,,,,,,,,,53,,,,,,,,,,,,,,208.78799999997136,response,,,,99,,,,,,Space,keypress(Space),,,,,,,,---- -- ----- -- ------ - ------- --- ----------<br>------------- ------ ------ ---- ---- ------- ----- -- ----<br>-------- ------- -- ---------- --- - new ----- ----- ----<br>---- --- --- ----- --- ---- ---- ------- ----- ---- -------<br>--- --- -- ----- -- --- ---- -- --- ---- -- ------ ------<br>--- ----- -- ----,113363.93500000003,113362.69499999998,113137.354,113139.14000000006,113153.907,113369.962,,24,new
screen,html.Screen,1_1_0_1_25,2021-03-28T16:41:56.807Z,,,,,,,,,,,,,,,,53,,,,,,,,,,,,,,262.89300000001094,response,,,,99,,,,,,Space,keypress(Space),,,,,,,,---- -- ----- -- ------ - ------- --- ----------<br>------------- ------ ------ ---- ---- ------- ----- -- ----<br>-------- ------- -- ---------- --- - --- study ----- ----<br>---- --- --- ----- --- ---- ---- ------- ----- ---- -------<br>--- --- -- ----- -- --- ---- -- --- ---- -- ------ ------<br>--- ----- -- ----,113634.25000000001,113632.85500000001,113353.416,113364.33500000004,113369.962,113666.971,,25,study
screen,html.Screen,1_1_0_1_26,2021-03-28T16:41:57.078Z,,,,,,,,,,,,,,,,53,,,,,,,,,,,,,,236.45900000000256,response,,,,99,,,,,,Space,keypress(Space),,,,,,,,---- -- ----- -- ------ - ------- --- ----------<br>------------- ------ ------ ---- ---- ------- ----- -- ----<br>-------- ------- -- ---------- --- - --- ----- finds ----<br>---- --- --- ----- --- ---- ---- ------- ----- ---- -------<br>--- --- -- ----- -- --- ---- -- --- ---- -- ------ ------<br>--- ----- -- ----,113904.65000000001,113903.43000000001,113619.375,113634.69000000003,113666.971,113918.487,,26,finds
screen,html.Screen,1_1_0_1_27,2021-03-28T16:41:57.343Z,,,,,,,,,,,,,,,,53,,,,,,,,,,,,,,250.32800000005227,response,,,,99,,,,,,Space,keypress(Space),,,,,,,,---- -- ----- -- ------ - ------- --- ----------<br>------------- ------ ------ ---- ---- ------- ----- -- ----<br>-------- ------- -- ---------- --- - --- ----- ----- that<br>---- --- --- ----- --- ---- ---- ------- ----- ---- -------<br>--- --- -- ----- -- --- ---- -- --- ---- -- ------ ------<br>--- ----- -- ----,114170.03000000006,114168.81500000005,113901.946,113905.06499999997,113918.487,114184.533,,27,that
screen,html.Screen,1_1_0_1_28,2021-03-28T16:41:57.593Z,,,,,,,,,,,,,,,,53,,,,,,,,,,,,,,234.30699999998615,response,,,,99,,,,,,Space,keypress(Space),,,,,,,,---- -- ----- -- ------ - ------- --- ----------<br>------------- ------ ------ ---- ---- ------- ----- -- ----<br>-------- ------- -- ---------- --- - --- ----- ----- ----<br>it's --- --- ----- --- ---- ---- ------- ----- ---- -------<br>--- --- -- ----- -- --- ---- -- --- ---- -- ------ ------<br>--- ----- -- ----,114420.20500000006,114418.83999999998,114167.858,114170.45000000001,114184.533,114433.797,,28,it's
screen,html.Screen,1_1_0_1_29,2021-03-28T16:41:57.828Z,,,,,,,,,,,,,,,,53,,,,,,,,,,,,,,220.43300000003364,response,,,,99,,,,,,Space,keypress(Space),,,,,,,,---- -- ----- -- ------ - ------- --- ----------<br>------------- ------ ------ ---- ---- ------- ----- -- ----<br>-------- ------- -- ---------- --- - --- ----- ----- ----<br>---- not --- ----- --- ---- ---- ------- ----- ---- -------<br>--- --- -- ----- -- --- ---- -- --- ---- -- ------ ------<br>--- ----- -- ----,114655.44500000004,114654.23000000004,114417.203,114420.62500000003,114433.797,114666.559,,29,not
screen,html.Screen,1_1_0_1_30,2021-03-28T16:41:58.091Z,,,,,,,,,,,,,,,,53,,,,,,,,,,,,,,249.7159999999858,response,,,,99,,,,,,Space,keypress(Space),,,,,,,,---- -- ----- -- ------ - ------- --- ----------<br>------------- ------ ------ ---- ---- ------- ----- -- ----<br>-------- ------- -- ---------- --- - --- ----- ----- ----<br>---- --- how ----- --- ---- ---- ------- ----- ---- -------<br>--- --- -- ----- -- --- ---- -- --- ---- -- ------ ------<br>--- ----- -- ----,114918.10500000003,114916.27499999998,114649.877,114655.75000000007,114666.559,114932.403,,30,how
screen,html.Screen,1_1_0_1_31,2021-03-28T16:41:58.354Z,,,,,,,,,,,,,,,,53,,,,,,,,,,,,,,247.57200000005832,response,,,,99,,,,,,Space,keypress(Space),,,,,,,,---- -- ----- -- ------ - ------- --- ----------<br>------------- ------ ------ ---- ---- ------- ----- -- ----<br>-------- ------- -- ---------- --- - --- ----- ----- ----<br>---- --- --- close --- ---- ---- ------- ----- ---- -------<br>--- --- -- ----- -- --- ---- -- --- ---- -- ------ ------<br>--- ----- -- ----,115181.18499999997,115179.97500000006,114915.781,114918.54000000007,114932.403,115198.434,,31,close
screen,html.Screen,1_1_0_1_32,2021-03-28T16:41:58.629Z,,,,,,,,,,,,,,,,53,,,,,,,,,,,,,,256.73100000002887,response,,,,99,,,,,,Space,keypress(Space),,,,,,,,---- -- ----- -- ------ - ------- --- ----------<br>------------- ------ ------ ---- ---- ------- ----- -- ----<br>-------- ------- -- ---------- --- - --- ----- ----- ----<br>---- --- --- ----- you ---- ---- ------- ----- ---- -------<br>--- --- -- ----- -- --- ---- -- --- ---- -- ------ ------<br>--- ----- -- ----,115456.34000000001,115455.16500000002,115181.77,115181.64500000006,115198.434,115464.275,,32,you
screen,html.Screen,1_1_0_1_33,2021-03-28T16:41:58.892Z,,,,,,,,,,,,,,,,53,,,,,,,,,,,,,,253.09000000004016,response,,,,99,,,,,,Space,keypress(Space),,,,,,,,---- -- ----- -- ------ - ------- --- ----------<br>------------- ------ ------ ---- ---- ------- ----- -- ----<br>-------- ------- -- ---------- --- - --- ----- ----- ----<br>---- --- --- ----- --- feel ---- ------- ----- ---- -------<br>--- --- -- ----- -- --- ---- -- --- ---- -- ------ ------<br>--- ----- -- ----,115718.62500000003,115717.36500000003,115447.694,115456.65500000001,115464.275,115730.174,,33,feel
screen,html.Screen,1_1_0_1_34,2021-03-28T16:41:59.250Z,,,,,,,,,,,,,,,,53,,,,,,,,,,,,,,345.8110000000015,response,,,,99,,,,,,Space,keypress(Space),,,,,,,,---- -- ----- -- ------ - ------- --- ----------<br>------------- ------ ------ ---- ---- ------- ----- -- ----<br>-------- ------- -- ---------- --- - --- ----- ----- ----<br>---- --- --- ----- --- ---- that ------- ----- ---- -------<br>--- --- -- ----- -- --- ---- -- --- ---- -- ------ ------<br>--- ----- -- ----,116077.29999999997,116075.985,115713.66,115719.06000000007,115730.174,116105.988,,34,that
screen,html.Screen,1_1_0_1_35,2021-03-28T16:41:59.520Z,,,,,,,,,,,,,,,,53,,,,,,,,,,,,,,240.3070000000007,response,,,,99,,,,,,Space,keypress(Space),,,,,,,,---- -- ----- -- ------ - ------- --- ----------<br>------------- ------ ------ ---- ---- ------- ----- -- ----<br>-------- ------- -- ---------- --- - --- ----- ----- ----<br>---- --- --- ----- --- ---- ---- matters ----- ---- -------<br>--- --- -- ----- -- --- ---- -- --- ---- -- ------ ------<br>--- ----- -- ----,116347.465,116346.295,116062.647,116077.73500000002,116105.988,116361.924,,35,matters
screen,html.Screen,1_1_0_1_36,2021-03-28T16:41:59.832Z,,,,,,,,,,,,,,,,53,,,,,,,,,,,,,,295.52099999999336,response,,,,99,,,,,,Space,keypress(Space),,,,,,,,"---- -- ----- -- ------ - ------- --- ----------<br>------------- ------ ------ ---- ---- ------- ----- -- ----<br>-------- ------- -- ---------- --- - --- ----- ----- ----<br>---- --- --- ----- --- ---- ---- ------- most, ---- -------<br>--- --- -- ----- -- --- ---- -- --- ---- -- ------ ------<br>--- ----- -- ----",116658.78000000004,116657.44499999999,116345.293,116347.81000000004,116361.924,116660.966,,36,"most,"
screen,html.Screen,1_1_0_1_37,2021-03-28T16:42:00.252Z,,,,,,,,,,,,,,,,53,,,,,,,,,,,,,,416.1640000000625,response,,,,99,,,,,,Space,keypress(Space),,,,,,,,---- -- ----- -- ------ - ------- --- ----------<br>------------- ------ ------ ---- ---- ------- ----- -- ----<br>-------- ------- -- ---------- --- - --- ----- ----- ----<br>---- --- --- ----- --- ---- ---- ------- ----- it's -------<br>--- --- -- ----- -- --- ---- -- --- ---- -- ------ ------<br>--- ----- -- ----,117078.68999999999,117077.13000000006,116644.426,116659.11999999997,116660.966,117093.261,,37,it's
screen,html.Screen,1_1_0_1_38,2021-03-28T16:42:00.552Z,,,,,,,,,,,,,,,,53,,,,,,,,,,,,,,284.2390000000014,response,,,,99,,,,,,Space,keypress(Space),,,,,,,,---- -- ----- -- ------ - ------- --- ----------<br>------------- ------ ------ ---- ---- ------- ----- -- ----<br>-------- ------- -- ---------- --- - --- ----- ----- ----<br>---- --- --- ----- --- ---- ---- ------- ----- ---- whether<br>--- --- -- ----- -- --- ---- -- --- ---- -- ------ ------<br>--- ----- -- ----,117378.65500000004,117377.5,117076.592,117079.15500000007,117093.261,117392.451,,38,whether
screen,html.Screen,1_1_0_1_39,2021-03-28T16:42:00.794Z,,,,,,,,,,,,,,,,53,,,,,,,,,,,,,,227.60900000002584,response,,,,99,,,,,,Space,keypress(Space),,,,,,,,---- -- ----- -- ------ - ------- --- ----------<br>------------- ------ ------ ---- ---- ------- ----- -- ----<br>-------- ------- -- ---------- --- - --- ----- ----- ----<br>---- --- --- ----- --- ---- ---- ------- ----- ---- -------<br>you --- -- ----- -- --- ---- -- --- ---- -- ------ ------<br>--- ----- -- ----,117621.26000000007,117620.06000000003,117375.73,117378.98999999999,117392.451,117625.04,,39,you
screen,html.Screen,1_1_0_1_40,2021-03-28T16:42:01.028Z,,,,,,,,,,,,,,,,53,,,,,,,,,,,,,,228.4199999999837,response,,,,99,,,,,,Space,keypress(Space),,,,,,,,---- -- ----- -- ------ - ------- --- ----------<br>------------- ------ ------ ---- ---- ------- ----- -- ----<br>-------- ------- -- ---------- --- - --- ----- ----- ----<br>---- --- --- ----- --- ---- ---- ------- ----- ---- -------<br>--- are -- ----- -- --- ---- -- --- ---- -- ------ ------<br>--- ----- -- ----,117854.84000000003,117853.45999999998,117608.462,117621.69,117625.04,117857.7,,40,are
screen,html.Screen,1_1_0_1_41,2021-03-28T16:42:01.258Z,,,,,,,,,,,,,,,,53,,,,,,,,,,,,,,226.3000000000029,response,,,,99,,,,,,Space,keypress(Space),,,,,,,,---- -- ----- -- ------ - ------- --- ----------<br>------------- ------ ------ ---- ---- ------- ----- -- ----<br>-------- ------- -- ---------- --- - --- ----- ----- ----<br>---- --- --- ----- --- ---- ---- ------- ----- ---- -------<br>--- --- as ----- -- --- ---- -- --- ---- -- ------ ------<br>--- ----- -- ----,118085.34000000003,118084,117841.182,117855.345,117857.7,118090.461,,41,as
screen,html.Screen,1_1_0_1_42,2021-03-28T16:42:01.514Z,,,,,,,,,,,,,,,,53,,,,,,,,,,,,,,248.75900000002002,response,,,,99,,,,,,Space,keypress(Space),,,,,,,,---- -- ----- -- ------ - ------- --- ----------<br>------------- ------ ------ ---- ---- ------- ----- -- ----<br>-------- ------- -- ---------- --- - --- ----- ----- ----<br>---- --- --- ----- --- ---- ---- ------- ----- ---- -------<br>--- --- -- close -- --- ---- -- --- ---- -- ------ ------<br>--- ----- -- ----,118341.205,118339.22000000002,118073.886,118085.89499999999,118090.461,118356.475,,42,close
screen,html.Screen,1_1_0_1_43,2021-03-28T16:42:01.797Z,,,,,,,,,,,,,,,,53,,,,,,,,,,,,,,265.39000000001397,response,,,,99,,,,,,Space,keypress(Space),,,,,,,,---- -- ----- -- ------ - ------- --- ----------<br>------------- ------ ------ ---- ---- ------- ----- -- ----<br>-------- ------- -- ---------- --- - --- ----- ----- ----<br>---- --- --- ----- --- ---- ---- ------- ----- ---- -------<br>--- --- -- ----- as --- ---- -- --- ---- -- ------ ------<br>--- ----- -- ----,118623.67999999998,118621.86500000002,118339.828,118341.64000000004,118356.475,118639.047,,43,as
screen,html.Screen,1_1_0_1_44,2021-03-28T16:42:02.059Z,,,,,,,,,,,,,,,,53,,,,,,,,,,,,,,245.90800000003946,response,,,,99,,,,,,Space,keypress(Space),,,,,,,,---- -- ----- -- ------ - ------- --- ----------<br>------------- ------ ------ ---- ---- ------- ----- -- ----<br>-------- ------- -- ---------- --- - --- ----- ----- ----<br>---- --- --- ----- --- ---- ---- ------- ----- ---- -------<br>--- --- -- ----- -- you ---- -- --- ---- -- ------ ------<br>--- ----- -- ----,118886.19499999999,118884.95500000005,118622.363,118624.01500000004,118639.047,118888.216,,44,you
screen,html.Screen,1_1_0_1_45,2021-03-28T16:42:02.335Z,,,,,,,,,,,,,,,,53,,,,,,,,,,,,,,272.69400000000314,response,,,,99,,,,,,Space,keypress(Space),,,,,,,,---- -- ----- -- ------ - ------- --- ----------<br>------------- ------ ------ ---- ---- ------- ----- -- ----<br>-------- ------- -- ---------- --- - --- ----- ----- ----<br>---- --- --- ----- --- ---- ---- ------- ----- ---- -------<br>--- --- -- ----- -- --- want -- --- ---- -- ------ ------<br>--- ----- -- ----,119162.11000000004,119160.91,118871.696,118886.505,118888.216,119170.907,,45,want
screen,html.Screen,1_1_0_1_46,2021-03-28T16:42:02.620Z,,,,,,,,,,,,,,,,53,,,,,,,,,,,,,,274.99299999998766,response,,,,99,,,,,,Space,keypress(Space),,,,,,,,---- -- ----- -- ------ - ------- --- ----------<br>------------- ------ ------ ---- ---- ------- ----- -- ----<br>-------- ------- -- ---------- --- - --- ----- ----- ----<br>---- --- --- ----- --- ---- ---- ------- ----- ---- -------<br>--- --- -- ----- -- --- ---- to --- ---- -- ------ ------<br>--- ----- -- ----,119447.11999999998,119445.9,119154.227,119162.46500000005,119170.907,119453.324,,46,to
screen,html.Screen,1_1_0_1_47,2021-03-28T16:42:02.892Z,,,,,,,,,,,,,,,,53,,,,,,,,,,,,,,264.1160000000673,response,,,,99,,,,,,Space,keypress(Space),,,,,,,,"---- -- ----- -- ------ - ------- --- ----------<br>------------- ------ ------ ---- ---- ------- ----- -- ----<br>-------- ------- -- ---------- --- - --- ----- ----- ----<br>---- --- --- ----- --- ---- ---- ------- ----- ---- -------<br>--- --- -- ----- -- --- ---- -- be, ---- -- ------ ------<br>--- ----- -- ----",119718.59999999998,119717.44000000006,119436.823,119447.44500000008,119453.324,119736.007,,47,"be,"
screen,html.Screen,1_1_0_1_48,2021-03-28T16:42:03.251Z,,,,,,,,,,,,,,,,53,,,,,,,,,,,,,,340.57299999997485,response,,,,99,,,,,,Space,keypress(Space),,,,,,,,---- -- ----- -- ------ - ------- --- ----------<br>------------- ------ ------ ---- ---- ------- ----- -- ----<br>-------- ------- -- ---------- --- - --- ----- ----- ----<br>---- --- --- ----- --- ---- ---- ------- ----- ---- -------<br>--- --- -- ----- -- --- ---- -- --- even -- ------ ------<br>--- ----- -- ----,120077.79499999998,120076.57999999997,119719.409,119718.96499999997,119736.007,120085.008,,48,even
screen,html.Screen,1_1_0_1_49,2021-03-28T16:42:03.492Z,,,,,,,,,,,,,,,,53,,,,,,,,,,,,,,231.94200000006822,response,,,,99,,,,,,Space,keypress(Space),,,,,,,,---- -- ----- -- ------ - ------- --- ----------<br>------------- ------ ------ ---- ---- ------- ----- -- ----<br>-------- ------- -- ---------- --- - --- ----- ----- ----<br>---- --- --- ----- --- ---- ---- ------- ----- ---- -------<br>--- --- -- ----- -- --- ---- -- --- ---- if ------ ------<br>--- ----- -- ----,120318.78999999998,120316.95000000007,120068.426,120078.15,120085.008,120334.418,,49,if
screen,html.Screen,1_1_0_1_50,2021-03-28T16:42:03.706Z,,,,,,,,,,,,,,,,53,,,,,,,,,,,,,,197.66699999998673,response,,,,99,,,,,,Space,keypress(Space),,,,,,,,---- -- ----- -- ------ - ------- --- ----------<br>------------- ------ ------ ---- ---- ------- ----- -- ----<br>-------- ------- -- ---------- --- - --- ----- ----- ----<br>---- --- --- ----- --- ---- ---- ------- ----- ---- -------<br>--- --- -- ----- -- --- ---- -- --- ---- -- that's ------<br>--- ----- -- ----,120533.28000000004,120532.08499999999,120317.762,120319.14499999999,120334.418,120550.496,,50,that's
screen,html.Screen,1_1_0_1_51,2021-03-28T16:42:03.947Z,,,,,,,,,,,,,,,,53,,,,,,,,,,,,,,222.21400000002177,response,,,,99,,,,,,Space,keypress(Space),,,,,,,,---- -- ----- -- ------ - ------- --- ----------<br>------------- ------ ------ ---- ---- ------- ----- -- ----<br>-------- ------- -- ---------- --- - --- ----- ----- ----<br>---- --- --- ----- --- ---- ---- ------- ----- ---- -------<br>--- --- -- ----- -- --- ---- -- --- ---- -- ------ really<br>--- ----- -- ----,120774.16499999998,120772.71000000002,120533.822,120533.72000000007,120550.496,120783.035,,51,really
screen,html.Screen,1_1_0_1_52,2021-03-28T16:42:04.248Z,,,,,,,,,,,,,,,,53,,,,,,,,,,,,,,289.9349999999977,response,,,,99,,,,,,Space,keypress(Space),,,,,,,,---- -- ----- -- ------ - ------- --- ----------<br>------------- ------ ------ ---- ---- ------- ----- -- ----<br>-------- ------- -- ---------- --- - --- ----- ----- ----<br>---- --- --- ----- --- ---- ---- ------- ----- ---- -------<br>--- --- -- ----- -- --- ---- -- --- ---- -- ------ ------<br>not ----- -- ----,121074.56000000007,121072.97,120766.513,120774.52999999997,120783.035,121082.284,,52,not
screen,html.Screen,1_1_0_1_53,2021-03-28T16:42:04.523Z,,,,,,,,,,,,,,,,53,,,,,,,,,,,,,,265.67600000000675,response,,,,99,,,,,,Space,keypress(Space),,,,,,,,---- -- ----- -- ------ - ------- --- ----------<br>------------- ------ ------ ---- ---- ------- ----- -- ----<br>-------- ------- -- ---------- --- - --- ----- ----- ----<br>---- --- --- ----- --- ---- ---- ------- ----- ---- -------<br>--- --- -- ----- -- --- ---- -- --- ---- -- ------ ------<br>--- close -- ----,121349.71000000002,121347.96,121065.705,121075.11500000003,121082.284,121364.935,,53,close
screen,html.Screen,1_1_0_1_54,2021-03-28T16:42:04.782Z,,,,,,,,,,,,,,,,53,,,,,,,,,,,,,,243.05000000004657,response,,,,99,,,,,,Space,keypress(Space),,,,,,,,---- -- ----- -- ------ - ------- --- ----------<br>------------- ------ ------ ---- ---- ------- ----- -- ----<br>-------- ------- -- ---------- --- - --- ----- ----- ----<br>---- --- --- ----- --- ---- ---- ------- ----- ---- -------<br>--- --- -- ----- -- --- ---- -- --- ---- -- ------ ------<br>--- ----- at ----,121609.30000000002,121607.98500000004,121348.277,121350.05000000006,121364.935,121614.17,,54,at
screen,html.Screen,1_1_0_1_55,2021-03-28T16:42:05.034Z,,,,,,,,,,,,,,,,53,,,,,,,,,,,,,,245.35000000003492,response,,,,99,,,,,,Space,keypress(Space),,,,,,,,---- -- ----- -- ------ - ------- --- ----------<br>------------- ------ ------ ---- ---- ------- ----- -- ----<br>-------- ------- -- ---------- --- - --- ----- ----- ----<br>---- --- --- ----- --- ---- ---- ------- ----- ---- -------<br>--- --- -- ----- -- --- ---- -- --- ---- -- ------ ------<br>--- ----- -- all.,121860.72000000007,121859.52000000003,121597.63,121609.76,121614.17,121889.322,,55,all.
Item 99,flow.Loop,1_1_0_1,2021-03-28T16:42:05.034Z,,,,,,,,,,,,,,,,,,,,,,,,,,,,,,16617.378000000026,completion,,,,,B,,,,,,,,,,silence,,,,,121861.49500000005,121859.52000000003,105192.385,105194.45999999999,105242.142,121889.322,,,
Question 1,html.Screen,1_1_0_2,2021-03-28T16:42:08.163Z,,,,,,,,,,,,,,,,,,,,,,,,,,,false,FALSE,,3099.9130000000587,response,,,,99,B,,,,,TRUE,click #choice-1,,,,silence,,,,,124990.10500000003,124989.23500000006,121846.912,121861.83,121889.322,125004.935,,,
Question 2,html.Screen,1_1_0_3,2021-03-28T16:42:10.977Z,,,,,,,,,,,,,,,,,,,,,,,,,,,true,TRUE,,2798.160000000047,response,,,,99,B,,,,,TRUE,click #choice-1,,,,silence,,,,,127803.81500000005,127803.09500000004,124988.346,124990.23500000004,125004.935,127813.949,,,
Item 99,flow.Sequence,1_1_0,2021-03-28T16:42:10.977Z,,,,,,,,,,,,,,,,,,,,,,,,,,,,,,29591.79100000004,completion,,,,,,,,,,,,,,,,,,,,127804.01000000001,127803.09500000004,98194.792,98207.05000000003,98211.304,127813.949,,,
Holding screen,html.Screen,1_1_1_0,2021-03-28T16:42:17.969Z,,,,,,,,,,,,,,,,,,,,,,,,,,,,,,6997.482000000018,timeout,,,,,,,,,,,,,,,,,,,,134796.4,134794.914,127797.367,127804.145,127813.949,134811.431,,,
screen,html.Screen,1_1_1_1_0,2021-03-28T16:42:19.216Z,,,,,,,,,,,,,,,,54,,,,,,,,,,,,,,1229.3790000000154,response,,,,100,,,,,,Space,keypress(Space),,,,,,,,At --- ---- --- ------ ----- ------- ---- -- --- ------- --<br>------- ---------- ------ -- ----- -- ----- -- ---- ------<br>--- ----- --- --- ------ -------- ----- --- ------ ----- --<br>----- ----- ---------- --- --- ------ ------ ---- -- ------<br>------- --- ------ ----- --- ---- ------- -- ---- --- --<br>------- ------,136042.83500000002,136040.81000000003,134794.914,134796.80000000002,134811.431,136058.121,,0,At
screen,html.Screen,1_1_1_1_1,2021-03-28T16:42:19.580Z,,,,,,,,,,,,,,,,54,,,,,,,,,,,,,,347.1689999999653,response,,,,100,,,,,,Space,keypress(Space),,,,,,,,-- the ---- --- ------ ----- ------- ---- -- --- ------- --<br>------- ---------- ------ -- ----- -- ----- -- ---- ------<br>--- ----- --- --- ------ -------- ----- --- ------ ----- --<br>----- ----- ---------- --- --- ------ ------ ---- -- ------<br>------- --- ------ ----- --- ---- ------- -- ---- --- --<br>------- ------,136406.55499999996,136405.28999999998,136041.488,136043.16,136058.121,136423.833,,1,the
screen,html.Screen,1_1_1_1_2,2021-03-28T16:42:19.789Z,,,,,,,,,,,,,,,,54,,,,,,,,,,,,,,191.58200000002398,response,,,,100,,,,,,Space,keypress(Space),,,,,,,,-- --- time --- ------ ----- ------- ---- -- --- ------- --<br>------- ---------- ------ -- ----- -- ----- -- ---- ------<br>--- ----- --- --- ------ -------- ----- --- ------ ----- --<br>----- ----- ---------- --- --- ------ ------ ---- -- ------<br>------- --- ------ ----- --- ---- ------- -- ---- --- --<br>------- ------,136616.47,136615.41500000004,136407.146,136406.86999999997,136423.833,136623.195,,2,time
screen,html.Screen,1_1_1_1_3,2021-03-28T16:42:20.080Z,,,,,,,,,,,,,,,,54,,,,,,,,,,,,,,282.29000000003725,response,,,,100,,,,,,Space,keypress(Space),,,,,,,,-- --- ---- the ------ ----- ------- ---- -- --- ------- --<br>------- ---------- ------ -- ----- -- ----- -- ---- ------<br>--- ----- --- --- ------ -------- ----- --- ------ ----- --<br>----- ----- ---------- --- --- ------ ------ ---- -- ------<br>------- --- ------ ----- --- ---- ------- -- ---- --- --<br>------- ------,136907.075,136905.48500000004,136606.616,136616.78,136623.195,136922.488,,3,the
screen,html.Screen,1_1_1_1_4,2021-03-28T16:42:20.290Z,,,,,,,,,,,,,,,,54,,,,,,,,,,,,,,193.6119999999937,response,,,,100,,,,,,Space,keypress(Space),,,,,,,,-- --- ---- --- French ----- ------- ---- -- --- ------- --<br>------- ---------- ------ -- ----- -- ----- -- ---- ------<br>--- ----- --- --- ------ -------- ----- --- ------ ----- --<br>----- ----- ---------- --- --- ------ ------ ---- -- ------<br>------- --- ------ ----- --- ---- ------- -- ---- --- --<br>------- ------,137117.39000000004,137116.1,136905.821,136907.38000000003,136922.488,137121.857,,4,French
screen,html.Screen,1_1_1_1_5,2021-03-28T16:42:20.440Z,,,,,,,,,,,,,,,,54,,,,,,,,,,,,,,143.8880000000063,response,,,,100,,,,,,Space,keypress(Space),,,,,,,,-- --- ---- --- ------ crown ------- ---- -- --- ------- --<br>------- ---------- ------ -- ----- -- ----- -- ---- ------<br>--- ----- --- --- ------ -------- ----- --- ------ ----- --<br>----- ----- ---------- --- --- ------ ------ ---- -- ------<br>------- --- ------ ----- --- ---- ------- -- ---- --- --<br>------- ------,137266.905,137265.745,137105.266,137117.74500000008,137121.857,137271.445,,5,crown
screen,html.Screen,1_1_1_1_6,2021-03-28T16:42:20.775Z,,,,,,,,,,,,,,,,54,,,,,,,,,,,,,,329.7699999999604,response,,,,100,,,,,,Space,keypress(Space),,,,,,,,-- --- ---- --- ------ ----- secured ---- -- --- ------- --<br>------- ---------- ------ -- ----- -- ----- -- ---- ------<br>--- ----- --- --- ------ -------- ----- --- ------ ----- --<br>----- ----- ---------- --- --- ------ ------ ---- -- ------<br>------- --- ------ ----- --- ---- ------- -- ---- --- --<br>------- ------,137602.27000000002,137601.21499999997,137254.869,137267.22,137271.445,137626.658,,6,secured
screen,html.Screen,1_1_1_1_7,2021-03-28T16:42:21.105Z,,,,,,,,,,,,,,,,54,,,,,,,,,,,,,,304.2870000000112,response,,,,100,,,,,,Space,keypress(Space),,,,,,,,-- --- ---- --- ------ ----- ------- much -- --- ------- --<br>------- ---------- ------ -- ----- -- ----- -- ---- ------<br>--- ----- --- --- ------ -------- ----- --- ------ ----- --<br>----- ----- ---------- --- --- ------ ------ ---- -- ------<br>------- --- ------ ----- --- ---- ------- -- ---- --- --<br>------- ------,137932.14000000007,137930.945,137587.291,137602.57000000007,137626.658,137936.276,,7,much
screen,html.Screen,1_1_1_1_8,2021-03-28T16:42:21.461Z,,,,,,,,,,,,,,,,54,,,,,,,,,,,,,,350.5789999999979,response,,,,100,,,,,,Space,keypress(Space),,,,,,,,-- --- ---- --- ------ ----- ------- ---- of --- ------- --<br>------- ---------- ------ -- ----- -- ----- -- ---- ------<br>--- ----- --- --- ------ -------- ----- --- ------ ----- --<br>----- ----- ---------- --- --- ------ ------ ---- -- ------<br>------- --- ------ ----- --- ---- ------- -- ---- --- --<br>------- ------,138287.96500000005,138286.855,137919.728,137932.46000000005,137936.276,138302.046,,8,of
screen,html.Screen,1_1_1_1_9,2021-03-28T16:42:21.821Z,,,,,,,,,,,,,,,,54,,,,,,,,,,,,,,344.99400000000605,response,,,,100,,,,,,Space,keypress(Space),,,,,,,,-- --- ---- --- ------ ----- ------- ---- -- its ------- --<br>------- ---------- ------ -- ----- -- ----- -- ---- ------<br>--- ----- --- --- ------ -------- ----- --- ------ ----- --<br>----- ----- ---------- --- --- ------ ------ ---- -- ------<br>------- --- ------ ----- --- ---- ------- -- ---- --- --<br>------- ------,138648.53,138647.04,138285.384,138288.27000000008,138302.046,138684.278,,9,its
screen,html.Screen,1_1_1_1_10,2021-03-28T16:42:22.026Z,,,,,,,,,,,,,,,,54,,,,,,,,,,,,,,167.7520000000659,response,,,,100,,,,,,Space,keypress(Space),,,,,,,,-- --- ---- --- ------ ----- ------- ---- -- --- revenue --<br>------- ---------- ------ -- ----- -- ----- -- ---- ------<br>--- ----- --- --- ------ -------- ----- --- ------ ----- --<br>----- ----- ---------- --- --- ------ ------ ---- -- ------<br>------- --- ------ ----- --- ---- ------- -- ---- --- --<br>------- ------,138853.45,138852.03000000006,138667.666,138650.325,138684.278,138867.172,,10,revenue
screen,html.Screen,1_1_1_1_11,2021-03-28T16:42:22.342Z,,,,,,,,,,,,,,,,54,,,,,,,,,,,,,,300.52800000002026,response,,,,100,,,,,,Space,keypress(Space),,,,,,,,-- --- ---- --- ------ ----- ------- ---- -- --- ------- by<br>------- ---------- ------ -- ----- -- ----- -- ---- ------<br>--- ----- --- --- ------ -------- ----- --- ------ ----- --<br>----- ----- ---------- --- --- ------ ------ ---- -- ------<br>------- --- ------ ----- --- ---- ------- -- ---- --- --<br>------- ------,139168.93499999997,139167.7,138850.498,138853.88500000004,138867.172,139182.987,,11,by
screen,html.Screen,1_1_1_1_12,2021-03-28T16:42:22.612Z,,,,,,,,,,,,,,,,54,,,,,,,,,,,,,,255.0580000000482,response,,,,100,,,,,,Space,keypress(Space),,,,,,,,-- --- ---- --- ------ ----- ------- ---- -- --- ------- --<br>issuing ---------- ------ -- ----- -- ----- -- ---- ------<br>--- ----- --- --- ------ -------- ----- --- ------ ----- --<br>----- ----- ---------- --- --- ------ ------ ---- -- ------<br>------- --- ------ ----- --- ---- ------- -- ---- --- --<br>------- ------,139439.36500000002,139438.04500000004,139166.308,139169.3450000001,139182.987,139448.799,,12,issuing
screen,html.Screen,1_1_1_1_13,2021-03-28T16:42:22.838Z,,,,,,,,,,,,,,,,54,,,,,,,,,,,,,,214.600999999966,response,,,,100,,,,,,Space,keypress(Space),,,,,,,,-- --- ---- --- ------ ----- ------- ---- -- --- ------- --<br>------- government ------ -- ----- -- ----- -- ---- ------<br>--- ----- --- --- ------ -------- ----- --- ------ ----- --<br>----- ----- ---------- --- --- ------ ------ ---- -- ------<br>------- --- ------ ----- --- ---- ------- -- ---- --- --<br>------- ------,139664.58500000005,139663.39999999997,139432.239,139439.75500000003,139448.799,139681.609,,13,government
screen,html.Screen,1_1_1_1_14,2021-03-28T16:42:23.073Z,,,,,,,,,,,,,,,,54,,,,,,,,,,,,,,216.82100000002538,response,,,,100,,,,,,Space,keypress(Space),,,,,,,,-- --- ---- --- ------ ----- ------- ---- -- --- ------- --<br>------- ---------- bonds. -- ----- -- ----- -- ---- ------<br>--- ----- --- --- ------ -------- ----- --- ------ ----- --<br>----- ----- ---------- --- --- ------ ------ ---- -- ------<br>------- --- ------ ----- --- ---- ------- -- ---- --- --<br>------- ------,139899.89500000008,139898.43000000002,139664.96,139665.045,139681.609,139914.154,,14,bonds.
screen,html.Screen,1_1_1_1_15,2021-03-28T16:42:23.483Z,,,,,,,,,,,,,,,,54,,,,,,,,,,,,,,394.6610000000219,response,,,,100,,,,,,Space,keypress(Space),,,,,,,,-- --- ---- --- ------ ----- ------- ---- -- --- ------- --<br>------- ---------- ------ In ----- -- ----- -- ---- ------<br>--- ----- --- --- ------ -------- ----- --- ------ ----- --<br>----- ----- ---------- --- --- ------ ------ ---- -- ------<br>------- --- ------ ----- --- ---- ------- -- ---- --- --<br>------- ------,140310.21000000005,140308.81500000003,139897.634,139900.36000000004,139914.154,140329.761,,15,In
screen,html.Screen,1_1_1_1_16,2021-03-28T16:42:23.713Z,,,,,,,,,,,,,,,,54,,,,,,,,,,,,,,209.55900000003749,response,,,,100,,,,,,Space,keypress(Space),,,,,,,,"-- --- ---- --- ------ ----- ------- ---- -- --- ------- --<br>------- ---------- ------ -- 1727, -- ----- -- ---- ------<br>--- ----- --- --- ------ -------- ----- --- ------ ----- --<br>----- ----- ---------- --- --- ------ ------ ---- -- ------<br>------- --- ------ ----- --- ---- ------- -- ---- --- --<br>------- ------",140540.49000000002,140539.32000000004,140296.448,140310.6000000001,140329.761,140545.819,,16,"1727,"
screen,html.Screen,1_1_1_1_17,2021-03-28T16:42:23.989Z,,,,,,,,,,,,,,,,54,,,,,,,,,,,,,,268.7859999999928,response,,,,100,,,,,,Space,keypress(Space),,,,,,,,-- --- ---- --- ------ ----- ------- ---- -- --- ------- --<br>------- ---------- ------ -- ----- in ----- -- ---- ------<br>--- ----- --- --- ------ -------- ----- --- ------ ----- --<br>----- ----- ---------- --- --- ------ ------ ---- -- ------<br>------- --- ------ ----- --- ---- ------- -- ---- --- --<br>------- ------,140815.71500000003,140814.60499999998,140529.269,140540.77000000002,140545.819,140828.491,,17,in
screen,html.Screen,1_1_1_1_18,2021-03-28T16:42:24.624Z,,,,,,,,,,,,,,,,54,,,,,,,,,,,,,,621.5890000000072,response,,,,100,,,,,,Space,keypress(Space),,,,,,,,-- --- ---- --- ------ ----- ------- ---- -- --- ------- --<br>------- ---------- ------ -- ----- -- order -- ---- ------<br>--- ----- --- --- ------ -------- ----- --- ------ ----- --<br>----- ----- ---------- --- --- ------ ------ ---- -- ------<br>------- --- ------ ----- --- ---- ------- -- ---- --- --<br>------- ------,141451.34999999998,141450.08000000002,140811.823,140815.995,140828.491,141459.979,,18,order
screen,html.Screen,1_1_1_1_19,2021-03-28T16:42:24.970Z,,,,,,,,,,,,,,,,54,,,,,,,,,,,,,,335.5260000000126,response,,,,100,,,,,,Space,keypress(Space),,,,,,,,-- --- ---- --- ------ ----- ------- ---- -- --- ------- --<br>------- ---------- ------ -- ----- -- ----- to ---- ------<br>--- ----- --- --- ------ -------- ----- --- ------ ----- --<br>----- ----- ---------- --- --- ------ ------ ---- -- ------<br>------- --- ------ ----- --- ---- ------- -- ---- --- --<br>------- ------,141796.675,141795.505,141443.419,141451.66999999998,141459.979,141809.071,,19,to
screen,html.Screen,1_1_1_1_20,2021-03-28T16:42:25.270Z,,,,,,,,,,,,,,,,54,,,,,,,,,,,,,,286.6840000000084,response,,,,100,,,,,,Space,keypress(Space),,,,,,,,-- --- ---- --- ------ ----- ------- ---- -- --- ------- --<br>------- ---------- ------ -- ----- -- ----- -- save ------<br>--- ----- --- --- ------ -------- ----- --- ------ ----- --<br>----- ----- ---------- --- --- ------ ------ ---- -- ------<br>------- --- ------ ----- --- ---- ------- -- ---- --- --<br>------- ------,142097.04000000004,142095.755,141792.472,141797.03999999998,141809.071,142108.331,,20,save
screen,html.Screen,1_1_1_1_21,2021-03-28T16:42:25.545Z,,,,,,,,,,,,,,,,54,,,,,,,,,,,,,,262.60900000008405,response,,,,100,,,,,,Space,keypress(Space),,,,,,,,"-- --- ---- --- ------ ----- ------- ---- -- --- ------- --<br>------- ---------- ------ -- ----- -- ----- -- ---- money,<br>--- ----- --- --- ------ -------- ----- --- ------ ----- --<br>----- ----- ---------- --- --- ------ ------ ---- -- ------<br>------- --- ------ ----- --- ---- ------- -- ---- --- --<br>------- ------",142372.12500000003,142370.9400000001,142091.652,142097.45500000002,142108.331,142374.181,,21,"money,"
screen,html.Screen,1_1_1_1_22,2021-03-28T16:42:25.821Z,,,,,,,,,,,,,,,,54,,,,,,,,,,,,,,272.579000000027,response,,,,100,,,,,,Space,keypress(Space),,,,,,,,-- --- ---- --- ------ ----- ------- ---- -- --- ------- --<br>------- ---------- ------ -- ----- -- ----- -- ---- ------<br>the ----- --- --- ------ -------- ----- --- ------ ----- --<br>----- ----- ---------- --- --- ------ ------ ---- -- ------<br>------- --- ------ ----- --- ---- ------- -- ---- --- --<br>------- ------,142648.15500000003,142646.76000000004,142357.599,142372.41499999998,142374.181,142656.754,,22,the
screen,html.Screen,1_1_1_1_23,2021-03-28T16:42:26.076Z,,,,,,,,,,,,,,,,54,,,,,,,,,,,,,,245.24100000000908,response,,,,100,,,,,,Space,keypress(Space),,,,,,,,-- --- ---- --- ------ ----- ------- ---- -- --- ------- --<br>------- ---------- ------ -- ----- -- ----- -- ---- ------<br>--- state --- --- ------ -------- ----- --- ------ ----- --<br>----- ----- ---------- --- --- ------ ------ ---- -- ------<br>------- --- ------ ----- --- ---- ------- -- ---- --- --<br>------- ------,142903.33500000002,142901.995,142640.186,142648.49499999997,142656.754,142906.083,,23,state
screen,html.Screen,1_1_1_1_24,2021-03-28T16:42:26.316Z,,,,,,,,,,,,,,,,54,,,,,,,,,,,,,,236.29200000004494,response,,,,100,,,,,,Space,keypress(Space),,,,,,,,-- --- ---- --- ------ ----- ------- ---- -- --- ------- --<br>------- ---------- ------ -- ----- -- ----- -- ---- ------<br>--- ----- cut --- ------ -------- ----- --- ------ ----- --<br>----- ----- ---------- --- --- ------ ------ ---- -- ------<br>------- --- ------ ----- --- ---- ------- -- ---- --- --<br>------- ------,143143.53499999997,143142.37500000006,142889.53,142903.71,142906.083,143155.49,,24,cut
screen,html.Screen,1_1_1_1_25,2021-03-28T16:42:26.577Z,,,,,,,,,,,,,,,,54,,,,,,,,,,,,,,246.92500000007567,response,,,,100,,,,,,Space,keypress(Space),,,,,,,,-- --- ---- --- ------ ----- ------- ---- -- --- ------- --<br>------- ---------- ------ -- ----- -- ----- -- ---- ------<br>--- ----- --- the ------ -------- ----- --- ------ ----- --<br>----- ----- ---------- --- --- ------ ------ ---- -- ------<br>------- --- ------ ----- --- ---- ------- -- ---- --- --<br>------- ------,143403.565,143402.41500000007,143138.783,143143.89999999997,143155.49,143438.033,,25,the
screen,html.Screen,1_1_1_1_26,2021-03-28T16:42:26.767Z,,,,,,,,,,,,,,,,54,,,,,,,,,,,,,,154.75699999998324,response,,,,100,,,,,,Space,keypress(Space),,,,,,,,-- --- ---- --- ------ ----- ------- ---- -- --- ------- --<br>------- ---------- ------ -- ----- -- ----- -- ---- ------<br>--- ----- --- --- bonds' -------- ----- --- ------ ----- --<br>----- ----- ---------- --- --- ------ ------ ---- -- ------<br>------- --- ------ ----- --- ---- ------- -- ---- --- --<br>------- ------,143593.94000000003,143592.78999999998,143425.214,143403.845,143438.033,143604.248,,26,bonds'
screen,html.Screen,1_1_1_1_27,2021-03-28T16:42:27.028Z,,,,,,,,,,,,,,,,54,,,,,,,,,,,,,,248.74200000002747,response,,,,100,,,,,,Space,keypress(Space),,,,,,,,-- --- ---- --- ------ ----- ------- ---- -- --- ------- --<br>------- ---------- ------ -- ----- -- ----- -- ---- ------<br>--- ----- --- --- ------ interest ----- --- ------ ----- --<br>----- ----- ---------- --- --- ------ ------ ---- -- ------<br>------- --- ------ ----- --- ---- ------- -- ---- --- --<br>------- ------,143854.93000000002,143852.99000000002,143587.575,143594.24500000005,143604.248,143870.187,,27,interest
screen,html.Screen,1_1_1_1_28,2021-03-28T16:42:27.313Z,,,,,,,,,,,,,,,,54,,,,,,,,,,,,,,268.27800000004936,response,,,,100,,,,,,Space,keypress(Space),,,,,,,,-- --- ---- --- ------ ----- ------- ---- -- --- ------- --<br>------- ---------- ------ -- ----- -- ----- -- ---- ------<br>--- ----- --- --- ------ -------- rate. --- ------ ----- --<br>----- ----- ---------- --- --- ------ ------ ---- -- ------<br>------- --- ------ ----- --- ---- ------- -- ---- --- --<br>------- ------,144139.66499999998,144138.46500000005,143853.508,143855.215,143870.187,144152.75,,28,rate.
screen,html.Screen,1_1_1_1_29,2021-03-28T16:42:27.603Z,,,,,,,,,,,,,,,,54,,,,,,,,,,,,,,275.8950000000186,response,,,,100,,,,,,Space,keypress(Space),,,,,,,,-- --- ---- --- ------ ----- ------- ---- -- --- ------- --<br>------- ---------- ------ -- ----- -- ----- -- ---- ------<br>--- ----- --- --- ------ -------- ----- The ------ ----- --<br>----- ----- ---------- --- --- ------ ------ ---- -- ------<br>------- --- ------ ----- --- ---- ------- -- ---- --- --<br>------- ------,144429.79500000007,144428.64500000002,144136.079,144139.94500000007,144152.75,144435.225,,29,The
screen,html.Screen,1_1_1_1_30,2021-03-28T16:42:27.859Z,,,,,,,,,,,,,,,,54,,,,,,,,,,,,,,248.96000000002095,response,,,,100,,,,,,Space,keypress(Space),,,,,,,,-- --- ---- --- ------ ----- ------- ---- -- --- ------- --<br>------- ---------- ------ -- ----- -- ----- -- ---- ------<br>--- ----- --- --- ------ -------- ----- --- market ----- --<br>----- ----- ---------- --- --- ------ ------ ---- -- ------<br>------- --- ------ ----- --- ---- ------- -- ---- --- --<br>------- ------,144685.96500000005,144684.18500000003,144418.64,144430.11000000007,144435.225,144701.248,,30,market
screen,html.Screen,1_1_1_1_31,2021-03-28T16:42:28.069Z,,,,,,,,,,,,,,,,54,,,,,,,,,,,,,,193.137000000017,response,,,,100,,,,,,Space,keypress(Space),,,,,,,,-- --- ---- --- ------ ----- ------- ---- -- --- ------- --<br>------- ---------- ------ -- ----- -- ----- -- ---- ------<br>--- ----- --- --- ------ -------- ----- --- ------ value --<br>----- ----- ---------- --- --- ------ ------ ---- -- ------<br>------- --- ------ ----- --- ---- ------- -- ---- --- --<br>------- ------,144895.56499999997,144894.385,144684.587,144686.28000000006,144701.248,144900.614,,31,value
screen,html.Screen,1_1_1_1_32,2021-03-28T16:42:28.334Z,,,,,,,,,,,,,,,,54,,,,,,,,,,,,,,259.1160000000091,response,,,,100,,,,,,Space,keypress(Space),,,,,,,,-- --- ---- --- ------ ----- ------- ---- -- --- ------- --<br>------- ---------- ------ -- ----- -- ----- -- ---- ------<br>--- ----- --- --- ------ -------- ----- --- ------ ----- of<br>----- ----- ---------- --- --- ------ ------ ---- -- ------<br>------- --- ------ ----- --- ---- ------- -- ---- --- --<br>------- ------,145160.99500000002,145159.73,144884.042,144895.84500000006,144900.614,145166.5,,32,of
screen,html.Screen,1_1_1_1_33,2021-03-28T16:42:28.584Z,,,,,,,,,,,,,,,,54,,,,,,,,,,,,,,243.4900000000489,response,,,,100,,,,,,Space,keypress(Space),,,,,,,,-- --- ---- --- ------ ----- ------- ---- -- --- ------- --<br>------- ---------- ------ -- ----- -- ----- -- ---- ------<br>--- ----- --- --- ------ -------- ----- --- ------ ----- --<br>these ----- ---------- --- --- ------ ------ ---- -- ------<br>------- --- ------ ----- --- ---- ------- -- ---- --- --<br>------- ------,145411.18,145409.99000000005,145149.987,145161.42500000008,145166.5,145415.821,,33,these
screen,html.Screen,1_1_1_1_34,2021-03-28T16:42:28.805Z,,,,,,,,,,,,,,,,54,,,,,,,,,,,,,,214.54900000002817,response,,,,100,,,,,,Space,keypress(Space),,,,,,,,-- --- ---- --- ------ ----- ------- ---- -- --- ------- --<br>------- ---------- ------ -- ----- -- ----- -- ---- ------<br>--- ----- --- --- ------ -------- ----- --- ------ ----- --<br>----- bonds ---------- --- --- ------ ------ ---- -- ------<br>------- --- ------ ----- --- ---- ------- -- ---- --- --<br>------- ------,145631.61500000008,145630.37000000002,145399.32,145411.585,145415.821,145648.662,,34,bonds
screen,html.Screen,1_1_1_1_35,2021-03-28T16:42:29.080Z,,,,,,,,,,,,,,,,54,,,,,,,,,,,,,,257.05300000004354,response,,,,100,,,,,,Space,keypress(Space),,,,,,,,"-- --- ---- --- ------ ----- ------- ---- -- --- ------- --<br>------- ---------- ------ -- ----- -- ----- -- ---- ------<br>--- ----- --- --- ------ -------- ----- --- ------ ----- --<br>----- ----- plummeted, --- --- ------ ------ ---- -- ------<br>------- --- ------ ----- --- ---- ------- -- ---- --- --<br>------- ------",145907.04,145905.71500000005,145632.011,145632.22000000003,145648.662,145914.519,,35,"plummeted,"
screen,html.Screen,1_1_1_1_36,2021-03-28T16:42:29.357Z,,,,,,,,,,,,,,,,54,,,,,,,,,,,,,,267.90600000001723,response,,,,100,,,,,,Space,keypress(Space),,,,,,,,-- --- ---- --- ------ ----- ------- ---- -- --- ------- --<br>------- ---------- ------ -- ----- -- ----- -- ---- ------<br>--- ----- --- --- ------ -------- ----- --- ------ ----- --<br>----- ----- ---------- and --- ------ ------ ---- -- ------<br>------- --- ------ ----- --- ---- ------- -- ---- --- --<br>------- ------,146183.72000000006,146182.42500000002,145897.924,145907.4,145914.519,146197.057,,36,and
screen,html.Screen,1_1_1_1_37,2021-03-28T16:42:29.595Z,,,,,,,,,,,,,,,,54,,,,,,,,,,,,,,223.98300000000745,response,,,,100,,,,,,Space,keypress(Space),,,,,,,,-- --- ---- --- ------ ----- ------- ---- -- --- ------- --<br>------- ---------- ------ -- ----- -- ----- -- ---- ------<br>--- ----- --- --- ------ -------- ----- --- ------ ----- --<br>----- ----- ---------- --- the ------ ------ ---- -- ------<br>------- --- ------ ----- --- ---- ------- -- ---- --- --<br>------- ------,146422.16999999998,146421.04,146180.509,146184.02,146197.057,146429.717,,37,the
screen,html.Screen,1_1_1_1_38,2021-03-28T16:42:29.796Z,,,,,,,,,,,,,,,,54,,,,,,,,,,,,,,191.95300000003772,response,,,,100,,,,,,Space,keypress(Space),,,,,,,,-- --- ---- --- ------ ----- ------- ---- -- --- ------- --<br>------- ---------- ------ -- ----- -- ----- -- ---- ------<br>--- ----- --- --- ------ -------- ----- --- ------ ----- --<br>----- ----- ---------- --- --- market ------ ---- -- ------<br>------- --- ------ ----- --- ---- ------- -- ---- --- --<br>------- ------,146622.74000000008,146621.67000000004,146413.188,146422.44999999998,146429.717,146629.226,,38,market
screen,html.Screen,1_1_1_1_39,2021-03-28T16:42:29.961Z,,,,,,,,,,,,,,,,54,,,,,,,,,,,,,,157.72899999999208,response,,,,100,,,,,,Space,keypress(Space),,,,,,,,-- --- ---- --- ------ ----- ------- ---- -- --- ------- --<br>------- ---------- ------ -- ----- -- ----- -- ---- ------<br>--- ----- --- --- ------ -------- ----- --- ------ ----- --<br>----- ----- ---------- --- --- ------ became ---- -- ------<br>------- --- ------ ----- --- ---- ------- -- ---- --- --<br>------- ------,146788.21,146786.955,146612.659,146623.02000000005,146629.226,146795.433,,39,became
screen,html.Screen,1_1_1_1_40,2021-03-28T16:42:30.196Z,,,,,,,,,,,,,,,,54,,,,,,,,,,,,,,226.99200000005658,response,,,,100,,,,,,Space,keypress(Space),,,,,,,,-- --- ---- --- ------ ----- ------- ---- -- --- ------- --<br>------- ---------- ------ -- ----- -- ----- -- ---- ------<br>--- ----- --- --- ------ -------- ----- --- ------ ----- --<br>----- ----- ---------- --- --- ------ ------ wary -- ------<br>------- --- ------ ----- --- ---- ------- -- ---- --- --<br>------- ------,147023.525,147022.42500000005,146778.871,146788.485,146795.433,147028.144,,40,wary
screen,html.Screen,1_1_1_1_41,2021-03-28T16:42:30.442Z,,,,,,,,,,,,,,,,54,,,,,,,,,,,,,,239.40099999998347,response,,,,100,,,,,,Space,keypress(Space),,,,,,,,-- --- ---- --- ------ ----- ------- ---- -- --- ------- --<br>------- ---------- ------ -- ----- -- ----- -- ---- ------<br>--- ----- --- --- ------ -------- ----- --- ------ ----- --<br>----- ----- ---------- --- --- ------ ------ ---- of ------<br>------- --- ------ ----- --- ---- ------- -- ---- --- --<br>------- ------,147268.75999999998,147267.54499999998,147011.585,147023.85499999998,147028.144,147277.447,,41,of
screen,html.Screen,1_1_1_1_42,2021-03-28T16:42:30.714Z,,,,,,,,,,,,,,,,54,,,,,,,,,,,,,,262.5130000000354,response,,,,100,,,,,,Space,keypress(Space),,,,,,,,-- --- ---- --- ------ ----- ------- ---- -- --- ------- --<br>------- ---------- ------ -- ----- -- ----- -- ---- ------<br>--- ----- --- --- ------ -------- ----- --- ------ ----- --<br>----- ----- ---------- --- --- ------ ------ ---- -- French<br>------- --- ------ ----- --- ---- ------- -- ---- --- --<br>------- ------,147541.07500000004,147539.96000000002,147260.896,147269.13000000006,147277.447,147543.385,,42,French
screen,html.Screen,1_1_1_1_43,2021-03-28T16:42:31.017Z,,,,,,,,,,,,,,,,54,,,,,,,,,,,,,,299.98499999998603,response,,,,100,,,,,,Space,keypress(Space),,,,,,,,-- --- ---- --- ------ ----- ------- ---- -- --- ------- --<br>------- ---------- ------ -- ----- -- ----- -- ---- ------<br>--- ----- --- --- ------ -------- ----- --- ------ ----- --<br>----- ----- ---------- --- --- ------ ------ ---- -- ------<br>credit. --- ------ ----- --- ---- ------- -- ---- --- --<br>------- ------,147844.49000000002,147843.37,147526.839,147541.355,147543.385,147859.294,,43,credit.
screen,html.Screen,1_1_1_1_44,2021-03-28T16:42:31.318Z,,,,,,,,,,,,,,,,54,,,,,,,,,,,,,,284.10599999999977,response,,,,100,,,,,,Space,keypress(Space),,,,,,,,-- --- ---- --- ------ ----- ------- ---- -- --- ------- --<br>------- ---------- ------ -- ----- -- ----- -- ---- ------<br>--- ----- --- --- ------ -------- ----- --- ------ ----- --<br>----- ----- ---------- --- --- ------ ------ ---- -- ------<br>------- The ------ ----- --- ---- ------- -- ---- --- --<br>------- ------,148144.655,148143.4,147842.645,147844.79000000004,147859.294,148158.494,,44,The
screen,html.Screen,1_1_1_1_45,2021-03-28T16:42:31.583Z,,,,,,,,,,,,,,,,54,,,,,,,,,,,,,,250.48099999999977,response,,,,100,,,,,,Space,keypress(Space),,,,,,,,-- --- ---- --- ------ ----- ------- ---- -- --- ------- --<br>------- ---------- ------ -- ----- -- ----- -- ---- ------<br>--- ----- --- --- ------ -------- ----- --- ------ ----- --<br>----- ----- ---------- --- --- ------ ------ ---- -- ------<br>------- --- French ----- --- ---- ------- -- ---- --- --<br>------- ------,148410.14,148408.975,148141.804,148145.03500000006,148158.494,148424.434,,45,French
screen,html.Screen,1_1_1_1_46,2021-03-28T16:42:31.779Z,,,,,,,,,,,,,,,,54,,,,,,,,,,,,,,180.0209999999788,response,,,,100,,,,,,Space,keypress(Space),,,,,,,,-- --- ---- --- ------ ----- ------- ---- -- --- ------- --<br>------- ---------- ------ -- ----- -- ----- -- ---- ------<br>--- ----- --- --- ------ -------- ----- --- ------ ----- --<br>----- ----- ---------- --- --- ------ ------ ---- -- ------<br>------- --- ------ state --- ---- ------- -- ---- --- --<br>------- ------,148605.60000000003,148604.455,148407.714,148410.43000000008,148424.434,148633.586,,46,state
screen,html.Screen,1_1_1_1_47,2021-03-28T16:42:32.094Z,,,,,,,,,,,,,,,,54,,,,,,,,,,,,,,286.17900000003283,response,,,,100,,,,,,Space,keypress(Space),,,,,,,,-- --- ---- --- ------ ----- ------- ---- -- --- ------- --<br>------- ---------- ------ -- ----- -- ----- -- ---- ------<br>--- ----- --- --- ------ -------- ----- --- ------ ----- --<br>----- ----- ---------- --- --- ------ ------ ---- -- ------<br>------- --- ------ ----- was ---- ------- -- ---- --- --<br>------- ------,148921.00499999998,148919.76500000004,148590.582,148605.885,148633.586,148949.991,,47,was
screen,html.Screen,1_1_1_1_48,2021-03-28T16:42:32.330Z,,,,,,,,,,,,,,,,54,,,,,,,,,,,,,,205.19899999999325,response,,,,100,,,,,,Space,keypress(Space),,,,,,,,-- --- ---- --- ------ ----- ------- ---- -- --- ------- --<br>------- ---------- ------ -- ----- -- ----- -- ---- ------<br>--- ----- --- --- ------ -------- ----- --- ------ ----- --<br>----- ----- ---------- --- --- ------ ------ ---- -- ------<br>------- --- ------ ----- --- left ------- -- ---- --- --<br>------- ------,149157.4,149155.19,148906.397,148921.37000000008,148949.991,149172.388,,48,left
screen,html.Screen,1_1_1_1_49,2021-03-28T16:42:32.584Z,,,,,,,,,,,,,,,,54,,,,,,,,,,,,,,237.86700000005658,response,,,,100,,,,,,Space,keypress(Space),,,,,,,,-- --- ---- --- ------ ----- ------- ---- -- --- ------- --<br>------- ---------- ------ -- ----- -- ----- -- ---- ------<br>--- ----- --- --- ------ -------- ----- --- ------ ----- --<br>----- ----- ---------- --- --- ------ ------ ---- -- ------<br>------- --- ------ ----- --- ---- without -- ---- --- --<br>------- ------,149411.48000000004,149410.25500000006,149155.72,149157.76999999996,149172.388,149421.68,,49,without
screen,html.Screen,1_1_1_1_50,2021-03-28T16:42:32.846Z,,,,,,,,,,,,,,,,54,,,,,,,,,,,,,,249.12000000005355,response,,,,100,,,,,,Space,keypress(Space),,,,,,,,-- --- ---- --- ------ ----- ------- ---- -- --- ------- --<br>------- ---------- ------ -- ----- -- ----- -- ---- ------<br>--- ----- --- --- ------ -------- ----- --- ------ ----- --<br>----- ----- ---------- --- --- ------ ------ ---- -- ------<br>------- --- ------ ----- --- ---- ------- an ---- --- --<br>------- ------,149672.57,149670.80000000005,149405.03,149411.86,149421.68,149687.645,,50,an
screen,html.Screen,1_1_1_1_51,2021-03-28T16:42:33.066Z,,,,,,,,,,,,,,,,54,,,,,,,,,,,,,,203.98500000004424,response,,,,100,,,,,,Space,keypress(Space),,,,,,,,-- --- ---- --- ------ ----- ------- ---- -- --- ------- --<br>------- ---------- ------ -- ----- -- ----- -- ---- ------<br>--- ----- --- --- ------ -------- ----- --- ------ ----- --<br>----- ----- ---------- --- --- ------ ------ ---- -- ------<br>------- --- ------ ----- --- ---- ------- -- easy --- --<br>------- ------,149892.77,149891.63000000003,149670.973,149672.94499999998,149687.645,149903.724,,51,easy
screen,html.Screen,1_1_1_1_52,2021-03-28T16:42:33.277Z,,,,,,,,,,,,,,,,54,,,,,,,,,,,,,,197.8059999999823,response,,,,100,,,,,,Space,keypress(Space),,,,,,,,-- --- ---- --- ------ ----- ------- ---- -- --- ------- --<br>------- ---------- ------ -- ----- -- ----- -- ---- ------<br>--- ----- --- --- ------ -------- ----- --- ------ ----- --<br>----- ----- ---------- --- --- ------ ------ ---- -- ------<br>------- --- ------ ----- --- ---- ------- -- ---- way --<br>------- ------,150103.82499999998,150101.52999999997,149887.049,149893.06500000003,149903.724,150119.797,,52,way
screen,html.Screen,1_1_1_1_53,2021-03-28T16:42:33.527Z,,,,,,,,,,,,,,,,54,,,,,,,,,,,,,,232.00299999996787,response,,,,100,,,,,,Space,keypress(Space),,,,,,,,-- --- ---- --- ------ ----- ------- ---- -- --- ------- --<br>------- ---------- ------ -- ----- -- ----- -- ---- ------<br>--- ----- --- --- ------ -------- ----- --- ------ ----- --<br>----- ----- ---------- --- --- ------ ------ ---- -- ------<br>------- --- ------ ----- --- ---- ------- -- ---- --- of<br>------- ------,150353.735,150351.79999999996,150103.126,150104.215,150119.797,150369.117,,53,of
screen,html.Screen,1_1_1_1_54,2021-03-28T16:42:33.842Z,,,,,,,,,,,,,,,,54,,,,,,,,,,,,,,298.09799999999814,response,,,,100,,,,,,Space,keypress(Space),,,,,,,,-- --- ---- --- ------ ----- ------- ---- -- --- ------- --<br>------- ---------- ------ -- ----- -- ----- -- ---- ------<br>--- ----- --- --- ------ -------- ----- --- ------ ----- --<br>----- ----- ---------- --- --- ------ ------ ---- -- ------<br>------- --- ------ ----- --- ---- ------- -- ---- --- --<br>raising ------,150668.88499999998,150667.215,150352.429,150354.02000000005,150369.117,150684.787,,54,raising
screen,html.Screen,1_1_1_1_55,2021-03-28T16:42:34.062Z,,,,,,,,,,,,,,,,54,,,,,,,,,,,,,,202.87800000002608,response,,,,100,,,,,,Space,keypress(Space),,,,,,,,-- --- ---- --- ------ ----- ------- ---- -- --- ------- --<br>------- ---------- ------ -- ----- -- ----- -- ---- ------<br>--- ----- --- --- ------ -------- ----- --- ------ ----- --<br>----- ----- ---------- --- --- ------ ------ ---- -- ------<br>------- --- ------ ----- --- ---- ------- -- ---- --- --<br>------- money.,150889.01000000004,150887.66500000004,150668.208,150669.465,150684.787,150900.908,,55,money.
Item 100,flow.Loop,1_1_1_1,2021-03-28T16:42:34.063Z,,,,,,,,,,,,,,,,,,,,,,,,,,,,,,16076.234000000026,completion,,,,,B,,,,,,,,,,silence,,,,,150889.59500000003,150887.66500000004,134794.914,134796.70000000004,134811.431,150900.908,,,
Question 1,html.Screen,1_1_1_2,2021-03-28T16:42:36.839Z,,,,,,,,,,,,,,,,,,,,,,,,,,,true,TRUE,,2764.487000000052,response,,,,100,B,,,,,TRUE,click #choice-1,,,,silence,,,,,153666.24500000005,153665.39500000005,150884.266,150889.86000000004,150900.908,153676.593,,,
Question 2,html.Screen,1_1_1_3,2021-03-28T16:42:38.467Z,,,,,,,,,,,,,,,,,,,,,,,,,,,true,FALSE,,1616.7420000000275,response,,,,100,B,,,,,FALSE,click #choice-2,,,,silence,,,,,155294.08500000005,155293.33500000002,153660.09,153666.38000000006,153676.593,155305.611,,,
Item 100,flow.Sequence,1_1_1,2021-03-28T16:42:38.467Z,,,,,,,,,,,,,,,,,,,,,,,,,,,,,,27479.386000000028,completion,,,,,,,,,,,,,,,,,,,,155294.27000000005,155293.33500000002,127797.367,127804.10999999999,127813.949,155305.611,,,
End of Practice,html.Page,1_1_2,2021-03-28T16:42:42.019Z,,,,,,,,,,,,,,,,,,,,,,,,,,,,,,3540.6540000000678,form submission,,,,,,,,,,,,,,,,,,,,158846.76500000007,158846.26500000007,155289.002,155294.37000000002,155305.611,158877.196,,,
Practice,flow.Sequence,1_1,2021-03-28T16:42:42.020Z,,,,,,,,,,,,,,,,,,,,,,,,,,,,,,60634.96100000007,completion,,,,,,,,,,,,,,,,,,,,158846.96500000003,158846.26500000007,98194.792,98207.01000000002,98211.304,158877.196,,,
Trap_instruction,html.Page,1_2_0,2021-03-28T16:42:44.962Z,,,,,,,,,,,,,,,,,,,,,,,,,,,,,,2911.3190000000177,form submission,,,,,,,,,,,,,,,,,,,,161788.98500000007,161788.515,158829.289,158847.09000000003,158877.196,161804.391,,,
trap_trial,html.Screen,1_2_1,2021-03-28T16:42:47.261Z,,,,,,,,,,,,,,,,,,,,,,,,,,,true,1,,2282.8390000000363,response,,,,,,,,,,1,click #choice-1,,,,,,,,,164088.13000000003,164087.23000000004,161787.852,161789.09000000005,161804.391,164098.154,,,
end of trap trial,html.Page,1_2_2,2021-03-28T16:42:48.865Z,,,,,,,,,,,,,,,,,,,,,,,,,,,,,,1593.9609999999811,form submission,,,,,,,,,,,,,,,,,,,,165692.515,165692.115,164081.718,164088.25500000006,164098.154,165693.797,,,
Trap 1,flow.Sequence,1_2,2021-03-28T16:42:48.865Z,,,,,,,,,,,,,,,,,,,,,,,,,,,,,,6814.918999999994,completion,,,,,,,,,,,,,,,,,,,,165692.69000000003,165692.115,158829.289,158847.05000000002,158877.196,165693.797,,,
Holding screen,html.Screen,1_3_0_0,2021-03-28T16:42:55.849Z,,,,,,,,,,,,,,,,,,,,,,,,,,,,,,6997.646000000008,timeout,,,,,,,,,,,,,,,,,,,,172676.44,172674.873,165677.293,165692.87500000003,165693.797,172691.443,,,
screen,html.Screen,1_3_0_1_0,2021-03-28T16:42:56.305Z,,,,,,,,,,,,,,,,15,,,,,,,,,,,,,,439.9470000000729,response,,,,7,B,,,,,Space,keypress(Space),,,,lyrical,,,,Greg --------- ---------- - --- ------- -- --- ------------<br>----- -- -------- ------- ---- ------ - -------- ---- -----<br>--- ------- ---- -- --- -------- --- - ----- ------ ---- --<br>-------- --- -------- -------- --- -------- ---- -- ----- -<br>-------- ---- --- ---------- --------- -- ------- ------ -<br>--------- ----- -----,173132.94000000003,173131.39000000007,172674.873,172676.81,172691.443,173140.205,,0,Greg
screen,html.Screen,1_3_0_1_1,2021-03-28T16:42:56.644Z,,,,,,,,,,,,,,,,15,,,,,,,,,,,,,,330.1600000000908,response,,,,7,B,,,,,Space,keypress(Space),,,,lyrical,,,,"---- Anderson, ---------- - --- ------- -- --- ------------<br>----- -- -------- ------- ---- ------ - -------- ---- -----<br>--- ------- ---- -- --- -------- --- - ----- ------ ---- --<br>-------- --- -------- -------- --- -------- ---- -- ----- -<br>-------- ---- --- ---------- --------- -- ------- ------ -<br>--------- ----- -----",173471.525,173470.36500000008,173123.593,173133.305,173140.205,173505.967,,1,"Anderson,"
screen,html.Screen,1_3_0_1_2,2021-03-28T16:42:56.914Z,,,,,,,,,,,,,,,,15,,,,,,,,,,,,,,234.37799999999697,response,,,,7,B,,,,,Space,keypress(Space),,,,lyrical,,,,---- --------- considered - --- ------- -- --- ------------<br>----- -- -------- ------- ---- ------ - -------- ---- -----<br>--- ------- ---- -- --- -------- --- - ----- ------ ---- --<br>-------- --- -------- -------- --- -------- ---- -- ----- -<br>-------- ---- --- ---------- --------- -- ------- ------ -<br>--------- ----- -----,173741.425,173740.345,173490.07,173471.81000000006,173505.967,173755.32,,2,considered
screen,html.Screen,1_3_0_1_3,2021-03-28T16:42:57.205Z,,,,,,,,,,,,,,,,15,,,,,,,,,,,,,,275.6500000000815,response,,,,7,B,,,,,Space,keypress(Space),,,,lyrical,,,,---- --------- ---------- a --- ------- -- --- ------------<br>----- -- -------- ------- ---- ------ - -------- ---- -----<br>--- ------- ---- -- --- -------- --- - ----- ------ ---- --<br>-------- --- -------- -------- --- -------- ---- -- ----- -<br>-------- ---- --- ---------- --------- -- ------- ------ -<br>--------- ----- -----,174032.18499999997,174030.9700000001,173738.599,173741.70500000007,173755.32,174037.715,,3,a
screen,html.Screen,1_3_0_1_4,2021-03-28T16:42:57.405Z,,,,,,,,,,,,,,,,15,,,,,,,,,,,,,,193.51500000004307,response,,,,7,B,,,,,Space,keypress(Space),,,,lyrical,,,,---- --------- ---------- - key ------- -- --- ------------<br>----- -- -------- ------- ---- ------ - -------- ---- -----<br>--- ------- ---- -- --- -------- --- - ----- ------ ---- --<br>-------- --- -------- -------- --- -------- ---- -- ----- -<br>-------- ---- --- ---------- --------- -- ------- ------ -<br>--------- ----- -----,174232.33,174231.23000000004,174021.174,174032.48,174037.715,174237.227,,4,key
screen,html.Screen,1_3_0_1_5,2021-03-28T16:42:57.630Z,,,,,,,,,,,,,,,,15,,,,,,,,,,,,,,219.3630000000412,response,,,,7,B,,,,,Space,keypress(Space),,,,lyrical,,,,---- --------- ---------- - --- witness -- --- ------------<br>----- -- -------- ------- ---- ------ - -------- ---- -----<br>--- ------- ---- -- --- -------- --- - ----- ------ ---- --<br>-------- --- -------- -------- --- -------- ---- -- ----- -<br>-------- ---- --- ---------- --------- -- ------- ------ -<br>--------- ----- -----,174457.64,174456.59000000005,174220.712,174232.61500000008,174237.227,174469.927,,5,witness
screen,html.Screen,1_3_0_1_6,2021-03-28T16:42:57.855Z,,,,,,,,,,,,,,,,15,,,,,,,,,,,,,,211.56299999999464,response,,,,7,B,,,,,Space,keypress(Space),,,,lyrical,,,,---- --------- ---------- - --- ------- by --- ------------<br>----- -- -------- ------- ---- ------ - -------- ---- -----<br>--- ------- ---- -- --- -------- --- - ----- ------ ---- --<br>-------- --- -------- -------- --- -------- ---- -- ----- -<br>-------- ---- --- ---------- --------- -- ------- ------ -<br>--------- ----- -----,174682.515,174681.49,174453.341,174457.94500000007,174469.927,174685.986,,6,by
screen,html.Screen,1_3_0_1_7,2021-03-28T16:42:58.131Z,,,,,,,,,,,,,,,,15,,,,,,,,,,,,,,271.11900000000605,response,,,,7,B,,,,,Space,keypress(Space),,,,lyrical,,,,---- --------- ---------- - --- ------- -- the ------------<br>----- -- -------- ------- ---- ------ - -------- ---- -----<br>--- ------- ---- -- --- -------- --- - ----- ------ ---- --<br>-------- --- -------- -------- --- -------- ---- -- ----- -<br>-------- ---- --- ---------- --------- -- ------- ------ -<br>--------- ----- -----,174958.25500000006,174957.105,174669.414,174682.80499999996,174685.986,174968.514,,7,the
screen,html.Screen,1_3_0_1_8,2021-03-28T16:42:58.436Z,,,,,,,,,,,,,,,,15,,,,,,,,,,,,,,293.96100000006845,response,,,,7,B,,,,,Space,keypress(Space),,,,lyrical,,,,"---- --------- ---------- - --- ------- -- --- prosecution,<br>----- -- -------- ------- ---- ------ - -------- ---- -----<br>--- ------- ---- -- --- -------- --- - ----- ------ ---- --<br>-------- --- -------- -------- --- -------- ---- -- ----- -<br>-------- ---- --- ---------- --------- -- ------- ------ -<br>--------- ----- -----",175263.845,175262.47500000006,174951.954,174958.53500000003,174968.514,175267.771,,8,"prosecution,"
screen,html.Screen,1_3_0_1_9,2021-03-28T16:42:58.776Z,,,,,,,,,,,,,,,,15,,,,,,,,,,,,,,334.89400000005844,response,,,,7,B,,,,,Space,keypress(Space),,,,lyrical,,,,---- --------- ---------- - --- ------- -- --- ------------<br>vowed -- -------- ------- ---- ------ - -------- ---- -----<br>--- ------- ---- -- --- -------- --- - ----- ------ ---- --<br>-------- --- -------- -------- --- -------- ---- -- ----- -<br>-------- ---- --- ---------- --------- -- ------- ------ -<br>--------- ----- -----,175603.945,175602.66500000007,175251.167,175264.16999999998,175267.771,175616.886,,9,vowed
screen,html.Screen,1_3_0_1_10,2021-03-28T16:42:59.124Z,,,,,,,,,,,,,,,,15,,,,,,,,,,,,,,333.6139999999723,response,,,,7,B,,,,,Space,keypress(Space),,,,lyrical,,,,---- --------- ---------- - --- ------- -- --- ------------<br>----- he -------- ------- ---- ------ - -------- ---- -----<br>--- ------- ---- -- --- -------- --- - ----- ------ ---- --<br>-------- --- -------- -------- --- -------- ---- -- ----- -<br>-------- ---- --- ---------- --------- -- ------- ------ -<br>--------- ----- -----,175951.8,175950.49999999997,175600.233,175604.31999999998,175616.886,175965.925,,10,he
screen,html.Screen,1_3_0_1_11,2021-03-28T16:42:59.408Z,,,,,,,,,,,,,,,,15,,,,,,,,,,,,,,267.5900000000838,response,,,,7,B,,,,,Space,keypress(Space),,,,lyrical,,,,---- --------- ---------- - --- ------- -- --- ------------<br>----- -- wouldn't ------- ---- ------ - -------- ---- -----<br>--- ------- ---- -- --- -------- --- - ----- ------ ---- --<br>-------- --- -------- -------- --- -------- ---- -- ----- -<br>-------- ---- --- ---------- --------- -- ------- ------ -<br>--------- ----- -----,176235.345,176233.51500000007,175949.204,175952.13000000006,175965.925,176248.482,,11,wouldn't
screen,html.Screen,1_3_0_1_12,2021-03-28T16:42:59.702Z,,,,,,,,,,,,,,,,15,,,,,,,,,,,,,,280.1380000000063,response,,,,7,B,,,,,Space,keypress(Space),,,,lyrical,,,,---- --------- ---------- - --- ------- -- --- ------------<br>----- -- -------- testify ---- ------ - -------- ---- -----<br>--- ------- ---- -- --- -------- --- - ----- ------ ---- --<br>-------- --- -------- -------- --- -------- ---- -- ----- -<br>-------- ---- --- ---------- --------- -- ------- ------ -<br>--------- ----- -----,176529.81000000006,176528.62,176231.844,176235.66999999998,176248.482,176564.296,,12,testify
screen,html.Screen,1_3_0_1_13,2021-03-28T16:42:59.983Z,,,,,,,,,,,,,,,,15,,,,,,,,,,,,,,244.9090000000724,response,,,,7,B,,,,,Space,keypress(Space),,,,lyrical,,,,---- --------- ---------- - --- ------- -- --- ------------<br>----- -- -------- ------- when ------ - -------- ---- -----<br>--- ------- ---- -- --- -------- --- - ----- ------ ---- --<br>-------- --- -------- -------- --- -------- ---- -- ----- -<br>-------- ---- --- ---------- --------- -- ------- ------ -<br>--------- ----- -----,176810.7800000001,176809.20500000007,176548.398,176530.12500000006,176564.296,176813.511,,13,when
screen,html.Screen,1_3_0_1_14,2021-03-28T16:43:00.228Z,,,,,,,,,,,,,,,,15,,,,,,,,,,,,,,240.78900000007707,response,,,,7,B,,,,,Space,keypress(Space),,,,lyrical,,,,---- --------- ---------- - --- ------- -- --- ------------<br>----- -- -------- ------- ---- served - -------- ---- -----<br>--- ------- ---- -- --- -------- --- - ----- ------ ---- --<br>-------- --- -------- -------- --- -------- ---- -- ----- -<br>-------- ---- --- ---------- --------- -- ------- ------ -<br>--------- ----- -----,177055.57000000004,177054.30000000008,176796.932,176811.17,176813.511,177079.424,,14,served
screen,html.Screen,1_3_0_1_15,2021-03-28T16:43:00.549Z,,,,,,,,,,,,,,,,15,,,,,,,,,,,,,,295.9410000000498,response,,,,7,B,,,,,Space,keypress(Space),,,,lyrical,,,,---- --------- ---------- - --- ------- -- --- ------------<br>----- -- -------- ------- ---- ------ a -------- ---- -----<br>--- ------- ---- -- --- -------- --- - ----- ------ ---- --<br>-------- --- -------- -------- --- -------- ---- -- ----- -<br>-------- ---- --- ---------- --------- -- ------- ------ -<br>--------- ----- -----,177376.69999999998,177375.36500000005,177046.206,177055.94999999998,177079.424,177398.978,,15,a
screen,html.Screen,1_3_0_1_16,2021-03-28T16:43:00.804Z,,,,,,,,,,,,,,,,15,,,,,,,,,,,,,,231.3169999999809,response,,,,7,B,,,,,Space,keypress(Space),,,,lyrical,,,,---- --------- ---------- - --- ------- -- --- ------------<br>----- -- -------- ------- ---- ------ - subpoena ---- -----<br>--- ------- ---- -- --- -------- --- - ----- ------ ---- --<br>-------- --- -------- -------- --- -------- ---- -- ----- -<br>-------- ---- --- ---------- --------- -- ------- ------ -<br>--------- ----- -----,177631.48500000004,177630.29499999998,177362.124,177377.03500000003,177398.978,177644.691,,16,subpoena
screen,html.Screen,1_3_0_1_17,2021-03-28T16:43:01.114Z,,,,,,,,,,,,,,,,15,,,,,,,,,,,,,,295.7940000000235,response,,,,7,B,,,,,Space,keypress(Space),,,,lyrical,,,,---- --------- ---------- - --- ------- -- --- ------------<br>----- -- -------- ------- ---- ------ - -------- last -----<br>--- ------- ---- -- --- -------- --- - ----- ------ ---- --<br>-------- --- -------- -------- --- -------- ---- -- ----- -<br>-------- ---- --- ---------- --------- -- ------- ------ -<br>--------- ----- -----,177941.68000000008,177940.48500000002,177628.086,177631.76500000004,177644.691,177978.039,,17,last
screen,html.Screen,1_3_0_1_18,2021-03-28T16:43:01.395Z,,,,,,,,,,,,,,,,15,,,,,,,,,,,,,,242.81099999998696,response,,,,7,B,,,,,Space,keypress(Space),,,,lyrical,,,,---- --------- ---------- - --- ------- -- --- ------------<br>----- -- -------- ------- ---- ------ - -------- ---- week.<br>--- ------- ---- -- --- -------- --- - ----- ------ ---- --<br>-------- --- -------- -------- --- -------- ---- -- ----- -<br>-------- ---- --- ---------- --------- -- ------- ------ -<br>--------- ----- -----,178222.06499999997,178220.84999999998,177927.22,177942.05000000005,177978.039,178226.281,,18,week.
screen,html.Screen,1_3_0_1_19,2021-03-28T16:43:01.766Z,,,,,,,,,,,,,,,,15,,,,,,,,,,,,,,365.09900000001653,response,,,,7,B,,,,,Space,keypress(Space),,,,lyrical,,,,---- --------- ---------- - --- ------- -- --- ------------<br>----- -- -------- ------- ---- ------ - -------- ---- -----<br>His ------- ---- -- --- -------- --- - ----- ------ ---- --<br>-------- --- -------- -------- --- -------- ---- -- ----- -<br>-------- ---- --- ---------- --------- -- ------- ------ -<br>--------- ----- -----,178593.1,178591.38,178209.729,178222.45500000002,178226.281,178608.728,,19,His
screen,html.Screen,1_3_0_1_20,2021-03-28T16:43:02.005Z,,,,,,,,,,,,,,,,15,,,,,,,,,,,,,,222.64200000005076,response,,,,7,B,,,,,Space,keypress(Space),,,,lyrical,,,,---- --------- ---------- - --- ------- -- --- ------------<br>----- -- -------- ------- ---- ------ - -------- ---- -----<br>--- lawyers ---- -- --- -------- --- - ----- ------ ---- --<br>-------- --- -------- -------- --- -------- ---- -- ----- -<br>-------- ---- --- ---------- --------- -- ------- ------ -<br>--------- ----- -----,178832.64500000002,178831.37000000005,178592.045,178593.41,178608.728,178841.324,,20,lawyers
screen,html.Screen,1_3_0_1_21,2021-03-28T16:43:02.227Z,,,,,,,,,,,,,,,,15,,,,,,,,,,,,,,212.4210000000021,response,,,,7,B,,,,,Space,keypress(Space),,,,lyrical,,,,---- --------- ---------- - --- ------- -- --- ------------<br>----- -- -------- ------- ---- ------ - -------- ---- -----<br>--- ------- said -- --- -------- --- - ----- ------ ---- --<br>-------- --- -------- -------- --- -------- ---- -- ----- -<br>-------- ---- --- ---------- --------- -- ------- ------ -<br>--------- ----- -----,179054.89500000005,179053.745,178824.645,178832.94500000007,178841.324,179057.403,,21,said
screen,html.Screen,1_3_0_1_22,2021-03-28T16:43:02.476Z,,,,,,,,,,,,,,,,15,,,,,,,,,,,,,,245.182000000088,response,,,,7,B,,,,,Space,keypress(Space),,,,lyrical,,,,---- --------- ---------- - --- ------- -- --- ------------<br>----- -- -------- ------- ---- ------ - -------- ---- -----<br>--- ------- ---- he --- -------- --- - ----- ------ ---- --<br>-------- --- -------- -------- --- -------- ---- -- ----- -<br>-------- ---- --- ---------- --------- -- ------- ------ -<br>--------- ----- -----,179303.74,179302.58500000008,179040.842,179055.20500000005,179057.403,179306.714,,22,he
screen,html.Screen,1_3_0_1_23,2021-03-28T16:43:02.682Z,,,,,,,,,,,,,,,,15,,,,,,,,,,,,,,201.12100000004284,response,,,,7,B,,,,,Space,keypress(Space),,,,lyrical,,,,---- --------- ---------- - --- ------- -- --- ------------<br>----- -- -------- ------- ---- ------ - -------- ---- -----<br>--- ------- ---- -- was -------- --- - ----- ------ ---- --<br>-------- --- -------- -------- --- -------- ---- -- ----- -<br>-------- ---- --- ---------- --------- -- ------- ------ -<br>--------- ----- -----,179509.05500000005,179507.83500000005,179290.121,179304.09500000003,179306.714,179522.896,,23,was
screen,html.Screen,1_3_0_1_24,2021-03-28T16:43:02.872Z,,,,,,,,,,,,,,,,15,,,,,,,,,,,,,,174.95900000006077,response,,,,7,B,,,,,Space,keypress(Space),,,,lyrical,,,,---- --------- ---------- - --- ------- -- --- ------------<br>----- -- -------- ------- ---- ------ - -------- ---- -----<br>--- ------- ---- -- --- prepared --- - ----- ------ ---- --<br>-------- --- -------- -------- --- -------- ---- -- ----- -<br>-------- ---- --- ---------- --------- -- ------- ------ -<br>--------- ----- -----,179699.00999999998,179697.85500000007,179506.214,179509.48999999996,179522.896,179705.567,,24,prepared
screen,html.Screen,1_3_0_1_25,2021-03-28T16:43:03.067Z,,,,,,,,,,,,,,,,15,,,,,,,,,,,,,,187.25299999996787,response,,,,7,B,,,,,Space,keypress(Space),,,,lyrical,,,,---- --------- ---------- - --- ------- -- --- ------------<br>----- -- -------- ------- ---- ------ - -------- ---- -----<br>--- ------- ---- -- --- -------- for - ----- ------ ---- --<br>-------- --- -------- -------- --- -------- ---- -- ----- -<br>-------- ---- --- ---------- --------- -- ------- ------ -<br>--------- ----- -----,179894.09000000005,179892.81999999998,179689.042,179699.40000000002,179705.567,179905.188,,25,for
screen,html.Screen,1_3_0_1_26,2021-03-28T16:43:03.272Z,,,,,,,,,,,,,,,,15,,,,,,,,,,,,,,193.17699999999604,response,,,,7,B,,,,,Space,keypress(Space),,,,lyrical,,,,---- --------- ---------- - --- ------- -- --- ------------<br>----- -- -------- ------- ---- ------ - -------- ---- -----<br>--- ------- ---- -- --- -------- --- a ----- ------ ---- --<br>-------- --- -------- -------- --- -------- ---- -- ----- -<br>-------- ---- --- ---------- --------- -- ------- ------ -<br>--------- ----- -----,180099.63,180098.365,179888.504,179894.37000000002,179905.188,180104.541,,26,a
screen,html.Screen,1_3_0_1_27,2021-03-28T16:43:03.493Z,,,,,,,,,,,,,,,,15,,,,,,,,,,,,,,214.3540000000503,response,,,,7,B,,,,,Space,keypress(Space),,,,lyrical,,,,---- --------- ---------- - --- ------- -- --- ------------<br>----- -- -------- ------- ---- ------ - -------- ---- -----<br>--- ------- ---- -- --- -------- --- - third ------ ---- --<br>-------- --- -------- -------- --- -------- ---- -- ----- -<br>-------- ---- --- ---------- --------- -- ------- ------ -<br>--------- ----- -----,180320.66000000003,180318.89500000005,180087.958,180099.9100000001,180104.541,180337.337,,27,third
screen,html.Screen,1_3_0_1_28,2021-03-28T16:43:03.708Z,,,,,,,,,,,,,,,,15,,,,,,,,,,,,,,196.58800000001793,response,,,,7,B,,,,,Space,keypress(Space),,,,lyrical,,,,---- --------- ---------- - --- ------- -- --- ------------<br>----- -- -------- ------- ---- ------ - -------- ---- -----<br>--- ------- ---- -- --- -------- --- - ----- prison ---- --<br>-------- --- -------- -------- --- -------- ---- -- ----- -<br>-------- ---- --- ---------- --------- -- ------- ------ -<br>--------- ----- -----,180535.07500000007,180533.92500000002,180320.673,180321.75,180337.337,180568.844,,28,prison
screen,html.Screen,1_3_0_1_29,2021-03-28T16:43:03.954Z,,,,,,,,,,,,,,,,15,,,,,,,,,,,,,,210.98099999999977,response,,,,7,B,,,,,Space,keypress(Space),,,,lyrical,,,,---- --------- ---------- - --- ------- -- --- ------------<br>----- -- -------- ------- ---- ------ - -------- ---- -----<br>--- ------- ---- -- --- -------- --- - ----- ------ stay --<br>-------- --- -------- -------- --- -------- ---- -- ----- -<br>-------- ---- --- ---------- --------- -- ------- ------ -<br>--------- ----- -----,180781.18,180779.825,180520.067,180535.39000000007,180568.844,180786.014,,29,stay
screen,html.Screen,1_3_0_1_30,2021-03-28T16:43:04.188Z,,,,,,,,,,,,,,,,15,,,,,,,,,,,,,,228.6160000000673,response,,,,7,B,,,,,Space,keypress(Space),,,,lyrical,,,,---- --------- ---------- - --- ------- -- --- ------------<br>----- -- -------- ------- ---- ------ - -------- ---- -----<br>--- ------- ---- -- --- -------- --- - ----- ------ ---- to<br>-------- --- -------- -------- --- -------- ---- -- ----- -<br>-------- ---- --- ---------- --------- -- ------- ------ -<br>--------- ----- -----,181015.78999999998,181014.63000000006,180769.506,180781.61000000004,180786.014,181018.695,,30,to
screen,html.Screen,1_3_0_1_31,2021-03-28T16:43:04.444Z,,,,,,,,,,,,,,,,15,,,,,,,,,,,,,,251.40499999999884,response,,,,7,B,,,,,Space,keypress(Space),,,,lyrical,,,,---- --------- ---------- - --- ------- -- --- ------------<br>----- -- -------- ------- ---- ------ - -------- ---- -----<br>--- ------- ---- -- --- -------- --- - ----- ------ ---- --<br>maintain --- -------- -------- --- -------- ---- -- ----- -<br>-------- ---- --- ---------- --------- -- ------- ------ -<br>--------- ----- -----,181271.23,181270.1,181002.189,181016.1550000001,181018.695,181284.749,,31,maintain
screen,html.Screen,1_3_0_1_32,2021-03-28T16:43:04.665Z,,,,,,,,,,,,,,,,15,,,,,,,,,,,,,,205.83600000006845,response,,,,7,B,,,,,Space,keypress(Space),,,,lyrical,,,,---- --------- ---------- - --- ------- -- --- ------------<br>----- -- -------- ------- ---- ------ - -------- ---- -----<br>--- ------- ---- -- --- -------- --- - ----- ------ ---- --<br>-------- his -------- -------- --- -------- ---- -- ----- -<br>-------- ---- --- ---------- --------- -- ------- ------ -<br>--------- ----- -----,181492.00999999998,181490.58500000008,181268.083,181271.52000000008,181284.749,181500.721,,32,his
screen,html.Screen,1_3_0_1_33,2021-03-28T16:43:04.915Z,,,,,,,,,,,,,,,,15,,,,,,,,,,,,,,240.0339999999851,response,,,,7,B,,,,,Space,keypress(Space),,,,lyrical,,,,---- --------- ---------- - --- ------- -- --- ------------<br>----- -- -------- ------- ---- ------ - -------- ---- -----<br>--- ------- ---- -- --- -------- --- - ----- ------ ---- --<br>-------- --- silence. -------- --- -------- ---- -- ----- -<br>-------- ---- --- ---------- --------- -- ------- ------ -<br>--------- ----- -----,181741.95500000002,181740.75499999998,181484.152,181492.31500000003,181500.721,181749.99,,33,silence.
screen,html.Screen,1_3_0_1_34,2021-03-28T16:43:05.175Z,,,,,,,,,,,,,,,,15,,,,,,,,,,,,,,251.15500000002794,response,,,,7,B,,,,,Space,keypress(Space),,,,lyrical,,,,---- --------- ---------- - --- ------- -- --- ------------<br>----- -- -------- ------- ---- ------ - -------- ---- -----<br>--- ------- ---- -- --- -------- --- - ----- ------ ---- --<br>-------- --- -------- Anderson --- -------- ---- -- ----- -<br>-------- ---- --- ---------- --------- -- ------- ------ -<br>--------- ----- -----,182002.35000000003,182001.14500000002,181733.488,181742.22000000003,181749.99,182015.973,,34,Anderson
screen,html.Screen,1_3_0_1_35,2021-03-28T16:43:05.456Z,,,,,,,,,,,,,,,,15,,,,,,,,,,,,,,265.5370000000985,response,,,,7,B,,,,,Space,keypress(Space),,,,lyrical,,,,---- --------- ---------- - --- ------- -- --- ------------<br>----- -- -------- ------- ---- ------ - -------- ---- -----<br>--- ------- ---- -- --- -------- --- - ----- ------ ---- --<br>-------- --- -------- -------- was -------- ---- -- ----- -<br>-------- ---- --- ---------- --------- -- ------- ------ -<br>--------- ----- -----,182283.64500000005,182281.5100000001,181999.393,182002.71000000005,182015.973,182298.544,,35,was
screen,html.Screen,1_3_0_1_36,2021-03-28T16:43:05.676Z,,,,,,,,,,,,,,,,15,,,,,,,,,,,,,,203.16600000005565,response,,,,7,B,,,,,Space,keypress(Space),,,,lyrical,,,,---- --------- ---------- - --- ------- -- --- ------------<br>----- -- -------- ------- ---- ------ - -------- ---- -----<br>--- ------- ---- -- --- -------- --- - ----- ------ ---- --<br>-------- --- -------- -------- --- released ---- -- ----- -<br>-------- ---- --- ---------- --------- -- ------- ------ -<br>--------- ----- -----,182503.01500000007,182501.71000000005,182281.891,182283.985,182298.544,182514.716,,36,released
screen,html.Screen,1_3_0_1_37,2021-03-28T16:43:05.891Z,,,,,,,,,,,,,,,,15,,,,,,,,,,,,,,202.0690000000177,response,,,,7,B,,,,,Space,keypress(Space),,,,lyrical,,,,---- --------- ---------- - --- ------- -- --- ------------<br>----- -- -------- ------- ---- ------ - -------- ---- -----<br>--- ------- ---- -- --- -------- --- - ----- ------ ---- --<br>-------- --- -------- -------- --- -------- July -- ----- -<br>-------- ---- --- ---------- --------- -- ------- ------ -<br>--------- ----- -----,182717.9750000001,182716.785,182498.071,182503.33000000007,182514.716,182730.8,,37,July
screen,html.Screen,1_3_0_1_38,2021-03-28T16:43:06.126Z,,,,,,,,,,,,,,,,15,,,,,,,,,,,,,,221.0700000000652,response,,,,7,B,,,,,Space,keypress(Space),,,,lyrical,,,,---- --------- ---------- - --- ------- -- --- ------------<br>----- -- -------- ------- ---- ------ - -------- ---- -----<br>--- ------- ---- -- --- -------- --- - ----- ------ ---- --<br>-------- --- -------- -------- --- -------- ---- 20 ----- -<br>-------- ---- --- ---------- --------- -- ------- ------ -<br>--------- ----- -----,182953.12000000008,182951.87000000005,182714.084,182718.24,182730.8,182963.486,,38,20
screen,html.Screen,1_3_0_1_39,2021-03-28T16:43:06.353Z,,,,,,,,,,,,,,,,15,,,,,,,,,,,,,,215.00900000004913,response,,,,7,B,,,,,Space,keypress(Space),,,,lyrical,,,,---- --------- ---------- - --- ------- -- --- ------------<br>----- -- -------- ------- ---- ------ - -------- ---- -----<br>--- ------- ---- -- --- -------- --- - ----- ------ ---- --<br>-------- --- -------- -------- --- -------- ---- -- after -<br>-------- ---- --- ---------- --------- -- ------- ------ -<br>--------- ----- -----,183180.56000000008,183178.49500000005,182946.824,182953.415,182963.486,183196.201,,39,after
screen,html.Screen,1_3_0_1_40,2021-03-28T16:43:06.652Z,,,,,,,,,,,,,,,,15,,,,,,,,,,,,,,281.5440000000817,response,,,,7,B,,,,,Space,keypress(Space),,,,lyrical,,,,---- --------- ---------- - --- ------- -- --- ------------<br>----- -- -------- ------- ---- ------ - -------- ---- -----<br>--- ------- ---- -- --- -------- --- - ----- ------ ---- --<br>-------- --- -------- -------- --- -------- ---- -- ----- a<br>-------- ---- --- ---------- --------- -- ------- ------ -<br>--------- ----- -----,183479.585,183477.74500000008,183179.523,183180.86,183196.201,183495.379,,40,a
screen,html.Screen,1_3_0_1_41,2021-03-28T16:43:06.902Z,,,,,,,,,,,,,,,,15,,,,,,,,,,,,,,232.65100000007078,response,,,,7,B,,,,,Space,keypress(Space),,,,lyrical,,,,---- --------- ---------- - --- ------- -- --- ------------<br>----- -- -------- ------- ---- ------ - -------- ---- -----<br>--- ------- ---- -- --- -------- --- - ----- ------ ---- --<br>-------- --- -------- -------- --- -------- ---- -- ----- -<br>two-week ---- --- ---------- --------- -- ------- ------ -<br>--------- ----- -----,183729.795,183728.03000000006,183478.599,183479.99499999997,183495.379,183744.707,,41,two-week
screen,html.Screen,1_3_0_1_42,2021-03-28T16:43:07.128Z,,,,,,,,,,,,,,,,15,,,,,,,,,,,,,,208.8180000000866,response,,,,7,B,,,,,Space,keypress(Space),,,,lyrical,,,,---- --------- ---------- - --- ------- -- --- ------------<br>----- -- -------- ------- ---- ------ - -------- ---- -----<br>--- ------- ---- -- --- -------- --- - ----- ------ ---- --<br>-------- --- -------- -------- --- -------- ---- -- ----- -<br>-------- stay --- ---------- --------- -- ------- ------ -<br>--------- ----- -----,183955.035,183953.52500000008,183728.03,183730.15500000003,183744.707,183960.63,,42,stay
