sender,sender_type,sender_id,timestamp,meta,,Blues,Classical,Country,Dance,Electronic,Folk,Gospel,Hip-Hop,Jazz,Latin,Musical/Film,New-age,Pop,Provo_ID,R&B,Rap,Reggae,Religious,Rock,Soul,Swing,Traditional,age,artist_name,correct,correctResponse,distraction,duration,ended_on,familiarity,gender,headphone_check_performance,item,list,offensiveness,pleasantness,position_correct,preference,response,response_action,snippet_file,song_name,song_rating,sound,stimulus_1,stimulus_2,stimulus_3,text,time_commit,time_end,time_render,time_run,time_show,time_switch,url,word,word_ID
Introduction,html.Screen,0_0,2021-03-26T10:32:58.258Z,"{""labjs_version"":""20.2.2"",""labjs_build"":{""flavor"":""production"",""commit"":""a25486e0c714a0ae2ce03ff94b7bb6896854dcfa""},""location"":""https://run.pavlovia.org/mvasilev/music_c/"",""userAgent"":""Mozilla/5.0 (Windows NT 10.0; Win64; x64) AppleWebKit/537.36 (KHTML, like Gecko) Chrome/89.0.4389.82 Safari/537.36"",""platform"":""Win32"",""language"":""en-US"",""locale"":""en-GB"",""timeZone"":""Europe/London"",""timezoneOffset"":0,""screen_width"":1536,""screen_height"":864,""scroll_width"":1536,""scroll_height"":674,""window_innerWidth"":1536,""window_innerHeight"":722,""devicePixelRatio"":1.25}",,,,,,,,,,,,,,,,,,,,,,,,,,,,,36444.69600000551,response,,,,,,,,,,continue,click button,,,,,,,,,47274.44499998819,47269.29500000551,10792.158,10801.60500004422,10824.599,47284.453,{},,
Volume calibration,html.Screen,0_1,2021-03-26T10:33:29.569Z,,,,,,,,,,,,,,,,,,,,,,,,,,,,,,31296.947000024586,response,,,,,,,,,,continue,click button,,,,,,,,,78585.88000002783,78581.40000002459,47268.067,47275.00999998301,47284.453,78609.856,,,
Task instructions,html.Screen,0_2,2021-03-26T10:33:36.946Z,,,,,,,,,,,,,,,,,,,,,,,,,,,,,,7351.428999968484,response,,,,,,,,,,continue,click button,,,,,,,,,85962.96000003349,85961.28499996848,78566.978,78586.14999998827,78609.856,85975.223,,,
Sounds,html.Screen,0_3_0_0,2021-03-26T10:33:41.192Z,,,,,,,,,,,,,,,,,,,,,,,,,,,,,,4245.430999999997,timeout,,,,,,,,3,,,,,,,,I,O,S,,90209.03500006534,90204.073,85958.857,85963.40999996755,85975.223,90220.654,,,
Judgement,html.Screen,0_3_0_1,2021-03-26T10:33:43.566Z,,,,,,,,,,,,,,,,,,,,,,,,,,,true,3,,2359.850999961709,response,,,,,,,,3,,3,click #choice-3,,,,,I,O,S,,92582.40499999374,92580.5049999617,90204.073,90209.34000005946,90220.654,92584.671,,,
Trial,flow.Sequence,0_3_0,2021-03-26T10:33:43.566Z,,,,,,,,,,,,,,,,,,,,,,,,,,,,,,6605.281999961706,completion,,,,,,,,3,,,,,,,,I,O,S,,92583.07499997318,92580.5049999617,85958.857,85963.31000002101,85975.223,92584.671,,,
Sounds,html.Screen,0_3_1_0,2021-03-26T10:33:47.798Z,,,,,,,,,,,,,,,,,,,,,,,,,,,,,,4245.243000000002,timeout,,,,,,,,1,,,,,,,,S,O,I,,96814.8049999727,96813.452,92568.228,92583.44499999657,92584.671,96829.914,,,
Judgement,html.Screen,0_3_1_1,2021-03-26T10:33:49.836Z,,,,,,,,,,,,,,,,,,,,,,,,,,,true,1,,2021.2260000425013,response,,,,,,,,1,,1,click #choice-1,,,,,S,O,I,,98852.74000000209,98851.1400000425,96813.452,96815.04000001587,96829.914,98861.199,,,
Trial,flow.Sequence,0_3_1,2021-03-26T10:33:49.836Z,,,,,,,,,,,,,,,,,,,,,,,,,,,,,,6266.4690000425035,completion,,,,,,,,1,,,,,,,,S,O,I,,98853.16499997862,98851.1400000425,92568.228,92583.37000000756,92584.671,98861.199,,,
Sounds,html.Screen,0_3_2_0,2021-03-26T10:33:54.075Z,,,,,,,,,,,,,,,,,,,,,,,,,,,,,,4245.117000000013,timeout,,,,,,,,2,,,,,,,,I,S,O,,103090.74999997392,103089.745,98844.682,98853.4300000174,98861.199,103106.316,,,
Judgement,html.Screen,0_3_2_1,2021-03-26T10:33:55.427Z,,,,,,,,,,,,,,,,,,,,,,,,,,,true,2,,1334.3190000062896,response,,,,,,,,2,,2,click #choice-2,,,,,I,S,O,,104442.16500001494,104440.6350000063,103089.745,103090.94500006177,103106.316,104454.939,,,
Trial,flow.Sequence,0_3_2,2021-03-26T10:33:55.427Z,,,,,,,,,,,,,,,,,,,,,,,,,,,,,,5579.4360000063025,completion,,,,,,,,2,,,,,,,,I,S,O,,104442.61999998707,104440.6350000063,98844.682,98853.35500002839,98861.199,104454.939,,,
Sounds,html.Screen,0_3_3_0,2021-03-26T10:33:59.670Z,,,,,,,,,,,,,,,,,,,,,,,,,,,,,,4245.403999999995,timeout,,,,,,,,3,,,,,,,,O,I,S,,108685.1500000339,108683.745,104439.037,104442.87000002805,104454.939,108700.343,,,
Judgement,html.Screen,0_3_3_1,2021-03-26T10:34:00.889Z,,,,,,,,,,,,,,,,,,,,,,,,,,,false,3,,1202.9320000478765,response,,,,,,,,3,,1,click #choice-1,,,,,O,I,S,,109904.86000000965,109903.27500004787,108683.745,108685.36000000313,108700.343,109915.583,,,
Trial,flow.Sequence,0_3_3,2021-03-26T10:34:00.890Z,,,,,,,,,,,,,,,,,,,,,,,,,,,,,,5448.3360000478715,completion,,,,,,,,3,,,,,,,,O,I,S,,109905.26000002865,109903.27500004787,104439.037,104442.78000004124,104454.939,109915.583,,,
Sounds,html.Screen,0_3_4_0,2021-03-26T10:34:05.130Z,,,,,,,,,,,,,,,,,,,,,,,,,,,,,,4245.361000000004,timeout,,,,,,,,2,,,,,,,,O,S,I,,114145.69999999367,114144.417,109899.196,109905.51499999128,109915.583,114160.944,,,
Judgement,html.Screen,0_3_4_1,2021-03-26T10:34:05.867Z,,,,,,,,,,,,,,,,,,,,,,,,,,,true,2,,720.2560000616504,response,,,,,,,,2,,2,click #choice-2,,,,,O,S,I,,114882.86999997217,114881.20000006165,114144.417,114145.89000004344,114160.944,114893.592,,,
Trial,flow.Sequence,0_3_4,2021-03-26T10:34:05.868Z,,,,,,,,,,,,,,,,,,,,,,,,,,,,,,4965.617000061655,completion,,,,,,,,2,,,,,,,,O,S,I,,114883.23999999557,114881.20000006165,109899.196,109905.4349999642,109915.583,114893.592,,,
Sounds,html.Screen,0_3_5_0,2021-03-26T10:34:10.108Z,,,,,,,,,,,,,,,,,,,,,,,,,,,,,,4245.236999999994,timeout,,,,,,,,1,,,,,,,,S,I,O,,119123.63000004552,119122.142,114876.932,114883.434999967,114893.592,119138.829,,,
Judgement,html.Screen,0_3_5_1,2021-03-26T10:34:10.918Z,,,,,,,,,,,,,,,,,,,,,,,,,,,true,1,,792.6660000261909,response,,,,,,,,1,,1,click #choice-1,,,,,S,I,O,,119933.12000005972,119931.49500002619,119122.142,119123.84500005282,119138.829,119937.969,,,
Trial,flow.Sequence,0_3_5,2021-03-26T10:34:10.918Z,,,,,,,,,,,,,,,,,,,,,,,,,,,,,,5037.903000026185,completion,,,,,,,,1,,,,,,,,S,I,O,,119933.53999999817,119931.49500002619,114876.932,114883.38000001386,114893.592,119937.969,,,
Task,flow.Loop,0_3,2021-03-26T10:34:10.925Z,,,,,,,,,,,,,,,,,,,,,,,,,,,,,,33956.27200002619,completion,,,0.8333333333333334,,,,,,,,,,,,,,,,,119940.47500006855,119931.49500002619,85958.857,85963.22999999393,85975.223,119937.969,,,
Trap,html.Screen,0_4,2021-03-26T10:34:10.927Z,,,,,,,,,,,,,,,,,,,,,,,,,,,,,,NaN,skipped,,,,,,,,,,,,,,,,,,,,119942.46000004932,119931.49500002619,,119942.26000003982,,119937.969,,,
Thanks,html.Screen,0_5,2021-03-26T10:34:15.637Z,,,,,,,,,,,,,,,,,,,,,,,,,,,,,,4713.245999961669,response,,,,,,,,,,continue,click button,,,,,,,,,124652.75999996811,124651.21499996167,119921.478,119942.64000002295,119937.969,127862.524,,,
Headphone screening,flow.Sequence,0,2021-03-26T10:34:15.638Z,,,,,,,,,,,,,,,,,,,,,,,,,,,,,,113826.61599996166,completion,,,,,,,,,,,,,,,,,,,,124653.18000002299,124651.21499996167,10792.158,10801.585000008345,10824.599,127862.524,,,
Instructions,html.Page,1_0,2021-03-26T10:34:37.871Z,,,,,,,,,,,,,,,,,,,,,,,,,,,,,,19023.860999961587,form submission,,,,,,,,,,,,,,,,,,,,146886.86500000767,146886.3849999616,127846.065,127863.93500003032,127862.524,146891.668,,,
Holding screen,html.Screen,1_1_0_0,2021-03-26T10:34:44.853Z,,,,,,,,,,,,,,,,,,,,,,,,,,,,,,7008.918999999994,timeout,,,,,,,,,,,,,,,,,,,,153868.58999996912,153867.404,146875.203,146887.2449999908,146891.668,153900.587,,,
screen,html.Screen,1_1_0_1_0,2021-03-26T10:34:46.169Z,,,,,,,,,,,,,,,,53,,,,,,,,,,,,,,1279.7130000072648,response,,,,99,,,,,,Space,keypress(Space),,,,,,,,When -- ----- -- ------ - ------- --- ----------<br>------------- ------ ------ ---- ---- ------- ----- -- ----<br>-------- ------- -- ---------- --- - --- ----- ----- ----<br>---- --- --- ----- --- ---- ---- ------- ----- ---- -------<br>--- --- -- ----- -- --- ---- -- --- ---- -- ------ ------<br>--- ----- -- ----,155184.6900000237,155180.30000000726,153867.404,153868.89499996323,153900.587,155199.304,,0,When
screen,html.Screen,1_1_0_1_1,2021-03-26T10:34:46.694Z,,,,,,,,,,,,,,,,53,,,,,,,,,,,,,,509.0410000500269,response,,,,99,,,,,,Space,keypress(Space),,,,,,,,---- it ----- -- ------ - ------- --- ----------<br>------------- ------ ------ ---- ---- ------- ----- -- ----<br>-------- ------- -- ---------- --- - --- ----- ----- ----<br>---- --- --- ----- --- ---- ---- ------- ----- ---- -------<br>--- --- -- ----- -- --- ---- -- --- ---- -- ------ ------<br>--- ----- -- ----,155709.35999997891,155708.34500005003,155182.814,155184.95500006247,155199.304,155715.242,,1,it
screen,html.Screen,1_1_0_1_2,2021-03-26T10:34:47.036Z,,,,,,,,,,,,,,,,53,,,,,,,,,,,,,,334.31300003416254,response,,,,99,,,,,,Space,keypress(Space),,,,,,,,---- -- comes -- ------ - ------- --- ----------<br>------------- ------ ------ ---- ---- ------- ----- -- ----<br>-------- ------- -- ---------- --- - --- ----- ----- ----<br>---- --- --- ----- --- ---- ---- ------- ----- ---- -------<br>--- --- -- ----- -- --- ---- -- --- ---- -- ------ ------<br>--- ----- -- ----,156051.1000000406,156049.55500003416,155698.817,155709.67500004917,155715.242,156064.979,,2,comes
screen,html.Screen,1_1_0_1_3,2021-03-26T10:34:47.411Z,,,,,,,,,,,,,,,,53,,,,,,,,,,,,,,360.1410000289907,response,,,,99,,,,,,Space,keypress(Space),,,,,,,,---- -- ----- to ------ - ------- --- ----------<br>------------- ------ ------ ---- ---- ------- ----- -- ----<br>-------- ------- -- ---------- --- - --- ----- ----- ----<br>---- --- --- ----- --- ---- ---- ------- ----- ---- -------<br>--- --- -- ----- -- --- ---- -- --- ---- -- ------ ------<br>--- ----- -- ----,156426.19000002742,156425.12000002898,156048.383,156051.4400000684,156064.979,156431.197,,3,to
screen,html.Screen,1_1_0_1_4,2021-03-26T10:34:47.724Z,,,,,,,,,,,,,,,,53,,,,,,,,,,,,,,307.2180000289227,response,,,,99,,,,,,Space,keypress(Space),,,,,,,,---- -- ----- -- having - ------- --- ----------<br>------------- ------ ------ ---- ---- ------- ----- -- ----<br>-------- ------- -- ---------- --- - --- ----- ----- ----<br>---- --- --- ----- --- ---- ---- ------- ----- ---- -------<br>--- --- -- ----- -- --- ---- -- --- ---- -- ------ ------<br>--- ----- -- ----,156739.45500003174,156738.4150000289,156414.654,156426.40500003472,156431.197,156747.679,,4,having
screen,html.Screen,1_1_0_1_5,2021-03-26T10:34:48.039Z,,,,,,,,,,,,,,,,53,,,,,,,,,,,,,,305.3760000257753,response,,,,99,,,,,,Space,keypress(Space),,,,,,,,---- -- ----- -- ------ a ------- --- ----------<br>------------- ------ ------ ---- ---- ------- ----- -- ----<br>-------- ------- -- ---------- --- - --- ----- ----- ----<br>---- --- --- ----- --- ---- ---- ------- ----- ---- -------<br>--- --- -- ----- -- --- ---- -- --- ---- -- ------ ------<br>--- ----- -- ----,157054.21500001103,157053.05500002578,156730.96,156739.74500002805,156747.679,157063.871,,5,a
screen,html.Screen,1_1_0_1_6,2021-03-26T10:34:48.384Z,,,,,,,,,,,,,,,,53,,,,,,,,,,,,,,335.03400006730226,response,,,,99,,,,,,Space,keypress(Space),,,,,,,,---- -- ----- -- ------ - lasting --- ----------<br>------------- ------ ------ ---- ---- ------- ----- -- ----<br>-------- ------- -- ---------- --- - --- ----- ----- ----<br>---- --- --- ----- --- ---- ---- ------- ----- ---- -------<br>--- --- -- ----- -- --- ---- -- --- ---- -- ------ ------<br>--- ----- -- ----,157399.91499995813,157398.90500006732,157047.258,157054.49000000954,157063.871,157413.476,,6,lasting
screen,html.Screen,1_1_0_1_7,2021-03-26T10:34:48.750Z,,,,,,,,,,,,,,,,53,,,,,,,,,,,,,,351.19899998398614,response,,,,99,,,,,,Space,keypress(Space),,,,,,,,---- -- ----- -- ------ - ------- and ----------<br>------------- ------ ------ ---- ---- ------- ----- -- ----<br>-------- ------- -- ---------- --- - --- ----- ----- ----<br>---- --- --- ----- --- ---- ---- ------- ----- ---- -------<br>--- --- -- ----- -- --- ---- -- --- ---- -- ------ ------<br>--- ----- -- ----,157765.78999997582,157764.67499998398,157396.906,157400.12500004377,157413.476,157779.773,,7,and
screen,html.Screen,1_1_0_1_8,2021-03-26T10:34:49.218Z,,,,,,,,,,,,,,,,53,,,,,,,,,,,,,,452.8520000624121,response,,,,99,,,,,,Space,keypress(Space),,,,,,,,---- -- ----- -- ------ - ------- --- fulfilling<br>------------- ------ ------ ---- ---- ------- ----- -- ----<br>-------- ------- -- ---------- --- - --- ----- ----- ----<br>---- --- --- ----- --- ---- ---- ------- ----- ---- -------<br>--- --- -- ----- -- --- ---- -- --- ---- -- ------ ------<br>--- ----- -- ----,158233.80000004545,158232.6250000624,157763.169,157766.15999999922,157779.773,158245.756,,8,fulfilling
screen,html.Screen,1_1_0_1_9,2021-03-26T10:34:49.718Z,,,,,,,,,,,,,,,,53,,,,,,,,,,,,,,486.5890000258223,response,,,,99,,,,,,Space,keypress(Space),,,,,,,,"---- -- ----- -- ------ - ------- --- ----------<br>relationship, ------ ------ ---- ---- ------- ----- -- ----<br>-------- ------- -- ---------- --- - --- ----- ----- ----<br>---- --- --- ----- --- ---- ---- ------- ----- ---- -------<br>--- --- -- ----- -- --- ---- -- --- ---- -- ------ ------<br>--- ----- -- ----",158733.55500004254,158732.34500002582,158229.29,158234.09000004176,158245.756,158745.387,,9,"relationship,"
screen,html.Screen,1_1_0_1_10,2021-03-26T10:34:50.012Z,,,,,,,,,,,,,,,,53,,,,,,,,,,,,,,281.41299999237526,response,,,,99,,,,,,Space,keypress(Space),,,,,,,,---- -- ----- -- ------ - ------- --- ----------<br>------------- common ------ ---- ---- ------- ----- -- ----<br>-------- ------- -- ---------- --- - --- ----- ----- ----<br>---- --- --- ----- --- ---- ---- ------- ----- ---- -------<br>--- --- -- ----- -- --- ---- -- --- ---- -- ------ ------<br>--- ----- -- ----,159027.929999982,159026.79999999236,158728.795,158733.84000000078,158745.387,159044.917,,10,common
screen,html.Screen,1_1_0_1_11,2021-03-26T10:34:50.264Z,,,,,,,,,,,,,,,,53,,,,,,,,,,,,,,233.3380000120087,response,,,,99,,,,,,Space,keypress(Space),,,,,,,,---- -- ----- -- ------ - ------- --- ----------<br>------------- ------ wisdom ---- ---- ------- ----- -- ----<br>-------- ------- -- ---------- --- - --- ----- ----- ----<br>---- --- --- ----- --- ---- ---- ------- ----- ---- -------<br>--- --- -- ----- -- --- ---- -- --- ---- -- ------ ------<br>--- ----- -- ----,159279.39499996137,159278.255000012,159028.503,159028.15500006545,159044.917,159294.741,,11,wisdom
screen,html.Screen,1_1_0_1_12,2021-03-26T10:34:50.764Z,,,,,,,,,,,,,,,,53,,,,,,,,,,,,,,483.3839999534248,response,,,,99,,,,,,Space,keypress(Space),,,,,,,,---- -- ----- -- ------ - ------- --- ----------<br>------------- ------ ------ says ---- ------- ----- -- ----<br>-------- ------- -- ---------- --- - --- ----- ----- ----<br>---- --- --- ----- --- ---- ---- ------- ----- ---- -------<br>--- --- -- ----- -- --- ---- -- --- ---- -- ------ ------<br>--- ----- -- ----,159779.2700000573,159778.12499995343,159278.144,159279.71999999136,159294.741,159794.241,,12,says
screen,html.Screen,1_1_0_1_13,2021-03-26T10:34:51.257Z,,,,,,,,,,,,,,,,53,,,,,,,,,,,,,,477.068999981886,response,,,,99,,,,,,Space,keypress(Space),,,,,,,,---- -- ----- -- ------ - ------- --- ----------<br>------------- ------ ------ ---- that ------- ----- -- ----<br>-------- ------- -- ---------- --- - --- ----- ----- ----<br>---- --- --- ----- --- ---- ---- ------- ----- ---- -------<br>--- --- -- ----- -- --- ---- -- --- ---- -- ------ ------<br>--- ----- -- ----,160272.40500005428,160271.3099999819,159777.604,159779.61500000674,159794.241,160276.91,,13,that
screen,html.Screen,1_1_0_1_14,2021-03-26T10:34:51.785Z,,,,,,,,,,,,,,,,53,,,,,,,,,,,,,,522.7950000121782,response,,,,99,,,,,,Space,keypress(Space),,,,,,,,---- -- ----- -- ------ - ------- --- ----------<br>------------- ------ ------ ---- ---- feeling ----- -- ----<br>-------- ------- -- ---------- --- - --- ----- ----- ----<br>---- --- --- ----- --- ---- ---- ------- ----- ---- -------<br>--- --- -- ----- -- --- ---- -- --- ---- -- ------ ------<br>--- ----- -- ----,160800.92000006698,160799.70500001218,160260.455,160272.6450000191,160276.91,160809.813,,14,feeling
screen,html.Screen,1_1_0_1_15,2021-03-26T10:34:52.212Z,,,,,,,,,,,,,,,,53,,,,,,,,,,,,,,416.7019999875629,response,,,,99,,,,,,Space,keypress(Space),,,,,,,,---- -- ----- -- ------ - ------- --- ----------<br>------------- ------ ------ ---- ---- ------- close -- ----<br>-------- ------- -- ---------- --- - --- ----- ----- ----<br>---- --- --- ----- --- ---- ---- ------- ----- ---- -------<br>--- --- -- ----- -- --- ---- -- --- ---- -- ------ ------<br>--- ----- -- ----,161227.68500004895,161226.51499998756,160793.156,160801.15499999374,160809.813,161242.632,,15,close
screen,html.Screen,1_1_0_1_16,2021-03-26T10:34:52.554Z,,,,,,,,,,,,,,,,53,,,,,,,,,,,,,,325.72800003385055,response,,,,99,,,,,,Space,keypress(Space),,,,,,,,---- -- ----- -- ------ - ------- --- ----------<br>------------- ------ ------ ---- ---- ------- ----- to ----<br>-------- ------- -- ---------- --- - --- ----- ----- ----<br>---- --- --- ----- --- ---- ---- ------- ----- ---- -------<br>--- --- -- ----- -- --- ---- -- --- ---- -- ------ ------<br>--- ----- -- ----,161569.4900000235,161568.36000003386,161225.943,161227.97999996692,161242.632,161575.453,,16,to
screen,html.Screen,1_1_0_1_17,2021-03-26T10:34:52.932Z,,,,,,,,,,,,,,,,53,,,,,,,,,,,,,,371.60700003497186,response,,,,99,,,,,,Space,keypress(Space),,,,,,,,---- -- ----- -- ------ - ------- --- ----------<br>------------- ------ ------ ---- ---- ------- ----- -- your<br>-------- ------- -- ---------- --- - --- ----- ----- ----<br>---- --- --- ----- --- ---- ---- ------- ----- ---- -------<br>--- --- -- ----- -- --- ---- -- --- ---- -- ------ ------<br>--- ----- -- ----,161948.10999999754,161947.06000003498,161558.991,161569.69999999274,161575.453,161958.489,,17,your
screen,html.Screen,1_1_0_1_18,2021-03-26T10:34:53.329Z,,,,,,,,,,,,,,,,53,,,,,,,,,,,,,,384.8410000615404,response,,,,99,,,,,,Space,keypress(Space),,,,,,,,---- -- ----- -- ------ - ------- --- ----------<br>------------- ------ ------ ---- ---- ------- ----- -- ----<br>romantic ------- -- ---------- --- - --- ----- ----- ----<br>---- --- --- ----- --- ---- ---- ------- ----- ---- -------<br>--- --- -- ----- -- --- ---- -- --- ---- -- ------ ------<br>--- ----- -- ----,162344.37000006437,162343.33000006154,161941.879,161948.42999998946,161958.489,162358.059,,18,romantic
screen,html.Screen,1_1_0_1_19,2021-03-26T10:34:53.660Z,,,,,,,,,,,,,,,,53,,,,,,,,,,,,,,316.5209999916842,response,,,,99,,,,,,Space,keypress(Space),,,,,,,,---- -- ----- -- ------ - ------- --- ----------<br>------------- ------ ------ ---- ---- ------- ----- -- ----<br>-------- partner -- ---------- --- - --- ----- ----- ----<br>---- --- --- ----- --- ---- ---- ------- ----- ---- -------<br>--- --- -- ----- -- --- ---- -- --- ---- -- ------ ------<br>--- ----- -- ----,162675.6250000326,162674.5799999917,162341.46,162344.60499999113,162358.059,162691.031,,19,partner
screen,html.Screen,1_1_0_1_20,2021-03-26T10:34:54.001Z,,,,,,,,,,,,,,,,53,,,,,,,,,,,,,,324.803999969241,response,,,,99,,,,,,Space,keypress(Space),,,,,,,,---- -- ----- -- ------ - ------- --- ----------<br>------------- ------ ------ ---- ---- ------- ----- -- ----<br>-------- ------- is ---------- --- - --- ----- ----- ----<br>---- --- --- ----- --- ---- ---- ------- ----- ---- -------<br>--- --- -- ----- -- --- ---- -- --- ---- -- ------ ------<br>--- ----- -- ----,163016.88000001013,163015.83499996923,162674.422,162675.84999999963,162691.031,163023.807,,20,is
screen,html.Screen,1_1_0_1_21,2021-03-26T10:34:54.415Z,,,,,,,,,,,,,,,,53,,,,,,,,,,,,,,406.4680000497319,response,,,,99,,,,,,Space,keypress(Space),,,,,,,,---- -- ----- -- ------ - ------- --- ----------<br>------------- ------ ------ ---- ---- ------- ----- -- ----<br>-------- ------- -- paramount. --- - --- ----- ----- ----<br>---- --- --- ----- --- ---- ---- ------- ----- ---- -------<br>--- --- -- ----- -- --- ---- -- --- ---- -- ------ ------<br>--- ----- -- ----,163431.31999997422,163430.27500004973,163007.379,163017.12500001304,163023.807,163440.256,,21,paramount.
screen,html.Screen,1_1_0_1_22,2021-03-26T10:34:54.813Z,,,,,,,,,,,,,,,,53,,,,,,,,,,,,,,387.85900004027644,response,,,,99,,,,,,Space,keypress(Space),,,,,,,,---- -- ----- -- ------ - ------- --- ----------<br>------------- ------ ------ ---- ---- ------- ----- -- ----<br>-------- ------- -- ---------- But - --- ----- ----- ----<br>---- --- --- ----- --- ---- ---- ------- ----- ---- -------<br>--- --- -- ----- -- --- ---- -- --- ---- -- ------ ------<br>--- ----- -- ----,163829.25499998964,163828.11500004027,163423.517,163431.59000005107,163440.256,163839.808,,22,But
screen,html.Screen,1_1_0_1_23,2021-03-26T10:34:55.135Z,,,,,,,,,,,,,,,,53,,,,,,,,,,,,,,309.43699997870135,response,,,,99,,,,,,Space,keypress(Space),,,,,,,,---- -- ----- -- ------ - ------- --- ----------<br>------------- ------ ------ ---- ---- ------- ----- -- ----<br>-------- ------- -- ---------- --- a --- ----- ----- ----<br>---- --- --- ----- --- ---- ---- ------- ----- ---- -------<br>--- --- -- ----- -- --- ---- -- --- ---- -- ------ ------<br>--- ----- -- ----,164150.41500004008,164149.2449999787,163823.099,163829.51499999035,163839.808,164155.9,,23,a
screen,html.Screen,1_1_0_1_24,2021-03-26T10:34:55.391Z,,,,,,,,,,,,,,,,53,,,,,,,,,,,,,,249.28999996130005,response,,,,99,,,,,,Space,keypress(Space),,,,,,,,---- -- ----- -- ------ - ------- --- ----------<br>------------- ------ ------ ---- ---- ------- ----- -- ----<br>-------- ------- -- ---------- --- - new ----- ----- ----<br>---- --- --- ----- --- ---- ---- ------- ----- ---- -------<br>--- --- -- ----- -- --- ---- -- --- ---- -- ------ ------<br>--- ----- -- ----,164406.4350000117,164405.1899999613,164139.424,164150.63499996904,164155.9,164422.466,,24,new
screen,html.Screen,1_1_0_1_25,2021-03-26T10:34:55.752Z,,,,,,,,,,,,,,,,53,,,,,,,,,,,,,,343.9639999596693,response,,,,99,,,,,,Space,keypress(Space),,,,,,,,---- -- ----- -- ------ - ------- --- ----------<br>------------- ------ ------ ---- ---- ------- ----- -- ----<br>-------- ------- -- ---------- --- - --- study ----- ----<br>---- --- --- ----- --- ---- ---- ------- ----- ---- -------<br>--- --- -- ----- -- --- ---- -- --- ---- -- ------ ------<br>--- ----- -- ----,164767.44500000495,164766.42999995966,164405.774,164406.74999996554,164422.466,164771.933,,25,study
screen,html.Screen,1_1_0_1_26,2021-03-26T10:34:56.059Z,,,,,,,,,,,,,,,,53,,,,,,,,,,,,,,301.7719999879773,response,,,,99,,,,,,Space,keypress(Space),,,,,,,,---- -- ----- -- ------ - ------- --- ----------<br>------------- ------ ------ ---- ---- ------- ----- -- ----<br>-------- ------- -- ---------- --- - --- ----- finds ----<br>---- --- --- ----- --- ---- ---- ------- ----- ---- -------<br>--- --- -- ----- -- --- ---- -- --- ---- -- ------ ------<br>--- ----- -- ----,165074.7449999908,165073.70499998797,164755.499,164767.669999972,164771.933,165088.4,,26,finds
screen,html.Screen,1_1_0_1_27,2021-03-26T10:34:56.412Z,,,,,,,,,,,,,,,,53,,,,,,,,,,,,,,338.07499998566345,response,,,,99,,,,,,Space,keypress(Space),,,,,,,,---- -- ----- -- ------ - ------- --- ----------<br>------------- ------ ------ ---- ---- ------- ----- -- ----<br>-------- ------- -- ---------- --- - --- ----- ----- that<br>---- --- --- ----- --- ---- ---- ------- ----- ---- -------<br>--- --- -- ----- -- --- ---- -- --- ---- -- ------ ------<br>--- ----- -- ----,165427.60000005364,165426.47499998566,165071.766,165074.98499995563,165088.4,165437.973,,27,that
screen,html.Screen,1_1_0_1_28,2021-03-26T10:34:56.828Z,,,,,,,,,,,,,,,,53,,,,,,,,,,,,,,404.3620000521187,response,,,,99,,,,,,Space,keypress(Space),,,,,,,,---- -- ----- -- ------ - ------- --- ----------<br>------------- ------ ------ ---- ---- ------- ----- -- ----<br>-------- ------- -- ---------- --- - --- ----- ----- ----<br>it's --- --- ----- --- ---- ---- ------- ----- ---- -------<br>--- --- -- ----- -- --- ---- -- --- ---- -- ------ ------<br>--- ----- -- ----,165843.5949999839,165842.33500005212,165421.253,165427.9000000097,165437.973,165854.206,,28,it's
screen,html.Screen,1_1_0_1_29,2021-03-26T10:34:56.995Z,,,,,,,,,,,,,,,,53,,,,,,,,,,,,,,155.9589999851305,response,,,,99,,,,,,Space,keypress(Space),,,,,,,,---- -- ----- -- ------ - ------- --- ----------<br>------------- ------ ------ ---- ---- ------- ----- -- ----<br>-------- ------- -- ---------- --- - --- ----- ----- ----<br>---- not --- ----- --- ---- ---- ------- ----- ---- -------<br>--- --- -- ----- -- --- ---- -- --- ---- -- ------ ------<br>--- ----- -- ----,166011.16500003263,166010.16499998514,165837.686,165843.8399999868,165854.206,166020.599,,29,not
screen,html.Screen,1_1_0_1_30,2021-03-26T10:34:57.417Z,,,,,,,,,,,,,,,,53,,,,,,,,,,,,,,411.6610000305227,response,,,,99,,,,,,Space,keypress(Space),,,,,,,,---- -- ----- -- ------ - ------- --- ----------<br>------------- ------ ------ ---- ---- ------- ----- -- ----<br>-------- ------- -- ---------- --- - --- ----- ----- ----<br>---- --- how ----- --- ---- ---- ------- ----- ---- -------<br>--- --- -- ----- -- --- ---- -- --- ---- -- ------ ------<br>--- ----- -- ----,166433.19500004873,166432.2600000305,166004.077,166011.3999999594,166020.599,166436.895,,30,how
screen,html.Screen,1_1_0_1_31,2021-03-26T10:34:57.834Z,,,,,,,,,,,,,,,,53,,,,,,,,,,,,,,412.14500000097905,response,,,,99,,,,,,Space,keypress(Space),,,,,,,,---- -- ----- -- ------ - ------- --- ----------<br>------------- ------ ------ ---- ---- ------- ----- -- ----<br>-------- ------- -- ---------- --- - --- ----- ----- ----<br>---- --- --- close --- ---- ---- ------- ----- ---- -------<br>--- --- -- ----- -- --- ---- -- --- ---- -- ------ ------<br>--- ----- -- ----,166850.10499996133,166849.04000000097,166420.347,166433.40500001796,166436.895,166853.054,,31,close
screen,html.Screen,1_1_0_1_32,2021-03-26T10:34:58.204Z,,,,,,,,,,,,,,,,53,,,,,,,,,,,,,,365.44100003736094,response,,,,99,,,,,,Space,keypress(Space),,,,,,,,---- -- ----- -- ------ - ------- --- ----------<br>------------- ------ ------ ---- ---- ------- ----- -- ----<br>-------- ------- -- ---------- --- - --- ----- ----- ----<br>---- --- --- ----- you ---- ---- ------- ----- ---- -------<br>--- --- -- ----- -- --- ---- -- --- ---- -- ------ ------<br>--- ----- -- ----,167219.61999998894,167218.49500003736,166836.515,166850.37500003818,166853.054,167236.046,,32,you
screen,html.Screen,1_1_0_1_33,2021-03-26T10:34:58.492Z,,,,,,,,,,,,,,,,53,,,,,,,,,,,,,,270.9890000169107,response,,,,99,,,,,,Space,keypress(Space),,,,,,,,---- -- ----- -- ------ - ------- --- ----------<br>------------- ------ ------ ---- ---- ------- ----- -- ----<br>-------- ------- -- ---------- --- - --- ----- ----- ----<br>---- --- --- ----- --- feel ---- ------- ----- ---- -------<br>--- --- -- ----- -- --- ---- -- --- ---- -- ------ ------<br>--- ----- -- ----,167507.95500003733,167507.0350000169,167219.41,167219.86499999184,167236.046,167519.051,,33,feel
screen,html.Screen,1_1_0_1_34,2021-03-26T10:34:58.711Z,,,,,,,,,,,,,,,,53,,,,,,,,,,,,,,206.57399996274034,response,,,,99,,,,,,Space,keypress(Space),,,,,,,,---- -- ----- -- ------ - ------- --- ----------<br>------------- ------ ------ ---- ---- ------- ----- -- ----<br>-------- ------- -- ---------- --- - --- ----- ----- ----<br>---- --- --- ----- --- ---- that ------- ----- ---- -------<br>--- --- -- ----- -- --- ---- -- --- ---- -- ------ ------<br>--- ----- -- ----,167726.8000000622,167725.62499996275,167502.448,167508.20999999996,167519.051,167735.505,,34,that
screen,html.Screen,1_1_0_1_35,2021-03-26T10:34:59.113Z,,,,,,,,,,,,,,,,53,,,,,,,,,,,,,,391.9500000671251,response,,,,99,,,,,,Space,keypress(Space),,,,,,,,---- -- ----- -- ------ - ------- --- ----------<br>------------- ------ ------ ---- ---- ------- ----- -- ----<br>-------- ------- -- ---------- --- - --- ----- ----- ----<br>---- --- --- ----- --- ---- ---- matters ----- ---- -------<br>--- --- -- ----- -- --- ---- -- --- ---- -- ------ ------<br>--- ----- -- ----,168128.54499998502,168127.45500006713,167718.94,167727.01999999117,167735.505,168134.947,,35,matters
screen,html.Screen,1_1_0_1_36,2021-03-26T10:34:59.416Z,,,,,,,,,,,,,,,,53,,,,,,,,,,,,,,295.6679999611224,response,,,,99,,,,,,Space,keypress(Space),,,,,,,,"---- -- ----- -- ------ - ------- --- ----------<br>------------- ------ ------ ---- ---- ------- ----- -- ----<br>-------- ------- -- ---------- --- - --- ----- ----- ----<br>---- --- --- ----- --- ---- ---- ------- most, ---- -------<br>--- --- -- ----- -- --- ---- -- --- ---- -- ------ ------<br>--- ----- -- ----",168431.62000004668,168430.6149999611,168118.451,168128.795000026,168134.947,168434.685,,36,"most,"
screen,html.Screen,1_1_0_1_37,2021-03-26T10:34:59.690Z,,,,,,,,,,,,,,,,53,,,,,,,,,,,,,,270.26000000495696,response,,,,99,,,,,,Space,keypress(Space),,,,,,,,---- -- ----- -- ------ - ------- --- ----------<br>------------- ------ ------ ---- ---- ------- ----- -- ----<br>-------- ------- -- ---------- --- - --- ----- ----- ----<br>---- --- --- ----- --- ---- ---- ------- ----- it's -------<br>--- --- -- ----- -- --- ---- -- --- ---- -- ------ ------<br>--- ----- -- ----,168705.9649999719,168704.94500000495,168418.145,168431.85499997344,168434.685,168718.163,,37,it's
screen,html.Screen,1_1_0_1_38,2021-03-26T10:35:00.173Z,,,,,,,,,,,,,,,,53,,,,,,,,,,,,,,469.6269999963115,response,,,,99,,,,,,Space,keypress(Space),,,,,,,,---- -- ----- -- ------ - ------- --- ----------<br>------------- ------ ------ ---- ---- ------- ----- -- ----<br>-------- ------- -- ---------- --- - --- ----- ----- ----<br>---- --- --- ----- --- ---- ---- ------- ----- ---- whether<br>--- --- -- ----- -- --- ---- -- --- ---- -- ------ ------<br>--- ----- -- ----,169188.94000002183,169187.7899999963,168701.115,168706.28499996383,168718.163,169200.534,,38,whether
screen,html.Screen,1_1_0_1_39,2021-03-26T10:35:00.918Z,,,,,,,,,,,,,,,,53,,,,,,,,,,,,,,732.7510000355251,response,,,,99,,,,,,Space,keypress(Space),,,,,,,,---- -- ----- -- ------ - ------- --- ----------<br>------------- ------ ------ ---- ---- ------- ----- -- ----<br>-------- ------- -- ---------- --- - --- ----- ----- ----<br>---- --- --- ----- --- ---- ---- ------- ----- ---- -------<br>you --- -- ----- -- --- ---- -- --- ---- -- ------ ------<br>--- ----- -- ----,169934.28499996662,169933.28500003554,169183.972,169189.24500001594,169200.534,169949.727,,39,you
screen,html.Screen,1_1_0_1_40,2021-03-26T10:35:01.252Z,,,,,,,,,,,,,,,,53,,,,,,,,,,,,,,316.6330000087037,response,,,,99,,,,,,Space,keypress(Space),,,,,,,,---- -- ----- -- ------ - ------- --- ----------<br>------------- ------ ------ ---- ---- ------- ----- -- ----<br>-------- ------- -- ---------- --- - --- ----- ----- ----<br>---- --- --- ----- --- ---- ---- ------- ----- ---- -------<br>--- are -- ----- -- --- ---- -- --- ---- -- ------ ------<br>--- ----- -- ----,170267.37500005402,170266.36000000872,169933.185,169934.60000003688,169949.727,170282.615,,40,are
screen,html.Screen,1_1_0_1_41,2021-03-26T10:35:01.534Z,,,,,,,,,,,,,,,,53,,,,,,,,,,,,,,266.21499998518266,response,,,,99,,,,,,Space,keypress(Space),,,,,,,,---- -- ----- -- ------ - ------- --- ----------<br>------------- ------ ------ ---- ---- ------- ----- -- ----<br>-------- ------- -- ---------- --- - --- ----- ----- ----<br>---- --- --- ----- --- ---- ---- ------- ----- ---- -------<br>--- --- as ----- -- --- ---- -- --- ---- -- ------ ------<br>--- ----- -- ----,170549.92500005756,170548.82999998517,170266.099,170267.60500005912,170282.615,170565.703,,41,as
screen,html.Screen,1_1_0_1_42,2021-03-26T10:35:02.006Z,,,,,,,,,,,,,,,,53,,,,,,,,,,,,,,455.542000069021,response,,,,99,,,,,,Space,keypress(Space),,,,,,,,---- -- ----- -- ------ - ------- --- ----------<br>------------- ------ ------ ---- ---- ------- ----- -- ----<br>-------- ------- -- ---------- --- - --- ----- ----- ----<br>---- --- --- ----- --- ---- ---- ------- ----- ---- -------<br>--- --- -- close -- --- ---- -- --- ---- -- ------ ------<br>--- ----- -- ----,171022.2800000338,171021.24500006903,170549.101,170550.18500005826,170565.703,171031.787,,42,close
screen,html.Screen,1_1_0_1_43,2021-03-26T10:35:02.369Z,,,,,,,,,,,,,,,,53,,,,,,,,,,,,,,352.17300000647083,response,,,,99,,,,,,Space,keypress(Space),,,,,,,,---- -- ----- -- ------ - ------- --- ----------<br>------------- ------ ------ ---- ---- ------- ----- -- ----<br>-------- ------- -- ---------- --- - --- ----- ----- ----<br>---- --- --- ----- --- ---- ---- ------- ----- ---- -------<br>--- --- -- ----- as --- ---- -- --- ---- -- ------ ------<br>--- ----- -- ----,171385.035000043,171383.96000000648,171015.314,171022.5250000367,171031.787,171398.565,,43,as
screen,html.Screen,1_1_0_1_44,2021-03-26T10:35:02.803Z,,,,,,,,,,,,,,,,53,,,,,,,,,,,,,,418.95500004052883,response,,,,99,,,,,,Space,keypress(Space),,,,,,,,---- -- ----- -- ------ - ------- --- ----------<br>------------- ------ ------ ---- ---- ------- ----- -- ----<br>-------- ------- -- ---------- --- - --- ----- ----- ----<br>---- --- --- ----- --- ---- ---- ------- ----- ---- -------<br>--- --- -- ----- -- you ---- -- --- ---- -- ------ ------<br>--- ----- -- ----,171818.68000002578,171817.52000004053,171381.548,171385.31499996316,171398.565,171830.979,,44,you
screen,html.Screen,1_1_0_1_45,2021-03-26T10:35:03.324Z,,,,,,,,,,,,,,,,53,,,,,,,,,,,,,,507.2659999917378,response,,,,99,,,,,,Space,keypress(Space),,,,,,,,---- -- ----- -- ------ - ------- --- ----------<br>------------- ------ ------ ---- ---- ------- ----- -- ----<br>-------- ------- -- ---------- --- - --- ----- ----- ----<br>---- --- --- ----- --- ---- ---- ------- ----- ---- -------<br>--- --- -- ----- -- --- want -- --- ---- -- ------ ------<br>--- ----- -- ----,172339.38500005752,172338.24499999173,171814.401,171819.0150000155,171830.979,172346.888,,45,want
screen,html.Screen,1_1_0_1_46,2021-03-26T10:35:03.559Z,,,,,,,,,,,,,,,,53,,,,,,,,,,,,,,226.71200000334647,response,,,,99,,,,,,Space,keypress(Space),,,,,,,,---- -- ----- -- ------ - ------- --- ----------<br>------------- ------ ------ ---- ---- ------- ----- -- ----<br>-------- ------- -- ---------- --- - --- ----- ----- ----<br>---- --- --- ----- --- ---- ---- ------- ----- ---- -------<br>--- --- -- ----- -- --- ---- to --- ---- -- ------ ------<br>--- ----- -- ----,172574.729999993,172573.60000000335,172330.581,172339.6649999777,172346.888,172579.932,,46,to
screen,html.Screen,1_1_0_1_47,2021-03-26T10:35:03.839Z,,,,,,,,,,,,,,,,53,,,,,,,,,,,,,,273.87800000052084,response,,,,99,,,,,,Space,keypress(Space),,,,,,,,"---- -- ----- -- ------ - ------- --- ----------<br>------------- ------ ------ ---- ---- ------- ----- -- ----<br>-------- ------- -- ---------- --- - --- ----- ----- ----<br>---- --- --- ----- --- ---- ---- ------- ----- ---- -------<br>--- --- -- ----- -- --- ---- -- be, ---- -- ------ ------<br>--- ----- -- ----",172854.94500002824,172853.81000000052,172563.563,172574.9899999937,172579.932,172863.154,,47,"be,"
screen,html.Screen,1_1_0_1_48,2021-03-26T10:35:04.136Z,,,,,,,,,,,,,,,,53,,,,,,,,,,,,,,287.6059999895224,response,,,,99,,,,,,Space,keypress(Space),,,,,,,,---- -- ----- -- ------ - ------- --- ----------<br>------------- ------ ------ ---- ---- ------- ----- -- ----<br>-------- ------- -- ---------- --- - --- ----- ----- ----<br>---- --- --- ----- --- ---- ---- ------- ----- ---- -------<br>--- --- -- ----- -- --- ---- -- --- even -- ------ ------<br>--- ----- -- ----,173151.82999998797,173150.75999998953,172846.583,172855.22500006482,172863.154,173162.846,,48,even
screen,html.Screen,1_1_0_1_49,2021-03-26T10:35:04.429Z,,,,,,,,,,,,,,,,53,,,,,,,,,,,,,,280.3790000536537,response,,,,99,,,,,,Space,keypress(Space),,,,,,,,---- -- ----- -- ------ - ------- --- ----------<br>------------- ------ ------ ---- ---- ------- ----- -- ----<br>-------- ------- -- ---------- --- - --- ----- ----- ----<br>---- --- --- ----- --- ---- ---- ------- ----- ---- -------<br>--- --- -- ----- -- --- ---- -- --- ---- if ------ ------<br>--- ----- -- ----,173444.5050000213,173443.22500005364,173146.254,173152.11999998428,173162.846,173479.031,,49,if
screen,html.Screen,1_1_0_1_50,2021-03-26T10:35:04.676Z,,,,,,,,,,,,,,,,53,,,,,,,,,,,,,,209.98400001085247,response,,,,99,,,,,,Space,keypress(Space),,,,,,,,---- -- ----- -- ------ - ------- --- ----------<br>------------- ------ ------ ---- ---- ------- ----- -- ----<br>-------- ------- -- ---------- --- - --- ----- ----- ----<br>---- --- --- ----- --- ---- ---- ------- ----- ---- -------<br>--- --- -- ----- -- --- ---- -- --- ---- -- that's ------<br>--- ----- -- ----,173692.3250000691,173689.01500001084,173462.553,173444.7850000579,173479.031,173695.425,,50,that's
screen,html.Screen,1_1_0_1_51,2021-03-26T10:35:05.012Z,,,,,,,,,,,,,,,,53,,,,,,,,,,,,,,331.709999982093,response,,,,99,,,,,,Space,keypress(Space),,,,,,,,---- -- ----- -- ------ - ------- --- ----------<br>------------- ------ ------ ---- ---- ------- ----- -- ----<br>-------- ------- -- ---------- --- - --- ----- ----- ----<br>---- --- --- ----- --- ---- ---- ------- ----- ---- -------<br>--- --- -- ----- -- --- ---- -- --- ---- -- ------ really<br>--- ----- -- ----,174028.15500006545,174027.13499998208,173678.979,173692.5549999578,173695.425,174045.204,,51,really
screen,html.Screen,1_1_0_1_52,2021-03-26T10:35:05.331Z,,,,,,,,,,,,,,,,53,,,,,,,,,,,,,,301.005999988789,response,,,,99,,,,,,Space,keypress(Space),,,,,,,,---- -- ----- -- ------ - ------- --- ----------<br>------------- ------ ------ ---- ---- ------- ----- -- ----<br>-------- ------- -- ---------- --- - --- ----- ----- ----<br>---- --- --- ----- --- ---- ---- ------- ----- ---- -------<br>--- --- -- ----- -- --- ---- -- --- ---- -- ------ ------<br>not ----- -- ----,174347.3000000231,174346.2099999888,174028.6,174030.62500001397,174045.204,174361.559,,52,not
screen,html.Screen,1_1_0_1_53,2021-03-26T10:35:05.547Z,,,,,,,,,,,,,,,,53,,,,,,,,,,,,,,200.61599997000303,response,,,,99,,,,,,Space,keypress(Space),,,,,,,,---- -- ----- -- ------ - ------- --- ----------<br>------------- ------ ------ ---- ---- ------- ----- -- ----<br>-------- ------- -- ---------- --- - --- ----- ----- ----<br>---- --- --- ----- --- ---- ---- ------- ----- ---- -------<br>--- --- -- ----- -- --- ---- -- --- ---- -- ------ ------<br>--- close -- ----,174563.29499999993,174562.17499997,174344.923,174347.61499997694,174361.559,174577.967,,53,close
screen,html.Screen,1_1_0_1_54,2021-03-26T10:35:06.273Z,,,,,,,,,,,,,,,,53,,,,,,,,,,,,,,710.2880000213045,response,,,,99,,,,,,Space,keypress(Space),,,,,,,,---- -- ----- -- ------ - ------- --- ----------<br>------------- ------ ------ ---- ---- ------- ----- -- ----<br>-------- ------- -- ---------- --- - --- ----- ----- ----<br>---- --- --- ----- --- ---- ---- ------- ----- ---- -------<br>--- --- -- ----- -- --- ---- -- --- ---- -- ------ ------<br>--- ----- at ----,175289.32500001974,175288.2550000213,174561.347,174563.59999999404,174577.967,175293.82,,54,at
screen,html.Screen,1_1_0_1_55,2021-03-26T10:35:06.599Z,,,,,,,,,,,,,,,,53,,,,,,,,,,,,,,319.7050000515883,response,,,,99,,,,,,Space,keypress(Space),,,,,,,,---- -- ----- -- ------ - ------- --- ----------<br>------------- ------ ------ ---- ---- ------- ----- -- ----<br>-------- ------- -- ---------- --- - --- ----- ----- ----<br>---- --- --- ----- --- ---- ---- ------- ----- ---- -------<br>--- --- -- ----- -- --- ---- -- --- ---- -- ------ ------<br>--- ----- -- all.,175614.58000005223,175613.5250000516,175277.314,175289.59000005852,175293.82,175626.731,,55,all.
Item 99,flow.Loop,1_1_0_1,2021-03-26T10:35:06.599Z,,,,,,,,,,,,,,,,,,,,,,,,,,,,,,21712.938000051596,completion,,,,,C,,,,,,,,,,silence,,,,,175615.10000005364,175613.5250000516,153867.404,153868.8100000145,153900.587,175626.731,,,
Question 1,html.Screen,1_1_0_2,2021-03-26T10:35:12.458Z,,,,,,,,,,,,,,,,,,,,,,,,,,,true,FALSE,,5845.844000021607,response,,,,99,C,,,,,FALSE,click #choice-2,,,,silence,,,,,181474.18500005733,181472.5750000216,175610.188,175615.26500002947,175626.731,181486.916,,,
Question 2,html.Screen,1_1_0_3,2021-03-26T10:35:16.587Z,,,,,,,,,,,,,,,,,,,,,,,,,,,true,TRUE,,4113.959000003728,response,,,,99,C,,,,,TRUE,click #choice-1,,,,silence,,,,,185602.42500004824,185600.87500000373,181470.485,181474.49000005145,181486.916,185615.818,,,
Item 99,flow.Sequence,1_1_0,2021-03-26T10:35:16.587Z,,,,,,,,,,,,,,,,,,,,,,,,,,,,,,38709.20700000372,completion,,,,,,,,,,,,,,,,,,,,185602.83500002697,185600.87500000373,146875.203,146887.19000003766,146891.668,185615.818,,,
Holding screen,html.Screen,1_1_1_0,2021-03-26T10:35:23.577Z,,,,,,,,,,,,,,,,,,,,,,,,,,,,,,6992.201000000001,timeout,,,,,,,,,,,,,,,,,,,,192592.66500000376,192591.491,185599.169,185603.03500003647,185615.818,192608.019,,,
screen,html.Screen,1_1_1_1_0,2021-03-26T10:35:25.097Z,,,,,,,,,,,,,,,,54,,,,,,,,,,,,,,1504.0459999938903,response,,,,100,,,,,,Space,keypress(Space),,,,,,,,At --- ---- --- ------ ----- ------- ---- -- --- ------- --<br>------- ---------- ------ -- ----- -- ----- -- ---- ------<br>--- ----- --- --- ------ -------- ----- --- ------ ----- --<br>----- ----- ---------- --- --- ------ ------ ---- -- ------<br>------- --- ------ ----- --- ---- ------- -- ---- --- --<br>------- ------,194113.22499997914,194112.0649999939,192591.491,192592.9199999664,192608.019,194123.057,,0,At
screen,html.Screen,1_1_1_1_1,2021-03-26T10:35:25.609Z,,,,,,,,,,,,,,,,54,,,,,,,,,,,,,,501.14299996200134,response,,,,100,,,,,,Space,keypress(Space),,,,,,,,-- the ---- --- ------ ----- ------- ---- -- --- ------- --<br>------- ---------- ------ -- ----- -- ----- -- ---- ------<br>--- ----- --- --- ------ -------- ----- --- ------ ----- --<br>----- ----- ---------- --- --- ------ ------ ---- -- ------<br>------- --- ------ ----- --- ---- ------- -- ---- --- --<br>------- ------,194625.25000004098,194624.199999962,194106.739,194113.5100000538,194123.057,194639.239,,1,the
screen,html.Screen,1_1_1_1_2,2021-03-26T10:35:26.320Z,,,,,,,,,,,,,,,,54,,,,,,,,,,,,,,695.1760000484646,response,,,,100,,,,,,Space,keypress(Space),,,,,,,,-- --- time --- ------ ----- ------- ---- -- --- ------- --<br>------- ---------- ------ -- ----- -- ----- -- ---- ------<br>--- ----- --- --- ------ -------- ----- --- ------ ----- --<br>----- ----- ---------- --- --- ------ ------ ---- -- ------<br>------- --- ------ ----- --- ---- ------- -- ---- --- --<br>------- ------,195335.42000001762,195334.41500004847,194622.832,194625.46999996994,194639.239,195338.41,,2,time
screen,html.Screen,1_1_1_1_3,2021-03-26T10:35:26.869Z,,,,,,,,,,,,,,,,54,,,,,,,,,,,,,,544.8950000248442,response,,,,100,,,,,,Space,keypress(Space),,,,,,,,-- --- ---- the ------ ----- ------- ---- -- --- ------- --<br>------- ---------- ------ -- ----- -- ----- -- ---- ------<br>--- ----- --- --- ------ -------- ----- --- ------ ----- --<br>----- ----- ---------- --- --- ------ ------ ---- -- ------<br>------- --- ------ ----- --- ---- ------- -- ---- --- --<br>------- ------,195884.3549999874,195883.30500002485,195321.927,195335.63500002492,195338.41,195887.745,,3,the
screen,html.Screen,1_1_1_1_4,2021-03-26T10:35:27.437Z,,,,,,,,,,,,,,,,54,,,,,,,,,,,,,,564.3150000396417,response,,,,100,,,,,,Space,keypress(Space),,,,,,,,-- --- ---- --- French ----- ------- ---- -- --- ------- --<br>------- ---------- ------ -- ----- -- ----- -- ---- ------<br>--- ----- --- --- ------ -------- ----- --- ------ ----- --<br>----- ----- ---------- --- --- ------ ------ ---- -- ------<br>------- --- ------ ----- --- ---- ------- -- ---- --- --<br>------- ------,196453.14500003587,196452.06000003964,195871.316,195884.61000006646,195887.745,196470.542,,4,French
screen,html.Screen,1_1_1_1_5,2021-03-26T10:35:27.957Z,,,,,,,,,,,,,,,,54,,,,,,,,,,,,,,500.9480000253825,response,,,,100,,,,,,Space,keypress(Space),,,,,,,,-- --- ---- --- ------ crown ------- ---- -- --- ------- --<br>------- ---------- ------ -- ----- -- ----- -- ---- ------<br>--- ----- --- --- ------ -------- ----- --- ------ ----- --<br>----- ----- ---------- --- --- ------ ------ ---- -- ------<br>------- --- ------ ----- --- ---- ------- -- ---- --- --<br>------- ------,196972.5600000238,196971.49000002537,196453.968,196453.43999995384,196470.542,196986.659,,5,crown
screen,html.Screen,1_1_1_1_6,2021-03-26T10:35:28.701Z,,,,,,,,,,,,,,,,54,,,,,,,,,,,,,,728.5259999790869,response,,,,100,,,,,,Space,keypress(Space),,,,,,,,-- --- ---- --- ------ ----- secured ---- -- --- ------- --<br>------- ---------- ------ -- ----- -- ----- -- ---- ------<br>--- ----- --- --- ------ -------- ----- --- ------ ----- --<br>----- ----- ---------- --- --- ------ ------ ---- -- ------<br>------- --- ------ ----- --- ---- ------- -- ---- --- --<br>------- ------,197716.40499995556,197715.1849999791,196970.104,196972.7750000311,196986.659,197719.13,,6,secured
screen,html.Screen,1_1_1_1_7,2021-03-26T10:35:29.190Z,,,,,,,,,,,,,,,,54,,,,,,,,,,,,,,485.1300000277115,response,,,,100,,,,,,Space,keypress(Space),,,,,,,,-- --- ---- --- ------ ----- ------- much -- --- ------- --<br>------- ---------- ------ -- ----- -- ----- -- ---- ------<br>--- ----- --- --- ------ -------- ----- --- ------ ----- --<br>----- ----- ---------- --- --- ------ ------ ---- -- ------<br>------- --- ------ ----- --- ---- ------- -- ---- --- --<br>------- ------,198205.50999999978,198204.26000002772,197702.715,197716.61999996286,197719.13,198218.656,,7,much
screen,html.Screen,1_1_1_1_8,2021-03-26T10:35:29.654Z,,,,,,,,,,,,,,,,54,,,,,,,,,,,,,,450.4240000215068,response,,,,100,,,,,,Space,keypress(Space),,,,,,,,-- --- ---- --- ------ ----- ------- ---- of --- ------- --<br>------- ---------- ------ -- ----- -- ----- -- ---- ------<br>--- ----- --- --- ------ -------- ----- --- ------ ----- --<br>----- ----- ---------- --- --- ------ ------ ---- -- ------<br>------- --- ------ ----- --- ---- ------- -- ---- --- --<br>------- ------,198670.0000000419,198669.0800000215,198202.029,198205.71000000928,198218.656,198684.797,,8,of
screen,html.Screen,1_1_1_1_9,2021-03-26T10:35:30.195Z,,,,,,,,,,,,,,,,54,,,,,,,,,,,,,,525.0730000206095,response,,,,100,,,,,,Space,keypress(Space),,,,,,,,-- --- ---- --- ------ ----- ------- ---- -- its ------- --<br>------- ---------- ------ -- ----- -- ----- -- ---- ------<br>--- ----- --- --- ------ -------- ----- --- ------ ----- --<br>----- ----- ---------- --- --- ------ ------ ---- -- ------<br>------- --- ------ ----- --- ---- ------- -- ---- --- --<br>------- ------,199211.03500004392,199209.8700000206,198668.198,198670.20499997307,198684.797,199217.367,,9,its
screen,html.Screen,1_1_1_1_10,2021-03-26T10:35:30.763Z,,,,,,,,,,,,,,,,54,,,,,,,,,,,,,,560.3779999703111,response,,,,100,,,,,,Space,keypress(Space),,,,,,,,-- --- ---- --- ------ ----- ------- ---- -- --- revenue --<br>------- ---------- ------ -- ----- -- ----- -- ---- ------<br>--- ----- --- --- ------ -------- ----- --- ------ ----- --<br>----- ----- ---------- --- --- ------ ------ ---- -- ------<br>------- --- ------ ----- --- ---- ------- -- ---- --- --<br>------- ------,199778.89499999583,199777.7449999703,199200.989,199212.44000003207,199217.367,199783.406,,10,revenue
screen,html.Screen,1_1_1_1_11,2021-03-26T10:35:31.223Z,,,,,,,,,,,,,,,,54,,,,,,,,,,,,,,454.6390000055253,response,,,,100,,,,,,Space,keypress(Space),,,,,,,,-- --- ---- --- ------ ----- ------- ---- -- --- ------- by<br>------- ---------- ------ -- ----- -- ----- -- ---- ------<br>--- ----- --- --- ------ -------- ----- --- ------ ----- --<br>----- ----- ---------- --- --- ------ ------ ---- -- ------<br>------- --- ------ ----- --- ---- ------- -- ---- --- --<br>------- ------,200239.09499996807,200238.0450000055,199767.076,199779.15499999654,199783.406,200249.738,,11,by
screen,html.Screen,1_1_1_1_12,2021-03-26T10:35:31.711Z,,,,,,,,,,,,,,,,54,,,,,,,,,,,,,,476.2970000578789,response,,,,100,,,,,,Space,keypress(Space),,,,,,,,-- --- ---- --- ------ ----- ------- ---- -- --- ------- --<br>issuing ---------- ------ -- ----- -- ----- -- ---- ------<br>--- ----- --- --- ------ -------- ----- --- ------ ----- --<br>----- ----- ---------- --- --- ------ ------ ---- -- ------<br>------- --- ------ ----- --- ---- ------- -- ---- --- --<br>------- ------,200727.1549999714,200726.0350000579,200233.581,200239.37500000466,200249.738,200732.386,,12,issuing
screen,html.Screen,1_1_1_1_13,2021-03-26T10:35:32.487Z,,,,,,,,,,,,,,,,54,,,,,,,,,,,,,,769.5740000232472,response,,,,100,,,,,,Space,keypress(Space),,,,,,,,-- --- ---- --- ------ ----- ------- ---- -- --- ------- --<br>------- government ------ -- ----- -- ----- -- ---- ------<br>--- ----- --- --- ------ -------- ----- --- ------ ----- --<br>----- ----- ---------- --- --- ------ ------ ---- -- ------<br>------- --- ------ ----- --- ---- ------- -- ---- --- --<br>------- ------,201503.01500002388,201501.96000002325,200715.989,200727.45000000577,200732.386,201515.021,,13,government
screen,html.Screen,1_1_1_1_14,2021-03-26T10:35:34.803Z,,,,,,,,,,,,,,,,54,,,,,,,,,,,,,,2302.9189999789814,response,,,,100,,,,,,Space,keypress(Space),,,,,,,,-- --- ---- --- ------ ----- ------- ---- -- --- ------- --<br>------- ---------- bonds. -- ----- -- ----- -- ---- ------<br>--- ----- --- --- ------ -------- ----- --- ------ ----- --<br>----- ----- ---------- --- --- ------ ------ ---- -- ------<br>------- --- ------ ----- --- ---- ------- -- ---- --- --<br>------- ------,203819.02499997523,203817.939999979,201498.411,201503.26000002678,201515.021,203828.973,,14,bonds.
screen,html.Screen,1_1_1_1_15,2021-03-26T10:35:35.423Z,,,,,,,,,,,,,,,,54,,,,,,,,,,,,,,609.151999986032,response,,,,100,,,,,,Space,keypress(Space),,,,,,,,-- --- ---- --- ------ ----- ------- ---- -- --- ------- --<br>------- ---------- ------ In ----- -- ----- -- ---- ------<br>--- ----- --- --- ------ -------- ----- --- ------ ----- --<br>----- ----- ---------- --- --- ------ ------ ---- -- ------<br>------- --- ------ ----- --- ---- ------- -- ---- --- --<br>------- ------,204439.26000001375,204438.12499998603,203812.702,203819.31000004988,203828.973,204444.945,,15,In
screen,html.Screen,1_1_1_1_16,2021-03-26T10:35:36.073Z,,,,,,,,,,,,,,,,54,,,,,,,,,,,,,,642.6650000459631,response,,,,100,,,,,,Space,keypress(Space),,,,,,,,"-- --- ---- --- ------ ----- ------- ---- -- --- ------- --<br>------- ---------- ------ -- 1727, -- ----- -- ---- ------<br>--- ----- --- --- ------ -------- ----- --- ------ ----- --<br>----- ----- ---------- --- --- ------ ------ ---- -- ------<br>------- --- ------ ----- --- ---- ------- -- ---- --- --<br>------- ------",205088.5900000576,205087.61000004597,204428.572,204439.52000001445,204444.945,205094.249,,16,"1727,"
screen,html.Screen,1_1_1_1_17,2021-03-26T10:35:36.710Z,,,,,,,,,,,,,,,,54,,,,,,,,,,,,,,630.3559999957797,response,,,,100,,,,,,Space,keypress(Space),,,,,,,,-- --- ---- --- ------ ----- ------- ---- -- --- ------- --<br>------- ---------- ------ -- ----- in ----- -- ---- ------<br>--- ----- --- --- ------ -------- ----- --- ------ ----- --<br>----- ----- ---------- --- --- ------ ------ ---- -- ------<br>------- --- ------ ----- --- ---- ------- -- ---- --- --<br>------- ------,205725.68999999203,205724.6049999958,205077.817,205088.80999998655,205094.249,205757.126,,17,in
screen,html.Screen,1_1_1_1_18,2021-03-26T10:35:37.247Z,,,,,,,,,,,,,,,,54,,,,,,,,,,,,,,504.2439999638009,response,,,,100,,,,,,Space,keypress(Space),,,,,,,,-- --- ---- --- ------ ----- ------- ---- -- --- ------- --<br>------- ---------- ------ -- ----- -- order -- ---- ------<br>--- ----- --- --- ------ -------- ----- --- ------ ----- --<br>----- ----- ---------- --- --- ------ ------ ---- -- ------<br>------- --- ------ ----- --- ---- ------- -- ---- --- --<br>------- ------,206262.42000004277,206261.3699999638,205710.29,205725.90499999933,205757.126,206276.435,,18,order
screen,html.Screen,1_1_1_1_19,2021-03-26T10:35:37.604Z,,,,,,,,,,,,,,,,54,,,,,,,,,,,,,,342.2499999940046,response,,,,100,,,,,,Space,keypress(Space),,,,,,,,-- --- ---- --- ------ ----- ------- ---- -- --- ------- --<br>------- ---------- ------ -- ----- -- ----- to ---- ------<br>--- ----- --- --- ------ -------- ----- --- ------ ----- --<br>----- ----- ---------- --- --- ------ ------ ---- -- ------<br>------- --- ------ ----- --- ---- ------- -- ---- --- --<br>------- ------,206619.8400000576,206618.684999994,206259.95,206262.63999997173,206276.435,206625.997,,19,to
screen,html.Screen,1_1_1_1_20,2021-03-26T10:35:37.946Z,,,,,,,,,,,,,,,,54,,,,,,,,,,,,,,334.31800003300305,response,,,,100,,,,,,Space,keypress(Space),,,,,,,,-- --- ---- --- ------ ----- ------- ---- -- --- ------- --<br>------- ---------- ------ -- ----- -- ----- -- save ------<br>--- ----- --- --- ------ -------- ----- --- ------ ----- --<br>----- ----- ---------- --- --- ------ ------ ---- -- ------<br>------- --- ------ ----- --- ---- ------- -- ---- --- --<br>------- ------,206961.48000005633,206960.315000033,206609.483,206620.0550000649,206625.997,206975.65,,20,save
screen,html.Screen,1_1_1_1_21,2021-03-26T10:35:38.294Z,,,,,,,,,,,,,,,,54,,,,,,,,,,,,,,333.07500000987784,response,,,,100,,,,,,Space,keypress(Space),,,,,,,,"-- --- ---- --- ------ ----- ------- ---- -- --- ------- --<br>------- ---------- ------ -- ----- -- ----- -- ---- money,<br>--- ----- --- --- ------ -------- ----- --- ------ ----- --<br>----- ----- ---------- --- --- ------ ------ ---- -- ------<br>------- --- ------ ----- --- ---- ------- -- ---- --- --<br>------- ------",207309.8400000017,207308.72500000987,206959.041,206961.7449999787,206975.65,207325.297,,21,"money,"
screen,html.Screen,1_1_1_1_22,2021-03-26T10:35:38.694Z,,,,,,,,,,,,,,,,54,,,,,,,,,,,,,,383.32300004854915,response,,,,100,,,,,,Space,keypress(Space),,,,,,,,-- --- ---- --- ------ ----- ------- ---- -- --- ------- --<br>------- ---------- ------ -- ----- -- ----- -- ---- ------<br>the ----- --- --- ------ -------- ----- --- ------ ----- --<br>----- ----- ---------- --- --- ------ ------ ---- -- ------<br>------- --- ------ ----- --- ---- ------- -- ---- --- --<br>------- ------,207709.64500005357,207708.62000004854,207308.691,207310.0400000112,207325.297,207724.844,,22,the
screen,html.Screen,1_1_1_1_23,2021-03-26T10:35:38.990Z,,,,,,,,,,,,,,,,54,,,,,,,,,,,,,,280.3710000119463,response,,,,100,,,,,,Space,keypress(Space),,,,,,,,-- --- ---- --- ------ ----- ------- ---- -- --- ------- --<br>------- ---------- ------ -- ----- -- ----- -- ---- ------<br>--- state --- --- ------ -------- ----- --- ------ ----- --<br>----- ----- ---------- --- --- ------ ------ ---- -- ------<br>------- --- ------ ----- --- ---- ------- -- ---- --- --<br>------- ------,208006.33999996353,208005.21500001196,207708.296,207709.9600000074,207724.844,208028.116,,23,state
screen,html.Screen,1_1_1_1_24,2021-03-26T10:35:39.411Z,,,,,,,,,,,,,,,,54,,,,,,,,,,,,,,397.30399998501525,response,,,,100,,,,,,Space,keypress(Space),,,,,,,,-- --- ---- --- ------ ----- ------- ---- -- --- ------- --<br>------- ---------- ------ -- ----- -- ----- -- ---- ------<br>--- ----- cut --- ------ -------- ----- --- ------ ----- --<br>----- ----- ---------- --- --- ------ ------ ---- -- ------<br>------- --- ------ ----- --- ---- ------- -- ---- --- --<br>------- ------,208426.61500000395,208425.41999998502,207991.272,208006.55499997083,208028.116,208440.725,,24,cut
screen,html.Screen,1_1_1_1_25,2021-03-26T10:35:39.763Z,,,,,,,,,,,,,,,,54,,,,,,,,,,,,,,336.9350000215636,response,,,,100,,,,,,Space,keypress(Space),,,,,,,,-- --- ---- --- ------ ----- ------- ---- -- --- ------- --<br>------- ---------- ------ -- ----- -- ----- -- ---- ------<br>--- ----- --- the ------ -------- ----- --- ------ ----- --<br>----- ----- ---------- --- --- ------ ------ ---- -- ------<br>------- --- ------ ----- --- ---- ------- -- ---- --- --<br>------- ------,208778.7750000134,208777.66000002157,208424.109,208426.86999996658,208440.725,208790.347,,25,the
screen,html.Screen,1_1_1_1_26,2021-03-26T10:35:40.071Z,,,,,,,,,,,,,,,,54,,,,,,,,,,,,,,295.3930000095279,response,,,,100,,,,,,Space,keypress(Space),,,,,,,,-- --- ---- --- ------ ----- ------- ---- -- --- ------- --<br>------- ---------- ------ -- ----- -- ----- -- ---- ------<br>--- ----- --- --- bonds' -------- ----- --- ------ ----- --<br>----- ----- ---------- --- --- ------ ------ ---- -- ------<br>------- --- ------ ----- --- ---- ------- -- ---- --- --<br>------- ------,209086.99500001967,209085.74000000954,208773.832,208779.05500005,208790.347,209089.858,,26,bonds'
screen,html.Screen,1_1_1_1_27,2021-03-26T10:35:40.418Z,,,,,,,,,,,,,,,,54,,,,,,,,,,,,,,343.0470000524074,response,,,,100,,,,,,Space,keypress(Space),,,,,,,,-- --- ---- --- ------ ----- ------- ---- -- --- ------- --<br>------- ---------- ------ -- ----- -- ----- -- ---- ------<br>--- ----- --- --- ------ interest ----- --- ------ ----- --<br>----- ----- ---------- --- --- ------ ------ ---- -- ------<br>------- --- ------ ----- --- ---- ------- -- ---- --- --<br>------- ------,209434.05000003986,209432.90500005241,209073.42,209087.21000002697,209089.858,209439.451,,27,interest
screen,html.Screen,1_1_1_1_28,2021-03-26T10:35:40.770Z,,,,,,,,,,,,,,,,54,,,,,,,,,,,,,,345.3840000567725,response,,,,100,,,,,,Space,keypress(Space),,,,,,,,-- --- ---- --- ------ ----- ------- ---- -- --- ------- --<br>------- ---------- ------ -- ----- -- ----- -- ---- ------<br>--- ----- --- --- ------ -------- rate. --- ------ ----- --<br>----- ----- ---------- --- --- ------ ------ ---- -- ------<br>------- --- ------ ----- --- ---- ------- -- ---- --- --<br>------- ------,209786.13000002224,209784.83500005677,209422.994,209434.32999996003,209439.451,209789.088,,28,rate.
screen,html.Screen,1_1_1_1_29,2021-03-26T10:35:41.847Z,,,,,,,,,,,,,,,,54,,,,,,,,,,,,,,1073.1569999675266,response,,,,100,,,,,,Space,keypress(Space),,,,,,,,-- --- ---- --- ------ ----- ------- ---- -- --- ------- --<br>------- ---------- ------ -- ----- -- ----- -- ---- ------<br>--- ----- --- --- ------ -------- ----- The ------ ----- --<br>----- ----- ---------- --- --- ------ ------ ---- -- ------<br>------- --- ------ ----- --- ---- ------- -- ---- --- --<br>------- ------,210863.3250000421,210862.24499996752,209772.618,209786.41499998048,209789.088,210871.271,,29,The
screen,html.Screen,1_1_1_1_30,2021-03-26T10:35:42.256Z,,,,,,,,,,,,,,,,54,,,,,,,,,,,,,,399.38400000025285,response,,,,100,,,,,,Space,keypress(Space),,,,,,,,-- --- ---- --- ------ ----- ------- ---- -- --- ------- --<br>------- ---------- ------ -- ----- -- ----- -- ---- ------<br>--- ----- --- --- ------ -------- ----- --- market ----- --<br>----- ----- ---------- --- --- ------ ------ ---- -- ------<br>------- --- ------ ----- --- ---- ------- -- ---- --- --<br>------- ------,211271.6950000031,211270.65500000026,210854.838,210863.5100000538,210871.271,211287.537,,30,market
screen,html.Screen,1_1_1_1_31,2021-03-26T10:35:42.582Z,,,,,,,,,,,,,,,,54,,,,,,,,,,,,,,308.77799997339025,response,,,,100,,,,,,Space,keypress(Space),,,,,,,,-- --- ---- --- ------ ----- ------- ---- -- --- ------- --<br>------- ---------- ------ -- ----- -- ----- -- ---- ------<br>--- ----- --- --- ------ -------- ----- --- ------ value --<br>----- ----- ---------- --- --- ------ ------ ---- -- ------<br>------- --- ------ ----- --- ---- ------- -- ---- --- --<br>------- ------,211597.3750000121,211596.3149999734,211270.984,211272.00500003528,211287.537,211603.895,,31,value
screen,html.Screen,1_1_1_1_32,2021-03-26T10:35:42.975Z,,,,,,,,,,,,,,,,54,,,,,,,,,,,,,,386.0000000060827,response,,,,100,,,,,,Space,keypress(Space),,,,,,,,-- --- ---- --- ------ ----- ------- ---- -- --- ------- --<br>------- ---------- ------ -- ----- -- ----- -- ---- ------<br>--- ----- --- --- ------ -------- ----- --- ------ ----- of<br>----- ----- ---------- --- --- ------ ------ ---- -- ------<br>------- --- ------ ----- --- ---- ------- -- ---- --- --<br>------- ------,211990.9350000089,211989.89500000607,211587.298,211597.62999997474,211603.895,212003.498,,32,of
screen,html.Screen,1_1_1_1_33,2021-03-26T10:35:43.364Z,,,,,,,,,,,,,,,,54,,,,,,,,,,,,,,375.48699995936477,response,,,,100,,,,,,Space,keypress(Space),,,,,,,,-- --- ---- --- ------ ----- ------- ---- -- --- ------- --<br>------- ---------- ------ -- ----- -- ----- -- ---- ------<br>--- ----- --- --- ------ -------- ----- --- ------ ----- --<br>these ----- ---------- --- --- ------ ------ ---- -- ------<br>------- --- ------ ----- --- ---- ------- -- ---- --- --<br>------- ------,212380.1000000676,212378.98499995936,211986.889,211991.2300000433,212003.498,212386.231,,33,these
screen,html.Screen,1_1_1_1_34,2021-03-26T10:35:43.686Z,,,,,,,,,,,,,,,,54,,,,,,,,,,,,,,314.0540000280889,response,,,,100,,,,,,Space,keypress(Space),,,,,,,,-- --- ---- --- ------ ----- ------- ---- -- --- ------- --<br>------- ---------- ------ -- ----- -- ----- -- ---- ------<br>--- ----- --- --- ------ -------- ----- --- ------ ----- --<br>----- bonds ---------- --- --- ------ ------ ---- -- ------<br>------- --- ------ ----- --- ---- ------- -- ---- --- --<br>------- ------,212701.3900000602,212700.2850000281,212369.788,212380.42000005953,212386.231,212719.393,,34,bonds
screen,html.Screen,1_1_1_1_35,2021-03-26T10:35:44.057Z,,,,,,,,,,,,,,,,54,,,,,,,,,,,,,,352.2520000181685,response,,,,100,,,,,,Space,keypress(Space),,,,,,,,"-- --- ---- --- ------ ----- ------- ---- -- --- ------- --<br>------- ---------- ------ -- ----- -- ----- -- ---- ------<br>--- ----- --- --- ------ -------- ----- --- ------ ----- --<br>----- ----- plummeted, --- --- ------ ------ ---- -- ------<br>------- --- ------ ----- --- ---- ------- -- ---- --- --<br>------- ------",213072.99000001512,213071.64500001818,212686.125,212701.63999998476,212719.393,213085.59,,35,"plummeted,"
screen,html.Screen,1_1_1_1_36,2021-03-26T10:35:44.669Z,,,,,,,,,,,,,,,,54,,,,,,,,,,,,,,598.3550000552495,response,,,,100,,,,,,Space,keypress(Space),,,,,,,,-- --- ---- --- ------ ----- ------- ---- -- --- ------- --<br>------- ---------- ------ -- ----- -- ----- -- ---- ------<br>--- ----- --- --- ------ -------- ----- --- ------ ----- --<br>----- ----- ---------- and --- ------ ------ ---- -- ------<br>------- --- ------ ----- --- ---- ------- -- ---- --- --<br>------- ------,213684.54000004567,213683.94500005525,213069.014,213073.19000002462,213085.59,213701.459,,36,and
screen,html.Screen,1_1_1_1_37,2021-03-26T10:35:45.248Z,,,,,,,,,,,,,,,,54,,,,,,,,,,,,,,561.8010000360955,response,,,,100,,,,,,Space,keypress(Space),,,,,,,,-- --- ---- --- ------ ----- ------- ---- -- --- ------- --<br>------- ---------- ------ -- ----- -- ----- -- ---- ------<br>--- ----- --- --- ------ -------- ----- --- ------ ----- --<br>----- ----- ---------- --- the ------ ------ ---- -- ------<br>------- --- ------ ----- --- ---- ------- -- ---- --- --<br>------- ------,214264.16999998037,214263.2600000361,213685.06,213684.68499998562,213701.459,214267.436,,37,the
screen,html.Screen,1_1_1_1_38,2021-03-26T10:35:45.672Z,,,,,,,,,,,,,,,,54,,,,,,,,,,,,,,419.21899996860884,response,,,,100,,,,,,Space,keypress(Space),,,,,,,,-- --- ---- --- ------ ----- ------- ---- -- --- ------- --<br>------- ---------- ------ -- ----- -- ----- -- ---- ------<br>--- ----- --- --- ------ -------- ----- --- ------ ----- --<br>----- ----- ---------- --- --- market ------ ---- -- ------<br>------- --- ------ ----- --- ---- ------- -- ---- --- --<br>------- ------,214687.7150000073,214686.6549999686,214251.052,214264.39000002574,214267.436,214700.504,,38,market
screen,html.Screen,1_1_1_1_39,2021-03-26T10:35:46.047Z,,,,,,,,,,,,,,,,54,,,,,,,,,,,,,,361.05100002206746,response,,,,100,,,,,,Space,keypress(Space),,,,,,,,-- --- ---- --- ------ ----- ------- ---- -- --- ------- --<br>------- ---------- ------ -- ----- -- ----- -- ---- ------<br>--- ----- --- --- ------ -------- ----- --- ------ ----- --<br>----- ----- ---------- --- --- ------ became ---- -- ------<br>------- --- ------ ----- --- ---- ------- -- ---- --- --<br>------- ------,215062.63499998022,215061.55500002205,214683.785,214687.900000019,214700.504,215066.6,,39,became
screen,html.Screen,1_1_1_1_40,2021-03-26T10:35:46.515Z,,,,,,,,,,,,,,,,54,,,,,,,,,,,,,,463.99500001835986,response,,,,100,,,,,,Space,keypress(Space),,,,,,,,-- --- ---- --- ------ ----- ------- ---- -- --- ------- --<br>------- ---------- ------ -- ----- -- ----- -- ---- ------<br>--- ----- --- --- ------ -------- ----- --- ------ ----- --<br>----- ----- ---------- --- --- ------ ------ wary -- ------<br>------- --- ------ ----- --- ---- ------- -- ---- --- --<br>------- ------,215531.3399999868,215530.59500001837,215050.163,215062.90999997873,215066.6,215564.134,,40,wary
screen,html.Screen,1_1_1_1_41,2021-03-26T10:35:46.864Z,,,,,,,,,,,,,,,,54,,,,,,,,,,,,,,314.78100000842824,response,,,,100,,,,,,Space,keypress(Space),,,,,,,,-- --- ---- --- ------ ----- ------- ---- -- --- ------- --<br>------- ---------- ------ -- ----- -- ----- -- ---- ------<br>--- ----- --- --- ------ -------- ----- --- ------ ----- --<br>----- ----- ---------- --- --- ------ ------ ---- of ------<br>------- --- ------ ----- --- ---- ------- -- ---- --- --<br>------- ------,215879.94000001345,215878.91500000842,215516.363,215531.5600000322,215564.134,215882.347,,41,of
screen,html.Screen,1_1_1_1_42,2021-03-26T10:35:47.258Z,,,,,,,,,,,,,,,,54,,,,,,,,,,,,,,391.58300002483884,response,,,,100,,,,,,Space,keypress(Space),,,,,,,,-- --- ---- --- ------ ----- ------- ---- -- --- ------- --<br>------- ---------- ------ -- ----- -- ----- -- ---- ------<br>--- ----- --- --- ------ -------- ----- --- ------ ----- --<br>----- ----- ---------- --- --- ------ ------ ---- -- French<br>------- --- ------ ----- --- ---- ------- -- ---- --- --<br>------- ------,216274.33000004385,216273.93000002485,215865.852,215880.03999996,215882.347,216281.89,,42,French
screen,html.Screen,1_1_1_1_43,2021-03-26T10:35:47.666Z,,,,,,,,,,,,,,,,54,,,,,,,,,,,,,,399.04500006942544,response,,,,100,,,,,,Space,keypress(Space),,,,,,,,-- --- ---- --- ------ ----- ------- ---- -- --- ------- --<br>------- ---------- ------ -- ----- -- ----- -- ---- ------<br>--- ----- --- --- ------ -------- ----- --- ------ ----- --<br>----- ----- ---------- --- --- ------ ------ ---- -- ------<br>credit. --- ------ ----- --- ---- ------- -- ---- --- --<br>------- ------,216681.985000032,216680.93500006944,216265.347,216274.44000006653,216281.89,216698.277,,43,credit.
screen,html.Screen,1_1_1_1_44,2021-03-26T10:35:48.609Z,,,,,,,,,,,,,,,,54,,,,,,,,,,,,,,925.6730000374373,response,,,,100,,,,,,Space,keypress(Space),,,,,,,,-- --- ---- --- ------ ----- ------- ---- -- --- ------- --<br>------- ---------- ------ -- ----- -- ----- -- ---- ------<br>--- ----- --- --- ------ -------- ----- --- ------ ----- --<br>----- ----- ---------- --- --- ------ ------ ---- -- ------<br>------- The ------ ----- --- ---- ------- -- ---- --- --<br>------- ------,217624.97999996413,217623.95000003744,216681.612,216682.2450000327,216698.277,217630.496,,44,The
screen,html.Screen,1_1_1_1_45,2021-03-26T10:35:49.014Z,,,,,,,,,,,,,,,,54,,,,,,,,,,,,,,398.5390000141051,response,,,,100,,,,,,Space,keypress(Space),,,,,,,,-- --- ---- --- ------ ----- ------- ---- -- --- ------- --<br>------- ---------- ------ -- ----- -- ----- -- ---- ------<br>--- ----- --- --- ------ -------- ----- --- ------ ----- --<br>----- ----- ---------- --- --- ------ ------ ---- -- ------<br>------- --- French ----- --- ---- ------- -- ---- --- --<br>------- ------,218030.16500000376,218029.03500001412,217614.153,217625.19499997143,217630.496,218046.826,,45,French
screen,html.Screen,1_1_1_1_46,2021-03-26T10:35:49.410Z,,,,,,,,,,,,,,,,54,,,,,,,,,,,,,,378.47900004067924,response,,,,100,,,,,,Space,keypress(Space),,,,,,,,-- --- ---- --- ------ ----- ------- ---- -- --- ------- --<br>------- ---------- ------ -- ----- -- ----- -- ---- ------<br>--- ----- --- --- ------ -------- ----- --- ------ ----- --<br>----- ----- ---------- --- --- ------ ------ ---- -- ------<br>------- --- ------ state --- ---- ------- -- ---- --- --<br>------- ------,218426.34000000544,218425.30500004068,218030.257,218030.46999999788,218046.826,218429.699,,46,state
screen,html.Screen,1_1_1_1_47,2021-03-26T10:35:49.908Z,,,,,,,,,,,,,,,,54,,,,,,,,,,,,,,493.0560000650876,response,,,,100,,,,,,Space,keypress(Space),,,,,,,,-- --- ---- --- ------ ----- ------- ---- -- --- ------- --<br>------- ---------- ------ -- ----- -- ----- -- ---- ------<br>--- ----- --- --- ------ -------- ----- --- ------ ----- --<br>----- ----- ---------- --- --- ------ ------ ---- -- ------<br>------- --- ------ ----- was ---- ------- -- ---- --- --<br>------- ------,218923.8100000657,218922.75500006508,218413.105,218426.59499996807,218429.699,218929.036,,47,was
screen,html.Screen,1_1_1_1_48,2021-03-26T10:35:50.323Z,,,,,,,,,,,,,,,,54,,,,,,,,,,,,,,408.5890000437794,response,,,,100,,,,,,Space,keypress(Space),,,,,,,,-- --- ---- --- ------ ----- ------- ---- -- --- ------- --<br>------- ---------- ------ -- ----- -- ----- -- ---- ------<br>--- ----- --- --- ------ -------- ----- --- ------ ----- --<br>----- ----- ---------- --- --- ------ ------ ---- -- ------<br>------- --- ------ ----- --- left ------- -- ---- --- --<br>------- ------,219338.74499995727,219337.62500004377,218912.62,218924.11000002176,218929.036,219345.325,,48,left
screen,html.Screen,1_1_1_1_49,2021-03-26T10:35:50.752Z,,,,,,,,,,,,,,,,54,,,,,,,,,,,,,,421.6749999925378,response,,,,100,,,,,,Space,keypress(Space),,,,,,,,-- --- ---- --- ------ ----- ------- ---- -- --- ------- --<br>------- ---------- ------ -- ----- -- ----- -- ---- ------<br>--- ----- --- --- ------ -------- ----- --- ------ ----- --<br>----- ----- ---------- --- --- ------ ------ ---- -- ------<br>------- --- ------ ----- --- ---- without -- ---- --- --<br>------- ------,219767.8999999771,219766.99999999255,219328.785,219338.98000000045,219345.325,219778.288,,49,without
screen,html.Screen,1_1_1_1_50,2021-03-26T10:35:51.134Z,,,,,,,,,,,,,,,,54,,,,,,,,,,,,,,370.6320000651176,response,,,,100,,,,,,Space,keypress(Space),,,,,,,,-- --- ---- --- ------ ----- ------- ---- -- --- ------- --<br>------- ---------- ------ -- ----- -- ----- -- ---- ------<br>--- ----- --- --- ------ -------- ----- --- ------ ----- --<br>----- ----- ---------- --- --- ------ ------ ---- -- ------<br>------- --- ------ ----- --- ---- ------- an ---- --- --<br>------- ------,220150.03500005696,220148.92000006512,219761.641,219768.10500002466,219778.288,220161.185,,50,an
screen,html.Screen,1_1_1_1_51,2021-03-26T10:35:51.592Z,,,,,,,,,,,,,,,,54,,,,,,,,,,,,,,445.12500006105984,response,,,,100,,,,,,Space,keypress(Space),,,,,,,,-- --- ---- --- ------ ----- ------- ---- -- --- ------- --<br>------- ---------- ------ -- ----- -- ----- -- ---- ------<br>--- ----- --- --- ------ -------- ----- --- ------ ----- --<br>----- ----- ---------- --- --- ------ ------ ---- -- ------<br>------- --- ------ ----- --- ---- ------- -- easy --- --<br>------- ------,220607.42000001483,220606.31000006106,220144.576,220150.32999997493,220161.185,220610.633,,51,easy
screen,html.Screen,1_1_1_1_52,2021-03-26T10:35:52.025Z,,,,,,,,,,,,,,,,54,,,,,,,,,,,,,,428.84700003583566,response,,,,100,,,,,,Space,keypress(Space),,,,,,,,-- --- ---- --- ------ ----- ------- ---- -- --- ------- --<br>------- ---------- ------ -- ----- -- ----- -- ---- ------<br>--- ----- --- --- ------ -------- ----- --- ------ ----- --<br>----- ----- ---------- --- --- ------ ------ ---- -- ------<br>------- --- ------ ----- --- ---- ------- -- ---- way --<br>------- ------,221040.62500002328,221039.48000003584,220594.05,220607.71000001114,220610.633,221043.48,,52,way
screen,html.Screen,1_1_1_1_53,2021-03-26T10:35:53.518Z,,,,,,,,,,,,,,,,54,,,,,,,,,,,,,,1490.9799999952957,response,,,,100,,,,,,Space,keypress(Space),,,,,,,,-- --- ---- --- ------ ----- ------- ---- -- --- ------- --<br>------- ---------- ------ -- ----- -- ----- -- ---- ------<br>--- ----- --- --- ------ -------- ----- --- ------ ----- --<br>----- ----- ---------- --- --- ------ ------ ---- -- ------<br>------- --- ------ ----- --- ---- ------- -- ---- --- of<br>------- ------,222535.6600000523,222534.4599999953,221026.992,221040.86000006646,221043.48,222541.725,,53,of
screen,html.Screen,1_1_1_1_54,2021-03-26T10:35:54.033Z,,,,,,,,,,,,,,,,54,,,,,,,,,,,,,,508.18500005974784,response,,,,100,,,,,,Space,keypress(Space),,,,,,,,-- --- ---- --- ------ ----- ------- ---- -- --- ------- --<br>------- ---------- ------ -- ----- -- ----- -- ---- ------<br>--- ----- --- --- ------ -------- ----- --- ------ ----- --<br>----- ----- ---------- --- --- ------ ------ ---- -- ------<br>------- --- ------ ----- --- ---- ------- -- ---- --- --<br>raising ------,223051.07499996666,223049.91000005975,222525.459,222535.98000004422,222541.725,223057.916,,54,raising
screen,html.Screen,1_1_1_1_55,2021-03-26T10:35:54.470Z,,,,,,,,,,,,,,,,54,,,,,,,,,,,,,,428.91899998878944,response,,,,100,,,,,,Space,keypress(Space),,,,,,,,-- --- ---- --- ------ ----- ------- ---- -- --- ------- --<br>------- ---------- ------ -- ----- -- ----- -- ---- ------<br>--- ----- --- --- ------ -------- ----- --- ------ ----- --<br>----- ----- ---------- --- --- ------ ------ ---- -- ------<br>------- --- ------ ----- --- ---- ------- -- ---- --- --<br>------- money.,223487.85999999382,223486.8349999888,223041.343,223051.2700000545,223057.916,223490.652,,55,money.
Item 100,flow.Loop,1_1_1_1,2021-03-26T10:35:54.470Z,,,,,,,,,,,,,,,,,,,,,,,,,,,,,,30878.815999988787,completion,,,,,C,,,,,,,,,,silence,,,,,223488.19499998353,223486.8349999888,192591.491,192592.85500005353,192608.019,223490.652,,,
Question 1,html.Screen,1_1_1_2,2021-03-26T10:35:57.252Z,,,,,,,,,,,,,,,,,,,,,,,,,,,true,TRUE,,2777.5780000451487,response,,,,100,C,,,,,TRUE,click #choice-1,,,,silence,,,,,226269.70499998424,226268.23000004515,223474.071,223488.34499996156,223490.652,226270.892,,,
Question 2,html.Screen,1_1_1_3,2021-03-26T10:36:00.388Z,,,,,,,,,,,,,,,,,,,,,,,,,,,true,FALSE,,3133.777999959886,response,,,,100,C,,,,,FALSE,click #choice-2,,,,silence,,,,,229406.2050000066,229404.66999995988,226254.576,226269.9750000611,226270.892,229417.517,,,
Item 100,flow.Sequence,1_1_1,2021-03-26T10:36:00.389Z,,,,,,,,,,,,,,,,,,,,,,,,,,,,,,43788.85199995988,completion,,,,,,,,,,,,,,,,,,,,229406.650000019,229404.66999995988,185599.169,185602.97500004526,185615.818,229417.517,,,
End of Practice,html.Page,1_1_2,2021-03-26T10:36:02.675Z,,,,,,,,,,,,,,,,,,,,,,,,,,,,,,2274.887999979779,form submission,,,,,,,,,,,,,,,,,,,,231692.90999998339,231692.40499997977,229401.092,229406.79499995895,229417.517,231698.375,,,
Practice,flow.Sequence,1_1,2021-03-26T10:36:02.675Z,,,,,,,,,,,,,,,,,,,,,,,,,,,,,,84800.73699997977,completion,,,,,,,,,,,,,,,,,,,,231693.28500004485,231692.40499997977,146875.203,146887.11000001058,146891.668,231698.375,,,
Trap_instruction,html.Page,1_2_0,2021-03-26T10:36:07.283Z,,,,,,,,,,,,,,,,,,,,,,,,,,,,,,4602.055000061169,form submission,,,,,,,,,,,,,,,,,,,,236300.9600000223,236300.43000006117,231681.95,231693.4749999782,231698.375,236309.921,,,
trap_trial,html.Screen,1_2_1,2021-03-26T10:36:11.958Z,,,,,,,,,,,,,,,,,,,,,,,,,,,true,1,,4664.54900001557,response,,,,,,,,,,1,click #choice-1,,,,,,,,,240976.3850000454,240974.47000001557,236293.463,236301.13499995787,236309.921,240988.131,,,
end of trap trial,html.Page,1_2_2,2021-03-26T10:36:13.960Z,,,,,,,,,,,,,,,,,,,,,,,,,,,,,,1989.1090000365512,form submission,,,,,,,,,,,,,,,,,,,,242977.6149999816,242977.24000003655,240971.493,240976.77499998827,240988.131,242986.079,,,
Trap 1,flow.Sequence,1_2,2021-03-26T10:36:13.960Z,,,,,,,,,,,,,,,,,,,,,,,,,,,,,,11278.865000036545,completion,,,,,,,,,,,,,,,,,,,,242977.86500002258,242977.24000003655,231681.95,231693.42000002507,231698.375,242986.079,,,
Holding screen,html.Screen,1_3_0_0,2021-03-26T10:36:20.944Z,,,,,,,,,,,,,,,,,,,,,,,,,,,,,,6992.135000000009,timeout,,,,,,,,,,,,,,,,,,,,249961.96500002407,249961.548,242969.347,242978.06500003207,242986.079,249978.214,,,
screen,html.Screen,1_3_0_1_0,2021-03-26T10:36:24.150Z,,,,,,,,,,,,,,,,2,,,,,,,,,,,,,,3188.9710000275227,response,,,,1,C,,,,,Space,keypress(Space),,,,instrumental,,,,Two ---- ------ --- ------- ---------- ------- ----------<br>--- --------- --- ----------- ------- ----- ------- ---<br>--------- ---- -- --- ---- -- --------- -- ---- -------<br>-- --------- ------ --- ----- ------ ---- --- --------- --<br>------ - ---- -- --- ----------- ------- ---- ----- -----<br>--- -------- - ------ ---- -- ----- ---- --- --- -----------<br>-- -------,253167.98999998719,253167.18500002753,249961.548,249962.0799999684,249978.214,253175.105,,0,Two
screen,html.Screen,1_3_0_1_1,2021-03-26T10:36:24.610Z,,,,,,,,,,,,,,,,2,,,,,,,,,,,,,,452.38499998438056,response,,,,1,C,,,,,Space,keypress(Space),,,,instrumental,,,,--- days ------ --- ------- ---------- ------- ----------<br>--- --------- --- ----------- ------- ----- ------- ---<br>--------- ---- -- --- ---- -- --------- -- ---- -------<br>-- --------- ------ --- ----- ------ ---- --- --------- --<br>------ - ---- -- --- ----------- ------- ---- ----- -----<br>--- -------- - ------ ---- -- ----- ---- --- --- -----------<br>-- -------,253628.15999996383,253627.4899999844,253158.598,253168.24000002816,253175.105,253640.823,,1,days
screen,html.Screen,1_3_0_1_2,2021-03-26T10:36:24.987Z,,,,,,,,,,,,,,,,2,,,,,,,,,,,,,,362.6670000318845,response,,,,1,C,,,,,Space,keypress(Space),,,,instrumental,,,,"--- ---- later, --- ------- ---------- ------- ----------<br>--- --------- --- ----------- ------- ----- ------- ---<br>--------- ---- -- --- ---- -- --------- -- ---- -------<br>-- --------- ------ --- ----- ------ ---- --- --------- --<br>------ - ---- -- --- ----------- ------- ---- ----- -----<br>--- -------- - ------ ---- -- ----- ---- --- --- -----------<br>-- -------",254004.4550000457,254003.4900000319,253624.213,253628.2750000246,253640.823,254007.138,,2,"later,"
screen,html.Screen,1_3_0_1_3,2021-03-26T10:36:25.751Z,,,,,,,,,,,,,,,,2,,,,,,,,,,,,,,761.6919999572274,response,,,,1,C,,,,,Space,keypress(Space),,,,instrumental,,,,--- ---- ------ the ------- ---------- ------- ----------<br>--- --------- --- ----------- ------- ----- ------- ---<br>--------- ---- -- --- ---- -- --------- -- ---- -------<br>-- --------- ------ --- ----- ------ ---- --- --------- --<br>------ - ---- -- --- ----------- ------- ---- ----- -----<br>--- -------- - ------ ---- -- ----- ---- --- --- -----------<br>-- -------,254769.34999995865,254768.82999995723,253990.52,254004.63500001933,254007.138,254772.935,,3,the
screen,html.Screen,1_3_0_1_4,2021-03-26T10:36:26.202Z,,,,,,,,,,,,,,,,2,,,,,,,,,,,,,,446.50500001531327,response,,,,1,C,,,,,Space,keypress(Space),,,,instrumental,,,,--- ---- ------ --- British ---------- ------- ----------<br>--- --------- --- ----------- ------- ----- ------- ---<br>--------- ---- -- --- ---- -- --------- -- ---- -------<br>-- --------- ------ --- ----- ------ ---- --- --------- --<br>------ - ---- -- --- ----------- ------- ---- ----- -----<br>--- -------- - ------ ---- -- ----- ---- --- --- -----------<br>-- -------,255220.22000001743,255219.4400000153,254756.348,254769.44000006188,254772.935,255222.406,,4,British
screen,html.Screen,1_3_0_1_5,2021-03-26T10:36:26.656Z,,,,,,,,,,,,,,,,2,,,,,,,,,,,,,,450.6289999852597,response,,,,1,C,,,,,Space,keypress(Space),,,,instrumental,,,,--- ---- ------ --- ------- astronomer ------- ----------<br>--- --------- --- ----------- ------- ----- ------- ---<br>--------- ---- -- --- ---- -- --------- -- ---- -------<br>-- --------- ------ --- ----- ------ ---- --- --------- --<br>------ - ---- -- --- ----------- ------- ---- ----- -----<br>--- -------- - ------ ---- -- ----- ---- --- --- -----------<br>-- -------,255673.9349999698,255673.03499998525,255205.941,255220.4100000672,255222.406,255688.76,,5,astronomer
screen,html.Screen,1_3_0_1_6,2021-03-26T10:36:27.384Z,,,,,,,,,,,,,,,,2,,,,,,,,,,,,,,712.8150000253227,response,,,,1,C,,,,,Space,keypress(Space),,,,instrumental,,,,--- ---- ------ --- ------- ---------- Richard ----------<br>--- --------- --- ----------- ------- ----- ------- ---<br>--------- ---- -- --- ---- -- --------- -- ---- -------<br>-- --------- ------ --- ----- ------ ---- --- --------- --<br>------ - ---- -- --- ----------- ------- ---- ----- -----<br>--- -------- - ------ ---- -- ----- ---- --- --- -----------<br>-- -------,256402.36499998719,256401.57500002533,255671.974,255674.18500001077,255688.76,256404.495,,6,Richard
screen,html.Screen,1_3_0_1_7,2021-03-26T10:36:27.969Z,,,,,,,,,,,,,,,,2,,,,,,,,,,,,,,582.029999956605,response,,,,1,C,,,,,Space,keypress(Space),,,,instrumental,,,,--- ---- ------ --- ------- ---------- ------- Carrington<br>--- --------- --- ----------- ------- ----- ------- ---<br>--------- ---- -- --- ---- -- --------- -- ---- -------<br>-- --------- ------ --- ----- ------ ---- --- --------- --<br>------ - ---- -- --- ----------- ------- ---- ----- -----<br>--- -------- - ------ ---- -- ----- ---- --- --- -----------<br>-- -------,256987.2350000078,256986.5249999566,256387.946,256402.5799999945,256404.495,257003.743,,7,Carrington
screen,html.Screen,1_3_0_1_8,2021-03-26T10:36:29.023Z,,,,,,,,,,,,,,,,2,,,,,,,,,,,,,,1036.3020000306715,response,,,,1,C,,,,,Space,keypress(Space),,,,instrumental,,,,--- ---- ------ --- ------- ---------- ------- ----------<br>was --------- --- ----------- ------- ----- ------- ---<br>--------- ---- -- --- ---- -- --------- -- ---- -------<br>-- --------- ------ --- ----- ------ ---- --- --------- --<br>------ - ---- -- --- ----------- ------- ---- ----- -----<br>--- -------- - ------ ---- -- ----- ---- --- --- -----------<br>-- -------,258040.90500005987,258040.04500003066,256987.19,256987.54999996163,257003.743,258052.679,,8,was
screen,html.Screen,1_3_0_1_9,2021-03-26T10:36:29.632Z,,,,,,,,,,,,,,,,2,,,,,,,,,,,,,,596.2810000204481,response,,,,1,C,,,,,Space,keypress(Space),,,,instrumental,,,,--- ---- ------ --- ------- ---------- ------- ----------<br>--- observing --- ----------- ------- ----- ------- ---<br>--------- ---- -- --- ---- -- --------- -- ---- -------<br>-- --------- ------ --- ----- ------ ---- --- --------- --<br>------ - ---- -- --- ----------- ------- ---- ----- -----<br>--- -------- - ------ ---- -- ----- ---- --- --- -----------<br>-- -------,258649.72500002477,258648.96000002045,258036.303,258041.12499998882,258052.679,258651.984,,9,observing
screen,html.Screen,1_3_0_1_10,2021-03-26T10:36:30.096Z,,,,,,,,,,,,,,,,2,,,,,,,,,,,,,,460.6860000604647,response,,,,1,C,,,,,Space,keypress(Space),,,,instrumental,,,,--- ---- ------ --- ------- ---------- ------- ----------<br>--- --------- the ----------- ------- ----- ------- ---<br>--------- ---- -- --- ---- -- --------- -- ---- -------<br>-- --------- ------ --- ----- ------ ---- --- --------- --<br>------ - ---- -- --- ----------- ------- ---- ----- -----<br>--- -------- - ------ ---- -- ----- ---- --- --- -----------<br>-- -------,259113.49000001792,259112.67000006046,258635.383,258649.98500002548,258651.984,259118.079,,10,the
screen,html.Screen,1_3_0_1_11,2021-03-26T10:36:30.530Z,,,,,,,,,,,,,,,,2,,,,,,,,,,,,,,428.7210000109917,response,,,,1,C,,,,,Space,keypress(Space),,,,instrumental,,,,--- ---- ------ --- ------- ---------- ------- ----------<br>--- --------- --- interesting ------- ----- ------- ---<br>--------- ---- -- --- ---- -- --------- -- ---- -------<br>-- --------- ------ --- ----- ------ ---- --- --------- --<br>------ - ---- -- --- ----------- ------- ---- ----- -----<br>--- -------- - ------ ---- -- ----- ---- --- --- -----------<br>-- -------,259547.63499996625,259546.800000011,259101.61,259113.60499996226,259118.079,259551.033,,11,interesting
screen,html.Screen,1_3_0_1_12,2021-03-26T10:36:30.910Z,,,,,,,,,,,,,,,,2,,,,,,,,,,,,,,376.34700000827434,response,,,,1,C,,,,,Space,keypress(Space),,,,instrumental,,,,--- ---- ------ --- ------- ---------- ------- ----------<br>--- --------- --- ----------- sunspot ----- ------- ---<br>--------- ---- -- --- ---- -- --------- -- ---- -------<br>-- --------- ------ --- ----- ------ ---- --- --------- --<br>------ - ---- -- --- ----------- ------- ---- ----- -----<br>--- -------- - ------ ---- -- ----- ---- --- --- -----------<br>-- -------,259928.16500004847,259927.38000000827,259534.503,259547.78999998234,259551.033,259933.874,,12,sunspot
screen,html.Screen,1_3_0_1_13,2021-03-26T10:36:31.392Z,,,,,,,,,,,,,,,,2,,,,,,,,,,,,,,475.7610000472632,response,,,,1,C,,,,,Space,keypress(Space),,,,instrumental,,,,--- ---- ------ --- ------- ---------- ------- ----------<br>--- --------- --- ----------- ------- group ------- ---<br>--------- ---- -- --- ---- -- --------- -- ---- -------<br>-- --------- ------ --- ----- ------ ---- --- --------- --<br>------ - ---- -- --- ----------- ------- ---- ----- -----<br>--- -------- - ------ ---- -- ----- ---- --- --- -----------<br>-- -------,260410.2000000421,260409.63500004727,259917.26,259928.3150000265,259933.874,260416.888,,13,group
screen,html.Screen,1_3_0_1_14,2021-03-26T10:36:31.858Z,,,,,,,,,,,,,,,,2,,,,,,,,,,,,,,458.0670000065875,response,,,,1,C,,,,,Space,keypress(Space),,,,instrumental,,,,--- ---- ------ --- ------- ---------- ------- ----------<br>--- --------- --- ----------- ------- ----- through ---<br>--------- ---- -- --- ---- -- --------- -- ---- -------<br>-- --------- ------ --- ----- ------ ---- --- --------- --<br>------ - ---- -- --- ----------- ------- ---- ----- -----<br>--- -------- - ------ ---- -- ----- ---- --- --- -----------<br>-- -------,260875.82499999553,260874.9550000066,260400.14,260410.2900000289,260416.888,260882.99,,14,through
screen,html.Screen,1_3_0_1_15,2021-03-26T10:36:32.198Z,,,,,,,,,,,,,,,,2,,,,,,,,,,,,,,332.6600000273902,response,,,,1,C,,,,,Space,keypress(Space),,,,instrumental,,,,--- ---- ------ --- ------- ---------- ------- ----------<br>--- --------- --- ----------- ------- ----- ------- his<br>--------- ---- -- --- ---- -- --------- -- ---- -------<br>-- --------- ------ --- ----- ------ ---- --- --------- --<br>------ - ---- -- --- ----------- ------- ---- ----- -----<br>--- -------- - ------ ---- -- ----- ---- --- --- -----------<br>-- -------,261216.35000000242,261215.65000002738,260866.272,260876.0300000431,260882.99,261232.445,,15,his
screen,html.Screen,1_3_0_1_16,2021-03-26T10:36:32.795Z,,,,,,,,,,,,,,,,2,,,,,,,,,,,,,,579.2500000403379,response,,,,1,C,,,,,Space,keypress(Space),,,,instrumental,,,,--- ---- ------ --- ------- ---------- ------- ----------<br>--- --------- --- ----------- ------- ----- ------- ---<br>telescope ---- -- --- ---- -- --------- -- ---- -------<br>-- --------- ------ --- ----- ------ ---- --- --------- --<br>------ - ---- -- --- ----------- ------- ---- ----- -----<br>--- -------- - ------ ---- -- ----- ---- --- --- -----------<br>-- -------,261812.5149999978,261811.69500004034,261215.909,261216.60499996506,261232.445,261815.151,,16,telescope
screen,html.Screen,1_3_0_1_17,2021-03-26T10:36:33.163Z,,,,,,,,,,,,,,,,2,,,,,,,,,,,,,,365.30900006141746,response,,,,1,C,,,,,Space,keypress(Space),,,,instrumental,,,,--- ---- ------ --- ------- ---------- ------- ----------<br>--- --------- --- ----------- ------- ----- ------- ---<br>--------- when -- --- ---- -- --------- -- ---- -------<br>-- --------- ------ --- ----- ------ ---- --- --------- --<br>------ - ---- -- --- ----------- ------- ---- ----- -----<br>--- -------- - ------ ---- -- ----- ---- --- --- -----------<br>-- -------,262180.98000006285,262180.46000006143,261798.559,261812.61999998242,261815.151,262198.202,,17,when
screen,html.Screen,1_3_0_1_18,2021-03-26T10:36:33.474Z,,,,,,,,,,,,,,,,2,,,,,,,,,,,,,,293.1180000301101,response,,,,1,C,,,,,Space,keypress(Space),,,,instrumental,,,,--- ---- ------ --- ------- ---------- ------- ----------<br>--- --------- --- ----------- ------- ----- ------- ---<br>--------- ---- he --- ---- -- --------- -- ---- -------<br>-- --------- ------ --- ----- ------ ---- --- --------- --<br>------ - ---- -- --- ----------- ------- ---- ----- -----<br>--- -------- - ------ ---- -- ----- ---- --- --- -----------<br>-- -------,262492.040000041,262491.3200000301,262181.587,262181.14500003867,262198.202,262497.957,,18,he
screen,html.Screen,1_3_0_1_19,2021-03-26T10:36:33.763Z,,,,,,,,,,,,,,,,2,,,,,,,,,,,,,,282.462999966403,response,,,,1,C,,,,,Space,keypress(Space),,,,instrumental,,,,--- ---- ------ --- ------- ---------- ------- ----------<br>--- --------- --- ----------- ------- ----- ------- ---<br>--------- ---- -- saw ---- -- --------- -- ---- -------<br>-- --------- ------ --- ----- ------ ---- --- --------- --<br>------ - ---- -- --- ----------- ------- ---- ----- -----<br>--- -------- - ------ ---- -- ----- ---- --- --- -----------<br>-- -------,262781.0799999861,262780.4199999664,262481.097,262492.17500002123,262497.957,262797.506,,19,saw
screen,html.Screen,1_3_0_1_20,2021-03-26T10:36:34.100Z,,,,,,,,,,,,,,,,2,,,,,,,,,,,,,,319.47899997147033,response,,,,1,C,,,,,Space,keypress(Space),,,,instrumental,,,,--- ---- ------ --- ------- ---------- ------- ----------<br>--- --------- --- ----------- ------- ----- ------- ---<br>--------- ---- -- --- what -- --------- -- ---- -------<br>-- --------- ------ --- ----- ------ ---- --- --------- --<br>------ - ---- -- --- ----------- ------- ---- ----- -----<br>--- -------- - ------ ---- -- ----- ---- --- --- -----------<br>-- -------,263117.79000004753,263116.98499997146,262780.814,262781.1900000088,262797.506,263130.513,,20,what
screen,html.Screen,1_3_0_1_21,2021-03-26T10:36:34.391Z,,,,,,,,,,,,,,,,2,,,,,,,,,,,,,,277.577000040852,response,,,,1,C,,,,,Space,keypress(Space),,,,instrumental,,,,--- ---- ------ --- ------- ---------- ------- ----------<br>--- --------- --- ----------- ------- ----- ------- ---<br>--------- ---- -- --- ---- he --------- -- ---- -------<br>-- --------- ------ --- ----- ------ ---- --- --------- --<br>------ - ---- -- --- ----------- ------- ---- ----- -----<br>--- -------- - ------ ---- -- ----- ---- --- --- -----------<br>-- -------,263408.8149999734,263408.09000004083,263113.739,263117.99000005703,263130.513,263413.457,,21,he
screen,html.Screen,1_3_0_1_22,2021-03-26T10:36:34.671Z,,,,,,,,,,,,,,,,2,,,,,,,,,,,,,,274.2829999648384,response,,,,1,C,,,,,Space,keypress(Space),,,,instrumental,,,,--- ---- ------ --- ------- ---------- ------- ----------<br>--- --------- --- ----------- ------- ----- ------- ---<br>--------- ---- -- --- ---- -- described -- ---- -------<br>-- --------- ------ --- ----- ------ ---- --- --------- --<br>------ - ---- -- --- ----------- ------- ---- ----- -----<br>--- -------- - ------ ---- -- ----- ---- --- --- -----------<br>-- -------,263688.56999999844,263687.73999996483,263396.776,263408.9999999851,263413.457,263696.618,,22,described
screen,html.Screen,1_3_0_1_23,2021-03-26T10:36:35.043Z,,,,,,,,,,,,,,,,2,,,,,,,,,,,,,,363.51199999800883,response,,,,1,C,,,,,Space,keypress(Space),,,,instrumental,,,,--- ---- ------ --- ------- ---------- ------- ----------<br>--- --------- --- ----------- ------- ----- ------- ---<br>--------- ---- -- --- ---- -- --------- as ---- -------<br>-- --------- ------ --- ----- ------ ---- --- --------- --<br>------ - ---- -- --- ----------- ------- ---- ----- -----<br>--- -------- - ------ ---- -- ----- ---- --- --- -----------<br>-- -------,264060.96999999136,264060.129999998,263679.905,263688.75500001013,263696.618,264062.864,,23,as
screen,html.Screen,1_3_0_1_24,2021-03-26T10:36:35.361Z,,,,,,,,,,,,,,,,2,,,,,,,,,,,,,,315.0260000033886,response,,,,1,C,,,,,Space,keypress(Space),,,,instrumental,,,,"--- ---- ------ --- ------- ---------- ------- ----------<br>--- --------- --- ----------- ------- ----- ------- ---<br>--------- ---- -- --- ---- -- --------- -- ""two -------<br>-- --------- ------ --- ----- ------ ---- --- --------- --<br>------ - ---- -- --- ----------- ------- ---- ----- -----<br>--- -------- - ------ ---- -- ----- ---- --- --- -----------<br>-- -------",264378.8100000238,264377.8900000034,264046.086,264061.14000000525,264062.864,264395.72,,24,"""two"
screen,html.Screen,1_3_0_1_25,2021-03-26T10:36:35.829Z,,,,,,,,,,,,,,,,2,,,,,,,,,,,,,,450.97999999462627,response,,,,1,C,,,,,Space,keypress(Space),,,,instrumental,,,,--- ---- ------ --- ------- ---------- ------- ----------<br>--- --------- --- ----------- ------- ----- ------- ---<br>--------- ---- -- --- ---- -- --------- -- ---- patches<br>-- --------- ------ --- ----- ------ ---- --- --------- --<br>------ - ---- -- --- ----------- ------- ---- ----- -----<br>--- -------- - ------ ---- -- ----- ---- --- --- -----------<br>-- -------,264847.1500000451,264846.6999999946,264379.127,264378.99999995716,264395.72,264861.97,,25,patches
screen,html.Screen,1_3_0_1_26,2021-03-26T10:36:36.279Z,,,,,,,,,,,,,,,,2,,,,,,,,,,,,,,434.3400000052061,response,,,,1,C,,,,,Space,keypress(Space),,,,instrumental,,,,--- ---- ------ --- ------- ---------- ------- ----------<br>--- --------- --- ----------- ------- ----- ------- ---<br>--------- ---- -- --- ---- -- --------- -- ---- -------<br>of --------- ------ --- ----- ------ ---- --- --------- --<br>------ - ---- -- --- ----------- ------- ---- ----- -----<br>--- -------- - ------ ---- -- ----- ---- --- --- -----------<br>-- -------,265297.02000005636,265296.3100000052,264845.188,264847.2799999872,264861.97,265311.341,,26,of
screen,html.Screen,1_3_0_1_27,2021-03-26T10:36:36.695Z,,,,,,,,,,,,,,,,2,,,,,,,,,,,,,,400.82400003354996,response,,,,1,C,,,,,Space,keypress(Space),,,,instrumental,,,,--- ---- ------ --- ------- ---------- ------- ----------<br>--- --------- --- ----------- ------- ----- ------- ---<br>--------- ---- -- --- ---- -- --------- -- ---- -------<br>-- intensely ------ --- ----- ------ ---- --- --------- --<br>------ - ---- -- --- ----------- ------- ---- ----- -----<br>--- -------- - ------ ---- -- ----- ---- --- --- -----------<br>-- -------,265712.8550000489,265712.16500003356,265294.769,265297.1499999985,265311.341,265727.863,,27,intensely
screen,html.Screen,1_3_0_1_28,2021-03-26T10:36:37.181Z,,,,,,,,,,,,,,,,2,,,,,,,,,,,,,,470.6320000187261,response,,,,1,C,,,,,Space,keypress(Space),,,,instrumental,,,,--- ---- ------ --- ------- ---------- ------- ----------<br>--- --------- --- ----------- ------- ----- ------- ---<br>--------- ---- -- --- ---- -- --------- -- ---- -------<br>-- --------- bright --- ----- ------ ---- --- --------- --<br>------ - ---- -- --- ----------- ------- ---- ----- -----<br>--- -------- - ------ ---- -- ----- ---- --- --- -----------<br>-- -------,266199.1749999579,266198.49500001874,265711.101,265712.98000006936,265727.863,266210.381,,28,bright
screen,html.Screen,1_3_0_1_29,2021-03-26T10:36:37.675Z,,,,,,,,,,,,,,,,2,,,,,,,,,,,,,,481.84900004422525,response,,,,1,C,,,,,Space,keypress(Space),,,,instrumental,,,,--- ---- ------ --- ------- ---------- ------- ----------<br>--- --------- --- ----------- ------- ----- ------- ---<br>--------- ---- -- --- ---- -- --------- -- ---- -------<br>-- --------- ------ and ----- ------ ---- --- --------- --<br>------ - ---- -- --- ----------- ------- ---- ----- -----<br>--- -------- - ------ ---- -- ----- ---- --- --- -----------<br>-- -------,266692.79500003904,266692.2300000442,266193.832,266199.26500006113,266210.381,266709.921,,29,and
screen,html.Screen,1_3_0_1_30,2021-03-26T10:36:38.603Z,,,,,,,,,,,,,,,,2,,,,,,,,,,,,,,910.3239999982761,response,,,,1,C,,,,,Space,keypress(Space),,,,instrumental,,,,--- ---- ------ --- ------- ---------- ------- ----------<br>--- --------- --- ----------- ------- ----- ------- ---<br>--------- ---- -- --- ---- -- --------- -- ---- -------<br>-- --------- ------ --- white ------ ---- --- --------- --<br>------ - ---- -- --- ----------- ------- ---- ----- -----<br>--- -------- - ------ ---- -- ----- ---- --- --- -----------<br>-- -------,267620.8800000604,267620.24499999825,266693.234,266692.94500001706,266709.921,267625.597,,30,white
screen,html.Screen,1_3_0_1_31,2021-03-26T10:36:39.305Z,,,,,,,,,,,,,,,,2,,,,,,,,,,,,,,696.1329999669106,response,,,,1,C,,,,,Space,keypress(Space),,,,instrumental,,,,"--- ---- ------ --- ------- ---------- ------- ----------<br>--- --------- --- ----------- ------- ----- ------- ---<br>--------- ---- -- --- ---- -- --------- -- ---- -------<br>-- --------- ------ --- ----- light"" ---- --- --------- --<br>------ - ---- -- --- ----------- ------- ---- ----- -----<br>--- -------- - ------ ---- -- ----- ---- --- --- -----------<br>-- -------",268323.1349999551,268321.7299999669,267609.081,267620.98500004504,267625.597,268324.657,,31,"light"""
screen,html.Screen,1_3_0_1_32,2021-03-26T10:36:39.683Z,,,,,,,,,,,,,,,,2,,,,,,,,,,,,,,375.69300005736295,response,,,,1,C,,,,,Space,keypress(Space),,,,instrumental,,,,--- ---- ------ --- ------- ---------- ------- ----------<br>--- --------- --- ----------- ------- ----- ------- ---<br>--------- ---- -- --- ---- -- --------- -- ---- -------<br>-- --------- ------ --- ----- ------ over --- --------- --<br>------ - ---- -- --- ----------- ------- ---- ----- -----<br>--- -------- - ------ ---- -- ----- ---- --- --- -----------<br>-- -------,268700.9550000075,268700.35000005737,268308.235,268323.29500000924,268324.657,268707.716,,32,over
screen,html.Screen,1_3_0_1_33,2021-03-26T10:36:39.959Z,,,,,,,,,,,,,,,,2,,,,,,,,,,,,,,268.2039999971166,response,,,,1,C,,,,,Space,keypress(Space),,,,instrumental,,,,--- ---- ------ --- ------- ---------- ------- ----------<br>--- --------- --- ----------- ------- ----- ------- ---<br>--------- ---- -- --- ---- -- --------- -- ---- -------<br>-- --------- ------ --- ----- ------ ---- the --------- --<br>------ - ---- -- --- ----------- ------- ---- ----- -----<br>--- -------- - ------ ---- -- ----- ---- --- --- -----------<br>-- -------,268976.5550000593,268975.91999999713,268691.13,268701.1150000617,268707.716,268990.739,,33,the
screen,html.Screen,1_3_0_1_34,2021-03-26T10:36:40.417Z,,,,,,,,,,,,,,,,2,,,,,,,,,,,,,,443.50099997321377,response,,,,1,C,,,,,Space,keypress(Space),,,,instrumental,,,,--- ---- ------ --- ------- ---------- ------- ----------<br>--- --------- --- ----------- ------- ----- ------- ---<br>--------- ---- -- --- ---- -- --------- -- ---- -------<br>-- --------- ------ --- ----- ------ ---- --- sunspots. --<br>------ - ---- -- --- ----------- ------- ---- ----- -----<br>--- -------- - ------ ---- -- ----- ---- --- --- -----------<br>-- -------,269435.0000000559,269434.2399999732,268974.043,268976.81500006,268990.739,269440.226,,34,sunspots.
screen,html.Screen,1_3_0_1_35,2021-03-26T10:36:41.072Z,,,,,,,,,,,,,,,,2,,,,,,,,,,,,,,648.5689999887254,response,,,,1,C,,,,,Space,keypress(Space),,,,instrumental,,,,--- ---- ------ --- ------- ---------- ------- ----------<br>--- --------- --- ----------- ------- ----- ------- ---<br>--------- ---- -- --- ---- -- --------- -- ---- -------<br>-- --------- ------ --- ----- ------ ---- --- --------- He<br>------ - ---- -- --- ----------- ------- ---- ----- -----<br>--- -------- - ------ ---- -- ----- ---- --- --- -----------<br>-- -------,270089.5899999887,270088.79499998875,269423.547,269435.1500000339,269440.226,270106.163,,35,He
screen,html.Screen,1_3_0_1_36,2021-03-26T10:36:41.973Z,,,,,,,,,,,,,,,,2,,,,,,,,,,,,,,883.2519999599899,response,,,,1,C,,,,,Space,keypress(Space),,,,instrumental,,,,--- ---- ------ --- ------- ---------- ------- ----------<br>--- --------- --- ----------- ------- ----- ------- ---<br>--------- ---- -- --- ---- -- --------- -- ---- -------<br>-- --------- ------ --- ----- ------ ---- --- --------- --<br>jotted - ---- -- --- ----------- ------- ---- ----- -----<br>--- -------- - ------ ---- -- ----- ---- --- --- -----------<br>-- -------,270990.4600000009,270989.41499996,270089.643,270089.73000000697,270106.163,271005.137,,36,jotted
screen,html.Screen,1_3_0_1_37,2021-03-26T10:36:42.371Z,,,,,,,,,,,,,,,,2,,,,,,,,,,,,,,382.388000027393,response,,,,1,C,,,,,Space,keypress(Space),,,,instrumental,,,,--- ---- ------ --- ------- ---------- ------- ----------<br>--- --------- --- ----------- ------- ----- ------- ---<br>--------- ---- -- --- ---- -- --------- -- ---- -------<br>-- --------- ------ --- ----- ------ ---- --- --------- --<br>------ a ---- -- --- ----------- ------- ---- ----- -----<br>--- -------- - ------ ---- -- ----- ---- --- --- -----------<br>-- -------,271388.50999996066,271387.5250000274,270988.669,270990.6600000104,271005.137,271405.245,,37,a
