sender,sender_type,sender_id,timestamp,meta,,Blues,Classical,Country,Dance,Electronic,Folk,Gospel,Hip-Hop,Jazz,Latin,Musical/Film,New-age,Pop,Provo_ID,R&B,Rap,Reggae,Religious,Rock,Soul,Swing,Traditional,age,artist_name,correct,correctResponse,distraction,duration,ended_on,familiarity,gender,headphone_check_performance,item,list,offensiveness,pleasantness,position_correct,preference,response,response_action,snippet_file,song_name,song_rating,sound,stimulus_1,stimulus_2,stimulus_3,text,time_commit,time_end,time_render,time_run,time_show,time_switch,url,word,word_ID
Introduction,html.Screen,0_0,2021-03-28T22:12:43.579Z,"{""labjs_version"":""20.2.2"",""labjs_build"":{""flavor"":""production"",""commit"":""a25486e0c714a0ae2ce03ff94b7bb6896854dcfa""},""location"":""https://run.pavlovia.org/mvasilev/music_b/"",""userAgent"":""Mozilla/5.0 (Windows NT 10.0; Win64; x64) AppleWebKit/537.36 (KHTML, like Gecko) Chrome/89.0.4389.90 Safari/537.36"",""platform"":""Win32"",""language"":""en-GB"",""locale"":""en-GB"",""timeZone"":""Europe/London"",""timezoneOffset"":-60,""screen_width"":1327,""screen_height"":746,""scroll_width"":1327,""scroll_height"":588,""window_innerWidth"":1327,""window_innerHeight"":636,""devicePixelRatio"":1.4479166269302368}",,,,,,,,,,,,,,,,,,,,,,,,,,,,,2279.182000023153,response,,,,,,,,,,continue,click button,,,,,,,,,15235.519999987446,15225.610000023153,12830.008,12828.715000010561,12946.428,15281.907,{},,
Volume calibration,html.Screen,0_1,2021-03-28T22:13:03.932Z,,,,,,,,,,,,,,,,,,,,,,,,,,,,,,20295.457999975544,response,,,,,,,,,,continue,click button,,,,,,,,,35588.18000002066,35577.36499997554,15215.398,15238.075000001118,15281.907,35600.583,,,
Task instructions,html.Screen,0_2,2021-03-28T22:13:06.303Z,,,,,,,,,,,,,,,,,,,,,,,,,,,,,,2355.7969999887137,response,,,,,,,,,,continue,click button,,,,,,,,,37959.0699999826,37956.37999998871,35567.163,35596.57499997411,35600.583,37969.385,,,
Sounds,html.Screen,0_3_0_0,2021-03-28T22:13:10.560Z,,,,,,,,,,,,,,,,,,,,,,,,,,,,,,4253.733999999997,timeout,,,,,,,,2,,,,,,,,I,S,O,,42216.264999995474,42206.56,37952.7,37960.46500001103,37969.385,42223.119,,,
Judgement,html.Screen,0_3_0_1,2021-03-28T22:13:11.544Z,,,,,,,,,,,,,,,,,,,,,,,,,,,true,2,,974.3609999734399,response,,,,,,,,2,,2,click #choice-2,,,,,I,S,O,,43200.379999994766,43197.47999997344,42206.56,42217.09499997087,42223.119,43207.343,,,
Trial,flow.Sequence,0_3_0,2021-03-28T22:13:11.546Z,,,,,,,,,,,,,,,,,,,,,,,,,,,,,,5228.094999973437,completion,,,,,,,,2,,,,,,,,I,S,O,,43202.02500000596,43197.47999997344,37952.7,37960.11500002351,37969.385,43207.343,,,
Sounds,html.Screen,0_3_1_0,2021-03-28T22:13:15.791Z,,,,,,,,,,,,,,,,,,,,,,,,,,,,,,4253.832999999999,timeout,,,,,,,,1,,,,,,,,S,O,I,,47446.66999997571,47444.676,43190.836,43202.920000010636,43207.343,47461.176,,,
Judgement,html.Screen,0_3_1_1,2021-03-28T22:13:16.754Z,,,,,,,,,,,,,,,,,,,,,,,,,,,true,1,,947.1039999741843,response,,,,,,,,1,,1,click #choice-1,,,,,S,O,I,,48409.76499998942,48408.279999974184,47444.676,47447.33499997528,47461.176,48411.966,,,
Trial,flow.Sequence,0_3_1,2021-03-28T22:13:16.754Z,,,,,,,,,,,,,,,,,,,,,,,,,,,,,,5200.936999974183,completion,,,,,,,,1,,,,,,,,S,O,I,,48410.21499998169,48408.279999974184,43190.836,43202.66000000993,43207.343,48411.966,,,
Sounds,html.Screen,0_3_2_0,2021-03-28T22:13:20.994Z,,,,,,,,,,,,,,,,,,,,,,,,,,,,,,4253.896999999997,timeout,,,,,,,,3,,,,,,,,I,O,S,,52650.34499997273,52649.187,48395.649,48410.60000000289,48411.966,52665.863,,,
Judgement,html.Screen,0_3_2_1,2021-03-28T22:13:21.931Z,,,,,,,,,,,,,,,,,,,,,,,,,,,true,3,,918.5119999767194,response,,,,,,,,3,,3,click #choice-3,,,,,I,O,S,,53587.115000002086,53584.37499997672,52649.187,52650.65999998478,52665.863,53600.081,,,
Trial,flow.Sequence,0_3_2,2021-03-28T22:13:21.932Z,,,,,,,,,,,,,,,,,,,,,,,,,,,,,,5172.408999976717,completion,,,,,,,,3,,,,,,,,I,O,S,,53587.999999988824,53584.37499997672,48395.649,48410.49500001827,48411.966,53600.081,,,
Sounds,html.Screen,0_3_3_0,2021-03-28T22:13:26.182Z,,,,,,,,,,,,,,,,,,,,,,,,,,,,,,4256.226000000002,timeout,,,,,,,,1,,,,,,,,S,I,O,,57838.38500001002,57837.231,53583.386,53588.715000019874,53600.081,57856.307,,,
Judgement,html.Screen,0_3_3_1,2021-03-28T22:13:26.876Z,,,,,,,,,,,,,,,,,,,,,,,,,,,true,1,,674.3930000029795,response,,,,,,,,1,,1,click #choice-1,,,,,S,I,O,,58532.28500002297,58530.70000000298,57837.231,57838.68500002427,57856.307,58537.887,,,
Trial,flow.Sequence,0_3_3,2021-03-28T22:13:26.877Z,,,,,,,,,,,,,,,,,,,,,,,,,,,,,,4930.619000002982,completion,,,,,,,,1,,,,,,,,S,I,O,,58532.69000002183,58530.70000000298,53583.386,53588.449999981094,53600.081,58537.887,,,
Sounds,html.Screen,0_3_4_0,2021-03-28T22:13:31.121Z,,,,,,,,,,,,,,,,,,,,,,,,,,,,,,4253.860000000001,timeout,,,,,,,,3,,,,,,,,O,I,S,,62777.15999999782,62775.039,58521.223,58532.98999997787,58537.887,62791.747,,,
Judgement,html.Screen,0_3_4_1,2021-03-28T22:13:31.750Z,,,,,,,,,,,,,,,,,,,,,,,,,,,true,3,,612.5979999880947,response,,,,,,,,3,,3,click #choice-3,,,,,O,I,S,,63405.90000001248,63404.3449999881,62775.039,62777.989999973215,62791.747,63408.988,,,
Trial,flow.Sequence,0_3_4,2021-03-28T22:13:31.750Z,,,,,,,,,,,,,,,,,,,,,,,,,,,,,,4866.457999988095,completion,,,,,,,,3,,,,,,,,O,I,S,,63406.254999979865,63404.3449999881,58521.223,58532.910000009,58537.887,63408.988,,,
Sounds,html.Screen,0_3_5_0,2021-03-28T22:13:35.992Z,,,,,,,,,,,,,,,,,,,,,,,,,,,,,,4253.873999999996,timeout,,,,,,,,2,,,,,,,,O,S,I,,67648.2449999894,67646.274,63392.512,63406.49999998277,63408.988,67662.862,,,
Judgement,html.Screen,0_3_5_1,2021-03-28T22:13:36.613Z,,,,,,,,,,,,,,,,,,,,,,,,,,,true,2,,603.8829999717127,response,,,,,,,,2,,2,click #choice-2,,,,,O,S,I,,68269.32000002125,68266.7449999717,67646.274,67648.8750000135,67662.862,68313.425,,,
Trial,flow.Sequence,0_3_5,2021-03-28T22:13:36.614Z,,,,,,,,,,,,,,,,,,,,,,,,,,,,,,4857.756999971709,completion,,,,,,,,2,,,,,,,,O,S,I,,68270.2350000036,68266.7449999717,63392.512,63406.42499999376,63408.988,68313.425,,,
Task,flow.Loop,0_3,2021-03-28T22:13:36.631Z,,,,,,,,,,,,,,,,,,,,,,,,,,,,,,30297.359999971704,completion,,,1,,,,,,,,,,,,,,,,,68286.65000002366,68266.7449999717,37952.7,37959.809999971185,37969.385,68313.425,,,
Trap,html.Screen,0_4,2021-03-28T22:13:36.646Z,,,,,,,,,,,,,,,,,,,,,,,,,,,,,,NaN,skipped,,,,,,,,,,,,,,,,,,,,68301.68999999296,68266.7449999717,,68300.99499999778,,68313.425,,,
Thanks,html.Screen,0_5,2021-03-28T22:13:42.170Z,,,,,,,,,,,,,,,,,,,,,,,,,,,,,,5510.750000016109,response,,,,,,,,,,continue,click button,,,,,,,,,73826.390000002,73824.17500001611,68263.636,68302.31499997899,68313.425,77338.27,,,
Headphone screening,flow.Sequence,0,2021-03-28T22:13:42.171Z,,,,,,,,,,,,,,,,,,,,,,,,,,,,,,60877.74700001611,completion,,,,,,,,,,,,,,,,,,,,73827.27499998873,73824.17500001611,12830.008,12828.609999967739,12946.428,77338.27,,,
Instructions,html.Page,1_0,2021-03-28T22:13:57.475Z,,,,,,,,,,,,,,,,,,,,,,,,,,,,,,11791.284999992247,form submission,,,,,,,,,,,,,,,,,,,,89130.62999997055,89129.55499999225,77271.573,77315.094999969,77338.27,89149.12,,,
Holding screen,html.Screen,1_1_0_0,2021-03-28T22:14:04.484Z,,,,,,,,,,,,,,,,,,,,,,,,,,,,,,7056.2820000000065,timeout,,,,,,,,,,,,,,,,,,,,96139.64499998838,96138.779,89142.266,89131.66499999352,89149.12,96205.402,,,
screen,html.Screen,1_1_0_1_0,2021-03-28T22:14:05.068Z,,,,,,,,,,,,,,,,53,,,,,,,,,,,,,,510.0780000134837,response,,,,99,,,,,,Space,keypress(Space),,,,,,,,When -- ----- -- ------ - ------- --- ----------<br>------------- ------ ------ ---- ---- ------- ----- -- ----<br>-------- ------- -- ---------- --- - --- ----- ----- ----<br>---- --- --- ----- --- ---- ---- ------- ----- ---- -------<br>--- --- -- ----- -- --- ---- -- --- ---- -- ------ ------<br>--- ----- -- ----,96724.18999997899,96715.48000001349,96138.779,96140.0249999715,96205.402,96722.716,,0,When
screen,html.Screen,1_1_0_1_1,2021-03-28T22:14:05.441Z,,,,,,,,,,,,,,,,53,,,,,,,,,,,,,,373.08400001005793,response,,,,99,,,,,,Space,keypress(Space),,,,,,,,---- it ----- -- ------ - ------- --- ----------<br>------------- ------ ------ ---- ---- ------- ----- -- ----<br>-------- ------- -- ---------- --- - --- ----- ----- ----<br>---- --- --- ----- --- ---- ---- ------- ----- ---- -------<br>--- --- -- ----- -- --- ---- -- --- ---- -- ------ ------<br>--- ----- -- ----,97097.37999999197,97095.80000001006,96706.072,96724.92000000784,96722.716,97106.367,,1,it
screen,html.Screen,1_1_0_1_2,2021-03-28T22:14:05.767Z,,,,,,,,,,,,,,,,53,,,,,,,,,,,,,,315.10799998100265,response,,,,99,,,,,,Space,keypress(Space),,,,,,,,---- -- comes -- ------ - ------- --- ----------<br>------------- ------ ------ ---- ---- ------- ----- -- ----<br>-------- ------- -- ---------- --- - --- ----- ----- ----<br>---- --- --- ----- --- ---- ---- ------- ----- ---- -------<br>--- --- -- ----- -- --- ---- -- --- ---- -- ------ ------<br>--- ----- -- ----,97422.42999997688,97421.474999981,97089.807,97097.95500000473,97106.367,97439.957,,2,comes
screen,html.Screen,1_1_0_1_3,2021-03-28T22:14:06.117Z,,,,,,,,,,,,,,,,53,,,,,,,,,,,,,,331.26799997495255,response,,,,99,,,,,,Space,keypress(Space),,,,,,,,---- -- ----- to ------ - ------- --- ----------<br>------------- ------ ------ ---- ---- ------- ----- -- ----<br>-------- ------- -- ---------- --- - --- ----- ----- ----<br>---- --- --- ----- --- ---- ---- ------- ----- ---- -------<br>--- --- -- ----- -- --- ---- -- --- ---- -- ------ ------<br>--- ----- -- ----,97772.94499997515,97771.22499997495,97406.708,97422.64000000432,97439.957,97790.343,,3,to
screen,html.Screen,1_1_0_1_4,2021-03-28T22:14:06.432Z,,,,,,,,,,,,,,,,53,,,,,,,,,,,,,,295.8170000062091,response,,,,99,,,,,,Space,keypress(Space),,,,,,,,---- -- ----- -- having - ------- --- ----------<br>------------- ------ ------ ---- ---- ------- ----- -- ----<br>-------- ------- -- ---------- --- - --- ----- ----- ----<br>---- --- --- ----- --- ---- ---- ------- ----- ---- -------<br>--- --- -- ----- -- --- ---- -- --- ---- -- ------ ------<br>--- ----- -- ----,98087.44500001194,98086.1600000062,97773.765,97773.53000000585,97790.343,98107.254,,4,having
screen,html.Screen,1_1_0_1_5,2021-03-28T22:14:06.718Z,,,,,,,,,,,,,,,,53,,,,,,,,,,,,,,265.115999997317,response,,,,99,,,,,,Space,keypress(Space),,,,,,,,---- -- ----- -- ------ a ------- --- ----------<br>------------- ------ ------ ---- ---- ------- ----- -- ----<br>-------- ------- -- ---------- --- - --- ----- ----- ----<br>---- --- --- ----- --- ---- ---- ------- ----- ---- -------<br>--- --- -- ----- -- --- ---- -- --- ---- -- ------ ------<br>--- ----- -- ----,98373.94999997923,98372.36999999732,98090.667,98101.71499999706,98107.254,98390.987,,5,a
screen,html.Screen,1_1_0_1_6,2021-03-28T22:14:07.068Z,,,,,,,,,,,,,,,,53,,,,,,,,,,,,,,331.4379999853845,response,,,,99,,,,,,Space,keypress(Space),,,,,,,,---- -- ----- -- ------ - lasting --- ----------<br>------------- ------ ------ ---- ---- ------- ----- -- ----<br>-------- ------- -- ---------- --- - --- ----- ----- ----<br>---- --- --- ----- --- ---- ---- ------- ----- ---- -------<br>--- --- -- ----- -- --- ---- -- --- ---- -- ------ ------<br>--- ----- -- ----,98724.08499999437,98722.42499998538,98374.221,98374.49999997625,98390.987,98741.131,,6,lasting
screen,html.Screen,1_1_0_1_7,2021-03-28T22:14:07.403Z,,,,,,,,,,,,,,,,53,,,,,,,,,,,,,,315.7990000206628,response,,,,99,,,,,,Space,keypress(Space),,,,,,,,---- -- ----- -- ------ - ------- and ----------<br>------------- ------ ------ ---- ---- ------- ----- -- ----<br>-------- ------- -- ---------- --- - --- ----- ----- ----<br>---- --- --- ----- --- ---- ---- ------- ----- ---- -------<br>--- --- -- ----- -- --- ---- -- --- ---- -- ------ ------<br>--- ----- -- ----,99058.64000000292,99056.93000002066,98724.54,98724.62499997346,98741.131,99074.783,,7,and
screen,html.Screen,1_1_0_1_8,2021-03-28T22:14:07.757Z,,,,,,,,,,,,,,,,53,,,,,,,,,,,,,,335.85199997836025,response,,,,99,,,,,,Space,keypress(Space),,,,,,,,---- -- ----- -- ------ - ------- --- fulfilling<br>------------- ------ ------ ---- ---- ------- ----- -- ----<br>-------- ------- -- ---------- --- - --- ----- ----- ----<br>---- --- --- ----- --- ---- ---- ------- ----- ---- -------<br>--- --- -- ----- -- --- ---- -- --- ---- -- ------ ------<br>--- ----- -- ----,99412.39000001224,99410.63499997836,99058.302,99059.27500000689,99074.783,99425.172,,8,fulfilling
screen,html.Screen,1_1_0_1_9,2021-03-28T22:14:08.105Z,,,,,,,,,,,,,,,,53,,,,,,,,,,,,,,334.2379999987461,response,,,,99,,,,,,Space,keypress(Space),,,,,,,,"---- -- ----- -- ------ - ------- --- ----------<br>relationship, ------ ------ ---- ---- ------- ----- -- ----<br>-------- ------- -- ---------- --- - --- ----- ----- ----<br>---- --- --- ----- --- ---- ---- ------- ----- ---- -------<br>--- --- -- ----- -- --- ---- -- --- ---- -- ------ ------<br>--- ----- -- ----",99761.25500001945,99759.40999999875,99408.581,99412.97499998473,99425.172,99775.484,,9,"relationship,"
screen,html.Screen,1_1_0_1_10,2021-03-28T22:14:08.422Z,,,,,,,,,,,,,,,,53,,,,,,,,,,,,,,301.0559999800171,response,,,,99,,,,,,Space,keypress(Space),,,,,,,,---- -- ----- -- ------ - ------- --- ----------<br>------------- common ------ ---- ---- ------- ----- -- ----<br>-------- ------- -- ---------- --- - --- ----- ----- ----<br>---- --- --- ----- --- ---- ---- ------- ----- ---- -------<br>--- --- -- ----- -- --- ---- -- --- ---- -- ------ ------<br>--- ----- -- ----,100078.2950000139,100076.53999998001,99758.831,99761.79000001866,99775.484,100092.41,,10,common
screen,html.Screen,1_1_0_1_11,2021-03-28T22:14:08.742Z,,,,,,,,,,,,,,,,53,,,,,,,,,,,,,,304.0950000115263,response,,,,99,,,,,,Space,keypress(Space),,,,,,,,---- -- ----- -- ------ - ------- --- ----------<br>------------- ------ wisdom ---- ---- ------- ----- -- ----<br>-------- ------- -- ---------- --- - --- ----- ----- ----<br>---- --- --- ----- --- ---- ---- ------- ----- ---- -------<br>--- --- -- ----- -- --- ---- -- --- ---- -- ------ ------<br>--- ----- -- ----,100398.2299999916,100396.50500001153,100075.785,100078.84999999078,100092.41,100409.309,,11,wisdom
screen,html.Screen,1_1_0_1_12,2021-03-28T22:14:09.050Z,,,,,,,,,,,,,,,,53,,,,,,,,,,,,,,295.3160000130447,response,,,,99,,,,,,Space,keypress(Space),,,,,,,,---- -- ----- -- ------ - ------- --- ----------<br>------------- ------ ------ says ---- ------- ----- -- ----<br>-------- ------- -- ---------- --- - --- ----- ----- ----<br>---- --- --- ----- --- ---- ---- ------- ----- ---- -------<br>--- --- -- ----- -- --- ---- -- --- ---- -- ------ ------<br>--- ----- -- ----,100706.3199999975,100704.62500001304,100392.723,100398.76499999082,100409.309,100709.637,,12,says
screen,html.Screen,1_1_0_1_13,2021-03-28T22:14:09.332Z,,,,,,,,,,,,,,,,53,,,,,,,,,,,,,,276.51300001154596,response,,,,99,,,,,,Space,keypress(Space),,,,,,,,---- -- ----- -- ------ - ------- --- ----------<br>------------- ------ ------ ---- that ------- ----- -- ----<br>-------- ------- -- ---------- --- - --- ----- ----- ----<br>---- --- --- ----- --- ---- ---- ------- ----- ---- -------<br>--- --- -- ----- -- --- ---- -- --- ---- -- ------ ------<br>--- ----- -- ----,100987.82500001835,100986.15000001155,100693.133,100706.89500001026,100709.637,100993.225,,13,that
screen,html.Screen,1_1_0_1_14,2021-03-28T22:14:09.632Z,,,,,,,,,,,,,,,,53,,,,,,,,,,,,,,292.5549999765062,response,,,,99,,,,,,Space,keypress(Space),,,,,,,,---- -- ----- -- ------ - ------- --- ----------<br>------------- ------ ------ ---- ---- feeling ----- -- ----<br>-------- ------- -- ---------- --- - --- ----- ----- ----<br>---- --- --- ----- --- ---- ---- ------- ----- ---- -------<br>--- --- -- ----- -- --- ---- -- --- ---- -- ------ ------<br>--- ----- -- ----,101287.67499997048,101285.77999997651,100976.596,100988.39000001317,100993.225,101293.541,,14,feeling
screen,html.Screen,1_1_0_1_15,2021-03-28T22:14:09.935Z,,,,,,,,,,,,,,,,53,,,,,,,,,,,,,,295.4289999825123,response,,,,99,,,,,,Space,keypress(Space),,,,,,,,---- -- ----- -- ------ - ------- --- ----------<br>------------- ------ ------ ---- ---- ------- close -- ----<br>-------- ------- -- ---------- --- - --- ----- ----- ----<br>---- --- --- ----- --- ---- ---- ------- ----- ---- -------<br>--- --- -- ----- -- --- ---- -- --- ---- -- ------ ------<br>--- ----- -- ----,101590.63499997137,101588.96999998251,101276.988,101288.24999998324,101293.541,101593.772,,15,close
screen,html.Screen,1_1_0_1_16,2021-03-28T22:14:10.236Z,,,,,,,,,,,,,,,,53,,,,,,,,,,,,,,296.40300000773277,response,,,,99,,,,,,Space,keypress(Space),,,,,,,,---- -- ----- -- ------ - ------- --- ----------<br>------------- ------ ------ ---- ---- ------- ----- to ----<br>-------- ------- -- ---------- --- - --- ----- ----- ----<br>---- --- --- ----- --- ---- ---- ------- ----- ---- -------<br>--- --- -- ----- -- --- ---- -- --- ---- -- ------ ------<br>--- ----- -- ----,101891.88000001013,101890.17500000773,101577.27,101591.2450000178,101593.772,101920.866,,16,to
screen,html.Screen,1_1_0_1_17,2021-03-28T22:14:10.507Z,,,,,,,,,,,,,,,,53,,,,,,,,,,,,,,240.6990000167134,response,,,,99,,,,,,Space,keypress(Space),,,,,,,,---- -- ----- -- ------ - ------- --- ----------<br>------------- ------ ------ ---- ---- ------- ----- -- your<br>-------- ------- -- ---------- --- - --- ----- ----- ----<br>---- --- --- ----- --- ---- ---- ------- ----- ---- -------<br>--- --- -- ----- -- --- ---- -- --- ---- -- ------ ------<br>--- ----- -- ----,102163.18500001216,102161.56500001671,101877.443,101892.53999997163,101920.866,102177.79,,17,your
screen,html.Screen,1_1_0_1_18,2021-03-28T22:14:10.810Z,,,,,,,,,,,,,,,,53,,,,,,,,,,,,,,286.2349999938597,response,,,,99,,,,,,Space,keypress(Space),,,,,,,,---- -- ----- -- ------ - ------- --- ----------<br>------------- ------ ------ ---- ---- ------- ----- -- ----<br>romantic ------- -- ---------- --- - --- ----- ----- ----<br>---- --- --- ----- --- ---- ---- ------- ----- ---- -------<br>--- --- -- ----- -- --- ---- -- --- ---- -- ------ ------<br>--- ----- -- ----,102466.03499999037,102464.02499999385,102160.981,102163.64500002237,102177.79,102477.912,,18,romantic
screen,html.Screen,1_1_0_1_19,2021-03-28T22:14:11.127Z,,,,,,,,,,,,,,,,53,,,,,,,,,,,,,,300.3629999896657,response,,,,99,,,,,,Space,keypress(Space),,,,,,,,---- -- ----- -- ------ - ------- --- ----------<br>------------- ------ ------ ---- ---- ------- ----- -- ----<br>-------- partner -- ---------- --- - --- ----- ----- ----<br>---- --- --- ----- --- ---- ---- ------- ----- ---- -------<br>--- --- -- ----- -- --- ---- -- --- ---- -- ------ ------<br>--- ----- -- ----,102782.42499998305,102778.27499998966,102461.355,102466.68000001227,102477.912,102794.862,,19,partner
screen,html.Screen,1_1_0_1_20,2021-03-28T22:14:11.524Z,,,,,,,,,,,,,,,,53,,,,,,,,,,,,,,383.3430000038061,response,,,,99,,,,,,Space,keypress(Space),,,,,,,,---- -- ----- -- ------ - ------- --- ----------<br>------------- ------ ------ ---- ---- ------- ----- -- ----<br>-------- ------- is ---------- --- - --- ----- ----- ----<br>---- --- --- ----- --- ---- ---- ------- ----- ---- -------<br>--- --- -- ----- -- --- ---- -- --- ---- -- ------ ------<br>--- ----- -- ----,103180.0800000201,103178.2050000038,102778.154,102783.00499997567,102794.862,103195.329,,20,is
screen,html.Screen,1_1_0_1_21,2021-03-28T22:14:11.809Z,,,,,,,,,,,,,,,,53,,,,,,,,,,,,,,267.31600002144114,response,,,,99,,,,,,Space,keypress(Space),,,,,,,,---- -- ----- -- ------ - ------- --- ----------<br>------------- ------ ------ ---- ---- ------- ----- -- ----<br>-------- ------- -- paramount. --- - --- ----- ----- ----<br>---- --- --- ----- --- ---- ---- ------- ----- ---- -------<br>--- --- -- ----- -- --- ---- -- --- ---- -- ------ ------<br>--- ----- -- ----,103464.63000000222,103462.64500002144,103178.601,103180.67500001052,103195.329,103478.833,,21,paramount.
screen,html.Screen,1_1_0_1_22,2021-03-28T22:14:12.072Z,,,,,,,,,,,,,,,,53,,,,,,,,,,,,,,247.45700002052763,response,,,,99,,,,,,Space,keypress(Space),,,,,,,,---- -- ----- -- ------ - ------- --- ----------<br>------------- ------ ------ ---- ---- ------- ----- -- ----<br>-------- ------- -- ---------- But - --- ----- ----- ----<br>---- --- --- ----- --- ---- ---- ------- ----- ---- -------<br>--- --- -- ----- -- --- ---- -- --- ---- -- ------ ------<br>--- ----- -- ----,103727.84000000684,103726.29000002053,103462.155,103465.17999999924,103478.833,103745.966,,22,But
screen,html.Screen,1_1_0_1_23,2021-03-28T22:14:12.350Z,,,,,,,,,,,,,,,,53,,,,,,,,,,,,,,258.9339999999065,response,,,,99,,,,,,Space,keypress(Space),,,,,,,,---- -- ----- -- ------ - ------- --- ----------<br>------------- ------ ------ ---- ---- ------- ----- -- ----<br>-------- ------- -- ---------- --- a --- ----- ----- ----<br>---- --- --- ----- --- ---- ---- ------- ----- ---- -------<br>--- --- -- ----- -- --- ---- -- --- ---- -- ------ ------<br>--- ----- -- ----,104005.81499998225,104004.8999999999,103729.118,103728.38500002399,103745.966,104012.617,,23,a
screen,html.Screen,1_1_0_1_24,2021-03-28T22:14:12.614Z,,,,,,,,,,,,,,,,53,,,,,,,,,,,,,,255.3880000199133,response,,,,99,,,,,,Space,keypress(Space),,,,,,,,---- -- ----- -- ------ - ------- --- ----------<br>------------- ------ ------ ---- ---- ------- ----- -- ----<br>-------- ------- -- ---------- --- - new ----- ----- ----<br>---- --- --- ----- --- ---- ---- ------- ----- ---- -------<br>--- --- -- ----- -- --- ---- -- --- ---- -- ------ ------<br>--- ----- -- ----,104269.58999998169,104268.00500001991,103996.108,104006.02999998955,104012.617,104279.579,,24,new
screen,html.Screen,1_1_0_1_25,2021-03-28T22:14:12.903Z,,,,,,,,,,,,,,,,53,,,,,,,,,,,,,,278.765999968542,response,,,,99,,,,,,Space,keypress(Space),,,,,,,,---- -- ----- -- ------ - ------- --- ----------<br>------------- ------ ------ ---- ---- ------- ----- -- ----<br>-------- ------- -- ---------- --- - --- study ----- ----<br>---- --- --- ----- --- ---- ---- ------- ----- ---- -------<br>--- --- -- ----- -- --- ---- -- --- ---- -- ------ ------<br>--- ----- -- ----,104559.31500002043,104558.34499996854,104262.979,104270.19499999005,104279.579,104563.159,,25,study
screen,html.Screen,1_1_0_1_26,2021-03-28T22:14:13.196Z,,,,,,,,,,,,,,,,53,,,,,,,,,,,,,,286.635999987353,response,,,,99,,,,,,Space,keypress(Space),,,,,,,,---- -- ----- -- ------ - ------- --- ----------<br>------------- ------ ------ ---- ---- ------- ----- -- ----<br>-------- ------- -- ---------- --- - --- ----- finds ----<br>---- --- --- ----- --- ---- ---- ------- ----- ---- -------<br>--- --- -- ----- -- --- ---- -- --- ---- -- ------ ------<br>--- ----- -- ----,104851.65999998571,104849.79499998735,104546.512,104559.5350000076,104563.159,104863.443,,26,finds
screen,html.Screen,1_1_0_1_27,2021-03-28T22:14:13.450Z,,,,,,,,,,,,,,,,53,,,,,,,,,,,,,,240.56199997194926,response,,,,99,,,,,,Space,keypress(Space),,,,,,,,---- -- ----- -- ------ - ------- --- ----------<br>------------- ------ ------ ---- ---- ------- ----- -- ----<br>-------- ------- -- ---------- --- - --- ----- ----- that<br>---- --- --- ----- --- ---- ---- ------- ----- ---- -------<br>--- --- -- ----- -- --- ---- -- --- ---- -- ------ ------<br>--- ----- -- ----,105105.63000000548,105104.00499997195,104846.753,104852.22499998054,104863.443,105113.603,,27,that
screen,html.Screen,1_1_0_1_28,2021-03-28T22:14:13.703Z,,,,,,,,,,,,,,,,53,,,,,,,,,,,,,,243.88700002396945,response,,,,99,,,,,,Space,keypress(Space),,,,,,,,---- -- ----- -- ------ - ------- --- ----------<br>------------- ------ ------ ---- ---- ------- ----- -- ----<br>-------- ------- -- ---------- --- - --- ----- ----- ----<br>it's --- --- ----- --- ---- ---- ------- ----- ---- -------<br>--- --- -- ----- -- --- ---- -- --- ---- -- ------ ------<br>--- ----- -- ----,105359.2199999839,105357.49000002397,105097.037,105106.17500002263,105113.603,105363.901,,28,it's
screen,html.Screen,1_1_0_1_29,2021-03-28T22:14:13.974Z,,,,,,,,,,,,,,,,53,,,,,,,,,,,,,,264.7189999740367,response,,,,99,,,,,,Space,keypress(Space),,,,,,,,---- -- ----- -- ------ - ------- --- ----------<br>------------- ------ ------ ---- ---- ------- ----- -- ----<br>-------- ------- -- ---------- --- - --- ----- ----- ----<br>---- not --- ----- --- ---- ---- ------- ----- ---- -------<br>--- --- -- ----- -- --- ---- -- --- ---- -- ------ ------<br>--- ----- -- ----,105629.50500001898,105628.61999997403,105347.174,105359.81499997433,105363.901,105655.603,,29,not
screen,html.Screen,1_1_0_1_30,2021-03-28T22:14:14.231Z,,,,,,,,,,,,,,,,53,,,,,,,,,,,,,,229.6219999763416,response,,,,99,,,,,,Space,keypress(Space),,,,,,,,---- -- ----- -- ------ - ------- --- ----------<br>------------- ------ ------ ---- ---- ------- ----- -- ----<br>-------- ------- -- ---------- --- - --- ----- ----- ----<br>---- --- how ----- --- ---- ---- ------- ----- ---- -------<br>--- --- -- ----- -- --- ---- -- --- ---- -- ------ ------<br>--- ----- -- ----,105886.95000001462,105885.22499997634,105614.126,105629.72999998601,105655.603,105897.718,,30,how
screen,html.Screen,1_1_0_1_31,2021-03-28T22:14:14.502Z,,,,,,,,,,,,,,,,53,,,,,,,,,,,,,,258.282000017236,response,,,,99,,,,,,Space,keypress(Space),,,,,,,,---- -- ----- -- ------ - ------- --- ----------<br>------------- ------ ------ ---- ---- ------- ----- -- ----<br>-------- ------- -- ---------- --- - --- ----- ----- ----<br>---- --- --- close --- ---- ---- ------- ----- ---- -------<br>--- --- -- ----- -- --- ---- -- --- ---- -- ------ ------<br>--- ----- -- ----,106157.7249999973,106156.00000001723,105881.123,105887.51500000944,105897.718,106164.621,,31,close
screen,html.Screen,1_1_0_1_32,2021-03-28T22:14:14.756Z,,,,,,,,,,,,,,,,53,,,,,,,,,,,,,,245.0640000205458,response,,,,99,,,,,,Space,keypress(Space),,,,,,,,---- -- ----- -- ------ - ------- --- ----------<br>------------- ------ ------ ---- ---- ------- ----- -- ----<br>-------- ------- -- ---------- --- - --- ----- ----- ----<br>---- --- --- ----- you ---- ---- ------- ----- ---- -------<br>--- --- -- ----- -- --- ---- -- --- ---- -- ------ ------<br>--- ----- -- ----,106411.61499998998,106409.68500002054,106147.942,106158.29499997199,106164.621,106414.77,,32,you
screen,html.Screen,1_1_0_1_33,2021-03-28T22:14:15.029Z,,,,,,,,,,,,,,,,53,,,,,,,,,,,,,,268.10999997846375,response,,,,99,,,,,,Space,keypress(Space),,,,,,,,---- -- ----- -- ------ - ------- --- ----------<br>------------- ------ ------ ---- ---- ------- ----- -- ----<br>-------- ------- -- ---------- --- - --- ----- ----- ----<br>---- --- --- ----- --- feel ---- ------- ----- ---- -------<br>--- --- -- ----- -- --- ---- -- --- ---- -- ------ ------<br>--- ----- -- ----,106684.52999996953,106682.87999997847,106398.176,106412.2099999804,106414.77,106698.41,,33,feel
screen,html.Screen,1_1_0_1_34,2021-03-28T22:14:15.281Z,,,,,,,,,,,,,,,,53,,,,,,,,,,,,,,236.8450000185112,response,,,,99,,,,,,Space,keypress(Space),,,,,,,,---- -- ----- -- ------ - ------- --- ----------<br>------------- ------ ------ ---- ---- ------- ----- -- ----<br>-------- ------- -- ---------- --- - --- ----- ----- ----<br>---- --- --- ----- --- ---- that ------- ----- ---- -------<br>--- --- -- ----- -- --- ---- -- --- ---- -- ------ ------<br>--- ----- -- ----,106937.19999998575,106935.25500001851,106681.811,106685.08500000462,106698.41,106948.649,,34,that
screen,html.Screen,1_1_0_1_35,2021-03-28T22:14:15.504Z,,,,,,,,,,,,,,,,53,,,,,,,,,,,,,,209.87599997708458,response,,,,99,,,,,,Space,keypress(Space),,,,,,,,---- -- ----- -- ------ - ------- --- ----------<br>------------- ------ ------ ---- ---- ------- ----- -- ----<br>-------- ------- -- ---------- --- - --- ----- ----- ----<br>---- --- --- ----- --- ---- ---- matters ----- ---- -------<br>--- --- -- ----- -- --- ---- -- --- ---- -- ------ ------<br>--- ----- -- ----,107160.21499998169,107158.52499997709,106931.982,106937.76499998057,106948.649,107165.487,,35,matters
screen,html.Screen,1_1_0_1_36,2021-03-28T22:14:15.682Z,,,,,,,,,,,,,,,,53,,,,,,,,,,,,,,170.57300000145915,response,,,,99,,,,,,Space,keypress(Space),,,,,,,,"---- -- ----- -- ------ - ------- --- ----------<br>------------- ------ ------ ---- ---- ------- ----- -- ----<br>-------- ------- -- ---------- --- - --- ----- ----- ----<br>---- --- --- ----- --- ---- ---- ------- most, ---- -------<br>--- --- -- ----- -- --- ---- -- --- ---- -- ------ ------<br>--- ----- -- ----",107337.74499996798,107336.06000000145,107149.001,107160.81999999005,107165.487,107348.964,,36,"most,"
screen,html.Screen,1_1_0_1_37,2021-03-28T22:14:15.915Z,,,,,,,,,,,,,,,,53,,,,,,,,,,,,,,220.3710000074061,response,,,,99,,,,,,Space,keypress(Space),,,,,,,,---- -- ----- -- ------ - ------- --- ----------<br>------------- ------ ------ ---- ---- ------- ----- -- ----<br>-------- ------- -- ---------- --- - --- ----- ----- ----<br>---- --- --- ----- --- ---- ---- ------- ----- it's -------<br>--- --- -- ----- -- --- ---- -- --- ---- -- ------ ------<br>--- ----- -- ----,107571.07000000542,107569.33500000741,107332.412,107338.30000000307,107348.964,107582.582,,37,it's
screen,html.Screen,1_1_0_1_38,2021-03-28T22:14:16.188Z,,,,,,,,,,,,,,,,53,,,,,,,,,,,,,,259.6079999957583,response,,,,99,,,,,,Space,keypress(Space),,,,,,,,---- -- ----- -- ------ - ------- --- ----------<br>------------- ------ ------ ---- ---- ------- ----- -- ----<br>-------- ------- -- ---------- --- - --- ----- ----- ----<br>---- --- --- ----- --- ---- ---- ------- ----- ---- whether<br>--- --- -- ----- -- --- ---- -- --- ---- -- ------ ------<br>--- ----- -- ----,107843.79000001354,107842.18999999575,107566.03,107571.6399999801,107582.582,107849.404,,38,whether
screen,html.Screen,1_1_0_1_39,2021-03-28T22:14:16.464Z,,,,,,,,,,,,,,,,53,,,,,,,,,,,,,,269.2610000163404,response,,,,99,,,,,,Space,keypress(Space),,,,,,,,---- -- ----- -- ------ - ------- --- ----------<br>------------- ------ ------ ---- ---- ------- ----- -- ----<br>-------- ------- -- ---------- --- - --- ----- ----- ----<br>---- --- --- ----- --- ---- ---- ------- ----- ---- -------<br>you --- -- ----- -- --- ---- -- --- ---- -- ------ ------<br>--- ----- -- ----,108120.25500001619,108118.66500001634,107832.949,107844.38500000397,107849.404,108133.004,,39,you
screen,html.Screen,1_1_0_1_40,2021-03-28T22:14:16.734Z,,,,,,,,,,,,,,,,53,,,,,,,,,,,,,,254.7710000101506,response,,,,99,,,,,,Space,keypress(Space),,,,,,,,---- -- ----- -- ------ - ------- --- ----------<br>------------- ------ ------ ---- ---- ------- ----- -- ----<br>-------- ------- -- ---------- --- - --- ----- ----- ----<br>---- --- --- ----- --- ---- ---- ------- ----- ---- -------<br>--- are -- ----- -- --- ---- -- --- ---- -- ------ ------<br>--- ----- -- ----,108389.49500001036,108387.77500001015,108116.447,108120.81499997294,108133.004,108399.95,,40,are
screen,html.Screen,1_1_0_1_41,2021-03-28T22:14:16.971Z,,,,,,,,,,,,,,,,53,,,,,,,,,,,,,,225.1999999780237,response,,,,99,,,,,,Space,keypress(Space),,,,,,,,---- -- ----- -- ------ - ------- --- ----------<br>------------- ------ ------ ---- ---- ------- ----- -- ----<br>-------- ------- -- ---------- --- - --- ----- ----- ----<br>---- --- --- ----- --- ---- ---- ------- ----- ---- -------<br>--- --- as ----- -- --- ---- -- --- ---- -- ------ ------<br>--- ----- -- ----,108627.08000000566,108625.14999997802,108383.425,108390.07000002312,108399.95,108633.534,,41,as
screen,html.Screen,1_1_0_1_42,2021-03-28T22:14:17.214Z,,,,,,,,,,,,,,,,53,,,,,,,,,,,,,,234.14099998677557,response,,,,99,,,,,,Space,keypress(Space),,,,,,,,---- -- ----- -- ------ - ------- --- ----------<br>------------- ------ ------ ---- ---- ------- ----- -- ----<br>-------- ------- -- ---------- --- - --- ----- ----- ----<br>---- --- --- ----- --- ---- ---- ------- ----- ---- -------<br>--- --- -- close -- --- ---- -- --- ---- -- ------ ------<br>--- ----- -- ----,108869.60500001442,108867.67499998678,108616.915,108627.63499998255,108633.534,108883.871,,42,close
screen,html.Screen,1_1_0_1_43,2021-03-28T22:14:17.464Z,,,,,,,,,,,,,,,,53,,,,,,,,,,,,,,235.42399998223118,response,,,,99,,,,,,Space,keypress(Space),,,,,,,,---- -- ----- -- ------ - ------- --- ----------<br>------------- ------ ------ ---- ---- ------- ----- -- ----<br>-------- ------- -- ---------- --- - --- ----- ----- ----<br>---- --- --- ----- --- ---- ---- ------- ----- ---- -------<br>--- --- -- ----- as --- ---- -- --- ---- -- ------ ------<br>--- ----- -- ----,109120.35500002094,109119.29499998223,108867.254,108870.14999997336,108883.871,109133.958,,43,as
screen,html.Screen,1_1_0_1_44,2021-03-28T22:14:17.701Z,,,,,,,,,,,,,,,,53,,,,,,,,,,,,,,221.47699997584277,response,,,,99,,,,,,Space,keypress(Space),,,,,,,,---- -- ----- -- ------ - ------- --- ----------<br>------------- ------ ------ ---- ---- ------- ----- -- ----<br>-------- ------- -- ---------- --- - --- ----- ----- ----<br>---- --- --- ----- --- ---- ---- ------- ----- ---- -------<br>--- --- -- ----- -- you ---- -- --- ---- -- ------ ------<br>--- ----- -- ----,109357.09000000497,109355.43499997584,109117.367,109120.63999997918,109133.958,109367.503,,44,you
screen,html.Screen,1_1_0_1_45,2021-03-28T22:14:17.966Z,,,,,,,,,,,,,,,,53,,,,,,,,,,,,,,252.41199998839875,response,,,,99,,,,,,Space,keypress(Space),,,,,,,,---- -- ----- -- ------ - ------- --- ----------<br>------------- ------ ------ ---- ---- ------- ----- -- ----<br>-------- ------- -- ---------- --- - --- ----- ----- ----<br>---- --- --- ----- --- ---- ---- ------- ----- ---- -------<br>--- --- -- ----- -- --- want -- --- ---- -- ------ ------<br>--- ----- -- ----,109621.73000001349,109619.9149999884,109350.863,109357.640000002,109367.503,109634.412,,45,want
screen,html.Screen,1_1_0_1_46,2021-03-28T22:14:18.214Z,,,,,,,,,,,,,,,,53,,,,,,,,,,,,,,234.0380000090372,response,,,,99,,,,,,Space,keypress(Space),,,,,,,,---- -- ----- -- ------ - ------- --- ----------<br>------------- ------ ------ ---- ---- ------- ----- -- ----<br>-------- ------- -- ---------- --- - --- ----- ----- ----<br>---- --- --- ----- --- ---- ---- ------- ----- ---- -------<br>--- --- -- ----- -- --- ---- to --- ---- -- ------ ------<br>--- ----- -- ----,109870.3749999986,109868.45000000903,109617.867,109622.28499999037,109634.412,109884.758,,46,to
screen,html.Screen,1_1_0_1_47,2021-03-28T22:14:18.470Z,,,,,,,,,,,,,,,,53,,,,,,,,,,,,,,240.361999982415,response,,,,99,,,,,,Space,keypress(Space),,,,,,,,"---- -- ----- -- ------ - ------- --- ----------<br>------------- ------ ------ ---- ---- ------- ----- -- ----<br>-------- ------- -- ---------- --- - --- ----- ----- ----<br>---- --- --- ----- --- ---- ---- ------- ----- ---- -------<br>--- --- -- ----- -- --- ---- -- be, ---- -- ------ ------<br>--- ----- -- ----",110126.09500001417,110125.11999998242,109867.993,109870.93500001356,109884.758,110134.884,,47,"be,"
screen,html.Screen,1_1_0_1_48,2021-03-28T22:14:18.733Z,,,,,,,,,,,,,,,,53,,,,,,,,,,,,,,251.91599997838784,response,,,,99,,,,,,Space,keypress(Space),,,,,,,,---- -- ----- -- ------ - ------- --- ----------<br>------------- ------ ------ ---- ---- ------- ----- -- ----<br>-------- ------- -- ---------- --- - --- ----- ----- ----<br>---- --- --- ----- --- ---- ---- ------- ----- ---- -------<br>--- --- -- ----- -- --- ---- -- --- even -- ------ ------<br>--- ----- -- ----,110388.41999997385,110386.7999999784,110118.334,110126.31500000134,110134.884,110401.827,,48,even
screen,html.Screen,1_1_0_1_49,2021-03-28T22:14:19.001Z,,,,,,,,,,,,,,,,53,,,,,,,,,,,,,,253.17299996972724,response,,,,99,,,,,,Space,keypress(Space),,,,,,,,---- -- ----- -- ------ - ------- --- ----------<br>------------- ------ ------ ---- ---- ------- ----- -- ----<br>-------- ------- -- ---------- --- - --- ----- ----- ----<br>---- --- --- ----- --- ---- ---- ------- ----- ---- -------<br>--- --- -- ----- -- --- ---- -- --- ---- if ------ ------<br>--- ----- -- ----,110656.6950000124,110654.99999996973,110385.115,110389.01500002248,110401.827,110668.68,,49,if
screen,html.Screen,1_1_0_1_50,2021-03-28T22:14:19.262Z,,,,,,,,,,,,,,,,53,,,,,,,,,,,,,,247.28000001300825,response,,,,99,,,,,,Space,keypress(Space),,,,,,,,---- -- ----- -- ------ - ------- --- ----------<br>------------- ------ ------ ---- ---- ------- ----- -- ----<br>-------- ------- -- ---------- --- - --- ----- ----- ----<br>---- --- --- ----- --- ---- ---- ------- ----- ---- -------<br>--- --- -- ----- -- --- ---- -- --- ---- -- that's ------<br>--- ----- -- ----,110917.68499999307,110915.960000013,110652.218,110657.34500001417,110668.68,110935.719,,50,that's
screen,html.Screen,1_1_0_1_51,2021-03-28T22:14:19.513Z,,,,,,,,,,,,,,,,53,,,,,,,,,,,,,,231.83100001285493,response,,,,99,,,,,,Space,keypress(Space),,,,,,,,---- -- ----- -- ------ - ------- --- ----------<br>------------- ------ ------ ---- ---- ------- ----- -- ----<br>-------- ------- -- ---------- --- - --- ----- ----- ----<br>---- --- --- ----- --- ---- ---- ------- ----- ---- -------<br>--- --- -- ----- -- --- ---- -- --- ---- -- ------ really<br>--- ----- -- ----,111169.3400000222,111167.55000001285,110918.999,110918.27500000363,110935.719,111185.946,,51,really
screen,html.Screen,1_1_0_1_52,2021-03-28T22:14:19.806Z,,,,,,,,,,,,,,,,53,,,,,,,,,,,,,,273.3040000144392,response,,,,99,,,,,,Space,keypress(Space),,,,,,,,---- -- ----- -- ------ - ------- --- ----------<br>------------- ------ ------ ---- ---- ------- ----- -- ----<br>-------- ------- -- ---------- --- - --- ----- ----- ----<br>---- --- --- ----- --- ---- ---- ------- ----- ---- -------<br>--- --- -- ----- -- --- ---- -- --- ---- -- ------ ------<br>not ----- -- ----,111461.50999999372,111459.25000001444,111169.172,111169.9999999837,111185.946,111469.383,,52,not
screen,html.Screen,1_1_0_1_53,2021-03-28T22:14:20.115Z,,,,,,,,,,,,,,,,53,,,,,,,,,,,,,,299.1720000169298,response,,,,99,,,,,,Space,keypress(Space),,,,,,,,---- -- ----- -- ------ - ------- --- ----------<br>------------- ------ ------ ---- ---- ------- ----- -- ----<br>-------- ------- -- ---------- --- - --- ----- ----- ----<br>---- --- --- ----- --- ---- ---- ------- ----- ---- -------<br>--- --- -- ----- -- --- ---- -- --- ---- -- ------ ------<br>--- close -- ----,111770.76500002295,111768.55500001693,111452.729,111462.02500001527,111469.383,111786.442,,53,close
screen,html.Screen,1_1_0_1_54,2021-03-28T22:14:20.418Z,,,,,,,,,,,,,,,,53,,,,,,,,,,,,,,285.8980000133597,response,,,,99,,,,,,Space,keypress(Space),,,,,,,,---- -- ----- -- ------ - ------- --- ----------<br>------------- ------ ------ ---- ---- ------- ----- -- ----<br>-------- ------- -- ---------- --- - --- ----- ----- ----<br>---- --- --- ----- --- ---- ---- ------- ----- ---- -------<br>--- --- -- ----- -- --- ---- -- --- ---- -- ------ ------<br>--- ----- at ----,112074.15000000037,112072.34000001336,111769.781,111771.36000001337,111786.442,112086.743,,54,at
screen,html.Screen,1_1_0_1_55,2021-03-28T22:14:20.704Z,,,,,,,,,,,,,,,,53,,,,,,,,,,,,,,272.3769999791548,response,,,,99,,,,,,Space,keypress(Space),,,,,,,,---- -- ----- -- ------ - ------- --- ----------<br>------------- ------ ------ ---- ---- ------- ----- -- ----<br>-------- ------- -- ---------- --- - --- ----- ----- ----<br>---- --- --- ----- --- ---- ---- ------- ----- ---- -------<br>--- --- -- ----- -- --- ---- -- --- ---- -- ------ ------<br>--- ----- -- all.,112359.99999998603,112359.11999997916,112070.055,112074.70499997726,112086.743,112370.172,,55,all.
Item 99,flow.Loop,1_1_0_1,2021-03-28T22:14:20.705Z,,,,,,,,,,,,,,,,,,,,,,,,,,,,,,16153.717999979155,completion,,,,,B,,,,,,,,,,silence,,,,,112360.54999998305,112359.11999997916,96138.779,96139.92500002496,96205.402,112370.172,,,
Question 1,html.Screen,1_1_0_2,2021-03-28T22:14:24.482Z,,,,,,,,,,,,,,,,,,,,,,,,,,,true,FALSE,,3764.913000016255,response,,,,99,B,,,,,FALSE,click #choice-2,,,,silence,,,,,116137.8300000215,116135.08500001626,112353.58,112360.82499998156,112370.172,116140.258,,,
Question 2,html.Screen,1_1_0_3,2021-03-28T22:14:28.205Z,,,,,,,,,,,,,,,,,,,,,,,,,,,true,TRUE,,3718.6319999740517,response,,,,99,B,,,,,TRUE,click #choice-1,,,,silence,,,,,119860.40000000503,119858.88999997405,116123.62,116138.50000000093,116140.258,119890.984,,,
Item 99,flow.Sequence,1_1_0,2021-03-28T22:14:28.205Z,,,,,,,,,,,,,,,,,,,,,,,,,,,,,,30709.769999974058,completion,,,,,,,,,,,,,,,,,,,,119860.83000001963,119858.88999997405,89142.266,89131.45500002429,89149.12,119890.984,,,
Holding screen,html.Screen,1_1_1_0,2021-03-28T22:14:35.212Z,,,,,,,,,,,,,,,,,,,,,,,,,,,,,,6992.471000000005,timeout,,,,,,,,,,,,,,,,,,,,126868.6699999962,126866.637,119843.658,119861.40499997418,119890.984,126883.455,,,
screen,html.Screen,1_1_1_1_0,2021-03-28T22:14:35.610Z,,,,,,,,,,,,,,,,54,,,,,,,,,,,,,,381.1049999814277,response,,,,100,,,,,,Space,keypress(Space),,,,,,,,At --- ---- --- ------ ----- ------- ---- -- --- ------- --<br>------- ---------- ------ -- ----- -- ----- -- ---- ------<br>--- ----- --- --- ------ -------- ----- --- ------ ----- --<br>----- ----- ---------- --- --- ------ ------ ---- -- ------<br>------- --- ------ ----- --- ---- ------- -- ---- --- --<br>------- ------,127266.30999997724,127264.55999998143,126866.637,126869.06499997713,126883.455,127267.095,,0,At
screen,html.Screen,1_1_1_1_1,2021-03-28T22:14:36.042Z,,,,,,,,,,,,,,,,54,,,,,,,,,,,,,,430.439999984781,response,,,,100,,,,,,Space,keypress(Space),,,,,,,,-- the ---- --- ------ ----- ------- ---- -- --- ------- --<br>------- ---------- ------ -- ----- -- ----- -- ---- ------<br>--- ----- --- --- ------ -------- ----- --- ------ ----- --<br>----- ----- ---------- --- --- ------ ------ ---- -- ------<br>------- --- ------ ----- --- ---- ------- -- ---- --- --<br>------- ------,127698.57000000775,127697.53499998478,127250.518,127266.80500002112,127267.095,127700.784,,1,the
screen,html.Screen,1_1_1_1_2,2021-03-28T22:14:36.324Z,,,,,,,,,,,,,,,,54,,,,,,,,,,,,,,277.751000002012,response,,,,100,,,,,,Space,keypress(Space),,,,,,,,-- --- time --- ------ ----- ------- ---- -- --- ------- --<br>------- ---------- ------ -- ----- -- ----- -- ---- ------<br>--- ----- --- --- ------ -------- ----- --- ------ ----- --<br>----- ----- ---------- --- --- ------ ------ ---- -- ------<br>------- --- ------ ----- --- ---- ------- -- ---- --- --<br>------- ------,127980.11000000406,127978.53500000201,127684.327,127698.8550000242,127700.784,127984.472,,2,time
screen,html.Screen,1_1_1_1_3,2021-03-28T22:14:36.515Z,,,,,,,,,,,,,,,,54,,,,,,,,,,,,,,185.27300002107222,response,,,,100,,,,,,Space,keypress(Space),,,,,,,,-- --- ---- the ------ ----- ------- ---- -- --- ------- --<br>------- ---------- ------ -- ----- -- ----- -- ---- ------<br>--- ----- --- --- ------ -------- ----- --- ------ ----- --<br>----- ----- ---------- --- --- ------ ------ ---- -- ------<br>------- --- ------ ----- --- ---- ------- -- ---- --- --<br>------- ------,128171.42500000773,128169.74500002107,127967.765,127980.64999998314,127984.472,128184.659,,3,the
screen,html.Screen,1_1_1_1_4,2021-03-28T22:14:36.867Z,,,,,,,,,,,,,,,,54,,,,,,,,,,,,,,338.08099998578837,response,,,,100,,,,,,Space,keypress(Space),,,,,,,,-- --- ---- --- French ----- ------- ---- -- --- ------- --<br>------- ---------- ------ -- ----- -- ----- -- ---- ------<br>--- ----- --- --- ------ -------- ----- --- ------ ----- --<br>----- ----- ---------- --- --- ------ ------ ---- -- ------<br>------- --- ------ ----- --- ---- ------- -- ---- --- --<br>------- ------,128523.61999999266,128522.73999998579,128168.009,128172.0300000161,128184.659,128534.908,,4,French
screen,html.Screen,1_1_1_1_5,2021-03-28T22:14:37.098Z,,,,,,,,,,,,,,,,54,,,,,,,,,,,,,,217.99700000119628,response,,,,100,,,,,,Space,keypress(Space),,,,,,,,-- --- ---- --- ------ crown ------- ---- -- --- ------- --<br>------- ---------- ------ -- ----- -- ----- -- ---- ------<br>--- ----- --- --- ------ -------- ----- --- ------ ----- --<br>----- ----- ---------- --- --- ------ ------ ---- -- ------<br>------- --- ------ ----- --- ---- ------- -- ---- --- --<br>------- ------,128754.73500002408,128752.90500000119,128518.334,128523.83499999996,128534.908,128768.545,,5,crown
screen,html.Screen,1_1_1_1_6,2021-03-28T22:14:37.401Z,,,,,,,,,,,,,,,,54,,,,,,,,,,,,,,286.96499997649516,response,,,,100,,,,,,Space,keypress(Space),,,,,,,,-- --- ---- --- ------ ----- secured ---- -- --- ------- --<br>------- ---------- ------ -- ----- -- ----- -- ---- ------<br>--- ----- --- --- ------ -------- ----- --- ------ ----- --<br>----- ----- ---------- --- --- ------ ------ ---- -- ------<br>------- --- ------ ----- --- ---- ------- -- ---- --- --<br>------- ------,129057.06999998074,129055.5099999765,128751.808,128755.31500001671,128768.545,129068.786,,6,secured
screen,html.Screen,1_1_1_1_7,2021-03-28T22:14:37.727Z,,,,,,,,,,,,,,,,54,,,,,,,,,,,,,,312.6740000041609,response,,,,100,,,,,,Space,keypress(Space),,,,,,,,-- --- ---- --- ------ ----- ------- much -- --- ------- --<br>------- ---------- ------ -- ----- -- ----- -- ---- ------<br>--- ----- --- --- ------ -------- ----- --- ------ ----- --<br>----- ----- ---------- --- --- ------ ------ ---- -- ------<br>------- --- ------ ----- --- ---- ------- -- ---- --- --<br>------- ------,129382.9900000128,129381.46000000415,129052.174,129057.59500002023,129068.786,129385.737,,7,much
screen,html.Screen,1_1_1_1_8,2021-03-28T22:14:37.974Z,,,,,,,,,,,,,,,,54,,,,,,,,,,,,,,243.12299999708193,response,,,,100,,,,,,Space,keypress(Space),,,,,,,,-- --- ---- --- ------ ----- ------- ---- of --- ------- --<br>------- ---------- ------ -- ----- -- ----- -- ---- ------<br>--- ----- --- --- ------ -------- ----- --- ------ ----- --<br>----- ----- ---------- --- --- ------ ------ ---- -- ------<br>------- --- ------ ----- --- ---- ------- -- ---- --- --<br>------- ------,129630.53000002401,129628.85999999708,129369.113,129383.53499997174,129385.737,129635.886,,8,of
screen,html.Screen,1_1_1_1_9,2021-03-28T22:14:38.227Z,,,,,,,,,,,,,,,,54,,,,,,,,,,,,,,245.3939999723225,response,,,,100,,,,,,Space,keypress(Space),,,,,,,,-- --- ---- --- ------ ----- ------- ---- -- its ------- --<br>------- ---------- ------ -- ----- -- ----- -- ---- ------<br>--- ----- --- --- ------ -------- ----- --- ------ ----- --<br>----- ----- ---------- --- --- ------ ------ ---- -- ------<br>------- --- ------ ----- --- ---- ------- -- ---- --- --<br>------- ------,129882.85499997437,129881.27999997232,129619.341,129631.11000001663,129635.886,129902.78,,9,its
screen,html.Screen,1_1_1_1_10,2021-03-28T22:14:38.486Z,,,,,,,,,,,,,,,,54,,,,,,,,,,,,,,237.7599999930535,response,,,,100,,,,,,Space,keypress(Space),,,,,,,,-- --- ---- --- ------ ----- ------- ---- -- --- revenue --<br>------- ---------- ------ -- ----- -- ----- -- ---- ------<br>--- ----- --- --- ------ -------- ----- --- ------ ----- --<br>----- ----- ---------- --- --- ------ ------ ---- -- ------<br>------- --- ------ ----- --- ---- ------- -- ---- --- --<br>------- ------,130142.72000000346,130140.53999999305,129886.168,129887.52499996917,129902.78,130153.03,,10,revenue
screen,html.Screen,1_1_1_1_11,2021-03-28T22:14:38.743Z,,,,,,,,,,,,,,,,54,,,,,,,,,,,,,,244.84500002421555,response,,,,100,,,,,,Space,keypress(Space),,,,,,,,-- --- ---- --- ------ ----- ------- ---- -- --- ------- by<br>------- ---------- ------ -- ----- -- ----- -- ---- ------<br>--- ----- --- --- ------ -------- ----- --- ------ ----- --<br>----- ----- ---------- --- --- ------ ------ ---- -- ------<br>------- --- ------ ----- --- ---- ------- -- ---- --- --<br>------- ------,130399.80000001378,130397.87500002421,130136.429,130143.22500000708,130153.03,130403.335,,11,by
screen,html.Screen,1_1_1_1_12,2021-03-28T22:14:39.014Z,,,,,,,,,,,,,,,,54,,,,,,,,,,,,,,264.9299999856885,response,,,,100,,,,,,Space,keypress(Space),,,,,,,,-- --- ---- --- ------ ----- ------- ---- -- --- ------- --<br>issuing ---------- ------ -- ----- -- ----- -- ---- ------<br>--- ----- --- --- ------ -------- ----- --- ------ ----- --<br>----- ----- ---------- --- --- ------ ------ ---- -- ------<br>------- --- ------ ----- --- ---- ------- -- ---- --- --<br>------- ------,130669.90500001702,130668.2649999857,130386.662,130400.39999998407,130403.335,130687.133,,12,issuing
screen,html.Screen,1_1_1_1_13,2021-03-28T22:14:39.281Z,,,,,,,,,,,,,,,,54,,,,,,,,,,,,,,248.7119999708666,response,,,,100,,,,,,Space,keypress(Space),,,,,,,,-- --- ---- --- ------ ----- ------- ---- -- --- ------- --<br>------- government ------ -- ----- -- ----- -- ---- ------<br>--- ----- --- --- ------ -------- ----- --- ------ ----- --<br>----- ----- ---------- --- --- ------ ------ ---- -- ------<br>------- --- ------ ----- --- ---- ------- -- ---- --- --<br>------- ------,130936.82499998249,130935.84499997087,130670.377,130670.46499997377,130687.133,130954.04,,13,government
screen,html.Screen,1_1_1_1_14,2021-03-28T22:14:39.969Z,,,,,,,,,,,,,,,,54,,,,,,,,,,,,,,669.3999999957596,response,,,,100,,,,,,Space,keypress(Space),,,,,,,,-- --- ---- --- ------ ----- ------- ---- -- --- ------- --<br>------- ---------- bonds. -- ----- -- ----- -- ---- ------<br>--- ----- --- --- ------ -------- ----- --- ------ ----- --<br>----- ----- ---------- --- --- ------ ------ ---- -- ------<br>------- --- ------ ----- --- ---- ------- -- ---- --- --<br>------- ------,131625.11500000255,131623.43999999575,130937.155,130937.12499999674,130954.04,131637.753,,14,bonds.
screen,html.Screen,1_1_1_1_15,2021-03-28T22:14:40.227Z,,,,,,,,,,,,,,,,54,,,,,,,,,,,,,,243.6470000129484,response,,,,100,,,,,,Space,keypress(Space),,,,,,,,-- --- ---- --- ------ ----- ------- ---- -- --- ------- --<br>------- ---------- ------ In ----- -- ----- -- ---- ------<br>--- ----- --- --- ------ -------- ----- --- ------ ----- --<br>----- ----- ---------- --- --- ------ ------ ---- -- ------<br>------- --- ------ ----- --- ---- ------- -- ---- --- --<br>------- ------,131883.32000002265,131881.40000001295,131621.333,131625.63500000397,131637.753,131887.948,,15,In
screen,html.Screen,1_1_1_1_16,2021-03-28T22:14:40.486Z,,,,,,,,,,,,,,,,54,,,,,,,,,,,,,,252.65700002232916,response,,,,100,,,,,,Space,keypress(Space),,,,,,,,"-- --- ---- --- ------ ----- ------- ---- -- --- ------- --<br>------- ---------- ------ -- 1727, -- ----- -- ---- ------<br>--- ----- --- --- ------ -------- ----- --- ------ ----- --<br>----- ----- ---------- --- --- ------ ------ ---- -- ------<br>------- --- ------ ----- --- ---- ------- -- ---- --- --<br>------- ------",132142.2700000112,132140.60500002233,131871.453,131883.7899999926,131887.948,132154.912,,16,"1727,"
screen,html.Screen,1_1_1_1_17,2021-03-28T22:14:41.294Z,,,,,,,,,,,,,,,,54,,,,,,,,,,,,,,793.6730000055395,response,,,,100,,,,,,Space,keypress(Space),,,,,,,,-- --- ---- --- ------ ----- ------- ---- -- --- ------- --<br>------- ---------- ------ -- ----- in ----- -- ---- ------<br>--- ----- --- --- ------ -------- ----- --- ------ ----- --<br>----- ----- ---------- --- --- ------ ------ ---- -- ------<br>------- --- ------ ----- --- ---- ------- -- ---- --- --<br>------- ------,132950.30999998562,132948.58500000555,132138.246,132142.78499997454,132154.912,132955.616,,17,in
screen,html.Screen,1_1_1_1_18,2021-03-28T22:14:41.608Z,,,,,,,,,,,,,,,,54,,,,,,,,,,,,,,307.3040000082983,response,,,,100,,,,,,Space,keypress(Space),,,,,,,,-- --- ---- --- ------ ----- ------- ---- -- --- ------- --<br>------- ---------- ------ -- ----- -- order -- ---- ------<br>--- ----- --- --- ------ -------- ----- --- ------ ----- --<br>----- ----- ---------- --- --- ------ ------ ---- -- ------<br>------- --- ------ ----- --- ---- ------- -- ---- --- --<br>------- ------,133264.6550000063,133262.9200000083,132939.215,132950.82999998704,132955.616,133272.474,,18,order
screen,html.Screen,1_1_1_1_19,2021-03-28T22:14:41.890Z,,,,,,,,,,,,,,,,54,,,,,,,,,,,,,,271.8660000222153,response,,,,100,,,,,,Space,keypress(Space),,,,,,,,-- --- ---- --- ------ ----- ------- ---- -- --- ------- --<br>------- ---------- ------ -- ----- -- ----- to ---- ------<br>--- ----- --- --- ------ -------- ----- --- ------ ----- --<br>----- ----- ---------- --- --- ------ ------ ---- -- ------<br>------- --- ------ ----- --- ---- ------- -- ---- --- --<br>------- ------,133545.9849999752,133544.3400000222,133255.941,133265.17500000773,133272.474,133556.173,,19,to
screen,html.Screen,1_1_1_1_20,2021-03-28T22:14:42.195Z,,,,,,,,,,,,,,,,54,,,,,,,,,,,,,,293.651999982947,response,,,,100,,,,,,Space,keypress(Space),,,,,,,,-- --- ---- --- ------ ----- ------- ---- -- --- ------- --<br>------- ---------- ------ -- ----- -- ----- -- save ------<br>--- ----- --- --- ------ -------- ----- --- ------ ----- --<br>----- ----- ---------- --- --- ------ ------ ---- -- ------<br>------- --- ------ ----- --- ---- ------- -- ---- --- --<br>------- ------,133851.5100000077,133849.82499998296,133539.593,133546.52500001248,133556.173,133856.41,,20,save
screen,html.Screen,1_1_1_1_21,2021-03-28T22:14:42.480Z,,,,,,,,,,,,,,,,54,,,,,,,,,,,,,,278.7399999873305,response,,,,100,,,,,,Space,keypress(Space),,,,,,,,"-- --- ---- --- ------ ----- ------- ---- -- --- ------- --<br>------- ---------- ------ -- ----- -- ----- -- ---- money,<br>--- ----- --- --- ------ -------- ----- --- ------ ----- --<br>----- ----- ---------- --- --- ------ ------ ---- -- ------<br>------- --- ------ ----- --- ---- ------- -- ---- --- --<br>------- ------",134136.69999997364,134135.14999998733,133839.917,133852.09000000032,133856.41,134140.032,,21,"money,"
screen,html.Screen,1_1_1_1_22,2021-03-28T22:14:42.985Z,,,,,,,,,,,,,,,,54,,,,,,,,,,,,,,499.6380000041099,response,,,,100,,,,,,Space,keypress(Space),,,,,,,,-- --- ---- --- ------ ----- ------- ---- -- --- ------- --<br>------- ---------- ------ -- ----- -- ----- -- ---- ------<br>the ----- --- --- ------ -------- ----- --- ------ ----- --<br>----- ----- ---------- --- --- ------ ------ ---- -- ------<br>------- --- ------ ----- --- ---- ------- -- ---- --- --<br>------- ------,134641.79999998305,134639.67000000412,134123.472,134137.1700000018,134140.032,134657.227,,22,the
screen,html.Screen,1_1_1_1_23,2021-03-28T22:14:43.228Z,,,,,,,,,,,,,,,,54,,,,,,,,,,,,,,225.55800002341857,response,,,,100,,,,,,Space,keypress(Space),,,,,,,,-- --- ---- --- ------ ----- ------- ---- -- --- ------- --<br>------- ---------- ------ -- ----- -- ----- -- ---- ------<br>--- state --- --- ------ -------- ----- --- ------ ----- --<br>----- ----- ---------- --- --- ------ ------ ---- -- ------<br>------- --- ------ ----- --- ---- ------- -- ---- --- --<br>------- ------,134884.48999996763,134882.78500002343,134640.61,134642.33499998227,134657.227,134890.632,,23,state
screen,html.Screen,1_1_1_1_24,2021-03-28T22:14:43.480Z,,,,,,,,,,,,,,,,54,,,,,,,,,,,,,,243.66799997605267,response,,,,100,,,,,,Space,keypress(Space),,,,,,,,-- --- ---- --- ------ ----- ------- ---- -- --- ------- --<br>------- ---------- ------ -- ----- -- ----- -- ---- ------<br>--- ----- cut --- ------ -------- ----- --- ------ ----- --<br>----- ----- ---------- --- --- ------ ------ ---- -- ------<br>------- --- ------ ----- --- ---- ------- -- ---- --- --<br>------- ------,135136.0149999964,135134.29999997607,134874.02,134885.05500002066,134890.632,135140.949,,24,cut
screen,html.Screen,1_1_1_1_25,2021-03-28T22:14:43.713Z,,,,,,,,,,,,,,,,54,,,,,,,,,,,,,,227.541000022582,response,,,,100,,,,,,Space,keypress(Space),,,,,,,,-- --- ---- --- ------ ----- ------- ---- -- --- ------- --<br>------- ---------- ------ -- ----- -- ----- -- ---- ------<br>--- ----- --- the ------ -------- ----- --- ------ ----- --<br>----- ----- ---------- --- --- ------ ------ ---- -- ------<br>------- --- ------ ----- --- ---- ------- -- ---- --- --<br>------- ------,135369.469999976,135368.49000002258,135124.431,135136.50999998208,135140.949,135374.425,,25,the
screen,html.Screen,1_1_1_1_26,2021-03-28T22:14:43.920Z,,,,,,,,,,,,,,,,54,,,,,,,,,,,,,,200.46999996883096,response,,,,100,,,,,,Space,keypress(Space),,,,,,,,-- --- ---- --- ------ ----- ------- ---- -- --- ------- --<br>------- ---------- ------ -- ----- -- ----- -- ---- ------<br>--- ----- --- --- bonds' -------- ----- --- ------ ----- --<br>----- ----- ---------- --- --- ------ ------ ---- -- ------<br>------- --- ------ ----- --- ---- ------- -- ---- --- --<br>------- ------,135576.7099999939,135574.89499996882,135357.909,135369.67500002356,135374.425,135591.267,,26,bonds'
screen,html.Screen,1_1_1_1_27,2021-03-28T22:14:44.320Z,,,,,,,,,,,,,,,,54,,,,,,,,,,,,,,383.657999987714,response,,,,100,,,,,,Space,keypress(Space),,,,,,,,-- --- ---- --- ------ ----- ------- ---- -- --- ------- --<br>------- ---------- ------ -- ----- -- ----- -- ---- ------<br>--- ----- --- --- ------ interest ----- --- ------ ----- --<br>----- ----- ---------- --- --- ------ ------ ---- -- ------<br>------- --- ------ ----- --- ---- ------- -- ---- --- --<br>------- ------,135975.9849999682,135974.9249999877,135574.789,135577.21499999752,135591.267,135991.773,,27,interest
screen,html.Screen,1_1_1_1_28,2021-03-28T22:14:44.559Z,,,,,,,,,,,,,,,,54,,,,,,,,,,,,,,221.66199998330558,response,,,,100,,,,,,Space,keypress(Space),,,,,,,,-- --- ---- --- ------ ----- ------- ---- -- --- ------- --<br>------- ---------- ------ -- ----- -- ----- -- ---- ------<br>--- ----- --- --- ------ -------- rate. --- ------ ----- --<br>----- ----- ---------- --- --- ------ ------ ---- -- ------<br>------- --- ------ ----- --- ---- ------- -- ---- --- --<br>------- ------,136215.03000002122,136213.4349999833,135975.231,135976.19499999564,135991.773,136225.215,,28,rate.
screen,html.Screen,1_1_1_1_29,2021-03-28T22:14:44.889Z,,,,,,,,,,,,,,,,54,,,,,,,,,,,,,,318.84000000575907,response,,,,100,,,,,,Space,keypress(Space),,,,,,,,-- --- ---- --- ------ ----- ------- ---- -- --- ------- --<br>------- ---------- ------ -- ----- -- ----- -- ---- ------<br>--- ----- --- --- ------ -------- ----- The ------ ----- --<br>----- ----- ---------- --- --- ------ ------ ---- -- ------<br>------- --- ------ ----- --- ---- ------- -- ---- --- --<br>------- ------,136544.9699999881,136544.05500000576,136208.723,136215.55000002263,136225.215,136559.046,,29,The
screen,html.Screen,1_1_1_1_30,2021-03-28T22:14:45.233Z,,,,,,,,,,,,,,,,54,,,,,,,,,,,,,,328.8740000083053,response,,,,100,,,,,,Space,keypress(Space),,,,,,,,-- --- ---- --- ------ ----- ------- ---- -- --- ------- --<br>------- ---------- ------ -- ----- -- ----- -- ---- ------<br>--- ----- --- --- ------ -------- ----- --- market ----- --<br>----- ----- ---------- --- --- ------ ------ ---- -- ------<br>------- --- ------ ----- --- ---- ------- -- ---- --- --<br>------- ------,136889.4250000012,136887.9200000083,136542.384,136545.1699999976,136559.046,136892.568,,30,market
screen,html.Screen,1_1_1_1_31,2021-03-28T22:14:45.491Z,,,,,,,,,,,,,,,,54,,,,,,,,,,,,,,253.01200001125108,response,,,,100,,,,,,Space,keypress(Space),,,,,,,,-- --- ---- --- ------ ----- ------- ---- -- --- ------- --<br>------- ---------- ------ -- ----- -- ----- -- ---- ------<br>--- ----- --- --- ------ -------- ----- --- ------ value --<br>----- ----- ---------- --- --- ------ ------ ---- -- ------<br>------- --- ------ ----- --- ---- ------- -- ---- --- --<br>------- ------,137147.27000001585,137145.58000001125,136875.923,136889.93000000482,136892.568,137159.429,,31,value
screen,html.Screen,1_1_1_1_32,2021-03-28T22:14:45.783Z,,,,,,,,,,,,,,,,54,,,,,,,,,,,,,,277.80600001942366,response,,,,100,,,,,,Space,keypress(Space),,,,,,,,-- --- ---- --- ------ ----- ------- ---- -- --- ------- --<br>------- ---------- ------ -- ----- -- ----- -- ---- ------<br>--- ----- --- --- ------ -------- ----- --- ------ ----- of<br>----- ----- ---------- --- --- ------ ------ ---- -- ------<br>------- --- ------ ----- --- ---- ------- -- ---- --- --<br>------- ------,137438.9000000083,137437.23500001943,137142.935,137147.82000001287,137159.429,137443.035,,32,of
screen,html.Screen,1_1_1_1_33,2021-03-28T22:14:46.044Z,,,,,,,,,,,,,,,,54,,,,,,,,,,,,,,255.6050000168907,response,,,,100,,,,,,Space,keypress(Space),,,,,,,,-- --- ---- --- ------ ----- ------- ---- -- --- ------- --<br>------- ---------- ------ -- ----- -- ----- -- ---- ------<br>--- ----- --- --- ------ -------- ----- --- ------ ----- --<br>these ----- ---------- --- --- ------ ------ ---- -- ------<br>------- --- ------ ----- --- ---- ------- -- ---- --- --<br>------- ------,137700.22499997867,137698.6400000169,137426.409,137439.42499998957,137443.035,137709.9,,33,these
screen,html.Screen,1_1_1_1_34,2021-03-28T22:14:46.333Z,,,,,,,,,,,,,,,,54,,,,,,,,,,,,,,277.81499999566586,response,,,,100,,,,,,Space,keypress(Space),,,,,,,,-- --- ---- --- ------ ----- ------- ---- -- --- ------- --<br>------- ---------- ------ -- ----- -- ----- -- ---- ------<br>--- ----- --- --- ------ -------- ----- --- ------ ----- --<br>----- bonds ---------- --- --- ------ ------ ---- -- ------<br>------- --- ------ ----- --- ---- ------- -- ---- --- --<br>------- ------,137989.3850000226,137987.71499999566,137693.312,137700.75499999803,137709.9,137993.571,,34,bonds
screen,html.Screen,1_1_1_1_35,2021-03-28T22:14:46.555Z,,,,,,,,,,,,,,,,54,,,,,,,,,,,,,,216.32900001620874,response,,,,100,,,,,,Space,keypress(Space),,,,,,,,"-- --- ---- --- ------ ----- ------- ---- -- --- ------- --<br>------- ---------- ------ -- ----- -- ----- -- ---- ------<br>--- ----- --- --- ------ -------- ----- --- ------ ----- --<br>----- ----- plummeted, --- --- ------ ------ ---- -- ------<br>------- --- ------ ----- --- ---- ------- -- ---- --- --<br>------- ------",138211.75000001676,138209.9000000162,137976.933,137989.88499998813,137993.571,138227.206,,35,"plummeted,"
screen,html.Screen,1_1_1_1_36,2021-03-28T22:14:46.809Z,,,,,,,,,,,,,,,,54,,,,,,,,,,,,,,237.5790000183042,response,,,,100,,,,,,Space,keypress(Space),,,,,,,,-- --- ---- --- ------ ----- ------- ---- -- --- ------- --<br>------- ---------- ------ -- ----- -- ----- -- ---- ------<br>--- ----- --- --- ------ -------- ----- --- ------ ----- --<br>----- ----- ---------- and --- ------ ------ ---- -- ------<br>------- --- ------ ----- --- ---- ------- -- ---- --- --<br>------- ------,138465.71499999845,138464.7850000183,138210.53,138212.58499997202,138227.206,138477.284,,36,and
screen,html.Screen,1_1_1_1_37,2021-03-28T22:14:47.078Z,,,,,,,,,,,,,,,,54,,,,,,,,,,,,,,256.4909999714873,response,,,,100,,,,,,Space,keypress(Space),,,,,,,,-- --- ---- --- ------ ----- ------- ---- -- --- ------- --<br>------- ---------- ------ -- ----- -- ----- -- ---- ------<br>--- ----- --- --- ------ -------- ----- --- ------ ----- --<br>----- ----- ---------- --- the ------ ------ ---- -- ------<br>------- --- ------ ----- --- ---- ------- -- ---- --- --<br>------- ------,138734.67500001425,138733.7749999715,138460.7,138465.91999998782,138477.284,138744.212,,37,the
screen,html.Screen,1_1_1_1_38,2021-03-28T22:14:47.318Z,,,,,,,,,,,,,,,,54,,,,,,,,,,,,,,228.64799997984665,response,,,,100,,,,,,Space,keypress(Space),,,,,,,,-- --- ---- --- ------ ----- ------- ---- -- --- ------- --<br>------- ---------- ------ -- ----- -- ----- -- ---- ------<br>--- ----- --- --- ------ -------- ----- --- ------ ----- --<br>----- ----- ---------- --- --- market ------ ---- -- ------<br>------- --- ------ ----- --- ---- ------- -- ---- --- --<br>------- ------,138974.47499999544,138972.85999997985,138727.522,138734.88499998348,138744.212,138977.771,,38,market
screen,html.Screen,1_1_1_1_39,2021-03-28T22:14:47.568Z,,,,,,,,,,,,,,,,54,,,,,,,,,,,,,,244.48900000954745,response,,,,100,,,,,,Space,keypress(Space),,,,,,,,-- --- ---- --- ------ ----- ------- ---- -- --- ------- --<br>------- ---------- ------ -- ----- -- ----- -- ---- ------<br>--- ----- --- --- ------ -------- ----- --- ------ ----- --<br>----- ----- ---------- --- --- ------ became ---- -- ------<br>------- --- ------ ----- --- ---- ------- -- ---- --- --<br>------- ------,139223.89999998268,139222.26000000956,138961.25,138974.9549999833,138977.771,139228.031,,39,became
screen,html.Screen,1_1_1_1_40,2021-03-28T22:14:47.844Z,,,,,,,,,,,,,,,,54,,,,,,,,,,,,,,271.06399997739936,response,,,,100,,,,,,Space,keypress(Space),,,,,,,,-- --- ---- --- ------ ----- ------- ---- -- --- ------- --<br>------- ---------- ------ -- ----- -- ----- -- ---- ------<br>--- ----- --- --- ------ -------- ----- --- ------ ----- --<br>----- ----- ---------- --- --- ------ ------ wary -- ------<br>------- --- ------ ----- --- ---- ------- -- ---- --- --<br>------- ------,139500.78000000212,139499.0949999774,139211.357,139224.40000000643,139228.031,139511.564,,40,wary
screen,html.Screen,1_1_1_1_41,2021-03-28T22:14:48.086Z,,,,,,,,,,,,,,,,54,,,,,,,,,,,,,,230.2409999978263,response,,,,100,,,,,,Space,keypress(Space),,,,,,,,-- --- ---- --- ------ ----- ------- ---- -- --- ------- --<br>------- ---------- ------ -- ----- -- ----- -- ---- ------<br>--- ----- --- --- ------ -------- ----- --- ------ ----- --<br>----- ----- ---------- --- --- ------ ------ ---- of ------<br>------- --- ------ ----- --- ---- ------- -- ---- --- --<br>------- ------,139742.7799999714,139741.80499999784,139494.995,139501.28500000574,139511.564,139745.075,,41,of
screen,html.Screen,1_1_1_1_42,2021-03-28T22:14:48.656Z,,,,,,,,,,,,,,,,54,,,,,,,,,,,,,,564.8699999863165,response,,,,100,,,,,,Space,keypress(Space),,,,,,,,-- --- ---- --- ------ ----- ------- ---- -- --- ------- --<br>------- ---------- ------ -- ----- -- ----- -- ---- ------<br>--- ----- --- --- ------ -------- ----- --- ------ ----- --<br>----- ----- ---------- --- --- ------ ------ ---- -- French<br>------- --- ------ ----- --- ---- ------- -- ---- --- --<br>------- ------,140312.1149999788,140309.94499998633,139728.606,139742.98500001896,139745.075,140328.988,,42,French
screen,html.Screen,1_1_1_1_43,2021-03-28T22:14:48.941Z,,,,,,,,,,,,,,,,54,,,,,,,,,,,,,,266.416999970912,response,,,,100,,,,,,Space,keypress(Space),,,,,,,,-- --- ---- --- ------ ----- ------- ---- -- --- ------- --<br>------- ---------- ------ -- ----- -- ----- -- ---- ------<br>--- ----- --- --- ------ -------- ----- --- ------ ----- --<br>----- ----- ---------- --- --- ------ ------ ---- -- ------<br>credit. --- ------ ----- --- ---- ------- -- ---- --- --<br>------- ------,140597.39499998977,140595.40499997092,140312.34,140312.64499999816,140328.988,140612.812,,43,credit.
screen,html.Screen,1_1_1_1_44,2021-03-28T22:14:49.462Z,,,,,,,,,,,,,,,,54,,,,,,,,,,,,,,503.72800001726137,response,,,,100,,,,,,Space,keypress(Space),,,,,,,,-- --- ---- --- ------ ----- ------- ---- -- --- ------- --<br>------- ---------- ------ -- ----- -- ----- -- ---- ------<br>--- ----- --- --- ------ -------- ----- --- ------ ----- --<br>----- ----- ---------- --- --- ------ ------ ---- -- ------<br>------- The ------ ----- --- ---- ------- -- ---- --- --<br>------- ------,141118.21500002407,141116.54000001727,140595.926,140597.91000001132,140612.812,141129.744,,44,The
screen,html.Screen,1_1_1_1_45,2021-03-28T22:14:49.730Z,,,,,,,,,,,,,,,,54,,,,,,,,,,,,,,254.9810000107973,response,,,,100,,,,,,Space,keypress(Space),,,,,,,,-- --- ---- --- ------ ----- ------- ---- -- --- ------- --<br>------- ---------- ------ -- ----- -- ----- -- ---- ------<br>--- ----- --- --- ------ -------- ----- --- ------ ----- --<br>----- ----- ---------- --- --- ------ ------ ---- -- ------<br>------- --- French ----- --- ---- ------- -- ---- --- --<br>------- ------,141386.30999997258,141384.7250000108,141113.16,141118.72500000754,141129.744,141396.659,,45,French
screen,html.Screen,1_1_1_1_46,2021-03-28T22:14:49.999Z,,,,,,,,,,,,,,,,54,,,,,,,,,,,,,,257.24600001375074,response,,,,100,,,,,,Space,keypress(Space),,,,,,,,-- --- ---- --- ------ ----- ------- ---- -- --- ------- --<br>------- ---------- ------ -- ----- -- ----- -- ---- ------<br>--- ----- --- --- ------ -------- ----- --- ------ ----- --<br>----- ----- ---------- --- --- ------ ------ ---- -- ------<br>------- --- ------ state --- ---- ------- -- ---- --- --<br>------- ------,141655.16999998363,141653.90500001376,141380.064,141386.82000001427,141396.659,141663.54,,46,state
screen,html.Screen,1_1_1_1_47,2021-03-28T22:14:50.302Z,,,,,,,,,,,,,,,,54,,,,,,,,,,,,,,292.81499997296487,response,,,,100,,,,,,Space,keypress(Space),,,,,,,,-- --- ---- --- ------ ----- ------- ---- -- --- ------- --<br>------- ---------- ------ -- ----- -- ----- -- ---- ------<br>--- ----- --- --- ------ -------- ----- --- ------ ----- --<br>----- ----- ---------- --- --- ------ ------ ---- -- ------<br>------- --- ------ ----- was ---- ------- -- ---- --- --<br>------- ------,141957.99000002444,141956.35499997297,141646.916,141655.42500000447,141663.54,141963.82,,47,was
screen,html.Screen,1_1_1_1_48,2021-03-28T22:14:50.629Z,,,,,,,,,,,,,,,,54,,,,,,,,,,,,,,319.3500000096974,response,,,,100,,,,,,Space,keypress(Space),,,,,,,,-- --- ---- --- ------ ----- ------- ---- -- --- ------- --<br>------- ---------- ------ -- ----- -- ----- -- ---- ------<br>--- ----- --- --- ------ -------- ----- --- ------ ----- --<br>----- ----- ---------- --- --- ------ ------ ---- -- ------<br>------- --- ------ ----- --- left ------- -- ---- --- --<br>------- ------,142284.8450000165,142283.1700000097,141947.237,141958.49499996984,141963.82,142297.371,,48,left
screen,html.Screen,1_1_1_1_49,2021-03-28T22:14:50.938Z,,,,,,,,,,,,,,,,54,,,,,,,,,,,,,,294.94400001622853,response,,,,100,,,,,,Space,keypress(Space),,,,,,,,-- --- ---- --- ------ ----- ------- ---- -- --- ------- --<br>------- ---------- ------ -- ----- -- ----- -- ---- ------<br>--- ----- --- --- ------ -------- ----- --- ------ ----- --<br>----- ----- ---------- --- --- ------ ------ ---- -- ------<br>------- --- ------ ----- --- ---- without -- ---- --- --<br>------- ------,142594.0249999985,142592.31500001624,142280.784,142285.36999999778,142297.371,142597.723,,49,without
screen,html.Screen,1_1_1_1_50,2021-03-28T22:14:51.194Z,,,,,,,,,,,,,,,,54,,,,,,,,,,,,,,251.29700002330355,response,,,,100,,,,,,Space,keypress(Space),,,,,,,,-- --- ---- --- ------ ----- ------- ---- -- --- ------- --<br>------- ---------- ------ -- ----- -- ----- -- ---- ------<br>--- ----- --- --- ------ -------- ----- --- ------ ----- --<br>----- ----- ---------- --- --- ------ ------ ---- -- ------<br>------- --- ------ ----- --- ---- ------- an ---- --- --<br>------- ------,142850.0050000148,142849.0200000233,142581.004,142594.52500002226,142597.723,142864.667,,50,an
screen,html.Screen,1_1_1_1_51,2021-03-28T22:14:51.452Z,,,,,,,,,,,,,,,,54,,,,,,,,,,,,,,241.96299999477924,response,,,,100,,,,,,Space,keypress(Space),,,,,,,,-- --- ---- --- ------ ----- ------- ---- -- --- ------- --<br>------- ---------- ------ -- ----- -- ----- -- ---- ------<br>--- ----- --- --- ------ -------- ----- --- ------ ----- --<br>----- ----- ---------- --- --- ------ ------ ---- -- ------<br>------- --- ------ ----- --- ---- ------- -- easy --- --<br>------- ------,143108.26499998802,143106.62999999477,142848.011,142850.22500000196,142864.667,143114.814,,51,easy
screen,html.Screen,1_1_1_1_52,2021-03-28T22:14:51.709Z,,,,,,,,,,,,,,,,54,,,,,,,,,,,,,,248.19099999195896,response,,,,100,,,,,,Space,keypress(Space),,,,,,,,-- --- ---- --- ------ ----- ------- ---- -- --- ------- --<br>------- ---------- ------ -- ----- -- ----- -- ---- ------<br>--- ----- --- --- ------ -------- ----- --- ------ ----- --<br>----- ----- ---------- --- --- ------ ------ ---- -- ------<br>------- --- ------ ----- --- ---- ------- -- ---- way --<br>------- ------,143365.18999998225,143363.00499999197,143098.149,143108.78499998944,143114.814,143382.027,,52,way
screen,html.Screen,1_1_1_1_53,2021-03-28T22:14:51.963Z,,,,,,,,,,,,,,,,54,,,,,,,,,,,,,,235.7529999713879,response,,,,100,,,,,,Space,keypress(Space),,,,,,,,-- --- ---- --- ------ ----- ------- ---- -- --- ------- --<br>------- ---------- ------ -- ----- -- ----- -- ---- ------<br>--- ----- --- --- ------ -------- ----- --- ------ ----- --<br>----- ----- ---------- --- --- ------ ------ ---- -- ------<br>------- --- ------ ----- --- ---- ------- -- ---- --- of<br>------- ------,143619.49499999173,143617.7799999714,143365.158,143365.71500002174,143382.027,143631.988,,53,of
screen,html.Screen,1_1_1_1_54,2021-03-28T22:14:52.204Z,,,,,,,,,,,,,,,,54,,,,,,,,,,,,,,226.19199998106342,response,,,,100,,,,,,Space,keypress(Space),,,,,,,,-- --- ---- --- ------ ----- ------- ---- -- --- ------- --<br>------- ---------- ------ -- ----- -- ----- -- ---- ------<br>--- ----- --- --- ------ -------- ----- --- ------ ----- --<br>----- ----- ---------- --- --- ------ ------ ---- -- ------<br>------- --- ------ ----- --- ---- ------- -- ---- --- --<br>raising ------,143859.84499996994,143858.17999998108,143615.325,143620.58499996783,143631.988,143865.518,,54,raising
screen,html.Screen,1_1_1_1_55,2021-03-28T22:14:52.624Z,,,,,,,,,,,,,,,,54,,,,,,,,,,,,,,412.97199999695295,response,,,,100,,,,,,Space,keypress(Space),,,,,,,,-- --- ---- --- ------ ----- ------- ---- -- --- ------- --<br>------- ---------- ------ -- ----- -- ----- -- ---- ------<br>--- ----- --- --- ------ -------- ----- --- ------ ----- --<br>----- ----- ---------- --- --- ------ ------ ---- -- ------<br>------- --- ------ ----- --- ---- ------- -- ---- --- --<br>------- money.,144280.13500000816,144278.48999999696,143848.926,143860.36499997135,143865.518,144299.249,,55,money.
Item 100,flow.Loop,1_1_1_1,2021-03-28T22:14:52.625Z,,,,,,,,,,,,,,,,,,,,,,,,,,,,,,17395.034999996962,completion,,,,,B,,,,,,,,,,silence,,,,,144281.175000011,144278.48999999696,126866.637,126868.97499999031,126883.455,144299.249,,,
Question 1,html.Screen,1_1_1_2,2021-03-28T22:14:55.943Z,,,,,,,,,,,,,,,,,,,,,,,,,,,false,TRUE,,3298.0209999692743,response,,,,100,B,,,,,FALSE,click #choice-2,,,,silence,,,,,147599.77999998955,147597.26999996928,144282.697,144281.6650000168,144299.249,147602.263,,,
Question 2,html.Screen,1_1_1_3,2021-03-28T22:14:58.262Z,,,,,,,,,,,,,,,,,,,,,,,,,,,true,FALSE,,2315.0820000234817,response,,,,100,B,,,,,FALSE,click #choice-2,,,,silence,,,,,149918.69000002043,149917.3450000235,147585.79,147600.2950000111,147602.263,149920.925,,,
Item 100,flow.Sequence,1_1_1,2021-03-28T22:14:58.263Z,,,,,,,,,,,,,,,,,,,,,,,,,,,,,,30026.36100002349,completion,,,,,,,,,,,,,,,,,,,,149919.08999998122,149917.3450000235,119843.658,119861.2950000097,119890.984,149920.925,,,
End of Practice,html.Page,1_1_2,2021-03-28T22:15:02.074Z,,,,,,,,,,,,,,,,,,,,,,,,,,,,,,3808.209999972314,form submission,,,,,,,,,,,,,,,,,,,,153730.02999997698,153729.1349999723,149904.418,149919.30000000866,149920.925,153741.172,,,
Practice,flow.Sequence,1_1,2021-03-28T22:15:02.075Z,,,,,,,,,,,,,,,,,,,,,,,,,,,,,,64580.01499997231,completion,,,,,,,,,,,,,,,,,,,,153730.96000001533,153729.1349999723,89142.266,89131.23499997891,89149.12,153741.172,,,
Trap_instruction,html.Page,1_2_0,2021-03-28T22:15:07.282Z,,,,,,,,,,,,,,,,,,,,,,,,,,,,,,5196.722999980935,form submission,,,,,,,,,,,,,,,,,,,,158938.7449999922,158937.89499998093,153724.481,153731.6250000149,153741.172,159045.925,,,
trap_trial,html.Screen,1_2_1,2021-03-28T22:15:15.432Z,,,,,,,,,,,,,,,,,,,,,,,,,,,true,1,,8038.860000013665,response,,,,,,,,,,1,click #choice-1,,,,,,,,,167087.83999999287,167084.78500001365,158929.327,158939.2050000024,159045.925,167119.983,,,
end of trap trial,html.Page,1_2_2,2021-03-28T22:15:17.431Z,,,,,,,,,,,,,,,,,,,,,,,,,,,,,,1966.4969999981113,form submission,,,,,,,,,,,,,,,,,,,,169087.35499996692,169086.47999999812,167103.404,167088.50000001257,167119.983,169105.117,,,
Trap 1,flow.Sequence,1_2,2021-03-28T22:15:17.432Z,,,,,,,,,,,,,,,,,,,,,,,,,,,,,,15345.307999998127,completion,,,,,,,,,,,,,,,,,,,,169088.12999998918,169086.47999999812,153724.481,153731.42999998527,153741.172,169105.117,,,
Holding screen,html.Screen,1_3_0_0,2021-03-28T22:15:24.440Z,,,,,,,,,,,,,,,,,,,,,,,,,,,,,,7006.347999999998,timeout,,,,,,,,,,,,,,,,,,,,176096.59500000998,176094.964,169071.798,169089.4800000242,169105.117,176111.465,,,
screen,html.Screen,1_3_0_1_0,2021-03-28T22:15:25.259Z,,,,,,,,,,,,,,,,48,,,,,,,,,,,,,,802.0250000062806,response,,,,10,B,,,,,Space,keypress(Space),,,,lyrical,,,,As -- --- ------ ------- --------- ----------- --------<br>--------- -------- --- ------- -- ------- ---- -- ------<br>-- --- -------- -------- ---------- ---- ---- ---- ------<br>-- --------- -- ---- -- --- -- --- ------- -- - -----<br>---------- -- -- -- ---- ----- -- ------ -- --- ------<br>-------,176915.77000002144,176913.49000000628,176094.964,176097.29499998502,176111.465,176929.085,,0,As
screen,html.Screen,1_3_0_1_1,2021-03-28T22:15:25.676Z,,,,,,,,,,,,,,,,48,,,,,,,,,,,,,,401.4350000177219,response,,,,10,B,,,,,Space,keypress(Space),,,,lyrical,,,,-- in --- ------ ------- --------- ----------- --------<br>--------- -------- --- ------- -- ------- ---- -- ------<br>-- --- -------- -------- ---------- ---- ---- ---- ------<br>-- --------- -- ---- -- --- -- --- ------- -- - -----<br>---------- -- -- -- ---- ----- -- ------ -- --- ------<br>-------,177332.1499999729,177330.5200000177,176912.363,176916.5449999855,176929.085,177346.015,,1,in
screen,html.Screen,1_3_0_1_2,2021-03-28T22:15:25.892Z,,,,,,,,,,,,,,,,48,,,,,,,,,,,,,,201.52999997942243,response,,,,10,B,,,,,Space,keypress(Space),,,,lyrical,,,,-- -- the ------ ------- --------- ----------- --------<br>--------- -------- --- ------- -- ------- ---- -- ------<br>-- --- -------- -------- ---------- ---- ---- ---- ------<br>-- --------- -- ---- -- --- -- --- ------- -- - -----<br>---------- -- -- -- ---- ----- -- ------ -- --- ------<br>-------,177548.53999998886,177547.54499997944,177329.48,177332.6399999787,177346.015,177562.832,,2,the
screen,html.Screen,1_3_0_1_3,2021-03-28T22:15:26.161Z,,,,,,,,,,,,,,,,48,,,,,,,,,,,,,,252.6629999880097,response,,,,10,B,,,,,Space,keypress(Space),,,,lyrical,,,,-- -- --- United ------- --------- ----------- --------<br>--------- -------- --- ------- -- ------- ---- -- ------<br>-- --- -------- -------- ---------- ---- ---- ---- ------<br>-- --------- -- ---- -- --- -- --- ------- -- - -----<br>---------- -- -- -- ---- ----- -- ------ -- --- ------<br>-------,177817.25500000175,177815.494999988,177546.306,177548.76999999397,177562.832,177829.834,,3,United
screen,html.Screen,1_3_0_1_4,2021-03-28T22:15:26.404Z,,,,,,,,,,,,,,,,48,,,,,,,,,,,,,,228.995999994484,response,,,,10,B,,,,,Space,keypress(Space),,,,lyrical,,,,"-- -- --- ------ States, --------- ----------- --------<br>--------- -------- --- ------- -- ------- ---- -- ------<br>-- --- -------- -------- ---------- ---- ---- ---- ------<br>-- --------- -- ---- -- --- -- --- ------- -- - -----<br>---------- -- -- -- ---- ----- -- ------ -- --- ------<br>-------",178060.70999999065,178058.8299999945,177813.096,177817.73499998963,177829.834,178087.788,,4,"States,"
screen,html.Screen,1_3_0_1_5,2021-03-28T22:15:26.607Z,,,,,,,,,,,,,,,,48,,,,,,,,,,,,,,173.5670000241953,response,,,,10,B,,,,,Space,keypress(Space),,,,lyrical,,,,-- -- --- ------ ------- Colombian ----------- --------<br>--------- -------- --- ------- -- ------- ---- -- ------<br>-- --- -------- -------- ---------- ---- ---- ---- ------<br>-- --------- -- ---- -- --- -- --- ------- -- - -----<br>---------- -- -- -- ---- ----- -- ------ -- --- ------<br>-------,178262.84999999916,178261.3550000242,178046.79,178061.34499999462,178087.788,178280.292,,5,Colombian
screen,html.Screen,1_3_0_1_6,2021-03-28T22:15:27.026Z,,,,,,,,,,,,,,,,48,,,,,,,,,,,,,,400.2129999966419,response,,,,10,B,,,,,Space,keypress(Space),,,,lyrical,,,,-- -- --- ------ ------- --------- legislation --------<br>--------- -------- --- ------- -- ------- ---- -- ------<br>-- --- -------- -------- ---------- ---- ---- ---- ------<br>-- --------- -- ---- -- --- -- --- ------- -- - -----<br>---------- -- -- -- ---- ----- -- ------ -- --- ------<br>-------,178682.5049999752,178680.50499999663,178263.646,178263.35500000278,178280.292,178697.13,,6,legislation
screen,html.Screen,1_3_0_1_7,2021-03-28T22:15:27.422Z,,,,,,,,,,,,,,,,48,,,,,,,,,,,,,,379.5150000228314,response,,,,10,B,,,,,Space,keypress(Space),,,,lyrical,,,,-- -- --- ------ ------- --------- ----------- requires<br>--------- -------- --- ------- -- ------- ---- -- ------<br>-- --- -------- -------- ---------- ---- ---- ---- ------<br>-- --------- -- ---- -- --- -- --- ------- -- - -----<br>---------- -- -- -- ---- ----- -- ------ -- --- ------<br>-------,179078.2299999846,179076.64500002284,178680.645,178682.99000000115,178697.13,179080.863,,7,requires
screen,html.Screen,1_3_0_1_8,2021-03-28T22:15:27.887Z,,,,,,,,,,,,,,,,48,,,,,,,,,,,,,,460.6470000100089,response,,,,10,B,,,,,Space,keypress(Space),,,,lyrical,,,,-- -- --- ------ ------- --------- ----------- --------<br>travelers -------- --- ------- -- ------- ---- -- ------<br>-- --- -------- -------- ---------- ---- ---- ---- ------<br>-- --------- -- ---- -- --- -- --- ------- -- - -----<br>---------- -- -- -- ---- ----- -- ------ -- --- ------<br>-------,179543.21500001242,179541.51000001002,179064.212,179078.70499999262,179080.863,179547.943,,8,travelers
screen,html.Screen,1_3_0_1_9,2021-03-28T22:15:28.242Z,,,,,,,,,,,,,,,,48,,,,,,,,,,,,,,349.3270000158518,response,,,,10,B,,,,,Space,keypress(Space),,,,lyrical,,,,-- -- --- ------ ------- --------- ----------- --------<br>--------- entering --- ------- -- ------- ---- -- ------<br>-- --- -------- -------- ---------- ---- ---- ---- ------<br>-- --------- -- ---- -- --- -- --- ------- -- - -----<br>---------- -- -- -- ---- ----- -- ------ -- --- ------<br>-------,179898.39499996742,179897.27000001585,179531.322,179543.73500001384,179547.943,179915.002,,9,entering
screen,html.Screen,1_3_0_1_10,2021-03-28T22:15:28.526Z,,,,,,,,,,,,,,,,48,,,,,,,,,,,,,,264.89799998825765,response,,,,10,B,,,,,Space,keypress(Space),,,,lyrical,,,,-- -- --- ------ ------- --------- ----------- --------<br>--------- -------- the ------- -- ------- ---- -- ------<br>-- --- -------- -------- ---------- ---- ---- ---- ------<br>-- --------- -- ---- -- --- -- --- ------- -- - -----<br>---------- -- -- -- ---- ----- -- ------ -- --- ------<br>-------,180182.25000001257,180179.89999998827,179898.547,179898.67000002414,179915.002,180198.558,,10,the
screen,html.Screen,1_3_0_1_11,2021-03-28T22:15:28.765Z,,,,,,,,,,,,,,,,48,,,,,,,,,,,,,,221.06699998045224,response,,,,10,B,,,,,Space,keypress(Space),,,,lyrical,,,,-- -- --- ------ ------- --------- ----------- --------<br>--------- -------- --- country -- ------- ---- -- ------<br>-- --- -------- -------- ---------- ---- ---- ---- ------<br>-- --------- -- ---- -- --- -- --- ------- -- - -----<br>---------- -- -- -- ---- ----- -- ------ -- --- ------<br>-------,180421.5049999766,180419.62499998044,180182.078,180182.80499998946,180198.558,180432.158,,11,country
screen,html.Screen,1_3_0_1_12,2021-03-28T22:15:29.032Z,,,,,,,,,,,,,,,,48,,,,,,,,,,,,,,254.8869999696617,response,,,,10,B,,,,,Space,keypress(Space),,,,lyrical,,,,-- -- --- ------ ------- --------- ----------- --------<br>--------- -------- --- ------- to ------- ---- -- ------<br>-- --- -------- -------- ---------- ---- ---- ---- ------<br>-- --------- -- ---- -- --- -- --- ------- -- - -----<br>---------- -- -- -- ---- ----- -- ------ -- --- ------<br>-------,180688.71000001673,180687.04499996966,180415.512,180422.02499997802,180432.158,180698.966,,12,to
screen,html.Screen,1_3_0_1_13,2021-03-28T22:15:29.298Z,,,,,,,,,,,,,,,,48,,,,,,,,,,,,,,254.26900002270122,response,,,,10,B,,,,,Space,keypress(Space),,,,lyrical,,,,-- -- --- ------ ------- --------- ----------- --------<br>--------- -------- --- ------- -- declare ---- -- ------<br>-- --- -------- -------- ---------- ---- ---- ---- ------<br>-- --------- -- ---- -- --- -- --- ------- -- - -----<br>---------- -- -- -- ---- ----- -- ------ -- --- ------<br>-------,180954.1999999783,180953.2350000227,180682.496,180689.29499998922,180698.966,180965.89,,13,declare
screen,html.Screen,1_3_0_1_14,2021-03-28T22:15:29.652Z,,,,,,,,,,,,,,,,48,,,,,,,,,,,,,,340.8449999910081,response,,,,10,B,,,,,Space,keypress(Space),,,,lyrical,,,,-- -- --- ------ ------- --------- ----------- --------<br>--------- -------- --- ------- -- ------- cash -- ------<br>-- --- -------- -------- ---------- ---- ---- ---- ------<br>-- --------- -- ---- -- --- -- --- ------- -- - -----<br>---------- -- -- -- ---- ----- -- ------ -- --- ------<br>-------,181308.5200000205,181306.73499999102,180949.456,180954.41000000574,180965.89,181316.253,,14,cash
screen,html.Screen,1_3_0_1_15,2021-03-28T22:15:29.942Z,,,,,,,,,,,,,,,,48,,,,,,,,,,,,,,280.18699999389355,response,,,,10,B,,,,,Space,keypress(Space),,,,lyrical,,,,-- -- --- ------ ------- --------- ----------- --------<br>--------- -------- --- ------- -- ------- ---- in ------<br>-- --- -------- -------- ---------- ---- ---- ---- ------<br>-- --------- -- ---- -- --- -- --- ------- -- - -----<br>---------- -- -- -- ---- ----- -- ------ -- --- ------<br>-------,181598.0649999692,181596.4399999939,181299.545,181309.00499998825,181316.253,181633.301,,15,in
screen,html.Screen,1_3_0_1_16,2021-03-28T22:15:30.222Z,,,,,,,,,,,,,,,,48,,,,,,,,,,,,,,243.55900001848931,response,,,,10,B,,,,,Space,keypress(Space),,,,lyrical,,,,-- -- --- ------ ------- --------- ----------- --------<br>--------- -------- --- ------- -- ------- ---- -- excess<br>-- --- -------- -------- ---------- ---- ---- ---- ------<br>-- --------- -- ---- -- --- -- --- ------- -- - -----<br>---------- -- -- -- ---- ----- -- ------ -- --- ------<br>-------,181878.59999999637,181876.8600000185,181622.32,181598.53999997722,181633.301,181883.481,,16,excess
screen,html.Screen,1_3_0_1_17,2021-03-28T22:15:30.718Z,,,,,,,,,,,,,,,,48,,,,,,,,,,,,,,489.5139999833482,response,,,,10,B,,,,,Space,keypress(Space),,,,lyrical,,,,-- -- --- ------ ------- --------- ----------- --------<br>--------- -------- --- ------- -- ------- ---- -- ------<br>of --- -------- -------- ---------- ---- ---- ---- ------<br>-- --------- -- ---- -- --- -- --- ------- -- - -----<br>---------- -- -- -- ---- ----- -- ------ -- --- ------<br>-------,182374.6950000059,182372.99499998335,181866.909,181879.09000000218,181883.481,182383.809,,17,of
screen,html.Screen,1_3_0_1_18,2021-03-28T22:15:31.070Z,,,,,,,,,,,,,,,,48,,,,,,,,,,,,,,341.1759999789065,response,,,,10,B,,,,,Space,keypress(Space),,,,lyrical,,,,-- -- --- ------ ------- --------- ----------- --------<br>--------- -------- --- ------- -- ------- ---- -- ------<br>-- ten -------- -------- ---------- ---- ---- ---- ------<br>-- --------- -- ---- -- --- -- --- ------- -- - -----<br>---------- -- -- -- ---- ----- -- ------ -- --- ------<br>-------,182726.64000000805,182724.98499997891,182367.434,182375.19499997143,182383.809,182734.286,,18,ten
screen,html.Screen,1_3_0_1_19,2021-03-28T22:15:31.373Z,,,,,,,,,,,,,,,,48,,,,,,,,,,,,,,293.9540000142006,response,,,,10,B,,,,,Space,keypress(Space),,,,lyrical,,,,-- -- --- ------ ------- --------- ----------- --------<br>--------- -------- --- ------- -- ------- ---- -- ------<br>-- --- thousand -------- ---------- ---- ---- ---- ------<br>-- --------- -- ---- -- --- -- --- ------- -- - -----<br>---------- -- -- -- ---- ----- -- ------ -- --- ------<br>-------,183029.915000021,183028.2400000142,182717.72,182727.11999999592,182734.286,183034.492,,19,thousand
screen,html.Screen,1_3_0_1_20,2021-03-28T22:15:31.656Z,,,,,,,,,,,,,,,,48,,,,,,,,,,,,,,277.20299998213886,response,,,,10,B,,,,,Space,keypress(Space),,,,lyrical,,,,-- -- --- ------ ------- --------- ----------- --------<br>--------- -------- --- ------- -- ------- ---- -- ------<br>-- --- -------- dollars. ---------- ---- ---- ---- ------<br>-- --------- -- ---- -- --- -- --- ------- -- - -----<br>---------- -- -- -- ---- ----- -- ------ -- --- ------<br>-------,183312.66499997582,183311.69499998214,183017.852,183030.44499998214,183034.492,183317.991,,20,dollars.
screen,html.Screen,1_3_0_1_21,2021-03-28T22:15:32.041Z,,,,,,,,,,,,,,,,48,,,,,,,,,,,,,,377.85900001824484,response,,,,10,B,,,,,Space,keypress(Space),,,,lyrical,,,,-- -- --- ------ ------- --------- ----------- --------<br>--------- -------- --- ------- -- ------- ---- -- ------<br>-- --- -------- -------- Concealing ---- ---- ---- ------<br>-- --------- -- ---- -- --- -- --- ------- -- - -----<br>---------- -- -- -- ---- ----- -- ------ -- --- ------<br>-------,183697.51500000712,183695.85000001825,183301.549,183312.90499999886,183317.991,183701.806,,21,Concealing
screen,html.Screen,1_3_0_1_22,2021-03-28T22:15:32.338Z,,,,,,,,,,,,,,,,48,,,,,,,,,,,,,,290.5290000171808,response,,,,10,B,,,,,Space,keypress(Space),,,,lyrical,,,,-- -- --- ------ ------- --------- ----------- --------<br>--------- -------- --- ------- -- ------- ---- -- ------<br>-- --- -------- -------- ---------- more ---- ---- ------<br>-- --------- -- ---- -- --- -- --- ------- -- - -----<br>---------- -- -- -- ---- ----- -- ------ -- --- ------<br>-------,183994.13499998627,183992.3350000172,183685.141,183698.01499997266,183701.806,184001.948,,22,more
screen,html.Screen,1_3_0_1_23,2021-03-28T22:15:32.583Z,,,,,,,,,,,,,,,,48,,,,,,,,,,,,,,235.44700000373996,response,,,,10,B,,,,,Space,keypress(Space),,,,lyrical,,,,-- -- --- ------ ------- --------- ----------- --------<br>--------- -------- --- ------- -- ------- ---- -- ------<br>-- --- -------- -------- ---------- ---- than ---- ------<br>-- --------- -- ---- -- --- -- --- ------- -- - -----<br>---------- -- -- -- ---- ----- -- ------ -- --- ------<br>-------,184239.11000002408,184237.39500000374,183985.481,183994.59999997634,184001.948,184252.181,,23,than
screen,html.Screen,1_3_0_1_24,2021-03-28T22:15:32.818Z,,,,,,,,,,,,,,,,48,,,,,,,,,,,,,,220.5189999838767,response,,,,10,B,,,,,Space,keypress(Space),,,,lyrical,,,,-- -- --- ------ ------- --------- ----------- --------<br>--------- -------- --- ------- -- ------- ---- -- ------<br>-- --- -------- -------- ---------- ---- ---- that ------<br>-- --------- -- ---- -- --- -- --- ------- -- - -----<br>---------- -- -- -- ---- ----- -- ------ -- --- ------<br>-------,184474.45500001777,184472.6999999839,184235.699,184239.70999999437,184252.181,184485.765,,24,that
screen,html.Screen,1_3_0_1_25,2021-03-28T22:15:33.027Z,,,,,,,,,,,,,,,,48,,,,,,,,,,,,,,195.38999999838416,response,,,,10,B,,,,,Space,keypress(Space),,,,lyrical,,,,-- -- --- ------ ------- --------- ----------- --------<br>--------- -------- --- ------- -- ------- ---- -- ------<br>-- --- -------- -------- ---------- ---- ---- ---- amount<br>-- --------- -- ---- -- --- -- --- ------- -- - -----<br>---------- -- -- -- ---- ----- -- ------ -- --- ------<br>-------,184683.12499998137,184681.1549999984,184469.292,184474.9399999855,184485.765,184685.904,,25,amount
screen,html.Screen,1_3_0_1_26,2021-03-28T22:15:33.274Z,,,,,,,,,,,,,,,,48,,,,,,,,,,,,,,242.38099997266545,response,,,,10,B,,,,,Space,keypress(Space),,,,lyrical,,,,-- -- --- ------ ------- --------- ----------- --------<br>--------- -------- --- ------- -- ------- ---- -- ------<br>-- --- -------- -------- ---------- ---- ---- ---- ------<br>to --------- -- ---- -- --- -- --- ------- -- - -----<br>---------- -- -- -- ---- ----- -- ------ -- --- ------<br>-------,184930.18000002485,184928.28499997267,184669.292,184683.704999974,184685.904,184936.214,,26,to
screen,html.Screen,1_3_0_1_27,2021-03-28T22:15:33.499Z,,,,,,,,,,,,,,,,48,,,,,,,,,,,,,,217.18099997207173,response,,,,10,B,,,,,Space,keypress(Space),,,,lyrical,,,,-- -- --- ------ ------- --------- ----------- --------<br>--------- -------- --- ------- -- ------- ---- -- ------<br>-- --- -------- -------- ---------- ---- ---- ---- ------<br>-- transport -- ---- -- --- -- --- ------- -- - -----<br>---------- -- -- -- ---- ----- -- ------ -- --- ------<br>-------,185155.30500002205,185153.39499997208,184919.68,184930.73000002187,184936.214,185169.783,,27,transport
screen,html.Screen,1_3_0_1_28,2021-03-28T22:15:33.710Z,,,,,,,,,,,,,,,,48,,,,,,,,,,,,,,195.03700001706602,response,,,,10,B,,,,,Space,keypress(Space),,,,lyrical,,,,-- -- --- ------ ------- --------- ----------- --------<br>--------- -------- --- ------- -- ------- ---- -- ------<br>-- --- -------- -------- ---------- ---- ---- ---- ------<br>-- --------- it ---- -- --- -- --- ------- -- - -----<br>---------- -- -- -- ---- ----- -- ------ -- --- ------<br>-------,185366.31000001216,185364.82000001706,185153.109,185155.7899999898,185169.783,185369.946,,28,it
screen,html.Screen,1_3_0_1_29,2021-03-28T22:15:33.911Z,,,,,,,,,,,,,,,,48,,,,,,,,,,,,,,195.9340000092052,response,,,,10,B,,,,,Space,keypress(Space),,,,lyrical,,,,-- -- --- ------ ------- --------- ----------- --------<br>--------- -------- --- ------- -- ------- ---- -- ------<br>-- --- -------- -------- ---------- ---- ---- ---- ------<br>-- --------- -- into -- --- -- --- ------- -- - -----<br>---------- -- -- -- ---- ----- -- ------ -- --- ------<br>-------,185567.555000016,185565.8800000092,185353.328,185366.75500002457,185369.946,185570.123,,29,into
screen,html.Screen,1_3_0_1_30,2021-03-28T22:15:34.104Z,,,,,,,,,,,,,,,,48,,,,,,,,,,,,,,188.53200001237565,response,,,,10,B,,,,,Space,keypress(Space),,,,lyrical,,,,-- -- --- ------ ------- --------- ----------- --------<br>--------- -------- --- ------- -- ------- ---- -- ------<br>-- --- -------- -------- ---------- ---- ---- ---- ------<br>-- --------- -- ---- or --- -- --- ------- -- - -----<br>---------- -- -- -- ---- ----- -- ------ -- --- ------<br>-------,185760.569999984,185758.65500001237,185553.613,185568.08499997715,185570.123,185770.414,,30,or
screen,html.Screen,1_3_0_1_31,2021-03-28T22:15:34.317Z,,,,,,,,,,,,,,,,48,,,,,,,,,,,,,,200.36599997419398,response,,,,10,B,,,,,Space,keypress(Space),,,,lyrical,,,,-- -- --- ------ ------- --------- ----------- --------<br>--------- -------- --- ------- -- ------- ---- -- ------<br>-- --- -------- -------- ---------- ---- ---- ---- ------<br>-- --------- -- ---- -- out -- --- ------- -- - -----<br>---------- -- -- -- ---- ----- -- ------ -- --- ------<br>-------,185972.98500000034,185970.77999997418,185753.608,185761.044999992,185770.414,185987.166,,31,out
screen,html.Screen,1_3_0_1_32,2021-03-28T22:15:34.511Z,,,,,,,,,,,,,,,,48,,,,,,,,,,,,,,178.71900002399343,response,,,,10,B,,,,,Space,keypress(Space),,,,lyrical,,,,-- -- --- ------ ------- --------- ----------- --------<br>--------- -------- --- ------- -- ------- ---- -- ------<br>-- --- -------- -------- ---------- ---- ---- ---- ------<br>-- --------- -- ---- -- --- of --- ------- -- - -----<br>---------- -- -- -- ---- ----- -- ------ -- --- ------<br>-------,186167.66999999527,186165.885000024,185970.66,185973.4949999838,185987.166,186170.596,,32,of
screen,html.Screen,1_3_0_1_33,2021-03-28T22:15:34.712Z,,,,,,,,,,,,,,,,48,,,,,,,,,,,,,,196.2539999912551,response,,,,10,B,,,,,Space,keypress(Space),,,,lyrical,,,,-- -- --- ------ ------- --------- ----------- --------<br>--------- -------- --- ------- -- ------- ---- -- ------<br>-- --- -------- -------- ---------- ---- ---- ---- ------<br>-- --------- -- ---- -- --- -- the ------- -- - -----<br>---------- -- -- -- ---- ----- -- ------ -- --- ------<br>-------,186368.49500000244,186366.84999999125,186154.079,186168.16499998095,186170.596,186401.735,,33,the
screen,html.Screen,1_3_0_1_34,2021-03-28T22:15:34.898Z,,,,,,,,,,,,,,,,48,,,,,,,,,,,,,,148.58499998028856,response,,,,10,B,,,,,Space,keypress(Space),,,,lyrical,,,,-- -- --- ------ ------- --------- ----------- --------<br>--------- -------- --- ------- -- ------- ---- -- ------<br>-- --- -------- -------- ---------- ---- ---- ---- ------<br>-- --------- -- ---- -- --- -- --- country -- - -----<br>---------- -- -- -- ---- ----- -- ------ -- --- ------<br>-------,186554.7249999945,186550.31999998027,186354.331,186368.98500000825,186401.735,186570.984,,34,country
screen,html.Screen,1_3_0_1_35,2021-03-28T22:15:35.117Z,,,,,,,,,,,,,,,,48,,,,,,,,,,,,,,201.09099998621969,response,,,,10,B,,,,,Space,keypress(Space),,,,lyrical,,,,-- -- --- ------ ------- --------- ----------- --------<br>--------- -------- --- ------- -- ------- ---- -- ------<br>-- --- -------- -------- ---------- ---- ---- ---- ------<br>-- --------- -- ---- -- --- -- --- ------- is - -----<br>---------- -- -- -- ---- ----- -- ------ -- --- ------<br>-------,186772.9699999909,186772.07499998622,186554.402,186555.2949999692,186570.984,186788.137,,35,is
screen,html.Screen,1_3_0_1_36,2021-03-28T22:15:35.342Z,,,,,,,,,,,,,,,,48,,,,,,,,,,,,,,208.8980000076117,response,,,,10,B,,,,,Space,keypress(Space),,,,lyrical,,,,-- -- --- ------ ------- --------- ----------- --------<br>--------- -------- --- ------- -- ------- ---- -- ------<br>-- --- -------- -------- ---------- ---- ---- ---- ------<br>-- --------- -- ---- -- --- -- --- ------- -- a -----<br>---------- -- -- -- ---- ----- -- ------ -- --- ------<br>-------,186998.70499997633,186997.0350000076,186771.208,186773.17499998026,186788.137,187004.808,,36,a
screen,html.Screen,1_3_0_1_37,2021-03-28T22:15:35.543Z,,,,,,,,,,,,,,,,48,,,,,,,,,,,,,,193.1670000173326,response,,,,10,B,,,,,Space,keypress(Space),,,,lyrical,,,,-- -- --- ------ ------- --------- ----------- --------<br>--------- -------- --- ------- -- ------- ---- -- ------<br>-- --- -------- -------- ---------- ---- ---- ---- ------<br>-- --------- -- ---- -- --- -- --- ------- -- - crime<br>---------- -- -- -- ---- ----- -- ------ -- --- ------<br>-------,187199.65000002412,187197.97500001732,186988.12,186999.22499997774,187004.808,187204.954,,37,crime
screen,html.Screen,1_3_0_1_38,2021-03-28T22:15:35.774Z,,,,,,,,,,,,,,,,48,,,,,,,,,,,,,,223.72600001181127,response,,,,10,B,,,,,Space,keypress(Space),,,,lyrical,,,,-- -- --- ------ ------- --------- ----------- --------<br>--------- -------- --- ------- -- ------- ---- -- ------<br>-- --- -------- -------- ---------- ---- ---- ---- ------<br>-- --------- -- ---- -- --- -- --- ------- -- - -----<br>punishable -- -- -- ---- ----- -- ------ -- --- ------<br>-------,187430.74999999953,187428.6800000118,187188.417,187200.18500002334,187204.954,187438.43,,38,punishable
screen,html.Screen,1_3_0_1_39,2021-03-28T22:15:35.985Z,,,,,,,,,,,,,,,,48,,,,,,,,,,,,,,200.44999998406274,response,,,,10,B,,,,,Space,keypress(Space),,,,lyrical,,,,-- -- --- ------ ------- --------- ----------- --------<br>--------- -------- --- ------- -- ------- ---- -- ------<br>-- --- -------- -------- ---------- ---- ---- ---- ------<br>-- --------- -- ---- -- --- -- --- ------- -- - -----<br>---------- by -- -- ---- ----- -- ------ -- --- ------<br>-------,187641.1150000058,187638.87999998406,187421.889,187431.22500000754,187438.43,187655.344,,39,by
screen,html.Screen,1_3_0_1_40,2021-03-28T22:15:36.191Z,,,,,,,,,,,,,,,,48,,,,,,,,,,,,,,191.57599998175283,response,,,,10,B,,,,,Space,keypress(Space),,,,lyrical,,,,-- -- --- ------ ------- --------- ----------- --------<br>--------- -------- --- ------- -- ------- ---- -- ------<br>-- --- -------- -------- ---------- ---- ---- ---- ------<br>-- --------- -- ---- -- --- -- --- ------- -- - -----<br>---------- -- up -- ---- ----- -- ------ -- --- ------<br>-------,187847.88999997545,187846.91999998176,187638.82,187641.69000001857,187655.344,187855.459,,40,up
screen,html.Screen,1_3_0_1_41,2021-03-28T22:15:36.376Z,,,,,,,,,,,,,,,,48,,,,,,,,,,,,,,173.98100001298008,response,,,,10,B,,,,,Space,keypress(Space),,,,lyrical,,,,-- -- --- ------ ------- --------- ----------- --------<br>--------- -------- --- ------- -- ------- ---- -- ------<br>-- --- -------- -------- ---------- ---- ---- ---- ------<br>-- --------- -- ---- -- --- -- --- ------- -- - -----<br>---------- -- -- to ---- ----- -- ------ -- --- ------<br>-------,188032.31500001857,188029.44000001298,187838.969,187848.1150000007,187855.459,188039.005,,41,to
screen,html.Screen,1_3_0_1_42,2021-03-28T22:15:36.586Z,,,,,,,,,,,,,,,,48,,,,,,,,,,,,,,201.82500002428424,response,,,,10,B,,,,,Space,keypress(Space),,,,lyrical,,,,-- -- --- ------ ------- --------- ----------- --------<br>--------- -------- --- ------- -- ------- ---- -- ------<br>-- --- -------- -------- ---------- ---- ---- ---- ------<br>-- --------- -- ---- -- --- -- --- ------- -- - -----<br>---------- -- -- -- five ----- -- ------ -- --- ------<br>-------,188242.46500001755,188240.8300000243,188022.463,188032.8149999841,188039.005,188255.911,,42,five
screen,html.Screen,1_3_0_1_43,2021-03-28T22:15:36.788Z,,,,,,,,,,,,,,,,48,,,,,,,,,,,,,,187.29899999764166,response,,,,10,B,,,,,Space,keypress(Space),,,,lyrical,,,,-- -- --- ------ ------- --------- ----------- --------<br>--------- -------- --- ------- -- ------- ---- -- ------<br>-- --- -------- -------- ---------- ---- ---- ---- ------<br>-- --------- -- ---- -- --- -- --- ------- -- - -----<br>---------- -- -- -- ---- years -- ------ -- --- ------<br>-------,188444.8299999931,188443.20999999763,188239.298,188242.95500002336,188255.911,188456.059,,43,years
