sender,sender_type,sender_id,timestamp,meta,,Blues,Classical,Country,Dance,Electronic,Folk,Gospel,Hip-Hop,Jazz,Latin,Musical/Film,New-age,Pop,Provo_ID,R&B,Rap,Reggae,Religious,Rock,Soul,Swing,Traditional,age,artist_name,correct,correctResponse,distraction,duration,ended_on,familiarity,gender,headphone_check_performance,item,list,offensiveness,pleasantness,position_correct,preference,response,response_action,snippet_file,song_name,song_rating,sound,stimulus_1,stimulus_2,stimulus_3,text,time_commit,time_end,time_render,time_run,time_show,time_switch,url,word,word_ID
Introduction,html.Screen,0_0,2021-03-25T15:15:13.079Z,"{""labjs_version"":""20.2.2"",""labjs_build"":{""flavor"":""production"",""commit"":""a25486e0c714a0ae2ce03ff94b7bb6896854dcfa""},""location"":""https://run.pavlovia.org/mvasilev/music_a/"",""userAgent"":""Mozilla/5.0 (Macintosh; Intel Mac OS X 10_15_6) AppleWebKit/605.1.15 (KHTML, like Gecko) Version/14.0.3 Safari/605.1.15"",""platform"":""MacIntel"",""language"":""en-gb"",""locale"":""en-GB"",""timeZone"":""Europe/London"",""timezoneOffset"":0,""screen_width"":1440,""screen_height"":900,""scroll_width"":1440,""scroll_height"":772,""window_innerWidth"":1440,""window_innerHeight"":820,""devicePixelRatio"":2}",,,,,,,,,,,,,,,,,,,,,,,,,,,,,7132,response,,,,,,,,,,continue,click button,,,,,,,,,12982.000000000002,12628,5496,5469,5515,13010,{},,
Volume calibration,html.Screen,0_1,2021-03-25T15:15:38.766Z,,,,,,,,,,,,,,,,,,,,,,,,,,,,,,25668,response,,,,,,,,,,continue,click button,,,,,,,,,38668,38662,12994,12983,13010,38693,,,
Task instructions,html.Screen,0_2,2021-03-25T15:16:06.025Z,,,,,,,,,,,,,,,,,,,,,,,,,,,,,,27247,response,,,,,,,,,,continue,click button,,,,,,,,,65928,65923,38676,38669.00000000001,38693,65960,,,
Sounds,html.Screen,0_3_0_0,2021-03-25T15:16:10.294Z,,,,,,,,,,,,,,,,,,,,,,,,,,,,,,4253,timeout,,,,,,,,2,,,,,,,,O,S,I,,70197,70196,65945,65929,65960,70213,,,
Judgement,html.Screen,0_3_0_1,2021-03-25T15:16:15.911Z,,,,,,,,,,,,,,,,,,,,,,,,,,,false,2,,5614,response,,,,,,,,2,,3,click #choice-3,,,,,O,S,I,,75814,75810,70196,70197,70213,75836,,,
Trial,flow.Sequence,0_3_0,2021-03-25T15:16:15.912Z,,,,,,,,,,,,,,,,,,,,,,,,,,,,,,9850,completion,,,,,,,,2,,,,,,,,O,S,I,,75814,75810,65945,65929,65960,75836,,,
Sounds,html.Screen,0_3_1_0,2021-03-25T15:16:20.172Z,,,,,,,,,,,,,,,,,,,,,,,,,,,,,,4254,timeout,,,,,,,,1,,,,,,,,S,O,I,,80074,80074,75819,75814,75836,80090,,,
Judgement,html.Screen,0_3_1_1,2021-03-25T15:16:21.118Z,,,,,,,,,,,,,,,,,,,,,,,,,,,true,1,,942,response,,,,,,,,1,,1,click #choice-1,,,,,S,O,I,,81021,81016,80074,80074,80090,81047,,,
Trial,flow.Sequence,0_3_1,2021-03-25T15:16:21.119Z,,,,,,,,,,,,,,,,,,,,,,,,,,,,,,5180,completion,,,,,,,,1,,,,,,,,S,O,I,,81021,81016,75819,75814,75836,81047,,,
Sounds,html.Screen,0_3_2_0,2021-03-25T15:16:25.383Z,,,,,,,,,,,,,,,,,,,,,,,,,,,,,,4254,timeout,,,,,,,,2,,,,,,,,I,S,O,,85285,85285,81029,81022,81047,85301,,,
Judgement,html.Screen,0_3_2_1,2021-03-25T15:16:25.937Z,,,,,,,,,,,,,,,,,,,,,,,,,,,true,2,,550.0000000000146,response,,,,,,,,2,,2,click #choice-2,,,,,I,S,O,,85839,85835.00000000001,85285,85286,85301,85860,,,
Trial,flow.Sequence,0_3_2,2021-03-25T15:16:25.937Z,,,,,,,,,,,,,,,,,,,,,,,,,,,,,,4788.000000000015,completion,,,,,,,,2,,,,,,,,I,S,O,,85839,85835.00000000001,81029,81022,81047,85860,,,
Sounds,html.Screen,0_3_3_0,2021-03-25T15:16:30.196Z,,,,,,,,,,,,,,,,,,,,,,,,,,,,,,4256,timeout,,,,,,,,1,,,,,,,,S,I,O,,90099,90098,85844,85840,85860,90116,,,
Judgement,html.Screen,0_3_3_1,2021-03-25T15:16:30.784Z,,,,,,,,,,,,,,,,,,,,,,,,,,,true,1,,582,response,,,,,,,,1,,1,click #choice-1,,,,,S,I,O,,90687,90680,90098,90099,90116,90708,,,
Trial,flow.Sequence,0_3_3,2021-03-25T15:16:30.784Z,,,,,,,,,,,,,,,,,,,,,,,,,,,,,,4820,completion,,,,,,,,1,,,,,,,,S,I,O,,90687,90680,85844,85840,85860,90708,,,
Sounds,html.Screen,0_3_4_0,2021-03-25T15:16:35.037Z,,,,,,,,,,,,,,,,,,,,,,,,,,,,,,4248,timeout,,,,,,,,3,,,,,,,,I,O,S,,94940,94940,90692,90687,90708,94956,,,
Judgement,html.Screen,0_3_4_1,2021-03-25T15:16:35.566Z,,,,,,,,,,,,,,,,,,,,,,,,,,,true,3,,524,response,,,,,,,,3,,3,click #choice-3,,,,,I,O,S,,95468,95464,94940,94940,94956,95501,,,
Trial,flow.Sequence,0_3_4,2021-03-25T15:16:35.566Z,,,,,,,,,,,,,,,,,,,,,,,,,,,,,,4756,completion,,,,,,,,3,,,,,,,,I,O,S,,95469.00000000001,95464,90692,90687,90708,95501,,,
Sounds,html.Screen,0_3_5_0,2021-03-25T15:16:39.824Z,,,,,,,,,,,,,,,,,,,,,,,,,,,,,,4242,timeout,,,,,,,,3,,,,,,,,O,I,S,,99726,99726,95485,95469.00000000001,95501,99743,,,
Judgement,html.Screen,0_3_5_1,2021-03-25T15:16:40.337Z,,,,,,,,,,,,,,,,,,,,,,,,,,,true,3,,509,response,,,,,,,,3,,3,click #choice-3,,,,,O,I,S,,100239,100235,99726,99727,99743,100269,,,
Trial,flow.Sequence,0_3_5,2021-03-25T15:16:40.337Z,,,,,,,,,,,,,,,,,,,,,,,,,,,,,,4734,completion,,,,,,,,3,,,,,,,,O,I,S,,100239,100235,95485,95469.00000000001,95501,100269,,,
Task,flow.Loop,0_3,2021-03-25T15:16:40.339Z,,,,,,,,,,,,,,,,,,,,,,,,,,,,,,34275,completion,,,0.8333333333333334,,,,,,,,,,,,,,,,,100242,100235,65945,65929,65960,100269,,,
Trap,html.Screen,0_4,2021-03-25T15:16:40.340Z,,,,,,,,,,,,,,,,,,,,,,,,,,,,,,NaN,skipped,,,,,,,,,,,,,,,,,,,,100243,100235,,100243,,100269,,,
Thanks,html.Screen,0_5,2021-03-25T15:16:45.559Z,,,,,,,,,,,,,,,,,,,,,,,,,,,,,,5205,response,,,,,,,,,,continue,click button,,,,,,,,,105462,105458,100253,100243,100269,112513,,,
Headphone screening,flow.Sequence,0,2021-03-25T15:16:45.560Z,,,,,,,,,,,,,,,,,,,,,,,,,,,,,,99943,completion,,,,,,,,,,,,,,,,,,,,105462,105458,5496,5469,5515,112513,,,
Instructions,html.Page,1_0,2021-03-25T15:17:02.496Z,,,,,,,,,,,,,,,,,,,,,,,,,,,,,,9885,form submission,,,,,,,,,,,,,,,,,,,,122398,122398,112506,112488,112513,122438,,,
Holding screen,html.Screen,1_1_0_0,2021-03-25T15:17:09.522Z,,,,,,,,,,,,,,,,,,,,,,,,,,,,,,7008,timeout,,,,,,,,,,,,,,,,,,,,129425.00000000001,129424,122420,122398,122438,129446,,,
screen,html.Screen,1_1_0_1_0,2021-03-25T15:17:10.874Z,,,,,,,,,,,,,,,,53,,,,,,,,,,,,,,1345,response,,,,99,,,,,,Space,keypress(Space),,,,,,,,When -- ----- -- ------ - ------- --- ----------<br>------------- ------ ------ ---- ---- ------- ----- -- ----<br>-------- ------- -- ---------- --- - --- ----- ----- ----<br>---- --- --- ----- --- ---- ---- ------- ----- ---- -------<br>--- --- -- ----- -- --- ---- -- --- ---- -- ------ ------<br>--- ----- -- ----,130777.00000000001,130769,129424,129425.00000000001,129446,130810,,0,When
screen,html.Screen,1_1_0_1_1,2021-03-25T15:17:11.368Z,,,,,,,,,,,,,,,,53,,,,,,,,,,,,,,471.0000000000291,response,,,,99,,,,,,Space,keypress(Space),,,,,,,,---- it ----- -- ------ - ------- --- ----------<br>------------- ------ ------ ---- ---- ------- ----- -- ----<br>-------- ------- -- ---------- --- - --- ----- ----- ----<br>---- --- --- ----- --- ---- ---- ------- ----- ---- -------<br>--- --- -- ----- -- --- ---- -- --- ---- -- ------ ------<br>--- ----- -- ----,131271.00000000003,131265.00000000003,130794,130777.00000000001,130810,131307,,1,it
screen,html.Screen,1_1_0_1_2,2021-03-25T15:17:11.787Z,,,,,,,,,,,,,,,,53,,,,,,,,,,,,,,393,response,,,,99,,,,,,Space,keypress(Space),,,,,,,,---- -- comes -- ------ - ------- --- ----------<br>------------- ------ ------ ---- ---- ------- ----- -- ----<br>-------- ------- -- ---------- --- - --- ----- ----- ----<br>---- --- --- ----- --- ---- ---- ------- ----- ---- -------<br>--- --- -- ----- -- --- ---- -- --- ---- -- ------ ------<br>--- ----- -- ----,131689,131683,131290,131271.00000000003,131307,131727,,2,comes
screen,html.Screen,1_1_0_1_3,2021-03-25T15:17:12.176Z,,,,,,,,,,,,,,,,53,,,,,,,,,,,,,,361,response,,,,99,,,,,,Space,keypress(Space),,,,,,,,---- -- ----- to ------ - ------- --- ----------<br>------------- ------ ------ ---- ---- ------- ----- -- ----<br>-------- ------- -- ---------- --- - --- ----- ----- ----<br>---- --- --- ----- --- ---- ---- ------- ----- ---- -------<br>--- --- -- ----- -- --- ---- -- --- ---- -- ------ ------<br>--- ----- -- ----,132078,132072,131711,131689,131727,132096,,3,to
screen,html.Screen,1_1_0_1_4,2021-03-25T15:17:12.522Z,,,,,,,,,,,,,,,,53,,,,,,,,,,,,,,340,response,,,,99,,,,,,Space,keypress(Space),,,,,,,,---- -- ----- -- having - ------- --- ----------<br>------------- ------ ------ ---- ---- ------- ----- -- ----<br>-------- ------- -- ---------- --- - --- ----- ----- ----<br>---- --- --- ----- --- ---- ---- ------- ----- ---- -------<br>--- --- -- ----- -- --- ---- -- --- ---- -- ------ ------<br>--- ----- -- ----,132425,132419,132079,132078,132096,132449,,4,having
screen,html.Screen,1_1_0_1_5,2021-03-25T15:17:12.889Z,,,,,,,,,,,,,,,,53,,,,,,,,,,,,,,353,response,,,,99,,,,,,Space,keypress(Space),,,,,,,,---- -- ----- -- ------ a ------- --- ----------<br>------------- ------ ------ ---- ---- ------- ----- -- ----<br>-------- ------- -- ---------- --- - --- ----- ----- ----<br>---- --- --- ----- --- ---- ---- ------- ----- ---- -------<br>--- --- -- ----- -- --- ---- -- --- ---- -- ------ ------<br>--- ----- -- ----,132791,132786,132433,132425,132449,132819,,5,a
screen,html.Screen,1_1_0_1_6,2021-03-25T15:17:13.211Z,,,,,,,,,,,,,,,,53,,,,,,,,,,,,,,305,response,,,,99,,,,,,Space,keypress(Space),,,,,,,,---- -- ----- -- ------ - lasting --- ----------<br>------------- ------ ------ ---- ---- ------- ----- -- ----<br>-------- ------- -- ---------- --- - --- ----- ----- ----<br>---- --- --- ----- --- ---- ---- ------- ----- ---- -------<br>--- --- -- ----- -- --- ---- -- --- ---- -- ------ ------<br>--- ----- -- ----,133113,133107,132802,132791,132819,133137,,6,lasting
screen,html.Screen,1_1_0_1_7,2021-03-25T15:17:13.582Z,,,,,,,,,,,,,,,,53,,,,,,,,,,,,,,358,response,,,,99,,,,,,Space,keypress(Space),,,,,,,,---- -- ----- -- ------ - ------- and ----------<br>------------- ------ ------ ---- ---- ------- ----- -- ----<br>-------- ------- -- ---------- --- - --- ----- ----- ----<br>---- --- --- ----- --- ---- ---- ------- ----- ---- -------<br>--- --- -- ----- -- --- ---- -- --- ---- -- ------ ------<br>--- ----- -- ----,133485,133479,133121,133113,133137,133507,,7,and
screen,html.Screen,1_1_0_1_8,2021-03-25T15:17:14.077Z,,,,,,,,,,,,,,,,53,,,,,,,,,,,,,,483,response,,,,99,,,,,,Space,keypress(Space),,,,,,,,---- -- ----- -- ------ - ------- --- fulfilling<br>------------- ------ ------ ---- ---- ------- ----- -- ----<br>-------- ------- -- ---------- --- - --- ----- ----- ----<br>---- --- --- ----- --- ---- ---- ------- ----- ---- -------<br>--- --- -- ----- -- --- ---- -- --- ---- -- ------ ------<br>--- ----- -- ----,133980,133974,133491,133485,133507,134009,,8,fulfilling
screen,html.Screen,1_1_0_1_9,2021-03-25T15:17:14.633Z,,,,,,,,,,,,,,,,53,,,,,,,,,,,,,,537,response,,,,99,,,,,,Space,keypress(Space),,,,,,,,"---- -- ----- -- ------ - ------- --- ----------<br>relationship, ------ ------ ---- ---- ------- ----- -- ----<br>-------- ------- -- ---------- --- - --- ----- ----- ----<br>---- --- --- ----- --- ---- ---- ------- ----- ---- -------<br>--- --- -- ----- -- --- ---- -- --- ---- -- ------ ------<br>--- ----- -- ----",134536,134530,133993,133980,134009,134579,,9,"relationship,"
screen,html.Screen,1_1_0_1_10,2021-03-25T15:17:15.440Z,,,,,,,,,,,,,,,,53,,,,,,,,,,,,,,775,response,,,,99,,,,,,Space,keypress(Space),,,,,,,,---- -- ----- -- ------ - ------- --- ----------<br>------------- common ------ ---- ---- ------- ----- -- ----<br>-------- ------- -- ---------- --- - --- ----- ----- ----<br>---- --- --- ----- --- ---- ---- ------- ----- ---- -------<br>--- --- -- ----- -- --- ---- -- --- ---- -- ------ ------<br>--- ----- -- ----,135343,135337,134562,134536,134579,135382,,10,common
screen,html.Screen,1_1_0_1_11,2021-03-25T15:17:15.879Z,,,,,,,,,,,,,,,,53,,,,,,,,,,,,,,409,response,,,,99,,,,,,Space,keypress(Space),,,,,,,,---- -- ----- -- ------ - ------- --- ----------<br>------------- ------ wisdom ---- ---- ------- ----- -- ----<br>-------- ------- -- ---------- --- - --- ----- ----- ----<br>---- --- --- ----- --- ---- ---- ------- ----- ---- -------<br>--- --- -- ----- -- --- ---- -- --- ---- -- ------ ------<br>--- ----- -- ----,135781,135775,135366,135343,135382,135818,,11,wisdom
screen,html.Screen,1_1_0_1_12,2021-03-25T15:17:16.286Z,,,,,,,,,,,,,,,,53,,,,,,,,,,,,,,381,response,,,,99,,,,,,Space,keypress(Space),,,,,,,,---- -- ----- -- ------ - ------- --- ----------<br>------------- ------ ------ says ---- ------- ----- -- ----<br>-------- ------- -- ---------- --- - --- ----- ----- ----<br>---- --- --- ----- --- ---- ---- ------- ----- ---- -------<br>--- --- -- ----- -- --- ---- -- --- ---- -- ------ ------<br>--- ----- -- ----,136188.00000000003,136183,135802,135781,135818,136220,,12,says
screen,html.Screen,1_1_0_1_13,2021-03-25T15:17:16.714Z,,,,,,,,,,,,,,,,53,,,,,,,,,,,,,,407,response,,,,99,,,,,,Space,keypress(Space),,,,,,,,---- -- ----- -- ------ - ------- --- ----------<br>------------- ------ ------ ---- that ------- ----- -- ----<br>-------- ------- -- ---------- --- - --- ----- ----- ----<br>---- --- --- ----- --- ---- ---- ------- ----- ---- -------<br>--- --- -- ----- -- --- ---- -- --- ---- -- ------ ------<br>--- ----- -- ----,136617,136611,136204,136189,136220,136657,,13,that
screen,html.Screen,1_1_0_1_14,2021-03-25T15:17:17.189Z,,,,,,,,,,,,,,,,53,,,,,,,,,,,,,,444,response,,,,99,,,,,,Space,keypress(Space),,,,,,,,---- -- ----- -- ------ - ------- --- ----------<br>------------- ------ ------ ---- ---- feeling ----- -- ----<br>-------- ------- -- ---------- --- - --- ----- ----- ----<br>---- --- --- ----- --- ---- ---- ------- ----- ---- -------<br>--- --- -- ----- -- --- ---- -- --- ---- -- ------ ------<br>--- ----- -- ----,137091,137085,136641,136617,136657,137127,,14,feeling
screen,html.Screen,1_1_0_1_15,2021-03-25T15:17:17.577Z,,,,,,,,,,,,,,,,53,,,,,,,,,,,,,,364,response,,,,99,,,,,,Space,keypress(Space),,,,,,,,---- -- ----- -- ------ - ------- --- ----------<br>------------- ------ ------ ---- ---- ------- close -- ----<br>-------- ------- -- ---------- --- - --- ----- ----- ----<br>---- --- --- ----- --- ---- ---- ------- ----- ---- -------<br>--- --- -- ----- -- --- ---- -- --- ---- -- ------ ------<br>--- ----- -- ----,137479,137474,137110,137091,137127,137513,,15,close
screen,html.Screen,1_1_0_1_16,2021-03-25T15:17:17.913Z,,,,,,,,,,,,,,,,53,,,,,,,,,,,,,,314,response,,,,99,,,,,,Space,keypress(Space),,,,,,,,---- -- ----- -- ------ - ------- --- ----------<br>------------- ------ ------ ---- ---- ------- ----- to ----<br>-------- ------- -- ---------- --- - --- ----- ----- ----<br>---- --- --- ----- --- ---- ---- ------- ----- ---- -------<br>--- --- -- ----- -- --- ---- -- --- ---- -- ------ ------<br>--- ----- -- ----,137815,137809,137495,137480,137513,137849,,16,to
screen,html.Screen,1_1_0_1_17,2021-03-25T15:17:18.381Z,,,,,,,,,,,,,,,,53,,,,,,,,,,,,,,444.0000000000291,response,,,,99,,,,,,Space,keypress(Space),,,,,,,,---- -- ----- -- ------ - ------- --- ----------<br>------------- ------ ------ ---- ---- ------- ----- -- your<br>-------- ------- -- ---------- --- - --- ----- ----- ----<br>---- --- --- ----- --- ---- ---- ------- ----- ---- -------<br>--- --- -- ----- -- --- ---- -- --- ---- -- ------ ------<br>--- ----- -- ----,138283.00000000003,138277.00000000003,137833,137815,137849,138318,,17,your
screen,html.Screen,1_1_0_1_18,2021-03-25T15:17:18.791Z,,,,,,,,,,,,,,,,53,,,,,,,,,,,,,,386.0000000000291,response,,,,99,,,,,,Space,keypress(Space),,,,,,,,---- -- ----- -- ------ - ------- --- ----------<br>------------- ------ ------ ---- ---- ------- ----- -- ----<br>romantic ------- -- ---------- --- - --- ----- ----- ----<br>---- --- --- ----- --- ---- ---- ------- ----- ---- -------<br>--- --- -- ----- -- --- ---- -- --- ---- -- ------ ------<br>--- ----- -- ----,138694.00000000003,138688.00000000003,138302,138283.00000000003,138318,138721,,18,romantic
screen,html.Screen,1_1_0_1_19,2021-03-25T15:17:19.227Z,,,,,,,,,,,,,,,,53,,,,,,,,,,,,,,420,response,,,,99,,,,,,Space,keypress(Space),,,,,,,,---- -- ----- -- ------ - ------- --- ----------<br>------------- ------ ------ ---- ---- ------- ----- -- ----<br>-------- partner -- ---------- --- - --- ----- ----- ----<br>---- --- --- ----- --- ---- ---- ------- ----- ---- -------<br>--- --- -- ----- -- --- ---- -- --- ---- -- ------ ------<br>--- ----- -- ----,139129,139124,138704,138694.00000000003,138721,139157,,19,partner
screen,html.Screen,1_1_0_1_20,2021-03-25T15:17:19.685Z,,,,,,,,,,,,,,,,53,,,,,,,,,,,,,,440,response,,,,99,,,,,,Space,keypress(Space),,,,,,,,---- -- ----- -- ------ - ------- --- ----------<br>------------- ------ ------ ---- ---- ------- ----- -- ----<br>-------- ------- is ---------- --- - --- ----- ----- ----<br>---- --- --- ----- --- ---- ---- ------- ----- ---- -------<br>--- --- -- ----- -- --- ---- -- --- ---- -- ------ ------<br>--- ----- -- ----,139587,139581,139141,139130,139157,139626,,20,is
screen,html.Screen,1_1_0_1_21,2021-03-25T15:17:20.128Z,,,,,,,,,,,,,,,,53,,,,,,,,,,,,,,415,response,,,,99,,,,,,Space,keypress(Space),,,,,,,,---- -- ----- -- ------ - ------- --- ----------<br>------------- ------ ------ ---- ---- ------- ----- -- ----<br>-------- ------- -- paramount. --- - --- ----- ----- ----<br>---- --- --- ----- --- ---- ---- ------- ----- ---- -------<br>--- --- -- ----- -- --- ---- -- --- ---- -- ------ ------<br>--- ----- -- ----,140031,140025,139610,139587,139626,140061,,21,paramount.
screen,html.Screen,1_1_0_1_22,2021-03-25T15:17:20.783Z,,,,,,,,,,,,,,,,53,,,,,,,,,,,,,,634,response,,,,99,,,,,,Space,keypress(Space),,,,,,,,---- -- ----- -- ------ - ------- --- ----------<br>------------- ------ ------ ---- ---- ------- ----- -- ----<br>-------- ------- -- ---------- But - --- ----- ----- ----<br>---- --- --- ----- --- ---- ---- ------- ----- ---- -------<br>--- --- -- ----- -- --- ---- -- --- ---- -- ------ ------<br>--- ----- -- ----,140685,140680,140046,140031,140061,140715,,22,But
screen,html.Screen,1_1_0_1_23,2021-03-25T15:17:21.663Z,,,,,,,,,,,,,,,,53,,,,,,,,,,,,,,862,response,,,,99,,,,,,Space,keypress(Space),,,,,,,,---- -- ----- -- ------ - ------- --- ----------<br>------------- ------ ------ ---- ---- ------- ----- -- ----<br>-------- ------- -- ---------- --- a --- ----- ----- ----<br>---- --- --- ----- --- ---- ---- ------- ----- ---- -------<br>--- --- -- ----- -- --- ---- -- --- ---- -- ------ ------<br>--- ----- -- ----,141565,141560,140698,140685,140715,141601,,23,a
screen,html.Screen,1_1_0_1_24,2021-03-25T15:17:22.142Z,,,,,,,,,,,,,,,,53,,,,,,,,,,,,,,454.0000000000291,response,,,,99,,,,,,Space,keypress(Space),,,,,,,,---- -- ----- -- ------ - ------- --- ----------<br>------------- ------ ------ ---- ---- ------- ----- -- ----<br>-------- ------- -- ---------- --- - new ----- ----- ----<br>---- --- --- ----- --- ---- ---- ------- ----- ---- -------<br>--- --- -- ----- -- --- ---- -- --- ---- -- ------ ------<br>--- ----- -- ----,142044,142039.00000000003,141585,141566,141601,142073,,24,new
screen,html.Screen,1_1_0_1_25,2021-03-25T15:17:22.947Z,,,,,,,,,,,,,,,,53,,,,,,,,,,,,,,788,response,,,,99,,,,,,Space,keypress(Space),,,,,,,,---- -- ----- -- ------ - ------- --- ----------<br>------------- ------ ------ ---- ---- ------- ----- -- ----<br>-------- ------- -- ---------- --- - --- study ----- ----<br>---- --- --- ----- --- ---- ---- ------- ----- ---- -------<br>--- --- -- ----- -- --- ---- -- --- ---- -- ------ ------<br>--- ----- -- ----,142849,142843,142055,142045.00000000003,142073,142892,,25,study
screen,html.Screen,1_1_0_1_26,2021-03-25T15:17:23.382Z,,,,,,,,,,,,,,,,53,,,,,,,,,,,,,,404,response,,,,99,,,,,,Space,keypress(Space),,,,,,,,---- -- ----- -- ------ - ------- --- ----------<br>------------- ------ ------ ---- ---- ------- ----- -- ----<br>-------- ------- -- ---------- --- - --- ----- finds ----<br>---- --- --- ----- --- ---- ---- ------- ----- ---- -------<br>--- --- -- ----- -- --- ---- -- --- ---- -- ------ ------<br>--- ----- -- ----,143284,143279,142875,142849,142892,143311,,26,finds
screen,html.Screen,1_1_0_1_27,2021-03-25T15:17:23.737Z,,,,,,,,,,,,,,,,53,,,,,,,,,,,,,,339,response,,,,99,,,,,,Space,keypress(Space),,,,,,,,---- -- ----- -- ------ - ------- --- ----------<br>------------- ------ ------ ---- ---- ------- ----- -- ----<br>-------- ------- -- ---------- --- - --- ----- ----- that<br>---- --- --- ----- --- ---- ---- ------- ----- ---- -------<br>--- --- -- ----- -- --- ---- -- --- ---- -- ------ ------<br>--- ----- -- ----,143639,143634,143295,143284,143311,143664,,27,that
screen,html.Screen,1_1_0_1_28,2021-03-25T15:17:24.068Z,,,,,,,,,,,,,,,,53,,,,,,,,,,,,,,317,response,,,,99,,,,,,Space,keypress(Space),,,,,,,,---- -- ----- -- ------ - ------- --- ----------<br>------------- ------ ------ ---- ---- ------- ----- -- ----<br>-------- ------- -- ---------- --- - --- ----- ----- ----<br>it's --- --- ----- --- ---- ---- ------- ----- ---- -------<br>--- --- -- ----- -- --- ---- -- --- ---- -- ------ ------<br>--- ----- -- ----,143970,143964,143647,143639,143664,144001,,28,it's
screen,html.Screen,1_1_0_1_29,2021-03-25T15:17:24.393Z,,,,,,,,,,,,,,,,53,,,,,,,,,,,,,,305.0000000000291,response,,,,99,,,,,,Space,keypress(Space),,,,,,,,---- -- ----- -- ------ - ------- --- ----------<br>------------- ------ ------ ---- ---- ------- ----- -- ----<br>-------- ------- -- ---------- --- - --- ----- ----- ----<br>---- not --- ----- --- ---- ---- ------- ----- ---- -------<br>--- --- -- ----- -- --- ---- -- --- ---- -- ------ ------<br>--- ----- -- ----,144295.00000000003,144289.00000000003,143984,143970,144001,144320,,29,not
screen,html.Screen,1_1_0_1_30,2021-03-25T15:17:24.713Z,,,,,,,,,,,,,,,,53,,,,,,,,,,,,,,307,response,,,,99,,,,,,Space,keypress(Space),,,,,,,,---- -- ----- -- ------ - ------- --- ----------<br>------------- ------ ------ ---- ---- ------- ----- -- ----<br>-------- ------- -- ---------- --- - --- ----- ----- ----<br>---- --- how ----- --- ---- ---- ------- ----- ---- -------<br>--- --- -- ----- -- --- ---- -- --- ---- -- ------ ------<br>--- ----- -- ----,144615,144610,144303,144295.00000000003,144320,144639,,30,how
screen,html.Screen,1_1_0_1_31,2021-03-25T15:17:25.002Z,,,,,,,,,,,,,,,,53,,,,,,,,,,,,,,277,response,,,,99,,,,,,Space,keypress(Space),,,,,,,,---- -- ----- -- ------ - ------- --- ----------<br>------------- ------ ------ ---- ---- ------- ----- -- ----<br>-------- ------- -- ---------- --- - --- ----- ----- ----<br>---- --- --- close --- ---- ---- ------- ----- ---- -------<br>--- --- -- ----- -- --- ---- -- --- ---- -- ------ ------<br>--- ----- -- ----,144904,144899,144622,144615,144639,144925,,31,close
screen,html.Screen,1_1_0_1_32,2021-03-25T15:17:25.332Z,,,,,,,,,,,,,,,,53,,,,,,,,,,,,,,320,response,,,,99,,,,,,Space,keypress(Space),,,,,,,,---- -- ----- -- ------ - ------- --- ----------<br>------------- ------ ------ ---- ---- ------- ----- -- ----<br>-------- ------- -- ---------- --- - --- ----- ----- ----<br>---- --- --- ----- you ---- ---- ------- ----- ---- -------<br>--- --- -- ----- -- --- ---- -- --- ---- -- ------ ------<br>--- ----- -- ----,145234,145228,144908,144905,144925,145261,,32,you
screen,html.Screen,1_1_0_1_33,2021-03-25T15:17:25.655Z,,,,,,,,,,,,,,,,53,,,,,,,,,,,,,,307.0000000000291,response,,,,99,,,,,,Space,keypress(Space),,,,,,,,---- -- ----- -- ------ - ------- --- ----------<br>------------- ------ ------ ---- ---- ------- ----- -- ----<br>-------- ------- -- ---------- --- - --- ----- ----- ----<br>---- --- --- ----- --- feel ---- ------- ----- ---- -------<br>--- --- -- ----- -- --- ---- -- --- ---- -- ------ ------<br>--- ----- -- ----,145558,145551.00000000003,145244,145234,145261,145580,,33,feel
screen,html.Screen,1_1_0_1_34,2021-03-25T15:17:25.990Z,,,,,,,,,,,,,,,,53,,,,,,,,,,,,,,323,response,,,,99,,,,,,Space,keypress(Space),,,,,,,,---- -- ----- -- ------ - ------- --- ----------<br>------------- ------ ------ ---- ---- ------- ----- -- ----<br>-------- ------- -- ---------- --- - --- ----- ----- ----<br>---- --- --- ----- --- ---- that ------- ----- ---- -------<br>--- --- -- ----- -- --- ---- -- --- ---- -- ------ ------<br>--- ----- -- ----,145892,145887,145564,145558,145580,145916,,34,that
screen,html.Screen,1_1_0_1_35,2021-03-25T15:17:26.304Z,,,,,,,,,,,,,,,,53,,,,,,,,,,,,,,300.0000000000291,response,,,,99,,,,,,Space,keypress(Space),,,,,,,,---- -- ----- -- ------ - ------- --- ----------<br>------------- ------ ------ ---- ---- ------- ----- -- ----<br>-------- ------- -- ---------- --- - --- ----- ----- ----<br>---- --- --- ----- --- ---- ---- matters ----- ---- -------<br>--- --- -- ----- -- --- ---- -- --- ---- -- ------ ------<br>--- ----- -- ----,146206,146200.00000000003,145900,145892,145916,146236,,35,matters
screen,html.Screen,1_1_0_1_36,2021-03-25T15:17:26.662Z,,,,,,,,,,,,,,,,53,,,,,,,,,,,,,,339,response,,,,99,,,,,,Space,keypress(Space),,,,,,,,"---- -- ----- -- ------ - ------- --- ----------<br>------------- ------ ------ ---- ---- ------- ----- -- ----<br>-------- ------- -- ---------- --- - --- ----- ----- ----<br>---- --- --- ----- --- ---- ---- ------- most, ---- -------<br>--- --- -- ----- -- --- ---- -- --- ---- -- ------ ------<br>--- ----- -- ----",146564,146558,146219,146207,146236,146588,,36,"most,"
screen,html.Screen,1_1_0_1_37,2021-03-25T15:17:27.287Z,,,,,,,,,,,,,,,,53,,,,,,,,,,,,,,611,response,,,,99,,,,,,Space,keypress(Space),,,,,,,,---- -- ----- -- ------ - ------- --- ----------<br>------------- ------ ------ ---- ---- ------- ----- -- ----<br>-------- ------- -- ---------- --- - --- ----- ----- ----<br>---- --- --- ----- --- ---- ---- ------- ----- it's -------<br>--- --- -- ----- -- --- ---- -- --- ---- -- ------ ------<br>--- ----- -- ----,147190,147183,146572,146565,146588,147223,,37,it's
screen,html.Screen,1_1_0_1_38,2021-03-25T15:17:27.810Z,,,,,,,,,,,,,,,,53,,,,,,,,,,,,,,499.0000000000291,response,,,,99,,,,,,Space,keypress(Space),,,,,,,,---- -- ----- -- ------ - ------- --- ----------<br>------------- ------ ------ ---- ---- ------- ----- -- ----<br>-------- ------- -- ---------- --- - --- ----- ----- ----<br>---- --- --- ----- --- ---- ---- ------- ----- ---- whether<br>--- --- -- ----- -- --- ---- -- --- ---- -- ------ ------<br>--- ----- -- ----,147712,147706.00000000003,147207,147190,147223,147742,,38,whether
screen,html.Screen,1_1_0_1_39,2021-03-25T15:17:28.114Z,,,,,,,,,,,,,,,,53,,,,,,,,,,,,,,284,response,,,,99,,,,,,Space,keypress(Space),,,,,,,,---- -- ----- -- ------ - ------- --- ----------<br>------------- ------ ------ ---- ---- ------- ----- -- ----<br>-------- ------- -- ---------- --- - --- ----- ----- ----<br>---- --- --- ----- --- ---- ---- ------- ----- ---- -------<br>you --- -- ----- -- --- ---- -- --- ---- -- ------ ------<br>--- ----- -- ----,148017,148010,147726,147713,147742,148046,,39,you
screen,html.Screen,1_1_0_1_40,2021-03-25T15:17:28.300Z,,,,,,,,,,,,,,,,53,,,,,,,,,,,,,,168,response,,,,99,,,,,,Space,keypress(Space),,,,,,,,---- -- ----- -- ------ - ------- --- ----------<br>------------- ------ ------ ---- ---- ------- ----- -- ----<br>-------- ------- -- ---------- --- - --- ----- ----- ----<br>---- --- --- ----- --- ---- ---- ------- ----- ---- -------<br>--- are -- ----- -- --- ---- -- --- ---- -- ------ ------<br>--- ----- -- ----,148202,148196,148028,148017,148046,148232,,40,are
screen,html.Screen,1_1_0_1_41,2021-03-25T15:17:28.733Z,,,,,,,,,,,,,,,,53,,,,,,,,,,,,,,414,response,,,,99,,,,,,Space,keypress(Space),,,,,,,,---- -- ----- -- ------ - ------- --- ----------<br>------------- ------ ------ ---- ---- ------- ----- -- ----<br>-------- ------- -- ---------- --- - --- ----- ----- ----<br>---- --- --- ----- --- ---- ---- ------- ----- ---- -------<br>--- --- as ----- -- --- ---- -- --- ---- -- ------ ------<br>--- ----- -- ----,148635,148629,148215,148203,148232,148668,,41,as
screen,html.Screen,1_1_0_1_42,2021-03-25T15:17:28.959Z,,,,,,,,,,,,,,,,53,,,,,,,,,,,,,,202,response,,,,99,,,,,,Space,keypress(Space),,,,,,,,---- -- ----- -- ------ - ------- --- ----------<br>------------- ------ ------ ---- ---- ------- ----- -- ----<br>-------- ------- -- ---------- --- - --- ----- ----- ----<br>---- --- --- ----- --- ---- ---- ------- ----- ---- -------<br>--- --- -- close -- --- ---- -- --- ---- -- ------ ------<br>--- ----- -- ----,148861,148854,148652,148635,148668,148887,,42,close
screen,html.Screen,1_1_0_1_43,2021-03-25T15:17:29.211Z,,,,,,,,,,,,,,,,53,,,,,,,,,,,,,,236,response,,,,99,,,,,,Space,keypress(Space),,,,,,,,---- -- ----- -- ------ - ------- --- ----------<br>------------- ------ ------ ---- ---- ------- ----- -- ----<br>-------- ------- -- ---------- --- - --- ----- ----- ----<br>---- --- --- ----- --- ---- ---- ------- ----- ---- -------<br>--- --- -- ----- as --- ---- -- --- ---- -- ------ ------<br>--- ----- -- ----,149114,149107,148871,148861,148887,149140,,43,as
screen,html.Screen,1_1_0_1_44,2021-03-25T15:17:29.548Z,,,,,,,,,,,,,,,,53,,,,,,,,,,,,,,320.0000000000291,response,,,,99,,,,,,Space,keypress(Space),,,,,,,,---- -- ----- -- ------ - ------- --- ----------<br>------------- ------ ------ ---- ---- ------- ----- -- ----<br>-------- ------- -- ---------- --- - --- ----- ----- ----<br>---- --- --- ----- --- ---- ---- ------- ----- ---- -------<br>--- --- -- ----- -- you ---- -- --- ---- -- ------ ------<br>--- ----- -- ----,149450.00000000003,149444.00000000003,149124,149114,149140,149476,,44,you
screen,html.Screen,1_1_0_1_45,2021-03-25T15:17:29.771Z,,,,,,,,,,,,,,,,53,,,,,,,,,,,,,,207,response,,,,99,,,,,,Space,keypress(Space),,,,,,,,---- -- ----- -- ------ - ------- --- ----------<br>------------- ------ ------ ---- ---- ------- ----- -- ----<br>-------- ------- -- ---------- --- - --- ----- ----- ----<br>---- --- --- ----- --- ---- ---- ------- ----- ---- -------<br>--- --- -- ----- -- --- want -- --- ---- -- ------ ------<br>--- ----- -- ----,149673,149667,149460,149450.00000000003,149476,149695,,45,want
screen,html.Screen,1_1_0_1_46,2021-03-25T15:17:30.116Z,,,,,,,,,,,,,,,,53,,,,,,,,,,,,,,334,response,,,,99,,,,,,Space,keypress(Space),,,,,,,,---- -- ----- -- ------ - ------- --- ----------<br>------------- ------ ------ ---- ---- ------- ----- -- ----<br>-------- ------- -- ---------- --- - --- ----- ----- ----<br>---- --- --- ----- --- ---- ---- ------- ----- ---- -------<br>--- --- -- ----- -- --- ---- to --- ---- -- ------ ------<br>--- ----- -- ----,150018,150012,149678,149673,149695,150048,,46,to
screen,html.Screen,1_1_0_1_47,2021-03-25T15:17:30.410Z,,,,,,,,,,,,,,,,53,,,,,,,,,,,,,,274,response,,,,99,,,,,,Space,keypress(Space),,,,,,,,"---- -- ----- -- ------ - ------- --- ----------<br>------------- ------ ------ ---- ---- ------- ----- -- ----<br>-------- ------- -- ---------- --- - --- ----- ----- ----<br>---- --- --- ----- --- ---- ---- ------- ----- ---- -------<br>--- --- -- ----- -- --- ---- -- be, ---- -- ------ ------<br>--- ----- -- ----",150312,150305,150031,150018,150048,150333,,47,"be,"
screen,html.Screen,1_1_0_1_48,2021-03-25T15:17:31.026Z,,,,,,,,,,,,,,,,53,,,,,,,,,,,,,,605,response,,,,99,,,,,,Space,keypress(Space),,,,,,,,---- -- ----- -- ------ - ------- --- ----------<br>------------- ------ ------ ---- ---- ------- ----- -- ----<br>-------- ------- -- ---------- --- - --- ----- ----- ----<br>---- --- --- ----- --- ---- ---- ------- ----- ---- -------<br>--- --- -- ----- -- --- ---- -- --- even -- ------ ------<br>--- ----- -- ----,150928,150922,150317,150312,150333,150969,,48,even
screen,html.Screen,1_1_0_1_49,2021-03-25T15:17:31.439Z,,,,,,,,,,,,,,,,53,,,,,,,,,,,,,,382,response,,,,99,,,,,,Space,keypress(Space),,,,,,,,---- -- ----- -- ------ - ------- --- ----------<br>------------- ------ ------ ---- ---- ------- ----- -- ----<br>-------- ------- -- ---------- --- - --- ----- ----- ----<br>---- --- --- ----- --- ---- ---- ------- ----- ---- -------<br>--- --- -- ----- -- --- ---- -- --- ---- if ------ ------<br>--- ----- -- ----,151341,151335,150953,150928,150969,151372,,49,if
screen,html.Screen,1_1_0_1_50,2021-03-25T15:17:32.014Z,,,,,,,,,,,,,,,,53,,,,,,,,,,,,,,554,response,,,,99,,,,,,Space,keypress(Space),,,,,,,,---- -- ----- -- ------ - ------- --- ----------<br>------------- ------ ------ ---- ---- ------- ----- -- ----<br>-------- ------- -- ---------- --- - --- ----- ----- ----<br>---- --- --- ----- --- ---- ---- ------- ----- ---- -------<br>--- --- -- ----- -- --- ---- -- --- ---- -- that's ------<br>--- ----- -- ----,151916,151910,151356,151341,151372,151959,,50,that's
screen,html.Screen,1_1_0_1_51,2021-03-25T15:17:32.506Z,,,,,,,,,,,,,,,,53,,,,,,,,,,,,,,460.0000000000291,response,,,,99,,,,,,Space,keypress(Space),,,,,,,,---- -- ----- -- ------ - ------- --- ----------<br>------------- ------ ------ ---- ---- ------- ----- -- ----<br>-------- ------- -- ---------- --- - --- ----- ----- ----<br>---- --- --- ----- --- ---- ---- ------- ----- ---- -------<br>--- --- -- ----- -- --- ---- -- --- ---- -- ------ really<br>--- ----- -- ----,152408.00000000003,152402.00000000003,151942,151916,151959,152444,,51,really
screen,html.Screen,1_1_0_1_52,2021-03-25T15:17:32.977Z,,,,,,,,,,,,,,,,53,,,,,,,,,,,,,,445,response,,,,99,,,,,,Space,keypress(Space),,,,,,,,---- -- ----- -- ------ - ------- --- ----------<br>------------- ------ ------ ---- ---- ------- ----- -- ----<br>-------- ------- -- ---------- --- - --- ----- ----- ----<br>---- --- --- ----- --- ---- ---- ------- ----- ---- -------<br>--- --- -- ----- -- --- ---- -- --- ---- -- ------ ------<br>not ----- -- ----,152879,152873,152428,152408.00000000003,152444,152914,,52,not
screen,html.Screen,1_1_0_1_53,2021-03-25T15:17:33.420Z,,,,,,,,,,,,,,,,53,,,,,,,,,,,,,,418,response,,,,99,,,,,,Space,keypress(Space),,,,,,,,---- -- ----- -- ------ - ------- --- ----------<br>------------- ------ ------ ---- ---- ------- ----- -- ----<br>-------- ------- -- ---------- --- - --- ----- ----- ----<br>---- --- --- ----- --- ---- ---- ------- ----- ---- -------<br>--- --- -- ----- -- --- ---- -- --- ---- -- ------ ------<br>--- close -- ----,153322,153316,152898,152879,152914,153350,,53,close
screen,html.Screen,1_1_0_1_54,2021-03-25T15:17:33.791Z,,,,,,,,,,,,,,,,53,,,,,,,,,,,,,,353,response,,,,99,,,,,,Space,keypress(Space),,,,,,,,---- -- ----- -- ------ - ------- --- ----------<br>------------- ------ ------ ---- ---- ------- ----- -- ----<br>-------- ------- -- ---------- --- - --- ----- ----- ----<br>---- --- --- ----- --- ---- ---- ------- ----- ---- -------<br>--- --- -- ----- -- --- ---- -- --- ---- -- ------ ------<br>--- ----- at ----,153693,153687,153334,153322,153350,153719,,54,at
screen,html.Screen,1_1_0_1_55,2021-03-25T15:17:34.508Z,,,,,,,,,,,,,,,,53,,,,,,,,,,,,,,701,response,,,,99,,,,,,Space,keypress(Space),,,,,,,,---- -- ----- -- ------ - ------- --- ----------<br>------------- ------ ------ ---- ---- ------- ----- -- ----<br>-------- ------- -- ---------- --- - --- ----- ----- ----<br>---- --- --- ----- --- ---- ---- ------- ----- ---- -------<br>--- --- -- ----- -- --- ---- -- --- ---- -- ------ ------<br>--- ----- -- all.,154410,154404,153703,153693,153719,154439,,55,all.
Item 99,flow.Loop,1_1_0_1,2021-03-25T15:17:34.508Z,,,,,,,,,,,,,,,,,,,,,,,,,,,,,,24958,completion,,,,,A,,,,,,,,,,silence,,,,,154410,154404,129424,129425.00000000001,129446,154439,,,
Question 1,html.Screen,1_1_0_2,2021-03-25T15:17:42.886Z,,,,,,,,,,,,,,,,,,,,,,,,,,,true,FALSE,,8361.00000000003,response,,,,99,A,,,,,FALSE,click #choice-2,,,,silence,,,,,162788,162783.00000000003,154422,154410,154439,162809,,,
Question 2,html.Screen,1_1_0_3,2021-03-25T15:17:48.838Z,,,,,,,,,,,,,,,,,,,,,,,,,,,true,TRUE,,5943,response,,,,99,A,,,,,TRUE,click #choice-1,,,,silence,,,,,168740,168735,162792,162788,162809,168777,,,
Item 99,flow.Sequence,1_1_0,2021-03-25T15:17:48.839Z,,,,,,,,,,,,,,,,,,,,,,,,,,,,,,46297,completion,,,,,,,,,,,,,,,,,,,,168741,168735,122420,122398,122438,168777,,,
Holding screen,html.Screen,1_1_1_0,2021-03-25T15:17:55.860Z,,,,,,,,,,,,,,,,,,,,,,,,,,,,,,7002,timeout,,,,,,,,,,,,,,,,,,,,175762,175762,168759,168741,168777,175779,,,
screen,html.Screen,1_1_1_1_0,2021-03-25T15:17:56.728Z,,,,,,,,,,,,,,,,54,,,,,,,,,,,,,,861,response,,,,100,,,,,,Space,keypress(Space),,,,,,,,At --- ---- --- ------ ----- ------- ---- -- --- ------- --<br>------- ---------- ------ -- ----- -- ----- -- ---- ------<br>--- ----- --- --- ------ -------- ----- --- ------ ----- --<br>----- ----- ---------- --- --- ------ ------ ---- -- ------<br>------- --- ------ ----- --- ---- ------- -- ---- --- --<br>------- ------,176630,176623,175762,175762,175779,176665,,0,At
screen,html.Screen,1_1_1_1_1,2021-03-25T15:17:57.250Z,,,,,,,,,,,,,,,,54,,,,,,,,,,,,,,497.0000000000291,response,,,,100,,,,,,Space,keypress(Space),,,,,,,,-- the ---- --- ------ ----- ------- ---- -- --- ------- --<br>------- ---------- ------ -- ----- -- ----- -- ---- ------<br>--- ----- --- --- ------ -------- ----- --- ------ ----- --<br>----- ----- ---------- --- --- ------ ------ ---- -- ------<br>------- --- ------ ----- --- ---- ------- -- ---- --- --<br>------- ------,177152.00000000003,177146.00000000003,176649,176630,176665,177193,,1,the
screen,html.Screen,1_1_1_1_2,2021-03-25T15:17:57.623Z,,,,,,,,,,,,,,,,54,,,,,,,,,,,,,,343,response,,,,100,,,,,,Space,keypress(Space),,,,,,,,-- --- time --- ------ ----- ------- ---- -- --- ------- --<br>------- ---------- ------ -- ----- -- ----- -- ---- ------<br>--- ----- --- --- ------ -------- ----- --- ------ ----- --<br>----- ----- ---------- --- --- ------ ------ ---- -- ------<br>------- --- ------ ----- --- ---- ------- -- ---- --- --<br>------- ------,177525,177519,177176,177152.00000000003,177193,177545,,2,time
screen,html.Screen,1_1_1_1_3,2021-03-25T15:17:57.982Z,,,,,,,,,,,,,,,,54,,,,,,,,,,,,,,348,response,,,,100,,,,,,Space,keypress(Space),,,,,,,,-- --- ---- the ------ ----- ------- ---- -- --- ------- --<br>------- ---------- ------ -- ----- -- ----- -- ---- ------<br>--- ----- --- --- ------ -------- ----- --- ------ ----- --<br>----- ----- ---------- --- --- ------ ------ ---- -- ------<br>------- --- ------ ----- --- ---- ------- -- ---- --- --<br>------- ------,177883,177877,177529,177525,177545,177915,,3,the
screen,html.Screen,1_1_1_1_4,2021-03-25T15:17:58.409Z,,,,,,,,,,,,,,,,54,,,,,,,,,,,,,,407,response,,,,100,,,,,,Space,keypress(Space),,,,,,,,-- --- ---- --- French ----- ------- ---- -- --- ------- --<br>------- ---------- ------ -- ----- -- ----- -- ---- ------<br>--- ----- --- --- ------ -------- ----- --- ------ ----- --<br>----- ----- ---------- --- --- ------ ------ ---- -- ------<br>------- --- ------ ----- --- ---- ------- -- ---- --- --<br>------- ------,178311,178305,177898,177884,177915,178351,,4,French
screen,html.Screen,1_1_1_1_5,2021-03-25T15:17:58.844Z,,,,,,,,,,,,,,,,54,,,,,,,,,,,,,,406,response,,,,100,,,,,,Space,keypress(Space),,,,,,,,-- --- ---- --- ------ crown ------- ---- -- --- ------- --<br>------- ---------- ------ -- ----- -- ----- -- ---- ------<br>--- ----- --- --- ------ -------- ----- --- ------ ----- --<br>----- ----- ---------- --- --- ------ ------ ---- -- ------<br>------- --- ------ ----- --- ---- ------- -- ---- --- --<br>------- ------,178746,178740,178334,178311,178351,178787,,5,crown
screen,html.Screen,1_1_1_1_6,2021-03-25T15:17:59.244Z,,,,,,,,,,,,,,,,54,,,,,,,,,,,,,,371.0000000000291,response,,,,100,,,,,,Space,keypress(Space),,,,,,,,-- --- ---- --- ------ ----- secured ---- -- --- ------- --<br>------- ---------- ------ -- ----- -- ----- -- ---- ------<br>--- ----- --- --- ------ -------- ----- --- ------ ----- --<br>----- ----- ---------- --- --- ------ ------ ---- -- ------<br>------- --- ------ ----- --- ---- ------- -- ---- --- --<br>------- ------,179146.00000000003,179140.00000000003,178769,178746,178787,179172,,6,secured
screen,html.Screen,1_1_1_1_7,2021-03-25T15:17:59.702Z,,,,,,,,,,,,,,,,54,,,,,,,,,,,,,,442,response,,,,100,,,,,,Space,keypress(Space),,,,,,,,-- --- ---- --- ------ ----- ------- much -- --- ------- --<br>------- ---------- ------ -- ----- -- ----- -- ---- ------<br>--- ----- --- --- ------ -------- ----- --- ------ ----- --<br>----- ----- ---------- --- --- ------ ------ ---- -- ------<br>------- --- ------ ----- --- ---- ------- -- ---- --- --<br>------- ------,179604,179598,179156,179146.00000000003,179172,179641,,7,much
screen,html.Screen,1_1_1_1_8,2021-03-25T15:18:00.118Z,,,,,,,,,,,,,,,,54,,,,,,,,,,,,,,388,response,,,,100,,,,,,Space,keypress(Space),,,,,,,,-- --- ---- --- ------ ----- ------- ---- of --- ------- --<br>------- ---------- ------ -- ----- -- ----- -- ---- ------<br>--- ----- --- --- ------ -------- ----- --- ------ ----- --<br>----- ----- ---------- --- --- ------ ------ ---- -- ------<br>------- --- ------ ----- --- ---- ------- -- ---- --- --<br>------- ------,180020,180014,179626,179604,179641,180062,,8,of
screen,html.Screen,1_1_1_1_9,2021-03-25T15:18:00.499Z,,,,,,,,,,,,,,,,54,,,,,,,,,,,,,,351,response,,,,100,,,,,,Space,keypress(Space),,,,,,,,-- --- ---- --- ------ ----- ------- ---- -- its ------- --<br>------- ---------- ------ -- ----- -- ----- -- ---- ------<br>--- ----- --- --- ------ -------- ----- --- ------ ----- --<br>----- ----- ---------- --- --- ------ ------ ---- -- ------<br>------- --- ------ ----- --- ---- ------- -- ---- --- --<br>------- ------,180401,180395,180044,180020,180062,180430,,9,its
screen,html.Screen,1_1_1_1_10,2021-03-25T15:18:00.823Z,,,,,,,,,,,,,,,,54,,,,,,,,,,,,,,306,response,,,,100,,,,,,Space,keypress(Space),,,,,,,,-- --- ---- --- ------ ----- ------- ---- -- --- revenue --<br>------- ---------- ------ -- ----- -- ----- -- ---- ------<br>--- ----- --- --- ------ -------- ----- --- ------ ----- --<br>----- ----- ---------- --- --- ------ ------ ---- -- ------<br>------- --- ------ ----- --- ---- ------- -- ---- --- --<br>------- ------,180725,180719,180413,180401,180430,180751,,10,revenue
screen,html.Screen,1_1_1_1_11,2021-03-25T15:18:01.192Z,,,,,,,,,,,,,,,,54,,,,,,,,,,,,,,354,response,,,,100,,,,,,Space,keypress(Space),,,,,,,,-- --- ---- --- ------ ----- ------- ---- -- --- ------- by<br>------- ---------- ------ -- ----- -- ----- -- ---- ------<br>--- ----- --- --- ------ -------- ----- --- ------ ----- --<br>----- ----- ---------- --- --- ------ ------ ---- -- ------<br>------- --- ------ ----- --- ---- ------- -- ---- --- --<br>------- ------,181094,181088,180734,180725,180751,181119,,11,by
screen,html.Screen,1_1_1_1_12,2021-03-25T15:18:01.576Z,,,,,,,,,,,,,,,,54,,,,,,,,,,,,,,369,response,,,,100,,,,,,Space,keypress(Space),,,,,,,,-- --- ---- --- ------ ----- ------- ---- -- --- ------- --<br>issuing ---------- ------ -- ----- -- ----- -- ---- ------<br>--- ----- --- --- ------ -------- ----- --- ------ ----- --<br>----- ----- ---------- --- --- ------ ------ ---- -- ------<br>------- --- ------ ----- --- ---- ------- -- ---- --- --<br>------- ------,181478,181472,181103,181094,181119,181505,,12,issuing
screen,html.Screen,1_1_1_1_13,2021-03-25T15:18:01.901Z,,,,,,,,,,,,,,,,54,,,,,,,,,,,,,,308,response,,,,100,,,,,,Space,keypress(Space),,,,,,,,-- --- ---- --- ------ ----- ------- ---- -- --- ------- --<br>------- government ------ -- ----- -- ----- -- ---- ------<br>--- ----- --- --- ------ -------- ----- --- ------ ----- --<br>----- ----- ---------- --- --- ------ ------ ---- -- ------<br>------- --- ------ ----- --- ---- ------- -- ---- --- --<br>------- ------,181803,181797,181489,181478,181505,181825,,13,government
screen,html.Screen,1_1_1_1_14,2021-03-25T15:18:02.300Z,,,,,,,,,,,,,,,,54,,,,,,,,,,,,,,388,response,,,,100,,,,,,Space,keypress(Space),,,,,,,,-- --- ---- --- ------ ----- ------- ---- -- --- ------- --<br>------- ---------- bonds. -- ----- -- ----- -- ---- ------<br>--- ----- --- --- ------ -------- ----- --- ------ ----- --<br>----- ----- ---------- --- --- ------ ------ ---- -- ------<br>------- --- ------ ----- --- ---- ------- -- ---- --- --<br>------- ------,182202,182196,181808,181803,181825,182244,,14,bonds.
screen,html.Screen,1_1_1_1_15,2021-03-25T15:18:03.532Z,,,,,,,,,,,,,,,,54,,,,,,,,,,,,,,1201,response,,,,100,,,,,,Space,keypress(Space),,,,,,,,-- --- ---- --- ------ ----- ------- ---- -- --- ------- --<br>------- ---------- ------ In ----- -- ----- -- ---- ------<br>--- ----- --- --- ------ -------- ----- --- ------ ----- --<br>----- ----- ---------- --- --- ------ ------ ---- -- ------<br>------- --- ------ ----- --- ---- ------- -- ---- --- --<br>------- ------,183434,183428,182227,182202,182244,183463,,15,In
screen,html.Screen,1_1_1_1_16,2021-03-25T15:18:03.895Z,,,,,,,,,,,,,,,,54,,,,,,,,,,,,,,344,response,,,,100,,,,,,Space,keypress(Space),,,,,,,,"-- --- ---- --- ------ ----- ------- ---- -- --- ------- --<br>------- ---------- ------ -- 1727, -- ----- -- ---- ------<br>--- ----- --- --- ------ -------- ----- --- ------ ----- --<br>----- ----- ---------- --- --- ------ ------ ---- -- ------<br>------- --- ------ ----- --- ---- ------- -- ---- --- --<br>------- ------",183797,183791,183447,183434,183463,183815,,16,"1727,"
screen,html.Screen,1_1_1_1_17,2021-03-25T15:18:04.361Z,,,,,,,,,,,,,,,,54,,,,,,,,,,,,,,458,response,,,,100,,,,,,Space,keypress(Space),,,,,,,,-- --- ---- --- ------ ----- ------- ---- -- --- ------- --<br>------- ---------- ------ -- ----- in ----- -- ---- ------<br>--- ----- --- --- ------ -------- ----- --- ------ ----- --<br>----- ----- ---------- --- --- ------ ------ ---- -- ------<br>------- --- ------ ----- --- ---- ------- -- ---- --- --<br>------- ------,184263,184257,183799,183797,183815,184302,,17,in
screen,html.Screen,1_1_1_1_18,2021-03-25T15:18:05.095Z,,,,,,,,,,,,,,,,54,,,,,,,,,,,,,,705,response,,,,100,,,,,,Space,keypress(Space),,,,,,,,-- --- ---- --- ------ ----- ------- ---- -- --- ------- --<br>------- ---------- ------ -- ----- -- order -- ---- ------<br>--- ----- --- --- ------ -------- ----- --- ------ ----- --<br>----- ----- ---------- --- --- ------ ------ ---- -- ------<br>------- --- ------ ----- --- ---- ------- -- ---- --- --<br>------- ------,184997,184991,184286,184263,184302,185038,,18,order
screen,html.Screen,1_1_1_1_19,2021-03-25T15:18:05.434Z,,,,,,,,,,,,,,,,54,,,,,,,,,,,,,,309,response,,,,100,,,,,,Space,keypress(Space),,,,,,,,-- --- ---- --- ------ ----- ------- ---- -- --- ------- --<br>------- ---------- ------ -- ----- -- ----- to ---- ------<br>--- ----- --- --- ------ -------- ----- --- ------ ----- --<br>----- ----- ---------- --- --- ------ ------ ---- -- ------<br>------- --- ------ ----- --- ---- ------- -- ---- --- --<br>------- ------,185336,185330,185021,184997,185038,185358,,19,to
screen,html.Screen,1_1_1_1_20,2021-03-25T15:18:05.741Z,,,,,,,,,,,,,,,,54,,,,,,,,,,,,,,297,response,,,,100,,,,,,Space,keypress(Space),,,,,,,,-- --- ---- --- ------ ----- ------- ---- -- --- ------- --<br>------- ---------- ------ -- ----- -- ----- -- save ------<br>--- ----- --- --- ------ -------- ----- --- ------ ----- --<br>----- ----- ---------- --- --- ------ ------ ---- -- ------<br>------- --- ------ ----- --- ---- ------- -- ---- --- --<br>------- ------,185643,185637,185340,185336,185358,185660,,20,save
screen,html.Screen,1_1_1_1_21,2021-03-25T15:18:06.212Z,,,,,,,,,,,,,,,,54,,,,,,,,,,,,,,464,response,,,,100,,,,,,Space,keypress(Space),,,,,,,,"-- --- ---- --- ------ ----- ------- ---- -- --- ------- --<br>------- ---------- ------ -- ----- -- ----- -- ---- money,<br>--- ----- --- --- ------ -------- ----- --- ------ ----- --<br>----- ----- ---------- --- --- ------ ------ ---- -- ------<br>------- --- ------ ----- --- ---- ------- -- ---- --- --<br>------- ------",186114,186108,185644,185643,185660,186145,,21,"money,"
screen,html.Screen,1_1_1_1_22,2021-03-25T15:18:06.623Z,,,,,,,,,,,,,,,,54,,,,,,,,,,,,,,390,response,,,,100,,,,,,Space,keypress(Space),,,,,,,,-- --- ---- --- ------ ----- ------- ---- -- --- ------- --<br>------- ---------- ------ -- ----- -- ----- -- ---- ------<br>the ----- --- --- ------ -------- ----- --- ------ ----- --<br>----- ----- ---------- --- --- ------ ------ ---- -- ------<br>------- --- ------ ----- --- ---- ------- -- ---- --- --<br>------- ------,186525,186519,186129,186114,186145,186565,,22,the
screen,html.Screen,1_1_1_1_23,2021-03-25T15:18:06.920Z,,,,,,,,,,,,,,,,54,,,,,,,,,,,,,,268,response,,,,100,,,,,,Space,keypress(Space),,,,,,,,-- --- ---- --- ------ ----- ------- ---- -- --- ------- --<br>------- ---------- ------ -- ----- -- ----- -- ---- ------<br>--- state --- --- ------ -------- ----- --- ------ ----- --<br>----- ----- ---------- --- --- ------ ------ ---- -- ------<br>------- --- ------ ----- --- ---- ------- -- ---- --- --<br>------- ------,186822,186816,186548,186525,186565,186852,,23,state
screen,html.Screen,1_1_1_1_24,2021-03-25T15:18:07.287Z,,,,,,,,,,,,,,,,54,,,,,,,,,,,,,,348,response,,,,100,,,,,,Space,keypress(Space),,,,,,,,-- --- ---- --- ------ ----- ------- ---- -- --- ------- --<br>------- ---------- ------ -- ----- -- ----- -- ---- ------<br>--- ----- cut --- ------ -------- ----- --- ------ ----- --<br>----- ----- ---------- --- --- ------ ------ ---- -- ------<br>------- --- ------ ----- --- ---- ------- -- ---- --- --<br>------- ------,187189,187183,186835,186822,186852,187220,,24,cut
screen,html.Screen,1_1_1_1_25,2021-03-25T15:18:07.643Z,,,,,,,,,,,,,,,,54,,,,,,,,,,,,,,335.0000000000291,response,,,,100,,,,,,Space,keypress(Space),,,,,,,,-- --- ---- --- ------ ----- ------- ---- -- --- ------- --<br>------- ---------- ------ -- ----- -- ----- -- ---- ------<br>--- ----- --- the ------ -------- ----- --- ------ ----- --<br>----- ----- ---------- --- --- ------ ------ ---- -- ------<br>------- --- ------ ----- --- ---- ------- -- ---- --- --<br>------- ------,187545.00000000003,187539.00000000003,187204,187189,187220,187574,,25,the
screen,html.Screen,1_1_1_1_26,2021-03-25T15:18:07.939Z,,,,,,,,,,,,,,,,54,,,,,,,,,,,,,,279,response,,,,100,,,,,,Space,keypress(Space),,,,,,,,-- --- ---- --- ------ ----- ------- ---- -- --- ------- --<br>------- ---------- ------ -- ----- -- ----- -- ---- ------<br>--- ----- --- --- bonds' -------- ----- --- ------ ----- --<br>----- ----- ---------- --- --- ------ ------ ---- -- ------<br>------- --- ------ ----- --- ---- ------- -- ---- --- --<br>------- ------,187841,187835,187556,187545.00000000003,187574,187859,,26,bonds'
screen,html.Screen,1_1_1_1_27,2021-03-25T15:18:08.545Z,,,,,,,,,,,,,,,,54,,,,,,,,,,,,,,599,response,,,,100,,,,,,Space,keypress(Space),,,,,,,,-- --- ---- --- ------ ----- ------- ---- -- --- ------- --<br>------- ---------- ------ -- ----- -- ----- -- ---- ------<br>--- ----- --- --- ------ interest ----- --- ------ ----- --<br>----- ----- ---------- --- --- ------ ------ ---- -- ------<br>------- --- ------ ----- --- ---- ------- -- ---- --- --<br>------- ------,188447,188441,187842,187841,187859,188479,,27,interest
screen,html.Screen,1_1_1_1_28,2021-03-25T15:18:08.938Z,,,,,,,,,,,,,,,,54,,,,,,,,,,,,,,371,response,,,,100,,,,,,Space,keypress(Space),,,,,,,,-- --- ---- --- ------ ----- ------- ---- -- --- ------- --<br>------- ---------- ------ -- ----- -- ----- -- ---- ------<br>--- ----- --- --- ------ -------- rate. --- ------ ----- --<br>----- ----- ---------- --- --- ------ ------ ---- -- ------<br>------- --- ------ ----- --- ---- ------- -- ---- --- --<br>------- ------,188840,188833,188462,188447,188479,188864,,28,rate.
screen,html.Screen,1_1_1_1_29,2021-03-25T15:18:09.397Z,,,,,,,,,,,,,,,,54,,,,,,,,,,,,,,446,response,,,,100,,,,,,Space,keypress(Space),,,,,,,,-- --- ---- --- ------ ----- ------- ---- -- --- ------- --<br>------- ---------- ------ -- ----- -- ----- -- ---- ------<br>--- ----- --- --- ------ -------- ----- The ------ ----- --<br>----- ----- ---------- --- --- ------ ------ ---- -- ------<br>------- --- ------ ----- --- ---- ------- -- ---- --- --<br>------- ------,189299,189293,188847,188840,188864,189334,,29,The
screen,html.Screen,1_1_1_1_30,2021-03-25T15:18:10.142Z,,,,,,,,,,,,,,,,54,,,,,,,,,,,,,,722,response,,,,100,,,,,,Space,keypress(Space),,,,,,,,-- --- ---- --- ------ ----- ------- ---- -- --- ------- --<br>------- ---------- ------ -- ----- -- ----- -- ---- ------<br>--- ----- --- --- ------ -------- ----- --- market ----- --<br>----- ----- ---------- --- --- ------ ------ ---- -- ------<br>------- --- ------ ----- --- ---- ------- -- ---- --- --<br>------- ------,190044,190038,189316,189299,189334,190086,,30,market
screen,html.Screen,1_1_1_1_31,2021-03-25T15:18:10.441Z,,,,,,,,,,,,,,,,54,,,,,,,,,,,,,,266,response,,,,100,,,,,,Space,keypress(Space),,,,,,,,-- --- ---- --- ------ ----- ------- ---- -- --- ------- --<br>------- ---------- ------ -- ----- -- ----- -- ---- ------<br>--- ----- --- --- ------ -------- ----- --- ------ value --<br>----- ----- ---------- --- --- ------ ------ ---- -- ------<br>------- --- ------ ----- --- ---- ------- -- ---- --- --<br>------- ------,190343.00000000003,190336,190070,190044,190086,190372,,31,value
screen,html.Screen,1_1_1_1_32,2021-03-25T15:18:10.781Z,,,,,,,,,,,,,,,,54,,,,,,,,,,,,,,321,response,,,,100,,,,,,Space,keypress(Space),,,,,,,,-- --- ---- --- ------ ----- ------- ---- -- --- ------- --<br>------- ---------- ------ -- ----- -- ----- -- ---- ------<br>--- ----- --- --- ------ -------- ----- --- ------ ----- of<br>----- ----- ---------- --- --- ------ ------ ---- -- ------<br>------- --- ------ ----- --- ---- ------- -- ---- --- --<br>------- ------,190683,190677,190356,190343.00000000003,190372,190708,,32,of
screen,html.Screen,1_1_1_1_33,2021-03-25T15:18:11.159Z,,,,,,,,,,,,,,,,54,,,,,,,,,,,,,,362,response,,,,100,,,,,,Space,keypress(Space),,,,,,,,-- --- ---- --- ------ ----- ------- ---- -- --- ------- --<br>------- ---------- ------ -- ----- -- ----- -- ---- ------<br>--- ----- --- --- ------ -------- ----- --- ------ ----- --<br>these ----- ---------- --- --- ------ ------ ---- -- ------<br>------- --- ------ ----- --- ---- ------- -- ---- --- --<br>------- ------,191061,191054,190692,190683,190708,191078,,33,these
screen,html.Screen,1_1_1_1_34,2021-03-25T15:18:11.584Z,,,,,,,,,,,,,,,,54,,,,,,,,,,,,,,418.0000000000291,response,,,,100,,,,,,Space,keypress(Space),,,,,,,,-- --- ---- --- ------ ----- ------- ---- -- --- ------- --<br>------- ---------- ------ -- ----- -- ----- -- ---- ------<br>--- ----- --- --- ------ -------- ----- --- ------ ----- --<br>----- bonds ---------- --- --- ------ ------ ---- -- ------<br>------- --- ------ ----- --- ---- ------- -- ---- --- --<br>------- ------,191486,191480.00000000003,191062,191061,191078,191514,,34,bonds
screen,html.Screen,1_1_1_1_35,2021-03-25T15:18:11.833Z,,,,,,,,,,,,,,,,54,,,,,,,,,,,,,,232,response,,,,100,,,,,,Space,keypress(Space),,,,,,,,"-- --- ---- --- ------ ----- ------- ---- -- --- ------- --<br>------- ---------- ------ -- ----- -- ----- -- ---- ------<br>--- ----- --- --- ------ -------- ----- --- ------ ----- --<br>----- ----- plummeted, --- --- ------ ------ ---- -- ------<br>------- --- ------ ----- --- ---- ------- -- ---- --- --<br>------- ------",191735,191729,191497,191486,191514,191767,,35,"plummeted,"
screen,html.Screen,1_1_1_1_36,2021-03-25T15:18:12.318Z,,,,,,,,,,,,,,,,54,,,,,,,,,,,,,,464,response,,,,100,,,,,,Space,keypress(Space),,,,,,,,-- --- ---- --- ------ ----- ------- ---- -- --- ------- --<br>------- ---------- ------ -- ----- -- ----- -- ---- ------<br>--- ----- --- --- ------ -------- ----- --- ------ ----- --<br>----- ----- ---------- and --- ------ ------ ---- -- ------<br>------- --- ------ ----- --- ---- ------- -- ---- --- --<br>------- ------,192220,192214,191750,191735,191767,192252,,36,and
screen,html.Screen,1_1_1_1_37,2021-03-25T15:18:12.569Z,,,,,,,,,,,,,,,,54,,,,,,,,,,,,,,229,response,,,,100,,,,,,Space,keypress(Space),,,,,,,,-- --- ---- --- ------ ----- ------- ---- -- --- ------- --<br>------- ---------- ------ -- ----- -- ----- -- ---- ------<br>--- ----- --- --- ------ -------- ----- --- ------ ----- --<br>----- ----- ---------- --- the ------ ------ ---- -- ------<br>------- --- ------ ----- --- ---- ------- -- ---- --- --<br>------- ------,192471,192465,192236,192220,192252,192505,,37,the
screen,html.Screen,1_1_1_1_38,2021-03-25T15:18:13.154Z,,,,,,,,,,,,,,,,54,,,,,,,,,,,,,,561,response,,,,100,,,,,,Space,keypress(Space),,,,,,,,-- --- ---- --- ------ ----- ------- ---- -- --- ------- --<br>------- ---------- ------ -- ----- -- ----- -- ---- ------<br>--- ----- --- --- ------ -------- ----- --- ------ ----- --<br>----- ----- ---------- --- --- market ------ ---- -- ------<br>------- --- ------ ----- --- ---- ------- -- ---- --- --<br>------- ------,193056,193049,192488,192471,192505,193091,,38,market
screen,html.Screen,1_1_1_1_39,2021-03-25T15:18:13.429Z,,,,,,,,,,,,,,,,54,,,,,,,,,,,,,,251.0000000000291,response,,,,100,,,,,,Space,keypress(Space),,,,,,,,-- --- ---- --- ------ ----- ------- ---- -- --- ------- --<br>------- ---------- ------ -- ----- -- ----- -- ---- ------<br>--- ----- --- --- ------ -------- ----- --- ------ ----- --<br>----- ----- ---------- --- --- ------ became ---- -- ------<br>------- --- ------ ----- --- ---- ------- -- ---- --- --<br>------- ------,193331.00000000003,193325.00000000003,193074,193056,193091,193361,,39,became
screen,html.Screen,1_1_1_1_40,2021-03-25T15:18:13.703Z,,,,,,,,,,,,,,,,54,,,,,,,,,,,,,,256.0000000000291,response,,,,100,,,,,,Space,keypress(Space),,,,,,,,-- --- ---- --- ------ ----- ------- ---- -- --- ------- --<br>------- ---------- ------ -- ----- -- ----- -- ---- ------<br>--- ----- --- --- ------ -------- ----- --- ------ ----- --<br>----- ----- ---------- --- --- ------ ------ wary -- ------<br>------- --- ------ ----- --- ---- ------- -- ---- --- --<br>------- ------,193605.00000000003,193599.00000000003,193343,193331.00000000003,193361,193630,,40,wary
screen,html.Screen,1_1_1_1_41,2021-03-25T15:18:14.056Z,,,,,,,,,,,,,,,,54,,,,,,,,,,,,,,338,response,,,,100,,,,,,Space,keypress(Space),,,,,,,,-- --- ---- --- ------ ----- ------- ---- -- --- ------- --<br>------- ---------- ------ -- ----- -- ----- -- ---- ------<br>--- ----- --- --- ------ -------- ----- --- ------ ----- --<br>----- ----- ---------- --- --- ------ ------ ---- of ------<br>------- --- ------ ----- --- ---- ------- -- ---- --- --<br>------- ------,193958,193952,193614,193605.00000000003,193630,193983,,41,of
screen,html.Screen,1_1_1_1_42,2021-03-25T15:18:14.401Z,,,,,,,,,,,,,,,,54,,,,,,,,,,,,,,330,response,,,,100,,,,,,Space,keypress(Space),,,,,,,,-- --- ---- --- ------ ----- ------- ---- -- --- ------- --<br>------- ---------- ------ -- ----- -- ----- -- ---- ------<br>--- ----- --- --- ------ -------- ----- --- ------ ----- --<br>----- ----- ---------- --- --- ------ ------ ---- -- French<br>------- --- ------ ----- --- ---- ------- -- ---- --- --<br>------- ------,194303,194296,193966,193958,193983,194336,,42,French
screen,html.Screen,1_1_1_1_43,2021-03-25T15:18:14.725Z,,,,,,,,,,,,,,,,54,,,,,,,,,,,,,,301,response,,,,100,,,,,,Space,keypress(Space),,,,,,,,-- --- ---- --- ------ ----- ------- ---- -- --- ------- --<br>------- ---------- ------ -- ----- -- ----- -- ---- ------<br>--- ----- --- --- ------ -------- ----- --- ------ ----- --<br>----- ----- ---------- --- --- ------ ------ ---- -- ------<br>credit. --- ------ ----- --- ---- ------- -- ---- --- --<br>------- ------,194627,194620,194319,194303,194336,194655,,43,credit.
screen,html.Screen,1_1_1_1_44,2021-03-25T15:18:15.294Z,,,,,,,,,,,,,,,,54,,,,,,,,,,,,,,550,response,,,,100,,,,,,Space,keypress(Space),,,,,,,,-- --- ---- --- ------ ----- ------- ---- -- --- ------- --<br>------- ---------- ------ -- ----- -- ----- -- ---- ------<br>--- ----- --- --- ------ -------- ----- --- ------ ----- --<br>----- ----- ---------- --- --- ------ ------ ---- -- ------<br>------- The ------ ----- --- ---- ------- -- ---- --- --<br>------- ------,195196,195189,194639,194627,194655,195224,,44,The
screen,html.Screen,1_1_1_1_45,2021-03-25T15:18:15.608Z,,,,,,,,,,,,,,,,54,,,,,,,,,,,,,,296,response,,,,100,,,,,,Space,keypress(Space),,,,,,,,-- --- ---- --- ------ ----- ------- ---- -- --- ------- --<br>------- ---------- ------ -- ----- -- ----- -- ---- ------<br>--- ----- --- --- ------ -------- ----- --- ------ ----- --<br>----- ----- ---------- --- --- ------ ------ ---- -- ------<br>------- --- French ----- --- ---- ------- -- ---- --- --<br>------- ------,195510,195503,195207,195196,195224,195543,,45,French
screen,html.Screen,1_1_1_1_46,2021-03-25T15:18:15.934Z,,,,,,,,,,,,,,,,54,,,,,,,,,,,,,,302,response,,,,100,,,,,,Space,keypress(Space),,,,,,,,-- --- ---- --- ------ ----- ------- ---- -- --- ------- --<br>------- ---------- ------ -- ----- -- ----- -- ---- ------<br>--- ----- --- --- ------ -------- ----- --- ------ ----- --<br>----- ----- ---------- --- --- ------ ------ ---- -- ------<br>------- --- ------ state --- ---- ------- -- ---- --- --<br>------- ------,195836,195829,195527,195510,195543,195863,,46,state
screen,html.Screen,1_1_1_1_47,2021-03-25T15:18:16.451Z,,,,,,,,,,,,,,,,54,,,,,,,,,,,,,,500,response,,,,100,,,,,,Space,keypress(Space),,,,,,,,-- --- ---- --- ------ ----- ------- ---- -- --- ------- --<br>------- ---------- ------ -- ----- -- ----- -- ---- ------<br>--- ----- --- --- ------ -------- ----- --- ------ ----- --<br>----- ----- ---------- --- --- ------ ------ ---- -- ------<br>------- --- ------ ----- was ---- ------- -- ---- --- --<br>------- ------,196353,196346,195846,195836,195863,196382,,47,was
screen,html.Screen,1_1_1_1_48,2021-03-25T15:18:17.016Z,,,,,,,,,,,,,,,,54,,,,,,,,,,,,,,546,response,,,,100,,,,,,Space,keypress(Space),,,,,,,,-- --- ---- --- ------ ----- ------- ---- -- --- ------- --<br>------- ---------- ------ -- ----- -- ----- -- ---- ------<br>--- ----- --- --- ------ -------- ----- --- ------ ----- --<br>----- ----- ---------- --- --- ------ ------ ---- -- ------<br>------- --- ------ ----- --- left ------- -- ---- --- --<br>------- ------,196918,196911,196365,196353,196382,196951,,48,left
screen,html.Screen,1_1_1_1_49,2021-03-25T15:18:17.451Z,,,,,,,,,,,,,,,,54,,,,,,,,,,,,,,411,response,,,,100,,,,,,Space,keypress(Space),,,,,,,,-- --- ---- --- ------ ----- ------- ---- -- --- ------- --<br>------- ---------- ------ -- ----- -- ----- -- ---- ------<br>--- ----- --- --- ------ -------- ----- --- ------ ----- --<br>----- ----- ---------- --- --- ------ ------ ---- -- ------<br>------- --- ------ ----- --- ---- without -- ---- --- --<br>------- ------,197353,197346,196935,196918,196951,197387,,49,without
screen,html.Screen,1_1_1_1_50,2021-03-25T15:18:17.873Z,,,,,,,,,,,,,,,,54,,,,,,,,,,,,,,397,response,,,,100,,,,,,Space,keypress(Space),,,,,,,,-- --- ---- --- ------ ----- ------- ---- -- --- ------- --<br>------- ---------- ------ -- ----- -- ----- -- ---- ------<br>--- ----- --- --- ------ -------- ----- --- ------ ----- --<br>----- ----- ---------- --- --- ------ ------ ---- -- ------<br>------- --- ------ ----- --- ---- ------- an ---- --- --<br>------- ------,197775,197768,197371,197353,197387,197807,,50,an
screen,html.Screen,1_1_1_1_51,2021-03-25T15:18:18.232Z,,,,,,,,,,,,,,,,54,,,,,,,,,,,,,,338,response,,,,100,,,,,,Space,keypress(Space),,,,,,,,-- --- ---- --- ------ ----- ------- ---- -- --- ------- --<br>------- ---------- ------ -- ----- -- ----- -- ---- ------<br>--- ----- --- --- ------ -------- ----- --- ------ ----- --<br>----- ----- ---------- --- --- ------ ------ ---- -- ------<br>------- --- ------ ----- --- ---- ------- -- easy --- --<br>------- ------,198134,198127,197789,197775,197807,198159,,51,easy
screen,html.Screen,1_1_1_1_52,2021-03-25T15:18:18.567Z,,,,,,,,,,,,,,,,54,,,,,,,,,,,,,,319.0000000000291,response,,,,100,,,,,,Space,keypress(Space),,,,,,,,-- --- ---- --- ------ ----- ------- ---- -- --- ------- --<br>------- ---------- ------ -- ----- -- ----- -- ---- ------<br>--- ----- --- --- ------ -------- ----- --- ------ ----- --<br>----- ----- ---------- --- --- ------ ------ ---- -- ------<br>------- --- ------ ----- --- ---- ------- -- ---- way --<br>------- ------,198469,198462.00000000003,198143,198134,198159,198496,,52,way
screen,html.Screen,1_1_1_1_53,2021-03-25T15:18:18.876Z,,,,,,,,,,,,,,,,54,,,,,,,,,,,,,,292.0000000000291,response,,,,100,,,,,,Space,keypress(Space),,,,,,,,-- --- ---- --- ------ ----- ------- ---- -- --- ------- --<br>------- ---------- ------ -- ----- -- ----- -- ---- ------<br>--- ----- --- --- ------ -------- ----- --- ------ ----- --<br>----- ----- ---------- --- --- ------ ------ ---- -- ------<br>------- --- ------ ----- --- ---- ------- -- ---- --- of<br>------- ------,198778,198771.00000000003,198479,198469,198496,198798,,53,of
screen,html.Screen,1_1_1_1_54,2021-03-25T15:18:19.176Z,,,,,,,,,,,,,,,,54,,,,,,,,,,,,,,289,response,,,,100,,,,,,Space,keypress(Space),,,,,,,,-- --- ---- --- ------ ----- ------- ---- -- --- ------- --<br>------- ---------- ------ -- ----- -- ----- -- ---- ------<br>--- ----- --- --- ------ -------- ----- --- ------ ----- --<br>----- ----- ---------- --- --- ------ ------ ---- -- ------<br>------- --- ------ ----- --- ---- ------- -- ---- --- --<br>raising ------,199078,199071,198782,198778,198798,199100,,54,raising
screen,html.Screen,1_1_1_1_55,2021-03-25T15:18:19.723Z,,,,,,,,,,,,,,,,54,,,,,,,,,,,,,,534,response,,,,100,,,,,,Space,keypress(Space),,,,,,,,-- --- ---- --- ------ ----- ------- ---- -- --- ------- --<br>------- ---------- ------ -- ----- -- ----- -- ---- ------<br>--- ----- --- --- ------ -------- ----- --- ------ ----- --<br>----- ----- ---------- --- --- ------ ------ ---- -- ------<br>------- --- ------ ----- --- ---- ------- -- ---- --- --<br>------- money.,199625,199618,199084,199078,199100,199653,,55,money.
Item 100,flow.Loop,1_1_1_1,2021-03-25T15:18:19.723Z,,,,,,,,,,,,,,,,,,,,,,,,,,,,,,23839,completion,,,,,A,,,,,,,,,,silence,,,,,199625,199618,175762,175762,175779,199653,,,
Question 1,html.Screen,1_1_1_2,2021-03-25T15:18:24.628Z,,,,,,,,,,,,,,,,,,,,,,,,,,,false,TRUE,,4889,response,,,,100,A,,,,,FALSE,click #choice-2,,,,silence,,,,,204530,204525,199636,199625,199653,204558,,,
Question 2,html.Screen,1_1_1_3,2021-03-25T15:18:27.285Z,,,,,,,,,,,,,,,,,,,,,,,,,,,true,FALSE,,2642.000000000029,response,,,,100,A,,,,,FALSE,click #choice-2,,,,silence,,,,,207187,207182.00000000003,204540,204530,204558,207222,,,
Item 100,flow.Sequence,1_1_1,2021-03-25T15:18:27.285Z,,,,,,,,,,,,,,,,,,,,,,,,,,,,,,38405.00000000003,completion,,,,,,,,,,,,,,,,,,,,207187,207182.00000000003,168759,168741,168777,207222,,,
End of Practice,html.Page,1_1_2,2021-03-25T15:18:34.300Z,,,,,,,,,,,,,,,,,,,,,,,,,,,,,,6979,form submission,,,,,,,,,,,,,,,,,,,,214201,214201,207204,207187,207222,214231,,,
Practice,flow.Sequence,1_1,2021-03-25T15:18:34.300Z,,,,,,,,,,,,,,,,,,,,,,,,,,,,,,91763,completion,,,,,,,,,,,,,,,,,,,,214202,214201,122420,122398,122438,214231,,,
Trap_instruction,html.Page,1_2_0,2021-03-25T15:18:38.886Z,,,,,,,,,,,,,,,,,,,,,,,,,,,,,,4557,form submission,,,,,,,,,,,,,,,,,,,,218788,218788,214215,214202,214231,218898,,,
trap_trial,html.Screen,1_2_1,2021-03-25T15:18:44.041Z,,,,,,,,,,,,,,,,,,,,,,,,,,,true,1,,5053.000000000029,response,,,,,,,,,,1,click #choice-1,,,,,,,,,223943,223938.00000000003,218885,218788,218898,223988,,,
end of trap trial,html.Page,1_2_2,2021-03-25T15:18:48.330Z,,,,,,,,,,,,,,,,,,,,,,,,,,,,,,4243,form submission,,,,,,,,,,,,,,,,,,,,228232,228231,223984,223943,223988,228254,,,
Trap 1,flow.Sequence,1_2,2021-03-25T15:18:48.330Z,,,,,,,,,,,,,,,,,,,,,,,,,,,,,,14000,completion,,,,,,,,,,,,,,,,,,,,228232,228231,214215,214202,214231,228254,,,
Holding screen,html.Screen,1_3_0_0,2021-03-25T15:18:55.331Z,,,,,,,,,,,,,,,,,,,,,,,,,,,,,,6995,timeout,,,,,,,,,,,,,,,,,,,,235233,235233,228239,228232,228254,235249,,,
screen,html.Screen,1_3_0_1_0,2021-03-25T15:18:57.530Z,,,,,,,,,,,,,,,,2,,,,,,,,,,,,,,2190,response,,,,1,A,,,,,Space,keypress(Space),,,,silence,,,,Two ---- ------ --- ------- ---------- ------- ----------<br>--- --------- --- ----------- ------- ----- ------- ---<br>--------- ---- -- --- ---- -- --------- -- ---- -------<br>-- --------- ------ --- ----- ------ ---- --- --------- --<br>------ - ---- -- --- ----------- ------- ---- ----- -----<br>--- -------- - ------ ---- -- ----- ---- --- --- -----------<br>-- -------,237431,237423,235233,235233,235249,237468,,0,Two
screen,html.Screen,1_3_0_1_1,2021-03-25T15:18:58.328Z,,,,,,,,,,,,,,,,2,,,,,,,,,,,,,,771,response,,,,1,A,,,,,Space,keypress(Space),,,,silence,,,,--- days ------ --- ------- ---------- ------- ----------<br>--- --------- --- ----------- ------- ----- ------- ---<br>--------- ---- -- --- ---- -- --------- -- ---- -------<br>-- --------- ------ --- ----- ------ ---- --- --------- --<br>------ - ---- -- --- ----------- ------- ---- ----- -----<br>--- -------- - ------ ---- -- ----- ---- --- --- -----------<br>-- -------,238229,238223,237452,237431,237468,238260,,1,days
screen,html.Screen,1_3_0_1_2,2021-03-25T15:18:58.881Z,,,,,,,,,,,,,,,,2,,,,,,,,,,,,,,532,response,,,,1,A,,,,,Space,keypress(Space),,,,silence,,,,"--- ---- later, --- ------- ---------- ------- ----------<br>--- --------- --- ----------- ------- ----- ------- ---<br>--------- ---- -- --- ---- -- --------- -- ---- -------<br>-- --------- ------ --- ----- ------ ---- --- --------- --<br>------ - ---- -- --- ----------- ------- ---- ----- -----<br>--- -------- - ------ ---- -- ----- ---- --- --- -----------<br>-- -------",238782,238776,238244,238230.00000000003,238260,238814,,2,"later,"
screen,html.Screen,1_3_0_1_3,2021-03-25T15:18:59.403Z,,,,,,,,,,,,,,,,2,,,,,,,,,,,,,,502,response,,,,1,A,,,,,Space,keypress(Space),,,,silence,,,,--- ---- ------ the ------- ---------- ------- ----------<br>--- --------- --- ----------- ------- ----- ------- ---<br>--------- ---- -- --- ---- -- --------- -- ---- -------<br>-- --------- ------ --- ----- ------ ---- --- --------- --<br>------ - ---- -- --- ----------- ------- ---- ----- -----<br>--- -------- - ------ ---- -- ----- ---- --- --- -----------<br>-- -------,239305,239298,238796,238783.00000000003,238814,239333,,3,the
screen,html.Screen,1_3_0_1_4,2021-03-25T15:18:59.865Z,,,,,,,,,,,,,,,,2,,,,,,,,,,,,,,444,response,,,,1,A,,,,,Space,keypress(Space),,,,silence,,,,--- ---- ------ --- British ---------- ------- ----------<br>--- --------- --- ----------- ------- ----- ------- ---<br>--------- ---- -- --- ---- -- --------- -- ---- -------<br>-- --------- ------ --- ----- ------ ---- --- --------- --<br>------ - ---- -- --- ----------- ------- ---- ----- -----<br>--- -------- - ------ ---- -- ----- ---- --- --- -----------<br>-- -------,239766,239760,239316,239305,239333,239803,,4,British
screen,html.Screen,1_3_0_1_5,2021-03-25T15:19:00.431Z,,,,,,,,,,,,,,,,2,,,,,,,,,,,,,,541,response,,,,1,A,,,,,Space,keypress(Space),,,,silence,,,,--- ---- ------ --- ------- astronomer ------- ----------<br>--- --------- --- ----------- ------- ----- ------- ---<br>--------- ---- -- --- ---- -- --------- -- ---- -------<br>-- --------- ------ --- ----- ------ ---- --- --------- --<br>------ - ---- -- --- ----------- ------- ---- ----- -----<br>--- -------- - ------ ---- -- ----- ---- --- --- -----------<br>-- -------,240333,240326,239785,239767,239803,240372,,5,astronomer
screen,html.Screen,1_3_0_1_6,2021-03-25T15:19:00.928Z,,,,,,,,,,,,,,,,2,,,,,,,,,,,,,,468,response,,,,1,A,,,,,Space,keypress(Space),,,,silence,,,,--- ---- ------ --- ------- ---------- Richard ----------<br>--- --------- --- ----------- ------- ----- ------- ---<br>--------- ---- -- --- ---- -- --------- -- ---- -------<br>-- --------- ------ --- ----- ------ ---- --- --------- --<br>------ - ---- -- --- ----------- ------- ---- ----- -----<br>--- -------- - ------ ---- -- ----- ---- --- --- -----------<br>-- -------,240829,240823,240355,240333,240372,240857,,6,Richard
screen,html.Screen,1_3_0_1_7,2021-03-25T15:19:01.408Z,,,,,,,,,,,,,,,,2,,,,,,,,,,,,,,462,response,,,,1,A,,,,,Space,keypress(Space),,,,silence,,,,--- ---- ------ --- ------- ---------- ------- Carrington<br>--- --------- --- ----------- ------- ----- ------- ---<br>--------- ---- -- --- ---- -- --------- -- ---- -------<br>-- --------- ------ --- ----- ------ ---- --- --------- --<br>------ - ---- -- --- ----------- ------- ---- ----- -----<br>--- -------- - ------ ---- -- ----- ---- --- --- -----------<br>-- -------,241309,241303,240841,240830,240857,241344,,7,Carrington
screen,html.Screen,1_3_0_1_8,2021-03-25T15:19:01.861Z,,,,,,,,,,,,,,,,2,,,,,,,,,,,,,,429,response,,,,1,A,,,,,Space,keypress(Space),,,,silence,,,,--- ---- ------ --- ------- ---------- ------- ----------<br>was --------- --- ----------- ------- ----- ------- ---<br>--------- ---- -- --- ---- -- --------- -- ---- -------<br>-- --------- ------ --- ----- ------ ---- --- --------- --<br>------ - ---- -- --- ----------- ------- ---- ----- -----<br>--- -------- - ------ ---- -- ----- ---- --- --- -----------<br>-- -------,241762,241756,241327,241310,241344,241797,,8,was
screen,html.Screen,1_3_0_1_9,2021-03-25T15:19:02.487Z,,,,,,,,,,,,,,,,2,,,,,,,,,,,,,,602,response,,,,1,A,,,,,Space,keypress(Space),,,,silence,,,,--- ---- ------ --- ------- ---------- ------- ----------<br>--- observing --- ----------- ------- ----- ------- ---<br>--------- ---- -- --- ---- -- --------- -- ---- -------<br>-- --------- ------ --- ----- ------ ---- --- --------- --<br>------ - ---- -- --- ----------- ------- ---- ----- -----<br>--- -------- - ------ ---- -- ----- ---- --- --- -----------<br>-- -------,242388,242382,241780,241762,241797,242416,,9,observing
screen,html.Screen,1_3_0_1_10,2021-03-25T15:19:02.959Z,,,,,,,,,,,,,,,,2,,,,,,,,,,,,,,455,response,,,,1,A,,,,,Space,keypress(Space),,,,silence,,,,--- ---- ------ --- ------- ---------- ------- ----------<br>--- --------- the ----------- ------- ----- ------- ---<br>--------- ---- -- --- ---- -- --------- -- ---- -------<br>-- --------- ------ --- ----- ------ ---- --- --------- --<br>------ - ---- -- --- ----------- ------- ---- ----- -----<br>--- -------- - ------ ---- -- ----- ---- --- --- -----------<br>-- -------,242860,242854,242399,242389,242416,242903,,10,the
screen,html.Screen,1_3_0_1_11,2021-03-25T15:19:03.450Z,,,,,,,,,,,,,,,,2,,,,,,,,,,,,,,459,response,,,,1,A,,,,,Space,keypress(Space),,,,silence,,,,--- ---- ------ --- ------- ---------- ------- ----------<br>--- --------- --- interesting ------- ----- ------- ---<br>--------- ---- -- --- ---- -- --------- -- ---- -------<br>-- --------- ------ --- ----- ------ ---- --- --------- --<br>------ - ---- -- --- ----------- ------- ---- ----- -----<br>--- -------- - ------ ---- -- ----- ---- --- --- -----------<br>-- -------,243351,243345,242886,242860,242903,243388,,11,interesting
screen,html.Screen,1_3_0_1_12,2021-03-25T15:19:04.090Z,,,,,,,,,,,,,,,,2,,,,,,,,,,,,,,613,response,,,,1,A,,,,,Space,keypress(Space),,,,silence,,,,--- ---- ------ --- ------- ---------- ------- ----------<br>--- --------- --- ----------- sunspot ----- ------- ---<br>--------- ---- -- --- ---- -- --------- -- ---- -------<br>-- --------- ------ --- ----- ------ ---- --- --------- --<br>------ - ---- -- --- ----------- ------- ---- ----- -----<br>--- -------- - ------ ---- -- ----- ---- --- --- -----------<br>-- -------,243991,243985,243372,243351,243388,244025,,12,sunspot
screen,html.Screen,1_3_0_1_13,2021-03-25T15:19:04.491Z,,,,,,,,,,,,,,,,2,,,,,,,,,,,,,,378,response,,,,1,A,,,,,Space,keypress(Space),,,,silence,,,,--- ---- ------ --- ------- ---------- ------- ----------<br>--- --------- --- ----------- ------- group ------- ---<br>--------- ---- -- --- ---- -- --------- -- ---- -------<br>-- --------- ------ --- ----- ------ ---- --- --------- --<br>------ - ---- -- --- ----------- ------- ---- ----- -----<br>--- -------- - ------ ---- -- ----- ---- --- --- -----------<br>-- -------,244392,244386,244008,243991,244025,244411,,13,group
screen,html.Screen,1_3_0_1_14,2021-03-25T15:19:05.099Z,,,,,,,,,,,,,,,,2,,,,,,,,,,,,,,601,response,,,,1,A,,,,,Space,keypress(Space),,,,silence,,,,--- ---- ------ --- ------- ---------- ------- ----------<br>--- --------- --- ----------- ------- ----- through ---<br>--------- ---- -- --- ---- -- --------- -- ---- -------<br>-- --------- ------ --- ----- ------ ---- --- --------- --<br>------ - ---- -- --- ----------- ------- ---- ----- -----<br>--- -------- - ------ ---- -- ----- ---- --- --- -----------<br>-- -------,245000,244994,244393,244392,244411,245030,,14,through
screen,html.Screen,1_3_0_1_15,2021-03-25T15:19:05.949Z,,,,,,,,,,,,,,,,2,,,,,,,,,,,,,,830,response,,,,1,A,,,,,Space,keypress(Space),,,,silence,,,,--- ---- ------ --- ------- ---------- ------- ----------<br>--- --------- --- ----------- ------- ----- ------- his<br>--------- ---- -- --- ---- -- --------- -- ---- -------<br>-- --------- ------ --- ----- ------ ---- --- --------- --<br>------ - ---- -- --- ----------- ------- ---- ----- -----<br>--- -------- - ------ ---- -- ----- ---- --- --- -----------<br>-- -------,245850,245844,245014,245001,245030,245883,,15,his
screen,html.Screen,1_3_0_1_16,2021-03-25T15:19:06.304Z,,,,,,,,,,,,,,,,2,,,,,,,,,,,,,,333,response,,,,1,A,,,,,Space,keypress(Space),,,,silence,,,,--- ---- ------ --- ------- ---------- ------- ----------<br>--- --------- --- ----------- ------- ----- ------- ---<br>telescope ---- -- --- ---- -- --------- -- ---- -------<br>-- --------- ------ --- ----- ------ ---- --- --------- --<br>------ - ---- -- --- ----------- ------- ---- ----- -----<br>--- -------- - ------ ---- -- ----- ---- --- --- -----------<br>-- -------,246205,246199,245866,245850,245883,246235,,16,telescope
screen,html.Screen,1_3_0_1_17,2021-03-25T15:19:06.775Z,,,,,,,,,,,,,,,,2,,,,,,,,,,,,,,451.0000000000291,response,,,,1,A,,,,,Space,keypress(Space),,,,silence,,,,--- ---- ------ --- ------- ---------- ------- ----------<br>--- --------- --- ----------- ------- ----- ------- ---<br>--------- when -- --- ---- -- --------- -- ---- -------<br>-- --------- ------ --- ----- ------ ---- --- --------- --<br>------ - ---- -- --- ----------- ------- ---- ----- -----<br>--- -------- - ------ ---- -- ----- ---- --- --- -----------<br>-- -------,246676.00000000003,246670.00000000003,246219,246205,246235,246705,,17,when
screen,html.Screen,1_3_0_1_18,2021-03-25T15:19:07.132Z,,,,,,,,,,,,,,,,2,,,,,,,,,,,,,,339.0000000000291,response,,,,1,A,,,,,Space,keypress(Space),,,,silence,,,,--- ---- ------ --- ------- ---------- ------- ----------<br>--- --------- --- ----------- ------- ----- ------- ---<br>--------- ---- he --- ---- -- --------- -- ---- -------<br>-- --------- ------ --- ----- ------ ---- --- --------- --<br>------ - ---- -- --- ----------- ------- ---- ----- -----<br>--- -------- - ------ ---- -- ----- ---- --- --- -----------<br>-- -------,247034,247027.00000000003,246688,246676.00000000003,246705,247057,,18,he
screen,html.Screen,1_3_0_1_19,2021-03-25T15:19:07.477Z,,,,,,,,,,,,,,,,2,,,,,,,,,,,,,,331,response,,,,1,A,,,,,Space,keypress(Space),,,,silence,,,,--- ---- ------ --- ------- ---------- ------- ----------<br>--- --------- --- ----------- ------- ----- ------- ---<br>--------- ---- -- saw ---- -- --------- -- ---- -------<br>-- --------- ------ --- ----- ------ ---- --- --------- --<br>------ - ---- -- --- ----------- ------- ---- ----- -----<br>--- -------- - ------ ---- -- ----- ---- --- --- -----------<br>-- -------,247379.00000000003,247372,247041,247034,247057,247410,,19,saw
screen,html.Screen,1_3_0_1_20,2021-03-25T15:19:07.810Z,,,,,,,,,,,,,,,,2,,,,,,,,,,,,,,311,response,,,,1,A,,,,,Space,keypress(Space),,,,silence,,,,--- ---- ------ --- ------- ---------- ------- ----------<br>--- --------- --- ----------- ------- ----- ------- ---<br>--------- ---- -- --- what -- --------- -- ---- -------<br>-- --------- ------ --- ----- ------ ---- --- --------- --<br>------ - ---- -- --- ----------- ------- ---- ----- -----<br>--- -------- - ------ ---- -- ----- ---- --- --- -----------<br>-- -------,247711,247705,247394,247379.00000000003,247410,247729,,20,what
screen,html.Screen,1_3_0_1_21,2021-03-25T15:19:08.147Z,,,,,,,,,,,,,,,,2,,,,,,,,,,,,,,330,response,,,,1,A,,,,,Space,keypress(Space),,,,silence,,,,--- ---- ------ --- ------- ---------- ------- ----------<br>--- --------- --- ----------- ------- ----- ------- ---<br>--------- ---- -- --- ---- he --------- -- ---- -------<br>-- --------- ------ --- ----- ------ ---- --- --------- --<br>------ - ---- -- --- ----------- ------- ---- ----- -----<br>--- -------- - ------ ---- -- ----- ---- --- --- -----------<br>-- -------,248048,248042,247712,247712.00000000003,247729,248081,,21,he
screen,html.Screen,1_3_0_1_22,2021-03-25T15:19:08.463Z,,,,,,,,,,,,,,,,2,,,,,,,,,,,,,,292,response,,,,1,A,,,,,Space,keypress(Space),,,,silence,,,,--- ---- ------ --- ------- ---------- ------- ----------<br>--- --------- --- ----------- ------- ----- ------- ---<br>--------- ---- -- --- ---- -- described -- ---- -------<br>-- --------- ------ --- ----- ------ ---- --- --------- --<br>------ - ---- -- --- ----------- ------- ---- ----- -----<br>--- -------- - ------ ---- -- ----- ---- --- --- -----------<br>-- -------,248364,248358,248066,248048,248081,248385,,22,described
screen,html.Screen,1_3_0_1_23,2021-03-25T15:19:08.827Z,,,,,,,,,,,,,,,,2,,,,,,,,,,,,,,354,response,,,,1,A,,,,,Space,keypress(Space),,,,silence,,,,--- ---- ------ --- ------- ---------- ------- ----------<br>--- --------- --- ----------- ------- ----- ------- ---<br>--------- ---- -- --- ---- -- --------- as ---- -------<br>-- --------- ------ --- ----- ------ ---- --- --------- --<br>------ - ---- -- --- ----------- ------- ---- ----- -----<br>--- -------- - ------ ---- -- ----- ---- --- --- -----------<br>-- -------,248729,248722,248368,248364,248385,248754,,23,as
screen,html.Screen,1_3_0_1_24,2021-03-25T15:19:09.128Z,,,,,,,,,,,,,,,,2,,,,,,,,,,,,,,286,response,,,,1,A,,,,,Space,keypress(Space),,,,silence,,,,"--- ---- ------ --- ------- ---------- ------- ----------<br>--- --------- --- ----------- ------- ----- ------- ---<br>--------- ---- -- --- ---- -- --------- -- ""two -------<br>-- --------- ------ --- ----- ------ ---- --- --------- --<br>------ - ---- -- --- ----------- ------- ---- ----- -----<br>--- -------- - ------ ---- -- ----- ---- --- --- -----------<br>-- -------",249029,249023,248737,248729,248754,249057,,24,"""two"
screen,html.Screen,1_3_0_1_25,2021-03-25T15:19:09.692Z,,,,,,,,,,,,,,,,2,,,,,,,,,,,,,,547.0000000000291,response,,,,1,A,,,,,Space,keypress(Space),,,,silence,,,,--- ---- ------ --- ------- ---------- ------- ----------<br>--- --------- --- ----------- ------- ----- ------- ---<br>--------- ---- -- --- ---- -- --------- -- ---- patches<br>-- --------- ------ --- ----- ------ ---- --- --------- --<br>------ - ---- -- --- ----------- ------- ---- ----- -----<br>--- -------- - ------ ---- -- ----- ---- --- --- -----------<br>-- -------,249593.00000000003,249587.00000000003,249040,249029,249057,249626,,25,patches
screen,html.Screen,1_3_0_1_26,2021-03-25T15:19:10.012Z,,,,,,,,,,,,,,,,2,,,,,,,,,,,,,,298,response,,,,1,A,,,,,Space,keypress(Space),,,,silence,,,,--- ---- ------ --- ------- ---------- ------- ----------<br>--- --------- --- ----------- ------- ----- ------- ---<br>--------- ---- -- --- ---- -- --------- -- ---- -------<br>of --------- ------ --- ----- ------ ---- --- --------- --<br>------ - ---- -- --- ----------- ------- ---- ----- -----<br>--- -------- - ------ ---- -- ----- ---- --- --- -----------<br>-- -------,249913,249907,249609,249594,249626,249945,,26,of
screen,html.Screen,1_3_0_1_27,2021-03-25T15:19:10.488Z,,,,,,,,,,,,,,,,2,,,,,,,,,,,,,,454,response,,,,1,A,,,,,Space,keypress(Space),,,,silence,,,,--- ---- ------ --- ------- ---------- ------- ----------<br>--- --------- --- ----------- ------- ----- ------- ---<br>--------- ---- -- --- ---- -- --------- -- ---- -------<br>-- intensely ------ --- ----- ------ ---- --- --------- --<br>------ - ---- -- --- ----------- ------- ---- ----- -----<br>--- -------- - ------ ---- -- ----- ---- --- --- -----------<br>-- -------,250389,250383,249929,249914.00000000003,249945,250430,,27,intensely
screen,html.Screen,1_3_0_1_28,2021-03-25T15:19:10.872Z,,,,,,,,,,,,,,,,2,,,,,,,,,,,,,,352,response,,,,1,A,,,,,Space,keypress(Space),,,,silence,,,,--- ---- ------ --- ------- ---------- ------- ----------<br>--- --------- --- ----------- ------- ----- ------- ---<br>--------- ---- -- --- ---- -- --------- -- ---- -------<br>-- --------- bright --- ----- ------ ---- --- --------- --<br>------ - ---- -- --- ----------- ------- ---- ----- -----<br>--- -------- - ------ ---- -- ----- ---- --- --- -----------<br>-- -------,250773,250767,250415,250389,250430,250801,,28,bright
screen,html.Screen,1_3_0_1_29,2021-03-25T15:19:11.202Z,,,,,,,,,,,,,,,,2,,,,,,,,,,,,,,314,response,,,,1,A,,,,,Space,keypress(Space),,,,silence,,,,--- ---- ------ --- ------- ---------- ------- ----------<br>--- --------- --- ----------- ------- ----- ------- ---<br>--------- ---- -- --- ---- -- --------- -- ---- -------<br>-- --------- ------ and ----- ------ ---- --- --------- --<br>------ - ---- -- --- ----------- ------- ---- ----- -----<br>--- -------- - ------ ---- -- ----- ---- --- --- -----------<br>-- -------,251103,251097,250783,250773,250801,251137,,29,and
screen,html.Screen,1_3_0_1_30,2021-03-25T15:19:11.514Z,,,,,,,,,,,,,,,,2,,,,,,,,,,,,,,289,response,,,,1,A,,,,,Space,keypress(Space),,,,silence,,,,--- ---- ------ --- ------- ---------- ------- ----------<br>--- --------- --- ----------- ------- ----- ------- ---<br>--------- ---- -- --- ---- -- --------- -- ---- -------<br>-- --------- ------ --- white ------ ---- --- --------- --<br>------ - ---- -- --- ----------- ------- ---- ----- -----<br>--- -------- - ------ ---- -- ----- ---- --- --- -----------<br>-- -------,251415,251409,251120,251103,251137,251439,,30,white
screen,html.Screen,1_3_0_1_31,2021-03-25T15:19:11.885Z,,,,,,,,,,,,,,,,2,,,,,,,,,,,,,,356,response,,,,1,A,,,,,Space,keypress(Space),,,,silence,,,,"--- ---- ------ --- ------- ---------- ------- ----------<br>--- --------- --- ----------- ------- ----- ------- ---<br>--------- ---- -- --- ---- -- --------- -- ---- -------<br>-- --------- ------ --- ----- light"" ---- --- --------- --<br>------ - ---- -- --- ----------- ------- ---- ----- -----<br>--- -------- - ------ ---- -- ----- ---- --- --- -----------<br>-- -------",251786,251779,251423,251415,251439,251809,,31,"light"""
screen,html.Screen,1_3_0_1_32,2021-03-25T15:19:12.328Z,,,,,,,,,,,,,,,,2,,,,,,,,,,,,,,431,response,,,,1,A,,,,,Space,keypress(Space),,,,silence,,,,--- ---- ------ --- ------- ---------- ------- ----------<br>--- --------- --- ----------- ------- ----- ------- ---<br>--------- ---- -- --- ---- -- --------- -- ---- -------<br>-- --------- ------ --- ----- ------ over --- --------- --<br>------ - ---- -- --- ----------- ------- ---- ----- -----<br>--- -------- - ------ ---- -- ----- ---- --- --- -----------<br>-- -------,252229,252223,251792,251786,251809,252260,,32,over
screen,html.Screen,1_3_0_1_33,2021-03-25T15:19:12.643Z,,,,,,,,,,,,,,,,2,,,,,,,,,,,,,,294,response,,,,1,A,,,,,Space,keypress(Space),,,,silence,,,,--- ---- ------ --- ------- ---------- ------- ----------<br>--- --------- --- ----------- ------- ----- ------- ---<br>--------- ---- -- --- ---- -- --------- -- ---- -------<br>-- --------- ------ --- ----- ------ ---- the --------- --<br>------ - ---- -- --- ----------- ------- ---- ----- -----<br>--- -------- - ------ ---- -- ----- ---- --- --- -----------<br>-- -------,252544,252538,252244,252229,252260,252564,,33,the
screen,html.Screen,1_3_0_1_34,2021-03-25T15:19:12.954Z,,,,,,,,,,,,,,,,2,,,,,,,,,,,,,,301,response,,,,1,A,,,,,Space,keypress(Space),,,,silence,,,,--- ---- ------ --- ------- ---------- ------- ----------<br>--- --------- --- ----------- ------- ----- ------- ---<br>--------- ---- -- --- ---- -- --------- -- ---- -------<br>-- --------- ------ --- ----- ------ ---- --- sunspots. --<br>------ - ---- -- --- ----------- ------- ---- ----- -----<br>--- -------- - ------ ---- -- ----- ---- --- --- -----------<br>-- -------,252855.00000000003,252848,252547,252544,252564,252883,,34,sunspots.
screen,html.Screen,1_3_0_1_35,2021-03-25T15:19:13.793Z,,,,,,,,,,,,,,,,2,,,,,,,,,,,,,,823.0000000000291,response,,,,1,A,,,,,Space,keypress(Space),,,,silence,,,,--- ---- ------ --- ------- ---------- ------- ----------<br>--- --------- --- ----------- ------- ----- ------- ---<br>--------- ---- -- --- ---- -- --------- -- ---- -------<br>-- --------- ------ --- ----- ------ ---- --- --------- He<br>------ - ---- -- --- ----------- ------- ---- ----- -----<br>--- -------- - ------ ---- -- ----- ---- --- --- -----------<br>-- -------,253694.00000000003,253688.00000000003,252865,252855.00000000003,252883,253735,,35,He
screen,html.Screen,1_3_0_1_36,2021-03-25T15:19:14.111Z,,,,,,,,,,,,,,,,2,,,,,,,,,,,,,,287,response,,,,1,A,,,,,Space,keypress(Space),,,,silence,,,,--- ---- ------ --- ------- ---------- ------- ----------<br>--- --------- --- ----------- ------- ----- ------- ---<br>--------- ---- -- --- ---- -- --------- -- ---- -------<br>-- --------- ------ --- ----- ------ ---- --- --------- --<br>jotted - ---- -- --- ----------- ------- ---- ----- -----<br>--- -------- - ------ ---- -- ----- ---- --- --- -----------<br>-- -------,254013,254006,253719,253694.00000000003,253735,254038,,36,jotted
screen,html.Screen,1_3_0_1_37,2021-03-25T15:19:14.512Z,,,,,,,,,,,,,,,,2,,,,,,,,,,,,,,384,response,,,,1,A,,,,,Space,keypress(Space),,,,silence,,,,--- ---- ------ --- ------- ---------- ------- ----------<br>--- --------- --- ----------- ------- ----- ------- ---<br>--------- ---- -- --- ---- -- --------- -- ---- -------<br>-- --------- ------ --- ----- ------ ---- --- --------- --<br>------ a ---- -- --- ----------- ------- ---- ----- -----<br>--- -------- - ------ ---- -- ----- ---- --- --- -----------<br>-- -------,254413,254406,254022,254013,254038,254441,,37,a
screen,html.Screen,1_3_0_1_38,2021-03-25T15:19:14.810Z,,,,,,,,,,,,,,,,2,,,,,,,,,,,,,,280,response,,,,1,A,,,,,Space,keypress(Space),,,,silence,,,,--- ---- ------ --- ------- ---------- ------- ----------<br>--- --------- --- ----------- ------- ----- ------- ---<br>--------- ---- -- --- ---- -- --------- -- ---- -------<br>-- --------- ------ --- ----- ------ ---- --- --------- --<br>------ - note -- --- ----------- ------- ---- ----- -----<br>--- -------- - ------ ---- -- ----- ---- --- --- -----------<br>-- -------,254711,254704,254424,254413,254441,254743,,38,note
screen,html.Screen,1_3_0_1_39,2021-03-25T15:19:15.155Z,,,,,,,,,,,,,,,,2,,,,,,,,,,,,,,323,response,,,,1,A,,,,,Space,keypress(Space),,,,silence,,,,--- ---- ------ --- ------- ---------- ------- ----------<br>--- --------- --- ----------- ------- ----- ------- ---<br>--------- ---- -- --- ---- -- --------- -- ---- -------<br>-- --------- ------ --- ----- ------ ---- --- --------- --<br>------ - ---- in --- ----------- ------- ---- ----- -----<br>--- -------- - ------ ---- -- ----- ---- --- --- -----------<br>-- -------,255056,255050,254727,254711,254743,255079,,39,in
screen,html.Screen,1_3_0_1_40,2021-03-25T15:19:15.467Z,,,,,,,,,,,,,,,,2,,,,,,,,,,,,,,298.0000000000291,response,,,,1,A,,,,,Space,keypress(Space),,,,silence,,,,--- ---- ------ --- ------- ---------- ------- ----------<br>--- --------- --- ----------- ------- ----- ------- ---<br>--------- ---- -- --- ---- -- --------- -- ---- -------<br>-- --------- ------ --- ----- ------ ---- --- --------- --<br>------ - ---- -- his ----------- ------- ---- ----- -----<br>--- -------- - ------ ---- -- ----- ---- --- --- -----------<br>-- -------,255368,255361.00000000003,255063,255056,255079,255399,,40,his
screen,html.Screen,1_3_0_1_41,2021-03-25T15:19:15.846Z,,,,,,,,,,,,,,,,2,,,,,,,,,,,,,,358,response,,,,1,A,,,,,Space,keypress(Space),,,,silence,,,,--- ---- ------ --- ------- ---------- ------- ----------<br>--- --------- --- ----------- ------- ----- ------- ---<br>--------- ---- -- --- ---- -- --------- -- ---- -------<br>-- --------- ------ --- ----- ------ ---- --- --------- --<br>------ - ---- -- --- painstaking ------- ---- ----- -----<br>--- -------- - ------ ---- -- ----- ---- --- --- -----------<br>-- -------,255747,255741,255383,255368,255399,255769,,41,painstaking
screen,html.Screen,1_3_0_1_42,2021-03-25T15:19:16.268Z,,,,,,,,,,,,,,,,2,,,,,,,,,,,,,,410.9999999999709,response,,,,1,A,,,,,Space,keypress(Space),,,,silence,,,,--- ---- ------ --- ------- ---------- ------- ----------<br>--- --------- --- ----------- ------- ----- ------- ---<br>--------- ---- -- --- ---- -- --------- -- ---- -------<br>-- --------- ------ --- ----- ------ ---- --- --------- --<br>------ - ---- -- --- ----------- record. ---- ----- -----<br>--- -------- - ------ ---- -- ----- ---- --- --- -----------<br>-- -------,256168.99999999997,256161.99999999997,255751,255747,255769,256204,,42,record.
screen,html.Screen,1_3_0_1_43,2021-03-25T15:19:16.685Z,,,,,,,,,,,,,,,,2,,,,,,,,,,,,,,392,response,,,,1,A,,,,,Space,keypress(Space),,,,silence,,,,--- ---- ------ --- ------- ---------- ------- ----------<br>--- --------- --- ----------- ------- ----- ------- ---<br>--------- ---- -- --- ---- -- --------- -- ---- -------<br>-- --------- ------ --- ----- ------ ---- --- --------- --<br>------ - ---- -- --- ----------- ------- That ----- -----<br>--- -------- - ------ ---- -- ----- ---- --- --- -----------<br>-- -------,256586,256579,256187,256168.99999999997,256204,256623,,43,That
screen,html.Screen,1_3_0_1_44,2021-03-25T15:19:16.929Z,,,,,,,,,,,,,,,,2,,,,,,,,,,,,,,215.9999999999709,response,,,,1,A,,,,,Space,keypress(Space),,,,silence,,,,--- ---- ------ --- ------- ---------- ------- ----------<br>--- --------- --- ----------- ------- ----- ------- ---<br>--------- ---- -- --- ---- -- --------- -- ---- -------<br>-- --------- ------ --- ----- ------ ---- --- --------- --<br>------ - ---- -- --- ----------- ------- ---- night -----<br>--- -------- - ------ ---- -- ----- ---- --- --- -----------<br>-- -------,256829.99999999997,256822.99999999997,256607,256586,256623,256859,,44,night
screen,html.Screen,1_3_0_1_45,2021-03-25T15:19:17.323Z,,,,,,,,,,,,,,,,2,,,,,,,,,,,,,,375.9999999999709,response,,,,1,A,,,,,Space,keypress(Space),,,,silence,,,,--- ---- ------ --- ------- ---------- ------- ----------<br>--- --------- --- ----------- ------- ----- ------- ---<br>--------- ---- -- --- ---- -- --------- -- ---- -------<br>-- --------- ------ --- ----- ------ ---- --- --------- --<br>------ - ---- -- --- ----------- ------- ---- ----- there<br>--- -------- - ------ ---- -- ----- ---- --- --- -----------<br>-- -------,257224,257216.99999999997,256841,256829.99999999997,256859,257246,,45,there
screen,html.Screen,1_3_0_1_46,2021-03-25T15:19:17.651Z,,,,,,,,,,,,,,,,2,,,,,,,,,,,,,,317.0000000000291,response,,,,1,A,,,,,Space,keypress(Space),,,,silence,,,,--- ---- ------ --- ------- ---------- ------- ----------<br>--- --------- --- ----------- ------- ----- ------- ---<br>--------- ---- -- --- ---- -- --------- -- ---- -------<br>-- --------- ------ --- ----- ------ ---- --- --------- --<br>------ - ---- -- --- ----------- ------- ---- ----- -----<br>was -------- - ------ ---- -- ----- ---- --- --- -----------<br>-- -------,257552.00000000003,257545.00000000003,257228,257224,257246,257582,,46,was
screen,html.Screen,1_3_0_1_47,2021-03-25T15:19:17.967Z,,,,,,,,,,,,,,,,2,,,,,,,,,,,,,,297,response,,,,1,A,,,,,Space,keypress(Space),,,,silence,,,,--- ---- ------ --- ------- ---------- ------- ----------<br>--- --------- --- ----------- ------- ----- ------- ---<br>--------- ---- -- --- ---- -- --------- -- ---- -------<br>-- --------- ------ --- ----- ------ ---- --- --------- --<br>------ - ---- -- --- ----------- ------- ---- ----- -----<br>--- scarcely - ------ ---- -- ----- ---- --- --- -----------<br>-- -------,257868,257861,257564,257552.00000000003,257582,257900,,47,scarcely
screen,html.Screen,1_3_0_1_48,2021-03-25T15:19:18.815Z,,,,,,,,,,,,,,,,2,,,,,,,,,,,,,,825,response,,,,1,A,,,,,Space,keypress(Space),,,,silence,,,,--- ---- ------ --- ------- ---------- ------- ----------<br>--- --------- --- ----------- ------- ----- ------- ---<br>--------- ---- -- --- ---- -- --------- -- ---- -------<br>-- --------- ------ --- ----- ------ ---- --- --------- --<br>------ - ---- -- --- ----------- ------- ---- ----- -----<br>--- -------- a ------ ---- -- ----- ---- --- --- -----------<br>-- -------,258716,258709,257884,257869.00000000003,257900,258753,,48,a
screen,html.Screen,1_3_0_1_49,2021-03-25T15:19:19.111Z,,,,,,,,,,,,,,,,2,,,,,,,,,,,,,,269,response,,,,1,A,,,,,Space,keypress(Space),,,,silence,,,,--- ---- ------ --- ------- ---------- ------- ----------<br>--- --------- --- ----------- ------- ----- ------- ---<br>--------- ---- -- --- ---- -- --------- -- ---- -------<br>-- --------- ------ --- ----- ------ ---- --- --------- --<br>------ - ---- -- --- ----------- ------- ---- ----- -----<br>--- -------- - square ---- -- ----- ---- --- --- -----------<br>-- -------,259012,259005,258736,258716,258753,259039,,49,square
screen,html.Screen,1_3_0_1_50,2021-03-25T15:19:19.485Z,,,,,,,,,,,,,,,,2,,,,,,,,,,,,,,357.0000000000291,response,,,,1,A,,,,,Space,keypress(Space),,,,silence,,,,--- ---- ------ --- ------- ---------- ------- ----------<br>--- --------- --- ----------- ------- ----- ------- ---<br>--------- ---- -- --- ---- -- --------- -- ---- -------<br>-- --------- ------ --- ----- ------ ---- --- --------- --<br>------ - ---- -- --- ----------- ------- ---- ----- -----<br>--- -------- - ------ inch -- ----- ---- --- --- -----------<br>-- -------,259386.00000000003,259379.00000000003,259022,259013.00000000003,259039,259409,,50,inch
screen,html.Screen,1_3_0_1_51,2021-03-25T15:19:19.858Z,,,,,,,,,,,,,,,,2,,,,,,,,,,,,,,360,response,,,,1,A,,,,,Space,keypress(Space),,,,silence,,,,--- ---- ------ --- ------- ---------- ------- ----------<br>--- --------- --- ----------- ------- ----- ------- ---<br>--------- ---- -- --- ---- -- --------- -- ---- -------<br>-- --------- ------ --- ----- ------ ---- --- --------- --<br>------ - ---- -- --- ----------- ------- ---- ----- -----<br>--- -------- - ------ ---- of ----- ---- --- --- -----------<br>-- -------,259760,259752,259392,259386.00000000003,259409,259778,,51,of
screen,html.Screen,1_3_0_1_52,2021-03-25T15:19:20.216Z,,,,,,,,,,,,,,,,2,,,,,,,,,,,,,,350,response,,,,1,A,,,,,Space,keypress(Space),,,,silence,,,,--- ---- ------ --- ------- ---------- ------- ----------<br>--- --------- --- ----------- ------- ----- ------- ---<br>--------- ---- -- --- ---- -- --------- -- ---- -------<br>-- --------- ------ --- ----- ------ ---- --- --------- --<br>------ - ---- -- --- ----------- ------- ---- ----- -----<br>--- -------- - ------ ---- -- earth ---- --- --- -----------<br>-- -------,260118,260111,259761,259760,259778,260147,,52,earth
screen,html.Screen,1_3_0_1_53,2021-03-25T15:19:20.575Z,,,,,,,,,,,,,,,,2,,,,,,,,,,,,,,338,response,,,,1,A,,,,,Space,keypress(Space),,,,silence,,,,--- ---- ------ --- ------- ---------- ------- ----------<br>--- --------- --- ----------- ------- ----- ------- ---<br>--------- ---- -- --- ---- -- --------- -- ---- -------<br>-- --------- ------ --- ----- ------ ---- --- --------- --<br>------ - ---- -- --- ----------- ------- ---- ----- -----<br>--- -------- - ------ ---- -- ----- that --- --- -----------<br>-- -------,260476,260469,260131,260118,260147,260500,,53,that
screen,html.Screen,1_3_0_1_54,2021-03-25T15:19:20.961Z,,,,,,,,,,,,,,,,2,,,,,,,,,,,,,,372.0000000000291,response,,,,1,A,,,,,Space,keypress(Space),,,,silence,,,,--- ---- ------ --- ------- ---------- ------- ----------<br>--- --------- --- ----------- ------- ----- ------- ---<br>--------- ---- -- --- ---- -- --------- -- ---- -------<br>-- --------- ------ --- ----- ------ ---- --- --------- --<br>------ - ---- -- --- ----------- ------- ---- ----- -----<br>--- -------- - ------ ---- -- ----- ---- was --- -----------<br>-- -------,260862.00000000003,260855.00000000003,260483,260476,260500,260886,,54,was
screen,html.Screen,1_3_0_1_55,2021-03-25T15:19:21.339Z,,,,,,,,,,,,,,,,2,,,,,,,,,,,,,,365.9999999999709,response,,,,1,A,,,,,Space,keypress(Space),,,,silence,,,,--- ---- ------ --- ------- ---------- ------- ----------<br>--- --------- --- ----------- ------- ----- ------- ---<br>--------- ---- -- --- ---- -- --------- -- ---- -------<br>-- --------- ------ --- ----- ------ ---- --- --------- --<br>------ - ---- -- --- ----------- ------- ---- ----- -----<br>--- -------- - ------ ---- -- ----- ---- --- not -----------<br>-- -------,261241,261233.99999999997,260868,260862.00000000003,260886,261271,,55,not
