sender,sender_type,sender_id,timestamp,meta,,Blues,Classical,Country,Dance,Electronic,Folk,Gospel,Hip-Hop,Jazz,Latin,Musical/Film,New-age,Pop,Provo_ID,R&B,Rap,Reggae,Religious,Rock,Soul,Swing,Traditional,age,artist_name,correct,correctResponse,distraction,duration,ended_on,familiarity,gender,headphone_check_performance,item,list,offensiveness,pleasantness,position_correct,preference,response,response_action,snippet_file,song_name,song_rating,sound,stimulus_1,stimulus_2,stimulus_3,text,time_commit,time_end,time_render,time_run,time_show,time_switch,url,word,word_ID
Introduction,html.Screen,0_0,2021-03-28T19:44:38.846Z,"{""labjs_version"":""20.2.2"",""labjs_build"":{""flavor"":""production"",""commit"":""a25486e0c714a0ae2ce03ff94b7bb6896854dcfa""},""location"":""https://run.pavlovia.org/mvasilev/music_d/"",""userAgent"":""Mozilla/5.0 (Windows NT 10.0; Win64; x64) AppleWebKit/537.36 (KHTML, like Gecko) Chrome/89.0.4389.90 Safari/537.36"",""platform"":""Win32"",""language"":""en-US"",""locale"":""en-US"",""timeZone"":""Europe/London"",""timezoneOffset"":-60,""screen_width"":1366,""screen_height"":768,""scroll_width"":1366,""scroll_height"":609,""window_innerWidth"":1366,""window_innerHeight"":657,""devicePixelRatio"":1}",,,,,,,,,,,,,,,,,,,,,,,,,,,,,4670.3320000464155,response,,,,,,,,,,continue,click button,,,,,,,,,21927.750000031665,21910.965000046417,17141.005,17142.100000055507,17240.633,22007.184,{},,
Volume calibration,html.Screen,0_1,2021-03-28T19:45:03.812Z,,,,,,,,,,,,,,,,,,,,,,,,,,,,,,24873.996000025778,response,,,,,,,,,,continue,click button,,,,,,,,,46893.79499992356,46881.18000002578,21907.33,21929.275000002235,22007.184,46906.003,,,
Task instructions,html.Screen,0_2,2021-03-28T19:45:12.681Z,,,,,,,,,,,,,,,,,,,,,,,,,,,,,,8853.787000040087,response,,,,,,,,,,continue,click button,,,,,,,,,55762.88999989629,55759.790000040084,46872.868,46901.94500004873,46906.003,55772.308,,,
Sounds,html.Screen,0_3_0_0,2021-03-28T19:45:16.934Z,,,,,,,,,,,,,,,,,,,,,,,,,,,,,,4249.802000000003,timeout,,,,,,,,1,,,,,,,,S,I,O,,60015.24499990046,60005.578,55755.581,55763.92999989912,55772.308,60022.11,,,
Judgement,html.Screen,0_3_0_1,2021-03-28T19:45:19.799Z,,,,,,,,,,,,,,,,,,,,,,,,,,,true,1,,2859.1400000931317,response,,,,,,,,1,,1,click #choice-1,,,,,S,I,O,,62884.12500009872,62881.25000009313,60005.578,60015.91999991797,60022.11,62888.718,,,
Trial,flow.Sequence,0_3_0,2021-03-28T19:45:19.801Z,,,,,,,,,,,,,,,,,,,,,,,,,,,,,,7108.942000093135,completion,,,,,,,,1,,,,,,,,S,I,O,,62885.47999993898,62881.25000009313,55755.581,55763.65499990061,55772.308,62888.718,,,
Sounds,html.Screen,0_3_1_0,2021-03-28T19:45:24.039Z,,,,,,,,,,,,,,,,,,,,,,,,,,,,,,4249.674999999996,timeout,,,,,,,,2,,,,,,,,O,S,I,,67123.79499990493,67121.906,62872.143,62886.21999998577,62888.718,67138.393,,,
Judgement,html.Screen,0_3_1_1,2021-03-28T19:45:25.359Z,,,,,,,,,,,,,,,,,,,,,,,,,,,true,2,,1302.8919999498612,response,,,,,,,,2,,2,click #choice-2,,,,,O,S,I,,68443.90999991447,68441.28499994986,67121.906,67124.31999994442,67138.393,68456.089,,,
Trial,flow.Sequence,0_3_1,2021-03-28T19:45:25.360Z,,,,,,,,,,,,,,,,,,,,,,,,,,,,,,5552.566999949857,completion,,,,,,,,2,,,,,,,,O,S,I,,68444.77499998175,68441.28499994986,62872.143,62885.99499990232,62888.718,68456.089,,,
Sounds,html.Screen,0_3_2_0,2021-03-28T19:45:29.604Z,,,,,,,,,,,,,,,,,,,,,,,,,,,,,,4249.41399999999,timeout,,,,,,,,3,,,,,,,,I,O,S,,72689.10500011407,72688.139,68438.539,68445.46500011347,68456.089,72705.503,,,
Judgement,html.Screen,0_3_2_1,2021-03-28T19:45:30.759Z,,,,,,,,,,,,,,,,,,,,,,,,,,,true,3,,1134.6069999900938,response,,,,,,,,3,,3,click #choice-3,,,,,I,O,S,,73843.73500011861,73840.10999999009,72688.139,72689.29999996908,72705.503,73854.722,,,
Trial,flow.Sequence,0_3_2,2021-03-28T19:45:30.759Z,,,,,,,,,,,,,,,,,,,,,,,,,,,,,,5384.0209999900835,completion,,,,,,,,3,,,,,,,,I,O,S,,73844.03000003658,73840.10999999009,68438.539,68445.25000010617,68456.089,73854.722,,,
Sounds,html.Screen,0_3_3_0,2021-03-28T19:45:35.005Z,,,,,,,,,,,,,,,,,,,,,,,,,,,,,,4249.893000000011,timeout,,,,,,,,1,,,,,,,,S,O,I,,78089.93000001647,78088.086,73838.093,73844.25000008196,73854.722,78104.615,,,
Judgement,html.Screen,0_3_3_1,2021-03-28T19:45:36.379Z,,,,,,,,,,,,,,,,,,,,,,,,,,,true,1,,1356.5449999479897,response,,,,,,,,1,,1,click #choice-1,,,,,S,O,I,,79463.92500004731,79461.159999948,78088.086,78090.4149999842,78104.615,79471.178,,,
Trial,flow.Sequence,0_3_3,2021-03-28T19:45:36.380Z,,,,,,,,,,,,,,,,,,,,,,,,,,,,,,5606.437999948001,completion,,,,,,,,1,,,,,,,,S,O,I,,79464.69999989495,79461.159999948,73838.093,73844.16999993846,73854.722,79471.178,,,
Sounds,html.Screen,0_3_4_0,2021-03-28T19:45:40.623Z,,,,,,,,,,,,,,,,,,,,,,,,,,,,,,4250.831999999995,timeout,,,,,,,,3,,,,,,,,O,I,S,,83707.80500001274,83705.36,79454.604,79465.29500000179,79471.178,83722.01,,,
Judgement,html.Screen,0_3_4_1,2021-03-28T19:45:41.579Z,,,,,,,,,,,,,,,,,,,,,,,,,,,true,3,,939.1499999014341,response,,,,,,,,3,,3,click #choice-3,,,,,O,I,S,,84663.93500007689,84661.15999990143,83705.36,83708.32500001416,83722.01,84671.057,,,
Trial,flow.Sequence,0_3_4,2021-03-28T19:45:41.580Z,,,,,,,,,,,,,,,,,,,,,,,,,,,,,,5189.981999901429,completion,,,,,,,,3,,,,,,,,O,I,S,,84664.684999967,84661.15999990143,79454.604,79465.09999991395,79471.178,84671.057,,,
Sounds,html.Screen,0_3_5_0,2021-03-28T19:45:45.821Z,,,,,,,,,,,,,,,,,,,,,,,,,,,,,,4253.285999999993,timeout,,,,,,,,2,,,,,,,,I,S,O,,88905.9600001201,88904.269,84654.457,84665.26999999769,84671.057,88924.343,,,
Judgement,html.Screen,0_3_5_1,2021-03-28T19:45:47.219Z,,,,,,,,,,,,,,,,,,,,,,,,,,,true,2,,1376.4719999659574,response,,,,,,,,2,,2,click #choice-2,,,,,I,S,O,,90303.74999996275,90300.81499996595,88904.269,88906.44999989308,88924.343,90337.424,,,
Trial,flow.Sequence,0_3_5,2021-03-28T19:45:47.221Z,,,,,,,,,,,,,,,,,,,,,,,,,,,,,,5629.75799996595,completion,,,,,,,,2,,,,,,,,I,S,O,,90305.39499991573,90300.81499996595,84654.457,84665.09000002407,84671.057,90337.424,,,
Task,flow.Loop,0_3,2021-03-28T19:45:47.238Z,,,,,,,,,,,,,,,,,,,,,,,,,,,,,,34528.50699996595,completion,,,1,,,,,,,,,,,,,,,,,90322.6250000298,90300.81499996595,55755.581,55763.41999997385,55772.308,90337.424,,,
Trap,html.Screen,0_4,2021-03-28T19:45:47.251Z,,,,,,,,,,,,,,,,,,,,,,,,,,,,,,NaN,skipped,,,,,,,,,,,,,,,,,,,,90335.96999989823,90300.81499996595,,90335.29999991879,,90337.424,,,
Thanks,html.Screen,0_5,2021-03-28T19:45:50.320Z,,,,,,,,,,,,,,,,,,,,,,,,,,,,,,3063.7759999638656,response,,,,,,,,,,continue,click button,,,,,,,,,93404.3300000485,93401.19999996386,90287.873,90336.51000005193,90337.424,96890.338,,,
Headphone screening,flow.Sequence,0,2021-03-28T19:45:50.321Z,,,,,,,,,,,,,,,,,,,,,,,,,,,,,,76160.56699996386,completion,,,,,,,,,,,,,,,,,,,,93405.59999994002,93401.19999996386,17141.005,17142.005000030622,17240.633,96890.338,,,
Instructions,html.Page,1_0,2021-03-28T19:46:06.516Z,,,,,,,,,,,,,,,,,,,,,,,,,,,,,,12709.43199997161,form submission,,,,,,,,,,,,,,,,,,,,109600.89000011794,109599.76999997161,96871.158,96864.1850000713,96890.338,109619.856,,,
Holding screen,html.Screen,1_1_0_0,2021-03-28T19:46:13.520Z,,,,,,,,,,,,,,,,,,,,,,,,,,,,,,7066.3399999999965,timeout,,,,,,,,,,,,,,,,,,,,116604.48500001803,116602.983,109569.993,109601.97499999776,109619.856,116686.196,,,
screen,html.Screen,1_1_0_1_0,2021-03-28T19:46:15.010Z,,,,,,,,,,,,,,,,53,,,,,,,,,,,,,,1398.7540000476874,response,,,,99,,,,,,Space,keypress(Space),,,,,,,,When -- ----- -- ------ - ------- --- ----------<br>------------- ------ ------ ---- ---- ------- ----- -- ----<br>-------- ------- -- ---------- --- - --- ----- ----- ----<br>---- --- --- ----- --- ---- ---- ------- ----- ---- -------<br>--- --- -- ----- -- --- ---- -- --- ---- -- ------ ------<br>--- ----- -- ----,118095.05999996327,118084.95000004768,116602.983,116605.33499997109,116686.196,118102.773,,0,When
screen,html.Screen,1_1_0_1_1,2021-03-28T19:46:15.844Z,,,,,,,,,,,,,,,,53,,,,,,,,,,,,,,823.6720001064677,response,,,,99,,,,,,Space,keypress(Space),,,,,,,,---- it ----- -- ------ - ------- --- ----------<br>------------- ------ ------ ---- ---- ------- ----- -- ----<br>-------- ------- -- ---------- --- - --- ----- ----- ----<br>---- --- --- ----- --- ---- ---- ------- ----- ---- -------<br>--- --- -- ----- -- --- ---- -- --- ---- -- ------ ------<br>--- ----- -- ----,118928.3600000199,118926.44500010647,118086.175,118095.63999995589,118102.773,118936.07,,1,it
screen,html.Screen,1_1_0_1_2,2021-03-28T19:46:16.644Z,,,,,,,,,,,,,,,,53,,,,,,,,,,,,,,790.8049999348004,response,,,,99,,,,,,Space,keypress(Space),,,,,,,,---- -- comes -- ------ - ------- --- ----------<br>------------- ------ ------ ---- ---- ------- ----- -- ----<br>-------- ------- -- ---------- --- - --- ----- ----- ----<br>---- --- --- ----- --- ---- ---- ------- ----- ---- -------<br>--- --- -- ----- -- --- ---- -- --- ---- -- ------ ------<br>--- ----- -- ----,119728.94000005908,119726.87499993481,118919.602,118928.83999994956,118936.07,119735.988,,2,comes
screen,html.Screen,1_1_0_1_3,2021-03-28T19:46:17.167Z,,,,,,,,,,,,,,,,53,,,,,,,,,,,,,,515.7570000159467,response,,,,99,,,,,,Space,keypress(Space),,,,,,,,---- -- ----- to ------ - ------- --- ----------<br>------------- ------ ------ ---- ---- ------- ----- -- ----<br>-------- ------- -- ---------- --- - --- ----- ----- ----<br>---- --- --- ----- --- ---- ---- ------- ----- ---- -------<br>--- --- -- ----- -- --- ---- -- --- ---- -- ------ ------<br>--- ----- -- ----,120253.7650000304,120251.74500001594,119719.556,119729.40500010736,119735.988,120269.359,,3,to
screen,html.Screen,1_1_0_1_4,2021-03-28T19:46:17.614Z,,,,,,,,,,,,,,,,53,,,,,,,,,,,,,,429.58600006921915,response,,,,99,,,,,,Space,keypress(Space),,,,,,,,---- -- ----- -- having - ------- --- ----------<br>------------- ------ ------ ---- ---- ------- ----- -- ----<br>-------- ------- -- ---------- --- - --- ----- ----- ----<br>---- --- --- ----- --- ---- ---- ------- ----- ---- -------<br>--- --- -- ----- -- --- ---- -- --- ---- -- ------ ------<br>--- ----- -- ----,120700.82499994896,120698.94500006922,120252.816,120254.23999992199,120269.359,120723.424,,4,having
screen,html.Screen,1_1_0_1_5,2021-03-28T19:46:22.605Z,,,,,,,,,,,,,,,,53,,,,,,,,,,,,,,4966.330999941216,response,,,,99,,,,,,Space,keypress(Space),,,,,,,,---- -- ----- -- ------ a ------- --- ----------<br>------------- ------ ------ ---- ---- ------- ----- -- ----<br>-------- ------- -- ---------- --- - --- ----- ----- ----<br>---- --- --- ----- --- ---- ---- ------- ----- ---- -------<br>--- --- -- ----- -- --- ---- -- --- ---- -- ------ ------<br>--- ----- -- ----,125691.695000045,125689.75499994121,120686.111,120701.30000007339,120723.424,125703.037,,5,a
screen,html.Screen,1_1_0_1_6,2021-03-28T19:46:23.262Z,,,,,,,,,,,,,,,,53,,,,,,,,,,,,,,643.7130000260804,response,,,,99,,,,,,Space,keypress(Space),,,,,,,,---- -- ----- -- ------ - lasting --- ----------<br>------------- ------ ------ ---- ---- ------- ----- -- ----<br>-------- ------- -- ---------- --- - --- ----- ----- ----<br>---- --- --- ----- --- ---- ---- ------- ----- ---- -------<br>--- --- -- ----- -- --- ---- -- --- ---- -- ------ ------<br>--- ----- -- ----,126348.71000004932,126346.75000002608,125685.66,125692.1699999366,125703.037,126352.386,,6,lasting
screen,html.Screen,1_1_0_1_7,2021-03-28T19:46:23.668Z,,,,,,,,,,,,,,,,53,,,,,,,,,,,,,,399.2239999193116,response,,,,99,,,,,,Space,keypress(Space),,,,,,,,---- -- ----- -- ------ - ------- and ----------<br>------------- ------ ------ ---- ---- ------- ----- -- ----<br>-------- ------- -- ---------- --- - --- ----- ----- ----<br>---- --- --- ----- --- ---- ---- ------- ----- ---- -------<br>--- --- -- ----- -- --- ---- -- --- ---- -- ------ ------<br>--- ----- -- ----,126754.34500002302,126751.60999991931,126335.733,126349.18999997899,126352.386,126769.578,,7,and
screen,html.Screen,1_1_0_1_8,2021-03-28T19:46:24.051Z,,,,,,,,,,,,,,,,53,,,,,,,,,,,,,,365.65699993607996,response,,,,99,,,,,,Space,keypress(Space),,,,,,,,---- -- ----- -- ------ - ------- --- fulfilling<br>------------- ------ ------ ---- ---- ------- ----- -- ----<br>-------- ------- -- ---------- --- - --- ----- ----- ----<br>---- --- --- ----- --- ---- ---- ------- ----- ---- -------<br>--- --- -- ----- -- --- ---- -- --- ---- -- ------ ------<br>--- ----- -- ----,127137.49000011012,127135.23499993607,126753.14,126754.8100000713,126769.578,127152.432,,8,fulfilling
screen,html.Screen,1_1_0_1_9,2021-03-28T19:46:24.419Z,,,,,,,,,,,,,,,,53,,,,,,,,,,,,,,351.46799989420106,response,,,,99,,,,,,Space,keypress(Space),,,,,,,,"---- -- ----- -- ------ - ------- --- ----------<br>relationship, ------ ------ ---- ---- ------- ----- -- ----<br>-------- ------- -- ---------- --- - --- ----- ----- ----<br>---- --- --- ----- --- ---- ---- ------- ----- ---- -------<br>--- --- -- ----- -- --- ---- -- --- ---- -- ------ ------<br>--- ----- -- ----",127505.9299999848,127503.8999998942,127135.841,127137.95999996364,127152.432,127519.059,,9,"relationship,"
screen,html.Screen,1_1_0_1_10,2021-03-28T19:46:24.838Z,,,,,,,,,,,,,,,,53,,,,,,,,,,,,,,403.5409999325784,response,,,,99,,,,,,Space,keypress(Space),,,,,,,,---- -- ----- -- ------ - ------- --- ----------<br>------------- common ------ ---- ---- ------- ----- -- ----<br>-------- ------- -- ---------- --- - --- ----- ----- ----<br>---- --- --- ----- --- ---- ---- ------- ----- ---- -------<br>--- --- -- ----- -- --- ---- -- --- ---- -- ------ ------<br>--- ----- -- ----,127924.73000008613,127922.59999993257,127502.395,127506.40999991447,127519.059,127935.652,,10,common
screen,html.Screen,1_1_0_1_11,2021-03-28T19:46:25.215Z,,,,,,,,,,,,,,,,53,,,,,,,,,,,,,,363.36800003494136,response,,,,99,,,,,,Space,keypress(Space),,,,,,,,---- -- ----- -- ------ - ------- --- ----------<br>------------- ------ wisdom ---- ---- ------- ----- -- ----<br>-------- ------- -- ---------- --- - --- ----- ----- ----<br>---- --- --- ----- --- ---- ---- ------- ----- ---- -------<br>--- --- -- ----- -- --- ---- -- --- ---- -- ------ ------<br>--- ----- -- ----,128301.07500008307,128299.02000003494,127919.14,127925.20499997772,127935.652,128335.6,,11,wisdom
screen,html.Screen,1_1_0_1_12,2021-03-28T19:46:25.627Z,,,,,,,,,,,,,,,,53,,,,,,,,,,,,,,375.77999999336316,response,,,,99,,,,,,Space,keypress(Space),,,,,,,,---- -- ----- -- ------ - ------- --- ----------<br>------------- ------ ------ says ---- ------- ----- -- ----<br>-------- ------- -- ---------- --- - --- ----- ----- ----<br>---- --- --- ----- --- ---- ---- ------- ----- ---- -------<br>--- --- -- ----- -- --- ---- -- --- ---- -- ------ ------<br>--- ----- -- ----,128713.45499996096,128711.37999999337,128319.119,128301.75499990582,128335.6,128718.944,,12,says
screen,html.Screen,1_1_0_1_13,2021-03-28T19:46:25.993Z,,,,,,,,,,,,,,,,53,,,,,,,,,,,,,,358.6559999605088,response,,,,99,,,,,,Space,keypress(Space),,,,,,,,---- -- ----- -- ------ - ------- --- ----------<br>------------- ------ ------ ---- that ------- ----- -- ----<br>-------- ------- -- ---------- --- - --- ----- ----- ----<br>---- --- --- ----- --- ---- ---- ------- ----- ---- -------<br>--- --- -- ----- -- --- ---- -- --- ---- -- ------ ------<br>--- ----- -- ----,129079.63999989443,129077.59999996051,128702.413,128713.93000008538,128718.944,129085.561,,13,that
screen,html.Screen,1_1_0_1_14,2021-03-28T19:46:26.415Z,,,,,,,,,,,,,,,,53,,,,,,,,,,,,,,413.71400006742624,response,,,,99,,,,,,Space,keypress(Space),,,,,,,,---- -- ----- -- ------ - ------- --- ----------<br>------------- ------ ------ ---- ---- feeling ----- -- ----<br>-------- ------- -- ---------- --- - --- ----- ----- ----<br>---- --- --- ----- --- ---- ---- ------- ----- ---- -------<br>--- --- -- ----- -- --- ---- -- --- ---- -- ------ ------<br>--- ----- -- ----,129501.3349999208,129499.27500006743,129069.086,129080.10999998078,129085.561,129519.039,,14,feeling
screen,html.Screen,1_1_0_1_15,2021-03-28T19:46:26.759Z,,,,,,,,,,,,,,,,53,,,,,,,,,,,,,,324.2759999473201,response,,,,99,,,,,,Space,keypress(Space),,,,,,,,---- -- ----- -- ------ - ------- --- ----------<br>------------- ------ ------ ---- ---- ------- close -- ----<br>-------- ------- -- ---------- --- - --- ----- ----- ----<br>---- --- --- ----- --- ---- ---- ------- ----- ---- -------<br>--- --- -- ----- -- --- ---- -- --- ---- -- ------ ------<br>--- ----- -- ----,129845.34500003792,129843.31499994732,129502.399,129501.8150000833,129519.039,129852.207,,15,close
screen,html.Screen,1_1_0_1_16,2021-03-28T19:46:27.148Z,,,,,,,,,,,,,,,,53,,,,,,,,,,,,,,380.15800006169593,response,,,,99,,,,,,Space,keypress(Space),,,,,,,,---- -- ----- -- ------ - ------- --- ----------<br>------------- ------ ------ ---- ---- ------- ----- to ----<br>-------- ------- -- ---------- --- - --- ----- ----- ----<br>---- --- --- ----- --- ---- ---- ------- ----- ---- -------<br>--- --- -- ----- -- --- ---- -- --- ---- -- ------ ------<br>--- ----- -- ----,130234.41000003368,130232.36500006169,129835.697,129845.83000000566,129852.207,130252.353,,16,to
screen,html.Screen,1_1_0_1_17,2021-03-28T19:46:27.576Z,,,,,,,,,,,,,,,,53,,,,,,,,,,,,,,408.3519999292912,response,,,,99,,,,,,Space,keypress(Space),,,,,,,,---- -- ----- -- ------ - ------- --- ----------<br>------------- ------ ------ ---- ---- ------- ----- -- your<br>-------- ------- -- ---------- --- - --- ----- ----- ----<br>---- --- --- ----- --- ---- ---- ------- ----- ---- -------<br>--- --- -- ----- -- --- ---- -- --- ---- -- ------ ------<br>--- ----- -- ----,130662.75499993935,130660.7049999293,130235.699,130234.91000011563,130252.353,130668.836,,17,your
screen,html.Screen,1_1_0_1_18,2021-03-28T19:46:27.977Z,,,,,,,,,,,,,,,,53,,,,,,,,,,,,,,392.25399997377826,response,,,,99,,,,,,Space,keypress(Space),,,,,,,,---- -- ----- -- ------ - ------- --- ----------<br>------------- ------ ------ ---- ---- ------- ----- -- ----<br>romantic ------- -- ---------- --- - --- ----- ----- ----<br>---- --- --- ----- --- ---- ---- ------- ----- ---- -------<br>--- --- -- ----- -- --- ---- -- --- ---- -- ------ ------<br>--- ----- -- ----,131063.5899999179,131061.08999997377,130652.197,130663.23999990709,130668.836,131068.83,,18,romantic
screen,html.Screen,1_1_0_1_19,2021-03-28T19:46:28.349Z,,,,,,,,,,,,,,,,53,,,,,,,,,,,,,,364.44999999746506,response,,,,99,,,,,,Space,keypress(Space),,,,,,,,---- -- ----- -- ------ - ------- --- ----------<br>------------- ------ ------ ---- ---- ------- ----- -- ----<br>-------- partner -- ---------- --- - --- ----- ----- ----<br>---- --- --- ----- --- ---- ---- ------- ----- ---- -------<br>--- --- -- ----- -- --- ---- -- --- ---- -- ------ ------<br>--- ----- -- ----,131435.3149998933,131433.27999999747,131052.33,131064.05499996617,131068.83,131452.159,,19,partner
screen,html.Screen,1_1_0_1_20,2021-03-28T19:46:28.720Z,,,,,,,,,,,,,,,,53,,,,,,,,,,,,,,351.81100000810693,response,,,,99,,,,,,Space,keypress(Space),,,,,,,,---- -- ----- -- ------ - ------- --- ----------<br>------------- ------ ------ ---- ---- ------- ----- -- ----<br>-------- ------- is ---------- --- - --- ----- ----- ----<br>---- --- --- ----- --- ---- ---- ------- ----- ---- -------<br>--- --- -- ----- -- --- ---- -- --- ---- -- ------ ------<br>--- ----- -- ----,131806.12999992445,131803.97000000812,131435.646,131435.79000001773,131452.159,131818.84,,20,is
screen,html.Screen,1_1_0_1_21,2021-03-28T19:46:29.176Z,,,,,,,,,,,,,,,,53,,,,,,,,,,,,,,441.55499999024323,response,,,,99,,,,,,Space,keypress(Space),,,,,,,,---- -- ----- -- ------ - ------- --- ----------<br>------------- ------ ------ ---- ---- ------- ----- -- ----<br>-------- ------- -- paramount. --- - --- ----- ----- ----<br>---- --- --- ----- --- ---- ---- ------- ----- ---- -------<br>--- --- -- ----- -- --- ---- -- --- ---- -- ------ ------<br>--- ----- -- ----,132262.66500004567,132260.39499999024,131802.268,131806.65499996394,131818.84,132268.752,,21,paramount.
screen,html.Screen,1_1_0_1_22,2021-03-28T19:46:29.614Z,,,,,,,,,,,,,,,,53,,,,,,,,,,,,,,429.7829999740643,response,,,,99,,,,,,Space,keypress(Space),,,,,,,,---- -- ----- -- ------ - ------- --- ----------<br>------------- ------ ------ ---- ---- ------- ----- -- ----<br>-------- ------- -- ---------- But - --- ----- ----- ----<br>---- --- --- ----- --- ---- ---- ------- ----- ---- -------<br>--- --- -- ----- -- --- ---- -- --- ---- -- ------ ------<br>--- ----- -- ----,132700.63000009395,132698.53499997407,132252.27,132263.1500000134,132268.752,132718.906,,22,But
screen,html.Screen,1_1_0_1_23,2021-03-28T19:46:29.923Z,,,,,,,,,,,,,,,,53,,,,,,,,,,,,,,288.4489998924255,response,,,,99,,,,,,Space,keypress(Space),,,,,,,,---- -- ----- -- ------ - ------- --- ----------<br>------------- ------ ------ ---- ---- ------- ----- -- ----<br>-------- ------- -- ---------- --- a --- ----- ----- ----<br>---- --- --- ----- --- ---- ---- ------- ----- ---- -------<br>--- --- -- ----- -- --- ---- -- --- ---- -- ------ ------<br>--- ----- -- ----,133009.43499989808,133007.3549998924,132685.584,132701.1150000617,132718.906,133018.752,,23,a
screen,html.Screen,1_1_0_1_24,2021-03-28T19:46:30.230Z,,,,,,,,,,,,,,,,53,,,,,,,,,,,,,,295.898000073008,response,,,,99,,,,,,Space,keypress(Space),,,,,,,,---- -- ----- -- ------ - ------- --- ----------<br>------------- ------ ------ ---- ---- ------- ----- -- ----<br>-------- ------- -- ---------- --- - new ----- ----- ----<br>---- --- --- ----- --- ---- ---- ------- ----- ---- -------<br>--- --- -- ----- -- --- ---- -- --- ---- -- ------ ------<br>--- ----- -- ----,133316.9249999337,133314.65000007302,133002.244,133009.89999994636,133018.752,133341.986,,24,new
screen,html.Screen,1_1_0_1_25,2021-03-28T19:46:30.542Z,,,,,,,,,,,,,,,,53,,,,,,,,,,,,,,284.5089999749616,response,,,,99,,,,,,Space,keypress(Space),,,,,,,,---- -- ----- -- ------ - ------- --- ----------<br>------------- ------ ------ ---- ---- ------- ----- -- ----<br>-------- ------- -- ---------- --- - --- study ----- ----<br>---- --- --- ----- --- ---- ---- ------- ----- ---- -------<br>--- --- -- ----- -- --- ---- -- --- ---- -- ------ ------<br>--- ----- -- ----,133628.53499990888,133626.49499997497,133302.229,133317.38999998197,133341.986,133635.396,,25,study
screen,html.Screen,1_1_0_1_26,2021-03-28T19:46:30.920Z,,,,,,,,,,,,,,,,53,,,,,,,,,,,,,,368.55900008016033,response,,,,99,,,,,,Space,keypress(Space),,,,,,,,---- -- ----- -- ------ - ------- --- ----------<br>------------- ------ ------ ---- ---- ------- ----- -- ----<br>-------- ------- -- ---------- --- - --- ----- finds ----<br>---- --- --- ----- --- ---- ---- ------- ----- ---- -------<br>--- --- -- ----- -- --- ---- -- --- ---- -- ------ ------<br>--- ----- -- ----,134005.96500001848,134003.95500008017,133618.885,133629.01500007138,133635.396,134018.811,,26,finds
screen,html.Screen,1_1_0_1_27,2021-03-28T19:46:31.297Z,,,,,,,,,,,,,,,,53,,,,,,,,,,,,,,362.28400007705204,response,,,,99,,,,,,Space,keypress(Space),,,,,,,,---- -- ----- -- ------ - ------- --- ----------<br>------------- ------ ------ ---- ---- ------- ----- -- ----<br>-------- ------- -- ---------- --- - --- ----- ----- that<br>---- --- --- ----- --- ---- ---- ------- ----- ---- -------<br>--- --- -- ----- -- --- ---- -- --- ---- -- ------ ------<br>--- ----- -- ----,134383.18499992602,134381.09500007704,134002.191,134006.44499994814,134018.811,134410.477,,27,that
screen,html.Screen,1_1_0_1_28,2021-03-28T19:46:31.651Z,,,,,,,,,,,,,,,,53,,,,,,,,,,,,,,324.57300001749536,response,,,,99,,,,,,Space,keypress(Space),,,,,,,,---- -- ----- -- ------ - ------- --- ----------<br>------------- ------ ------ ---- ---- ------- ----- -- ----<br>-------- ------- -- ---------- --- - --- ----- ----- ----<br>it's --- --- ----- --- ---- ---- ------- ----- ---- -------<br>--- --- -- ----- -- --- ---- -- --- ---- -- ------ ------<br>--- ----- -- ----,134737.13500006124,134735.0500000175,134368.998,134383.6799999699,134410.477,134752.15,,28,it's
screen,html.Screen,1_1_0_1_29,2021-03-28T19:46:32.000Z,,,,,,,,,,,,,,,,53,,,,,,,,,,,,,,332.56999992617057,response,,,,99,,,,,,Space,keypress(Space),,,,,,,,---- -- ----- -- ------ - ------- --- ----------<br>------------- ------ ------ ---- ---- ------- ----- -- ----<br>-------- ------- -- ---------- --- - --- ----- ----- ----<br>---- not --- ----- --- ---- ---- ------- ----- ---- -------<br>--- --- -- ----- -- --- ---- -- --- ---- -- ------ ------<br>--- ----- -- ----,135086.72000002116,135084.71999992616,134735.397,134737.76499996893,134752.15,135102.145,,29,not
screen,html.Screen,1_1_0_1_30,2021-03-28T19:46:32.347Z,,,,,,,,,,,,,,,,53,,,,,,,,,,,,,,329.16499989808653,response,,,,99,,,,,,Space,keypress(Space),,,,,,,,---- -- ----- -- ------ - ------- --- ----------<br>------------- ------ ------ ---- ---- ------- ----- -- ----<br>-------- ------- -- ---------- --- - --- ----- ----- ----<br>---- --- how ----- --- ---- ---- ------- ----- ---- -------<br>--- --- -- ----- -- --- ---- -- --- ---- -- ------ ------<br>--- ----- -- ----,135433.36999998428,135431.30999989808,135085.454,135087.19999995083,135102.145,135459.477,,30,how
screen,html.Screen,1_1_0_1_31,2021-03-28T19:46:32.688Z,,,,,,,,,,,,,,,,53,,,,,,,,,,,,,,312.35800002136966,response,,,,99,,,,,,Space,keypress(Space),,,,,,,,---- -- ----- -- ------ - ------- --- ----------<br>------------- ------ ------ ---- ---- ------- ----- -- ----<br>-------- ------- -- ---------- --- - --- ----- ----- ----<br>---- --- --- close --- ---- ---- ------- ----- ---- -------<br>--- --- -- ----- -- --- ---- -- --- ---- -- ------ ------<br>--- ----- -- ----,135774.12499999627,135771.83500002138,135418.775,135433.84000007063,135459.477,135785.343,,31,close
screen,html.Screen,1_1_0_1_32,2021-03-28T19:46:33.035Z,,,,,,,,,,,,,,,,53,,,,,,,,,,,,,,333.84699999762233,response,,,,99,,,,,,Space,keypress(Space),,,,,,,,---- -- ----- -- ------ - ------- --- ----------<br>------------- ------ ------ ---- ---- ------- ----- -- ----<br>-------- ------- -- ---------- --- - --- ----- ----- ----<br>---- --- --- ----- you ---- ---- ------- ----- ---- -------<br>--- --- -- ----- -- --- ---- -- --- ---- -- ------ ------<br>--- ----- -- ----,136121.22999993153,136119.18999999762,135768.785,135774.6150000021,135785.343,136135.413,,32,you
screen,html.Screen,1_1_0_1_33,2021-03-28T19:46:33.389Z,,,,,,,,,,,,,,,,53,,,,,,,,,,,,,,337.7369999761577,response,,,,99,,,,,,Space,keypress(Space),,,,,,,,---- -- ----- -- ------ - ------- --- ----------<br>------------- ------ ------ ---- ---- ------- ----- -- ----<br>-------- ------- -- ---------- --- - --- ----- ----- ----<br>---- --- --- ----- --- feel ---- ------- ----- ---- -------<br>--- --- -- ----- -- --- ---- -- --- ---- -- ------ ------<br>--- ----- -- ----,136475.18999991007,136473.14999997616,136118.767,136121.6949999798,136135.413,136485.511,,33,feel
screen,html.Screen,1_1_0_1_34,2021-03-28T19:46:33.694Z,,,,,,,,,,,,,,,,53,,,,,,,,,,,,,,292.96900009544333,response,,,,99,,,,,,Space,keypress(Space),,,,,,,,---- -- ----- -- ------ - ------- --- ----------<br>------------- ------ ------ ---- ---- ------- ----- -- ----<br>-------- ------- -- ---------- --- - --- ----- ----- ----<br>---- --- --- ----- --- ---- that ------- ----- ---- -------<br>--- --- -- ----- -- --- ---- -- --- ---- -- ------ ------<br>--- ----- -- ----,136780.72999999858,136778.48000009544,136468.727,136475.67000007257,136485.511,136785.237,,34,that
screen,html.Screen,1_1_0_1_35,2021-03-28T19:46:34.029Z,,,,,,,,,,,,,,,,53,,,,,,,,,,,,,,328.12800011385116,response,,,,99,,,,,,Space,keypress(Space),,,,,,,,---- -- ----- -- ------ - ------- --- ----------<br>------------- ------ ------ ---- ---- ------- ----- -- ----<br>-------- ------- -- ---------- --- - --- ----- ----- ----<br>---- --- --- ----- --- ---- ---- matters ----- ---- -------<br>--- --- -- ----- -- --- ---- -- --- ---- -- ------ ------<br>--- ----- -- ----,137115.53999991156,137113.36500011384,136768.739,136781.20999992825,136785.237,137118.539,,35,matters
screen,html.Screen,1_1_0_1_36,2021-03-28T19:46:34.439Z,,,,,,,,,,,,,,,,53,,,,,,,,,,,,,,404.836000106181,response,,,,99,,,,,,Space,keypress(Space),,,,,,,,"---- -- ----- -- ------ - ------- --- ----------<br>------------- ------ ------ ---- ---- ------- ----- -- ----<br>-------- ------- -- ---------- --- - --- ----- ----- ----<br>---- --- --- ----- --- ---- ---- ------- most, ---- -------<br>--- --- -- ----- -- --- ---- -- --- ---- -- ------ ------<br>--- ----- -- ----",137525.54500009865,137523.37500010617,137102.053,137116.02500011213,137118.539,137535.21,,36,"most,"
screen,html.Screen,1_1_0_1_37,2021-03-28T19:46:34.802Z,,,,,,,,,,,,,,,,53,,,,,,,,,,,,,,351.0200000619225,response,,,,99,,,,,,Space,keypress(Space),,,,,,,,---- -- ----- -- ------ - ------- --- ----------<br>------------- ------ ------ ---- ---- ------- ----- -- ----<br>-------- ------- -- ---------- --- - --- ----- ----- ----<br>---- --- --- ----- --- ---- ---- ------- ----- it's -------<br>--- --- -- ----- -- --- ---- -- --- ---- -- ------ ------<br>--- ----- -- ----,137888.3650000207,137886.2300000619,137518.697,137526.13999997266,137535.21,137901.934,,37,it's
screen,html.Screen,1_1_0_1_38,2021-03-28T19:46:35.196Z,,,,,,,,,,,,,,,,53,,,,,,,,,,,,,,378.70099997369107,response,,,,99,,,,,,Space,keypress(Space),,,,,,,,---- -- ----- -- ------ - ------- --- ----------<br>------------- ------ ------ ---- ---- ------- ----- -- ----<br>-------- ------- -- ---------- --- - --- ----- ----- ----<br>---- --- --- ----- --- ---- ---- ------- ----- ---- whether<br>--- --- -- ----- -- --- ---- -- --- ---- -- ------ ------<br>--- ----- -- ----,138282.66000002623,138280.6349999737,137885.35,137888.830000069,137901.934,138285.155,,38,whether
screen,html.Screen,1_1_0_1_39,2021-03-28T19:46:35.533Z,,,,,,,,,,,,,,,,53,,,,,,,,,,,,,,332.40999996408937,response,,,,99,,,,,,Space,keypress(Space),,,,,,,,---- -- ----- -- ------ - ------- --- ----------<br>------------- ------ ------ ---- ---- ------- ----- -- ----<br>-------- ------- -- ---------- --- - --- ----- ----- ----<br>---- --- --- ----- --- ---- ---- ------- ----- ---- -------<br>you --- -- ----- -- --- ---- -- --- ---- -- ------ ------<br>--- ----- -- ----,138619.75500010885,138617.5649999641,138268.642,138283.13499991782,138285.155,138635.302,,39,you
screen,html.Screen,1_1_0_1_40,2021-03-28T19:46:35.821Z,,,,,,,,,,,,,,,,53,,,,,,,,,,,,,,270.30299997809925,response,,,,99,,,,,,Space,keypress(Space),,,,,,,,---- -- ----- -- ------ - ------- --- ----------<br>------------- ------ ------ ---- ---- ------- ----- -- ----<br>-------- ------- -- ---------- --- - --- ----- ----- ----<br>---- --- --- ----- --- ---- ---- ------- ----- ---- -------<br>--- are -- ----- -- --- ---- -- --- ---- -- ------ ------<br>--- ----- -- ----,138907.66000002623,138905.6049999781,138618.651,138620.27500011027,138635.302,138918.494,,40,are
screen,html.Screen,1_1_0_1_41,2021-03-28T19:46:36.124Z,,,,,,,,,,,,,,,,53,,,,,,,,,,,,,,289.54599993949523,response,,,,99,,,,,,Space,keypress(Space),,,,,,,,---- -- ----- -- ------ - ------- --- ----------<br>------------- ------ ------ ---- ---- ------- ----- -- ----<br>-------- ------- -- ---------- --- - --- ----- ----- ----<br>---- --- --- ----- --- ---- ---- ------- ----- ---- -------<br>--- --- as ----- -- --- ---- -- --- ---- -- ------ ------<br>--- ----- -- ----,139210.08999994956,139208.0399999395,138901.948,138908.15000003204,138918.494,139218.506,,41,as
screen,html.Screen,1_1_0_1_42,2021-03-28T19:46:36.436Z,,,,,,,,,,,,,,,,53,,,,,,,,,,,,,,301.5189999761642,response,,,,99,,,,,,Space,keypress(Space),,,,,,,,---- -- ----- -- ------ - ------- --- ----------<br>------------- ------ ------ ---- ---- ------- ----- -- ----<br>-------- ------- -- ---------- --- - --- ----- ----- ----<br>---- --- --- ----- --- ---- ---- ------- ----- ---- -------<br>--- --- -- close -- --- ---- -- --- ---- -- ------ ------<br>--- ----- -- ----,139522.09499990568,139520.02499997616,139201.959,139210.57000011206,139218.506,139535.141,,42,close
screen,html.Screen,1_1_0_1_43,2021-03-28T19:46:36.735Z,,,,,,,,,,,,,,,,53,,,,,,,,,,,,,,284.18400004768046,response,,,,99,,,,,,Space,keypress(Space),,,,,,,,---- -- ----- -- ------ - ------- --- ----------<br>------------- ------ ------ ---- ---- ------- ----- -- ----<br>-------- ------- -- ---------- --- - --- ----- ----- ----<br>---- --- --- ----- --- ---- ---- ------- ----- ---- -------<br>--- --- -- ----- as --- ---- -- --- ---- -- ------ ------<br>--- ----- -- ----,139821.35999994352,139819.32500004768,139518.476,139522.58000010625,139535.141,139835.277,,43,as
screen,html.Screen,1_1_0_1_44,2021-03-28T19:46:37.071Z,,,,,,,,,,,,,,,,53,,,,,,,,,,,,,,320.21800007182173,response,,,,99,,,,,,Space,keypress(Space),,,,,,,,---- -- ----- -- ------ - ------- --- ----------<br>------------- ------ ------ ---- ---- ------- ----- -- ----<br>-------- ------- -- ---------- --- - --- ----- ----- ----<br>---- --- --- ----- --- ---- ---- ------- ----- ---- -------<br>--- --- -- ----- -- you ---- -- --- ---- -- ------ ------<br>--- ----- -- ----,140157.5100000482,140155.49500007182,139818.572,139821.84000010602,139835.277,140168.575,,44,you
screen,html.Screen,1_1_0_1_45,2021-03-28T19:46:37.418Z,,,,,,,,,,,,,,,,53,,,,,,,,,,,,,,333.4550000905874,response,,,,99,,,,,,Space,keypress(Space),,,,,,,,---- -- ----- -- ------ - ------- --- ----------<br>------------- ------ ------ ---- ---- ------- ----- -- ----<br>-------- ------- -- ---------- --- - --- ----- ----- ----<br>---- --- --- ----- --- ---- ---- ------- ----- ---- -------<br>--- --- -- ----- -- --- want -- --- ---- -- ------ ------<br>--- ----- -- ----,140504.06499998644,140502.0300000906,140151.886,140157.98999997787,140168.575,140518.555,,45,want
screen,html.Screen,1_1_0_1_46,2021-03-28T19:46:37.721Z,,,,,,,,,,,,,,,,53,,,,,,,,,,,,,,287.1549999859999,response,,,,99,,,,,,Space,keypress(Space),,,,,,,,---- -- ----- -- ------ - ------- --- ----------<br>------------- ------ ------ ---- ---- ------- ----- -- ----<br>-------- ------- -- ---------- --- - --- ----- ----- ----<br>---- --- --- ----- --- ---- ---- ------- ----- ---- -------<br>--- --- -- ----- -- --- ---- to --- ---- -- ------ ------<br>--- ----- -- ----,140807.7400000766,140805.709999986,140501.793,140504.54000011086,140518.555,140818.526,,46,to
screen,html.Screen,1_1_0_1_47,2021-03-28T19:46:38.053Z,,,,,,,,,,,,,,,,53,,,,,,,,,,,,,,319.19399999879533,response,,,,99,,,,,,Space,keypress(Space),,,,,,,,"---- -- ----- -- ------ - ------- --- ----------<br>------------- ------ ------ ---- ---- ------- ----- -- ----<br>-------- ------- -- ---------- --- - --- ----- ----- ----<br>---- --- --- ----- --- ---- ---- ------- ----- ---- -------<br>--- --- -- ----- -- --- ---- -- be, ---- -- ------ ------<br>--- ----- -- ----",141139.80000000447,141137.7199999988,140801.86,140808.23999992572,140818.526,141151.738,,47,"be,"
screen,html.Screen,1_1_0_1_48,2021-03-28T19:46:38.387Z,,,,,,,,,,,,,,,,53,,,,,,,,,,,,,,319.91700000118,response,,,,99,,,,,,Space,keypress(Space),,,,,,,,---- -- ----- -- ------ - ------- --- ----------<br>------------- ------ ------ ---- ---- ------- ----- -- ----<br>-------- ------- -- ---------- --- - --- ----- ----- ----<br>---- --- --- ----- --- ---- ---- ------- ----- ---- -------<br>--- --- -- ----- -- --- ---- -- --- even -- ------ ------<br>--- ----- -- ----,141473.68999989703,141471.6550000012,141135.337,141140.27499989606,141151.738,141485.131,,48,even
screen,html.Screen,1_1_0_1_49,2021-03-28T19:46:38.699Z,,,,,,,,,,,,,,,,53,,,,,,,,,,,,,,298.0389999515028,response,,,,99,,,,,,Space,keypress(Space),,,,,,,,---- -- ----- -- ------ - ------- --- ----------<br>------------- ------ ------ ---- ---- ------- ----- -- ----<br>-------- ------- -- ---------- --- - --- ----- ----- ----<br>---- --- --- ----- --- ---- ---- ------- ----- ---- -------<br>--- --- -- ----- -- --- ---- -- --- ---- if ------ ------<br>--- ----- -- ----,141785.8750000596,141783.1699999515,141468.535,141474.16500002146,141485.131,141801.824,,49,if
screen,html.Screen,1_1_0_1_50,2021-03-28T19:46:38.973Z,,,,,,,,,,,,,,,,53,,,,,,,,,,,,,,255.0860000429966,response,,,,99,,,,,,Space,keypress(Space),,,,,,,,---- -- ----- -- ------ - ------- --- ----------<br>------------- ------ ------ ---- ---- ------- ----- -- ----<br>-------- ------- -- ---------- --- - --- ----- ----- ----<br>---- --- --- ----- --- ---- ---- ------- ----- ---- -------<br>--- --- -- ----- -- --- ---- -- --- ---- -- that's ------<br>--- ----- -- ----,142058.96500009112,142056.910000043,141785.453,141786.36500006542,141801.824,142068.344,,50,that's
screen,html.Screen,1_1_0_1_51,2021-03-28T19:46:39.297Z,,,,,,,,,,,,,,,,53,,,,,,,,,,,,,,312.4259999306232,response,,,,99,,,,,,Space,keypress(Space),,,,,,,,---- -- ----- -- ------ - ------- --- ----------<br>------------- ------ ------ ---- ---- ------- ----- -- ----<br>-------- ------- -- ---------- --- - --- ----- ----- ----<br>---- --- --- ----- --- ---- ---- ------- ----- ---- -------<br>--- --- -- ----- -- --- ---- -- --- ---- -- ------ really<br>--- ----- -- ----,142383.17000004463,142380.76999993064,142051.808,142059.4450000208,142068.344,142407.14,,51,really
screen,html.Screen,1_1_0_1_52,2021-03-28T19:46:39.628Z,,,,,,,,,,,,,,,,53,,,,,,,,,,,,,,304.1600000826875,response,,,,99,,,,,,Space,keypress(Space),,,,,,,,---- -- ----- -- ------ - ------- --- ----------<br>------------- ------ ------ ---- ---- ------- ----- -- ----<br>-------- ------- -- ---------- --- - --- ----- ----- ----<br>---- --- --- ----- --- ---- ---- ------- ----- ---- -------<br>--- --- -- ----- -- --- ---- -- --- ---- -- ------ ------<br>not ----- -- ----,142713.9900000766,142711.3000000827,142368.481,142383.65500001237,142407.14,142718.29,,52,not
screen,html.Screen,1_1_0_1_53,2021-03-28T19:46:39.914Z,,,,,,,,,,,,,,,,53,,,,,,,,,,,,,,280.4600000279315,response,,,,99,,,,,,Space,keypress(Space),,,,,,,,---- -- ----- -- ------ - ------- --- ----------<br>------------- ------ ------ ---- ---- ------- ----- -- ----<br>-------- ------- -- ---------- --- - --- ----- ----- ----<br>---- --- --- ----- --- ---- ---- ------- ----- ---- -------<br>--- --- -- ----- -- --- ---- -- --- ---- -- ------ ------<br>--- close -- ----,143000.78999996185,142998.75000002794,142701.712,142714.45499989204,142718.29,143018.44,,53,close
screen,html.Screen,1_1_0_1_54,2021-03-28T19:46:40.231Z,,,,,,,,,,,,,,,,53,,,,,,,,,,,,,,297.42500001139706,response,,,,99,,,,,,Space,keypress(Space),,,,,,,,---- -- ----- -- ------ - ------- --- ----------<br>------------- ------ ------ ---- ---- ------- ----- -- ----<br>-------- ------- -- ---------- --- - --- ----- ----- ----<br>---- --- --- ----- --- ---- ---- ------- ----- ---- -------<br>--- --- -- ----- -- --- ---- -- --- ---- -- ------ ------<br>--- ----- at ----,143317.9049999453,143315.8650000114,143001.786,143001.26999989152,143018.44,143334.963,,54,at
screen,html.Screen,1_1_0_1_55,2021-03-28T19:46:40.622Z,,,,,,,,,,,,,,,,53,,,,,,,,,,,,,,371.3369999616407,response,,,,99,,,,,,Space,keypress(Space),,,,,,,,---- -- ----- -- ------ - ------- --- ----------<br>------------- ------ ------ ---- ---- ------- ----- -- ----<br>-------- ------- -- ---------- --- - --- ----- ----- ----<br>---- --- --- ----- --- ---- ---- ------- ----- ---- -------<br>--- --- -- ----- -- --- ---- -- --- ---- -- ------ ------<br>--- ----- -- all.,143708.36999989115,143706.29999996163,143318.381,143318.56500008143,143334.963,143751.596,,55,all.
Item 99,flow.Loop,1_1_0_1,2021-03-28T19:46:40.623Z,,,,,,,,,,,,,,,,,,,,,,,,,,,,,,27020.103999961633,completion,,,,,D,,,,,,,,,,silence,,,,,143709.32499994524,143706.29999996163,116602.983,116605.11000012048,116686.196,143751.596,,,
Question 1,html.Screen,1_1_0_2,2021-03-28T19:46:43.611Z,,,,,,,,,,,,,,,,,,,,,,,,,,,true,FALSE,,2942.9289999407774,response,,,,99,D,,,,,FALSE,click #choice-2,,,,silence,,,,,146697.41500006057,146694.52499994077,143701.721,143709.80000006966,143751.596,146718.106,,,
Question 2,html.Screen,1_1_0_3,2021-03-28T19:46:47.454Z,,,,,,,,,,,,,,,,,,,,,,,,,,,true,TRUE,,3819.28399995403,response,,,,99,D,,,,,TRUE,click #choice-1,,,,silence,,,,,150539.99499999918,150537.38999995403,146684.953,146697.935000062,146718.106,150567.977,,,
Item 99,flow.Sequence,1_1_0,2021-03-28T19:46:47.454Z,,,,,,,,,,,,,,,,,,,,,,,,,,,,,,40917.53399995403,completion,,,,,,,,,,,,,,,,,,,,150540.72499996983,150537.38999995403,109569.993,109601.8149999436,109619.856,150567.977,,,
Holding screen,html.Screen,1_1_1_0,2021-03-28T19:46:54.466Z,,,,,,,,,,,,,,,,,,,,,,,,,,,,,,6999.673999999999,timeout,,,,,,,,,,,,,,,,,,,,157552.714999998,157551.109,150534.777,150541.29999992438,150567.977,157567.651,,,
screen,html.Screen,1_1_1_1_0,2021-03-28T19:46:55.754Z,,,,,,,,,,,,,,,,54,,,,,,,,,,,,,,1270.6640000590705,response,,,,100,,,,,,Space,keypress(Space),,,,,,,,At --- ---- --- ------ ----- ------- ---- -- --- ------- --<br>------- ---------- ------ -- ----- -- ----- -- ---- ------<br>--- ----- --- --- ------ -------- ----- --- ------ ----- --<br>----- ----- ---------- --- --- ------ ------ ---- -- ------<br>------- --- ------ ----- --- ---- ------- -- ---- --- --<br>------- ------,158840.83999996074,158838.31500005908,157551.109,157553.3600000199,157567.651,158850.891,,0,At
screen,html.Screen,1_1_1_1_1,2021-03-28T19:46:56.161Z,,,,,,,,,,,,,,,,54,,,,,,,,,,,,,,394.2089999418822,response,,,,100,,,,,,Space,keypress(Space),,,,,,,,-- the ---- --- ------ ----- ------- ---- -- --- ------- --<br>------- ---------- ------ -- ----- -- ----- -- ---- ------<br>--- ----- --- --- ------ -------- ----- --- ------ ----- --<br>----- ----- ---------- --- --- ------ ------ ---- -- ------<br>------- --- ------ ----- --- ---- ------- -- ---- --- --<br>------- ------,159247.01000005007,159245.0999999419,158834.316,158841.30500000902,158850.891,159250.93,,1,the
screen,html.Screen,1_1_1_1_2,2021-03-28T19:46:56.611Z,,,,,,,,,,,,,,,,54,,,,,,,,,,,,,,444.13500009448035,response,,,,100,,,,,,Space,keypress(Space),,,,,,,,-- --- time --- ------ ----- ------- ---- -- --- ------- --<br>------- ---------- ------ -- ----- -- ----- -- ---- ------<br>--- ----- --- --- ------ -------- ----- --- ------ ----- --<br>----- ----- ---------- --- --- ------ ------ ---- -- ------<br>------- --- ------ ----- --- ---- ------- -- ---- --- --<br>------- ------,159696.96499989368,159695.06500009447,159234.287,159247.47000006028,159250.93,159700.839,,2,time
screen,html.Screen,1_1_1_1_3,2021-03-28T19:46:56.987Z,,,,,,,,,,,,,,,,54,,,,,,,,,,,,,,370.26600009729736,response,,,,100,,,,,,Space,keypress(Space),,,,,,,,-- --- ---- the ------ ----- ------- ---- -- --- ------- --<br>------- ---------- ------ -- ----- -- ----- -- ---- ------<br>--- ----- --- --- ------ -------- ----- --- ------ ----- --<br>----- ----- ---------- --- --- ------ ------ ---- -- ------<br>------- --- ------ ----- --- ---- ------- -- ---- --- --<br>------- ------,160073.03000008687,160071.1050000973,159684.347,159697.4249999039,159700.839,160084.385,,3,the
screen,html.Screen,1_1_1_1_4,2021-03-28T19:46:57.350Z,,,,,,,,,,,,,,,,54,,,,,,,,,,,,,,350.46500007784925,response,,,,100,,,,,,Space,keypress(Space),,,,,,,,-- --- ---- --- French ----- ------- ---- -- --- ------- --<br>------- ---------- ------ -- ----- -- ----- -- ---- ------<br>--- ----- --- --- ------ -------- ----- --- ------ ----- --<br>----- ----- ---------- --- --- ------ ------ ---- -- ------<br>------- --- ------ ----- --- ---- ------- -- ---- --- --<br>------- ------,160436.71500007622,160434.85000007786,160067.668,160073.49499990232,160084.385,160450.895,,4,French
screen,html.Screen,1_1_1_1_5,2021-03-28T19:46:57.722Z,,,,,,,,,,,,,,,,54,,,,,,,,,,,,,,355.7299999683455,response,,,,100,,,,,,Space,keypress(Space),,,,,,,,-- --- ---- --- ------ crown ------- ---- -- --- ------- --<br>------- ---------- ------ -- ----- -- ----- -- ---- ------<br>--- ----- --- --- ------ -------- ----- --- ------ ----- --<br>----- ----- ---------- --- --- ------ ------ ---- -- ------<br>------- --- ------ ----- --- ---- ------- -- ---- --- --<br>------- ------,160808.60499991104,160806.62499996834,160434.487,160437.17500008643,160450.895,160817.458,,5,crown
screen,html.Screen,1_1_1_1_6,2021-03-28T19:46:58.038Z,,,,,,,,,,,,,,,,54,,,,,,,,,,,,,,305.0770000895427,response,,,,100,,,,,,Space,keypress(Space),,,,,,,,-- --- ---- --- ------ ----- secured ---- -- --- ------- --<br>------- ---------- ------ -- ----- -- ----- -- ---- ------<br>--- ----- --- --- ------ -------- ----- --- ------ ----- --<br>----- ----- ---------- --- --- ------ ------ ---- -- ------<br>------- --- ------ ----- --- ---- ------- -- ---- --- --<br>------- ------,161124.45500004105,161122.53500008956,160800.935,160809.2300000135,160817.458,161134.102,,6,secured
screen,html.Screen,1_1_1_1_7,2021-03-28T19:46:58.443Z,,,,,,,,,,,,,,,,54,,,,,,,,,,,,,,393.173000000359,response,,,,100,,,,,,Space,keypress(Space),,,,,,,,-- --- ---- --- ------ ----- ------- much -- --- ------- --<br>------- ---------- ------ -- ----- -- ----- -- ---- ------<br>--- ----- --- --- ------ -------- ----- --- ------ ----- --<br>----- ----- ---------- --- --- ------ ------ ---- -- ------<br>------- --- ------ ----- --- ---- ------- -- ---- --- --<br>------- ------,161529.5299999416,161527.27500000037,161117.624,161125.33499998972,161134.102,161534.112,,7,much
screen,html.Screen,1_1_1_1_8,2021-03-28T19:46:58.798Z,,,,,,,,,,,,,,,,54,,,,,,,,,,,,,,348.3580000695947,response,,,,100,,,,,,Space,keypress(Space),,,,,,,,-- --- ---- --- ------ ----- ------- ---- of --- ------- --<br>------- ---------- ------ -- ----- -- ----- -- ---- ------<br>--- ----- --- --- ------ -------- ----- --- ------ ----- --<br>----- ----- ---------- --- --- ------ ------ ---- -- ------<br>------- --- ------ ----- --- ---- ------- -- ---- --- --<br>------- ------,161884.50499996543,161882.4700000696,161517.603,161530.01000010408,161534.112,161900.905,,8,of
screen,html.Screen,1_1_1_1_9,2021-03-28T19:46:59.134Z,,,,,,,,,,,,,,,,54,,,,,,,,,,,,,,317.28499992683646,response,,,,100,,,,,,Space,keypress(Space),,,,,,,,-- --- ---- --- ------ ----- ------- ---- -- its ------- --<br>------- ---------- ------ -- ----- -- ----- -- ---- ------<br>--- ----- --- --- ------ -------- ----- --- ------ ----- --<br>----- ----- ---------- --- --- ------ ------ ---- -- ------<br>------- --- ------ ----- --- ---- ------- -- ---- --- --<br>------- ------,162220.47500009649,162218.18999992684,161884.251,161884.9849998951,161900.905,162234.207,,9,its
screen,html.Screen,1_1_1_1_10,2021-03-28T19:46:59.502Z,,,,,,,,,,,,,,,,54,,,,,,,,,,,,,,351.4180000651977,response,,,,100,,,,,,Space,keypress(Space),,,,,,,,-- --- ---- --- ------ ----- ------- ---- -- --- revenue --<br>------- ---------- ------ -- ----- -- ----- -- ---- ------<br>--- ----- --- --- ------ -------- ----- --- ------ ----- --<br>----- ----- ---------- --- --- ------ ------ ---- -- ------<br>------- --- ------ ----- --- ---- ------- -- ---- --- --<br>------- ------,162588.11499993317,162585.6250000652,162217.55,162223.58500002883,162234.207,162600.748,,10,revenue
screen,html.Screen,1_1_1_1_11,2021-03-28T19:46:59.895Z,,,,,,,,,,,,,,,,54,,,,,,,,,,,,,,378.54199993019574,response,,,,100,,,,,,Space,keypress(Space),,,,,,,,-- --- ---- --- ------ ----- ------- ---- -- --- ------- by<br>------- ---------- ------ -- ----- -- ----- -- ---- ------<br>--- ----- --- --- ------ -------- ----- --- ------ ----- --<br>----- ----- ---------- --- --- ------ ------ ---- -- ------<br>------- --- ------ ----- --- ---- ------- -- ---- --- --<br>------- ------,162981.46499996074,162979.2899999302,162584.223,162588.56500010006,162600.748,162984.02,,11,by
screen,html.Screen,1_1_1_1_12,2021-03-28T19:47:00.242Z,,,,,,,,,,,,,,,,54,,,,,,,,,,,,,,342.0700001041696,response,,,,100,,,,,,Space,keypress(Space),,,,,,,,-- --- ---- --- ------ ----- ------- ---- -- --- ------- --<br>issuing ---------- ------ -- ----- -- ----- -- ---- ------<br>--- ----- --- --- ------ -------- ----- --- ------ ----- --<br>----- ----- ---------- --- --- ------ ------ ---- -- ------<br>------- --- ------ ----- --- ---- ------- -- ---- --- --<br>------- ------,163328.8650000468,163326.09000010416,162967.536,162981.9149998948,162984.02,163334.036,,12,issuing
screen,html.Screen,1_1_1_1_13,2021-03-28T19:47:00.630Z,,,,,,,,,,,,,,,,54,,,,,,,,,,,,,,380.0239999111218,response,,,,100,,,,,,Space,keypress(Space),,,,,,,,-- --- ---- --- ------ ----- ------- ---- -- --- ------- --<br>------- government ------ -- ----- -- ----- -- ---- ------<br>--- ----- --- --- ------ -------- ----- --- ------ ----- --<br>----- ----- ---------- --- --- ------ ------ ---- -- ------<br>------- --- ------ ----- --- ---- ------- -- ---- --- --<br>------- ------,163716.3100000471,163714.05999991111,163317.52,163329.325000057,163334.036,163734.168,,13,government
screen,html.Screen,1_1_1_1_14,2021-03-28T19:47:04.355Z,,,,,,,,,,,,,,,,54,,,,,,,,,,,,,,3704.666999920795,response,,,,100,,,,,,Space,keypress(Space),,,,,,,,-- --- ---- --- ------ ----- ------- ---- -- --- ------- --<br>------- ---------- bonds. -- ----- -- ----- -- ---- ------<br>--- ----- --- --- ------ -------- ----- --- ------ ----- --<br>----- ----- ---------- --- --- ------ ------ ---- -- ------<br>------- --- ------ ----- --- ---- ------- -- ---- --- --<br>------- ------,167440.96000003628,167438.8349999208,163717.499,163716.7700000573,163734.168,167450.47,,14,bonds.
screen,html.Screen,1_1_1_1_15,2021-03-28T19:47:04.670Z,,,,,,,,,,,,,,,,54,,,,,,,,,,,,,,303.87500002302113,response,,,,100,,,,,,Space,keypress(Space),,,,,,,,-- --- ---- --- ------ ----- ------- ---- -- --- ------- --<br>------- ---------- ------ In ----- -- ----- -- ---- ------<br>--- ----- --- --- ------ -------- ----- --- ------ ----- --<br>----- ----- ---------- --- --- ------ ------ ---- -- ------<br>------- --- ------ ----- --- ---- ------- -- ---- --- --<br>------- ------,167756.33500004187,167754.34500002302,167433.789,167441.4949999191,167450.47,167767.489,,15,In
screen,html.Screen,1_1_1_1_16,2021-03-28T19:47:04.932Z,,,,,,,,,,,,,,,,54,,,,,,,,,,,,,,248.5960000102059,response,,,,100,,,,,,Space,keypress(Space),,,,,,,,"-- --- ---- --- ------ ----- ------- ---- -- --- ------- --<br>------- ---------- ------ -- 1727, -- ----- -- ---- ------<br>--- ----- --- --- ------ -------- ----- --- ------ ----- --<br>----- ----- ---------- --- --- ------ ------ ---- -- ------<br>------- --- ------ ----- --- ---- ------- -- ---- --- --<br>------- ------",168018.1150001008,168016.0850000102,167751.224,167756.78499997593,167767.489,168033.957,,16,"1727,"
screen,html.Screen,1_1_1_1_17,2021-03-28T19:47:05.232Z,,,,,,,,,,,,,,,,54,,,,,,,,,,,,,,281.46799992065644,response,,,,100,,,,,,Space,keypress(Space),,,,,,,,-- --- ---- --- ------ ----- ------- ---- -- --- ------- --<br>------- ---------- ------ -- ----- in ----- -- ---- ------<br>--- ----- --- --- ------ -------- ----- --- ------ ----- --<br>----- ----- ---------- --- --- ------ ------ ---- -- ------<br>------- --- ------ ----- --- ---- ------- -- ---- --- --<br>------- ------,168317.96499993652,168315.42499992065,168017.424,168018.5599999968,168033.957,168333.945,,17,in
screen,html.Screen,1_1_1_1_18,2021-03-28T19:47:05.541Z,,,,,,,,,,,,,,,,54,,,,,,,,,,,,,,291.86000007606344,response,,,,100,,,,,,Space,keypress(Space),,,,,,,,-- --- ---- --- ------ ----- ------- ---- -- --- ------- --<br>------- ---------- ------ -- ----- -- order -- ---- ------<br>--- ----- --- --- ------ -------- ----- --- ------ ----- --<br>----- ----- ---------- --- --- ------ ------ ---- -- ------<br>------- --- ------ ----- --- ---- ------- -- ---- --- --<br>------- ------,168627.8750000056,168625.80500007607,168317.267,168318.46500001848,168333.945,168633.783,,18,order
screen,html.Screen,1_1_1_1_19,2021-03-28T19:47:05.776Z,,,,,,,,,,,,,,,,54,,,,,,,,,,,,,,226.2219999076915,response,,,,100,,,,,,Space,keypress(Space),,,,,,,,-- --- ---- --- ------ ----- ------- ---- -- --- ------- --<br>------- ---------- ------ -- ----- -- ----- to ---- ------<br>--- ----- --- --- ------ -------- ----- --- ------ ----- --<br>----- ----- ---------- --- --- ------ ------ ---- -- ------<br>------- --- ------ ----- --- ---- ------- -- ---- --- --<br>------- ------,168862.07000003196,168860.0049999077,168617.256,168628.31999990158,168633.783,168867.099,,19,to
screen,html.Screen,1_1_1_1_20,2021-03-28T19:47:06.065Z,,,,,,,,,,,,,,,,54,,,,,,,,,,,,,,282.24100000358885,response,,,,100,,,,,,Space,keypress(Space),,,,,,,,-- --- ---- --- ------ ----- ------- ---- -- --- ------- --<br>------- ---------- ------ -- ----- -- ----- -- save ------<br>--- ----- --- --- ------ -------- ----- --- ------ ----- --<br>----- ----- ---------- --- --- ------ ------ ---- -- ------<br>------- --- ------ ----- --- ---- ------- -- ---- --- --<br>------- ------,169151.49500011466,169149.34000000358,168850.605,168862.53000004217,168867.099,169167.154,,20,save
screen,html.Screen,1_1_1_1_21,2021-03-28T19:47:06.354Z,,,,,,,,,,,,,,,,54,,,,,,,,,,,,,,271.1460000379884,response,,,,100,,,,,,Space,keypress(Space),,,,,,,,"-- --- ---- --- ------ ----- ------- ---- -- --- ------- --<br>------- ---------- ------ -- ----- -- ----- -- ---- money,<br>--- ----- --- --- ------ -------- ----- --- ------ ----- --<br>----- ----- ---------- --- --- ------ ------ ---- -- ------<br>------- --- ------ ----- --- ---- ------- -- ---- --- --<br>------- ------",169440.32999989577,169438.300000038,169150.588,169151.9649999682,169167.154,169450.744,,21,"money,"
screen,html.Screen,1_1_1_1_22,2021-03-28T19:47:06.645Z,,,,,,,,,,,,,,,,54,,,,,,,,,,,,,,278.4160001044511,response,,,,100,,,,,,Space,keypress(Space),,,,,,,,-- --- ---- --- ------ ----- ------- ---- -- --- ------- --<br>------- ---------- ------ -- ----- -- ----- -- ---- ------<br>the ----- --- --- ------ -------- ----- --- ------ ----- --<br>----- ----- ---------- --- --- ------ ------ ---- -- ------<br>------- --- ------ ----- --- ---- ------- -- ---- --- --<br>------- ------,169731.21999995783,169729.16000010446,169433.887,169440.78000006266,169450.744,169733.678,,22,the
screen,html.Screen,1_1_1_1_23,2021-03-28T19:47:06.915Z,,,,,,,,,,,,,,,,54,,,,,,,,,,,,,,265.7720000029658,response,,,,100,,,,,,Space,keypress(Space),,,,,,,,-- --- ---- --- ------ ----- ------- ---- -- --- ------- --<br>------- ---------- ------ -- ----- -- ----- -- ---- ------<br>--- state --- --- ------ -------- ----- --- ------ ----- --<br>----- ----- ---------- --- --- ------ ------ ---- -- ------<br>------- --- ------ ----- --- ---- ------- -- ---- --- --<br>------- ------,170001.4750000555,169999.45000000298,169717.23,169731.67499992996,169733.678,170017.199,,23,state
screen,html.Screen,1_1_1_1_24,2021-03-28T19:47:07.170Z,,,,,,,,,,,,,,,,54,,,,,,,,,,,,,,236.756000080175,response,,,,100,,,,,,Space,keypress(Space),,,,,,,,-- --- ---- --- ------ ----- ------- ---- -- --- ------- --<br>------- ---------- ------ -- ----- -- ----- -- ---- ------<br>--- ----- cut --- ------ -------- ----- --- ------ ----- --<br>----- ----- ---------- --- --- ------ ------ ---- -- ------<br>------- --- ------ ----- --- ---- ------- -- ---- --- --<br>------- ------,170256.65499991737,170253.95500008017,170000.68,170001.94499990903,170017.199,170267.117,,24,cut
screen,html.Screen,1_1_1_1_25,2021-03-28T19:47:07.426Z,,,,,,,,,,,,,,,,54,,,,,,,,,,,,,,243.25800007078215,response,,,,100,,,,,,Space,keypress(Space),,,,,,,,-- --- ---- --- ------ ----- ------- ---- -- --- ------- --<br>------- ---------- ------ -- ----- -- ----- -- ---- ------<br>--- ----- --- the ------ -------- ----- --- ------ ----- --<br>----- ----- ---------- --- --- ------ ------ ---- -- ------<br>------- --- ------ ----- --- ---- ------- -- ---- --- --<br>------- ------,170512.40999996662,170510.37500007078,170250.518,170257.11499992758,170267.117,170517,,25,the
screen,html.Screen,1_1_1_1_26,2021-03-28T19:47:07.684Z,,,,,,,,,,,,,,,,54,,,,,,,,,,,,,,250.7100000437349,response,,,,100,,,,,,Space,keypress(Space),,,,,,,,-- --- ---- --- ------ ----- ------- ---- -- --- ------- --<br>------- ---------- ------ -- ----- -- ----- -- ---- ------<br>--- ----- --- --- bonds' -------- ----- --- ------ ----- --<br>----- ----- ---------- --- --- ------ ------ ---- -- ------<br>------- --- ------ ----- --- ---- ------- -- ---- --- --<br>------- ------,170770.0650000479,170767.71000004373,170500.53,170512.8750000149,170517,170783.976,,26,bonds'
screen,html.Screen,1_1_1_1_27,2021-03-28T19:47:07.981Z,,,,,,,,,,,,,,,,54,,,,,,,,,,,,,,280.7439999075432,response,,,,100,,,,,,Space,keypress(Space),,,,,,,,-- --- ---- --- ------ ----- ------- ---- -- --- ------- --<br>------- ---------- ------ -- ----- -- ----- -- ---- ------<br>--- ----- --- --- ------ interest ----- --- ------ ----- --<br>----- ----- ---------- --- --- ------ ------ ---- -- ------<br>------- --- ------ ----- --- ---- ------- -- ---- --- --<br>------- ------,171067.43999989703,171064.71999990754,170767.186,170770.53499990143,170783.976,171083.817,,27,interest
screen,html.Screen,1_1_1_1_28,2021-03-28T19:47:08.334Z,,,,,,,,,,,,,,,,54,,,,,,,,,,,,,,334.1280001101841,response,,,,100,,,,,,Space,keypress(Space),,,,,,,,-- --- ---- --- ------ ----- ------- ---- -- --- ------- --<br>------- ---------- ------ -- ----- -- ----- -- ---- ------<br>--- ----- --- --- ------ -------- rate. --- ------ ----- --<br>----- ----- ---------- --- --- ------ ------ ---- -- ------<br>------- --- ------ ----- --- ---- ------- -- ---- --- --<br>------- ------,171420.03499995917,171417.9450001102,171067.012,171067.85500003025,171083.817,171433.692,,28,rate.
screen,html.Screen,1_1_1_1_29,2021-03-28T19:47:08.942Z,,,,,,,,,,,,,,,,54,,,,,,,,,,,,,,591.9579999668349,response,,,,100,,,,,,Space,keypress(Space),,,,,,,,-- --- ---- --- ------ ----- ------- ---- -- --- ------- --<br>------- ---------- ------ -- ----- -- ----- -- ---- ------<br>--- ----- --- --- ------ -------- ----- The ------ ----- --<br>----- ----- ---------- --- --- ------ ------ ---- -- ------<br>------- --- ------ ----- --- ---- ------- -- ---- --- --<br>------- ------,172028.18499994464,172025.64999996684,171417.127,171420.56500003673,171433.692,172033.622,,29,The
screen,html.Screen,1_1_1_1_30,2021-03-28T19:47:09.331Z,,,,,,,,,,,,,,,,54,,,,,,,,,,,,,,381.7130000269681,response,,,,100,,,,,,Space,keypress(Space),,,,,,,,-- --- ---- --- ------ ----- ------- ---- -- --- ------- --<br>------- ---------- ------ -- ----- -- ----- -- ---- ------<br>--- ----- --- --- ------ -------- ----- --- market ----- --<br>----- ----- ---------- --- --- ------ ------ ---- -- ------<br>------- --- ------ ----- --- ---- ------- -- ---- --- --<br>------- ------,172417.5849999301,172415.33500002697,172017.107,172028.6250000354,172033.622,172433.601,,30,market
screen,html.Screen,1_1_1_1_31,2021-03-28T19:47:09.752Z,,,,,,,,,,,,,,,,54,,,,,,,,,,,,,,402.2940000256349,response,,,,100,,,,,,Space,keypress(Space),,,,,,,,-- --- ---- --- ------ ----- ------- ---- -- --- ------- --<br>------- ---------- ------ -- ----- -- ----- -- ---- ------<br>--- ----- --- --- ------ -------- ----- --- ------ value --<br>----- ----- ---------- --- --- ------ ------ ---- -- ------<br>------- --- ------ ----- --- ---- ------- -- ---- --- --<br>------- ------,172838.14499992877,172835.89500002563,172417.099,172418.0050001014,172433.601,172850.379,,31,value
screen,html.Screen,1_1_1_1_32,2021-03-28T19:47:10.153Z,,,,,,,,,,,,,,,,54,,,,,,,,,,,,,,386.87600004367414,response,,,,100,,,,,,Space,keypress(Space),,,,,,,,-- --- ---- --- ------ ----- ------- ---- -- --- ------- --<br>------- ---------- ------ -- ----- -- ----- -- ---- ------<br>--- ----- --- --- ------ -------- ----- --- ------ ----- of<br>----- ----- ---------- --- --- ------ ------ ---- -- ------<br>------- --- ------ ----- --- ---- ------- -- ---- --- --<br>------- ------,173239.30500005372,173237.25500004366,172833.719,172838.59500009567,172850.379,173250.302,,32,of
screen,html.Screen,1_1_1_1_33,2021-03-28T19:47:10.498Z,,,,,,,,,,,,,,,,54,,,,,,,,,,,,,,332.0379999644647,response,,,,100,,,,,,Space,keypress(Space),,,,,,,,-- --- ---- --- ------ ----- ------- ---- -- --- ------- --<br>------- ---------- ------ -- ----- -- ----- -- ---- ------<br>--- ----- --- --- ------ -------- ----- --- ------ ----- --<br>these ----- ---------- --- --- ------ ------ ---- -- ------<br>------- --- ------ ----- --- ---- ------- -- ---- --- --<br>------- ------,173584.37000005506,173582.33999996446,173233.813,173239.7400001064,173250.302,173600.369,,33,these
screen,html.Screen,1_1_1_1_34,2021-03-28T19:47:10.779Z,,,,,,,,,,,,,,,,54,,,,,,,,,,,,,,262.8859999747365,response,,,,100,,,,,,Space,keypress(Space),,,,,,,,-- --- ---- --- ------ ----- ------- ---- -- --- ------- --<br>------- ---------- ------ -- ----- -- ----- -- ---- ------<br>--- ----- --- --- ------ -------- ----- --- ------ ----- --<br>----- bonds ---------- --- --- ------ ------ ---- -- ------<br>------- --- ------ ----- --- ---- ------- -- ---- --- --<br>------- ------,173865.2449999936,173863.25499997474,173583.615,173584.8699999042,173600.369,173887.117,,34,bonds
screen,html.Screen,1_1_1_1_35,2021-03-28T19:47:11.084Z,,,,,,,,,,,,,,,,54,,,,,,,,,,,,,,280.8180000340508,response,,,,100,,,,,,Space,keypress(Space),,,,,,,,"-- --- ---- --- ------ ----- ------- ---- -- --- ------- --<br>------- ---------- ------ -- ----- -- ----- -- ---- ------<br>--- ----- --- --- ------ -------- ----- --- ------ ----- --<br>----- ----- plummeted, --- --- ------ ------ ---- -- ------<br>------- --- ------ ----- --- ---- ------- -- ---- --- --<br>------- ------",174169.9349998962,174167.93500003405,173850.209,173865.65999989398,173887.117,174183.817,,35,"plummeted,"
screen,html.Screen,1_1_1_1_36,2021-03-28T19:47:11.437Z,,,,,,,,,,,,,,,,54,,,,,,,,,,,,,,337.6930001077999,response,,,,100,,,,,,Space,keypress(Space),,,,,,,,-- --- ---- --- ------ ----- ------- ---- -- --- ------- --<br>------- ---------- ------ -- ----- -- ----- -- ---- ------<br>--- ----- --- --- ------ -------- ----- --- ------ ----- --<br>----- ----- ---------- and --- ------ ------ ---- -- ------<br>------- --- ------ ----- --- ---- ------- -- ---- --- --<br>------- ------,174523.8300000783,174521.5100001078,174167.122,174170.36499991082,174183.817,174533.515,,36,and
screen,html.Screen,1_1_1_1_37,2021-03-28T19:47:11.770Z,,,,,,,,,,,,,,,,54,,,,,,,,,,,,,,320.90499998873565,response,,,,100,,,,,,Space,keypress(Space),,,,,,,,-- --- ---- --- ------ ----- ------- ---- -- --- ------- --<br>------- ---------- ------ -- ----- -- ----- -- ---- ------<br>--- ----- --- --- ------ -------- ----- --- ------ ----- --<br>----- ----- ---------- --- the ------ ------ ---- -- ------<br>------- --- ------ ----- --- ---- ------- -- ---- --- --<br>------- ------,174856.44500004128,174854.41999998875,174516.984,174524.2300000973,174533.515,174866.879,,37,the
screen,html.Screen,1_1_1_1_38,2021-03-28T19:47:12.101Z,,,,,,,,,,,,,,,,54,,,,,,,,,,,,,,317.8909999343741,response,,,,100,,,,,,Space,keypress(Space),,,,,,,,-- --- ---- --- ------ ----- ------- ---- -- --- ------- --<br>------- ---------- ------ -- ----- -- ----- -- ---- ------<br>--- ----- --- --- ------ -------- ----- --- ------ ----- --<br>----- ----- ---------- --- --- market ------ ---- -- ------<br>------- --- ------ ----- --- ---- ------- -- ---- --- --<br>------- ------,175187.42000008933,175184.76999993436,174850.327,174856.85999994166,174866.879,175200.472,,38,market
screen,html.Screen,1_1_1_1_39,2021-03-28T19:47:12.376Z,,,,,,,,,,,,,,,,54,,,,,,,,,,,,,,259.7880000798614,response,,,,100,,,,,,Space,keypress(Space),,,,,,,,-- --- ---- --- ------ ----- ------- ---- -- --- ------- --<br>------- ---------- ------ -- ----- -- ----- -- ---- ------<br>--- ----- --- --- ------ -------- ----- --- ------ ----- --<br>----- ----- ---------- --- --- ------ became ---- -- ------<br>------- --- ------ ----- --- ---- ------- -- ---- --- --<br>------- ------,175462.32499997132,175460.26000007987,175183.773,175187.85499990918,175200.472,175466.799,,39,became
screen,html.Screen,1_1_1_1_40,2021-03-28T19:47:12.650Z,,,,,,,,,,,,,,,,54,,,,,,,,,,,,,,267.23599997221027,response,,,,100,,,,,,Space,keypress(Space),,,,,,,,-- --- ---- --- ------ ----- ------- ---- -- --- ------- --<br>------- ---------- ------ -- ----- -- ----- -- ---- ------<br>--- ----- --- --- ------ -------- ----- --- ------ ----- --<br>----- ----- ---------- --- --- ------ ------ wary -- ------<br>------- --- ------ ----- --- ---- ------- -- ---- --- --<br>------- ------,175736.05499998666,175734.0349999722,175450.302,175462.74499990977,175466.799,175750.27,,40,wary
screen,html.Screen,1_1_1_1_41,2021-03-28T19:47:12.963Z,,,,,,,,,,,,,,,,54,,,,,,,,,,,,,,296.71000010104035,response,,,,100,,,,,,Space,keypress(Space),,,,,,,,-- --- ---- --- ------ ----- ------- ---- -- --- ------- --<br>------- ---------- ------ -- ----- -- ----- -- ---- ------<br>--- ----- --- --- ------ -------- ----- --- ------ ----- --<br>----- ----- ---------- --- --- ------ ------ ---- of ------<br>------- --- ------ ----- --- ---- ------- -- ---- --- --<br>------- ------,176049.11000002176,176046.98000010103,175733.625,175736.47499992512,175750.27,176083.587,,41,of
screen,html.Screen,1_1_1_1_42,2021-03-28T19:47:13.274Z,,,,,,,,,,,,,,,,54,,,,,,,,,,,,,,274.90800005133497,response,,,,100,,,,,,Space,keypress(Space),,,,,,,,-- --- ---- --- ------ ----- ------- ---- -- --- ------- --<br>------- ---------- ------ -- ----- -- ----- -- ---- ------<br>--- ----- --- --- ------ -------- ----- --- ------ ----- --<br>----- ----- ---------- --- --- ------ ------ ---- -- French<br>------- --- ------ ----- --- ---- ------- -- ---- --- --<br>------- ------,176360.65499996766,176358.49500005133,176066.932,176049.54500007443,176083.587,176366.787,,42,French
screen,html.Screen,1_1_1_1_43,2021-03-28T19:47:13.556Z,,,,,,,,,,,,,,,,54,,,,,,,,,,,,,,273.9080000673421,response,,,,100,,,,,,Space,keypress(Space),,,,,,,,-- --- ---- --- ------ ----- ------- ---- -- --- ------- --<br>------- ---------- ------ -- ----- -- ----- -- ---- ------<br>--- ----- --- --- ------ -------- ----- --- ------ ----- --<br>----- ----- ---------- --- --- ------ ------ ---- -- ------<br>credit. --- ------ ----- --- ---- ------- -- ---- --- --<br>------- ------,176642.68999989145,176640.69500006735,176350.231,176361.0799999442,176366.787,176650.762,,43,credit.
screen,html.Screen,1_1_1_1_44,2021-03-28T19:47:13.830Z,,,,,,,,,,,,,,,,54,,,,,,,,,,,,,,263.668000120786,response,,,,100,,,,,,Space,keypress(Space),,,,,,,,-- --- ---- --- ------ ----- ------- ---- -- --- ------- --<br>------- ---------- ------ -- ----- -- ----- -- ---- ------<br>--- ----- --- --- ------ -------- ----- --- ------ ----- --<br>----- ----- ---------- --- --- ------ ------ ---- -- ------<br>------- The ------ ----- --- ---- ------- -- ---- --- --<br>------- ------,176916.44500009716,176914.43000012077,176633.492,176643.11000006273,176650.762,176933.552,,44,The
screen,html.Screen,1_1_1_1_45,2021-03-28T19:47:14.075Z,,,,,,,,,,,,,,,,54,,,,,,,,,,,,,,225.88800007585087,response,,,,100,,,,,,Space,keypress(Space),,,,,,,,-- --- ---- --- ------ ----- ------- ---- -- --- ------- --<br>------- ---------- ------ -- ----- -- ----- -- ---- ------<br>--- ----- --- --- ------ -------- ----- --- ------ ----- --<br>----- ----- ---------- --- --- ------ ------ ---- -- ------<br>------- --- French ----- --- ---- ------- -- ---- --- --<br>------- ------,177161.4749999717,177159.44000007585,176916.901,176916.879999917,176933.552,177166.724,,45,French
screen,html.Screen,1_1_1_1_46,2021-03-28T19:47:14.323Z,,,,,,,,,,,,,,,,54,,,,,,,,,,,,,,240.25599997065729,response,,,,100,,,,,,Space,keypress(Space),,,,,,,,-- --- ---- --- ------ ----- ------- ---- -- --- ------- --<br>------- ---------- ------ -- ----- -- ----- -- ---- ------<br>--- ----- --- --- ------ -------- ----- --- ------ ----- --<br>----- ----- ---------- --- --- ------ ------ ---- -- ------<br>------- --- ------ state --- ---- ------- -- ---- --- --<br>------- ------,177408.99499994703,177406.97999997064,177150.032,177161.9649999775,177166.724,177417.157,,46,state
screen,html.Screen,1_1_1_1_47,2021-03-28T19:47:14.583Z,,,,,,,,,,,,,,,,54,,,,,,,,,,,,,,249.48799999023322,response,,,,100,,,,,,Space,keypress(Space),,,,,,,,-- --- ---- --- ------ ----- ------- ---- -- --- ------- --<br>------- ---------- ------ -- ----- -- ----- -- ---- ------<br>--- ----- --- --- ------ -------- ----- --- ------ ----- --<br>----- ----- ---------- --- --- ------ ------ ---- -- ------<br>------- --- ------ ----- was ---- ------- -- ---- --- --<br>------- ------,177668.98500011303,177666.64499999024,177400.215,177409.40500004217,177417.157,177683.515,,47,was
screen,html.Screen,1_1_1_1_48,2021-03-28T19:47:14.844Z,,,,,,,,,,,,,,,,54,,,,,,,,,,,,,,244.24000006972346,response,,,,100,,,,,,Space,keypress(Space),,,,,,,,-- --- ---- --- ------ ----- ------- ---- -- --- ------- --<br>------- ---------- ------ -- ----- -- ----- -- ---- ------<br>--- ----- --- --- ------ -------- ----- --- ------ ----- --<br>----- ----- ---------- --- --- ------ ------ ---- -- ------<br>------- --- ------ ----- --- left ------- -- ---- --- --<br>------- ------,177930.07500004023,177927.75500006974,177666.882,177669.4149998948,177683.515,177933.34,,48,left
screen,html.Screen,1_1_1_1_49,2021-03-28T19:47:15.119Z,,,,,,,,,,,,,,,,54,,,,,,,,,,,,,,270.1399999091809,response,,,,100,,,,,,Space,keypress(Space),,,,,,,,-- --- ---- --- ------ ----- ------- ---- -- --- ------- --<br>------- ---------- ------ -- ----- -- ----- -- ---- ------<br>--- ----- --- --- ------ -------- ----- --- ------ ----- --<br>----- ----- ---------- --- --- ------ ------ ---- -- ------<br>------- --- ------ ----- --- ---- without -- ---- --- --<br>------- ------,178205.525000114,178203.47999990918,177916.695,177930.50000001676,177933.34,178216.655,,49,without
screen,html.Screen,1_1_1_1_50,2021-03-28T19:47:15.424Z,,,,,,,,,,,,,,,,54,,,,,,,,,,,,,,291.4699999348086,response,,,,100,,,,,,Space,keypress(Space),,,,,,,,-- --- ---- --- ------ ----- ------- ---- -- --- ------- --<br>------- ---------- ------ -- ----- -- ----- -- ---- ------<br>--- ----- --- --- ------ -------- ----- --- ------ ----- --<br>----- ----- ---------- --- --- ------ ------ ---- -- ------<br>------- --- ------ ----- --- ---- ------- an ---- --- --<br>------- ------,178510.4950000532,178508.1249999348,178200.177,178206.00500004366,178216.655,178516.67,,50,an
screen,html.Screen,1_1_1_1_51,2021-03-28T19:47:15.686Z,,,,,,,,,,,,,,,,54,,,,,,,,,,,,,,253.93499996876926,response,,,,100,,,,,,Space,keypress(Space),,,,,,,,-- --- ---- --- ------ ----- ------- ---- -- --- ------- --<br>------- ---------- ------ -- ----- -- ----- -- ---- ------<br>--- ----- --- --- ------ -------- ----- --- ------ ----- --<br>----- ----- ---------- --- --- ------ ------ ---- -- ------<br>------- --- ------ ----- --- ---- ------- -- easy --- --<br>------- ------,178772.80999999493,178770.60499996878,178500.161,178510.93000010587,178516.67,178783.384,,51,easy
screen,html.Screen,1_1_1_1_52,2021-03-28T19:47:15.950Z,,,,,,,,,,,,,,,,54,,,,,,,,,,,,,,250.89600002169027,response,,,,100,,,,,,Space,keypress(Space),,,,,,,,-- --- ---- --- ------ ----- ------- ---- -- --- ------- --<br>------- ---------- ------ -- ----- -- ----- -- ---- ------<br>--- ----- --- --- ------ -------- ----- --- ------ ----- --<br>----- ----- ---------- --- --- ------ ------ ---- -- ------<br>------- --- ------ ----- --- ---- ------- -- ---- way --<br>------- ------,179036.29499999806,179034.28000002168,178766.816,178773.23499997146,178783.384,179050.228,,52,way
screen,html.Screen,1_1_1_1_53,2021-03-28T19:47:16.248Z,,,,,,,,,,,,,,,,54,,,,,,,,,,,,,,282.10699992638547,response,,,,100,,,,,,Space,keypress(Space),,,,,,,,-- --- ---- --- ------ ----- ------- ---- -- --- ------- --<br>------- ---------- ------ -- ----- -- ----- -- ---- ------<br>--- ----- --- --- ------ -------- ----- --- ------ ----- --<br>----- ----- ---------- --- --- ------ ------ ---- -- ------<br>------- --- ------ ----- --- ---- ------- -- ---- --- of<br>------- ------,179334.3950000126,179332.3349999264,179033.476,179036.70999989845,179050.228,179350.106,,53,of
screen,html.Screen,1_1_1_1_54,2021-03-28T19:47:16.535Z,,,,,,,,,,,,,,,,54,,,,,,,,,,,,,,268.80899999910616,response,,,,100,,,,,,Space,keypress(Space),,,,,,,,-- --- ---- --- ------ ----- ------- ---- -- --- ------- --<br>------- ---------- ------ -- ----- -- ----- -- ---- ------<br>--- ----- --- --- ------ -------- ----- --- ------ ----- --<br>----- ----- ---------- --- --- ------ ------ ---- -- ------<br>------- --- ------ ----- --- ---- ------- -- ---- --- --<br>raising ------,179620.95499993302,179618.9149999991,179333.423,179334.8250000272,179350.106,179633.39,,54,raising
screen,html.Screen,1_1_1_1_55,2021-03-28T19:47:16.853Z,,,,,,,,,,,,,,,,54,,,,,,,,,,,,,,304.06000008492265,response,,,,100,,,,,,Space,keypress(Space),,,,,,,,-- --- ---- --- ------ ----- ------- ---- -- --- ------- --<br>------- ---------- ------ -- ----- -- ----- -- ---- ------<br>--- ----- --- --- ------ -------- ----- --- ------ ----- --<br>----- ----- ---------- --- --- ------ ------ ---- -- ------<br>------- --- ------ ----- --- ---- ------- -- ---- --- --<br>------- money.,179939.500000095,179937.45000008494,179616.71,179621.37999990955,179633.39,179966.579,,55,money.
Item 100,flow.Loop,1_1_1_1,2021-03-28T19:47:16.854Z,,,,,,,,,,,,,,,,,,,,,,,,,,,,,,22369.799000084924,completion,,,,,D,,,,,,,,,,silence,,,,,179940.22500002757,179937.45000008494,157551.109,157553.16999997012,157567.651,179966.579,,,
Question 1,html.Screen,1_1_1_2,2021-03-28T19:47:20.914Z,,,,,,,,,,,,,,,,,,,,,,,,,,,true,TRUE,,4027.306000003504,response,,,,100,D,,,,,TRUE,click #choice-1,,,,silence,,,,,183996.560000116,183993.8850000035,179933.426,179940.5900000129,179966.579,184016.528,,,
Question 2,html.Screen,1_1_1_3,2021-03-28T19:47:23.369Z,,,,,,,,,,,,,,,,,,,,,,,,,,,true,FALSE,,2431.4819999345927,response,,,,100,D,,,,,FALSE,click #choice-2,,,,silence,,,,,186451.4649999328,186448.00999993458,183999.911,183996.99499993585,184016.528,186482.957,,,
Item 100,flow.Sequence,1_1_1,2021-03-28T19:47:23.370Z,,,,,,,,,,,,,,,,,,,,,,,,,,,,,,35880.03299993457,completion,,,,,,,,,,,,,,,,,,,,186452.40999991074,186448.00999993458,150534.777,150541.12499998882,150567.977,186482.957,,,
End of Practice,html.Page,1_1_2,2021-03-28T19:47:26.234Z,,,,,,,,,,,,,,,,,,,,,,,,,,,,,,2832.143000007083,form submission,,,,,,,,,,,,,,,,,,,,189315.76499994844,189315.10000000708,186433.233,186452.83999992535,186482.957,189316.165,,,
Practice,flow.Sequence,1_1,2021-03-28T19:47:26.236Z,,,,,,,,,,,,,,,,,,,,,,,,,,,,,,79695.24400000708,completion,,,,,,,,,,,,,,,,,,,,189318.3250001166,189315.10000000708,109569.993,109601.6299999319,109619.856,189316.165,,,
Trap_instruction,html.Page,1_2_0,2021-03-28T19:47:28.946Z,,,,,,,,,,,,,,,,,,,,,,,,,,,,,,2711.365000079415,form submission,,,,,,,,,,,,,,,,,,,,192028.18499994464,192027.53000007942,189299.537,189318.87999991886,189316.165,192149.343,,,
trap_trial,html.Screen,1_2_1,2021-03-28T19:47:32.241Z,,,,,,,,,,,,,,,,,,,,,,,,,,,true,1,,3170.8619999963557,response,,,,,,,,,,1,click #choice-1,,,,,,,,,195323.2249999419,195320.20499999635,192016.215,192028.5900000017,192149.343,195349.251,,,
end of trap trial,html.Page,1_2_2,2021-03-28T19:47:34.086Z,,,,,,,,,,,,,,,,,,,,,,,,,,,,,,1816.1689999757218,form submission,,,,,,,,,,,,,,,,,,,,197168.31499990076,197165.4199999757,195315.941,195323.6849999521,195349.251,197199.158,,,
Trap 1,flow.Sequence,1_2,2021-03-28T19:47:34.087Z,,,,,,,,,,,,,,,,,,,,,,,,,,,,,,7849.254999975703,completion,,,,,,,,,,,,,,,,,,,,197169.1399998963,197165.4199999757,189299.537,189318.71500005946,189316.165,197199.158,,,
Holding screen,html.Screen,1_3_0_0,2021-03-28T19:47:41.102Z,,,,,,,,,,,,,,,,,,,,,,,,,,,,,,7000.020000000019,timeout,,,,,,,,,,,,,,,,,,,,204183.96500009112,204182.309,197149.334,197170.15999997966,197199.158,204199.178,,,
screen,html.Screen,1_3_0_1_0,2021-03-28T19:47:42.247Z,,,,,,,,,,,,,,,,48,,,,,,,,,,,,,,1127.1119999972288,response,,,,10,D,,,,,Space,keypress(Space),,,,silence,,,,As -- --- ------ ------- --------- ----------- --------<br>--------- -------- --- ------- -- ------- ---- -- ------<br>-- --- -------- -------- ---------- ---- ---- ---- ------<br>-- --------- -- ---- -- --- -- --- ------- -- - -----<br>---------- -- -- -- ---- ----- -- ------ -- --- ------<br>-------,205329.02500010096,205326.28999999724,204182.309,204184.58000011742,204199.178,205332.071,,0,As
screen,html.Screen,1_3_0_1_1,2021-03-28T19:47:42.601Z,,,,,,,,,,,,,,,,48,,,,,,,,,,,,,,349.4790000957437,response,,,,10,D,,,,,Space,keypress(Space),,,,silence,,,,-- in --- ------ ------- --------- ----------- --------<br>--------- -------- --- ------- -- ------- ---- -- ------<br>-- --- -------- -------- ---------- ---- ---- ---- ------<br>-- --------- -- ---- -- --- -- --- ------- -- - -----<br>---------- -- -- -- ---- ----- -- ------ -- --- ------<br>-------,205683.39999997988,205681.55000009574,205315.529,205330.4300000891,205332.071,205698.941,,1,in
screen,html.Screen,1_3_0_1_2,2021-03-28T19:47:42.968Z,,,,,,,,,,,,,,,,48,,,,,,,,,,,,,,349.7939999602968,response,,,,10,D,,,,,Space,keypress(Space),,,,silence,,,,-- -- the ------ ------- --------- ----------- --------<br>--------- -------- --- ------- -- ------- ---- -- ------<br>-- --- -------- -------- ---------- ---- ---- ---- ------<br>-- --------- -- ---- -- --- -- --- ------- -- - -----<br>---------- -- -- -- ---- ----- -- ------ -- --- ------<br>-------,206050.59000011533,206048.7349999603,205682.222,205683.8150001131,205698.941,206065.915,,2,the
screen,html.Screen,1_3_0_1_3,2021-03-28T19:47:43.311Z,,,,,,,,,,,,,,,,48,,,,,,,,,,,,,,325.1750000482716,response,,,,10,D,,,,,Space,keypress(Space),,,,silence,,,,-- -- --- United ------- --------- ----------- --------<br>--------- -------- --- ------- -- ------- ---- -- ------<br>-- --- -------- -------- ---------- ---- ---- ---- ------<br>-- --------- -- ---- -- --- -- --- ------- -- - -----<br>---------- -- -- -- ---- ----- -- ------ -- --- ------<br>-------,206393.2799999602,206391.09000004828,206048.875,206051.00500001572,206065.915,206398.717,,3,United
screen,html.Screen,1_3_0_1_4,2021-03-28T19:47:43.679Z,,,,,,,,,,,,,,,,48,,,,,,,,,,,,,,360.978000015195,response,,,,10,D,,,,,Space,keypress(Space),,,,silence,,,,"-- -- --- ------ States, --------- ----------- --------<br>--------- -------- --- ------- -- ------- ---- -- ------<br>-- --- -------- -------- ---------- ---- ---- ---- ------<br>-- --------- -- ---- -- --- -- --- ------- -- - -----<br>---------- -- -- -- ---- ----- -- ------ -- --- ------<br>-------",206761.6149999667,206759.6950000152,206382.195,206393.70999997482,206398.717,206765.359,,4,"States,"
screen,html.Screen,1_3_0_1_5,2021-03-28T19:47:44.063Z,,,,,,,,,,,,,,,,48,,,,,,,,,,,,,,377.8810001212987,response,,,,10,D,,,,,Space,keypress(Space),,,,silence,,,,-- -- --- ------ ------- Colombian ----------- --------<br>--------- -------- --- ------- -- ------- ---- -- ------<br>-- --- -------- -------- ---------- ---- ---- ---- ------<br>-- --------- -- ---- -- --- -- --- ------- -- - -----<br>---------- -- -- -- ---- ----- -- ------ -- --- ------<br>-------,207145.0650000479,207143.2400001213,206748.753,206762.0300000999,206765.359,207148.651,,5,Colombian
screen,html.Screen,1_3_0_1_6,2021-03-28T19:47:44.429Z,,,,,,,,,,,,,,,,48,,,,,,,,,,,,,,360.38400011189515,response,,,,10,D,,,,,Space,keypress(Space),,,,silence,,,,-- -- --- ------ ------- --------- legislation --------<br>--------- -------- --- ------- -- ------- ---- -- ------<br>-- --- -------- -------- ---------- ---- ---- ---- ------<br>-- --------- -- ---- -- --- -- --- ------- -- - -----<br>---------- -- -- -- ---- ----- -- ------ -- --- ------<br>-------,207510.91499999166,207509.0350001119,207132.149,207145.48499998637,207148.651,207515.327,,6,legislation
screen,html.Screen,1_3_0_1_7,2021-03-28T19:47:44.828Z,,,,,,,,,,,,,,,,48,,,,,,,,,,,,,,393.9729999411502,response,,,,10,D,,,,,Space,keypress(Space),,,,silence,,,,-- -- --- ------ ------- --------- ----------- requires<br>--------- -------- --- ------- -- ------- ---- -- ------<br>-- --- -------- -------- ---------- ---- ---- ---- ------<br>-- --------- -- ---- -- --- -- --- ------- -- - -----<br>---------- -- -- -- ---- ----- -- ------ -- --- ------<br>-------,207910.2449999191,207909.29999994114,207498.668,207511.32999989204,207515.327,207915.236,,7,requires
screen,html.Screen,1_3_0_1_8,2021-03-28T19:47:45.203Z,,,,,,,,,,,,,,,,48,,,,,,,,,,,,,,367.59399992370163,response,,,,10,D,,,,,Space,keypress(Space),,,,silence,,,,-- -- --- ------ ------- --------- ----------- --------<br>travelers -------- --- ------- -- ------- ---- -- ------<br>-- --- -------- -------- ---------- ---- ---- ---- ------<br>-- --------- -- ---- -- --- -- --- ------- -- - -----<br>---------- -- -- -- ---- ----- -- ------ -- --- ------<br>-------,208284.90999992937,208282.8299999237,207898.783,207910.42000008747,207915.236,208298.819,,8,travelers
screen,html.Screen,1_3_0_1_9,2021-03-28T19:47:45.565Z,,,,,,,,,,,,,,,,48,,,,,,,,,,,,,,346.126000065502,response,,,,10,D,,,,,Space,keypress(Space),,,,silence,,,,-- -- --- ------ ------- --------- ----------- --------<br>--------- entering --- ------- -- ------- ---- -- ------<br>-- --- -------- -------- ---------- ---- ---- ---- ------<br>-- --------- -- ---- -- --- -- --- ------- -- - -----<br>---------- -- -- -- ---- ----- -- ------ -- --- ------<br>-------,208647.00499991886,208644.9450000655,208281.889,208285.35000002012,208298.819,208665.806,,9,entering
screen,html.Screen,1_3_0_1_10,2021-03-28T19:47:45.940Z,,,,,,,,,,,,,,,,48,,,,,,,,,,,,,,354.71400002003065,response,,,,10,D,,,,,Space,keypress(Space),,,,silence,,,,-- -- --- ------ ------- --------- ----------- --------<br>--------- -------- the ------- -- ------- ---- -- ------<br>-- --- -------- -------- ---------- ---- ---- ---- ------<br>-- --------- -- ---- -- --- -- --- ------- -- - -----<br>---------- -- -- -- ---- ----- -- ------ -- --- ------<br>-------,209022.6300000213,209020.52000002004,208632.089,208647.43499993347,208665.806,209032.086,,10,the
screen,html.Screen,1_3_0_1_11,2021-03-28T19:47:46.920Z,,,,,,,,,,,,,,,,48,,,,,,,,,,,,,,967.3740000791149,response,,,,10,D,,,,,Space,keypress(Space),,,,silence,,,,-- -- --- ------ ------- --------- ----------- --------<br>--------- -------- --- country -- ------- ---- -- ------<br>-- --- -------- -------- ---------- ---- ---- ---- ------<br>-- --------- -- ---- -- --- -- --- ------- -- - -----<br>---------- -- -- -- ---- ----- -- ------ -- --- ------<br>-------,210002.16999999247,209999.46000007913,209015.288,209023.04000011645,209032.086,210015.167,,11,country
screen,html.Screen,1_3_0_1_12,2021-03-28T19:47:47.317Z,,,,,,,,,,,,,,,,48,,,,,,,,,,,,,,382.18800002281205,response,,,,10,D,,,,,Space,keypress(Space),,,,silence,,,,-- -- --- ------ ------- --------- ----------- --------<br>--------- -------- --- ------- to ------- ---- -- ------<br>-- --- -------- -------- ---------- ---- ---- ---- ------<br>-- --------- -- ---- -- --- -- --- ------- -- - -----<br>---------- -- -- -- ---- ----- -- ------ -- --- ------<br>-------,210399.60499992594,210397.3550000228,209998.601,210002.61000008322,210015.167,210415.463,,12,to
screen,html.Screen,1_3_0_1_13,2021-03-28T19:47:47.614Z,,,,,,,,,,,,,,,,48,,,,,,,,,,,,,,278.71700010774657,response,,,,10,D,,,,,Space,keypress(Space),,,,silence,,,,-- -- --- ------ ------- --------- ----------- --------<br>--------- -------- --- ------- -- declare ---- -- ------<br>-- --- -------- -------- ---------- ---- ---- ---- ------<br>-- --------- -- ---- -- --- -- --- ------- -- - -----<br>---------- -- -- -- ---- ----- -- ------ -- --- ------<br>-------,210696.27499999478,210694.18000010774,210398.523,210400.03499994054,210415.463,210717.188,,13,declare
screen,html.Screen,1_3_0_1_14,2021-03-28T19:47:47.937Z,,,,,,,,,,,,,,,,48,,,,,,,,,,,,,,299.346999944275,response,,,,10,D,,,,,Space,keypress(Space),,,,silence,,,,-- -- --- ------ ------- --------- ----------- --------<br>--------- -------- --- ------- -- ------- cash -- ------<br>-- --- -------- -------- ---------- ---- ---- ---- ------<br>-- --------- -- ---- -- --- -- --- ------- -- - -----<br>---------- -- -- -- ---- ----- -- ------ -- --- ------<br>-------,211019.27000004798,211016.53499994427,210681.999,210696.71000004746,210717.188,211032.083,,14,cash
screen,html.Screen,1_3_0_1_15,2021-03-28T19:47:48.248Z,,,,,,,,,,,,,,,,48,,,,,,,,,,,,,,296.5169998915808,response,,,,10,D,,,,,Space,keypress(Space),,,,silence,,,,-- -- --- ------ ------- --------- ----------- --------<br>--------- -------- --- ------- -- ------- ---- in ------<br>-- --- -------- -------- ---------- ---- ---- ---- ------<br>-- --------- -- ---- -- --- -- --- ------- -- - -----<br>---------- -- -- -- ---- ----- -- ------ -- --- ------<br>-------,211330.6299999822,211328.5999998916,211015.314,211019.68999998644,211032.083,211365.328,,15,in
screen,html.Screen,1_3_0_1_16,2021-03-28T19:47:48.565Z,,,,,,,,,,,,,,,,48,,,,,,,,,,,,,,279.3420000669721,response,,,,10,D,,,,,Space,keypress(Space),,,,silence,,,,-- -- --- ------ ------- --------- ----------- --------<br>--------- -------- --- ------- -- ------- ---- -- excess<br>-- --- -------- -------- ---------- ---- ---- ---- ------<br>-- --------- -- ---- -- --- -- --- ------- -- - -----<br>---------- -- -- -- ---- ----- -- ------ -- --- ------<br>-------,211646.71500003897,211644.67000006698,211348.555,211331.05499995872,211365.328,211668.424,,16,excess
screen,html.Screen,1_3_0_1_17,2021-03-28T19:47:48.875Z,,,,,,,,,,,,,,,,48,,,,,,,,,,,,,,286.89099991193507,response,,,,10,D,,,,,Space,keypress(Space),,,,silence,,,,-- -- --- ------ ------- --------- ----------- --------<br>--------- -------- --- ------- -- ------- ---- -- ------<br>of --- -------- -------- ---------- ---- ---- ---- ------<br>-- --------- -- ---- -- --- -- --- ------- -- - -----<br>---------- -- -- -- ---- ----- -- ------ -- --- ------<br>-------,211957.36000011675,211955.31499991193,211631.961,211647.12999993935,211668.424,211965.54,,17,of
screen,html.Screen,1_3_0_1_18,2021-03-28T19:47:49.152Z,,,,,,,,,,,,,,,,48,,,,,,,,,,,,,,266.99999999723514,response,,,,10,D,,,,,Space,keypress(Space),,,,silence,,,,-- -- --- ------ ------- --------- ----------- --------<br>--------- -------- --- ------- -- ------- ---- -- ------<br>-- ten -------- -------- ---------- ---- ---- ---- ------<br>-- --------- -- ---- -- --- -- --- ------- -- - -----<br>---------- -- -- -- ---- ----- -- ------ -- --- ------<br>-------,212234.5900000073,212232.53999999724,211948.475,211957.78999989852,211965.54,212248.453,,18,ten
screen,html.Screen,1_3_0_1_19,2021-03-28T19:47:49.406Z,,,,,,,,,,,,,,,,48,,,,,,,,,,,,,,237.69700001153979,response,,,,10,D,,,,,Space,keypress(Space),,,,silence,,,,-- -- --- ------ ------- --------- ----------- --------<br>--------- -------- --- ------- -- ------- ---- -- ------<br>-- --- thousand -------- ---------- ---- ---- ---- ------<br>-- --------- -- ---- -- --- -- --- ------- -- - -----<br>---------- -- -- -- ---- ----- -- ------ -- --- ------<br>-------,212488.14500006847,212486.15000001155,212231.92,212235.00999994576,212248.453,212498.565,,19,thousand
screen,html.Screen,1_3_0_1_20,2021-03-28T19:47:49.720Z,,,,,,,,,,,,,,,,48,,,,,,,,,,,,,,301.1600000480539,response,,,,10,D,,,,,Space,keypress(Space),,,,silence,,,,-- -- --- ------ ------- --------- ----------- --------<br>--------- -------- --- ------- -- ------- ---- -- ------<br>-- --- -------- dollars. ---------- ---- ---- ---- ------<br>-- --------- -- ---- -- --- -- --- ------- -- - -----<br>---------- -- -- -- ---- ----- -- ------ -- --- ------<br>-------,212801.7750000581,212799.72500004806,212481.918,212488.570000045,212498.565,212815.265,,20,dollars.
screen,html.Screen,1_3_0_1_21,2021-03-28T19:47:49.991Z,,,,,,,,,,,,,,,,48,,,,,,,,,,,,,,256.2499999596039,response,,,,10,D,,,,,Space,keypress(Space),,,,silence,,,,-- -- --- ------ ------- --------- ----------- --------<br>--------- -------- --- ------- -- ------- ---- -- ------<br>-- --- -------- -------- Concealing ---- ---- ---- ------<br>-- --------- -- ---- -- --- -- --- ------- -- - -----<br>---------- -- -- -- ---- ----- -- ------ -- --- ------<br>-------,213073.59499996528,213071.51499995962,212798.565,212802.20000003465,212815.265,213081.73,,21,Concealing
screen,html.Screen,1_3_0_1_22,2021-03-28T19:47:50.302Z,,,,,,,,,,,,,,,,48,,,,,,,,,,,,,,300.6299999304756,response,,,,10,D,,,,,Space,keypress(Space),,,,silence,,,,-- -- --- ------ ------- --------- ----------- --------<br>--------- -------- --- ------- -- ------- ---- -- ------<br>-- --- -------- -------- ---------- more ---- ---- ------<br>-- --------- -- ---- -- --- -- --- ------- -- - -----<br>---------- -- -- -- ---- ----- -- ------ -- --- ------<br>-------,213384.43999993615,213382.3599999305,213065.224,213074.02499997988,213081.73,213398.59,,22,more
screen,html.Screen,1_3_0_1_23,2021-03-28T19:47:50.599Z,,,,,,,,,,,,,,,,48,,,,,,,,,,,,,,280.2849999832397,response,,,,10,D,,,,,Space,keypress(Space),,,,silence,,,,-- -- --- ------ ------- --------- ----------- --------<br>--------- -------- --- ------- -- ------- ---- -- ------<br>-- --- -------- -------- ---------- ---- than ---- ------<br>-- --------- -- ---- -- --- -- --- ------- -- - -----<br>---------- -- -- -- ---- ----- -- ------ -- --- ------<br>-------,213680.91999995522,213678.87499998324,213381.871,213384.85500006936,213398.59,213698.482,,23,than
screen,html.Screen,1_3_0_1_24,2021-03-28T19:47:50.863Z,,,,,,,,,,,,,,,,48,,,,,,,,,,,,,,244.36299995411537,response,,,,10,D,,,,,Space,keypress(Space),,,,silence,,,,-- -- --- ------ ------- --------- ----------- --------<br>--------- -------- --- ------- -- ------- ---- -- ------<br>-- --- -------- -------- ---------- ---- ---- that ------<br>-- --------- -- ---- -- --- -- --- ------- -- - -----<br>---------- -- -- -- ---- ----- -- ------ -- --- ------<br>-------,213944.89499996416,213942.8449999541,213681.872,213681.33500008844,213698.482,213948.358,,24,that
screen,html.Screen,1_3_0_1_25,2021-03-28T19:47:51.144Z,,,,,,,,,,,,,,,,48,,,,,,,,,,,,,,275.8470000931993,response,,,,10,D,,,,,Space,keypress(Space),,,,silence,,,,-- -- --- ------ ------- --------- ----------- --------<br>--------- -------- --- ------- -- ------- ---- -- ------<br>-- --- -------- -------- ---------- ---- ---- ---- amount<br>-- --------- -- ---- -- --- -- --- ------- -- - -----<br>---------- -- -- -- ---- ----- -- ------ -- --- ------<br>-------,214226.24500002712,214224.2050000932,213931.89,213945.3050000593,213948.358,214231.716,,25,amount
screen,html.Screen,1_3_0_1_26,2021-03-28T19:47:51.424Z,,,,,,,,,,,,,,,,48,,,,,,,,,,,,,,271.9840000011318,response,,,,10,D,,,,,Space,keypress(Space),,,,silence,,,,-- -- --- ------ ------- --------- ----------- --------<br>--------- -------- --- ------- -- ------- ---- -- ------<br>-- --- -------- -------- ---------- ---- ---- ---- ------<br>to --------- -- ---- -- --- -- --- ------- -- - -----<br>---------- -- -- -- ---- ----- -- ------ -- --- ------<br>-------,214505.75500004925,214503.70000000112,214215.168,214226.6599999275,214231.716,214514.994,,26,to
screen,html.Screen,1_3_0_1_27,2021-03-28T19:47:51.684Z,,,,,,,,,,,,,,,,48,,,,,,,,,,,,,,249.345999994257,response,,,,10,D,,,,,Space,keypress(Space),,,,silence,,,,-- -- --- ------ ------- --------- ----------- --------<br>--------- -------- --- ------- -- ------- ---- -- ------<br>-- --- -------- -------- ---------- ---- ---- ---- ------<br>-- transport -- ---- -- --- -- --- ------- -- - -----<br>---------- -- -- -- ---- ----- -- ------ -- --- ------<br>-------,214766.41499996185,214764.33999999426,214498.492,214506.16499991156,214514.994,214781.873,,27,transport
screen,html.Screen,1_3_0_1_28,2021-03-28T19:47:51.933Z,,,,,,,,,,,,,,,,48,,,,,,,,,,,,,,231.02699997244054,response,,,,10,D,,,,,Space,keypress(Space),,,,silence,,,,-- -- --- ------ ------- --------- ----------- --------<br>--------- -------- --- ------- -- ------- ---- -- ------<br>-- --- -------- -------- ---------- ---- ---- ---- ------<br>-- --------- it ---- -- --- -- --- ------- -- - -----<br>---------- -- -- -- ---- ----- -- ------ -- --- ------<br>-------,215014.92500002496,215012.89999997243,214765.147,214766.8349999003,214781.873,215031.847,,28,it
screen,html.Screen,1_3_0_1_29,2021-03-28T19:47:52.201Z,,,,,,,,,,,,,,,,48,,,,,,,,,,,,,,248.71300010109553,response,,,,10,D,,,,,Space,keypress(Space),,,,silence,,,,-- -- --- ------ ------- --------- ----------- --------<br>--------- -------- --- ------- -- ------- ---- -- ------<br>-- --- -------- -------- ---------- ---- ---- ---- ------<br>-- --------- -- into -- --- -- --- ------- -- - -----<br>---------- -- -- -- ---- ----- -- ------ -- --- ------<br>-------,215283.1399999559,215280.5600001011,215015.137,215015.33999992535,215031.847,215298.594,,29,into
screen,html.Screen,1_3_0_1_30,2021-03-28T19:47:52.449Z,,,,,,,,,,,,,,,,48,,,,,,,,,,,,,,230.67100001921062,response,,,,10,D,,,,,Space,keypress(Space),,,,silence,,,,-- -- --- ------ ------- --------- ----------- --------<br>--------- -------- --- ------- -- ------- ---- -- ------<br>-- --- -------- -------- ---------- ---- ---- ---- ------<br>-- --------- -- ---- or --- -- --- ------- -- - -----<br>---------- -- -- -- ---- ----- -- ------ -- --- ------<br>-------,215531.25500003807,215529.26500001922,215281.798,215283.55999989435,215298.594,215548.49,,30,or
screen,html.Screen,1_3_0_1_31,2021-03-28T19:47:52.698Z,,,,,,,,,,,,,,,,48,,,,,,,,,,,,,,229.65999991097488,response,,,,10,D,,,,,Space,keypress(Space),,,,silence,,,,-- -- --- ------ ------- --------- ----------- --------<br>--------- -------- --- ------- -- ------- ---- -- ------<br>-- --- -------- -------- ---------- ---- ---- ---- ------<br>-- --------- -- ---- -- out -- --- ------- -- - -----<br>---------- -- -- -- ---- ----- -- ------ -- --- ------<br>-------,215780.33500001766,215778.14999991097,215531.783,215531.6800000146,215548.49,215815.133,,31,out
screen,html.Screen,1_3_0_1_32,2021-03-28T19:47:52.885Z,,,,,,,,,,,,,,,,48,,,,,,,,,,,,,,150.46699999590055,response,,,,10,D,,,,,Space,keypress(Space),,,,silence,,,,-- -- --- ------ ------- --------- ----------- --------<br>--------- -------- --- ------- -- ------- ---- -- ------<br>-- --- -------- -------- ---------- ---- ---- ---- ------<br>-- --------- -- ---- -- --- of --- ------- -- - -----<br>---------- -- -- -- ---- ----- -- ------ -- --- ------<br>-------,215967.6449999679,215965.5999999959,215798.444,215780.74999991804,215815.133,215981.71,,32,of
screen,html.Screen,1_3_0_1_33,2021-03-28T19:47:53.155Z,,,,,,,,,,,,,,,,48,,,,,,,,,,,,,,253.16500008196454,response,,,,10,D,,,,,Space,keypress(Space),,,,silence,,,,-- -- --- ------ ------- --------- ----------- --------<br>--------- -------- --- ------- -- ------- ---- -- ------<br>-- --- -------- -------- ---------- ---- ---- ---- ------<br>-- --------- -- ---- -- --- -- the ------- -- - -----<br>---------- -- -- -- ---- ----- -- ------ -- --- ------<br>-------,216237.0949999895,216234.87500008196,215965.096,215968.0600001011,215981.71,216248.244,,33,the
screen,html.Screen,1_3_0_1_34,2021-03-28T19:47:53.420Z,,,,,,,,,,,,,,,,48,,,,,,,,,,,,,,251.41599997220328,response,,,,10,D,,,,,Space,keypress(Space),,,,silence,,,,-- -- --- ------ ------- --------- ----------- --------<br>--------- -------- --- ------- -- ------- ---- -- ------<br>-- --- -------- -------- ---------- ---- ---- ---- ------<br>-- --------- -- ---- -- --- -- --- country -- - -----<br>---------- -- -- -- ---- ----- -- ------ -- --- ------<br>-------,216501.68500002474,216499.6599999722,216231.76,216237.51499992795,216248.244,216514.926,,34,country
screen,html.Screen,1_3_0_1_35,2021-03-28T19:47:53.681Z,,,,,,,,,,,,,,,,48,,,,,,,,,,,,,,246.58400009848992,response,,,,10,D,,,,,Space,keypress(Space),,,,silence,,,,-- -- --- ------ ------- --------- ----------- --------<br>--------- -------- --- ------- -- ------- ---- -- ------<br>-- --- -------- -------- ---------- ---- ---- ---- ------<br>-- --------- -- ---- -- --- -- --- ------- is - -----<br>---------- -- -- -- ---- ----- -- ------ -- --- ------<br>-------,216763.53000011295,216761.5100000985,216498.391,216502.1049999632,216514.926,216798.433,,35,is
screen,html.Screen,1_3_0_1_36,2021-03-28T19:47:53.963Z,,,,,,,,,,,,,,,,48,,,,,,,,,,,,,,244.7470000369649,response,,,,10,D,,,,,Space,keypress(Space),,,,silence,,,,-- -- --- ------ ------- --------- ----------- --------<br>--------- -------- --- ------- -- ------- ---- -- ------<br>-- --- -------- -------- ---------- ---- ---- ---- ------<br>-- --------- -- ---- -- --- -- --- ------- -- a -----<br>---------- -- -- -- ---- ----- -- ------ -- --- ------<br>-------,217045.21999997087,217043.18000003695,216781.934,216763.94500001334,216798.433,217048.211,,36,a
screen,html.Screen,1_3_0_1_37,2021-03-28T19:47:54.291Z,,,,,,,,,,,,,,,,48,,,,,,,,,,,,,,322.54400003992487,response,,,,10,D,,,,,Space,keypress(Space),,,,silence,,,,-- -- --- ------ ------- --------- ----------- --------<br>--------- -------- --- ------- -- ------- ---- -- ------<br>-- --- -------- -------- ---------- ---- ---- ---- ------<br>-- --------- -- ---- -- --- -- --- ------- -- - crime<br>---------- -- -- -- ---- ----- -- ------ -- --- ------<br>-------,217372.78000009246,217370.75500003994,217031.71,217045.63500010408,217048.211,217381.564,,37,crime
screen,html.Screen,1_3_0_1_38,2021-03-28T19:47:54.581Z,,,,,,,,,,,,,,,,48,,,,,,,,,,,,,,279.6559998926241,response,,,,10,D,,,,,Space,keypress(Space),,,,silence,,,,-- -- --- ------ ------- --------- ----------- --------<br>--------- -------- --- ------- -- ------- ---- -- ------<br>-- --- -------- -------- ---------- ---- ---- ---- ------<br>-- --------- -- ---- -- --- -- --- ------- -- - -----<br>punishable -- -- -- ---- ----- -- ------ -- --- ------<br>-------,217663.2699999027,217661.21999989264,217365.024,217373.21000010706,217381.564,217681.963,,38,punishable
screen,html.Screen,1_3_0_1_39,2021-03-28T19:47:54.862Z,,,,,,,,,,,,,,,,48,,,,,,,,,,,,,,259.16199989570305,response,,,,10,D,,,,,Space,keypress(Space),,,,silence,,,,-- -- --- ------ ------- --------- ----------- --------<br>--------- -------- --- ------- -- ------- ---- -- ------<br>-- --- -------- -------- ---------- ---- ---- ---- ------<br>-- --------- -- ---- -- --- -- --- ------- -- - -----<br>---------- by -- -- ---- ----- -- ------ -- --- ------<br>-------,217943.99999990128,217941.1249998957,217665.009,217671.32500000298,217681.963,217948.18,,39,by
screen,html.Screen,1_3_0_1_40,2021-03-28T19:47:55.146Z,,,,,,,,,,,,,,,,48,,,,,,,,,,,,,,278.0899999846588,response,,,,10,D,,,,,Space,keypress(Space),,,,silence,,,,-- -- --- ------ ------- --------- ----------- --------<br>--------- -------- --- ------- -- ------- ---- -- ------<br>-- --- -------- -------- ---------- ---- ---- ---- ------<br>-- --------- -- ---- -- --- -- --- ------- -- - -----<br>---------- -- up -- ---- ----- -- ------ -- --- ------<br>-------,218228.3499999903,218226.26999998465,217931.522,217944.39999992028,217948.18,218231.496,,40,up
screen,html.Screen,1_3_0_1_41,2021-03-28T19:47:55.451Z,,,,,,,,,,,,,,,,48,,,,,,,,,,,,,,299.27400007031974,response,,,,10,D,,,,,Space,keypress(Space),,,,silence,,,,-- -- --- ------ ------- --------- ----------- --------<br>--------- -------- --- ------- -- ------- ---- -- ------<br>-- --- -------- -------- ---------- ---- ---- ---- ------<br>-- --------- -- ---- -- --- -- --- ------- -- - -----<br>---------- -- -- to ---- ----- -- ------ -- --- ------<br>-------,218533.3700000774,218530.77000007033,218214.988,218228.73999993317,218231.496,218548.352,,41,to
screen,html.Screen,1_3_0_1_42,2021-03-28T19:47:55.820Z,,,,,,,,,,,,,,,,48,,,,,,,,,,,,,,351.3080001118942,response,,,,10,D,,,,,Space,keypress(Space),,,,silence,,,,-- -- --- ------ ------- --------- ----------- --------<br>--------- -------- --- ------- -- ------- ---- -- ------<br>-- --- -------- -------- ---------- ---- ---- ---- ------<br>-- --------- -- ---- -- --- -- --- ------- -- - -----<br>---------- -- -- -- five ----- -- ------ -- --- ------<br>-------,218901.89499990083,218899.6600001119,218531.636,218533.76500005834,218548.352,218915.064,,42,five
screen,html.Screen,1_3_0_1_43,2021-03-28T19:47:56.138Z,,,,,,,,,,,,,,,,48,,,,,,,,,,,,,,303.1710000366438,response,,,,10,D,,,,,Space,keypress(Space),,,,silence,,,,-- -- --- ------ ------- --------- ----------- --------<br>--------- -------- --- ------- -- ------- ---- -- ------<br>-- --- -------- -------- ---------- ---- ---- ---- ------<br>-- --------- -- ---- -- --- -- --- ------- -- - -----<br>---------- -- -- -- ---- years -- ------ -- --- ------<br>-------,219220.28000000864,219218.23500003666,218898.18,218902.5050001219,218915.064,219231.41,,43,years
