sender,sender_type,sender_id,timestamp,meta,,Blues,Classical,Country,Dance,Electronic,Folk,Gospel,Hip-Hop,Jazz,Latin,Musical/Film,New-age,Pop,Provo_ID,R&B,Rap,Reggae,Religious,Rock,Soul,Swing,Traditional,age,artist_name,correct,correctResponse,distraction,duration,education,ended_on,familiarity,gender,item,list,music_frequency,offensiveness,pleasantness,preference,response,response_action,snippet_file,song_name,song_rating,sound,text,time_commit,time_end,time_render,time_run,time_show,time_switch,url,word,word_ID
Instructions,html.Page,0_0,2022-05-09T11:35:34.642Z,"{""labjs_version"":""20.2.3"",""labjs_build"":{""flavor"":""production"",""commit"":""7ea907d66ca8aeef8054924ca5d82ffbe11e34e5""},""location"":""https://run.pavlovia.org/mvasilev/lab_music_d/"",""userAgent"":""Mozilla/5.0 (Windows NT 6.1; Win64; x64) AppleWebKit/537.36 (KHTML, like Gecko) Chrome/100.0.4896.127 Safari/537.36"",""platform"":""Win32"",""language"":""en-US"",""locale"":""en-US"",""timeZone"":""Europe/London"",""timezoneOffset"":-60,""screen_width"":1920,""screen_height"":1080,""scroll_width"":1920,""scroll_height"":959,""window_innerWidth"":1920,""window_innerHeight"":1007,""devicePixelRatio"":1}",,,,,,,,,,,,,,,,,,,,,,,,,,,,,19821.23300076294,,form submission,,,,,,,,,,,,,,,,34549.60000038147,34548.20000076294,14710.31,14715.80000114441,14726.967,34555.55,{},,
Headphones,html.Page,0_1,2022-05-09T11:35:37.138Z,,,,,,,,,,,,,,,,,,,,,,,,,,,,,,2488.949999999997,,form submission,,,,,,,,,,,,,,,,37045.10000038147,37044.5,34538.88,34550.30000114441,34555.55,37056.32,,,
Holding screen,html.Screen,0_2_0_0,2022-05-09T11:35:47.137Z,,,,,,,,,,,,,,,,,,,,,,,,,,,,,,10052.535000000003,,timeout,,,,,,,,,,,,,,,,47043.90000152588,47042.171,37039.649,37045.5,37056.32,47108.855,,,
screen,html.Screen,0_2_0_1_0,2022-05-09T11:35:48.195Z,,,,,,,,,,,,,,,,53,,,,,,,,,,,,,,992.0450015258757,,response,,,99,,,,,,Space,keypress(Space),,,,,When -- ----- -- ------ - ------- --- ----------<br>------------- ------ ------ ---- ---- ------- ----- -- ----<br>-------- ------- -- ---------- --- - --- ----- ----- ----<br>---- --- --- ----- --- ---- ---- ------- ----- ---- -------<br>--- --- -- ----- -- --- ---- -- --- ---- -- ------ ------<br>--- ----- -- ----,48102.40000152588,48100.90000152588,47042.171,47044.30000114441,47108.855,48109.117,,0,When
screen,html.Screen,0_2_0_1_1,2022-05-09T11:35:48.642Z,,,,,,,,,,,,,,,,53,,,,,,,,,,,,,,439.6830011444108,,response,,,99,,,,,,Space,keypress(Space),,,,,---- it ----- -- ------ - ------- --- ----------<br>------------- ------ ------ ---- ---- ------- ----- -- ----<br>-------- ------- -- ---------- --- - --- ----- ----- ----<br>---- --- --- ----- --- ---- ---- ------- ----- ---- -------<br>--- --- -- ----- -- --- ---- -- --- ---- -- ------ ------<br>--- ----- -- ----,48549.90000152588,48548.80000114441,48092.446,48102.80000114441,48109.117,48559.16,,1,it
screen,html.Screen,0_2_0_1_2,2022-05-09T11:35:49.154Z,,,,,,,,,,,,,,,,53,,,,,,,,,,,,,,501.6400011444057,,response,,,99,,,,,,Space,keypress(Space),,,,,---- -- comes -- ------ - ------- --- ----------<br>------------- ------ ------ ---- ---- ------- ----- -- ----<br>-------- ------- -- ---------- --- - --- ----- ----- ----<br>---- --- --- ----- --- ---- ---- ------- ----- ---- -------<br>--- --- -- ----- -- --- ---- -- --- ---- -- ------ ------<br>--- ----- -- ----,49061.70000076294,49060.80000114441,48542.49,48550.10000038147,48559.16,49076.027,,2,comes
screen,html.Screen,0_2_0_1_3,2022-05-09T11:35:49.522Z,,,,,,,,,,,,,,,,53,,,,,,,,,,,,,,352.87300152587704,,response,,,99,,,,,,Space,keypress(Space),,,,,---- -- ----- to ------ - ------- --- ----------<br>------------- ------ ------ ---- ---- ------- ----- -- ----<br>-------- ------- -- ---------- --- - --- ----- ----- ----<br>---- --- --- ----- --- ---- ---- ------- ----- ---- -------<br>--- --- -- ----- -- --- ---- -- --- ---- -- ------ ------<br>--- ----- -- ----,49429.80000114441,49428.90000152588,49059.356,49062,49076.027,49442.74,,3,to
screen,html.Screen,0_2_0_1_4,2022-05-09T11:35:49.922Z,,,,,,,,,,,,,,,,53,,,,,,,,,,,,,,386.0600011444112,,response,,,99,,,,,,Space,keypress(Space),,,,,---- -- ----- -- having - ------- --- ----------<br>------------- ------ ------ ---- ---- ------- ----- -- ----<br>-------- ------- -- ---------- --- - --- ----- ----- ----<br>---- --- --- ----- --- ---- ---- ------- ----- ---- -------<br>--- --- -- ----- -- --- ---- -- --- ---- -- ------ ------<br>--- ----- -- ----,49829.70000076294,49828.80000114441,49426.07,49430.10000038147,49442.74,49842.78,,4,having
screen,html.Screen,0_2_0_1_5,2022-05-09T11:35:50.770Z,,,,,,,,,,,,,,,,53,,,,,,,,,,,,,,833.9200007629406,,response,,,99,,,,,,Space,keypress(Space),,,,,---- -- ----- -- ------ a ------- --- ----------<br>------------- ------ ------ ---- ---- ------- ----- -- ----<br>-------- ------- -- ---------- --- - --- ----- ----- ----<br>---- --- --- ----- --- ---- ---- ------- ----- ---- -------<br>--- --- -- ----- -- --- ---- -- --- ---- -- ------ ------<br>--- ----- -- ----,50677.70000076294,50676.70000076294,49826.111,49830.10000038147,49842.78,50693.174,,5,a
screen,html.Screen,0_2_0_1_6,2022-05-09T11:35:51.146Z,,,,,,,,,,,,,,,,53,,,,,,,,,,,,,,359.5260007629404,,response,,,99,,,,,,Space,keypress(Space),,,,,---- -- ----- -- ------ - lasting --- ----------<br>------------- ------ ------ ---- ---- ------- ----- -- ----<br>-------- ------- -- ---------- --- - --- ----- ----- ----<br>---- --- --- ----- --- ---- ---- ------- ----- ---- -------<br>--- --- -- ----- -- --- ---- -- --- ---- -- ------ ------<br>--- ----- -- ----,51053.70000076294,51052.70000076294,50676.502,50678,50693.174,51059.813,,6,lasting
screen,html.Screen,0_2_0_1_7,2022-05-09T11:35:51.602Z,,,,,,,,,,,,,,,,53,,,,,,,,,,,,,,448.88700076293753,,response,,,99,,,,,,Space,keypress(Space),,,,,---- -- ----- -- ------ - ------- and ----------<br>------------- ------ ------ ---- ---- ------- ----- -- ----<br>-------- ------- -- ---------- --- - --- ----- ----- ----<br>---- --- --- ----- --- ---- ---- ------- ----- ---- -------<br>--- --- -- ----- -- --- ---- -- --- ---- -- ------ ------<br>--- ----- -- ----,51509.60000038147,51508.70000076294,51043.143,51054.30000114441,51059.813,51526.61,,7,and
screen,html.Screen,0_2_0_1_8,2022-05-09T11:35:52.803Z,,,,,,,,,,,,,,,,53,,,,,,,,,,,,,,1182.4900003814691,,response,,,99,,,,,,Space,keypress(Space),,,,,---- -- ----- -- ------ - ------- --- fulfilling<br>------------- ------ ------ ---- ---- ------- ----- -- ----<br>-------- ------- -- ---------- --- - --- ----- ----- ----<br>---- --- --- ----- --- ---- ---- ------- ----- ---- -------<br>--- --- -- ----- -- --- ---- -- --- ---- -- ------ ------<br>--- ----- -- ----,52710.10000038147,52709.10000038147,51509.94,51510,51526.61,52726.871,,8,fulfilling
screen,html.Screen,0_2_0_1_9,2022-05-09T11:35:55.122Z,,,,,,,,,,,,,,,,53,,,,,,,,,,,,,,2301.5290015258797,,response,,,99,,,,,,Space,keypress(Space),,,,,"---- -- ----- -- ------ - ------- --- ----------<br>relationship, ------ ------ ---- ---- ------- ----- -- ----<br>-------- ------- -- ---------- --- - --- ----- ----- ----<br>---- --- --- ----- --- ---- ---- ------- ----- ---- -------<br>--- --- -- ----- -- --- ---- -- --- ---- -- ------ ------<br>--- ----- -- ----",55029.40000152588,55028.40000152588,52710.201,52710.5,52726.871,55044.229,,9,"relationship,"
screen,html.Screen,0_2_0_1_10,2022-05-09T11:35:55.730Z,,,,,,,,,,,,,,,,53,,,,,,,,,,,,,,592.2710000000006,,response,,,99,,,,,,Space,keypress(Space),,,,,---- -- ----- -- ------ - ------- --- ----------<br>------------- common ------ ---- ---- ------- ----- -- ----<br>-------- ------- -- ---------- --- - --- ----- ----- ----<br>---- --- --- ----- --- ---- ---- ------- ----- ---- -------<br>--- --- -- ----- -- --- ---- -- --- ---- -- ------ ------<br>--- ----- -- ----,55637.70000076294,55636.5,55027.558,55029.70000076294,55044.229,55644.101,,10,common
screen,html.Screen,0_2_0_1_11,2022-05-09T11:35:56.362Z,,,,,,,,,,,,,,,,53,,,,,,,,,,,,,,624.2990015258765,,response,,,99,,,,,,Space,keypress(Space),,,,,---- -- ----- -- ------ - ------- --- ----------<br>------------- ------ wisdom ---- ---- ------- ----- -- ----<br>-------- ------- -- ---------- --- - --- ----- ----- ----<br>---- --- --- ----- --- ---- ---- ------- ----- ---- -------<br>--- --- -- ----- -- --- ---- -- --- ---- -- ------ ------<br>--- ----- -- ----,56269.40000152588,56268.40000152588,55627.432,55638,55644.101,56277.847,,11,wisdom
screen,html.Screen,0_2_0_1_12,2022-05-09T11:35:56.874Z,,,,,,,,,,,,,,,,53,,,,,,,,,,,,,,502.4530011444076,,response,,,99,,,,,,Space,keypress(Space),,,,,---- -- ----- -- ------ - ------- --- ----------<br>------------- ------ ------ says ---- ------- ----- -- ----<br>-------- ------- -- ---------- --- - --- ----- ----- ----<br>---- --- --- ----- --- ---- ---- ------- ----- ---- -------<br>--- --- -- ----- -- --- ---- -- --- ---- -- ------ ------<br>--- ----- -- ----,56781.20000076294,56780.30000114441,56261.176,56269.70000076294,56277.847,56794.492,,12,says
screen,html.Screen,0_2_0_1_13,2022-05-09T11:35:57.218Z,,,,,,,,,,,,,,,,53,,,,,,,,,,,,,,329.8080011444108,,response,,,99,,,,,,Space,keypress(Space),,,,,---- -- ----- -- ------ - ------- --- ----------<br>------------- ------ ------ ---- that ------- ----- -- ----<br>-------- ------- -- ---------- --- - --- ----- ----- ----<br>---- --- --- ----- --- ---- ---- ------- ----- ---- -------<br>--- --- -- ----- -- --- ---- -- --- ---- -- ------ ------<br>--- ----- -- ----,57125.10000038147,57124.30000114441,56777.823,56781.5,56794.492,57128.095,,13,that
screen,html.Screen,0_2_0_1_14,2022-05-09T11:35:57.618Z,,,,,,,,,,,,,,,,53,,,,,,,,,,,,,,396.205001144408,,response,,,99,,,,,,Space,keypress(Space),,,,,---- -- ----- -- ------ - ------- --- ----------<br>------------- ------ ------ ---- ---- feeling ----- -- ----<br>-------- ------- -- ---------- --- - --- ----- ----- ----<br>---- --- --- ----- --- ---- ---- ------- ----- ---- -------<br>--- --- -- ----- -- --- ---- -- --- ---- -- ------ ------<br>--- ----- -- ----,57525.10000038147,57524.30000114441,57111.424,57125.40000152588,57128.095,57528.145,,14,feeling
screen,html.Screen,0_2_0_1_15,2022-05-09T11:35:57.986Z,,,,,,,,,,,,,,,,53,,,,,,,,,,,,,,364.1550011444124,,response,,,99,,,,,,Space,keypress(Space),,,,,---- -- ----- -- ------ - ------- --- ----------<br>------------- ------ ------ ---- ---- ------- close -- ----<br>-------- ------- -- ---------- --- - --- ----- ----- ----<br>---- --- --- ----- --- ---- ---- ------- ----- ---- -------<br>--- --- -- ----- -- --- ---- -- --- ---- -- ------ ------<br>--- ----- -- ----,57893.20000076294,57892.30000114441,57511.475,57525.40000152588,57528.145,57894.904,,15,close
screen,html.Screen,0_2_0_1_16,2022-05-09T11:35:58.322Z,,,,,,,,,,,,,,,,53,,,,,,,,,,,,,,333.2960007629372,,response,,,99,,,,,,Space,keypress(Space),,,,,---- -- ----- -- ------ - ------- --- ----------<br>------------- ------ ------ ---- ---- ------- ----- to ----<br>-------- ------- -- ---------- --- - --- ----- ----- ----<br>---- --- --- ----- --- ---- ---- ------- ----- ---- -------<br>--- --- -- ----- -- --- ---- -- --- ---- -- ------ ------<br>--- ----- -- ----,58229.10000038147,58228.20000076294,57878.234,57893.40000152588,57894.904,58245.026,,16,to
screen,html.Screen,0_2_0_1_17,2022-05-09T11:35:58.762Z,,,,,,,,,,,,,,,,53,,,,,,,,,,,,,,423.17400076294143,,response,,,99,,,,,,Space,keypress(Space),,,,,---- -- ----- -- ------ - ------- --- ----------<br>------------- ------ ------ ---- ---- ------- ----- -- your<br>-------- ------- -- ---------- --- - --- ----- ----- ----<br>---- --- --- ----- --- ---- ---- ------- ----- ---- -------<br>--- --- -- ----- -- --- ---- -- --- ---- -- ------ ------<br>--- ----- -- ----,58669.20000076294,58668.20000076294,58228.355,58229.30000114441,58245.026,58678.427,,17,your
screen,html.Screen,0_2_0_1_18,2022-05-09T11:35:59.130Z,,,,,,,,,,,,,,,,53,,,,,,,,,,,,,,357.77300076293614,,response,,,99,,,,,,Space,keypress(Space),,,,,---- -- ----- -- ------ - ------- --- ----------<br>------------- ------ ------ ---- ---- ------- ----- -- ----<br>romantic ------- -- ---------- --- - --- ----- ----- ----<br>---- --- --- ----- --- ---- ---- ------- ----- ---- -------<br>--- --- -- ----- -- --- ---- -- --- ---- -- ------ ------<br>--- ----- -- ----,59037.10000038147,59036.20000076294,58661.757,58669.40000152588,58678.427,59045.132,,18,romantic
screen,html.Screen,0_2_0_1_19,2022-05-09T11:35:59.442Z,,,,,,,,,,,,,,,,53,,,,,,,,,,,,,,303.06800076294167,,response,,,99,,,,,,Space,keypress(Space),,,,,---- -- ----- -- ------ - ------- --- ----------<br>------------- ------ ------ ---- ---- ------- ----- -- ----<br>-------- partner -- ---------- --- - --- ----- ----- ----<br>---- --- --- ----- --- ---- ---- ------- ----- ---- -------<br>--- --- -- ----- -- --- ---- -- --- ---- -- ------ ------<br>--- ----- -- ----,59349.10000038147,59348.20000076294,59028.463,59037.30000114441,59045.132,59361.97,,19,partner
screen,html.Screen,0_2_0_1_20,2022-05-09T11:35:59.786Z,,,,,,,,,,,,,,,,53,,,,,,,,,,,,,,330.2300007629383,,response,,,99,,,,,,Space,keypress(Space),,,,,---- -- ----- -- ------ - ------- --- ----------<br>------------- ------ ------ ---- ---- ------- ----- -- ----<br>-------- ------- is ---------- --- - --- ----- ----- ----<br>---- --- --- ----- --- ---- ---- ------- ----- ---- -------<br>--- --- -- ----- -- --- ---- -- --- ---- -- ------ ------<br>--- ----- -- ----,59693,59692.20000076294,59345.299,59349.30000114441,59361.97,59695.361,,20,is
screen,html.Screen,0_2_0_1_21,2022-05-09T11:36:00.477Z,,,,,,,,,,,,,,,,53,,,,,,,,,,,,,,684.7390003814726,,response,,,99,,,,,,Space,keypress(Space),,,,,---- -- ----- -- ------ - ------- --- ----------<br>------------- ------ ------ ---- ---- ------- ----- -- ----<br>-------- ------- -- paramount. --- - --- ----- ----- ----<br>---- --- --- ----- --- ---- ---- ------- ----- ---- -------<br>--- --- -- ----- -- --- ---- -- --- ---- -- ------ ------<br>--- ----- -- ----,60380.90000152588,60380.10000038147,59678.691,59693.20000076294,59695.361,60395.346,,21,paramount.
screen,html.Screen,0_2_0_1_22,2022-05-09T11:36:00.861Z,,,,,,,,,,,,,,,,53,,,,,,,,,,,,,,368.754000381472,,response,,,99,,,,,,Space,keypress(Space),,,,,---- -- ----- -- ------ - ------- --- ----------<br>------------- ------ ------ ---- ---- ------- ----- -- ----<br>-------- ------- -- ---------- But - --- ----- ----- ----<br>---- --- --- ----- --- ---- ---- ------- ----- ---- -------<br>--- --- -- ----- -- --- ---- -- --- ---- -- ------ ------<br>--- ----- -- ----,60765.10000038147,60764.10000038147,60378.678,60381.20000076294,60395.346,60779.058,,22,But
screen,html.Screen,0_2_0_1_23,2022-05-09T11:36:01.173Z,,,,,,,,,,,,,,,,53,,,,,,,,,,,,,,297.04200038147246,,response,,,99,,,,,,Space,keypress(Space),,,,,---- -- ----- -- ------ - ------- --- ----------<br>------------- ------ ------ ---- ---- ------- ----- -- ----<br>-------- ------- -- ---------- --- a --- ----- ----- ----<br>---- --- --- ----- --- ---- ---- ------- ----- ---- -------<br>--- --- -- ----- -- --- ---- -- --- ---- -- ------ ------<br>--- ----- -- ----,61077,61076.10000038147,60762.386,60765.40000152588,60779.058,61079.044,,23,a
screen,html.Screen,0_2_0_1_24,2022-05-09T11:36:01.469Z,,,,,,,,,,,,,,,,53,,,,,,,,,,,,,,293.05600038146804,,response,,,99,,,,,,Space,keypress(Space),,,,,---- -- ----- -- ------ - ------- --- ----------<br>------------- ------ ------ ---- ---- ------- ----- -- ----<br>-------- ------- -- ---------- --- - new ----- ----- ----<br>---- --- --- ----- --- ---- ---- ------- ----- ---- -------<br>--- --- -- ----- -- --- ---- -- --- ---- -- ------ ------<br>--- ----- -- ----,61373.10000038147,61372.10000038147,61062.374,61077.30000114441,61079.044,61379.048,,24,new
screen,html.Screen,0_2_0_1_25,2022-05-09T11:36:01.797Z,,,,,,,,,,,,,,,,53,,,,,,,,,,,,,,321.0520003814672,,response,,,99,,,,,,Space,keypress(Space),,,,,---- -- ----- -- ------ - ------- --- ----------<br>------------- ------ ------ ---- ---- ------- ----- -- ----<br>-------- ------- -- ---------- --- - --- study ----- ----<br>---- --- --- ----- --- ---- ---- ------- ----- ---- -------<br>--- --- -- ----- -- --- ---- -- --- ---- -- ------ ------<br>--- ----- -- ----,61701.10000038147,61700.10000038147,61362.379,61373.40000152588,61379.048,61712.612,,25,study
screen,html.Screen,0_2_0_1_26,2022-05-09T11:36:02.125Z,,,,,,,,,,,,,,,,53,,,,,,,,,,,,,,315.48800038146874,,response,,,99,,,,,,Space,keypress(Space),,,,,---- -- ----- -- ------ - ------- --- ----------<br>------------- ------ ------ ---- ---- ------- ----- -- ----<br>-------- ------- -- ---------- --- - --- ----- finds ----<br>---- --- --- ----- --- ---- ---- ------- ----- ---- -------<br>--- --- -- ----- -- --- ---- -- --- ---- -- ------ ------<br>--- ----- -- ----,62029.10000038147,62028.10000038147,61695.94,61701.30000114441,61712.612,62045.99,,26,finds
screen,html.Screen,0_2_0_1_27,2022-05-09T11:36:02.389Z,,,,,,,,,,,,,,,,53,,,,,,,,,,,,,,246.01000000000204,,response,,,99,,,,,,Space,keypress(Space),,,,,---- -- ----- -- ------ - ------- --- ----------<br>------------- ------ ------ ---- ---- ------- ----- -- ----<br>-------- ------- -- ---------- --- - --- ----- ----- that<br>---- --- --- ----- --- ---- ---- ------- ----- ---- -------<br>--- --- -- ----- -- --- ---- -- --- ---- -- ------ ------<br>--- ----- -- ----,62292.80000114441,62292,62029.319,62029.40000152588,62045.99,62296.02,,27,that
screen,html.Screen,0_2_0_1_28,2022-05-09T11:36:02.677Z,,,,,,,,,,,,,,,,53,,,,,,,,,,,,,,283.9800000000032,,response,,,99,,,,,,Space,keypress(Space),,,,,---- -- ----- -- ------ - ------- --- ----------<br>------------- ------ ------ ---- ---- ------- ----- -- ----<br>-------- ------- -- ---------- --- - --- ----- ----- ----<br>it's --- --- ----- --- ---- ---- ------- ----- ---- -------<br>--- --- -- ----- -- --- ---- -- --- ---- -- ------ ------<br>--- ----- -- ----,62580.90000152588,62580,62279.35,62293.20000076294,62296.02,62596.024,,28,it's
screen,html.Screen,0_2_0_1_29,2022-05-09T11:36:03.013Z,,,,,,,,,,,,,,,,53,,,,,,,,,,,,,,320.4760000000024,,response,,,99,,,,,,Space,keypress(Space),,,,,---- -- ----- -- ------ - ------- --- ----------<br>------------- ------ ------ ---- ---- ------- ----- -- ----<br>-------- ------- -- ---------- --- - --- ----- ----- ----<br>---- not --- ----- --- ---- ---- ------- ----- ---- -------<br>--- --- -- ----- -- --- ---- -- --- ---- -- ------ ------<br>--- ----- -- ----,62917.30000114441,62916.5,62579.355,62581.10000038147,62596.024,62929.587,,29,not
screen,html.Screen,0_2_0_1_30,2022-05-09T11:36:03.317Z,,,,,,,,,,,,,,,,53,,,,,,,,,,,,,,290.41300000000047,,response,,,99,,,,,,Space,keypress(Space),,,,,---- -- ----- -- ------ - ------- --- ----------<br>------------- ------ ------ ---- ---- ------- ----- -- ----<br>-------- ------- -- ---------- --- - --- ----- ----- ----<br>---- --- how ----- --- ---- ---- ------- ----- ---- -------<br>--- --- -- ----- -- --- ---- -- --- ---- -- ------ ------<br>--- ----- -- ----,63220.90000152588,63220,62912.915,62917.5,62929.587,63229.622,,30,how
screen,html.Screen,0_2_0_1_31,2022-05-09T11:36:03.637Z,,,,,,,,,,,,,,,,53,,,,,,,,,,,,,,310.377999999997,,response,,,99,,,,,,Space,keypress(Space),,,,,---- -- ----- -- ------ - ------- --- ----------<br>------------- ------ ------ ---- ---- ------- ----- -- ----<br>-------- ------- -- ---------- --- - --- ----- ----- ----<br>---- --- --- close --- ---- ---- ------- ----- ---- -------<br>--- --- -- ----- -- --- ---- -- --- ---- -- ------ ------<br>--- ----- -- ----,63540.80000114441,63540,63212.951,63221,63229.622,63546.344,,31,close
screen,html.Screen,0_2_0_1_32,2022-05-09T11:36:03.909Z,,,,,,,,,,,,,,,,53,,,,,,,,,,,,,,265.5560015258816,,response,,,99,,,,,,Space,keypress(Space),,,,,---- -- ----- -- ------ - ------- --- ----------<br>------------- ------ ------ ---- ---- ------- ----- -- ----<br>-------- ------- -- ---------- --- - --- ----- ----- ----<br>---- --- --- ----- you ---- ---- ------- ----- ---- -------<br>--- --- -- ----- -- --- ---- -- --- ---- -- ------ ------<br>--- ----- -- ----,63812.80000114441,63811.90000152588,63529.674,63541,63546.344,63829.751,,32,you
screen,html.Screen,0_2_0_1_33,2022-05-09T11:36:04.213Z,,,,,,,,,,,,,,,,53,,,,,,,,,,,,,,286.24900000000343,,response,,,99,,,,,,Space,keypress(Space),,,,,---- -- ----- -- ------ - ------- --- ----------<br>------------- ------ ------ ---- ---- ------- ----- -- ----<br>-------- ------- -- ---------- --- - --- ----- ----- ----<br>---- --- --- ----- --- feel ---- ------- ----- ---- -------<br>--- --- -- ----- -- --- ---- -- --- ---- -- ------ ------<br>--- ----- -- ----,64116.80000114441,64116,63813.081,63813.10000038147,63829.751,64129.781,,33,feel
screen,html.Screen,0_2_0_1_34,2022-05-09T11:36:04.509Z,,,,,,,,,,,,,,,,53,,,,,,,,,,,,,,282.11900152587623,,response,,,99,,,,,,Space,keypress(Space),,,,,---- -- ----- -- ------ - ------- --- ----------<br>------------- ------ ------ ---- ---- ------- ----- -- ----<br>-------- ------- -- ---------- --- - --- ----- ----- ----<br>---- --- --- ----- --- ---- that ------- ----- ---- -------<br>--- --- -- ----- -- --- ---- -- --- ---- -- ------ ------<br>--- ----- -- ----,64412.70000076294,64411.90000152588,64113.112,64117,64129.781,64429.937,,34,that
screen,html.Screen,0_2_0_1_35,2022-05-09T11:36:04.973Z,,,,,,,,,,,,,,,,53,,,,,,,,,,,,,,445.9630015258808,,response,,,99,,,,,,Space,keypress(Space),,,,,---- -- ----- -- ------ - ------- --- ----------<br>------------- ------ ------ ---- ---- ------- ----- -- ----<br>-------- ------- -- ---------- --- - --- ----- ----- ----<br>---- --- --- ----- --- ---- ---- matters ----- ---- -------<br>--- --- -- ----- -- --- ---- -- --- ---- -- ------ ------<br>--- ----- -- ----,64876.70000076294,64875.90000152588,64413.266,64412.90000152588,64429.937,64880.048,,35,matters
screen,html.Screen,0_2_0_1_36,2022-05-09T11:36:05.501Z,,,,,,,,,,,,,,,,53,,,,,,,,,,,,,,523.8520015258764,,response,,,99,,,,,,Space,keypress(Space),,,,,"---- -- ----- -- ------ - ------- --- ----------<br>------------- ------ ------ ---- ---- ------- ----- -- ----<br>-------- ------- -- ---------- --- - --- ----- ----- ----<br>---- --- --- ----- --- ---- ---- ------- most, ---- -------<br>--- --- -- ----- -- --- ---- -- --- ---- -- ------ ------<br>--- ----- -- ----",65404.70000076294,65403.90000152588,64863.377,64877,64880.048,65413.246,,36,"most,"
screen,html.Screen,0_2_0_1_37,2022-05-09T11:36:05.933Z,,,,,,,,,,,,,,,,53,,,,,,,,,,,,,,422.6540015258797,,response,,,99,,,,,,Space,keypress(Space),,,,,---- -- ----- -- ------ - ------- --- ----------<br>------------- ------ ------ ---- ---- ------- ----- -- ----<br>-------- ------- -- ---------- --- - --- ----- ----- ----<br>---- --- --- ----- --- ---- ---- ------- ----- it's -------<br>--- --- -- ----- -- --- ---- -- --- ---- -- ------ ------<br>--- ----- -- ----,65837,65835.90000152588,65396.579,65405,65413.246,65847.031,,37,it's
screen,html.Screen,0_2_0_1_38,2022-05-09T11:36:06.269Z,,,,,,,,,,,,,,,,53,,,,,,,,,,,,,,324.7690011444065,,response,,,99,,,,,,Space,keypress(Space),,,,,---- -- ----- -- ------ - ------- --- ----------<br>------------- ------ ------ ---- ---- ------- ----- -- ----<br>-------- ------- -- ---------- --- - --- ----- ----- ----<br>---- --- --- ----- --- ---- ---- ------- ----- ---- whether<br>--- --- -- ----- -- --- ---- -- --- ---- -- ------ ------<br>--- ----- -- ----,66172.70000076294,66171.80000114441,65830.359,65837.20000076294,65847.031,66180.331,,38,whether
screen,html.Screen,0_2_0_1_39,2022-05-09T11:36:06.677Z,,,,,,,,,,,,,,,,53,,,,,,,,,,,,,,399.6689999999944,,response,,,99,,,,,,Space,keypress(Space),,,,,---- -- ----- -- ------ - ------- --- ----------<br>------------- ------ ------ ---- ---- ------- ----- -- ----<br>-------- ------- -- ---------- --- - --- ----- ----- ----<br>---- --- --- ----- --- ---- ---- ------- ----- ---- -------<br>you --- -- ----- -- --- ---- -- --- ---- -- ------ ------<br>--- ----- -- ----,66580.80000114441,66580,66163.661,66172.90000152588,66180.331,66597.009,,39,you
screen,html.Screen,0_2_0_1_40,2022-05-09T11:36:06.989Z,,,,,,,,,,,,,,,,53,,,,,,,,,,,,,,294.7910011444037,,response,,,99,,,,,,Space,keypress(Space),,,,,---- -- ----- -- ------ - ------- --- ----------<br>------------- ------ ------ ---- ---- ------- ----- -- ----<br>-------- ------- -- ---------- --- - --- ----- ----- ----<br>---- --- --- ----- --- ---- ---- ------- ----- ---- -------<br>--- are -- ----- -- --- ---- -- --- ---- -- ------ ------<br>--- ----- -- ----,66892.70000076294,66891.80000114441,66580.34,66581,66597.009,66897.265,,40,are
screen,html.Screen,0_2_0_1_41,2022-05-09T11:36:07.293Z,,,,,,,,,,,,,,,,53,,,,,,,,,,,,,,298.43500076294004,,response,,,99,,,,,,Space,keypress(Space),,,,,---- -- ----- -- ------ - ------- --- ----------<br>------------- ------ ------ ---- ---- ------- ----- -- ----<br>-------- ------- -- ---------- --- - --- ----- ----- ----<br>---- --- --- ----- --- ---- ---- ------- ----- ---- -------<br>--- --- as ----- -- --- ---- -- --- ---- -- ------ ------<br>--- ----- -- ----,67196.5,67195.70000076294,66880.593,66892.90000152588,66897.265,67213.964,,41,as
screen,html.Screen,0_2_0_1_42,2022-05-09T11:36:07.717Z,,,,,,,,,,,,,,,,53,,,,,,,,,,,,,,405.83600114440196,,response,,,99,,,,,,Space,keypress(Space),,,,,---- -- ----- -- ------ - ------- --- ----------<br>------------- ------ ------ ---- ---- ------- ----- -- ----<br>-------- ------- -- ---------- --- - --- ----- ----- ----<br>---- --- --- ----- --- ---- ---- ------- ----- ---- -------<br>--- --- -- close -- --- ---- -- --- ---- -- ------ ------<br>--- ----- -- ----,67620.60000038147,67619.80000114441,67197.293,67196.80000114441,67213.964,67630.651,,42,close
screen,html.Screen,0_2_0_1_43,2022-05-09T11:36:08.301Z,,,,,,,,,,,,,,,,53,,,,,,,,,,,,,,573.0490007629414,,response,,,99,,,,,,Space,keypress(Space),,,,,---- -- ----- -- ------ - ------- --- ----------<br>------------- ------ ------ ---- ---- ------- ----- -- ----<br>-------- ------- -- ---------- --- - --- ----- ----- ----<br>---- --- --- ----- --- ---- ---- ------- ----- ---- -------<br>--- --- -- ----- as --- ---- -- --- ---- -- ------ ------<br>--- ----- -- ----,68204.5,68203.70000076294,67613.982,67620.80000114441,67630.651,68214.066,,43,as
screen,html.Screen,0_2_0_1_44,2022-05-09T11:36:08.789Z,,,,,,,,,,,,,,,,53,,,,,,,,,,,,,,477.6340007629333,,response,,,99,,,,,,Space,keypress(Space),,,,,---- -- ----- -- ------ - ------- --- ----------<br>------------- ------ ------ ---- ---- ------- ----- -- ----<br>-------- ------- -- ---------- --- - --- ----- ----- ----<br>---- --- --- ----- --- ---- ---- ------- ----- ---- -------<br>--- --- -- ----- -- you ---- -- --- ---- -- ------ ------<br>--- ----- -- ----,68692.5,68691.70000076294,68197.397,68204.80000114441,68214.066,68697.745,,44,you
screen,html.Screen,0_2_0_1_45,2022-05-09T11:36:09.148Z,,,,,,,,,,,,,,,,53,,,,,,,,,,,,,,353.4550007629441,,response,,,99,,,,,,Space,keypress(Space),,,,,---- -- ----- -- ------ - ------- --- ----------<br>------------- ------ ------ ---- ---- ------- ----- -- ----<br>-------- ------- -- ---------- --- - --- ----- ----- ----<br>---- --- --- ----- --- ---- ---- ------- ----- ---- -------<br>--- --- -- ----- -- --- want -- --- ---- -- ------ ------<br>--- ----- -- ----,69051.5,69051.20000076294,68681.073,68692.70000076294,68697.745,69064.388,,45,want
screen,html.Screen,0_2_0_1_46,2022-05-09T11:36:09.476Z,,,,,,,,,,,,,,,,53,,,,,,,,,,,,,,315.0120015258726,,response,,,99,,,,,,Space,keypress(Space),,,,,---- -- ----- -- ------ - ------- --- ----------<br>------------- ------ ------ ---- ---- ------- ----- -- ----<br>-------- ------- -- ---------- --- - --- ----- ----- ----<br>---- --- --- ----- --- ---- ---- ------- ----- ---- -------<br>--- --- -- ----- -- --- ---- to --- ---- -- ------ ------<br>--- ----- -- ----,69379.60000038147,69379.40000152588,69047.718,69051.60000038147,69064.388,69381.137,,46,to
screen,html.Screen,0_2_0_1_47,2022-05-09T11:36:09.836Z,,,,,,,,,,,,,,,,53,,,,,,,,,,,,,,358.16300114440673,,response,,,99,,,,,,Space,keypress(Space),,,,,"---- -- ----- -- ------ - ------- --- ----------<br>------------- ------ ------ ---- ---- ------- ----- -- ----<br>-------- ------- -- ---------- --- - --- ----- ----- ----<br>---- --- --- ----- --- ---- ---- ------- ----- ---- -------<br>--- --- -- ----- -- --- ---- -- be, ---- -- ------ ------<br>--- ----- -- ----",69739.70000076294,69739.30000114441,69364.466,69379.70000076294,69381.137,69747.783,,47,"be,"
screen,html.Screen,0_2_0_1_48,2022-05-09T11:36:10.237Z,,,,,,,,,,,,,,,,53,,,,,,,,,,,,,,391.7170000000042,,response,,,99,,,,,,Space,keypress(Space),,,,,---- -- ----- -- ------ - ------- --- ----------<br>------------- ------ ------ ---- ---- ------- ----- -- ----<br>-------- ------- -- ---------- --- - --- ----- ----- ----<br>---- --- --- ----- --- ---- ---- ------- ----- ---- -------<br>--- --- -- ----- -- --- ---- -- --- even -- ------ ------<br>--- ----- -- ----,70140.40000152588,70139.5,69731.115,69739.70000076294,69747.783,70147.912,,48,even
screen,html.Screen,0_2_0_1_49,2022-05-09T11:36:10.644Z,,,,,,,,,,,,,,,,53,,,,,,,,,,,,,,399.5880000000034,,response,,,99,,,,,,Space,keypress(Space),,,,,---- -- ----- -- ------ - ------- --- ----------<br>------------- ------ ------ ---- ---- ------- ----- -- ----<br>-------- ------- -- ---------- --- - --- ----- ----- ----<br>---- --- --- ----- --- ---- ---- ------- ----- ---- -------<br>--- --- -- ----- -- --- ---- -- --- ---- if ------ ------<br>--- ----- -- ----,70548.40000152588,70547.5,70131.243,70140.60000038147,70147.912,70564.726,,49,if
screen,html.Screen,0_2_0_1_50,2022-05-09T11:36:11.052Z,,,,,,,,,,,,,,,,53,,,,,,,,,,,,,,390.8740003814746,,response,,,99,,,,,,Space,keypress(Space),,,,,---- -- ----- -- ------ - ------- --- ----------<br>------------- ------ ------ ---- ---- ------- ----- -- ----<br>-------- ------- -- ---------- --- - --- ----- ----- ----<br>---- --- --- ----- --- ---- ---- ------- ----- ---- -------<br>--- --- -- ----- -- --- ---- -- --- ---- -- that's ------<br>--- ----- -- ----,70956.40000152588,70955.60000038147,70548.056,70548.60000038147,70564.726,70964.882,,50,that's
screen,html.Screen,0_2_0_1_51,2022-05-09T11:36:11.404Z,,,,,,,,,,,,,,,,53,,,,,,,,,,,,,,342.71800038147194,,response,,,99,,,,,,Space,keypress(Space),,,,,---- -- ----- -- ------ - ------- --- ----------<br>------------- ------ ------ ---- ---- ------- ----- -- ----<br>-------- ------- -- ---------- --- - --- ----- ----- ----<br>---- --- --- ----- --- ---- ---- ------- ----- ---- -------<br>--- --- -- ----- -- --- ---- -- --- ---- -- ------ really<br>--- ----- -- ----,71308.40000152588,71307.60000038147,70948.211,70956.60000038147,70964.882,71314.939,,51,really
screen,html.Screen,0_2_0_1_52,2022-05-09T11:36:12.020Z,,,,,,,,,,,,,,,,53,,,,,,,,,,,,,,608.5610000000015,,response,,,99,,,,,,Space,keypress(Space),,,,,---- -- ----- -- ------ - ------- --- ----------<br>------------- ------ ------ ---- ---- ------- ----- -- ----<br>-------- ------- -- ---------- --- - --- ----- ----- ----<br>---- --- --- ----- --- ---- ---- ------- ----- ---- -------<br>--- --- -- ----- -- --- ---- -- --- ---- -- ------ ------<br>not ----- -- ----,71924.30000114441,71923.5,71298.269,71308.60000038147,71314.939,71931.903,,52,not
screen,html.Screen,0_2_0_1_53,2022-05-09T11:36:12.356Z,,,,,,,,,,,,,,,,53,,,,,,,,,,,,,,327.5969999999943,,response,,,99,,,,,,Space,keypress(Space),,,,,---- -- ----- -- ------ - ------- --- ----------<br>------------- ------ ------ ---- ---- ------- ----- -- ----<br>-------- ------- -- ---------- --- - --- ----- ----- ----<br>---- --- --- ----- --- ---- ---- ------- ----- ---- -------<br>--- --- -- ----- -- --- ---- -- --- ---- -- ------ ------<br>--- close -- ----,72260.30000114441,72259.5,71915.231,71924.5,71931.903,72265.193,,53,close
screen,html.Screen,0_2_0_1_54,2022-05-09T11:36:12.708Z,,,,,,,,,,,,,,,,53,,,,,,,,,,,,,,346.2070015258796,,response,,,99,,,,,,Space,keypress(Space),,,,,---- -- ----- -- ------ - ------- --- ----------<br>------------- ------ ------ ---- ---- ------- ----- -- ----<br>-------- ------- -- ---------- --- - --- ----- ----- ----<br>---- --- --- ----- --- ---- ---- ------- ----- ---- -------<br>--- --- -- ----- -- --- ---- -- --- ---- -- ------ ------<br>--- ----- at ----,72612.30000114441,72611.40000152588,72248.523,72260.5,72265.193,72615.341,,54,at
screen,html.Screen,0_2_0_1_55,2022-05-09T11:36:13.165Z,,,,,,,,,,,,,,,,53,,,,,,,,,,,,,,452.55900152587856,,response,,,99,,,,,,Space,keypress(Space),,,,,---- -- ----- -- ------ - ------- --- ----------<br>------------- ------ ------ ---- ---- ------- ----- -- ----<br>-------- ------- -- ---------- --- - --- ----- ----- ----<br>---- --- --- ----- --- ---- ---- ------- ----- ---- -------<br>--- --- -- ----- -- --- ---- -- --- ---- -- ------ ------<br>--- ----- -- all.,73068.70000076294,73067.90000152588,72598.67,72612.5,72615.341,73082.086,,55,all.
Item 99,flow.Loop,0_2_0_1,2022-05-09T11:36:13.170Z,,,,,,,,,,,,,,,,,,,,,,,,,,,,,,25959.045001525876,,completion,,,,D,,,,,,,,,,silence,,73073.5,73067.90000152588,47042.171,47044.20000076294,47108.855,73082.086,,,
Question 1,html.Screen,0_2_0_2,2022-05-09T11:36:17.494Z,,,,,,,,,,,,,,,,,,,,,,,,,,,true,FALSE,,4314.114000762944,,response,,,99,D,,,,,FALSE,click #choice-2,,,,silence,,77397.60000038147,77396.20000076294,73065.416,73073.80000114441,73082.086,77399.848,,,
Question 2,html.Screen,0_2_0_3,2022-05-09T11:36:21.972Z,,,,,,,,,,,,,,,,,,,,,,,,,,,true,TRUE,,4475.152000000002,,response,,,99,D,,,,,TRUE,click #choice-1,,,,silence,,81876.20000076294,81875,77383.178,77397.90000152588,77399.848,81884.326,,,
Item 99,flow.Sequence,0_2_0,2022-05-09T11:36:21.973Z,,,,,,,,,,,,,,,,,,,,,,,,,,,,,,44818.68,,completion,,,,,,,,,,,,,,,,81876.60000038147,81875,37039.649,37045.5,37056.32,81884.326,,,
Holding screen,html.Screen,0_2_1_0,2022-05-09T11:36:31.967Z,,,,,,,,,,,,,,,,,,,,,,,,,,,,,,10002.425999999992,,timeout,,,,,,,,,,,,,,,,91871.10000038147,91870.082,81867.656,81877,81884.326,91886.752,,,
screen,html.Screen,0_2_1_1_0,2022-05-09T11:36:32.804Z,,,,,,,,,,,,,,,,54,,,,,,,,,,,,,,820.048001144416,,response,,,100,,,,,,Space,keypress(Space),,,,,At --- ---- --- ------ ----- ------- ---- -- --- ------- --<br>------- ---------- ------ -- ----- -- ----- -- ---- ------<br>--- ----- --- --- ------ -------- ----- --- ------ ----- --<br>----- ----- ---------- --- --- ------ ------ ---- -- ------<br>------- --- ------ ----- --- ---- ------- -- ---- --- --<br>------- ------,92707.80000114441,92706.80000114441,91870.082,91871.5,91886.752,92720.498,,0,At
screen,html.Screen,0_2_1_1_1,2022-05-09T11:36:33.075Z,,,,,,,,,,,,,,,,54,,,,,,,,,,,,,,257.8020011444023,,response,,,100,,,,,,Space,keypress(Space),,,,,-- the ---- --- ------ ----- ------- ---- -- --- ------- --<br>------- ---------- ------ -- ----- -- ----- -- ---- ------<br>--- ----- --- --- ------ -------- ----- --- ------ ----- --<br>----- ----- ---------- --- --- ------ ------ ---- -- ------<br>------- --- ------ ----- --- ---- ------- -- ---- --- --<br>------- ------,92979.10000038147,92978.30000114441,92703.827,92708,92720.498,92987.14,,1,the
screen,html.Screen,0_2_1_1_2,2022-05-09T11:36:33.379Z,,,,,,,,,,,,,,,,54,,,,,,,,,,,,,,294.9600003814703,,response,,,100,,,,,,Space,keypress(Space),,,,,-- --- time --- ------ ----- ------- ---- -- --- ------- --<br>------- ---------- ------ -- ----- -- ----- -- ---- ------<br>--- ----- --- --- ------ -------- ----- --- ------ ----- --<br>----- ----- ---------- --- --- ------ ------ ---- -- ------<br>------- --- ------ ----- --- ---- ------- -- ---- --- --<br>------- ------,93282.80000114441,93282.10000038147,92970.47,92979.30000114441,92987.14,93287.237,,2,time
screen,html.Screen,0_2_1_1_3,2022-05-09T11:36:33.763Z,,,,,,,,,,,,,,,,54,,,,,,,,,,,,,,379.06300114441547,,response,,,100,,,,,,Space,keypress(Space),,,,,-- --- ---- the ------ ----- ------- ---- -- --- ------- --<br>------- ---------- ------ -- ----- -- ----- -- ---- ------<br>--- ----- --- --- ------ -------- ----- --- ------ ----- --<br>----- ----- ---------- --- --- ------ ------ ---- -- ------<br>------- --- ------ ----- --- ---- ------- -- ---- --- --<br>------- ------,93667,93666.30000114441,93270.567,93283.10000038147,93287.237,93670.663,,3,the
screen,html.Screen,0_2_1_1_4,2022-05-09T11:36:34.155Z,,,,,,,,,,,,,,,,54,,,,,,,,,,,,,,387.537000762939,,response,,,100,,,,,,Space,keypress(Space),,,,,-- --- ---- --- French ----- ------- ---- -- --- ------- --<br>------- ---------- ------ -- ----- -- ----- -- ---- ------<br>--- ----- --- --- ------ -------- ----- --- ------ ----- --<br>----- ----- ---------- --- --- ------ ------ ---- -- ------<br>------- --- ------ ----- --- ---- ------- -- ---- --- --<br>------- ------,94059,94058.20000076294,93653.993,93667.20000076294,93670.663,94070.799,,4,French
screen,html.Screen,0_2_1_1_5,2022-05-09T11:36:34.475Z,,,,,,,,,,,,,,,,54,,,,,,,,,,,,,,307.4010007629404,,response,,,100,,,,,,Space,keypress(Space),,,,,-- --- ---- --- ------ crown ------- ---- -- --- ------- --<br>------- ---------- ------ -- ----- -- ----- -- ---- ------<br>--- ----- --- --- ------ -------- ----- --- ------ ----- --<br>----- ----- ---------- --- --- ------ ------ ---- -- ------<br>------- --- ------ ----- --- ---- ------- -- ---- --- --<br>------- ------,94379.20000076294,94378.20000076294,94054.128,94059.20000076294,94070.799,94387.507,,5,crown
screen,html.Screen,0_2_1_1_6,2022-05-09T11:36:35.067Z,,,,,,,,,,,,,,,,54,,,,,,,,,,,,,,582.5930003814719,,response,,,100,,,,,,Space,keypress(Space),,,,,-- --- ---- --- ------ ----- secured ---- -- --- ------- --<br>------- ---------- ------ -- ----- -- ----- -- ---- ------<br>--- ----- --- --- ------ -------- ----- --- ------ ----- --<br>----- ----- ---------- --- --- ------ ------ ---- -- ------<br>------- --- ------ ----- --- ---- ------- -- ---- --- --<br>------- ------,94971,94970.10000038147,94370.837,94379.40000152588,94387.507,94987.626,,6,secured
screen,html.Screen,0_2_1_1_7,2022-05-09T11:36:35.498Z,,,,,,,,,,,,,,,,54,,,,,,,,,,,,,,414.0740007629356,,response,,,100,,,,,,Space,keypress(Space),,,,,-- --- ---- --- ------ ----- ------- much -- --- ------- --<br>------- ---------- ------ -- ----- -- ----- -- ---- ------<br>--- ----- --- --- ------ -------- ----- --- ------ ----- --<br>----- ----- ---------- --- --- ------ ------ ---- -- ------<br>------- --- ------ ----- --- ---- ------- -- ---- --- --<br>------- ------,95402.10000038147,95401.70000076294,94970.956,94971.30000114441,94987.626,95404.493,,7,much
screen,html.Screen,0_2_1_1_8,2022-05-09T11:36:35.890Z,,,,,,,,,,,,,,,,54,,,,,,,,,,,,,,389.20700076293724,,response,,,100,,,,,,Space,keypress(Space),,,,,-- --- ---- --- ------ ----- ------- ---- of --- ------- --<br>------- ---------- ------ -- ----- -- ----- -- ---- ------<br>--- ----- --- --- ------ -------- ----- --- ------ ----- --<br>----- ----- ---------- --- --- ------ ------ ---- -- ------<br>------- --- ------ ----- --- ---- ------- -- ---- --- --<br>------- ------,95794,95793.70000076294,95387.822,95402.20000076294,95404.493,95804.464,,8,of
screen,html.Screen,0_2_1_1_9,2022-05-09T11:36:36.163Z,,,,,,,,,,,,,,,,54,,,,,,,,,,,,,,261.6360003814625,,response,,,100,,,,,,Space,keypress(Space),,,,,-- --- ---- --- ------ ----- ------- ---- -- its ------- --<br>------- ---------- ------ -- ----- -- ----- -- ---- ------<br>--- ----- --- --- ------ -------- ----- --- ------ ----- --<br>----- ----- ---------- --- --- ------ ------ ---- -- ------<br>------- --- ------ ----- --- ---- ------- -- ---- --- --<br>------- ------,96067,96066.10000038147,95787.795,95794.10000038147,95804.464,96071.166,,9,its
screen,html.Screen,0_2_1_1_10,2022-05-09T11:36:37.931Z,,,,,,,,,,,,,,,,54,,,,,,,,,,,,,,1762.8340000000026,,response,,,100,,,,,,Space,keypress(Space),,,,,-- --- ---- --- ------ ----- ------- ---- -- --- revenue --<br>------- ---------- ------ -- ----- -- ----- -- ---- ------<br>--- ----- --- --- ------ -------- ----- --- ------ ----- --<br>----- ----- ---------- --- --- ------ ------ ---- -- ------<br>------- --- ------ ----- --- ---- ------- -- ---- --- --<br>------- ------,97834.80000114441,97834,96054.497,96067.20000076294,96071.166,97838.255,,10,revenue
screen,html.Screen,0_2_1_1_11,2022-05-09T11:36:38.411Z,,,,,,,,,,,,,,,,54,,,,,,,,,,,,,,475.74499999999534,,response,,,100,,,,,,Space,keypress(Space),,,,,-- --- ---- --- ------ ----- ------- ---- -- --- ------- by<br>------- ---------- ------ -- ----- -- ----- -- ---- ------<br>--- ----- --- --- ------ -------- ----- --- ------ ----- --<br>----- ----- ---------- --- --- ------ ------ ---- -- ------<br>------- --- ------ ----- --- ---- ------- -- ---- --- --<br>------- ------,98314.90000152588,98314,97821.585,97835,97838.255,98321.914,,11,by
screen,html.Screen,0_2_1_1_12,2022-05-09T11:36:38.995Z,,,,,,,,,,,,,,,,54,,,,,,,,,,,,,,575.9860015258746,,response,,,100,,,,,,Space,keypress(Space),,,,,-- --- ---- --- ------ ----- ------- ---- -- --- ------- --<br>issuing ---------- ------ -- ----- -- ----- -- ---- ------<br>--- ----- --- --- ------ -------- ----- --- ------ ----- --<br>----- ----- ---------- --- --- ------ ------ ---- -- ------<br>------- --- ------ ----- --- ---- ------- -- ---- --- --<br>------- ------,98898.70000076294,98897.90000152588,98305.24,98315.10000038147,98321.914,98905.253,,12,issuing
screen,html.Screen,0_2_1_1_13,2022-05-09T11:36:39.531Z,,,,,,,,,,,,,,,,54,,,,,,,,,,,,,,528.5470011444122,,response,,,100,,,,,,Space,keypress(Space),,,,,-- --- ---- --- ------ ----- ------- ---- -- --- ------- --<br>------- government ------ -- ----- -- ----- -- ---- ------<br>--- ----- --- --- ------ -------- ----- --- ------ ----- --<br>----- ----- ---------- --- --- ------ ------ ---- -- ------<br>------- --- ------ ----- --- ---- ------- -- ---- --- --<br>------- ------,99434.70000076294,99433.80000114441,98888.583,98899,98905.253,99438.977,,13,government
screen,html.Screen,0_2_1_1_14,2022-05-09T11:36:45.123Z,,,,,,,,,,,,,,,,54,,,,,,,,,,,,,,5587.123000381471,,response,,,100,,,,,,Space,keypress(Space),,,,,-- --- ---- --- ------ ----- ------- ---- -- --- ------- --<br>------- ---------- bonds. -- ----- -- ----- -- ---- ------<br>--- ----- --- --- ------ -------- ----- --- ------ ----- --<br>----- ----- ---------- --- --- ------ ------ ---- -- ------<br>------- --- ------ ----- --- ---- ------- -- ---- --- --<br>------- ------,105027.10000038147,105026.10000038147,99422.304,99434.90000152588,99438.977,105039.938,,14,bonds.
screen,html.Screen,0_2_1_1_15,2022-05-09T11:36:45.499Z,,,,,,,,,,,,,,,,54,,,,,,,,,,,,,,361.6620003814751,,response,,,100,,,,,,Space,keypress(Space),,,,,-- --- ---- --- ------ ----- ------- ---- -- --- ------- --<br>------- ---------- ------ In ----- -- ----- -- ---- ------<br>--- ----- --- --- ------ -------- ----- --- ------ ----- --<br>----- ----- ---------- --- --- ------ ------ ---- -- ------<br>------- --- ------ ----- --- ---- ------- -- ---- --- --<br>------- ------,105402.40000152588,105401.60000038147,105023.268,105027.30000114441,105039.938,105406.963,,15,In
screen,html.Screen,0_2_1_1_16,2022-05-09T11:36:47.346Z,,,,,,,,,,,,,,,,54,,,,,,,,,,,,,,1842.5369999999966,,response,,,100,,,,,,Space,keypress(Space),,,,,"-- --- ---- --- ------ ----- ------- ---- -- --- ------- --<br>------- ---------- ------ -- 1727, -- ----- -- ---- ------<br>--- ----- --- --- ------ -------- ----- --- ------ ----- --<br>----- ----- ---------- --- --- ------ ------ ---- -- ------<br>------- --- ------ ----- --- ---- ------- -- ---- --- --<br>------- ------",107250.30000114441,107249.5,105390.293,105402.70000076294,105406.963,107257.318,,16,"1727,"
screen,html.Screen,0_2_1_1_17,2022-05-09T11:36:47.858Z,,,,,,,,,,,,,,,,54,,,,,,,,,,,,,,504.0820015258796,,response,,,100,,,,,,Space,keypress(Space),,,,,-- --- ---- --- ------ ----- ------- ---- -- --- ------- --<br>------- ---------- ------ -- ----- in ----- -- ---- ------<br>--- ----- --- --- ------ -------- ----- --- ------ ----- --<br>----- ----- ---------- --- --- ------ ------ ---- -- ------<br>------- --- ------ ----- --- ---- ------- -- ---- --- --<br>------- ------,107762.20000076294,107761.40000152588,107240.648,107250.5,107257.318,107774.288,,17,in
screen,html.Screen,0_2_1_1_18,2022-05-09T11:36:48.442Z,,,,,,,,,,,,,,,,54,,,,,,,,,,,,,,571.1120015258784,,response,,,100,,,,,,Space,keypress(Space),,,,,-- --- ---- --- ------ ----- ------- ---- -- --- ------- --<br>------- ---------- ------ -- ----- -- order -- ---- ------<br>--- ----- --- --- ------ -------- ----- --- ------ ----- --<br>----- ----- ---------- --- --- ------ ------ ---- -- ------<br>------- --- ------ ----- --- ---- ------- -- ---- --- --<br>------- ------,108346.30000114441,108345.40000152588,107757.617,107762.60000038147,107774.288,108357.774,,18,order
screen,html.Screen,0_2_1_1_19,2022-05-09T11:36:49.162Z,,,,,,,,,,,,,,,,54,,,,,,,,,,,,,,707.8260003814648,,response,,,100,,,,,,Space,keypress(Space),,,,,-- --- ---- --- ------ ----- ------- ---- -- --- ------- --<br>------- ---------- ------ -- ----- -- ----- to ---- ------<br>--- ----- --- --- ------ -------- ----- --- ------ ----- --<br>----- ----- ---------- --- --- ------ ------ ---- -- ------<br>------- --- ------ ----- --- ---- ------- -- ---- --- --<br>------- ------,109066.30000114441,109065.60000038147,108341.103,108346.70000076294,108357.774,109074.555,,19,to
screen,html.Screen,0_2_1_1_20,2022-05-09T11:36:49.514Z,,,,,,,,,,,,,,,,54,,,,,,,,,,,,,,342.8450015258859,,response,,,100,,,,,,Space,keypress(Space),,,,,-- --- ---- --- ------ ----- ------- ---- -- --- ------- --<br>------- ---------- ------ -- ----- -- ----- -- save ------<br>--- ----- --- --- ------ -------- ----- --- ------ ----- --<br>----- ----- ---------- --- --- ------ ------ ---- -- ------<br>------- --- ------ ----- --- ---- ------- -- ---- --- --<br>------- ------,109418.10000038147,109417.40000152588,109057.885,109066.5,109074.555,109424.655,,20,save
screen,html.Screen,0_2_1_1_21,2022-05-09T11:36:49.978Z,,,,,,,,,,,,,,,,54,,,,,,,,,,,,,,456.64500114441034,,response,,,100,,,,,,Space,keypress(Space),,,,,"-- --- ---- --- ------ ----- ------- ---- -- --- ------- --<br>------- ---------- ------ -- ----- -- ----- -- ---- money,<br>--- ----- --- --- ------ -------- ----- --- ------ ----- --<br>----- ----- ---------- --- --- ------ ------ ---- -- ------<br>------- --- ------ ----- --- ---- ------- -- ---- --- --<br>------- ------",109882.20000076294,109881.30000114441,109407.985,109418.30000114441,109424.655,109891.493,,21,"money,"
screen,html.Screen,0_2_1_1_22,2022-05-09T11:36:50.538Z,,,,,,,,,,,,,,,,54,,,,,,,,,,,,,,549.807001144407,,response,,,100,,,,,,Space,keypress(Space),,,,,-- --- ---- --- ------ ----- ------- ---- -- --- ------- --<br>------- ---------- ------ -- ----- -- ----- -- ---- ------<br>the ----- --- --- ------ -------- ----- --- ------ ----- --<br>----- ----- ---------- --- --- ------ ------ ---- -- ------<br>------- --- ------ ----- --- ---- ------- -- ---- --- --<br>------- ------,110442.10000038147,110441.30000114441,109874.822,109882.40000152588,109891.493,110458.266,,22,the
screen,html.Screen,0_2_1_1_23,2022-05-09T11:36:50.970Z,,,,,,,,,,,,,,,,54,,,,,,,,,,,,,,415.0340011444059,,response,,,100,,,,,,Space,keypress(Space),,,,,-- --- ---- --- ------ ----- ------- ---- -- --- ------- --<br>------- ---------- ------ -- ----- -- ----- -- ---- ------<br>--- state --- --- ------ -------- ----- --- ------ ----- --<br>----- ----- ---------- --- --- ------ ------ ---- -- ------<br>------- --- ------ ----- --- ---- ------- -- ---- --- --<br>------- ------,110874,110873.30000114441,110441.596,110442.30000114441,110458.266,110891.716,,23,state
screen,html.Screen,0_2_1_1_24,2022-05-09T11:36:51.370Z,,,,,,,,,,,,,,,,54,,,,,,,,,,,,,,381.4840007629391,,response,,,100,,,,,,Space,keypress(Space),,,,,-- --- ---- --- ------ ----- ------- ---- -- --- ------- --<br>------- ---------- ------ -- ----- -- ----- -- ---- ------<br>--- ----- cut --- ------ -------- ----- --- ------ ----- --<br>----- ----- ---------- --- --- ------ ------ ---- -- ------<br>------- --- ------ ----- --- ---- ------- -- ---- --- --<br>------- ------,111274.10000038147,111273.20000076294,110875.046,110874.30000114441,110891.716,111275.148,,24,cut
screen,html.Screen,0_2_1_1_25,2022-05-09T11:36:51.802Z,,,,,,,,,,,,,,,,54,,,,,,,,,,,,,,429.9520003814687,,response,,,100,,,,,,Space,keypress(Space),,,,,-- --- ---- --- ------ ----- ------- ---- -- --- ------- --<br>------- ---------- ------ -- ----- -- ----- -- ---- ------<br>--- ----- --- the ------ -------- ----- --- ------ ----- --<br>----- ----- ---------- --- --- ------ ------ ---- -- ------<br>------- --- ------ ----- --- ---- ------- -- ---- --- --<br>------- ------,111706,111705.10000038147,111258.478,111274.30000114441,111275.148,111708.566,,25,the
screen,html.Screen,0_2_1_1_26,2022-05-09T11:36:52.410Z,,,,,,,,,,,,,,,,54,,,,,,,,,,,,,,604.5340003814636,,response,,,100,,,,,,Space,keypress(Space),,,,,-- --- ---- --- ------ ----- ------- ---- -- --- ------- --<br>------- ---------- ------ -- ----- -- ----- -- ---- ------<br>--- ----- --- --- bonds' -------- ----- --- ------ ----- --<br>----- ----- ---------- --- --- ------ ------ ---- -- ------<br>------- --- ------ ----- --- ---- ------- -- ---- --- --<br>------- ------,112313.90000152588,112313.10000038147,111691.896,111706.30000114441,111708.566,112325.446,,26,bonds'
screen,html.Screen,0_2_1_1_27,2022-05-09T11:36:52.866Z,,,,,,,,,,,,,,,,54,,,,,,,,,,,,,,443.65400038147345,,response,,,100,,,,,,Space,keypress(Space),,,,,-- --- ---- --- ------ ----- ------- ---- -- --- ------- --<br>------- ---------- ------ -- ----- -- ----- -- ---- ------<br>--- ----- --- --- ------ interest ----- --- ------ ----- --<br>----- ----- ---------- --- --- ------ ------ ---- -- ------<br>------- --- ------ ----- --- ---- ------- -- ---- --- --<br>------- ------,112770.10000038147,112769.10000038147,112308.775,112314.20000076294,112325.446,112775.506,,27,interest
screen,html.Screen,0_2_1_1_28,2022-05-09T11:36:53.330Z,,,,,,,,,,,,,,,,54,,,,,,,,,,,,,,457.5940003814758,,response,,,100,,,,,,Space,keypress(Space),,,,,-- --- ---- --- ------ ----- ------- ---- -- --- ------- --<br>------- ---------- ------ -- ----- -- ----- -- ---- ------<br>--- ----- --- --- ------ -------- rate. --- ------ ----- --<br>----- ----- ---------- --- --- ------ ------ ---- -- ------<br>------- --- ------ ----- --- ---- ------- -- ---- --- --<br>------- ------,113234,113233.10000038147,112758.836,112770.30000114441,112775.506,113242.303,,28,rate.
screen,html.Screen,0_2_1_1_29,2022-05-09T11:36:56.450Z,,,,,,,,,,,,,,,,54,,,,,,,,,,,,,,3111.097001525879,,response,,,100,,,,,,Space,keypress(Space),,,,,-- --- ---- --- ------ ----- ------- ---- -- --- ------- --<br>------- ---------- ------ -- ----- -- ----- -- ---- ------<br>--- ----- --- --- ------ -------- ----- The ------ ----- --<br>----- ----- ---------- --- --- ------ ------ ---- -- ------<br>------- --- ------ ----- --- ---- ------- -- ---- --- --<br>------- ------,116354.20000076294,116353.40000152588,113225.633,113234.20000076294,113242.303,116359.618,,29,The
screen,html.Screen,0_2_1_1_30,2022-05-09T11:36:56.922Z,,,,,,,,,,,,,,,,54,,,,,,,,,,,,,,465.2820015258767,,response,,,100,,,,,,Space,keypress(Space),,,,,-- --- ---- --- ------ ----- ------- ---- -- --- ------- --<br>------- ---------- ------ -- ----- -- ----- -- ---- ------<br>--- ----- --- --- ------ -------- ----- --- market ----- --<br>----- ----- ---------- --- --- ------ ------ ---- -- ------<br>------- --- ------ ----- --- ---- ------- -- ---- --- --<br>------- ------,116825.70000076294,116824.90000152588,116342.948,116354.40000152588,116359.618,116843.206,,30,market
screen,html.Screen,0_2_1_1_31,2022-05-09T11:36:57.330Z,,,,,,,,,,,,,,,,54,,,,,,,,,,,,,,389.6940015258733,,response,,,100,,,,,,Space,keypress(Space),,,,,-- --- ---- --- ------ ----- ------- ---- -- --- ------- --<br>------- ---------- ------ -- ----- -- ----- -- ---- ------<br>--- ----- --- --- ------ -------- ----- --- ------ value --<br>----- ----- ---------- --- --- ------ ------ ---- -- ------<br>------- --- ------ ----- --- ---- ------- -- ---- --- --<br>------- ------,117233.70000076294,117232.90000152588,116826.536,116825.90000152588,116843.206,117243.252,,31,value
screen,html.Screen,0_2_1_1_32,2022-05-09T11:36:57.682Z,,,,,,,,,,,,,,,,54,,,,,,,,,,,,,,341.6480015258858,,response,,,100,,,,,,Space,keypress(Space),,,,,-- --- ---- --- ------ ----- ------- ---- -- --- ------- --<br>------- ---------- ------ -- ----- -- ----- -- ---- ------<br>--- ----- --- --- ------ -------- ----- --- ------ ----- of<br>----- ----- ---------- --- --- ------ ------ ---- -- ------<br>------- --- ------ ----- --- ---- ------- -- ---- --- --<br>------- ------,117585.70000076294,117584.90000152588,117226.582,117233.90000152588,117243.252,117593.547,,32,of
screen,html.Screen,0_2_1_1_33,2022-05-09T11:36:58.042Z,,,,,,,,,,,,,,,,54,,,,,,,,,,,,,,351.35300152587297,,response,,,100,,,,,,Space,keypress(Space),,,,,-- --- ---- --- ------ ----- ------- ---- -- --- ------- --<br>------- ---------- ------ -- ----- -- ----- -- ---- ------<br>--- ----- --- --- ------ -------- ----- --- ------ ----- --<br>these ----- ---------- --- --- ------ ------ ---- -- ------<br>------- --- ------ ----- --- ---- ------- -- ---- --- --<br>------- ------,117945.70000076294,117944.90000152588,117576.873,117585.90000152588,117593.547,117960.184,,33,these
screen,html.Screen,0_2_1_1_34,2022-05-09T11:36:58.410Z,,,,,,,,,,,,,,,,54,,,,,,,,,,,,,,352.61600114441535,,response,,,100,,,,,,Space,keypress(Space),,,,,-- --- ---- --- ------ ----- ------- ---- -- --- ------- --<br>------- ---------- ------ -- ----- -- ----- -- ---- ------<br>--- ----- --- --- ------ -------- ----- --- ------ ----- --<br>----- bonds ---------- --- --- ------ ------ ---- -- ------<br>------- --- ------ ----- --- ---- ------- -- ---- --- --<br>------- ------,118313.60000038147,118312.80000114441,117943.514,117945.90000152588,117960.184,118326.943,,34,bonds
screen,html.Screen,0_2_1_1_35,2022-05-09T11:36:59.098Z,,,,,,,,,,,,,,,,54,,,,,,,,,,,,,,673.8570011444099,,response,,,100,,,,,,Space,keypress(Space),,,,,"-- --- ---- --- ------ ----- ------- ---- -- --- ------- --<br>------- ---------- ------ -- ----- -- ----- -- ---- ------<br>--- ----- --- --- ------ -------- ----- --- ------ ----- --<br>----- ----- plummeted, --- --- ------ ------ ---- -- ------<br>------- --- ------ ----- --- ---- ------- -- ---- --- --<br>------- ------",119001.5,119000.80000114441,118310.273,118313.80000114441,118326.943,119010.419,,35,"plummeted,"
screen,html.Screen,0_2_1_1_36,2022-05-09T11:36:59.474Z,,,,,,,,,,,,,,,,54,,,,,,,,,,,,,,366.28100076294504,,response,,,100,,,,,,Space,keypress(Space),,,,,-- --- ---- --- ------ ----- ------- ---- -- --- ------- --<br>------- ---------- ------ -- ----- -- ----- -- ---- ------<br>--- ----- --- --- ------ -------- ----- --- ------ ----- --<br>----- ----- ---------- and --- ------ ------ ---- -- ------<br>------- --- ------ ----- --- ---- ------- -- ---- --- --<br>------- ------,119377.5,119376.70000076294,118993.749,119001.80000114441,119010.419,119393.736,,36,and
screen,html.Screen,0_2_1_1_37,2022-05-09T11:36:59.866Z,,,,,,,,,,,,,,,,54,,,,,,,,,,,,,,374.96400076293503,,response,,,100,,,,,,Space,keypress(Space),,,,,-- --- ---- --- ------ ----- ------- ---- -- --- ------- --<br>------- ---------- ------ -- ----- -- ----- -- ---- ------<br>--- ----- --- --- ------ -------- ----- --- ------ ----- --<br>----- ----- ---------- --- the ------ ------ ---- -- ------<br>------- --- ------ ----- --- ---- ------- -- ---- --- --<br>------- ------,119769.60000038147,119768.70000076294,119377.067,119377.80000114441,119393.736,119777.359,,37,the
screen,html.Screen,0_2_1_1_38,2022-05-09T11:37:00.290Z,,,,,,,,,,,,,,,,54,,,,,,,,,,,,,,415.3410007629427,,response,,,100,,,,,,Space,keypress(Space),,,,,-- --- ---- --- ------ ----- ------- ---- -- --- ------- --<br>------- ---------- ------ -- ----- -- ----- -- ---- ------<br>--- ----- --- --- ------ -------- ----- --- ------ ----- --<br>----- ----- ---------- --- --- market ------ ---- -- ------<br>------- --- ------ ----- --- ---- ------- -- ---- --- --<br>------- ------,120193.5,120192.70000076294,119760.688,119769.80000114441,119777.359,120210.754,,38,market
screen,html.Screen,0_2_1_1_39,2022-05-09T11:37:00.661Z,,,,,,,,,,,,,,,,54,,,,,,,,,,,,,,349.94600076293864,,response,,,100,,,,,,Space,keypress(Space),,,,,-- --- ---- --- ------ ----- ------- ---- -- --- ------- --<br>------- ---------- ------ -- ----- -- ----- -- ---- ------<br>--- ----- --- --- ------ -------- ----- --- ------ ----- --<br>----- ----- ---------- --- --- ------ became ---- -- ------<br>------- --- ------ ----- --- ---- ------- -- ---- --- --<br>------- ------,120561.5,120560.70000076294,120194.084,120193.70000076294,120210.754,120577.516,,39,became
screen,html.Screen,0_2_1_1_40,2022-05-09T11:37:01.005Z,,,,,,,,,,,,,,,,54,,,,,,,,,,,,,,326.98399999999674,,response,,,100,,,,,,Space,keypress(Space),,,,,-- --- ---- --- ------ ----- ------- ---- -- --- ------- --<br>------- ---------- ------ -- ----- -- ----- -- ---- ------<br>--- ----- --- --- ------ -------- ----- --- ------ ----- --<br>----- ----- ---------- --- --- ------ ------ wary -- ------<br>------- --- ------ ----- --- ---- ------- -- ---- --- --<br>------- ------,120905.40000152588,120904.5,120560.846,120561.80000114441,120577.516,120910.912,,40,wary
screen,html.Screen,0_2_1_1_41,2022-05-09T11:37:01.357Z,,,,,,,,,,,,,,,,54,,,,,,,,,,,,,,345.6880003814731,,response,,,100,,,,,,Space,keypress(Space),,,,,-- --- ---- --- ------ ----- ------- ---- -- --- ------- --<br>------- ---------- ------ -- ----- -- ----- -- ---- ------<br>--- ----- --- --- ------ -------- ----- --- ------ ----- --<br>----- ----- ---------- --- --- ------ ------ ---- of ------<br>------- --- ------ ----- --- ---- ------- -- ---- --- --<br>------- ------,121257.5,121256.60000038147,120894.242,120905.60000038147,120910.912,121261.074,,41,of
screen,html.Screen,0_2_1_1_42,2022-05-09T11:37:01.837Z,,,,,,,,,,,,,,,,54,,,,,,,,,,,,,,475.5260003814765,,response,,,100,,,,,,Space,keypress(Space),,,,,-- --- ---- --- ------ ----- ------- ---- -- --- ------- --<br>------- ---------- ------ -- ----- -- ----- -- ---- ------<br>--- ----- --- --- ------ -------- ----- --- ------ ----- --<br>----- ----- ---------- --- --- ------ ------ ---- -- French<br>------- --- ------ ----- --- ---- ------- -- ---- --- --<br>------- ------,121737.40000152588,121736.60000038147,121244.403,121257.70000076294,121261.074,121744.335,,42,French
screen,html.Screen,0_2_1_1_43,2022-05-09T11:37:02.877Z,,,,,,,,,,,,,,,,54,,,,,,,,,,,,,,1032.2650003814633,,response,,,100,,,,,,Space,keypress(Space),,,,,-- --- ---- --- ------ ----- ------- ---- -- --- ------- --<br>------- ---------- ------ -- ----- -- ----- -- ---- ------<br>--- ----- --- --- ------ -------- ----- --- ------ ----- --<br>----- ----- ---------- --- --- ------ ------ ---- -- ------<br>credit. --- ------ ----- --- ---- ------- -- ---- --- --<br>------- ------,122777.5,122776.60000038147,121727.667,121737.70000076294,121744.335,122794.571,,43,credit.
screen,html.Screen,0_2_1_1_44,2022-05-09T11:37:03.237Z,,,,,,,,,,,,,,,,54,,,,,,,,,,,,,,341.9290000000037,,response,,,100,,,,,,Space,keypress(Space),,,,,-- --- ---- --- ------ ----- ------- ---- -- --- ------- --<br>------- ---------- ------ -- ----- -- ----- -- ---- ------<br>--- ----- --- --- ------ -------- ----- --- ------ ----- --<br>----- ----- ---------- --- --- ------ ------ ---- -- ------<br>------- The ------ ----- --- ---- ------- -- ---- --- --<br>------- ------,123137.40000152588,123136.5,122777.902,122777.60000038147,122794.571,123144.783,,44,The
screen,html.Screen,0_2_1_1_45,2022-05-09T11:37:03.693Z,,,,,,,,,,,,,,,,54,,,,,,,,,,,,,,447.7170000000042,,response,,,100,,,,,,Space,keypress(Space),,,,,-- --- ---- --- ------ ----- ------- ---- -- --- ------- --<br>------- ---------- ------ -- ----- -- ----- -- ---- ------<br>--- ----- --- --- ------ -------- ----- --- ------ ----- --<br>----- ----- ---------- --- --- ------ ------ ---- -- ------<br>------- --- French ----- --- ---- ------- -- ---- --- --<br>------- ------,123593.30000114441,123592.5,123128.113,123137.60000038147,123144.783,123594.908,,45,French
screen,html.Screen,0_2_1_1_46,2022-05-09T11:37:04.093Z,,,,,,,,,,,,,,,,54,,,,,,,,,,,,,,397.4920015258831,,response,,,100,,,,,,Space,keypress(Space),,,,,-- --- ---- --- ------ ----- ------- ---- -- --- ------- --<br>------- ---------- ------ -- ----- -- ----- -- ---- ------<br>--- ----- --- --- ------ -------- ----- --- ------ ----- --<br>----- ----- ---------- --- --- ------ ------ ---- -- ------<br>------- --- ------ state --- ---- ------- -- ---- --- --<br>------- ------,123993.30000114441,123992.40000152588,123578.238,123593.60000038147,123594.908,123995.144,,46,state
screen,html.Screen,0_2_1_1_47,2022-05-09T11:37:04.429Z,,,,,,,,,,,,,,,,54,,,,,,,,,,,,,,333.35599999999977,,response,,,100,,,,,,Space,keypress(Space),,,,,-- --- ---- --- ------ ----- ------- ---- -- --- ------- --<br>------- ---------- ------ -- ----- -- ----- -- ---- ------<br>--- ----- --- --- ------ -------- ----- --- ------ ----- --<br>----- ----- ---------- --- --- ------ ------ ---- -- ------<br>------- --- ------ ----- was ---- ------- -- ---- --- --<br>------- ------,124329.30000114441,124328.5,123978.472,123993.5,123995.144,124345.006,,47,was
screen,html.Screen,0_2_1_1_48,2022-05-09T11:37:04.893Z,,,,,,,,,,,,,,,,54,,,,,,,,,,,,,,447.39400152588496,,response,,,100,,,,,,Space,keypress(Space),,,,,-- --- ---- --- ------ ----- ------- ---- -- --- ------- --<br>------- ---------- ------ -- ----- -- ----- -- ---- ------<br>--- ----- --- --- ------ -------- ----- --- ------ ----- --<br>----- ----- ---------- --- --- ------ ------ ---- -- ------<br>------- --- ------ ----- --- left ------- -- ---- --- --<br>------- ------,124793.20000076294,124792.40000152588,124328.338,124329.60000038147,124345.006,124795.322,,48,left
screen,html.Screen,0_2_1_1_49,2022-05-09T11:37:05.301Z,,,,,,,,,,,,,,,,54,,,,,,,,,,,,,,405.0780015258788,,response,,,100,,,,,,Space,keypress(Space),,,,,-- --- ---- --- ------ ----- ------- ---- -- --- ------- --<br>------- ---------- ------ -- ----- -- ----- -- ---- ------<br>--- ----- --- --- ------ -------- ----- --- ------ ----- --<br>----- ----- ---------- --- --- ------ ------ ---- -- ------<br>------- --- ------ ----- --- ---- without -- ---- --- --<br>------- ------,125201.20000076294,125200.40000152588,124778.65,124793.40000152588,124795.322,125212.017,,49,without
screen,html.Screen,0_2_1_1_50,2022-05-09T11:37:05.677Z,,,,,,,,,,,,,,,,54,,,,,,,,,,,,,,364.2830011444021,,response,,,100,,,,,,Space,keypress(Space),,,,,-- --- ---- --- ------ ----- ------- ---- -- --- ------- --<br>------- ---------- ------ -- ----- -- ----- -- ---- ------<br>--- ----- --- --- ------ -------- ----- --- ------ ----- --<br>----- ----- ---------- --- --- ------ ------ ---- -- ------<br>------- --- ------ ----- --- ---- ------- an ---- --- --<br>------- ------,125577.20000076294,125576.30000114441,125195.347,125201.40000152588,125212.017,125578.816,,50,an
screen,html.Screen,0_2_1_1_51,2022-05-09T11:37:06.069Z,,,,,,,,,,,,,,,,54,,,,,,,,,,,,,,389.58400152587274,,response,,,100,,,,,,Space,keypress(Space),,,,,-- --- ---- --- ------ ----- ------- ---- -- --- ------- --<br>------- ---------- ------ -- ----- -- ----- -- ---- ------<br>--- ----- --- --- ------ -------- ----- --- ------ ----- --<br>----- ----- ---------- --- --- ------ ------ ---- -- ------<br>------- --- ------ ----- --- ---- ------- -- easy --- --<br>------- ------,125969.20000076294,125968.40000152588,125562.145,125577.5,125578.816,125978.924,,51,easy
screen,html.Screen,0_2_1_1_52,2022-05-09T11:37:06.461Z,,,,,,,,,,,,,,,,54,,,,,,,,,,,,,,381.8760011444101,,response,,,100,,,,,,Space,keypress(Space),,,,,-- --- ---- --- ------ ----- ------- ---- -- --- ------- --<br>------- ---------- ------ -- ----- -- ----- -- ---- ------<br>--- ----- --- --- ------ -------- ----- --- ------ ----- --<br>----- ----- ---------- --- --- ------ ------ ---- -- ------<br>------- --- ------ ----- --- ---- ------- -- ---- way --<br>------- ------,126361.60000038147,126360.80000114441,125962.253,125969.40000152588,125978.924,126378.974,,52,way
screen,html.Screen,0_2_1_1_53,2022-05-09T11:37:06.861Z,,,,,,,,,,,,,,,,54,,,,,,,,,,,,,,381.3260011444072,,response,,,100,,,,,,Space,keypress(Space),,,,,-- --- ---- --- ------ ----- ------- ---- -- --- ------- --<br>------- ---------- ------ -- ----- -- ----- -- ---- ------<br>--- ----- --- --- ------ -------- ----- --- ------ ----- --<br>----- ----- ---------- --- --- ------ ------ ---- -- ------<br>------- --- ------ ----- --- ---- ------- -- ---- --- of<br>------- ------,126761.10000038147,126760.30000114441,126362.304,126361.80000114441,126378.974,126762.422,,53,of
screen,html.Screen,0_2_1_1_54,2022-05-09T11:37:07.261Z,,,,,,,,,,,,,,,,54,,,,,,,,,,,,,,397.87800114440324,,response,,,100,,,,,,Space,keypress(Space),,,,,-- --- ---- --- ------ ----- ------- ---- -- --- ------- --<br>------- ---------- ------ -- ----- -- ----- -- ---- ------<br>--- ----- --- --- ------ -------- ----- --- ------ ----- --<br>----- ----- ---------- --- --- ------ ------ ---- -- ------<br>------- --- ------ ----- --- ---- ------- -- ---- --- --<br>raising ------,127161.10000038147,127160.30000114441,126745.752,126761.30000114441,126762.422,127162.526,,54,raising
screen,html.Screen,0_2_1_1_55,2022-05-09T11:37:07.709Z,,,,,,,,,,,,,,,,54,,,,,,,,,,,,,,445.77400114441116,,response,,,100,,,,,,Space,keypress(Space),,,,,-- --- ---- --- ------ ----- ------- ---- -- --- ------- --<br>------- ---------- ------ -- ----- -- ----- -- ---- ------<br>--- ----- --- --- ------ -------- ----- --- ------ ----- --<br>----- ----- ---------- --- --- ------ ------ ---- -- ------<br>------- --- ------ ----- --- ---- ------- -- ---- --- --<br>------- money.,127609.10000038147,127608.30000114441,127145.856,127161.30000114441,127162.526,127612.613,,55,money.
Item 100,flow.Loop,0_2_1_1,2022-05-09T11:37:07.709Z,,,,,,,,,,,,,,,,,,,,,,,,,,,,,,35721.548001144416,,completion,,,,D,,,,,,,,,,silence,,127609.5,127608.30000114441,91870.082,91871.5,91886.752,127612.613,,,
Question 1,html.Screen,0_2_1_2,2022-05-09T11:37:15.495Z,,,,,,,,,,,,,,,,,,,,,,,,,,,true,TRUE,,7780.787001525881,,response,,,100,D,,,,,TRUE,click #choice-1,,,,silence,,135394.8000011444,135393.40000152588,127595.943,127609.70000076294,127612.613,135414.671,,,
Question 2,html.Screen,0_2_1_3,2022-05-09T11:37:17.450Z,,,,,,,,,,,,,,,,,,,,,,,,,,,true,FALSE,,1933.9290003814676,,response,,,100,D,,,,,FALSE,click #choice-2,,,,silence,,137350,137348.60000038147,135381.329,135395.3000011444,135414.671,137365.115,,,
Item 100,flow.Sequence,0_2_1,2022-05-09T11:37:17.450Z,,,,,,,,,,,,,,,,,,,,,,,,,,,,,,55464.27400038147,,completion,,,,,,,,,,,,,,,,137350.5,137348.60000038147,81867.656,81876.90000152588,81884.326,137365.115,,,
End of Practice,html.Page,0_2_2,2022-05-09T11:37:21.537Z,,,,,,,,,,,,,,,,,,,,,,,,,,,,,,4071.8850000000093,,form submission,,,,,,,,,,,,,,,,141437.60000038147,141437,137348.445,137350.70000076294,137365.115,141449.991,,,
Practice,flow.Sequence,0_2,2022-05-09T11:37:21.538Z,,,,,,,,,,,,,,,,,,,,,,,,,,,,,,104380.68,,completion,,,,,,,,,,,,,,,,141438,141437,37039.649,37045.40000152588,37056.32,141449.991,,,
Trap_instruction,html.Page,0_3_0,2022-05-09T11:37:25.672Z,,,,,,,,,,,,,,,,,,,,,,,,,,,,,,4121.90900152587,,form submission,,,,,,,,,,,,,,,,145572.5,145571.90000152588,141433.303,141438.3000011444,141449.991,145633.549,,,
trap_trial,html.Screen,0_3_1,2022-05-09T11:37:28.987Z,,,,,,,,,,,,,,,,,,,,,,,,,,,true,1,,3252.35100152588,,response,,,,,,,,,1,click #choice-1,,,,,,148887.10000038147,148885.90000152588,145566.877,145572.90000152588,145633.549,148893.296,,,
end of trap trial,html.Page,0_3_2,2022-05-09T11:37:30.745Z,,,,,,,,,,,,,,,,,,,,,,,,,,,,,,1751.1040015258768,,form submission,,,,,,,,,,,,,,,,150644.90000152588,150644.40000152588,148876.668,148887.40000152588,148893.296,150651.772,,,
Trap 1,flow.Sequence,0_3,2022-05-09T11:37:30.745Z,,,,,,,,,,,,,,,,,,,,,,,,,,,,,,9194.40900152587,,completion,,,,,,,,,,,,,,,,150645.40000152588,150644.40000152588,141433.303,141438.20000076294,141449.991,150651.772,,,
Standby,html.Page,0_4_0,2022-05-09T11:37:38.739Z,,,,,,,,,,,,,,,,,,,,,,,,,,,,,,8002.157999999996,,timeout,,,,,,,,,,,,,,,,158639.20000076294,158637.259,150635.102,150645.70000076294,150651.772,158653.93,,,
Holding screen,html.Screen,0_4_1_0_0,2022-05-09T11:37:45.739Z,,,,,,,,,,,,,,,,,,,,,,,,,,,,,,7001.518000000011,,timeout,,,,,,,,,,,,,,,,165639.70000076294,165638.779,158637.259,158639.60000038147,158653.93,165655.448,,,
screen,html.Screen,0_4_1_0_1_0,2022-05-09T11:37:47.370Z,,,,,,,,,,,,,,,,51,,,,,,,,,,,,,,1614.3520011444052,,response,,,13,D,,,,,Space,keypress(Space),,,,silence,American -------- --- --- ---- --- --- ------ -- --------<br>---- --------- --- ------- ------------ ---------- ---------<br>--- ---------- ------- ---------- ------- -- -------- ----<br>---- --- ------ ----- ------ -- ---- --- ----- -- - -------<br>-------- -- --- --- -- ----- ----------- ----- -----------<br>---- --- ---------- --- ---- --- -- ----------,167270.3000011444,167269.8000011444,165638.779,165639.90000152588,165655.448,167272.737,,0,American
screen,html.Screen,0_4_1_0_1_1,2022-05-09T11:37:48.026Z,,,,,,,,,,,,,,,,51,,,,,,,,,,,,,,652.9630007629457,,response,,,13,D,,,,,Space,keypress(Space),,,,silence,-------- industry --- --- ---- --- --- ------ -- --------<br>---- --------- --- ------- ------------ ---------- ---------<br>--- ---------- ------- ---------- ------- -- -------- ----<br>---- --- ------ ----- ------ -- ---- --- ----- -- - -------<br>-------- -- --- --- -- ----- ----------- ----- -----------<br>---- --- ---------- --- ---- --- -- ----------,167926.40000152588,167925.70000076294,167256.066,167270.5,167272.737,167939.354,,1,industry
screen,html.Screen,0_4_1_0_1_2,2022-05-09T11:37:48.546Z,,,,,,,,,,,,,,,,51,,,,,,,,,,,,,,506.4460011444171,,response,,,13,D,,,,,Space,keypress(Space),,,,silence,-------- -------- may --- ---- --- --- ------ -- --------<br>---- --------- --- ------- ------------ ---------- ---------<br>--- ---------- ------- ---------- ------- -- -------- ----<br>---- --- ------ ----- ------ -- ---- --- ----- -- - -------<br>-------- -- --- --- -- ----- ----------- ----- -----------<br>---- --- ---------- --- ---- --- -- ----------,168446.70000076294,168445.8000011444,167922.685,167926.60000038147,167939.354,168456.391,,2,may
screen,html.Screen,0_4_1_0_1_3,2022-05-09T11:37:48.954Z,,,,,,,,,,,,,,,,51,,,,,,,,,,,,,,397.3090007629362,,response,,,13,D,,,,,Space,keypress(Space),,,,silence,-------- -------- --- not ---- --- --- ------ -- --------<br>---- --------- --- ------- ------------ ---------- ---------<br>--- ---------- ------- ---------- ------- -- -------- ----<br>---- --- ------ ----- ------ -- ---- --- ----- -- - -------<br>-------- -- --- --- -- ----- ----------- ----- -----------<br>---- --- ---------- --- ---- --- -- ----------,168854.60000038147,168853.70000076294,168439.72,168447,168456.391,168856.347,,3,not
screen,html.Screen,0_4_1_0_1_4,2022-05-09T11:37:49.338Z,,,,,,,,,,,,,,,,51,,,,,,,,,,,,,,381.45300114440033,,response,,,13,D,,,,,Space,keypress(Space),,,,silence,-------- -------- --- --- know --- --- ------ -- --------<br>---- --------- --- ------- ------------ ---------- ---------<br>--- ---------- ------- ---------- ------- -- -------- ----<br>---- --- ------ ----- ------ -- ---- --- ----- -- - -------<br>-------- -- --- --- -- ----- ----------- ----- -----------<br>---- --- ---------- --- ---- --- -- ----------,169238.60000038147,169237.8000011444,168839.678,168854.8000011444,168856.347,169239.954,,4,know
screen,html.Screen,0_4_1_0_1_5,2022-05-09T11:37:50.570Z,,,,,,,,,,,,,,,,51,,,,,,,,,,,,,,1229.7460007629415,,response,,,13,D,,,,,Space,keypress(Space),,,,silence,"-------- -------- --- --- ---- it, --- ------ -- --------<br>---- --------- --- ------- ------------ ---------- ---------<br>--- ---------- ------- ---------- ------- -- -------- ----<br>---- --- ------ ----- ------ -- ---- --- ----- -- - -------<br>-------- -- --- --- -- ----- ----------- ----- -----------<br>---- --- ---------- --- ---- --- -- ----------",170470.5,170469.70000076294,169223.282,169238.8000011444,169239.954,170473.578,,5,"it,"
screen,html.Screen,0_4_1_0_1_6,2022-05-09T11:37:50.978Z,,,,,,,,,,,,,,,,51,,,,,,,,,,,,,,404.0220003814611,,response,,,13,D,,,,,Space,keypress(Space),,,,silence,-------- -------- --- --- ---- --- but ------ -- --------<br>---- --------- --- ------- ------------ ---------- ---------<br>--- ---------- ------- ---------- ------- -- -------- ----<br>---- --- ------ ----- ------ -- ---- --- ----- -- - -------<br>-------- -- --- --- -- ----- ----------- ----- -----------<br>---- --- ---------- --- ---- --- -- ----------,170878.60000038147,170877.60000038147,170456.907,170470.8000011444,170473.578,170890.039,,6,but
screen,html.Screen,0_4_1_0_1_7,2022-05-09T11:37:51.554Z,,,,,,,,,,,,,,,,51,,,,,,,,,,,,,,563.6610007629497,,response,,,13,D,,,,,Space,keypress(Space),,,,silence,-------- -------- --- --- ---- --- --- debate -- --------<br>---- --------- --- ------- ------------ ---------- ---------<br>--- ---------- ------- ---------- ------- -- -------- ----<br>---- --- ------ ----- ------ -- ---- --- ----- -- - -------<br>-------- -- --- --- -- ----- ----------- ----- -----------<br>---- --- ---------- --- ---- --- -- ----------,171454.5,171453.70000076294,170873.371,170878.90000152588,170890.039,171457.045,,7,debate
screen,html.Screen,0_4_1_0_1_8,2022-05-09T11:37:51.890Z,,,,,,,,,,,,,,,,51,,,,,,,,,,,,,,332.65500076292665,,response,,,13,D,,,,,Space,keypress(Space),,,,silence,-------- -------- --- --- ---- --- --- ------ in --------<br>---- --------- --- ------- ------------ ---------- ---------<br>--- ---------- ------- ---------- ------- -- -------- ----<br>---- --- ------ ----- ------ -- ---- --- ----- -- - -------<br>-------- -- --- --- -- ----- ----------- ----- -----------<br>---- --- ---------- --- ---- --- -- ----------,171790.5,171789.70000076294,171440.375,171454.8000011444,171457.045,171807.206,,8,in
screen,html.Screen,0_4_1_0_1_9,2022-05-09T11:37:52.938Z,,,,,,,,,,,,,,,,51,,,,,,,,,,,,,,1030.4940007629339,,response,,,13,D,,,,,Space,keypress(Space),,,,silence,-------- -------- --- --- ---- --- --- ------ -- Congress<br>---- --------- --- ------- ------------ ---------- ---------<br>--- ---------- ------- ---------- ------- -- -------- ----<br>---- --- ------ ----- ------ -- ---- --- ----- -- - -------<br>-------- -- --- --- -- ----- ----------- ----- -----------<br>---- --- ---------- --- ---- --- -- ----------,172838.40000152588,172837.70000076294,171790.535,171790.8000011444,171807.206,172840.85,,9,Congress
screen,html.Screen,0_4_1_0_1_10,2022-05-09T11:37:53.490Z,,,,,,,,,,,,,,,,51,,,,,,,,,,,,,,548.7500003814639,,response,,,13,D,,,,,Space,keypress(Space),,,,silence,-------- -------- --- --- ---- --- --- ------ -- --------<br>over --------- --- ------- ------------ ---------- ---------<br>--- ---------- ------- ---------- ------- -- -------- ----<br>---- --- ------ ----- ------ -- ---- --- ----- -- - -------<br>-------- -- --- --- -- ----- ----------- ----- -----------<br>---- --- ---------- --- ---- --- -- ----------,173390.40000152588,173389.60000038147,172824.179,172838.70000076294,172840.85,173407.681,,10,over
screen,html.Screen,0_4_1_0_1_11,2022-05-09T11:37:54.042Z,,,,,,,,,,,,,,,,51,,,,,,,,,,,,,,533.9190003814583,,response,,,13,D,,,,,Space,keypress(Space),,,,silence,-------- -------- --- --- ---- --- --- ------ -- --------<br>---- reforming --- ------- ------------ ---------- ---------<br>--- ---------- ------- ---------- ------- -- -------- ----<br>---- --- ------ ----- ------ -- ---- --- ----- -- - -------<br>-------- -- --- --- -- ----- ----------- ----- -----------<br>---- --- ---------- --- ---- --- -- ----------,173942.5,173941.60000038147,173391.01,173390.60000038147,173407.681,173957.724,,11,reforming
screen,html.Screen,0_4_1_0_1_12,2022-05-09T11:37:54.410Z,,,,,,,,,,,,,,,,51,,,,,,,,,,,,,,351.7760000000126,,response,,,13,D,,,,,Space,keypress(Space),,,,silence,-------- -------- --- --- ---- --- --- ------ -- --------<br>---- --------- the ------- ------------ ---------- ---------<br>--- ---------- ------- ---------- ------- -- -------- ----<br>---- --- ------ ----- ------ -- ---- --- ----- -- - -------<br>-------- -- --- --- -- ----- ----------- ----- -----------<br>---- --- ---------- --- ---- --- -- ----------,174310.3000011444,174309.5,173941.054,173942.60000038147,173957.724,174324.542,,12,the
screen,html.Screen,0_4_1_0_1_13,2022-05-09T11:37:54.818Z,,,,,,,,,,,,,,,,51,,,,,,,,,,,,,,392.95800000001327,,response,,,13,D,,,,,Space,keypress(Space),,,,silence,-------- -------- --- --- ---- --- --- ------ -- --------<br>---- --------- --- federal ------------ ---------- ---------<br>--- ---------- ------- ---------- ------- -- -------- ----<br>---- --- ------ ----- ------ -- ---- --- ----- -- - -------<br>-------- -- --- --- -- ----- ----------- ----- -----------<br>---- --- ---------- --- ---- --- -- ----------,174718.3000011444,174717.5,174307.871,174310.60000038147,174324.542,174724.614,,13,federal
screen,html.Screen,0_4_1_0_1_14,2022-05-09T11:37:55.378Z,,,,,,,,,,,,,,,,51,,,,,,,,,,,,,,552.7860015258775,,response,,,13,D,,,,,Space,keypress(Space),,,,silence,-------- -------- --- --- ---- --- --- ------ -- --------<br>---- --------- --- ------- government's ---------- ---------<br>--- ---------- ------- ---------- ------- -- -------- ----<br>---- --- ------ ----- ------ -- ---- --- ----- -- - -------<br>-------- -- --- --- -- ----- ----------- ----- -----------<br>---- --- ---------- --- ---- --- -- ----------,175278.20000076294,175277.40000152588,174707.944,174718.5,174724.614,175291.26,,14,government's
screen,html.Screen,0_4_1_0_1_15,2022-05-09T11:37:55.994Z,,,,,,,,,,,,,,,,51,,,,,,,,,,,,,,602.2399999999907,,response,,,13,D,,,,,Space,keypress(Space),,,,silence,-------- -------- --- --- ---- --- --- ------ -- --------<br>---- --------- --- ------- ------------ regulatory ---------<br>--- ---------- ------- ---------- ------- -- -------- ----<br>---- --- ------ ----- ------ -- ---- --- ----- -- - -------<br>-------- -- --- --- -- ----- ----------- ----- -----------<br>---- --- ---------- --- ---- --- -- ----------,175894.3000011444,175893.5,175274.592,175278.5,175291.26,175908.363,,15,regulatory
screen,html.Screen,0_4_1_0_1_16,2022-05-09T11:37:56.402Z,,,,,,,,,,,,,,,,51,,,,,,,,,,,,,,393.0370015258668,,response,,,13,D,,,,,Space,keypress(Space),,,,silence,-------- -------- --- --- ---- --- --- ------ -- --------<br>---- --------- --- ------- ------------ ---------- apparatus<br>--- ---------- ------- ---------- ------- -- -------- ----<br>---- --- ------ ----- ------ -- ---- --- ----- -- - -------<br>-------- -- --- --- -- ----- ----------- ----- -----------<br>---- --- ---------- --- ---- --- -- ----------,176302.3000011444,176301.40000152588,175891.691,175894.5,175908.363,176308.361,,16,apparatus
screen,html.Screen,0_4_1_0_1_17,2022-05-09T11:37:56.986Z,,,,,,,,,,,,,,,,51,,,,,,,,,,,,,,577.0390015258745,,response,,,13,D,,,,,Space,keypress(Space),,,,silence,-------- -------- --- --- ---- --- --- ------ -- --------<br>---- --------- --- ------- ------------ ---------- ---------<br>may ---------- ------- ---------- ------- -- -------- ----<br>---- --- ------ ----- ------ -- ---- --- ----- -- - -------<br>-------- -- --- --- -- ----- ----------- ----- -----------<br>---- --- ---------- --- ---- --- -- ----------,176886.20000076294,176885.40000152588,176291.691,176302.5,176308.361,176891.833,,17,may
screen,html.Screen,0_4_1_0_1_18,2022-05-09T11:37:57.738Z,,,,,,,,,,,,,,,,51,,,,,,,,,,,,,,746.0670015258656,,response,,,13,D,,,,,Space,keypress(Space),,,,silence,-------- -------- --- --- ---- --- --- ------ -- --------<br>---- --------- --- ------- ------------ ---------- ---------<br>--- profoundly ------- ---------- ------- -- -------- ----<br>---- --- ------ ----- ------ -- ---- --- ----- -- - -------<br>-------- -- --- --- -- ----- ----------- ----- -----------<br>---- --- ---------- --- ---- --- -- ----------,177638.70000076294,177637.90000152588,176875.163,176886.5,176891.833,177641.999,,18,profoundly
screen,html.Screen,0_4_1_0_1_19,2022-05-09T11:37:58.498Z,,,,,,,,,,,,,,,,51,,,,,,,,,,,,,,755.3010011443985,,response,,,13,D,,,,,Space,keypress(Space),,,,silence,-------- -------- --- --- ---- --- --- ------ -- --------<br>---- --------- --- ------- ------------ ---------- ---------<br>--- ---------- improve ---------- ------- -- -------- ----<br>---- --- ------ ----- ------ -- ---- --- ----- -- - -------<br>-------- -- --- --- -- ----- ----------- ----- -----------<br>---- --- ---------- --- ---- --- -- ----------,178398.20000076294,178397.3000011444,177625.329,177639,177641.999,178408.711,,19,improve
screen,html.Screen,0_4_1_0_1_20,2022-05-09T11:37:58.946Z,,,,,,,,,,,,,,,,51,,,,,,,,,,,,,,436.4890007629292,,response,,,13,D,,,,,Space,keypress(Space),,,,silence,-------- -------- --- --- ---- --- --- ------ -- --------<br>---- --------- --- ------- ------------ ---------- ---------<br>--- ---------- ------- companies' ------- -- -------- ----<br>---- --- ------ ----- ------ -- ---- --- ----- -- - -------<br>-------- -- --- --- -- ----- ----------- ----- -----------<br>---- --- ---------- --- ---- --- -- ----------,178846,178845.20000076294,178392.042,178398.40000152588,178408.711,178859.063,,20,companies'
screen,html.Screen,0_4_1_0_1_21,2022-05-09T11:37:59.402Z,,,,,,,,,,,,,,,,51,,,,,,,,,,,,,,442.23700114441453,,response,,,13,D,,,,,Space,keypress(Space),,,,silence,-------- -------- --- --- ---- --- --- ------ -- --------<br>---- --------- --- ------- ------------ ---------- ---------<br>--- ---------- ------- ---------- ability -- -------- ----<br>---- --- ------ ----- ------ -- ---- --- ----- -- - -------<br>-------- -- --- --- -- ----- ----------- ----- -----------<br>---- --- ---------- --- ---- --- -- ----------,179302.20000076294,179301.3000011444,178842.392,178846.3000011444,178859.063,179309.12,,21,ability
screen,html.Screen,0_4_1_0_1_22,2022-05-09T11:37:59.762Z,,,,,,,,,,,,,,,,51,,,,,,,,,,,,,,352.18000114441384,,response,,,13,D,,,,,Space,keypress(Space),,,,silence,-------- -------- --- --- ---- --- --- ------ -- --------<br>---- --------- --- ------- ------------ ---------- ---------<br>--- ---------- ------- ---------- ------- to -------- ----<br>---- --- ------ ----- ------ -- ---- --- ----- -- - -------<br>-------- -- --- --- -- ----- ----------- ----- -----------<br>---- --- ---------- --- ---- --- -- ----------,179662.10000038147,179661.3000011444,179292.45,179302.40000152588,179309.12,179675.737,,22,to
screen,html.Screen,0_4_1_0_1_23,2022-05-09T11:38:00.909Z,,,,,,,,,,,,,,,,51,,,,,,,,,,,,,,1129.363000381476,,response,,,13,D,,,,,Space,keypress(Space),,,,silence,-------- -------- --- --- ---- --- --- ------ -- --------<br>---- --------- --- ------- ------------ ---------- ---------<br>--- ---------- ------- ---------- ------- -- survive. ----<br>---- --- ------ ----- ------ -- ---- --- ----- -- - -------<br>-------- -- --- --- -- ----- ----------- ----- -----------<br>---- --- ---------- --- ---- --- -- ----------,180806,180805.10000038147,179659.069,179662.40000152588,179675.737,180809.619,,23,survive.
screen,html.Screen,0_4_1_0_1_24,2022-05-09T11:38:01.429Z,,,,,,,,,,,,,,,,51,,,,,,,,,,,,,,515.5810007629334,,response,,,13,D,,,,,Space,keypress(Space),,,,silence,-------- -------- --- --- ---- --- --- ------ -- --------<br>---- --------- --- ------- ------------ ---------- ---------<br>--- ---------- ------- ---------- ------- -- -------- This<br>---- --- ------ ----- ------ -- ---- --- ----- -- - -------<br>-------- -- --- --- -- ----- ----------- ----- -----------<br>---- --- ---------- --- ---- --- -- ----------,181326.10000038147,181325.20000076294,180792.947,180806.3000011444,180809.619,181342.949,,24,This
screen,html.Screen,0_4_1_0_1_25,2022-05-09T11:38:02.741Z,,,,,,,,,,,,,,,,51,,,,,,,,,,,,,,1294.1510003814765,,response,,,13,D,,,,,Space,keypress(Space),,,,silence,-------- -------- --- --- ---- --- --- ------ -- --------<br>---- --------- --- ------- ------------ ---------- ---------<br>--- ---------- ------- ---------- ------- -- -------- ----<br>week --- ------ ----- ------ -- ---- --- ----- -- - -------<br>-------- -- --- --- -- ----- ----------- ----- -----------<br>---- --- ---------- --- ---- --- -- ----------,182638,182637.10000038147,181326.279,181326.3000011444,181342.949,182643.083,,25,week
screen,html.Screen,0_4_1_0_1_26,2022-05-09T11:38:03.213Z,,,,,,,,,,,,,,,,51,,,,,,,,,,,,,,466.01700038145646,,response,,,13,D,,,,,Space,keypress(Space),,,,silence,-------- -------- --- --- ---- --- --- ------ -- --------<br>---- --------- --- ------- ------------ ---------- ---------<br>--- ---------- ------- ---------- ------- -- -------- ----<br>---- the ------ ----- ------ -- ---- --- ----- -- - -------<br>-------- -- --- --- -- ----- ----------- ----- -----------<br>---- --- ---------- --- ---- --- -- ----------,183109.8000011444,183109.10000038147,182626.414,182638.20000076294,182643.083,183126.922,,26,the
screen,html.Screen,0_4_1_0_1_27,2022-05-09T11:38:03.989Z,,,,,,,,,,,,,,,,51,,,,,,,,,,,,,,758.0780000000086,,response,,,13,D,,,,,Space,keypress(Space),,,,silence,-------- -------- --- --- ---- --- --- ------ -- --------<br>---- --------- --- ------- ------------ ---------- ---------<br>--- ---------- ------- ---------- ------- -- -------- ----<br>---- --- Senate ----- ------ -- ---- --- ----- -- - -------<br>-------- -- --- --- -- ----- ----------- ----- -----------<br>---- --- ---------- --- ---- --- -- ----------,183886,183885,183110.249,183110.10000038147,183126.922,183893.592,,27,Senate
screen,html.Screen,0_4_1_0_1_28,2022-05-09T11:38:04.437Z,,,,,,,,,,,,,,,,51,,,,,,,,,,,,,,439.4079999999958,,response,,,13,D,,,,,Space,keypress(Space),,,,silence,-------- -------- --- --- ---- --- --- ------ -- --------<br>---- --------- --- ------- ------------ ---------- ---------<br>--- ---------- ------- ---------- ------- -- -------- ----<br>---- --- ------ seems ------ -- ---- --- ----- -- - -------<br>-------- -- --- --- -- ----- ----------- ----- -----------<br>---- --- ---------- --- ---- --- -- ----------,184333.8000011444,184333,183876.922,183886.20000076294,183893.592,184343.724,,28,seems
screen,html.Screen,0_4_1_0_1_29,2022-05-09T11:38:05.228Z,,,,,,,,,,,,,,,,51,,,,,,,,,,,,,,781.1760015258915,,response,,,13,D,,,,,Space,keypress(Space),,,,silence,-------- -------- --- --- ---- --- --- ------ -- --------<br>---- --------- --- ------- ------------ ---------- ---------<br>--- ---------- ------- ---------- ------- -- -------- ----<br>---- --- ------ ----- poised -- ---- --- ----- -- - -------<br>-------- -- --- --- -- ----- ----------- ----- -----------<br>---- --- ---------- --- ---- --- -- ----------,185125.70000076294,185124.90000152588,184327.054,184334,184343.724,185127.249,,29,poised
screen,html.Screen,0_4_1_0_1_30,2022-05-09T11:38:05.596Z,,,,,,,,,,,,,,,,51,,,,,,,,,,,,,,365.6510015258682,,response,,,13,D,,,,,Space,keypress(Space),,,,silence,-------- -------- --- --- ---- --- --- ------ -- --------<br>---- --------- --- ------- ------------ ---------- ---------<br>--- ---------- ------- ---------- ------- -- -------- ----<br>---- --- ------ ----- ------ to ---- --- ----- -- - -------<br>-------- -- --- --- -- ----- ----------- ----- -----------<br>---- --- ---------- --- ---- --- -- ----------,185493.70000076294,185492.90000152588,185110.579,185125.90000152588,185127.249,185510.661,,30,to
screen,html.Screen,0_4_1_0_1_31,2022-05-09T11:38:06.020Z,,,,,,,,,,,,,,,,51,,,,,,,,,,,,,,406.1390011444164,,response,,,13,D,,,,,Space,keypress(Space),,,,silence,-------- -------- --- --- ---- --- --- ------ -- --------<br>---- --------- --- ------- ------------ ---------- ---------<br>--- ---------- ------- ---------- ------- -- -------- ----<br>---- --- ------ ----- ------ -- join --- ----- -- - -------<br>-------- -- --- --- -- ----- ----------- ----- -----------<br>---- --- ---------- --- ---- --- -- ----------,185917.60000038147,185916.8000011444,185493.991,185493.90000152588,185510.661,185927.461,,31,join
screen,html.Screen,0_4_1_0_1_32,2022-05-09T11:38:06.404Z,,,,,,,,,,,,,,,,51,,,,,,,,,,,,,,373.33900114439894,,response,,,13,D,,,,,Space,keypress(Space),,,,silence,-------- -------- --- --- ---- --- --- ------ -- --------<br>---- --------- --- ------- ------------ ---------- ---------<br>--- ---------- ------- ---------- ------- -- -------- ----<br>---- --- ------ ----- ------ -- ---- the ----- -- - -------<br>-------- -- --- --- -- ----- ----------- ----- -----------<br>---- --- ---------- --- ---- --- -- ----------,186301.60000038147,186300.8000011444,185910.791,185917.90000152588,185927.461,186310.897,,32,the
screen,html.Screen,0_4_1_0_1_33,2022-05-09T11:38:06.884Z,,,,,,,,,,,,,,,,51,,,,,,,,,,,,,,469.903001144412,,response,,,13,D,,,,,Space,keypress(Space),,,,silence,-------- -------- --- --- ---- --- --- ------ -- --------<br>---- --------- --- ------- ------------ ---------- ---------<br>--- ---------- ------- ---------- ------- -- -------- ----<br>---- --- ------ ----- ------ -- ---- --- House -- - -------<br>-------- -- --- --- -- ----- ----------- ----- -----------<br>---- --- ---------- --- ---- --- -- ----------,186781.70000076294,186780.8000011444,186294.227,186301.8000011444,186310.897,186794.267,,33,House
screen,html.Screen,0_4_1_0_1_34,2022-05-09T11:38:07.268Z,,,,,,,,,,,,,,,,51,,,,,,,,,,,,,,370.53300114441663,,response,,,13,D,,,,,Space,keypress(Space),,,,silence,-------- -------- --- --- ---- --- --- ------ -- --------<br>---- --------- --- ------- ------------ ---------- ---------<br>--- ---------- ------- ---------- ------- -- -------- ----<br>---- --- ------ ----- ------ -- ---- --- ----- in - -------<br>-------- -- --- --- -- ----- ----------- ----- -----------<br>---- --- ---------- --- ---- --- -- ----------,187165.60000038147,187164.8000011444,186777.598,186781.90000152588,186794.267,187177.742,,34,in
screen,html.Screen,0_4_1_0_1_35,2022-05-09T11:38:07.540Z,,,,,,,,,,,,,,,,51,,,,,,,,,,,,,,259.0580011444108,,response,,,13,D,,,,,Space,keypress(Space),,,,silence,-------- -------- --- --- ---- --- --- ------ -- --------<br>---- --------- --- ------- ------------ ---------- ---------<br>--- ---------- ------- ---------- ------- -- -------- ----<br>---- --- ------ ----- ------ -- ---- --- ----- -- a -------<br>-------- -- --- --- -- ----- ----------- ----- -----------<br>---- --- ---------- --- ---- --- -- ----------,187437.70000076294,187436.8000011444,187161.072,187165.8000011444,187177.742,187444.613,,35,a
screen,html.Screen,0_4_1_0_1_36,2022-05-09T11:38:08.021Z,,,,,,,,,,,,,,,,51,,,,,,,,,,,,,,472.6870011443971,,response,,,13,D,,,,,Space,keypress(Space),,,,silence,-------- -------- --- --- ---- --- --- ------ -- --------<br>---- --------- --- ------- ------------ ---------- ---------<br>--- ---------- ------- ---------- ------- -- -------- ----<br>---- --- ------ ----- ------ -- ---- --- ----- -- - massive<br>-------- -- --- --- -- ----- ----------- ----- -----------<br>---- --- ---------- --- ---- --- -- ----------,187918,187917.3000011444,187427.941,187437.90000152588,187444.613,187927.926,,36,massive
screen,html.Screen,0_4_1_0_1_37,2022-05-09T11:38:08.676Z,,,,,,,,,,,,,,,,51,,,,,,,,,,,,,,644.7740007629327,,response,,,13,D,,,,,Space,keypress(Space),,,,silence,-------- -------- --- --- ---- --- --- ------ -- --------<br>---- --------- --- ------- ------------ ---------- ---------<br>--- ---------- ------- ---------- ------- -- -------- ----<br>---- --- ------ ----- ------ -- ---- --- ----- -- - -------<br>overhaul -- --- --- -- ----- ----------- ----- -----------<br>---- --- ---------- --- ---- --- -- ----------,188573.60000038147,188572.70000076294,187911.257,187918.3000011444,187927.926,188578.187,,37,overhaul
screen,html.Screen,0_4_1_0_1_38,2022-05-09T11:38:09.124Z,,,,,,,,,,,,,,,,51,,,,,,,,,,,,,,442.5130007629341,,response,,,13,D,,,,,Space,keypress(Space),,,,silence,-------- -------- --- --- ---- --- --- ------ -- --------<br>---- --------- --- ------- ------------ ---------- ---------<br>--- ---------- ------- ---------- ------- -- -------- ----<br>---- --- ------ ----- ------ -- ---- --- ----- -- - -------<br>-------- of --- --- -- ----- ----------- ----- -----------<br>---- --- ---------- --- ---- --- -- ----------,189021.60000038147,189020.70000076294,188561.516,188573.90000152588,188578.187,189028.24,,38,of
screen,html.Screen,0_4_1_0_1_39,2022-05-09T11:38:09.596Z,,,,,,,,,,,,,,,,51,,,,,,,,,,,,,,464.36000038147904,,response,,,13,D,,,,,Space,keypress(Space),,,,silence,-------- -------- --- --- ---- --- --- ------ -- --------<br>---- --------- --- ------- ------------ ---------- ---------<br>--- ---------- ------- ---------- ------- -- -------- ----<br>---- --- ------ ----- ------ -- ---- --- ----- -- - -------<br>-------- -- the --- -- ----- ----------- ----- -----------<br>---- --- ---------- --- ---- --- -- ----------,189493.5,189492.60000038147,189011.57,189021.8000011444,189028.24,189495.022,,39,the
screen,html.Screen,0_4_1_0_1_40,2022-05-09T11:38:11.092Z,,,,,,,,,,,,,,,,51,,,,,,,,,,,,,,1493.5780003814725,,response,,,13,D,,,,,Space,keypress(Space),,,,silence,-------- -------- --- --- ---- --- --- ------ -- --------<br>---- --------- --- ------- ------------ ---------- ---------<br>--- ---------- ------- ---------- ------- -- -------- ----<br>---- --- ------ ----- ------ -- ---- --- ----- -- - -------<br>-------- -- --- way -- ----- ----------- ----- -----------<br>---- --- ---------- --- ---- --- -- ----------,190989.40000152588,190988.60000038147,189478.352,189493.8000011444,189495.022,190995.36,,40,way
screen,html.Screen,0_4_1_0_1_41,2022-05-09T11:38:11.532Z,,,,,,,,,,,,,,,,51,,,,,,,,,,,,,,433.14000000001397,,response,,,13,D,,,,,Space,keypress(Space),,,,silence,-------- -------- --- --- ---- --- --- ------ -- --------<br>---- --------- --- ------- ------------ ---------- ---------<br>--- ---------- ------- ---------- ------- -- -------- ----<br>---- --- ------ ----- ------ -- ---- --- ----- -- - -------<br>-------- -- --- --- in ----- ----------- ----- -----------<br>---- --- ---------- --- ---- --- -- ----------,191429.40000152588,191428.5,190978.69,190989.70000076294,190995.36,191445.496,,41,in
screen,html.Screen,0_4_1_0_1_42,2022-05-09T11:38:12.444Z,,,,,,,,,,,,,,,,51,,,,,,,,,,,,,,895.0039999999863,,response,,,13,D,,,,,Space,keypress(Space),,,,silence,-------- -------- --- --- ---- --- --- ------ -- --------<br>---- --------- --- ------- ------------ ---------- ---------<br>--- ---------- ------- ---------- ------- -- -------- ----<br>---- --- ------ ----- ------ -- ---- --- ----- -- - -------<br>-------- -- --- --- -- which ----------- ----- -----------<br>---- --- ---------- --- ---- --- -- ----------,192341.40000152588,192340.5,191428.826,191429.60000038147,191445.496,192345.739,,42,which
screen,html.Screen,0_4_1_0_1_43,2022-05-09T11:38:13.148Z,,,,,,,,,,,,,,,,51,,,,,,,,,,,,,,698.7609999999986,,response,,,13,D,,,,,Space,keypress(Space),,,,silence,-------- -------- --- --- ---- --- --- ------ -- --------<br>---- --------- --- ------- ------------ ---------- ---------<br>--- ---------- ------- ---------- ------- -- -------- ----<br>---- --- ------ ----- ------ -- ---- --- ----- -- - -------<br>-------- -- --- --- -- ----- bureaucrats ----- -----------<br>---- --- ---------- --- ---- --- -- ----------,193045.3000011444,193044.5,192329.069,192341.60000038147,192345.739,193062.488,,43,bureaucrats
screen,html.Screen,0_4_1_0_1_44,2022-05-09T11:38:13.516Z,,,,,,,,,,,,,,,,51,,,,,,,,,,,,,,349.9120015258668,,response,,,13,D,,,,,Space,keypress(Space),,,,silence,-------- -------- --- --- ---- --- --- ------ -- --------<br>---- --------- --- ------- ------------ ---------- ---------<br>--- ---------- ------- ---------- ------- -- -------- ----<br>---- --- ------ ----- ------ -- ---- --- ----- -- - -------<br>-------- -- --- --- -- ----- ----------- enact -----------<br>---- --- ---------- --- ---- --- -- ----------,193413.3000011444,193412.40000152588,193045.819,193045.5,193062.488,193429.406,,44,enact
screen,html.Screen,0_4_1_0_1_45,2022-05-09T11:38:14.108Z,,,,,,,,,,,,,,,,51,,,,,,,,,,,,,,574.9940015258908,,response,,,13,D,,,,,Space,keypress(Space),,,,silence,-------- -------- --- --- ---- --- --- ------ -- --------<br>---- --------- --- ------- ------------ ---------- ---------<br>--- ---------- ------- ---------- ------- -- -------- ----<br>---- --- ------ ----- ------ -- ---- --- ----- -- - -------<br>-------- -- --- --- -- ----- ----------- ----- regulations<br>---- --- ---------- --- ---- --- -- ----------,194005.20000076294,194004.40000152588,193412.735,193413.5,193429.406,194012.84,,45,regulations
screen,html.Screen,0_4_1_0_1_46,2022-05-09T11:38:14.588Z,,,,,,,,,,,,,,,,51,,,,,,,,,,,,,,471.6600000000035,,response,,,13,D,,,,,Space,keypress(Space),,,,silence,-------- -------- --- --- ---- --- --- ------ -- --------<br>---- --------- --- ------- ------------ ---------- ---------<br>--- ---------- ------- ---------- ------- -- -------- ----<br>---- --- ------ ----- ------ -- ---- --- ----- -- - -------<br>-------- -- --- --- -- ----- ----------- ----- -----------<br>that --- ---------- --- ---- --- -- ----------,194485.5,194484.5,193996.17,194005.5,194012.84,194496.378,,46,that
screen,html.Screen,0_4_1_0_1_47,2022-05-09T11:38:14.972Z,,,,,,,,,,,,,,,,51,,,,,,,,,,,,,,371.9220011444122,,response,,,13,D,,,,,Space,keypress(Space),,,,silence,-------- -------- --- --- ---- --- --- ------ -- --------<br>---- --------- --- ------- ------------ ---------- ---------<br>--- ---------- ------- ---------- ------- -- -------- ----<br>---- --- ------ ----- ------ -- ---- --- ----- -- - -------<br>-------- -- --- --- -- ----- ----------- ----- -----------<br>---- are ---------- --- ---- --- -- ----------,194869.20000076294,194868.3000011444,194479.707,194485.70000076294,194496.378,194879.664,,47,are
screen,html.Screen,0_4_1_0_1_48,2022-05-09T11:38:15.700Z,,,,,,,,,,,,,,,,51,,,,,,,,,,,,,,716.7360015258892,,response,,,13,D,,,,,Space,keypress(Space),,,,silence,-------- -------- --- --- ---- --- --- ------ -- --------<br>---- --------- --- ------- ------------ ---------- ---------<br>--- ---------- ------- ---------- ------- -- -------- ----<br>---- --- ------ ----- ------ -- ---- --- ----- -- - -------<br>-------- -- --- --- -- ----- ----------- ----- -----------<br>---- --- strangling --- ---- --- -- ----------,195597.20000076294,195596.40000152588,194862.995,194869.5,194879.664,195613.327,,48,strangling
screen,html.Screen,0_4_1_0_1_49,2022-05-09T11:38:16.116Z,,,,,,,,,,,,,,,,51,,,,,,,,,,,,,,398.97300114441896,,response,,,13,D,,,,,Space,keypress(Space),,,,silence,-------- -------- --- --- ---- --- --- ------ -- --------<br>---- --------- --- ------- ------------ ---------- ---------<br>--- ---------- ------- ---------- ------- -- -------- ----<br>---- --- ------ ----- ------ -- ---- --- ----- -- - -------<br>-------- -- --- --- -- ----- ----------- ----- -----------<br>---- --- ---------- the ---- --- -- ----------,196013.10000038147,196012.3000011444,195596.656,195597.40000152588,195613.327,196029.838,,49,the
screen,html.Screen,0_4_1_0_1_50,2022-05-09T11:38:16.604Z,,,,,,,,,,,,,,,,51,,,,,,,,,,,,,,470.36200076295063,,response,,,13,D,,,,,Space,keypress(Space),,,,silence,-------- -------- --- --- ---- --- --- ------ -- --------<br>---- --------- --- ------- ------------ ---------- ---------<br>--- ---------- ------- ---------- ------- -- -------- ----<br>---- --- ------ ----- ------ -- ---- --- ----- -- - -------<br>-------- -- --- --- -- ----- ----------- ----- -----------<br>---- --- ---------- --- life --- -- ----------,196501.20000076294,196500.20000076294,196013.17,196013.3000011444,196029.838,196513.549,,50,life
