sender,sender_type,sender_id,timestamp,meta,,Blues,Classical,Country,Dance,Electronic,Folk,Gospel,Hip-Hop,Jazz,Latin,Musical/Film,New-age,Pop,Provo_ID,R&B,Rap,Reggae,Religious,Rock,Soul,Swing,Traditional,age,artist_name,correct,correctResponse,distraction,duration,education,ended_on,familiarity,gender,item,list,music_frequency,offensiveness,pleasantness,preference,response,response_action,snippet_file,song_name,song_rating,sound,text,time_commit,time_end,time_render,time_run,time_show,time_switch,url,word,word_ID
Instructions,html.Page,0_0,2022-05-09T11:35:52.547Z,"{""labjs_version"":""20.2.3"",""labjs_build"":{""flavor"":""production"",""commit"":""7ea907d66ca8aeef8054924ca5d82ffbe11e34e5""},""location"":""https://run.pavlovia.org/mvasilev/lab_music_d/"",""userAgent"":""Mozilla/5.0 (Windows NT 6.1; Win64; x64) AppleWebKit/537.36 (KHTML, like Gecko) Chrome/97.0.4692.71 Safari/537.36"",""platform"":""Win32"",""language"":""en-US"",""locale"":""en-US"",""timeZone"":""Europe/London"",""timezoneOffset"":-60,""screen_width"":1920,""screen_height"":1080,""scroll_width"":1920,""scroll_height"":959,""window_innerWidth"":1920,""window_innerHeight"":1007,""devicePixelRatio"":1}",,,,,,,,,,,,,,,,,,,,,,,,,,,,,49038.750999618525,,form submission,,,,,,,,,,,,,,,,70828.69999980927,70827.39999961853,20688.257,20987.699999809265,21788.649,70819.667,{},,
Headphones,html.Page,0_1,2022-05-09T11:35:55.608Z,,,,,,,,,,,,,,,,,,,,,,,,,,,,,,3069.232999618529,,form submission,,,,,,,,,,,,,,,,73889.5,73888.89999961853,70769.525,70829.39999961853,70819.667,73902.234,,,
Holding screen,html.Screen,0_2_0_0,2022-05-09T11:36:05.620Z,,,,,,,,,,,,,,,,,,,,,,,,,,,,,,10085.982000000004,,timeout,,,,,,,,,,,,,,,,83901.69999980927,83888.196,73885.564,73890,73902.234,83988.216,,,
screen,html.Screen,0_2_0_1_0,2022-05-09T11:36:06.872Z,,,,,,,,,,,,,,,,53,,,,,,,,,,,,,,1163.883999427795,,response,,,99,,,,,,Space,keypress(Space),,,,,When -- ----- -- ------ - ------- --- ----------<br>------------- ------ ------ ---- ---- ------- ----- -- ----<br>-------- ------- -- ---------- --- - --- ----- ----- ----<br>---- --- --- ----- --- ---- ---- ------- ----- ---- -------<br>--- --- -- ----- -- --- ---- -- --- ---- -- ------ ------<br>--- ----- -- ----,85153.5,85152.0999994278,83888.196,83902.0999994278,83988.216,85155.387,,0,When
screen,html.Screen,0_2_0_1_1,2022-05-09T11:36:07.711Z,,,,,,,,,,,,,,,,53,,,,,,,,,,,,,,836.212999427793,,response,,,99,,,,,,Space,keypress(Space),,,,,---- it ----- -- ------ - ------- --- ----------<br>------------- ------ ------ ---- ---- ------- ----- -- ----<br>-------- ------- -- ---------- --- - --- ----- ----- ----<br>---- --- --- ----- --- ---- ---- ------- ----- ---- -------<br>--- --- -- ----- -- --- ---- -- --- ---- -- ------ ------<br>--- ----- -- ----,85992.5999994278,85991.5999994278,85138.716,85153.89999961853,85155.387,86005.52,,1,it
screen,html.Screen,0_2_0_1_2,2022-05-09T11:36:08.678Z,,,,,,,,,,,,,,,,53,,,,,,,,,,,,,,953.6799998092611,,response,,,99,,,,,,Space,keypress(Space),,,,,---- -- comes -- ------ - ------- --- ----------<br>------------- ------ ------ ---- ---- ------- ----- -- ----<br>-------- ------- -- ---------- --- - --- ----- ----- ----<br>---- --- --- ----- --- ---- ---- ------- ----- ---- -------<br>--- --- -- ----- -- --- ---- -- --- ---- -- ------ ------<br>--- ----- -- ----,86959.69999980927,86959.19999980927,85988.85,85992.80000019073,86005.52,86972.519,,2,comes
screen,html.Screen,0_2_0_1_3,2022-05-09T11:36:09.214Z,,,,,,,,,,,,,,,,53,,,,,,,,,,,,,,522.6809998092649,,response,,,99,,,,,,Space,keypress(Space),,,,,---- -- ----- to ------ - ------- --- ----------<br>------------- ------ ------ ---- ---- ------- ----- -- ----<br>-------- ------- -- ---------- --- - --- ----- ----- ----<br>---- --- --- ----- --- ---- ---- ------- ----- ---- -------<br>--- --- -- ----- -- --- ---- -- --- ---- -- ------ ------<br>--- ----- -- ----,87495.69999980927,87495.19999980927,86955.848,86959.80000019073,86972.519,87505.916,,3,to
screen,html.Screen,0_2_0_1_4,2022-05-09T11:36:09.806Z,,,,,,,,,,,,,,,,53,,,,,,,,,,,,,,581.183999427798,,response,,,99,,,,,,Space,keypress(Space),,,,,---- -- ----- -- having - ------- --- ----------<br>------------- ------ ------ ---- ---- ------- ----- -- ----<br>-------- ------- -- ---------- --- - --- ----- ----- ----<br>---- --- --- ----- --- ---- ---- ------- ----- ---- -------<br>--- --- -- ----- -- --- ---- -- --- ---- -- ------ ------<br>--- ----- -- ----,88087.5999994278,88087.0999994278,87489.246,87495.80000019073,87505.916,88089.288,,4,having
screen,html.Screen,0_2_0_1_5,2022-05-09T11:36:10.342Z,,,,,,,,,,,,,,,,53,,,,,,,,,,,,,,534.0120001907344,,response,,,99,,,,,,Space,keypress(Space),,,,,---- -- ----- -- ------ a ------- --- ----------<br>------------- ------ ------ ---- ---- ------- ----- -- ----<br>-------- ------- -- ---------- --- - --- ----- ----- ----<br>---- --- --- ----- --- ---- ---- ------- ----- ---- -------<br>--- --- -- ----- -- --- ---- -- --- ---- -- ------ ------<br>--- ----- -- ----,88623.69999980927,88623.30000019073,88072.619,88087.69999980927,88089.288,88639.488,,5,a
screen,html.Screen,0_2_0_1_6,2022-05-09T11:36:11.078Z,,,,,,,,,,,,,,,,53,,,,,,,,,,,,,,719.5120000000024,,response,,,99,,,,,,Space,keypress(Space),,,,,---- -- ----- -- ------ - lasting --- ----------<br>------------- ------ ------ ---- ---- ------- ----- -- ----<br>-------- ------- -- ---------- --- - --- ----- ----- ----<br>---- --- --- ----- --- ---- ---- ------- ----- ---- -------<br>--- --- -- ----- -- --- ---- -- --- ---- -- ------ ------<br>--- ----- -- ----,89359.5,89359,88622.818,88623.89999961853,88639.488,89372.994,,6,lasting
screen,html.Screen,0_2_0_1_7,2022-05-09T11:36:11.765Z,,,,,,,,,,,,,,,,53,,,,,,,,,,,,,,674.005999999994,,response,,,99,,,,,,Space,keypress(Space),,,,,---- -- ----- -- ------ - ------- and ----------<br>------------- ------ ------ ---- ---- ------- ----- -- ----<br>-------- ------- -- ---------- --- - --- ----- ----- ----<br>---- --- --- ----- --- ---- ---- ------- ----- ---- -------<br>--- --- -- ----- -- --- ---- -- --- ---- -- ------ ------<br>--- ----- -- ----,90047.30000019073,90047,89356.324,89359.5999994278,89372.994,90056.637,,7,and
screen,html.Screen,0_2_0_1_8,2022-05-09T11:36:12.542Z,,,,,,,,,,,,,,,,53,,,,,,,,,,,,,,766.5629998092627,,response,,,99,,,,,,Space,keypress(Space),,,,,---- -- ----- -- ------ - ------- --- fulfilling<br>------------- ------ ------ ---- ---- ------- ----- -- ----<br>-------- ------- -- ---------- --- - --- ----- ----- ----<br>---- --- --- ----- --- ---- ---- ------- ----- ---- -------<br>--- --- -- ----- -- --- ---- -- --- ---- -- ------ ------<br>--- ----- -- ----,90824.19999980927,90823.19999980927,90039.965,90047.30000019073,90056.637,90839.992,,8,fulfilling
screen,html.Screen,0_2_0_1_9,2022-05-09T11:36:14.142Z,,,,,,,,,,,,,,,,53,,,,,,,,,,,,,,1583.0080000000016,,response,,,99,,,,,,Space,keypress(Space),,,,,"---- -- ----- -- ------ - ------- --- ----------<br>relationship, ------ ------ ---- ---- ------- ----- -- ----<br>-------- ------- -- ---------- --- - --- ----- ----- ----<br>---- --- --- ----- --- ---- ---- ------- ----- ---- -------<br>--- --- -- ----- -- --- ---- -- --- ---- -- ------ ------<br>--- ----- -- ----",92423.5,92423,90823.323,90824.5,90839.992,92440.445,,9,"relationship,"
screen,html.Screen,0_2_0_1_10,2022-05-09T11:36:14.878Z,,,,,,,,,,,,,,,,53,,,,,,,,,,,,,,718.6549994277884,,response,,,99,,,,,,Space,keypress(Space),,,,,---- -- ----- -- ------ - ------- --- ----------<br>------------- common ------ ---- ---- ------- ----- -- ----<br>-------- ------- -- ---------- --- - --- ----- ----- ----<br>---- --- --- ----- --- ---- ---- ------- ----- ---- -------<br>--- --- -- ----- -- --- ---- -- --- ---- -- ------ ------<br>--- ----- -- ----,93160.19999980927,93159.0999994278,92423.775,92423.69999980927,92440.445,93173.93,,10,common
screen,html.Screen,0_2_0_1_11,2022-05-09T11:36:15.405Z,,,,,,,,,,,,,,,,53,,,,,,,,,,,,,,512.9699996185373,,response,,,99,,,,,,Space,keypress(Space),,,,,---- -- ----- -- ------ - ------- --- ----------<br>------------- ------ wisdom ---- ---- ------- ----- -- ----<br>-------- ------- -- ---------- --- - --- ----- ----- ----<br>---- --- --- ----- --- ---- ---- ------- ----- ---- -------<br>--- --- -- ----- -- --- ---- -- --- ---- -- ------ ------<br>--- ----- -- ----,93687.30000019073,93686.89999961853,93157.26,93160.5,93173.93,93690.891,,11,wisdom
screen,html.Screen,0_2_0_1_12,2022-05-09T11:36:15.990Z,,,,,,,,,,,,,,,,53,,,,,,,,,,,,,,580.008999618527,,response,,,99,,,,,,Space,keypress(Space),,,,,---- -- ----- -- ------ - ------- --- ----------<br>------------- ------ ------ says ---- ------- ----- -- ----<br>-------- ------- -- ---------- --- - --- ----- ----- ----<br>---- --- --- ----- --- ---- ---- ------- ----- ---- -------<br>--- --- -- ----- -- --- ---- -- --- ---- -- ------ ------<br>--- ----- -- ----,94271.30000019073,94270.89999961853,93674.22,93687.30000019073,93690.891,94274.296,,12,says
screen,html.Screen,0_2_0_1_13,2022-05-09T11:36:16.565Z,,,,,,,,,,,,,,,,53,,,,,,,,,,,,,,572.5040001907328,,response,,,99,,,,,,Space,keypress(Space),,,,,---- -- ----- -- ------ - ------- --- ----------<br>------------- ------ ------ ---- that ------- ----- -- ----<br>-------- ------- -- ---------- --- - --- ----- ----- ----<br>---- --- --- ----- --- ---- ---- ------- ----- ---- -------<br>--- --- -- ----- -- --- ---- -- --- ---- -- ------ ------<br>--- ----- -- ----,94847,94846.80000019073,94257.626,94271.5,94274.296,94857.848,,13,that
screen,html.Screen,0_2_0_1_14,2022-05-09T11:36:17.181Z,,,,,,,,,,,,,,,,53,,,,,,,,,,,,,,604.9520001907367,,response,,,99,,,,,,Space,keypress(Space),,,,,---- -- ----- -- ------ - ------- --- ----------<br>------------- ------ ------ ---- ---- feeling ----- -- ----<br>-------- ------- -- ---------- --- - --- ----- ----- ----<br>---- --- --- ----- --- ---- ---- ------- ----- ---- -------<br>--- --- -- ----- -- --- ---- -- --- ---- -- ------ ------<br>--- ----- -- ----,95463.19999980927,95462.80000019073,94841.177,94847.19999980927,94857.848,95474.616,,14,feeling
screen,html.Screen,0_2_0_1_15,2022-05-09T11:36:17.757Z,,,,,,,,,,,,,,,,53,,,,,,,,,,,,,,564.0839998092706,,response,,,99,,,,,,Space,keypress(Space),,,,,---- -- ----- -- ------ - ------- --- ----------<br>------------- ------ ------ ---- ---- ------- close -- ----<br>-------- ------- -- ---------- --- - --- ----- ----- ----<br>---- --- --- ----- --- ---- ---- ------- ----- ---- -------<br>--- --- -- ----- -- --- ---- -- --- ---- -- ------ ------<br>--- ----- -- ----,96039,96038.69999980927,95457.946,95463.19999980927,95474.616,96041.482,,15,close
screen,html.Screen,0_2_0_1_16,2022-05-09T11:36:18.382Z,,,,,,,,,,,,,,,,53,,,,,,,,,,,,,,621.5179999999964,,response,,,99,,,,,,Space,keypress(Space),,,,,---- -- ----- -- ------ - ------- --- ----------<br>------------- ------ ------ ---- ---- ------- ----- to ----<br>-------- ------- -- ---------- --- - --- ----- ----- ----<br>---- --- --- ----- --- ---- ---- ------- ----- ---- -------<br>--- --- -- ----- -- --- ---- -- --- ---- -- ------ ------<br>--- ----- -- ----,96663.80000019073,96663,96024.811,96039.0999994278,96041.482,96674.84,,16,to
screen,html.Screen,0_2_0_1_17,2022-05-09T11:36:19.006Z,,,,,,,,,,,,,,,,53,,,,,,,,,,,,,,612.0599996185338,,response,,,99,,,,,,Space,keypress(Space),,,,,---- -- ----- -- ------ - ------- --- ----------<br>------------- ------ ------ ---- ---- ------- ----- -- your<br>-------- ------- -- ---------- --- - --- ----- ----- ----<br>---- --- --- ----- --- ---- ---- ------- ----- ---- -------<br>--- --- -- ----- -- --- ---- -- --- ---- -- ------ ------<br>--- ----- -- ----,97287.69999980927,97286.89999961853,96658.171,96664.0999994278,96674.84,97291.696,,17,your
screen,html.Screen,0_2_0_1_18,2022-05-09T11:36:19.677Z,,,,,,,,,,,,,,,,53,,,,,,,,,,,,,,667.1040001907386,,response,,,99,,,,,,Space,keypress(Space),,,,,---- -- ----- -- ------ - ------- --- ----------<br>------------- ------ ------ ---- ---- ------- ----- -- ----<br>romantic ------- -- ---------- --- - --- ----- ----- ----<br>---- --- --- ----- --- ---- ---- ------- ----- ---- -------<br>--- --- -- ----- -- --- ---- -- --- ---- -- ------ ------<br>--- ----- -- ----,97959.19999980927,97958.80000019073,97275.026,97288,97291.696,97975.304,,18,romantic
screen,html.Screen,0_2_0_1_19,2022-05-09T11:36:20.253Z,,,,,,,,,,,,,,,,53,,,,,,,,,,,,,,559.2959994277917,,response,,,99,,,,,,Space,keypress(Space),,,,,---- -- ----- -- ------ - ------- --- ----------<br>------------- ------ ------ ---- ---- ------- ----- -- ----<br>-------- partner -- ---------- --- - --- ----- ----- ----<br>---- --- --- ----- --- ---- ---- ------- ----- ---- -------<br>--- --- -- ----- -- --- ---- -- --- ---- -- ------ ------<br>--- ----- -- ----,98534.89999961853,98534.5999994278,97958.633,97959.30000019073,97975.304,98542.02,,19,partner
screen,html.Screen,0_2_0_1_20,2022-05-09T11:36:20.885Z,,,,,,,,,,,,,,,,53,,,,,,,,,,,,,,624.4799999999959,,response,,,99,,,,,,Space,keypress(Space),,,,,---- -- ----- -- ------ - ------- --- ----------<br>------------- ------ ------ ---- ---- ------- ----- -- ----<br>-------- ------- is ---------- --- - --- ----- ----- ----<br>---- --- --- ----- --- ---- ---- ------- ----- ---- -------<br>--- --- -- ----- -- --- ---- -- --- ---- -- ------ ------<br>--- ----- -- ----,99166.89999961853,99166.5,98525.35,98535,98542.02,99175.612,,20,is
screen,html.Screen,0_2_0_1_21,2022-05-09T11:36:21.557Z,,,,,,,,,,,,,,,,53,,,,,,,,,,,,,,662.8880000000063,,response,,,99,,,,,,Space,keypress(Space),,,,,---- -- ----- -- ------ - ------- --- ----------<br>------------- ------ ------ ---- ---- ------- ----- -- ----<br>-------- ------- -- paramount. --- - --- ----- ----- ----<br>---- --- --- ----- --- ---- ---- ------- ----- ---- -------<br>--- --- -- ----- -- --- ---- -- --- ---- -- ------ ------<br>--- ----- -- ----,99838.89999961853,99838.5,99158.941,99167,99175.612,99842.289,,21,paramount.
screen,html.Screen,0_2_0_1_22,2022-05-09T11:36:22.261Z,,,,,,,,,,,,,,,,53,,,,,,,,,,,,,,700.110999618526,,response,,,99,,,,,,Space,keypress(Space),,,,,---- -- ----- -- ------ - ------- --- ----------<br>------------- ------ ------ ---- ---- ------- ----- -- ----<br>-------- ------- -- ---------- But - --- ----- ----- ----<br>---- --- --- ----- --- ---- ---- ------- ----- ---- -------<br>--- --- -- ----- -- --- ---- -- --- ---- -- ------ ------<br>--- ----- -- ----,100542.80000019073,100542.39999961853,99825.62,99839.0999994278,99842.289,100559.289,,22,But
screen,html.Screen,0_2_0_1_23,2022-05-09T11:36:22.958Z,,,,,,,,,,,,,,,,53,,,,,,,,,,,,,,679.4109998092608,,response,,,99,,,,,,Space,keypress(Space),,,,,---- -- ----- -- ------ - ------- --- ----------<br>------------- ------ ------ ---- ---- ------- ----- -- ----<br>-------- ------- -- ---------- --- a --- ----- ----- ----<br>---- --- --- ----- --- ---- ---- ------- ----- ---- -------<br>--- --- -- ----- -- --- ---- -- --- ---- -- ------ ------<br>--- ----- -- ----,101239.69999980927,101238.69999980927,100542.618,100542.89999961853,100559.289,101242.718,,23,a
screen,html.Screen,0_2_0_1_24,2022-05-09T11:36:23.517Z,,,,,,,,,,,,,,,,53,,,,,,,,,,,,,,555.6819996185368,,response,,,99,,,,,,Space,keypress(Space),,,,,---- -- ----- -- ------ - ------- --- ----------<br>------------- ------ ------ ---- ---- ------- ----- -- ----<br>-------- ------- -- ---------- --- - new ----- ----- ----<br>---- --- --- ----- --- ---- ---- ------- ----- ---- -------<br>--- --- -- ----- -- --- ---- -- --- ---- -- ------ ------<br>--- ----- -- ----,101798.80000019073,101798.39999961853,101226.048,101240,101242.718,101809.532,,24,new
screen,html.Screen,0_2_0_1_25,2022-05-09T11:36:24.157Z,,,,,,,,,,,,,,,,53,,,,,,,,,,,,,,628.7680001907283,,response,,,99,,,,,,Space,keypress(Space),,,,,---- -- ----- -- ------ - ------- --- ----------<br>------------- ------ ------ ---- ---- ------- ----- -- ----<br>-------- ------- -- ---------- --- - --- study ----- ----<br>---- --- --- ----- --- ---- ---- ------- ----- ---- -------<br>--- --- -- ----- -- --- ---- -- --- ---- -- ------ ------<br>--- ----- -- ----,102438.5999994278,102438.30000019073,101792.862,101798.89999961853,101809.532,102443.117,,25,study
screen,html.Screen,0_2_0_1_26,2022-05-09T11:36:24.798Z,,,,,,,,,,,,,,,,53,,,,,,,,,,,,,,635.482999427797,,response,,,99,,,,,,Space,keypress(Space),,,,,---- -- ----- -- ------ - ------- --- ----------<br>------------- ------ ------ ---- ---- ------- ----- -- ----<br>-------- ------- -- ---------- --- - --- ----- finds ----<br>---- --- --- ----- --- ---- ---- ------- ----- ---- -------<br>--- --- -- ----- -- --- ---- -- --- ---- -- ------ ------<br>--- ----- -- ----,103079.30000019073,103078.5999994278,102426.446,102438.69999980927,102443.117,103093.192,,26,finds
screen,html.Screen,0_2_0_1_27,2022-05-09T11:36:25.437Z,,,,,,,,,,,,,,,,53,,,,,,,,,,,,,,625.3080000000045,,response,,,99,,,,,,Space,keypress(Space),,,,,---- -- ----- -- ------ - ------- --- ----------<br>------------- ------ ------ ---- ---- ------- ----- -- ----<br>-------- ------- -- ---------- --- - --- ----- ----- that<br>---- --- --- ----- --- ---- ---- ------- ----- ---- -------<br>--- --- -- ----- -- --- ---- -- --- ---- -- ------ ------<br>--- ----- -- ----,103719.30000019073,103718.5,103076.522,103079.69999980927,103093.192,103726.703,,27,that
screen,html.Screen,0_2_0_1_28,2022-05-09T11:36:26.061Z,,,,,,,,,,,,,,,,53,,,,,,,,,,,,,,615.4969998092711,,response,,,99,,,,,,Space,keypress(Space),,,,,---- -- ----- -- ------ - ------- --- ----------<br>------------- ------ ------ ---- ---- ------- ----- -- ----<br>-------- ------- -- ---------- --- - --- ----- ----- ----<br>it's --- --- ----- --- ---- ---- ------- ----- ---- -------<br>--- --- -- ----- -- --- ---- -- --- ---- -- ------ ------<br>--- ----- -- ----,104342.5,104342.19999980927,103710.033,103719.5,103726.703,104343.499,,28,it's
screen,html.Screen,0_2_0_1_29,2022-05-09T11:36:26.701Z,,,,,,,,,,,,,,,,53,,,,,,,,,,,,,,638.9009996185341,,response,,,99,,,,,,Space,keypress(Space),,,,,---- -- ----- -- ------ - ------- --- ----------<br>------------- ------ ------ ---- ---- ------- ----- -- ----<br>-------- ------- -- ---------- --- - --- ----- ----- ----<br>---- not --- ----- --- ---- ---- ------- ----- ---- -------<br>--- --- -- ----- -- --- ---- -- --- ---- -- ------ ------<br>--- ----- -- ----,104983.30000019073,104982.39999961853,104326.829,104342.5,104343.499,104993.764,,29,not
screen,html.Screen,0_2_0_1_30,2022-05-09T11:36:27.302Z,,,,,,,,,,,,,,,,53,,,,,,,,,,,,,,589.1359996185347,,response,,,99,,,,,,Space,keypress(Space),,,,,---- -- ----- -- ------ - ------- --- ----------<br>------------- ------ ------ ---- ---- ------- ----- -- ----<br>-------- ------- -- ---------- --- - --- ----- ----- ----<br>---- --- how ----- --- ---- ---- ------- ----- ---- -------<br>--- --- -- ----- -- --- ---- -- --- ---- -- ------ ------<br>--- ----- -- ----,105583.69999980927,105582.89999961853,104977.093,104983.5999994278,104993.764,105593.872,,30,how
screen,html.Screen,0_2_0_1_31,2022-05-09T11:36:27.853Z,,,,,,,,,,,,,,,,53,,,,,,,,,,,,,,540.5279996185272,,response,,,99,,,,,,Space,keypress(Space),,,,,---- -- ----- -- ------ - ------- --- ----------<br>------------- ------ ------ ---- ---- ------- ----- -- ----<br>-------- ------- -- ---------- --- - --- ----- ----- ----<br>---- --- --- close --- ---- ---- ------- ----- ---- -------<br>--- --- -- ----- -- --- ---- -- --- ---- -- ------ ------<br>--- ----- -- ----,106135.19999980927,106134.39999961853,105577.202,105584,105593.872,106143.997,,31,close
screen,html.Screen,0_2_0_1_32,2022-05-09T11:36:28.373Z,,,,,,,,,,,,,,,,53,,,,,,,,,,,,,,510.40299961852725,,response,,,99,,,,,,Space,keypress(Space),,,,,---- -- ----- -- ------ - ------- --- ----------<br>------------- ------ ------ ---- ---- ------- ----- -- ----<br>-------- ------- -- ---------- --- - --- ----- ----- ----<br>---- --- --- ----- you ---- ---- ------- ----- ---- -------<br>--- --- -- ----- -- --- ---- -- --- ---- -- ------ ------<br>--- ----- -- ----,106655.19999980927,106654.39999961853,106127.327,106135.5,106143.997,106660.854,,32,you
screen,html.Screen,0_2_0_1_33,2022-05-09T11:36:28.917Z,,,,,,,,,,,,,,,,53,,,,,,,,,,,,,,537.3459998092585,,response,,,99,,,,,,Space,keypress(Space),,,,,---- -- ----- -- ------ - ------- --- ----------<br>------------- ------ ------ ---- ---- ------- ----- -- ----<br>-------- ------- -- ---------- --- - --- ----- ----- ----<br>---- --- --- ----- --- feel ---- ------- ----- ---- -------<br>--- --- -- ----- -- --- ---- -- --- ---- -- ------ ------<br>--- ----- -- ----,107198.5999994278,107198.19999980927,106644.183,106655.5,106660.854,107210.922,,33,feel
screen,html.Screen,0_2_0_1_34,2022-05-09T11:36:29.445Z,,,,,,,,,,,,,,,,53,,,,,,,,,,,,,,515.0779999999941,,response,,,99,,,,,,Space,keypress(Space),,,,,---- -- ----- -- ------ - ------- --- ----------<br>------------- ------ ------ ---- ---- ------- ----- -- ----<br>-------- ------- -- ---------- --- - --- ----- ----- ----<br>---- --- --- ----- --- ---- that ------- ----- ---- -------<br>--- --- -- ----- -- --- ---- -- --- ---- -- ------ ------<br>--- ----- -- ----,107726.5,107726,107194.252,107198.69999980927,107210.922,107727.852,,34,that
screen,html.Screen,0_2_0_1_35,2022-05-09T11:36:30.061Z,,,,,,,,,,,,,,,,53,,,,,,,,,,,,,,614.2479994277965,,response,,,99,,,,,,Space,keypress(Space),,,,,---- -- ----- -- ------ - ------- --- ----------<br>------------- ------ ------ ---- ---- ------- ----- -- ----<br>-------- ------- -- ---------- --- - --- ----- ----- ----<br>---- --- --- ----- --- ---- ---- matters ----- ---- -------<br>--- --- -- ----- -- --- ---- -- --- ---- -- ------ ------<br>--- ----- -- ----,108342.5999994278,108342.0999994278,107711.18,107726.5999994278,107727.852,108344.471,,35,matters
screen,html.Screen,0_2_0_1_36,2022-05-09T11:36:30.646Z,,,,,,,,,,,,,,,,53,,,,,,,,,,,,,,581.8290001907299,,response,,,99,,,,,,Space,keypress(Space),,,,,"---- -- ----- -- ------ - ------- --- ----------<br>------------- ------ ------ ---- ---- ------- ----- -- ----<br>-------- ------- -- ---------- --- - --- ----- ----- ----<br>---- --- --- ----- --- ---- ---- ------- most, ---- -------<br>--- --- -- ----- -- --- ---- -- --- ---- -- ------ ------<br>--- ----- -- ----",108927.39999961853,108926.30000019073,108327.802,108342.80000019073,108344.471,108944.77,,36,"most,"
screen,html.Screen,0_2_0_1_37,2022-05-09T11:36:31.197Z,,,,,,,,,,,,,,,,53,,,,,,,,,,,,,,533.1299996185262,,response,,,99,,,,,,Space,keypress(Space),,,,,---- -- ----- -- ------ - ------- --- ----------<br>------------- ------ ------ ---- ---- ------- ----- -- ----<br>-------- ------- -- ---------- --- - --- ----- ----- ----<br>---- --- --- ----- --- ---- ---- ------- ----- it's -------<br>--- --- -- ----- -- --- ---- -- --- ---- -- ------ ------<br>--- ----- -- ----,109478.39999961853,109477.89999961853,108928.099,108927.5,108944.77,109494.849,,37,it's
screen,html.Screen,0_2_0_1_38,2022-05-09T11:36:31.812Z,,,,,,,,,,,,,,,,53,,,,,,,,,,,,,,599.150999999998,,response,,,99,,,,,,Space,keypress(Space),,,,,---- -- ----- -- ------ - ------- --- ----------<br>------------- ------ ------ ---- ---- ------- ----- -- ----<br>-------- ------- -- ---------- --- - --- ----- ----- ----<br>---- --- --- ----- --- ---- ---- ------- ----- ---- whether<br>--- --- -- ----- -- --- ---- -- --- ---- -- ------ ------<br>--- ----- -- ----,110094.30000019073,110094,109478.179,109478.39999961853,109494.849,110095.017,,38,whether
screen,html.Screen,0_2_0_1_39,2022-05-09T11:36:32.405Z,,,,,,,,,,,,,,,,53,,,,,,,,,,,,,,591.0829994277883,,response,,,99,,,,,,Space,keypress(Space),,,,,---- -- ----- -- ------ - ------- --- ----------<br>------------- ------ ------ ---- ---- ------- ----- -- ----<br>-------- ------- -- ---------- --- - --- ----- ----- ----<br>---- --- --- ----- --- ---- ---- ------- ----- ---- -------<br>you --- -- ----- -- --- ---- -- --- ---- -- ------ ------<br>--- ----- -- ----,110686.89999961853,110686.0999994278,110078.347,110094.30000019073,110095.017,110695.226,,39,you
screen,html.Screen,0_2_0_1_40,2022-05-09T11:36:32.973Z,,,,,,,,,,,,,,,,53,,,,,,,,,,,,,,558.7740000000049,,response,,,99,,,,,,Space,keypress(Space),,,,,---- -- ----- -- ------ - ------- --- ----------<br>------------- ------ ------ ---- ---- ------- ----- -- ----<br>-------- ------- -- ---------- --- - --- ----- ----- ----<br>---- --- --- ----- --- ---- ---- ------- ----- ---- -------<br>--- are -- ----- -- --- ---- -- --- ---- -- ------ ------<br>--- ----- -- ----,111254.5999994278,111254,110678.555,110687.19999980927,110695.226,111261.96,,40,are
screen,html.Screen,0_2_0_1_41,2022-05-09T11:36:33.532Z,,,,,,,,,,,,,,,,53,,,,,,,,,,,,,,551.9399996185239,,response,,,99,,,,,,Space,keypress(Space),,,,,---- -- ----- -- ------ - ------- --- ----------<br>------------- ------ ------ ---- ---- ------- ----- -- ----<br>-------- ------- -- ---------- --- - --- ----- ----- ----<br>---- --- --- ----- --- ---- ---- ------- ----- ---- -------<br>--- --- as ----- -- --- ---- -- --- ---- -- ------ ------<br>--- ----- -- ----,111814.30000019073,111813.89999961853,111245.29,111254.80000019073,111261.96,111828.803,,41,as
screen,html.Screen,0_2_0_1_42,2022-05-09T11:36:34.157Z,,,,,,,,,,,,,,,,53,,,,,,,,,,,,,,609.1970000000001,,response,,,99,,,,,,Space,keypress(Space),,,,,---- -- ----- -- ------ - ------- --- ----------<br>------------- ------ ------ ---- ---- ------- ----- -- ----<br>-------- ------- -- ---------- --- - --- ----- ----- ----<br>---- --- --- ----- --- ---- ---- ------- ----- ---- -------<br>--- --- -- close -- --- ---- -- --- ---- -- ------ ------<br>--- ----- -- ----,112438.5,112438,111812.133,111814.39999961853,111828.803,112445.624,,42,close
screen,html.Screen,0_2_0_1_43,2022-05-09T11:36:34.749Z,,,,,,,,,,,,,,,,53,,,,,,,,,,,,,,584.4759994277993,,response,,,99,,,,,,Space,keypress(Space),,,,,---- -- ----- -- ------ - ------- --- ----------<br>------------- ------ ------ ---- ---- ------- ----- -- ----<br>-------- ------- -- ---------- --- - --- ----- ----- ----<br>---- --- --- ----- --- ---- ---- ------- ----- ---- -------<br>--- --- -- ----- as --- ---- -- --- ---- -- ------ ------<br>--- ----- -- ----,113030.80000019073,113030.0999994278,112428.954,112438.69999980927,112445.624,113045.782,,43,as
screen,html.Screen,0_2_0_1_44,2022-05-09T11:36:35.348Z,,,,,,,,,,,,,,,,53,,,,,,,,,,,,,,583.9179998092586,,response,,,99,,,,,,Space,keypress(Space),,,,,---- -- ----- -- ------ - ------- --- ----------<br>------------- ------ ------ ---- ---- ------- ----- -- ----<br>-------- ------- -- ---------- --- - --- ----- ----- ----<br>---- --- --- ----- --- ---- ---- ------- ----- ---- -------<br>--- --- -- ----- -- you ---- -- --- ---- -- ------ ------<br>--- ----- -- ----,113630.0999994278,113629.69999980927,113029.112,113031.0999994278,113045.782,113645.991,,44,you
screen,html.Screen,0_2_0_1_45,2022-05-09T11:36:35.980Z,,,,,,,,,,,,,,,,53,,,,,,,,,,,,,,615.6089994278009,,response,,,99,,,,,,Space,keypress(Space),,,,,---- -- ----- -- ------ - ------- --- ----------<br>------------- ------ ------ ---- ---- ------- ----- -- ----<br>-------- ------- -- ---------- --- - --- ----- ----- ----<br>---- --- --- ----- --- ---- ---- ------- ----- ---- -------<br>--- --- -- ----- -- --- want -- --- ---- -- ------ ------<br>--- ----- -- ----,114261.89999961853,114261.5999994278,113629.32,113630.0999994278,113645.991,114262.745,,45,want
screen,html.Screen,0_2_0_1_46,2022-05-09T11:36:36.500Z,,,,,,,,,,,,,,,,53,,,,,,,,,,,,,,518.8549994278001,,response,,,99,,,,,,Space,keypress(Space),,,,,---- -- ----- -- ------ - ------- --- ----------<br>------------- ------ ------ ---- ---- ------- ----- -- ----<br>-------- ------- -- ---------- --- - --- ----- ----- ----<br>---- --- --- ----- --- ---- ---- ------- ----- ---- -------<br>--- --- -- ----- -- --- ---- to --- ---- -- ------ ------<br>--- ----- -- ----,114781.89999961853,114781.5999994278,114246.075,114262,114262.745,114796.213,,46,to
screen,html.Screen,0_2_0_1_47,2022-05-09T11:36:37.005Z,,,,,,,,,,,,,,,,53,,,,,,,,,,,,,,489.5870001907315,,response,,,99,,,,,,Space,keypress(Space),,,,,"---- -- ----- -- ------ - ------- --- ----------<br>------------- ------ ------ ---- ---- ------- ----- -- ----<br>-------- ------- -- ---------- --- - --- ----- ----- ----<br>---- --- --- ----- --- ---- ---- ------- ----- ---- -------<br>--- --- -- ----- -- --- ---- -- be, ---- -- ------ ------<br>--- ----- -- ----",115286.5,115285.80000019073,114779.543,114782,114796.213,115296.403,,47,"be,"
screen,html.Screen,0_2_0_1_48,2022-05-09T11:36:37.572Z,,,,,,,,,,,,,,,,53,,,,,,,,,,,,,,557.2969998092594,,response,,,99,,,,,,Space,keypress(Space),,,,,---- -- ----- -- ------ - ------- --- ----------<br>------------- ------ ------ ---- ---- ------- ----- -- ----<br>-------- ------- -- ---------- --- - --- ----- ----- ----<br>---- --- --- ----- --- ---- ---- ------- ----- ---- -------<br>--- --- -- ----- -- --- ---- -- --- even -- ------ ------<br>--- ----- -- ----,115854,115853.69999980927,115279.732,115286.69999980927,115296.403,115863.224,,48,even
screen,html.Screen,0_2_0_1_49,2022-05-09T11:36:38.093Z,,,,,,,,,,,,,,,,53,,,,,,,,,,,,,,510.6759996185283,,response,,,99,,,,,,Space,keypress(Space),,,,,---- -- ----- -- ------ - ------- --- ----------<br>------------- ------ ------ ---- ---- ------- ----- -- ----<br>-------- ------- -- ---------- --- - --- ----- ----- ----<br>---- --- --- ----- --- ---- ---- ------- ----- ---- -------<br>--- --- -- ----- -- --- ---- -- --- ---- if ------ ------<br>--- ----- -- ----,116374.69999980927,116373.89999961853,115846.553,115854.0999994278,115863.224,116379.947,,49,if
screen,html.Screen,0_2_0_1_50,2022-05-09T11:36:38.669Z,,,,,,,,,,,,,,,,53,,,,,,,,,,,,,,569.9529996185302,,response,,,99,,,,,,Space,keypress(Space),,,,,---- -- ----- -- ------ - ------- --- ----------<br>------------- ------ ------ ---- ---- ------- ----- -- ----<br>-------- ------- -- ---------- --- - --- ----- ----- ----<br>---- --- --- ----- --- ---- ---- ------- ----- ---- -------<br>--- --- -- ----- -- --- ---- -- --- ---- -- that's ------<br>--- ----- -- ----,116950.5999994278,116949.89999961853,116363.277,116374.89999961853,116379.947,116963.519,,50,that's
screen,html.Screen,0_2_0_1_51,2022-05-09T11:36:39.292Z,,,,,,,,,,,,,,,,53,,,,,,,,,,,,,,609.9809999999998,,response,,,99,,,,,,Space,keypress(Space),,,,,---- -- ----- -- ------ - ------- --- ----------<br>------------- ------ ------ ---- ---- ------- ----- -- ----<br>-------- ------- -- ---------- --- - --- ----- ----- ----<br>---- --- --- ----- --- ---- ---- ------- ----- ---- -------<br>--- --- -- ----- -- --- ---- -- --- ---- -- ------ really<br>--- ----- -- ----,117573.89999961853,117573.5,116946.848,116950.80000019073,116963.519,117580.367,,51,really
screen,html.Screen,0_2_0_1_52,2022-05-09T11:36:39.877Z,,,,,,,,,,,,,,,,53,,,,,,,,,,,,,,577.4330001907365,,response,,,99,,,,,,Space,keypress(Space),,,,,---- -- ----- -- ------ - ------- --- ----------<br>------------- ------ ------ ---- ---- ------- ----- -- ----<br>-------- ------- -- ---------- --- - --- ----- ----- ----<br>---- --- --- ----- --- ---- ---- ------- ----- ---- -------<br>--- --- -- ----- -- --- ---- -- --- ---- -- ------ ------<br>not ----- -- ----,118158.5999994278,118157.80000019073,117563.696,117574,117580.367,118163.684,,52,not
screen,html.Screen,0_2_0_1_53,2022-05-09T11:36:40.492Z,,,,,,,,,,,,,,,,53,,,,,,,,,,,,,,609.8160000000062,,response,,,99,,,,,,Space,keypress(Space),,,,,---- -- ----- -- ------ - ------- --- ----------<br>------------- ------ ------ ---- ---- ------- ----- -- ----<br>-------- ------- -- ---------- --- - --- ----- ----- ----<br>---- --- --- ----- --- ---- ---- ------- ----- ---- -------<br>--- --- -- ----- -- --- ---- -- --- ---- -- ------ ------<br>--- close -- ----,118773.80000019073,118773.5,118147.015,118158.80000019073,118163.684,118780.592,,53,close
screen,html.Screen,0_2_0_1_54,2022-05-09T11:36:41.077Z,,,,,,,,,,,,,,,,53,,,,,,,,,,,,,,577.107999809261,,response,,,99,,,,,,Space,keypress(Space),,,,,---- -- ----- -- ------ - ------- --- ----------<br>------------- ------ ------ ---- ---- ------- ----- -- ----<br>-------- ------- -- ---------- --- - --- ----- ----- ----<br>---- --- --- ----- --- ---- ---- ------- ----- ---- -------<br>--- --- -- ----- -- --- ---- -- --- ---- -- ------ ------<br>--- ----- at ----,119358.5999994278,119357.69999980927,118763.922,118773.89999961853,118780.592,119364.059,,54,at
screen,html.Screen,0_2_0_1_55,2022-05-09T11:36:41.692Z,,,,,,,,,,,,,,,,53,,,,,,,,,,,,,,609.241000190741,,response,,,99,,,,,,Space,keypress(Space),,,,,---- -- ----- -- ------ - ------- --- ----------<br>------------- ------ ------ ---- ---- ------- ----- -- ----<br>-------- ------- -- ---------- --- - --- ----- ----- ----<br>---- --- --- ----- --- ---- ---- ------- ----- ---- -------<br>--- --- -- ----- -- --- ---- -- --- ---- -- ------ ------<br>--- ----- -- all.,119973.5999994278,119973.30000019073,119347.389,119358.80000019073,119364.059,119980.976,,55,all.
Item 99,flow.Loop,0_2_0_1,2022-05-09T11:36:41.693Z,,,,,,,,,,,,,,,,,,,,,,,,,,,,,,35985.084000190735,,completion,,,,D,,,,,,,,,,silence,,119974.5999994278,119973.30000019073,83888.196,83902,83988.216,119980.976,,,
Question 1,html.Screen,0_2_0_2,2022-05-09T11:36:49.199Z,,,,,,,,,,,,,,,,,,,,,,,,,,,false,FALSE,,7496.32400019074,,response,,,99,D,,,,,TRUE,click #choice-1,,,,silence,,127478.0999994278,127477.30000019073,119964.305,119974.80000019073,119980.976,127482.834,,,
Question 2,html.Screen,0_2_0_3,2022-05-09T11:36:56.516Z,,,,,,,,,,,,,,,,,,,,,,,,,,,true,TRUE,,7310.765999427793,,response,,,99,D,,,,,TRUE,click #choice-1,,,,silence,,134794.80000019073,134793.5999994278,127466.164,127478.30000019073,127482.834,134801.435,,,
Item 99,flow.Sequence,0_2_0,2022-05-09T11:36:56.517Z,,,,,,,,,,,,,,,,,,,,,,,,,,,,,,60891.3659994278,,completion,,,,,,,,,,,,,,,,134795.39999961853,134793.5999994278,73885.564,73889.89999961853,73902.234,134801.435,,,
Holding screen,html.Screen,0_2_1_0,2022-05-09T11:37:06.509Z,,,,,,,,,,,,,,,,,,,,,,,,,,,,,,10002.481,,timeout,,,,,,,,,,,,,,,,144788.19999980927,144787.246,134784.765,134795.80000019073,134801.435,144803.916,,,
screen,html.Screen,0_2_1_1_0,2022-05-09T11:37:07.711Z,,,,,,,,,,,,,,,,54,,,,,,,,,,,,,,1184.7839998092677,,response,,,100,,,,,,Space,keypress(Space),,,,,At --- ---- --- ------ ----- ------- ---- -- --- ------- --<br>------- ---------- ------ -- ----- -- ----- -- ---- ------<br>--- ----- --- --- ------ -------- ----- --- ------ ----- --<br>----- ----- ---------- --- --- ------ ------ ---- -- ------<br>------- --- ------ ----- --- ---- ------- -- ---- --- --<br>------- ------,145989.5999994278,145988.69999980927,144787.246,144788.30000019073,144803.916,146004.336,,0,At
screen,html.Screen,0_2_1_1_1,2022-05-09T11:37:08.253Z,,,,,,,,,,,,,,,,54,,,,,,,,,,,,,,527.4640001907246,,response,,,100,,,,,,Space,keypress(Space),,,,,-- the ---- --- ------ ----- ------- ---- -- --- ------- --<br>------- ---------- ------ -- ----- -- ----- -- ---- ------<br>--- ----- --- --- ------ -------- ----- --- ------ ----- --<br>----- ----- ---------- --- --- ------ ------ ---- -- ------<br>------- --- ------ ----- --- ---- ------- -- ---- --- --<br>------- ------,146532.19999980927,146531.80000019073,145987.665,145989.89999961853,146004.336,146537.627,,1,the
screen,html.Screen,0_2_1_1_2,2022-05-09T11:37:08.782Z,,,,,,,,,,,,,,,,54,,,,,,,,,,,,,,522.2729996185226,,response,,,100,,,,,,Space,keypress(Space),,,,,-- --- time --- ------ ----- ------- ---- -- --- ------- --<br>------- ---------- ------ -- ----- -- ----- -- ---- ------<br>--- ----- --- --- ------ -------- ----- --- ------ ----- --<br>----- ----- ---------- --- --- ------ ------ ---- -- ------<br>------- --- ------ ----- --- ---- ------- -- ---- --- --<br>------- ------,147060.30000019073,147059.89999961853,146520.958,146532.19999980927,146537.627,147071.176,,2,time
screen,html.Screen,0_2_1_1_3,2022-05-09T11:37:09.246Z,,,,,,,,,,,,,,,,54,,,,,,,,,,,,,,452.7239996185235,,response,,,100,,,,,,Space,keypress(Space),,,,,-- --- ---- the ------ ----- ------- ---- -- --- ------- --<br>------- ---------- ------ -- ----- -- ----- -- ---- ------<br>--- ----- --- --- ------ -------- ----- --- ------ ----- --<br>----- ----- ---------- --- --- ------ ------ ---- -- ------<br>------- --- ------ ----- --- ---- ------- -- ---- --- --<br>------- ------,147524.19999980927,147523.89999961853,147054.506,147060.39999961853,147071.176,147537.991,,3,the
screen,html.Screen,0_2_1_1_4,2022-05-09T11:37:09.829Z,,,,,,,,,,,,,,,,54,,,,,,,,,,,,,,569.8090001907258,,response,,,100,,,,,,Space,keypress(Space),,,,,-- --- ---- --- French ----- ------- ---- -- --- ------- --<br>------- ---------- ------ -- ----- -- ----- -- ---- ------<br>--- ----- --- --- ------ -------- ----- --- ------ ----- --<br>----- ----- ---------- --- --- ------ ------ ---- -- ------<br>------- --- ------ ----- --- ---- ------- -- ---- --- --<br>------- ------,148108.19999980927,148107.80000019073,147521.321,147524.39999961853,147537.991,148121.567,,4,French
screen,html.Screen,0_2_1_1_5,2022-05-09T11:37:10.421Z,,,,,,,,,,,,,,,,54,,,,,,,,,,,,,,578.2330001907249,,response,,,100,,,,,,Space,keypress(Space),,,,,-- --- ---- --- ------ crown ------- ---- -- --- ------- --<br>------- ---------- ------ -- ----- -- ----- -- ---- ------<br>--- ----- --- --- ------ -------- ----- --- ------ ----- --<br>----- ----- ---------- --- --- ------ ------ ---- -- ------<br>------- --- ------ ----- --- ---- ------- -- ---- --- --<br>------- ------,148700,148699.80000019073,148104.895,148108.30000019073,148121.567,148704.856,,5,crown
screen,html.Screen,0_2_1_1_6,2022-05-09T11:37:11.077Z,,,,,,,,,,,,,,,,54,,,,,,,,,,,,,,650.8439998092654,,response,,,100,,,,,,Space,keypress(Space),,,,,-- --- ---- --- ------ ----- secured ---- -- --- ------- --<br>------- ---------- ------ -- ----- -- ----- -- ---- ------<br>--- ----- --- --- ------ -------- ----- --- ------ ----- --<br>----- ----- ---------- --- --- ------ ------ ---- -- ------<br>------- --- ------ ----- --- ---- ------- -- ---- --- --<br>------- ------,149356.19999980927,149355.69999980927,148688.187,148700.0999994278,148704.856,149371.863,,6,secured
screen,html.Screen,0_2_1_1_7,2022-05-09T11:37:11.613Z,,,,,,,,,,,,,,,,54,,,,,,,,,,,,,,519.9370001907228,,response,,,100,,,,,,Space,keypress(Space),,,,,-- --- ---- --- ------ ----- ------- much -- --- ------- --<br>------- ---------- ------ -- ----- -- ----- -- ---- ------<br>--- ----- --- --- ------ -------- ----- --- ------ ----- --<br>----- ----- ---------- --- --- ------ ------ ---- -- ------<br>------- --- ------ ----- --- ---- ------- -- ---- --- --<br>------- ------,149892.0999994278,149891.80000019073,149355.192,149356.30000019073,149371.863,149938.677,,7,much
screen,html.Screen,0_2_1_1_8,2022-05-09T11:37:12.173Z,,,,,,,,,,,,,,,,54,,,,,,,,,,,,,,512.9229994277994,,response,,,100,,,,,,Space,keypress(Space),,,,,-- --- ---- --- ------ ----- ------- ---- of --- ------- --<br>------- ---------- ------ -- ----- -- ----- -- ---- ------<br>--- ----- --- --- ------ -------- ----- --- ------ ----- --<br>----- ----- ---------- --- --- ------ ------ ---- -- ------<br>------- --- ------ ----- --- ---- ------- -- ---- --- --<br>------- ------,150452,150451.5999994278,149888.664,149892.19999980927,149938.677,150455.349,,8,of
screen,html.Screen,0_2_1_1_9,2022-05-09T11:37:12.718Z,,,,,,,,,,,,,,,,54,,,,,,,,,,,,,,540.5509996185428,,response,,,100,,,,,,Space,keypress(Space),,,,,-- --- ---- --- ------ ----- ------- ---- -- its ------- --<br>------- ---------- ------ -- ----- -- ----- -- ---- ------<br>--- ----- --- --- ------ -------- ----- --- ------ ----- --<br>----- ----- ---------- --- --- ------ ------ ---- -- ------<br>------- --- ------ ----- --- ---- ------- -- ---- --- --<br>------- ------,150996.80000019073,150995.89999961853,150438.68,150452.0999994278,150455.349,151005.605,,9,its
screen,html.Screen,0_2_1_1_10,2022-05-09T11:37:13.357Z,,,,,,,,,,,,,,,,54,,,,,,,,,,,,,,629.9949994277849,,response,,,100,,,,,,Space,keypress(Space),,,,,-- --- ---- --- ------ ----- ------- ---- -- --- revenue --<br>------- ---------- ------ -- ----- -- ----- -- ---- ------<br>--- ----- --- --- ------ -------- ----- --- ------ ----- --<br>----- ----- ---------- --- --- ------ ------ ---- -- ------<br>------- --- ------ ----- --- ---- ------- -- ---- --- --<br>------- ------,151636,151635.5999994278,150988.934,150997,151005.605,151639.014,,10,revenue
screen,html.Screen,0_2_1_1_11,2022-05-09T11:37:14.070Z,,,,,,,,,,,,,,,,54,,,,,,,,,,,,,,708.6859998092696,,response,,,100,,,,,,Space,keypress(Space),,,,,-- --- ---- --- ------ ----- ------- ---- -- --- ------- by<br>------- ---------- ------ -- ----- -- ----- -- ---- ------<br>--- ----- --- --- ------ -------- ----- --- ------ ----- --<br>----- ----- ---------- --- --- ------ ------ ---- -- ------<br>------- --- ------ ----- --- ---- ------- -- ---- --- --<br>------- ------,152348.30000019073,152347.69999980927,151622.344,151636,151639.014,152355.885,,11,by
screen,html.Screen,0_2_1_1_12,2022-05-09T11:37:14.693Z,,,,,,,,,,,,,,,,54,,,,,,,,,,,,,,615.6149999999907,,response,,,100,,,,,,Space,keypress(Space),,,,,-- --- ---- --- ------ ----- ------- ---- -- --- ------- --<br>issuing ---------- ------ -- ----- -- ----- -- ---- ------<br>--- ----- --- --- ------ -------- ----- --- ------ ----- --<br>----- ----- ---------- --- --- ------ ------ ---- -- ------<br>------- --- ------ ----- --- ---- ------- -- ---- --- --<br>------- ------,152972,152971.5,152339.215,152348.5,152355.885,152972.713,,12,issuing
screen,html.Screen,0_2_1_1_13,2022-05-09T11:37:15.357Z,,,,,,,,,,,,,,,,54,,,,,,,,,,,,,,662.6869996185414,,response,,,100,,,,,,Space,keypress(Space),,,,,-- --- ---- --- ------ ----- ------- ---- -- --- ------- --<br>------- government ------ -- ----- -- ----- -- ---- ------<br>--- ----- --- --- ------ -------- ----- --- ------ ----- --<br>----- ----- ---------- --- --- ------ ------ ---- -- ------<br>------- --- ------ ----- --- ---- ------- -- ---- --- --<br>------- ------,153635.80000019073,153635.39999961853,152956.043,152972.19999980927,152972.713,153639.552,,13,government
screen,html.Screen,0_2_1_1_14,2022-05-09T11:37:16.038Z,,,,,,,,,,,,,,,,54,,,,,,,,,,,,,,676.2480001907388,,response,,,100,,,,,,Space,keypress(Space),,,,,-- --- ---- --- ------ ----- ------- ---- -- --- ------- --<br>------- ---------- bonds. -- ----- -- ----- -- ---- ------<br>--- ----- --- --- ------ -------- ----- --- ------ ----- --<br>----- ----- ---------- --- --- ------ ------ ---- -- ------<br>------- --- ------ ----- --- ---- ------- -- ---- --- --<br>------- ------,154316.5999994278,154315.80000019073,153622.882,153635.80000019073,153639.552,154323.031,,14,bonds.
screen,html.Screen,0_2_1_1_15,2022-05-09T11:37:16.717Z,,,,,,,,,,,,,,,,54,,,,,,,,,,,,,,672.4690000000119,,response,,,100,,,,,,Space,keypress(Space),,,,,-- --- ---- --- ------ ----- ------- ---- -- --- ------- --<br>------- ---------- ------ In ----- -- ----- -- ---- ------<br>--- ----- --- --- ------ -------- ----- --- ------ ----- --<br>----- ----- ---------- --- --- ------ ------ ---- -- ------<br>------- --- ------ ----- --- ---- ------- -- ---- --- --<br>------- ------,154995.89999961853,154995.5,154306.361,154316.80000019073,154323.031,155006.716,,15,In
screen,html.Screen,0_2_1_1_16,2022-05-09T11:37:17.285Z,,,,,,,,,,,,,,,,54,,,,,,,,,,,,,,556.6839996185445,,response,,,100,,,,,,Space,keypress(Space),,,,,"-- --- ---- --- ------ ----- ------- ---- -- --- ------- --<br>------- ---------- ------ -- 1727, -- ----- -- ---- ------<br>--- ----- --- --- ------ -------- ----- --- ------ ----- --<br>----- ----- ---------- --- --- ------ ------ ---- -- ------<br>------- --- ------ ----- --- ---- ------- -- ---- --- --<br>------- ------",155563.69999980927,155563.39999961853,154990.044,154996,155006.716,155573.294,,16,"1727,"
screen,html.Screen,0_2_1_1_17,2022-05-09T11:37:18.253Z,,,,,,,,,,,,,,,,54,,,,,,,,,,,,,,958.2060000000056,,response,,,100,,,,,,Space,keypress(Space),,,,,-- --- ---- --- ------ ----- ------- ---- -- --- ------- --<br>------- ---------- ------ -- ----- in ----- -- ---- ------<br>--- ----- --- --- ------ -------- ----- --- ------ ----- --<br>----- ----- ---------- --- --- ------ ------ ---- -- ------<br>------- --- ------ ----- --- ---- ------- -- ---- --- --<br>------- ------,156531.89999961853,156531.5,155556.625,155563.80000019073,155573.294,156540.378,,17,in
screen,html.Screen,0_2_1_1_18,2022-05-09T11:37:18.869Z,,,,,,,,,,,,,,,,54,,,,,,,,,,,,,,607.0219996185333,,response,,,100,,,,,,Space,keypress(Space),,,,,-- --- ---- --- ------ ----- ------- ---- -- --- ------- --<br>------- ---------- ------ -- ----- -- order -- ---- ------<br>--- ----- --- --- ------ -------- ----- --- ------ ----- --<br>----- ----- ---------- --- --- ------ ------ ---- -- ------<br>------- --- ------ ----- --- ---- ------- -- ---- --- --<br>------- ------,157147.5999994278,157147.39999961853,156523.707,156531.89999961853,156540.378,157157.095,,18,order
screen,html.Screen,0_2_1_1_19,2022-05-09T11:37:19.253Z,,,,,,,,,,,,,,,,54,,,,,,,,,,,,,,374.2050001907337,,response,,,100,,,,,,Space,keypress(Space),,,,,-- --- ---- --- ------ ----- ------- ---- -- --- ------- --<br>------- ---------- ------ -- ----- -- ----- to ---- ------<br>--- ----- --- --- ------ -------- ----- --- ------ ----- --<br>----- ----- ---------- --- --- ------ ------ ---- -- ------<br>------- --- ------ ----- --- ---- ------- -- ---- --- --<br>------- ------,157531.69999980927,157531.30000019073,157140.425,157147.69999980927,157157.095,157540.633,,19,to
screen,html.Screen,0_2_1_1_20,2022-05-09T11:37:19.662Z,,,,,,,,,,,,,,,,54,,,,,,,,,,,,,,398.86699999999837,,response,,,100,,,,,,Space,keypress(Space),,,,,-- --- ---- --- ------ ----- ------- ---- -- --- ------- --<br>------- ---------- ------ -- ----- -- ----- -- save ------<br>--- ----- --- --- ------ -------- ----- --- ------ ----- --<br>----- ----- ---------- --- --- ------ ------ ---- -- ------<br>------- --- ------ ----- --- ---- ------- -- ---- --- --<br>------- ------,157940.30000019073,157939.5,157523.962,157531.80000019073,157540.633,157957.3,,20,save
screen,html.Screen,0_2_1_1_21,2022-05-09T11:37:20.054Z,,,,,,,,,,,,,,,,54,,,,,,,,,,,,,,374.29999942780705,,response,,,100,,,,,,Space,keypress(Space),,,,,"-- --- ---- --- ------ ----- ------- ---- -- --- ------- --<br>------- ---------- ------ -- ----- -- ----- -- ---- money,<br>--- ----- --- --- ------ -------- ----- --- ------ ----- --<br>----- ----- ---------- --- --- ------ ------ ---- -- ------<br>------- --- ------ ----- --- ---- ------- -- ---- --- --<br>------- ------",158332.39999961853,158331.5999994278,157940.631,157940.5,157957.3,158340.761,,21,"money,"
screen,html.Screen,0_2_1_1_22,2022-05-09T11:37:20.686Z,,,,,,,,,,,,,,,,54,,,,,,,,,,,,,,622.7390000000014,,response,,,100,,,,,,Space,keypress(Space),,,,,-- --- ---- --- ------ ----- ------- ---- -- --- ------- --<br>------- ---------- ------ -- ----- -- ----- -- ---- ------<br>the ----- --- --- ------ -------- ----- --- ------ ----- --<br>----- ----- ---------- --- --- ------ ------ ---- -- ------<br>------- --- ------ ----- --- ---- ------- -- ---- --- --<br>------- ------,158964.30000019073,158963.5,158324.091,158332.5999994278,158340.761,158974.313,,22,the
screen,html.Screen,0_2_1_1_23,2022-05-09T11:37:21.190Z,,,,,,,,,,,,,,,,54,,,,,,,,,,,,,,493.18700000000536,,response,,,100,,,,,,Space,keypress(Space),,,,,-- --- ---- --- ------ ----- ------- ---- -- --- ------- --<br>------- ---------- ------ -- ----- -- ----- -- ---- ------<br>--- state --- --- ------ -------- ----- --- ------ ----- --<br>----- ----- ---------- --- --- ------ ------ ---- -- ------<br>------- --- ------ ----- --- ---- ------- -- ---- --- --<br>------- ------,159468.39999961853,159467.5,158957.642,158964.5,158974.313,159474.328,,23,state
screen,html.Screen,0_2_1_1_24,2022-05-09T11:37:21.725Z,,,,,,,,,,,,,,,,54,,,,,,,,,,,,,,528.7719994277868,,response,,,100,,,,,,Space,keypress(Space),,,,,-- --- ---- --- ------ ----- ------- ---- -- --- ------- --<br>------- ---------- ------ -- ----- -- ----- -- ---- ------<br>--- ----- cut --- ------ -------- ----- --- ------ ----- --<br>----- ----- ---------- --- --- ------ ------ ---- -- ------<br>------- --- ------ ----- --- ---- ------- -- ---- --- --<br>------- ------,160003.39999961853,160003.0999994278,159457.659,159468.5999994278,159474.328,160007.998,,24,cut
screen,html.Screen,0_2_1_1_25,2022-05-09T11:37:22.189Z,,,,,,,,,,,,,,,,54,,,,,,,,,,,,,,459.1019994278031,,response,,,100,,,,,,Space,keypress(Space),,,,,-- --- ---- --- ------ ----- ------- ---- -- --- ------- --<br>------- ---------- ------ -- ----- -- ----- -- ---- ------<br>--- ----- --- the ------ -------- ----- --- ------ ----- --<br>----- ----- ---------- --- --- ------ ------ ---- -- ------<br>------- --- ------ ----- --- ---- ------- -- ---- --- --<br>------- ------,160467.5999994278,160467.0999994278,159991.326,160003.5999994278,160007.998,160474.75,,25,the
screen,html.Screen,0_2_1_1_26,2022-05-09T11:37:22.757Z,,,,,,,,,,,,,,,,54,,,,,,,,,,,,,,560.4499998092651,,response,,,100,,,,,,Space,keypress(Space),,,,,-- --- ---- --- ------ ----- ------- ---- -- --- ------- --<br>------- ---------- ------ -- ----- -- ----- -- ---- ------<br>--- ----- --- --- bonds' -------- ----- --- ------ ----- --<br>----- ----- ---------- --- --- ------ ------ ---- -- ------<br>------- --- ------ ----- --- ---- ------- -- ---- --- --<br>------- ------,161035.5,161035.19999980927,160458.079,160467.80000019073,160474.75,161041.326,,26,bonds'
screen,html.Screen,0_2_1_1_27,2022-05-09T11:37:23.357Z,,,,,,,,,,,,,,,,54,,,,,,,,,,,,,,593.8739998092642,,response,,,100,,,,,,Space,keypress(Space),,,,,-- --- ---- --- ------ ----- ------- ---- -- --- ------- --<br>------- ---------- ------ -- ----- -- ----- -- ---- ------<br>--- ----- --- --- ------ interest ----- --- ------ ----- --<br>----- ----- ---------- --- --- ------ ------ ---- -- ------<br>------- --- ------ ----- --- ---- ------- -- ---- --- --<br>------- ------,161635.5,161635.19999980927,161024.658,161035.5999994278,161041.326,161641.61,,27,interest
screen,html.Screen,0_2_1_1_28,2022-05-09T11:37:23.941Z,,,,,,,,,,,,,,,,54,,,,,,,,,,,,,,577.390000000014,,response,,,100,,,,,,Space,keypress(Space),,,,,-- --- ---- --- ------ ----- ------- ---- -- --- ------- --<br>------- ---------- ------ -- ----- -- ----- -- ---- ------<br>--- ----- --- --- ------ -------- rate. --- ------ ----- --<br>----- ----- ---------- --- --- ------ ------ ---- -- ------<br>------- --- ------ ----- --- ---- ------- -- ---- --- --<br>------- ------,162219.39999961853,162219,161624.94,161635.5999994278,161641.61,162225.152,,28,rate.
screen,html.Screen,0_2_1_1_29,2022-05-09T11:37:24.566Z,,,,,,,,,,,,,,,,54,,,,,,,,,,,,,,618.148000190733,,response,,,100,,,,,,Space,keypress(Space),,,,,-- --- ---- --- ------ ----- ------- ---- -- --- ------- --<br>------- ---------- ------ -- ----- -- ----- -- ---- ------<br>--- ----- --- --- ------ -------- ----- The ------ ----- --<br>----- ----- ---------- --- --- ------ ------ ---- -- ------<br>------- --- ------ ----- --- ---- ------- -- ---- --- --<br>------- ------,162844.30000019073,162843.30000019073,162208.481,162219.5,162225.152,162858.57,,29,The
screen,html.Screen,0_2_1_1_30,2022-05-09T11:37:25.085Z,,,,,,,,,,,,,,,,54,,,,,,,,,,,,,,504.7300001907279,,response,,,100,,,,,,Space,keypress(Space),,,,,-- --- ---- --- ------ ----- ------- ---- -- --- ------- --<br>------- ---------- ------ -- ----- -- ----- -- ---- ------<br>--- ----- --- --- ------ -------- ----- --- market ----- --<br>----- ----- ---------- --- --- ------ ------ ---- -- ------<br>------- --- ------ ----- --- ---- ------- -- ---- --- --<br>------- ------,163364.0999994278,163363.30000019073,162841.9,162844.5,162858.57,163375.555,,30,market
screen,html.Screen,0_2_1_1_31,2022-05-09T11:37:25.629Z,,,,,,,,,,,,,,,,54,,,,,,,,,,,,,,531.6449998092721,,response,,,100,,,,,,Space,keypress(Space),,,,,-- --- ---- --- ------ ----- ------- ---- -- --- ------- --<br>------- ---------- ------ -- ----- -- ----- -- ---- ------<br>--- ----- --- --- ------ -------- ----- --- ------ value --<br>----- ----- ---------- --- --- ------ ------ ---- -- ------<br>------- --- ------ ----- --- ---- ------- -- ---- --- --<br>------- ------,163908.0999994278,163907.19999980927,163358.883,163364.30000019073,163375.555,163925.465,,31,value
screen,html.Screen,0_2_1_1_32,2022-05-09T11:37:26.141Z,,,,,,,,,,,,,,,,54,,,,,,,,,,,,,,494.0350000000035,,response,,,100,,,,,,Space,keypress(Space),,,,,-- --- ---- --- ------ ----- ------- ---- -- --- ------- --<br>------- ---------- ------ -- ----- -- ----- -- ---- ------<br>--- ----- --- --- ------ -------- ----- --- ------ ----- of<br>----- ----- ---------- --- --- ------ ------ ---- -- ------<br>------- --- ------ ----- --- ---- ------- -- ---- --- --<br>------- ------,164420.0999994278,164419.5,163908.796,163908.30000019073,163925.465,164425.723,,32,of
screen,html.Screen,0_2_1_1_33,2022-05-09T11:37:26.581Z,,,,,,,,,,,,,,,,54,,,,,,,,,,,,,,433.27700000000186,,response,,,100,,,,,,Space,keypress(Space),,,,,-- --- ---- --- ------ ----- ------- ---- -- --- ------- --<br>------- ---------- ------ -- ----- -- ----- -- ---- ------<br>--- ----- --- --- ------ -------- ----- --- ------ ----- --<br>these ----- ---------- --- --- ------ ------ ---- -- ------<br>------- --- ------ ----- --- ---- ------- -- ---- --- --<br>------- ------,164859.30000019073,164859,164409.052,164420.39999961853,164425.723,164875.766,,33,these
screen,html.Screen,0_2_1_1_34,2022-05-09T11:37:26.997Z,,,,,,,,,,,,,,,,54,,,,,,,,,,,,,,399.33399942779215,,response,,,100,,,,,,Space,keypress(Space),,,,,-- --- ---- --- ------ ----- ------- ---- -- --- ------- --<br>------- ---------- ------ -- ----- -- ----- -- ---- ------<br>--- ----- --- --- ------ -------- ----- --- ------ ----- --<br>----- bonds ---------- --- --- ------ ------ ---- -- ------<br>------- --- ------ ----- --- ---- ------- -- ---- --- --<br>------- ------,165275.69999980927,165275.0999994278,164859.096,164859.5,164875.766,165292.599,,34,bonds
screen,html.Screen,0_2_1_1_35,2022-05-09T11:37:27.581Z,,,,,,,,,,,,,,,,54,,,,,,,,,,,,,,566.500999427808,,response,,,100,,,,,,Space,keypress(Space),,,,,"-- --- ---- --- ------ ----- ------- ---- -- --- ------- --<br>------- ---------- ------ -- ----- -- ----- -- ---- ------<br>--- ----- --- --- ------ -------- ----- --- ------ ----- --<br>----- ----- plummeted, --- --- ------ ------ ---- -- ------<br>------- --- ------ ----- --- ---- ------- -- ---- --- --<br>------- ------",165859.69999980927,165859.0999994278,165275.928,165275.89999961853,165292.599,165876.182,,35,"plummeted,"
screen,html.Screen,0_2_1_1_36,2022-05-09T11:37:28.228Z,,,,,,,,,,,,,,,,54,,,,,,,,,,,,,,630.5179998092644,,response,,,100,,,,,,Space,keypress(Space),,,,,-- --- ---- --- ------ ----- ------- ---- -- --- ------- --<br>------- ---------- ------ -- ----- -- ----- -- ---- ------<br>--- ----- --- --- ------ -------- ----- --- ------ ----- --<br>----- ----- ---------- and --- ------ ------ ---- -- ------<br>------- --- ------ ----- --- ---- ------- -- ---- --- --<br>------- ------,166507,166506.69999980927,165859.51,165859.89999961853,165876.182,166509.357,,36,and
screen,html.Screen,0_2_1_1_37,2022-05-09T11:37:28.717Z,,,,,,,,,,,,,,,,54,,,,,,,,,,,,,,485.64300000001094,,response,,,100,,,,,,Space,keypress(Space),,,,,-- --- ---- --- ------ ----- ------- ---- -- --- ------- --<br>------- ---------- ------ -- ----- -- ----- -- ---- ------<br>--- ----- --- --- ------ -------- ----- --- ------ ----- --<br>----- ----- ---------- --- the ------ ------ ---- -- ------<br>------- --- ------ ----- --- ---- ------- -- ---- --- --<br>------- ------,166995.39999961853,166995,166492.689,166507.19999980927,166509.357,167009.767,,37,the
screen,html.Screen,0_2_1_1_38,2022-05-09T11:37:29.517Z,,,,,,,,,,,,,,,,54,,,,,,,,,,,,,,785.1329996185377,,response,,,100,,,,,,Space,keypress(Space),,,,,-- --- ---- --- ------ ----- ------- ---- -- --- ------- --<br>------- ---------- ------ -- ----- -- ----- -- ---- ------<br>--- ----- --- --- ------ -------- ----- --- ------ ----- --<br>----- ----- ---------- --- --- market ------ ---- -- ------<br>------- --- ------ ----- --- ---- ------- -- ---- --- --<br>------- ------,167795.69999980927,167794.89999961853,166993.095,166995.39999961853,167009.767,167809.765,,38,market
screen,html.Screen,0_2_1_1_39,2022-05-09T11:37:30.044Z,,,,,,,,,,,,,,,,54,,,,,,,,,,,,,,512.9349998092512,,response,,,100,,,,,,Space,keypress(Space),,,,,-- --- ---- --- ------ ----- ------- ---- -- --- ------- --<br>------- ---------- ------ -- ----- -- ----- -- ---- ------<br>--- ----- --- --- ------ -------- ----- --- ------ ----- --<br>----- ----- ---------- --- --- ------ became ---- -- ------<br>------- --- ------ ----- --- ---- ------- -- ---- --- --<br>------- ------,168323.19999980927,168322.69999980927,167793.096,167795.80000019073,167809.765,168326.801,,39,became
screen,html.Screen,0_2_1_1_40,2022-05-09T11:37:30.620Z,,,,,,,,,,,,,,,,54,,,,,,,,,,,,,,571.7989994277887,,response,,,100,,,,,,Space,keypress(Space),,,,,-- --- ---- --- ------ ----- ------- ---- -- --- ------- --<br>------- ---------- ------ -- ----- -- ----- -- ---- ------<br>--- ----- --- --- ------ -------- ----- --- ------ ----- --<br>----- ----- ---------- --- --- ------ ------ wary -- ------<br>------- --- ------ ----- --- ---- ------- -- ---- --- --<br>------- ------,168899,168898.5999994278,168310.129,168323.30000019073,168326.801,168910.21,,40,wary
screen,html.Screen,0_2_1_1_41,2022-05-09T11:37:31.236Z,,,,,,,,,,,,,,,,54,,,,,,,,,,,,,,604.3899994278036,,response,,,100,,,,,,Space,keypress(Space),,,,,-- --- ---- --- ------ ----- ------- ---- -- --- ------- --<br>------- ---------- ------ -- ----- -- ----- -- ---- ------<br>--- ----- --- --- ------ -------- ----- --- ------ ----- --<br>----- ----- ---------- --- --- ------ ------ ---- of ------<br>------- --- ------ ----- --- ---- ------- -- ---- --- --<br>------- ------,169514.89999961853,169514.5999994278,168893.539,168899.0999994278,168910.21,169526.828,,41,of
screen,html.Screen,0_2_1_1_42,2022-05-09T11:37:31.780Z,,,,,,,,,,,,,,,,54,,,,,,,,,,,,,,531.6719999999914,,response,,,100,,,,,,Space,keypress(Space),,,,,-- --- ---- --- ------ ----- ------- ---- -- --- ------- --<br>------- ---------- ------ -- ----- -- ----- -- ---- ------<br>--- ----- --- --- ------ -------- ----- --- ------ ----- --<br>----- ----- ---------- --- --- ------ ------ ---- -- French<br>------- --- ------ ----- --- ---- ------- -- ---- --- --<br>------- ------,170058.89999961853,170058.5,169510.16,169515,169526.828,170060.581,,42,French
screen,html.Screen,0_2_1_1_43,2022-05-09T11:37:32.413Z,,,,,,,,,,,,,,,,54,,,,,,,,,,,,,,630.4189999999944,,response,,,100,,,,,,Space,keypress(Space),,,,,-- --- ---- --- ------ ----- ------- ---- -- --- ------- --<br>------- ---------- ------ -- ----- -- ----- -- ---- ------<br>--- ----- --- --- ------ -------- ----- --- ------ ----- --<br>----- ----- ---------- --- --- ------ ------ ---- -- ------<br>credit. --- ------ ----- --- ---- ------- -- ---- --- --<br>------- ------,170691.69999980927,170691,170043.909,170058.89999961853,170060.581,170693.862,,43,credit.
screen,html.Screen,0_2_1_1_44,2022-05-09T11:37:33.116Z,,,,,,,,,,,,,,,,54,,,,,,,,,,,,,,700.5379996185366,,response,,,100,,,,,,Space,keypress(Space),,,,,-- --- ---- --- ------ ----- ------- ---- -- --- ------- --<br>------- ---------- ------ -- ----- -- ----- -- ---- ------<br>--- ----- --- --- ------ -------- ----- --- ------ ----- --<br>----- ----- ---------- --- --- ------ ------ ---- -- ------<br>------- The ------ ----- --- ---- ------- -- ---- --- --<br>------- ------,171394.80000019073,171394.39999961853,170677.193,170692,170693.862,171410.843,,44,The
screen,html.Screen,0_2_1_1_45,2022-05-09T11:37:34.244Z,,,,,,,,,,,,,,,,54,,,,,,,,,,,,,,1111.5569996185368,,response,,,100,,,,,,Space,keypress(Space),,,,,-- --- ---- --- ------ ----- ------- ---- -- --- ------- --<br>------- ---------- ------ -- ----- -- ----- -- ---- ------<br>--- ----- --- --- ------ -------- ----- --- ------ ----- --<br>----- ----- ---------- --- --- ------ ------ ---- -- ------<br>------- --- French ----- --- ---- ------- -- ---- --- --<br>------- ------,172522.69999980927,172522.39999961853,171394.172,171394.80000019073,171410.843,172527.89,,45,French
screen,html.Screen,0_2_1_1_46,2022-05-09T11:37:34.692Z,,,,,,,,,,,,,,,,54,,,,,,,,,,,,,,442.4100001907209,,response,,,100,,,,,,Space,keypress(Space),,,,,-- --- ---- --- ------ ----- ------- ---- -- --- ------- --<br>------- ---------- ------ -- ----- -- ----- -- ---- ------<br>--- ----- --- --- ------ -------- ----- --- ------ ----- --<br>----- ----- ---------- --- --- ------ ------ ---- -- ------<br>------- --- ------ state --- ---- ------- -- ---- --- --<br>------- ------,172970.69999980927,172970.30000019073,172511.218,172522.69999980927,172527.89,172977.712,,46,state
screen,html.Screen,0_2_1_1_47,2022-05-09T11:37:35.125Z,,,,,,,,,,,,,,,,54,,,,,,,,,,,,,,424.9879998092656,,response,,,100,,,,,,Space,keypress(Space),,,,,-- --- ---- --- ------ ----- ------- ---- -- --- ------- --<br>------- ---------- ------ -- ----- -- ----- -- ---- ------<br>--- ----- --- --- ------ -------- ----- --- ------ ----- --<br>----- ----- ---------- --- --- ------ ------ ---- -- ------<br>------- --- ------ ----- was ---- ------- -- ---- --- --<br>------- ------,173403.5,173402.69999980927,172961.043,172970.80000019073,172977.712,173411.307,,47,was
screen,html.Screen,0_2_1_1_48,2022-05-09T11:37:35.628Z,,,,,,,,,,,,,,,,54,,,,,,,,,,,,,,495.1929999999993,,response,,,100,,,,,,Space,keypress(Space),,,,,-- --- ---- --- ------ ----- ------- ---- -- --- ------- --<br>------- ---------- ------ -- ----- -- ----- -- ---- ------<br>--- ----- --- --- ------ -------- ----- --- ------ ----- --<br>----- ----- ---------- --- --- ------ ------ ---- -- ------<br>------- --- ------ ----- --- left ------- -- ---- --- --<br>------- ------,173906.80000019073,173906.5,173394.637,173403.69999980927,173411.307,173911.474,,48,left
screen,html.Screen,0_2_1_1_49,2022-05-09T11:37:36.124Z,,,,,,,,,,,,,,,,54,,,,,,,,,,,,,,490.92599961854285,,response,,,100,,,,,,Space,keypress(Space),,,,,-- --- ---- --- ------ ----- ------- ---- -- --- ------- --<br>------- ---------- ------ -- ----- -- ----- -- ---- ------<br>--- ----- --- --- ------ -------- ----- --- ------ ----- --<br>----- ----- ---------- --- --- ------ ------ ---- -- ------<br>------- --- ------ ----- --- ---- without -- ---- --- --<br>------- ------,174402.69999980927,174402.39999961853,173894.803,173906.89999961853,173911.474,174411.543,,49,without
screen,html.Screen,0_2_1_1_50,2022-05-09T11:37:36.612Z,,,,,,,,,,,,,,,,54,,,,,,,,,,,,,,478.75700019072974,,response,,,100,,,,,,Space,keypress(Space),,,,,-- --- ---- --- ------ ----- ------- ---- -- --- ------- --<br>------- ---------- ------ -- ----- -- ----- -- ---- ------<br>--- ----- --- --- ------ -------- ----- --- ------ ----- --<br>----- ----- ---------- --- --- ------ ------ ---- -- ------<br>------- --- ------ ----- --- ---- ------- an ---- --- --<br>------- ------,174890.69999980927,174890.30000019073,174394.873,174402.80000019073,174411.543,174895.087,,50,an
screen,html.Screen,0_2_1_1_51,2022-05-09T11:37:37.212Z,,,,,,,,,,,,,,,,54,,,,,,,,,,,,,,595.2130001907353,,response,,,100,,,,,,Space,keypress(Space),,,,,-- --- ---- --- ------ ----- ------- ---- -- --- ------- --<br>------- ---------- ------ -- ----- -- ----- -- ---- ------<br>--- ----- --- --- ------ -------- ----- --- ------ ----- --<br>----- ----- ---------- --- --- ------ ------ ---- -- ------<br>------- --- ------ ----- --- ---- ------- -- easy --- --<br>------- ------,175490.69999980927,175490.30000019073,174878.416,174890.80000019073,174895.087,175495.153,,51,easy
screen,html.Screen,0_2_1_1_52,2022-05-09T11:37:37.724Z,,,,,,,,,,,,,,,,54,,,,,,,,,,,,,,507.046999809274,,response,,,100,,,,,,Space,keypress(Space),,,,,-- --- ---- --- ------ ----- ------- ---- -- --- ------- --<br>------- ---------- ------ -- ----- -- ----- -- ---- ------<br>--- ----- --- --- ------ -------- ----- --- ------ ----- --<br>----- ----- ---------- --- --- ------ ------ ---- -- ------<br>------- --- ------ ----- --- ---- ------- -- ---- way --<br>------- ------,176002.5,176002.19999980927,175478.483,175490.69999980927,175495.153,176011.947,,52,way
screen,html.Screen,0_2_1_1_53,2022-05-09T11:37:38.308Z,,,,,,,,,,,,,,,,54,,,,,,,,,,,,,,574.3530001907493,,response,,,100,,,,,,Space,keypress(Space),,,,,-- --- ---- --- ------ ----- ------- ---- -- --- ------- --<br>------- ---------- ------ -- ----- -- ----- -- ---- ------<br>--- ----- --- --- ------ -------- ----- --- ------ ----- --<br>----- ----- ---------- --- --- ------ ------ ---- -- ------<br>------- --- ------ ----- --- ---- ------- -- ---- --- of<br>------- ------,176586.5999994278,176586.30000019073,175995.277,176002.5999994278,176011.947,176595.509,,53,of
screen,html.Screen,0_2_1_1_54,2022-05-09T11:37:38.900Z,,,,,,,,,,,,,,,,54,,,,,,,,,,,,,,582.8909996185394,,response,,,100,,,,,,Space,keypress(Space),,,,,-- --- ---- --- ------ ----- ------- ---- -- --- ------- --<br>------- ---------- ------ -- ----- -- ----- -- ---- ------<br>--- ----- --- --- ------ -------- ----- --- ------ ----- --<br>----- ----- ---------- --- --- ------ ------ ---- -- ------<br>------- --- ------ ----- --- ---- ------- -- ---- --- --<br>raising ------,177178.89999961853,177178.39999961853,176578.838,176586.69999980927,176595.509,177195.671,,54,raising
screen,html.Screen,0_2_1_1_55,2022-05-09T11:37:39.404Z,,,,,,,,,,,,,,,,54,,,,,,,,,,,,,,486.4289994277933,,response,,,100,,,,,,Space,keypress(Space),,,,,-- --- ---- --- ------ ----- ------- ---- -- --- ------- --<br>------- ---------- ------ -- ----- -- ----- -- ---- ------<br>--- ----- --- --- ------ -------- ----- --- ------ ----- --<br>----- ----- ---------- --- --- ------ ------ ---- -- ------<br>------- --- ------ ----- --- ---- ------- -- ---- --- --<br>------- money.,177682.5,177682.0999994278,177179,177179,177195.671,177695.812,,55,money.
Item 100,flow.Loop,0_2_1_1,2022-05-09T11:37:39.404Z,,,,,,,,,,,,,,,,,,,,,,,,,,,,,,32878.1839994278,,completion,,,,D,,,,,,,,,,silence,,177682.5999994278,177682.0999994278,144787.246,144788.30000019073,144803.916,177695.812,,,
Question 1,html.Screen,0_2_1_2,2022-05-09T11:37:43.333Z,,,,,,,,,,,,,,,,,,,,,,,,,,,true,TRUE,,3914.9880001907295,,response,,,100,D,,,,,TRUE,click #choice-1,,,,silence,,181612,181610.80000019073,177679.141,177682.69999980927,177695.812,181613.394,,,
Question 2,html.Screen,0_2_1_3,2022-05-09T11:37:45.790Z,,,,,,,,,,,,,,,,,,,,,,,,,,,true,FALSE,,2450.4060001907346,,response,,,100,D,,,,,FALSE,click #choice-2,,,,silence,,184064.5999994278,184063.80000019073,181596.724,181612.19999980927,181613.394,184080.793,,,
Item 100,flow.Sequence,0_2_1,2022-05-09T11:37:45.790Z,,,,,,,,,,,,,,,,,,,,,,,,,,,,,,49262.36500019074,,completion,,,,,,,,,,,,,,,,184064.89999961853,184063.80000019073,134784.765,134795.69999980927,134801.435,184080.793,,,
End of Practice,html.Page,0_2_2,2022-05-09T11:37:50.503Z,,,,,,,,,,,,,,,,,,,,,,,,,,,,,,4696.50700019073,,form submission,,,,,,,,,,,,,,,,188777.39999961853,188777.30000019073,184064.122,184065.0999994278,184080.793,188781.84,,,
Practice,flow.Sequence,0_2,2022-05-09T11:37:50.503Z,,,,,,,,,,,,,,,,,,,,,,,,,,,,,,114875.06600019074,,completion,,,,,,,,,,,,,,,,188777.5999994278,188777.30000019073,73885.564,73889.80000019073,73902.234,188781.84,,,
Trap_instruction,html.Page,0_3_0,2022-05-09T11:37:58.506Z,,,,,,,,,,,,,,,,,,,,,,,,,,,,,,7998.960000190738,,form submission,,,,,,,,,,,,,,,,196781.19999980927,196780.80000019073,188765.17,188777.69999980927,188781.84,197267.023,,,
trap_trial,html.Screen,0_3_1,2022-05-09T11:38:02.039Z,,,,,,,,,,,,,,,,,,,,,,,,,,,true,1,,3046.4770000000135,,response,,,,,,,,,1,click #choice-1,,,,,,200314.0999994278,200313.5,196766.923,196781.5,197267.023,200318.507,,,
end of trap trial,html.Page,0_3_2,2022-05-09T11:38:05.123Z,,,,,,,,,,,,,,,,,,,,,,,,,,,,,,3079.392999618518,,form submission,,,,,,,,,,,,,,,,203398.0999994278,203397.89999961853,200301.835,200314.19999980927,200318.507,203402.351,,,
Trap 1,flow.Sequence,0_3,2022-05-09T11:38:05.123Z,,,,,,,,,,,,,,,,,,,,,,,,,,,,,,14616.059999618534,,completion,,,,,,,,,,,,,,,,203398.19999980927,203397.89999961853,188765.17,188777.5999994278,188781.84,203402.351,,,
Standby,html.Page,0_4_0,2022-05-09T11:38:13.114Z,,,,,,,,,,,,,,,,,,,,,,,,,,,,,,8001.618000000017,,timeout,,,,,,,,,,,,,,,,211389,211387.299,203385.681,203398.30000019073,203402.351,211403.969,,,
Holding screen,html.Screen,0_4_1_0_0,2022-05-09T11:38:20.116Z,,,,,,,,,,,,,,,,,,,,,,,,,,,,,,7002.174999999988,,timeout,,,,,,,,,,,,,,,,218390.89999961853,218389.474,211387.299,211389.39999961853,211403.969,218406.144,,,
screen,html.Screen,0_4_1_0_1_0,2022-05-09T11:38:21.742Z,,,,,,,,,,,,,,,,2,,,,,,,,,,,,,,1609.8559999999998,,response,,,1,D,,,,,Space,keypress(Space),,,,silence,Two ---- ------ --- ------- ---------- ------- ----------<br>--- --------- --- ----------- ------- ----- ------- ---<br>--------- ---- -- --- ---- -- --------- -- ---- -------<br>-- --------- ------ --- ----- ------ ---- --- --------- --<br>------ - ---- -- --- ----------- ------- ---- ----- -----<br>--- -------- - ------ ---- -- ----- ---- --- --- -----------<br>-- -------,220016.39999961853,220016,218389.474,218391.30000019073,218406.144,220023.244,,0,Two
screen,html.Screen,0_4_1_0_1_1,2022-05-09T11:38:22.262Z,,,,,,,,,,,,,,,,2,,,,,,,,,,,,,,512.755999999994,,response,,,1,D,,,,,Space,keypress(Space),,,,silence,--- days ------ --- ------- ---------- ------- ----------<br>--- --------- --- ----------- ------- ----- ------- ---<br>--------- ---- -- --- ---- -- --------- -- ---- -------<br>-- --------- ------ --- ----- ------ ---- --- --------- --<br>------ - ---- -- --- ----------- ------- ---- ----- -----<br>--- -------- - ------ ---- -- ----- ---- --- --- -----------<br>-- -------,220536.89999961853,220536,220006.574,220016.5,220023.244,220540.064,,1,days
screen,html.Screen,0_4_1_0_1_2,2022-05-09T11:38:22.726Z,,,,,,,,,,,,,,,,2,,,,,,,,,,,,,,460.0359994277824,,response,,,1,D,,,,,Space,keypress(Space),,,,silence,"--- ---- later, --- ------- ---------- ------- ----------<br>--- --------- --- ----------- ------- ----- ------- ---<br>--------- ---- -- --- ---- -- --------- -- ---- -------<br>-- --------- ------ --- ----- ------ ---- --- --------- --<br>------ - ---- -- --- ----------- ------- ---- ----- -----<br>--- -------- - ------ ---- -- ----- ---- --- --- -----------<br>-- -------",221001.0999994278,221000.0999994278,220523.394,220537.0999994278,220540.064,221006.899,,2,"later,"
screen,html.Screen,0_4_1_0_1_3,2022-05-09T11:38:23.221Z,,,,,,,,,,,,,,,,2,,,,,,,,,,,,,,488.80099980926025,,response,,,1,D,,,,,Space,keypress(Space),,,,silence,--- ---- ------ the ------- ---------- ------- ----------<br>--- --------- --- ----------- ------- ----- ------- ---<br>--------- ---- -- --- ---- -- --------- -- ---- -------<br>-- --------- ------ --- ----- ------ ---- --- --------- --<br>------ - ---- -- --- ----------- ------- ---- ----- -----<br>--- -------- - ------ ---- -- ----- ---- --- --- -----------<br>-- -------,221496.19999980927,221495.69999980927,220990.229,221001.39999961853,221006.899,221507.027,,3,the
screen,html.Screen,0_4_1_0_1_4,2022-05-09T11:38:23.781Z,,,,,,,,,,,,,,,,2,,,,,,,,,,,,,,548.6729998092633,,response,,,1,D,,,,,Space,keypress(Space),,,,silence,--- ---- ------ --- British ---------- ------- ----------<br>--- --------- --- ----------- ------- ----- ------- ---<br>--------- ---- -- --- ---- -- --------- -- ---- -------<br>-- --------- ------ --- ----- ------ ---- --- --------- --<br>------ - ---- -- --- ----------- ------- ---- ----- -----<br>--- -------- - ------ ---- -- ----- ---- --- --- -----------<br>-- -------,222056,222055.69999980927,221490.357,221496.19999980927,221507.027,222057.217,,4,British
screen,html.Screen,0_4_1_0_1_5,2022-05-09T11:38:24.846Z,,,,,,,,,,,,,,,,2,,,,,,,,,,,,,,1062.482999809261,,response,,,1,D,,,,,Space,keypress(Space),,,,silence,--- ---- ------ --- ------- astronomer ------- ----------<br>--- --------- --- ----------- ------- ----- ------- ---<br>--------- ---- -- --- ---- -- --------- -- ---- -------<br>-- --------- ------ --- ----- ------ ---- --- --------- --<br>------ - ---- -- --- ----------- ------- ---- ----- -----<br>--- -------- - ------ ---- -- ----- ---- --- --- -----------<br>-- -------,223120.5,223119.69999980927,222040.546,222056.0999994278,222057.217,223124.246,,5,astronomer
screen,html.Screen,0_4_1_0_1_6,2022-05-09T11:38:25.430Z,,,,,,,,,,,,,,,,2,,,,,,,,,,,,,,579.6539996185165,,response,,,1,D,,,,,Space,keypress(Space),,,,silence,--- ---- ------ --- ------- ---------- Richard ----------<br>--- --------- --- ----------- ------- ----- ------- ---<br>--------- ---- -- --- ---- -- --------- -- ---- -------<br>-- --------- ------ --- ----- ------ ---- --- --------- --<br>------ - ---- -- --- ----------- ------- ---- ----- -----<br>--- -------- - ------ ---- -- ----- ---- --- --- -----------<br>-- -------,223704.80000019073,223703.89999961853,223107.574,223120.5999994278,223124.246,223707.452,,6,Richard
screen,html.Screen,0_4_1_0_1_7,2022-05-09T11:38:26.533Z,,,,,,,,,,,,,,,,2,,,,,,,,,,,,,,1100.0480000000098,,response,,,1,D,,,,,Space,keypress(Space),,,,silence,--- ---- ------ --- ------- ---------- ------- Carrington<br>--- --------- --- ----------- ------- ----- ------- ---<br>--------- ---- -- --- ---- -- --------- -- ---- -------<br>-- --------- ------ --- ----- ------ ---- --- --------- --<br>------ - ---- -- --- ----------- ------- ---- ----- -----<br>--- -------- - ------ ---- -- ----- ---- --- --- -----------<br>-- -------,224807.80000019073,224807.5,223690.783,223705,223707.452,224824.508,,7,Carrington
screen,html.Screen,0_4_1_0_1_8,2022-05-09T11:38:27.445Z,,,,,,,,,,,,,,,,2,,,,,,,,,,,,,,894.8919996185286,,response,,,1,D,,,,,Space,keypress(Space),,,,silence,--- ---- ------ --- ------- ---------- ------- ----------<br>was --------- --- ----------- ------- ----- ------- ---<br>--------- ---- -- --- ---- -- --------- -- ---- -------<br>-- --------- ------ --- ----- ------ ---- --- --------- --<br>------ - ---- -- --- ----------- ------- ---- ----- -----<br>--- -------- - ------ ---- -- ----- ---- --- --- -----------<br>-- -------,225719.80000019073,225719.39999961853,224807.838,224807.89999961853,224824.508,225724.748,,8,was
screen,html.Screen,0_4_1_0_1_9,2022-05-09T11:38:28.030Z,,,,,,,,,,,,,,,,2,,,,,,,,,,,,,,579.151999618538,,response,,,1,D,,,,,Space,keypress(Space),,,,silence,--- ---- ------ --- ------- ---------- ------- ----------<br>--- observing --- ----------- ------- ----- ------- ---<br>--------- ---- -- --- ---- -- --------- -- ---- -------<br>-- --------- ------ --- ----- ------ ---- --- --------- --<br>------ - ---- -- --- ----------- ------- ---- ----- -----<br>--- -------- - ------ ---- -- ----- ---- --- --- -----------<br>-- -------,226304.5999994278,226303.89999961853,225708.078,225719.80000019073,225724.748,226308.201,,9,observing
screen,html.Screen,0_4_1_0_1_10,2022-05-09T11:38:28.558Z,,,,,,,,,,,,,,,,2,,,,,,,,,,,,,,523.5990001907339,,response,,,1,D,,,,,Space,keypress(Space),,,,silence,--- ---- ------ --- ------- ---------- ------- ----------<br>--- --------- the ----------- ------- ----- ------- ---<br>--------- ---- -- --- ---- -- --------- -- ---- -------<br>-- --------- ------ --- ----- ------ ---- --- --------- --<br>------ - ---- -- --- ----------- ------- ---- ----- -----<br>--- -------- - ------ ---- -- ----- ---- --- --- -----------<br>-- -------,226832.5999994278,226831.80000019073,226291.531,226304.89999961853,226308.201,226841.908,,10,the
screen,html.Screen,0_4_1_0_1_11,2022-05-09T11:38:29.158Z,,,,,,,,,,,,,,,,2,,,,,,,,,,,,,,589.7919998092693,,response,,,1,D,,,,,Space,keypress(Space),,,,silence,--- ---- ------ --- ------- ---------- ------- ----------<br>--- --------- --- interesting ------- ----- ------- ---<br>--------- ---- -- --- ---- -- --------- -- ---- -------<br>-- --------- ------ --- ----- ------ ---- --- --------- --<br>------ - ---- -- --- ----------- ------- ---- ----- -----<br>--- -------- - ------ ---- -- ----- ---- --- --- -----------<br>-- -------,227432.5,227431.69999980927,226825.236,226832.69999980927,226841.908,227441.907,,11,interesting
screen,html.Screen,0_4_1_0_1_12,2022-05-09T11:38:29.813Z,,,,,,,,,,,,,,,,2,,,,,,,,,,,,,,645.4929996185238,,response,,,1,D,,,,,Space,keypress(Space),,,,silence,--- ---- ------ --- ------- ---------- ------- ----------<br>--- --------- --- ----------- sunspot ----- ------- ---<br>--------- ---- -- --- ---- -- --------- -- ---- -------<br>-- --------- ------ --- ----- ------ ---- --- --------- --<br>------ - ---- -- --- ----------- ------- ---- ----- -----<br>--- -------- - ------ ---- -- ----- ---- --- --- -----------<br>-- -------,228087.5999994278,228087.39999961853,227425.237,227432.69999980927,227441.907,228091.943,,12,sunspot
screen,html.Screen,0_4_1_0_1_13,2022-05-09T11:38:30.493Z,,,,,,,,,,,,,,,,2,,,,,,,,,,,,,,675.3570001907356,,response,,,1,D,,,,,Space,keypress(Space),,,,silence,--- ---- ------ --- ------- ---------- ------- ----------<br>--- --------- --- ----------- ------- group ------- ---<br>--------- ---- -- --- ---- -- --------- -- ---- -------<br>-- --------- ------ --- ----- ------ ---- --- --------- --<br>------ - ---- -- --- ----------- ------- ---- ----- -----<br>--- -------- - ------ ---- -- ----- ---- --- --- -----------<br>-- -------,228767.69999980927,228767.30000019073,228075.274,228087.69999980927,228091.943,228775.606,,13,group
screen,html.Screen,0_4_1_0_1_14,2022-05-09T11:38:30.990Z,,,,,,,,,,,,,,,,2,,,,,,,,,,,,,,487.99399942779564,,response,,,1,D,,,,,Space,keypress(Space),,,,silence,--- ---- ------ --- ------- ---------- ------- ----------<br>--- --------- --- ----------- ------- ----- through ---<br>--------- ---- -- --- ---- -- --------- -- ---- -------<br>-- --------- ------ --- ----- ------ ---- --- --------- --<br>------ - ---- -- --- ----------- ------- ---- ----- -----<br>--- -------- - ------ ---- -- ----- ---- --- --- -----------<br>-- -------,229264.5,229263.5999994278,228758.935,228767.69999980927,228775.606,229275.676,,14,through
screen,html.Screen,0_4_1_0_1_15,2022-05-09T11:38:31.469Z,,,,,,,,,,,,,,,,2,,,,,,,,,,,,,,467.5239998092584,,response,,,1,D,,,,,Space,keypress(Space),,,,silence,--- ---- ------ --- ------- ---------- ------- ----------<br>--- --------- --- ----------- ------- ----- ------- his<br>--------- ---- -- --- ---- -- --------- -- ---- -------<br>-- --------- ------ --- ----- ------ ---- --- --------- --<br>------ - ---- -- --- ----------- ------- ---- ----- -----<br>--- -------- - ------ ---- -- ----- ---- --- --- -----------<br>-- -------,229743.69999980927,229743.19999980927,229259.006,229264.69999980927,229275.676,229759.15,,15,his
screen,html.Screen,0_4_1_0_1_16,2022-05-09T11:38:32.069Z,,,,,,,,,,,,,,,,2,,,,,,,,,,,,,,584.3500000000058,,response,,,1,D,,,,,Space,keypress(Space),,,,silence,--- ---- ------ --- ------- ---------- ------- ----------<br>--- --------- --- ----------- ------- ----- ------- ---<br>telescope ---- -- --- ---- -- --------- -- ---- -------<br>-- --------- ------ --- ----- ------ ---- --- --------- --<br>------ - ---- -- --- ----------- ------- ---- ----- -----<br>--- -------- - ------ ---- -- ----- ---- --- --- -----------<br>-- -------,230343.89999961853,230343.5,229742.48,229743.69999980927,229759.15,230359.353,,16,telescope
screen,html.Screen,0_4_1_0_1_17,2022-05-09T11:38:32.693Z,,,,,,,,,,,,,,,,2,,,,,,,,,,,,,,608.1469999999972,,response,,,1,D,,,,,Space,keypress(Space),,,,silence,--- ---- ------ --- ------- ---------- ------- ----------<br>--- --------- --- ----------- ------- ----- ------- ---<br>--------- when -- --- ---- -- --------- -- ---- -------<br>-- --------- ------ --- ----- ------ ---- --- --------- --<br>------ - ---- -- --- ----------- ------- ---- ----- -----<br>--- -------- - ------ ---- -- ----- ---- --- --- -----------<br>-- -------,230968.39999961853,230967.5,230342.682,230344,230359.353,230976.04,,17,when
screen,html.Screen,0_4_1_0_1_18,2022-05-09T11:38:33.133Z,,,,,,,,,,,,,,,,2,,,,,,,,,,,,,,431.2600001907267,,response,,,1,D,,,,,Space,keypress(Space),,,,silence,--- ---- ------ --- ------- ---------- ------- ----------<br>--- --------- --- ----------- ------- ----- ------- ---<br>--------- ---- he --- ---- -- --------- -- ---- -------<br>-- --------- ------ --- ----- ------ ---- --- --------- --<br>------ - ---- -- --- ----------- ------- ---- ----- -----<br>--- -------- - ------ ---- -- ----- ---- --- --- -----------<br>-- -------,231407.89999961853,231407.30000019073,230959.371,230968.5,230976.04,231409.666,,18,he
screen,html.Screen,0_4_1_0_1_19,2022-05-09T11:38:33.533Z,,,,,,,,,,,,,,,,2,,,,,,,,,,,,,,397.6340001907374,,response,,,1,D,,,,,Space,keypress(Space),,,,silence,--- ---- ------ --- ------- ---------- ------- ----------<br>--- --------- --- ----------- ------- ----- ------- ---<br>--------- ---- -- saw ---- -- --------- -- ---- -------<br>-- --------- ------ --- ----- ------ ---- --- --------- --<br>------ - ---- -- --- ----------- ------- ---- ----- -----<br>--- -------- - ------ ---- -- ----- ---- --- --- -----------<br>-- -------,231807.5999994278,231807.30000019073,231392.994,231408.0999994278,231409.666,231809.623,,19,saw
screen,html.Screen,0_4_1_0_1_20,2022-05-09T11:38:33.965Z,,,,,,,,,,,,,,,,2,,,,,,,,,,,,,,429.77699961853796,,response,,,1,D,,,,,Space,keypress(Space),,,,silence,--- ---- ------ --- ------- ---------- ------- ----------<br>--- --------- --- ----------- ------- ----- ------- ---<br>--------- ---- -- --- what -- --------- -- ---- -------<br>-- --------- ------ --- ----- ------ ---- --- --------- --<br>------ - ---- -- --- ----------- ------- ---- ----- -----<br>--- -------- - ------ ---- -- ----- ---- --- --- -----------<br>-- -------,232240.19999980927,232239.39999961853,231792.954,231807.5999994278,231809.623,232243.246,,20,what
screen,html.Screen,0_4_1_0_1_21,2022-05-09T11:38:34.357Z,,,,,,,,,,,,,,,,2,,,,,,,,,,,,,,388.0540001907211,,response,,,1,D,,,,,Space,keypress(Space),,,,silence,--- ---- ------ --- ------- ---------- ------- ----------<br>--- --------- --- ----------- ------- ----- ------- ---<br>--------- ---- -- --- ---- he --------- -- ---- -------<br>-- --------- ------ --- ----- ------ ---- --- --------- --<br>------ - ---- -- --- ----------- ------- ---- ----- -----<br>--- -------- - ------ ---- -- ----- ---- --- --- -----------<br>-- -------,232631.5,232631.30000019073,232226.574,232240.5,232243.246,232643.322,,21,he
screen,html.Screen,0_4_1_0_1_22,2022-05-09T11:38:34.804Z,,,,,,,,,,,,,,,,2,,,,,,,,,,,,,,435.67800000001444,,response,,,1,D,,,,,Space,keypress(Space),,,,silence,--- ---- ------ --- ------- ---------- ------- ----------<br>--- --------- --- ----------- ------- ----- ------- ---<br>--------- ---- -- --- ---- -- described -- ---- -------<br>-- --------- ------ --- ----- ------ ---- --- --------- --<br>------ - ---- -- --- ----------- ------- ---- ----- -----<br>--- -------- - ------ ---- -- ----- ---- --- --- -----------<br>-- -------,233079.39999961853,233079,232626.651,232631.5999994278,232643.322,233093.249,,22,described
screen,html.Screen,0_4_1_0_1_23,2022-05-09T11:38:35.220Z,,,,,,,,,,,,,,,,2,,,,,,,,,,,,,,401.8509994277847,,response,,,1,D,,,,,Space,keypress(Space),,,,silence,--- ---- ------ --- ------- ---------- ------- ----------<br>--- --------- --- ----------- ------- ----- ------- ---<br>--------- ---- -- --- ---- -- --------- as ---- -------<br>-- --------- ------ --- ----- ------ ---- --- --------- --<br>------ - ---- -- --- ----------- ------- ---- ----- -----<br>--- -------- - ------ ---- -- ----- ---- --- --- -----------<br>-- -------,233495.39999961853,233495.0999994278,233076.581,233079.39999961853,233093.249,233510.096,,23,as
screen,html.Screen,0_4_1_0_1_24,2022-05-09T11:38:35.653Z,,,,,,,,,,,,,,,,2,,,,,,,,,,,,,,417.1039998092747,,response,,,1,D,,,,,Space,keypress(Space),,,,silence,"--- ---- ------ --- ------- ---------- ------- ----------<br>--- --------- --- ----------- ------- ----- ------- ---<br>--------- ---- -- --- ---- -- --------- -- ""two -------<br>-- --------- ------ --- ----- ------ ---- --- --------- --<br>------ - ---- -- --- ----------- ------- ---- ----- -----<br>--- -------- - ------ ---- -- ----- ---- --- --- -----------<br>-- -------",233927.69999980927,233927.19999980927,233493.426,233495.5,233510.096,233943.612,,24,"""two"
screen,html.Screen,0_4_1_0_1_25,2022-05-09T11:38:36.380Z,,,,,,,,,,,,,,,,2,,,,,,,,,,,,,,711.2879996185366,,response,,,1,D,,,,,Space,keypress(Space),,,,silence,--- ---- ------ --- ------- ---------- ------- ----------<br>--- --------- --- ----------- ------- ----- ------- ---<br>--------- ---- -- --- ---- -- --------- -- ---- patches<br>-- --------- ------ --- ----- ------ ---- --- --------- --<br>------ - ---- -- --- ----------- ------- ---- ----- -----<br>--- -------- - ------ ---- -- ----- ---- --- --- -----------<br>-- -------,234655.30000019073,234654.89999961853,233926.941,233927.89999961853,233943.612,234660.38,,25,patches
screen,html.Screen,0_4_1_0_1_26,2022-05-09T11:38:36.852Z,,,,,,,,,,,,,,,,2,,,,,,,,,,,,,,466.5199996185256,,response,,,1,D,,,,,Space,keypress(Space),,,,silence,--- ---- ------ --- ------- ---------- ------- ----------<br>--- --------- --- ----------- ------- ----- ------- ---<br>--------- ---- -- --- ---- -- --------- -- ---- -------<br>of --------- ------ --- ----- ------ ---- --- --------- --<br>------ - ---- -- --- ----------- ------- ---- ----- -----<br>--- -------- - ------ ---- -- ----- ---- --- --- -----------<br>-- -------,235127.30000019073,235126.89999961853,234643.71,234655.30000019073,234660.38,235143.93,,26,of
screen,html.Screen,0_4_1_0_1_27,2022-05-09T11:38:38.021Z,,,,,,,,,,,,,,,,2,,,,,,,,,,,,,,1151.3700001907418,,response,,,1,D,,,,,Space,keypress(Space),,,,silence,--- ---- ------ --- ------- ---------- ------- ----------<br>--- --------- --- ----------- ------- ----- ------- ---<br>--------- ---- -- --- ---- -- --------- -- ---- -------<br>-- intensely ------ --- ----- ------ ---- --- --------- --<br>------ - ---- -- --- ----------- ------- ---- ----- -----<br>--- -------- - ------ ---- -- ----- ---- --- --- -----------<br>-- -------,236296.19999980927,236295.30000019073,235127.258,235127.39999961853,235143.93,236310.703,,27,intensely
screen,html.Screen,0_4_1_0_1_28,2022-05-09T11:38:38.820Z,,,,,,,,,,,,,,,,2,,,,,,,,,,,,,,784.1969996185217,,response,,,1,D,,,,,Space,keypress(Space),,,,silence,--- ---- ------ --- ------- ---------- ------- ----------<br>--- --------- --- ----------- ------- ----- ------- ---<br>--------- ---- -- --- ---- -- --------- -- ---- -------<br>-- --------- bright --- ----- ------ ---- --- --------- --<br>------ - ---- -- --- ----------- ------- ---- ----- -----<br>--- -------- - ------ ---- -- ----- ---- --- --- -----------<br>-- -------,237095.30000019073,237094.89999961853,236294.034,236296.39999961853,236310.703,237110.994,,28,bright
screen,html.Screen,0_4_1_0_1_29,2022-05-09T11:38:39.244Z,,,,,,,,,,,,,,,,2,,,,,,,,,,,,,,407.9059996185242,,response,,,1,D,,,,,Space,keypress(Space),,,,silence,--- ---- ------ --- ------- ---------- ------- ----------<br>--- --------- --- ----------- ------- ----- ------- ---<br>--------- ---- -- --- ---- -- --------- -- ---- -------<br>-- --------- ------ and ----- ------ ---- --- --------- --<br>------ - ---- -- --- ----------- ------- ---- ----- -----<br>--- -------- - ------ ---- -- ----- ---- --- --- -----------<br>-- -------,237519.30000019073,237518.89999961853,237094.324,237095.30000019073,237110.994,237527.878,,29,and
screen,html.Screen,0_4_1_0_1_30,2022-05-09T11:38:39.708Z,,,,,,,,,,,,,,,,2,,,,,,,,,,,,,,454.9220001907379,,response,,,1,D,,,,,Space,keypress(Space),,,,silence,--- ---- ------ --- ------- ---------- ------- ----------<br>--- --------- --- ----------- ------- ----- ------- ---<br>--------- ---- -- --- ---- -- --------- -- ---- -------<br>-- --------- ------ --- white ------ ---- --- --------- --<br>------ - ---- -- --- ----------- ------- ---- ----- -----<br>--- -------- - ------ ---- -- ----- ---- --- --- -----------<br>-- -------,237983.0999994278,237982.80000019073,237511.207,237519.5,237527.878,237994.548,,30,white
screen,html.Screen,0_4_1_0_1_31,2022-05-09T11:38:40.164Z,,,,,,,,,,,,,,,,2,,,,,,,,,,,,,,444.2520001907251,,response,,,1,D,,,,,Space,keypress(Space),,,,silence,"--- ---- ------ --- ------- ---------- ------- ----------<br>--- --------- --- ----------- ------- ----- ------- ---<br>--------- ---- -- --- ---- -- --------- -- ---- -------<br>-- --------- ------ --- ----- light"" ---- --- --------- --<br>------ - ---- -- --- ----------- ------- ---- ----- -----<br>--- -------- - ------ ---- -- ----- ---- --- --- -----------<br>-- -------",238439.0999994278,238438.80000019073,237977.879,237983.19999980927,237994.548,238444.821,,31,"light"""
screen,html.Screen,0_4_1_0_1_32,2022-05-09T11:38:40.645Z,,,,,,,,,,,,,,,,2,,,,,,,,,,,,,,474.37899980926886,,response,,,1,D,,,,,Space,keypress(Space),,,,silence,--- ---- ------ --- ------- ---------- ------- ----------<br>--- --------- --- ----------- ------- ----- ------- ---<br>--------- ---- -- --- ---- -- --------- -- ---- -------<br>-- --------- ------ --- ----- ------ over --- --------- --<br>------ - ---- -- --- ----------- ------- ---- ----- -----<br>--- -------- - ------ ---- -- ----- ---- --- --- -----------<br>-- -------,238920,238919.19999980927,238428.149,238439.19999980927,238444.821,238928.105,,32,over
screen,html.Screen,0_4_1_0_1_33,2022-05-09T11:38:41.092Z,,,,,,,,,,,,,,,,2,,,,,,,,,,,,,,438.59499980925466,,response,,,1,D,,,,,Space,keypress(Space),,,,silence,--- ---- ------ --- ------- ---------- ------- ----------<br>--- --------- --- ----------- ------- ----- ------- ---<br>--------- ---- -- --- ---- -- --------- -- ---- -------<br>-- --------- ------ --- ----- ------ ---- the --------- --<br>------ - ---- -- --- ----------- ------- ---- ----- -----<br>--- -------- - ------ ---- -- ----- ---- --- --- -----------<br>-- -------,239367,239366.69999980927,238911.436,238920.30000019073,238928.105,239378.261,,33,the
screen,html.Screen,0_4_1_0_1_34,2022-05-09T11:38:41.772Z,,,,,,,,,,,,,,,,2,,,,,,,,,,,,,,668.5390001907363,,response,,,1,D,,,,,Space,keypress(Space),,,,silence,--- ---- ------ --- ------- ---------- ------- ----------<br>--- --------- --- ----------- ------- ----- ------- ---<br>--------- ---- -- --- ---- -- --------- -- ---- -------<br>-- --------- ------ --- ----- ------ ---- --- sunspots. --<br>------ - ---- -- --- ----------- ------- ---- ----- -----<br>--- -------- - ------ ---- -- ----- ---- --- --- -----------<br>-- -------,240047.0999994278,240046.80000019073,239361.591,239367.0999994278,239378.261,240061.855,,34,sunspots.
screen,html.Screen,0_4_1_0_1_35,2022-05-09T11:38:42.365Z,,,,,,,,,,,,,,,,2,,,,,,,,,,,,,,577.1449999999895,,response,,,1,D,,,,,Space,keypress(Space),,,,silence,--- ---- ------ --- ------- ---------- ------- ----------<br>--- --------- --- ----------- ------- ----- ------- ---<br>--------- ---- -- --- ---- -- --------- -- ---- -------<br>-- --------- ------ --- ----- ------ ---- --- --------- He<br>------ - ---- -- --- ----------- ------- ---- ----- -----<br>--- -------- - ------ ---- -- ----- ---- --- --- -----------<br>-- -------,240639.39999961853,240639,240045.184,240047.19999980927,240061.855,240645.286,,35,He
screen,html.Screen,0_4_1_0_1_36,2022-05-09T11:38:43.276Z,,,,,,,,,,,,,,,,2,,,,,,,,,,,,,,905.5140001907421,,response,,,1,D,,,,,Space,keypress(Space),,,,silence,--- ---- ------ --- ------- ---------- ------- ----------<br>--- --------- --- ----------- ------- ----- ------- ---<br>--------- ---- -- --- ---- -- --------- -- ---- -------<br>-- --------- ------ --- ----- ------ ---- --- --------- --<br>jotted - ---- -- --- ----------- ------- ---- ----- -----<br>--- -------- - ------ ---- -- ----- ---- --- --- -----------<br>-- -------,241551.19999980927,241550.80000019073,240628.616,240639.5,240645.286,241562.261,,36,jotted
screen,html.Screen,0_4_1_0_1_37,2022-05-09T11:38:43.724Z,,,,,,,,,,,,,,,,2,,,,,,,,,,,,,,436.2390000000014,,response,,,1,D,,,,,Space,keypress(Space),,,,silence,--- ---- ------ --- ------- ---------- ------- ----------<br>--- --------- --- ----------- ------- ----- ------- ---<br>--------- ---- -- --- ---- -- --------- -- ---- -------<br>-- --------- ------ --- ----- ------ ---- --- --------- --<br>------ a ---- -- --- ----------- ------- ---- ----- -----<br>--- -------- - ------ ---- -- ----- ---- --- --- -----------<br>-- -------,241998.89999961853,241998.5,241545.59,241551.39999961853,241562.261,242012.213,,37,a
screen,html.Screen,0_4_1_0_1_38,2022-05-09T11:38:44.196Z,,,,,,,,,,,,,,,,2,,,,,,,,,,,,,,458.58700019074604,,response,,,1,D,,,,,Space,keypress(Space),,,,silence,--- ---- ------ --- ------- ---------- ------- ----------<br>--- --------- --- ----------- ------- ----- ------- ---<br>--------- ---- -- --- ---- -- --------- -- ---- -------<br>-- --------- ------ --- ----- ------ ---- --- --------- --<br>------ - note -- --- ----------- ------- ---- ----- -----<br>--- -------- - ------ ---- -- ----- ---- --- --- -----------<br>-- -------,242471.30000019073,242470.80000019073,241995.544,241999,242012.213,242479.158,,38,note
screen,html.Screen,0_4_1_0_1_39,2022-05-09T11:38:44.648Z,,,,,,,,,,,,,,,,2,,,,,,,,,,,,,,439.5419998092693,,response,,,1,D,,,,,Space,keypress(Space),,,,silence,--- ---- ------ --- ------- ---------- ------- ----------<br>--- --------- --- ----------- ------- ----- ------- ---<br>--------- ---- -- --- ---- -- --------- -- ---- -------<br>-- --------- ------ --- ----- ------ ---- --- --------- --<br>------ - ---- in --- ----------- ------- ---- ----- -----<br>--- -------- - ------ ---- -- ----- ---- --- --- -----------<br>-- -------,242919.39999961853,242918.69999980927,242462.487,242471.5,242479.158,242929.134,,39,in
screen,html.Screen,0_4_1_0_1_40,2022-05-09T11:38:45.143Z,,,,,,,,,,,,,,,,2,,,,,,,,,,,,,,485.3660000000091,,response,,,1,D,,,,,Space,keypress(Space),,,,silence,--- ---- ------ --- ------- ---------- ------- ----------<br>--- --------- --- ----------- ------- ----- ------- ---<br>--------- ---- -- --- ---- -- --------- -- ---- -------<br>-- --------- ------ --- ----- ------ ---- --- --------- --<br>------ - ---- -- his ----------- ------- ---- ----- -----<br>--- -------- - ------ ---- -- ----- ---- --- --- -----------<br>-- -------,243414.80000019073,243414.5,242912.465,242919.39999961853,242929.134,243429.311,,40,his
screen,html.Screen,0_4_1_0_1_41,2022-05-09T11:38:46.336Z,,,,,,,,,,,,,,,,2,,,,,,,,,,,,,,1177.189000000013,,response,,,1,D,,,,,Space,keypress(Space),,,,silence,--- ---- ------ --- ------- ---------- ------- ----------<br>--- --------- --- ----------- ------- ----- ------- ---<br>--------- ---- -- --- ---- -- --------- -- ---- -------<br>-- --------- ------ --- ----- ------ ---- --- --------- --<br>------ - ---- -- --- painstaking ------- ---- ----- -----<br>--- -------- - ------ ---- -- ----- ---- --- --- -----------<br>-- -------,244607,244606.5,243412.641,243414.89999961853,243429.311,244613.188,,41,painstaking
screen,html.Screen,0_4_1_0_1_42,2022-05-09T11:38:47.047Z,,,,,,,,,,,,,,,,2,,,,,,,,,,,,,,705.2119996185356,,response,,,1,D,,,,,Space,keypress(Space),,,,silence,--- ---- ------ --- ------- ---------- ------- ----------<br>--- --------- --- ----------- ------- ----- ------- ---<br>--------- ---- -- --- ---- -- --------- -- ---- -------<br>-- --------- ------ --- ----- ------ ---- --- --------- --<br>------ - ---- -- --- ----------- record. ---- ----- -----<br>--- -------- - ------ ---- -- ----- ---- --- --- -----------<br>-- -------,245318.80000019073,245318.39999961853,244596.516,244607.0999994278,244613.188,245329.673,,42,record.
screen,html.Screen,0_4_1_0_1_43,2022-05-09T11:38:47.735Z,,,,,,,,,,,,,,,,2,,,,,,,,,,,,,,676.7269996185205,,response,,,1,D,,,,,Space,keypress(Space),,,,silence,--- ---- ------ --- ------- ---------- ------- ----------<br>--- --------- --- ----------- ------- ----- ------- ---<br>--------- ---- -- --- ---- -- --------- -- ---- -------<br>-- --------- ------ --- ----- ------ ---- --- --------- --<br>------ - ---- -- --- ----------- ------- That ----- -----<br>--- -------- - ------ ---- -- ----- ---- --- --- -----------<br>-- -------,246006.89999961853,246006.39999961853,245313.004,245318.80000019073,245329.673,246013.299,,43,That
screen,html.Screen,0_4_1_0_1_44,2022-05-09T11:38:48.176Z,,,,,,,,,,,,,,,,2,,,,,,,,,,,,,,433.20100000000093,,response,,,1,D,,,,,Space,keypress(Space),,,,silence,--- ---- ------ --- ------- ---------- ------- ----------<br>--- --------- --- ----------- ------- ----- ------- ---<br>--------- ---- -- --- ---- -- --------- -- ---- -------<br>-- --------- ------ --- ----- ------ ---- --- --------- --<br>------ - ---- -- --- ----------- ------- ---- night -----<br>--- -------- - ------ ---- -- ----- ---- --- --- -----------<br>-- -------,246446.89999961853,246446.5,245996.629,246007,246013.299,246463.442,,44,night
screen,html.Screen,0_4_1_0_1_45,2022-05-09T11:38:49.543Z,,,,,,,,,,,,,,,,2,,,,,,,,,,,,,,1350.9579996185203,,response,,,1,D,,,,,Space,keypress(Space),,,,silence,--- ---- ------ --- ------- ---------- ------- ----------<br>--- --------- --- ----------- ------- ----- ------- ---<br>--------- ---- -- --- ---- -- --------- -- ---- -------<br>-- --------- ------ --- ----- ------ ---- --- --------- --<br>------ - ---- -- --- ----------- ------- ---- ----- there<br>--- -------- - ------ ---- -- ----- ---- --- --- -----------<br>-- -------,247814.80000019073,247814.39999961853,246446.772,246447.0999994278,246463.442,247830.408,,45,there
screen,html.Screen,0_4_1_0_1_46,2022-05-09T11:38:50.111Z,,,,,,,,,,,,,,,,2,,,,,,,,,,,,,,551.892000190739,,response,,,1,D,,,,,Space,keypress(Space),,,,silence,--- ---- ------ --- ------- ---------- ------- ----------<br>--- --------- --- ----------- ------- ----- ------- ---<br>--------- ---- -- --- ---- -- --------- -- ---- -------<br>-- --------- ------ --- ----- ------ ---- --- --------- --<br>------ - ---- -- --- ----------- ------- ---- ----- -----<br>was -------- - ------ ---- -- ----- ---- --- --- -----------<br>-- -------,248382.5,248382.30000019073,247813.738,247815,247830.408,248397.328,,46,was
screen,html.Screen,0_4_1_0_1_47,2022-05-09T11:38:50.520Z,,,,,,,,,,,,,,,,2,,,,,,,,,,,,,,393.07199961852166,,response,,,1,D,,,,,Space,keypress(Space),,,,silence,--- ---- ------ --- ------- ---------- ------- ----------<br>--- --------- --- ----------- ------- ----- ------- ---<br>--------- ---- -- --- ---- -- --------- -- ---- -------<br>-- --------- ------ --- ----- ------ ---- --- --------- --<br>------ - ---- -- --- ----------- ------- ---- ----- -----<br>--- scarcely - ------ ---- -- ----- ---- --- --- -----------<br>-- -------,248791.30000019073,248790.39999961853,248380.657,248382.5999994278,248397.328,248797.391,,47,scarcely
screen,html.Screen,0_4_1_0_1_48,2022-05-09T11:38:51.007Z,,,,,,,,,,,,,,,,2,,,,,,,,,,,,,,480.8089998092619,,response,,,1,D,,,,,Space,keypress(Space),,,,silence,--- ---- ------ --- ------- ---------- ------- ----------<br>--- --------- --- ----------- ------- ----- ------- ---<br>--------- ---- -- --- ---- -- --------- -- ---- -------<br>-- --------- ------ --- ----- ------ ---- --- --------- --<br>------ - ---- -- --- ----------- ------- ---- ----- -----<br>--- -------- a ------ ---- -- ----- ---- --- --- -----------<br>-- -------,249278.5999994278,249278.19999980927,248780.721,248791.5,248797.391,249280.835,,48,a
screen,html.Screen,0_4_1_0_1_49,2022-05-09T11:38:51.535Z,,,,,,,,,,,,,,,,2,,,,,,,,,,,,,,525.3649998092733,,response,,,1,D,,,,,Space,keypress(Space),,,,silence,--- ---- ------ --- ------- ---------- ------- ----------<br>--- --------- --- ----------- ------- ----- ------- ---<br>--------- ---- -- --- ---- -- --------- -- ---- -------<br>-- --------- ------ --- ----- ------ ---- --- --------- --<br>------ - ---- -- --- ----------- ------- ---- ----- -----<br>--- -------- - square ---- -- ----- ---- --- --- -----------<br>-- -------,249806.39999961853,249806.19999980927,249264.165,249278.69999980927,249280.835,249814.403,,49,square
