sender,sender_type,sender_id,timestamp,meta,,Blues,Classical,Country,Dance,Electronic,Folk,Gospel,Hip-Hop,Jazz,Latin,Musical/Film,New-age,Pop,Prolific_id,Provo_ID,R&B,Rap,Reggae,Religious,Rock,Soul,Swing,Traditional,age,artist_name,correct,correctResponse,distraction,duration,education,ended_on,familiarity,gender,headphone_check_performance,item,list,music_frequency,offensiveness,pleasantness,position_correct,preference,response,response_action,snippet_file,song_name,song_rating,sound,stimulus_1,stimulus_2,stimulus_3,text,time_commit,time_end,time_render,time_run,time_show,time_switch,url,word,word_ID
Prolific ID,html.Form,0,2021-04-24T17:04:20.108Z,"{""labjs_version"":""20.2.2"",""labjs_build"":{""flavor"":""production"",""commit"":""a25486e0c714a0ae2ce03ff94b7bb6896854dcfa""},""location"":""https://run.pavlovia.org/mvasilev/prolific_music_f/"",""userAgent"":""Mozilla/5.0 (Windows NT 10.0; Win64; x64) AppleWebKit/537.36 (KHTML, like Gecko) Chrome/90.0.4430.85 Safari/537.36 Edg/90.0.818.46"",""platform"":""Win32"",""language"":""en-US"",""locale"":""en-US"",""timeZone"":""Europe/London"",""timezoneOffset"":-60,""screen_width"":1536,""screen_height"":864,""scroll_width"":1536,""scroll_height"":706,""window_innerWidth"":1536,""window_innerHeight"":754,""devicePixelRatio"":1.25}",,,,,,,,,,,,,,,5f272d636c2541506e18d3da,,,,,,,,,,,,,,,19552.532000000298,,form submission,,,,,,,,,,,,,,,,,,,,,29935.1400000005,29934.6800000003,10332.421,10332.774999999856,10382.148,29947.655,{},,
Introduction,html.Screen,1_0,2021-04-24T17:04:24.332Z,,,,,,,,,,,,,,,,,,,,,,,,,,,,,,,4206.320000000174,,response,,,,,,,,,,,continue,click button,,,,,,,,,34159.560000000056,34153.97500000017,29931.046,29935.890000000654,29947.655,34164.07,,,
Volume calibration,html.Screen,1_1,2021-04-24T17:04:52.371Z,,,,,,,,,,,,,,,,,,,,,,,,,,,,,,,28027.48000000046,,response,,,,,,,,,,,continue,click button,,,,,,,,,62198.01499999994,62191.55000000046,34147.65,34159.685000000536,34164.07,62195.74,,,
Task instructions,html.Screen,1_2,2021-04-24T17:04:54.351Z,,,,,,,,,,,,,,,,,,,,,,,,,,,,,,,1981.2550000007177,,response,,,,,,,,,,,continue,click button,,,,,,,,,64178.405000000566,64176.995000000716,62179.273,62198.33000000017,62195.74,64178.975,,,
Sounds,html.Screen,1_3_0_0,2021-04-24T17:04:58.593Z,,,,,,,,,,,,,,,,,,,,,,,,,,,,,,,4250.023000000008,,timeout,,,,,,,,,1,,,,,,,,S,O,I,,68420.23000000062,68412.133,64162.538,64179.47499999991,64178.975,68428.998,,,
Judgement,html.Screen,1_3_0_1,2021-04-24T17:05:03.006Z,,,,,,,,,,,,,,,,,,,,,,,,,,,,false,1,,4401.967000000106,,response,,,,,,,,,1,,2,click #choice-2,,,,,S,O,I,,72832.95499999986,72830.96500000011,68412.133,68420.60000000038,68428.998,72845.669,,,
Trial,flow.Sequence,1_3_0,2021-04-24T17:05:03.008Z,,,,,,,,,,,,,,,,,,,,,,,,,,,,,,,8651.990000000114,,completion,,,,,,,,,1,,,,,,,,S,O,I,,72835.41000000059,72830.96500000011,64162.538,64178.95000000044,64178.975,72845.669,,,
Sounds,html.Screen,1_3_1_0,2021-04-24T17:05:07.252Z,,,,,,,,,,,,,,,,,,,,,,,,,,,,,,,4249.4100000000035,,timeout,,,,,,,,,2,,,,,,,,O,S,I,,77079.48000000033,77078.217,72828.986,72835.52000000054,72845.669,77095.079,,,
Judgement,html.Screen,1_3_1_1,2021-04-24T17:05:08.915Z,,,,,,,,,,,,,,,,,,,,,,,,,,,,true,2,,1645.221000000398,,response,,,,,,,,,2,,2,click #choice-2,,,,,O,S,I,,78741.93500000001,78740.3000000004,77078.217,77079.7849999999,77095.079,78744.772,,,
Trial,flow.Sequence,1_3_1,2021-04-24T17:05:08.915Z,,,,,,,,,,,,,,,,,,,,,,,,,,,,,,,5894.631000000401,,completion,,,,,,,,,2,,,,,,,,O,S,I,,78742.43000000024,78740.3000000004,72828.986,72835.49500000026,72845.669,78744.772,,,
Sounds,html.Screen,1_3_2_0,2021-04-24T17:05:13.152Z,,,,,,,,,,,,,,,,,,,,,,,,,,,,,,,4249.763000000006,,timeout,,,,,,,,,1,,,,,,,,S,I,O,,82979.29000000021,82978.178,78728.309,78742.76999999984,78744.772,82994.535,,,
Judgement,html.Screen,1_3_2_1,2021-04-24T17:05:14.026Z,,,,,,,,,,,,,,,,,,,,,,,,,,,,true,1,,856.3700000002282,,response,,,,,,,,,1,,1,click #choice-1,,,,,S,I,O,,83852.78999999992,83850.90500000023,82978.178,82979.58999999991,82994.535,83861.074,,,
Trial,flow.Sequence,1_3_2,2021-04-24T17:05:14.027Z,,,,,,,,,,,,,,,,,,,,,,,,,,,,,,,5106.1330000002345,,completion,,,,,,,,,1,,,,,,,,S,I,O,,83853.66500000055,83850.90500000023,78728.309,78742.67000000054,78744.772,83861.074,,,
Sounds,html.Screen,1_3_3_0,2021-04-24T17:05:18.268Z,,,,,,,,,,,,,,,,,,,,,,,,,,,,,,,4249.744000000006,,timeout,,,,,,,,,3,,,,,,,,I,O,S,,88095.51499999998,88094.269,83844.973,83854.15000000011,83861.074,88110.818,,,
Judgement,html.Screen,1_3_3_1,2021-04-24T17:05:19.065Z,,,,,,,,,,,,,,,,,,,,,,,,,,,,true,3,,780.0070000004052,,response,,,,,,,,,3,,3,click #choice-3,,,,,I,O,S,,88892.41500000026,88890.8250000004,88094.269,88095.81500000058,88110.818,88894.143,,,
Trial,flow.Sequence,1_3_3,2021-04-24T17:05:19.066Z,,,,,,,,,,,,,,,,,,,,,,,,,,,,,,,5029.751000000411,,completion,,,,,,,,,3,,,,,,,,I,O,S,,88892.86500000072,88890.8250000004,83844.973,83854.08000000007,83861.074,88894.143,,,
Sounds,html.Screen,1_3_4_0,2021-04-24T17:05:23.301Z,,,,,,,,,,,,,,,,,,,,,,,,,,,,,,,4250.125,,timeout,,,,,,,,,3,,,,,,,,O,I,S,,93128.44500000028,93127.273,88877.585,88893.18000000002,88894.143,93144.268,,,
Judgement,html.Screen,1_3_4_1,2021-04-24T17:05:23.935Z,,,,,,,,,,,,,,,,,,,,,,,,,,,,true,3,,616.3020000003744,,response,,,,,,,,,3,,3,click #choice-3,,,,,O,I,S,,93762.1650000001,93760.57000000037,93127.273,93128.7400000001,93144.268,93777.588,,,
Trial,flow.Sequence,1_3_4,2021-04-24T17:05:23.935Z,,,,,,,,,,,,,,,,,,,,,,,,,,,,,,,4866.427000000374,,completion,,,,,,,,,3,,,,,,,,O,I,S,,93762.61000000068,93760.57000000037,88877.585,88893.07499999995,88894.143,93777.588,,,
Sounds,html.Screen,1_3_5_0,2021-04-24T17:05:28.185Z,,,,,,,,,,,,,,,,,,,,,,,,,,,,,,,4249.519,,timeout,,,,,,,,,2,,,,,,,,I,S,O,,98012.05500000014,98010.408,93760.603,93762.92499999999,93777.588,98027.107,,,
Judgement,html.Screen,1_3_5_1,2021-04-24T17:05:28.885Z,,,,,,,,,,,,,,,,,,,,,,,,,,,,true,2,,683.6030000002793,,response,,,,,,,,,2,,2,click #choice-2,,,,,I,S,O,,98712.26999999999,98710.71000000028,98010.408,98012.35499999984,98027.107,98727.152,,,
Trial,flow.Sequence,1_3_5,2021-04-24T17:05:28.886Z,,,,,,,,,,,,,,,,,,,,,,,,,,,,,,,4933.1220000002795,,completion,,,,,,,,,2,,,,,,,,I,S,O,,98712.70000000004,98710.71000000028,93760.603,93762.83000000057,93777.588,98727.152,,,
Task,flow.Loop,1_3,2021-04-24T17:05:28.890Z,,,,,,,,,,,,,,,,,,,,,,,,,,,,,,,34531.735000000284,,completion,,,0.8333333333333334,,,,,,,,,,,,,,,,,,98717.34500000003,98710.71000000028,64162.538,64178.71500000001,64178.975,98727.152,,,
Trap,html.Screen,1_4,2021-04-24T17:05:28.892Z,,,,,,,,,,,,,,,,,,,,,,,,,,,,,,,NaN,,skipped,,,,,,,,,,,,,,,,,,,,,98718.67999999995,98710.71000000028,,98718.59500000028,,98727.152,,,
Thanks,html.Screen,1_5,2021-04-24T17:05:33.985Z,,,,,,,,,,,,,,,,,,,,,,,,,,,,,,,5083.5430000001215,,response,,,,,,,,,,,continue,click button,,,,,,,,,103812.23000000045,103810.69500000012,98710.531,98718.75499999987,98727.152,108326.312,,,
Headphone screening,flow.Sequence,1,2021-04-24T17:05:33.986Z,,,,,,,,,,,,,,,,,,,,,,,,,,,,,,,73863.04000000012,,completion,,,,,,,,,,,,,,,,,,,,,103812.66500000039,103810.69500000012,29931.046,29935.770000000048,29947.655,108326.312,,,
Instructions,html.Page,2_0,2021-04-24T17:05:40.860Z,,,,,,,,,,,,,,,,,,,,,,,,,,,,,,,2359.758000000642,,form submission,,,,,,,,,,,,,,,,,,,,,110686.64500000069,110686.07000000065,108293.062,108336.47000000019,108326.312,110692.772,,,
Holding screen,html.Screen,2_1_0_0,2021-04-24T17:05:50.850Z,,,,,,,,,,,,,,,,,,,,,,,,,,,,,,,9999.49500000001,,timeout,,,,,,,,,,,,,,,,,,,,,120676.89500000051,120675.851,110676.26,110687.11500000063,110692.772,120692.267,,,
screen,html.Screen,2_1_0_1_0,2021-04-24T17:05:51.737Z,,,,,,,,,,,,,,,,,53,,,,,,,,,,,,,,864.053000000582,,response,,,,99,,,,,,,Space,keypress(Space),,,,,,,,When -- ----- -- ------ - ------- --- ----------<br>------------- ------ ------ ---- ---- ------- ----- -- ----<br>-------- ------- -- ---------- --- - --- ----- ----- ----<br>---- --- --- ----- --- ---- ---- ------- ----- ---- -------<br>--- --- -- ----- -- --- ---- -- --- ---- -- ------ ------<br>--- ----- -- ----,121563.88500000047,121556.32000000059,120675.851,120677.31499999992,120692.267,121575.775,,0,When
screen,html.Screen,2_1_0_1_1,2021-04-24T17:05:52.392Z,,,,,,,,,,,,,,,,,53,,,,,,,,,,,,,,642.2550000000047,,response,,,,99,,,,,,,Space,keypress(Space),,,,,,,,---- it ----- -- ------ - ------- --- ----------<br>------------- ------ ------ ---- ---- ------- ----- -- ----<br>-------- ------- -- ---------- --- - --- ----- ----- ----<br>---- --- --- ----- --- ---- ---- ------- ----- ---- -------<br>--- --- -- ----- -- --- ---- -- --- ---- -- ------ ------<br>--- ----- -- ----,122219.09500000038,122218.03,121559.405,121563.97500000003,121575.775,122225.451,,1,it
screen,html.Screen,2_1_0_1_2,2021-04-24T17:05:52.848Z,,,,,,,,,,,,,,,,,53,,,,,,,,,,,,,,448.3890000003739,,response,,,,99,,,,,,,Space,keypress(Space),,,,,,,,---- -- comes -- ------ - ------- --- ----------<br>------------- ------ ------ ---- ---- ------- ----- -- ----<br>-------- ------- -- ---------- --- - --- ----- ----- ----<br>---- --- --- ----- --- ---- ---- ------- ----- ---- -------<br>--- --- -- ----- -- --- ---- -- --- ---- -- ------ ------<br>--- ----- -- ----,122674.86999999982,122673.84000000037,122209.209,122219.40500000073,122225.451,122709.158,,2,comes
screen,html.Screen,2_1_0_1_3,2021-04-24T17:05:53.176Z,,,,,,,,,,,,,,,,,53,,,,,,,,,,,,,,293.14200000010896,,response,,,,99,,,,,,,Space,keypress(Space),,,,,,,,---- -- ----- to ------ - ------- --- ----------<br>------------- ------ ------ ---- ---- ------- ----- -- ----<br>-------- ------- -- ---------- --- - --- ----- ----- ----<br>---- --- --- ----- --- ---- ---- ------- ----- ---- -------<br>--- --- -- ----- -- --- ---- -- --- ---- -- ------ ------<br>--- ----- -- ----,123003.37500000023,123002.3000000001,122692.318,122675.14500000016,122709.158,123008.774,,3,to
screen,html.Screen,2_1_0_1_4,2021-04-24T17:05:53.484Z,,,,,,,,,,,,,,,,,53,,,,,,,,,,,,,,300.9909999999654,,response,,,,99,,,,,,,Space,keypress(Space),,,,,,,,---- -- ----- -- having - ------- --- ----------<br>------------- ------ ------ ---- ---- ------- ----- -- ----<br>-------- ------- -- ---------- --- - --- ----- ----- ----<br>---- --- --- ----- --- ---- ---- ------- ----- ---- -------<br>--- --- -- ----- -- --- ---- -- --- ---- -- ------ ------<br>--- ----- -- ----,123310.9199999999,123309.76499999997,122992.148,123003.65500000044,123008.774,123325.721,,4,having
screen,html.Screen,2_1_0_1_5,2021-04-24T17:05:53.895Z,,,,,,,,,,,,,,,,,53,,,,,,,,,,,,,,395.90400000012596,,response,,,,99,,,,,,,Space,keypress(Space),,,,,,,,---- -- ----- -- ------ a ------- --- ----------<br>------------- ------ ------ ---- ---- ------- ----- -- ----<br>-------- ------- -- ---------- --- - --- ----- ----- ----<br>---- --- --- ----- --- ---- ---- ------- ----- ---- -------<br>--- --- -- ----- -- --- ---- -- --- ---- -- ------ ------<br>--- ----- -- ----,123722.64499999983,123721.62500000013,123308.933,123311.2000000001,123325.721,123725.319,,5,a
screen,html.Screen,2_1_0_1_6,2021-04-24T17:05:54.250Z,,,,,,,,,,,,,,,,,53,,,,,,,,,,,,,,351.0760000000446,,response,,,,99,,,,,,,Space,keypress(Space),,,,,,,,---- -- ----- -- ------ - lasting --- ----------<br>------------- ------ ------ ---- ---- ------- ----- -- ----<br>-------- ------- -- ---------- --- - --- ----- ----- ----<br>---- --- --- ----- --- ---- ---- ------- ----- ---- -------<br>--- --- -- ----- -- --- ---- -- --- ---- -- ------ ------<br>--- ----- -- ----,124076.9650000002,124076.39500000005,123709.101,123722.92000000016,123725.319,124092.261,,6,lasting
screen,html.Screen,2_1_0_1_7,2021-04-24T17:05:54.754Z,,,,,,,,,,,,,,,,,53,,,,,,,,,,,,,,488.08400000030815,,response,,,,99,,,,,,,Space,keypress(Space),,,,,,,,---- -- ----- -- ------ - ------- and ----------<br>------------- ------ ------ ---- ---- ------- ----- -- ----<br>-------- ------- -- ---------- --- - --- ----- ----- ----<br>---- --- --- ----- --- ---- ---- ------- ----- ---- -------<br>--- --- -- ----- -- --- ---- -- --- ---- -- ------ ------<br>--- ----- -- ----,124580.83500000066,124580.3450000003,124075.822,124077.07500000016,124092.261,124591.929,,7,and
screen,html.Screen,2_1_0_1_8,2021-04-24T17:05:55.206Z,,,,,,,,,,,,,,,,,53,,,,,,,,,,,,,,440.4860000005865,,response,,,,99,,,,,,,Space,keypress(Space),,,,,,,,---- -- ----- -- ------ - ------- --- fulfilling<br>------------- ------ ------ ---- ---- ------- ----- -- ----<br>-------- ------- -- ---------- --- - --- ----- ----- ----<br>---- --- --- ----- --- ---- ---- ------- ----- ---- -------<br>--- --- -- ----- -- --- ---- -- --- ---- -- ------ ------<br>--- ----- -- ----,125032.83999999985,125032.41500000059,124575.487,124580.90500000071,124591.929,125041.922,,8,fulfilling
screen,html.Screen,2_1_0_1_9,2021-04-24T17:05:55.618Z,,,,,,,,,,,,,,,,,53,,,,,,,,,,,,,,402.5580000001064,,response,,,,99,,,,,,,Space,keypress(Space),,,,,,,,"---- -- ----- -- ------ - ------- --- ----------<br>relationship, ------ ------ ---- ---- ------- ----- -- ----<br>-------- ------- -- ---------- --- - --- ----- ----- ----<br>---- --- --- ----- --- ---- ---- ------- ----- ---- -------<br>--- --- -- ----- -- --- ---- -- --- ---- -- ------ ------<br>--- ----- -- ----",125444.91000000016,125444.48000000011,125025.399,125032.91500000068,125041.922,125458.561,,9,"relationship,"
screen,html.Screen,2_1_0_1_10,2021-04-24T17:05:56.199Z,,,,,,,,,,,,,,,,,53,,,,,,,,,,,,,,567.3590000000404,,response,,,,99,,,,,,,Space,keypress(Space),,,,,,,,---- -- ----- -- ------ - ------- --- ----------<br>------------- common ------ ---- ---- ------- ----- -- ----<br>-------- ------- -- ---------- --- - --- ----- ----- ----<br>---- --- --- ----- --- ---- ---- ------- ----- ---- -------<br>--- --- -- ----- -- --- ---- -- --- ---- -- ------ ------<br>--- ----- -- ----,126026.40000000065,126025.92000000004,125442.099,125444.99499999984,125458.561,126041.834,,10,common
screen,html.Screen,2_1_0_1_11,2021-04-24T17:05:56.603Z,,,,,,,,,,,,,,,,,53,,,,,,,,,,,,,,387.91100000037113,,response,,,,99,,,,,,,Space,keypress(Space),,,,,,,,---- -- ----- -- ------ - ------- --- ----------<br>------------- ------ wisdom ---- ---- ------- ----- -- ----<br>-------- ------- -- ---------- --- - --- ----- ----- ----<br>---- --- --- ----- --- ---- ---- ------- ----- ---- -------<br>--- --- -- ----- -- --- ---- -- --- ---- -- ------ ------<br>--- ----- -- ----,126430.26999999984,126429.74500000037,126025.226,126026.47500000057,126041.834,126441.805,,11,wisdom
screen,html.Screen,2_1_0_1_12,2021-04-24T17:05:56.835Z,,,,,,,,,,,,,,,,,53,,,,,,,,,,,,,,219.8950000005716,,response,,,,99,,,,,,,Space,keypress(Space),,,,,,,,---- -- ----- -- ------ - ------- --- ----------<br>------------- ------ ------ says ---- ------- ----- -- ----<br>-------- ------- -- ---------- --- - --- ----- ----- ----<br>---- --- --- ----- --- ---- ---- ------- ----- ---- -------<br>--- --- -- ----- -- --- ---- -- --- ---- -- ------ ------<br>--- ----- -- ----,126662.21500000029,126661.70000000056,126425.151,126430.39500000031,126441.805,126675.146,,12,says
screen,html.Screen,2_1_0_1_13,2021-04-24T17:05:57.234Z,,,,,,,,,,,,,,,,,53,,,,,,,,,,,,,,385.7440000006609,,response,,,,99,,,,,,,Space,keypress(Space),,,,,,,,---- -- ----- -- ------ - ------- --- ----------<br>------------- ------ ------ ---- that ------- ----- -- ----<br>-------- ------- -- ---------- --- - --- ----- ----- ----<br>---- --- --- ----- --- ---- ---- ------- ----- ---- -------<br>--- --- -- ----- -- --- ---- -- --- ---- -- ------ ------<br>--- ----- -- ----,127061.3600000006,127060.89000000065,126658.448,126662.30499999983,126675.146,127075.14,,13,that
screen,html.Screen,2_1_0_1_14,2021-04-24T17:05:57.933Z,,,,,,,,,,,,,,,,,53,,,,,,,,,,,,,,684.7800000004208,,response,,,,99,,,,,,,Space,keypress(Space),,,,,,,,---- -- ----- -- ------ - ------- --- ----------<br>------------- ------ ------ ---- ---- feeling ----- -- ----<br>-------- ------- -- ---------- --- - --- ----- ----- ----<br>---- --- --- ----- --- ---- ---- ------- ----- ---- -------<br>--- --- -- ----- -- --- ---- -- --- ---- -- ------ ------<br>--- ----- -- ----,127760.45500000054,127759.92000000042,127058.675,127061.45500000002,127075.14,127775.347,,14,feeling
screen,html.Screen,2_1_0_1_15,2021-04-24T17:05:58.441Z,,,,,,,,,,,,,,,,,53,,,,,,,,,,,,,,492.25300000012794,,response,,,,99,,,,,,,Space,keypress(Space),,,,,,,,---- -- ----- -- ------ - ------- --- ----------<br>------------- ------ ------ ---- ---- ------- close -- ----<br>-------- ------- -- ---------- --- - --- ----- ----- ----<br>---- --- --- ----- --- ---- ---- ------- ----- ---- -------<br>--- --- -- ----- -- --- ---- -- --- ---- -- ------ ------<br>--- ----- -- ----,128268.0650000002,128267.60000000012,127758.435,127760.53500000035,127775.347,128275.173,,15,close
screen,html.Screen,2_1_0_1_16,2021-04-24T17:05:58.906Z,,,,,,,,,,,,,,,,,53,,,,,,,,,,,,,,457.2570000000269,,response,,,,99,,,,,,,Space,keypress(Space),,,,,,,,---- -- ----- -- ------ - ------- --- ----------<br>------------- ------ ------ ---- ---- ------- ----- to ----<br>-------- ------- -- ---------- --- - --- ----- ----- ----<br>---- --- --- ----- --- ---- ---- ------- ----- ---- -------<br>--- --- -- ----- -- --- ---- -- --- ---- -- ------ ------<br>--- ----- -- ----,128733.5350000003,128732.43000000002,128258.458,128268.18000000002,128275.173,128741.959,,16,to
screen,html.Screen,2_1_0_1_17,2021-04-24T17:05:59.336Z,,,,,,,,,,,,,,,,,53,,,,,,,,,,,,,,419.9060000000318,,response,,,,99,,,,,,,Space,keypress(Space),,,,,,,,---- -- ----- -- ------ - ------- --- ----------<br>------------- ------ ------ ---- ---- ------- ----- -- your<br>-------- ------- -- ---------- --- - --- ----- ----- ----<br>---- --- --- ----- --- ---- ---- ------- ----- ---- -------<br>--- --- -- ----- -- --- ---- -- --- ---- -- ------ ------<br>--- ----- -- ----,129163.00500000034,129161.86500000003,128725.012,128733.85000000053,128741.959,129175.344,,17,your
screen,html.Screen,2_1_0_1_18,2021-04-24T17:05:59.950Z,,,,,,,,,,,,,,,,,53,,,,,,,,,,,,,,600.5809999999183,,response,,,,99,,,,,,,Space,keypress(Space),,,,,,,,---- -- ----- -- ------ - ------- --- ----------<br>------------- ------ ------ ---- ---- ------- ----- -- ----<br>romantic ------- -- ---------- --- - --- ----- ----- ----<br>---- --- --- ----- --- ---- ---- ------- ----- ---- -------<br>--- --- -- ----- -- --- ---- -- --- ---- -- ------ ------<br>--- ----- -- ----,129777.0500000006,129775.92499999992,129158.682,129163.41499999998,129175.344,129791.926,,18,romantic
screen,html.Screen,2_1_0_1_19,2021-04-24T17:06:00.434Z,,,,,,,,,,,,,,,,,53,,,,,,,,,,,,,,468.0839999999589,,response,,,,99,,,,,,,Space,keypress(Space),,,,,,,,---- -- ----- -- ------ - ------- --- ----------<br>------------- ------ ------ ---- ---- ------- ----- -- ----<br>-------- partner -- ---------- --- - --- ----- ----- ----<br>---- --- --- ----- --- ---- ---- ------- ----- ---- -------<br>--- --- -- ----- -- --- ---- -- --- ---- -- ------ ------<br>--- ----- -- ----,130261.12999999986,130260.00999999997,129775.241,129777.36499999992,129791.926,130275.261,,19,partner
screen,html.Screen,2_1_0_1_20,2021-04-24T17:06:00.842Z,,,,,,,,,,,,,,,,,53,,,,,,,,,,,,,,393.1239999999525,,response,,,,99,,,,,,,Space,keypress(Space),,,,,,,,---- -- ----- -- ------ - ------- --- ----------<br>------------- ------ ------ ---- ---- ------- ----- -- ----<br>-------- ------- is ---------- --- - --- ----- ----- ----<br>---- --- --- ----- --- ---- ---- ------- ----- ---- -------<br>--- --- -- ----- -- --- ---- -- --- ---- -- ------ ------<br>--- ----- -- ----,130669.35999999987,130668.38499999995,130258.295,130261.46000000063,130275.261,130674.917,,20,is
screen,html.Screen,2_1_0_1_21,2021-04-24T17:06:01.637Z,,,,,,,,,,,,,,,,,53,,,,,,,,,,,,,,787.9580000001733,,response,,,,99,,,,,,,Space,keypress(Space),,,,,,,,---- -- ----- -- ------ - ------- --- ----------<br>------------- ------ ------ ---- ---- ------- ----- -- ----<br>-------- ------- -- paramount. --- - --- ----- ----- ----<br>---- --- --- ----- --- ---- ---- ------- ----- ---- -------<br>--- --- -- ----- -- --- ---- -- --- ---- -- ------ ------<br>--- ----- -- ----,131463.88000000024,131462.87500000017,130658.71,130669.6350000002,130674.917,131475.14,,21,paramount.
screen,html.Screen,2_1_0_1_22,2021-04-24T17:06:02.238Z,,,,,,,,,,,,,,,,,53,,,,,,,,,,,,,,588.8500000005588,,response,,,,99,,,,,,,Space,keypress(Space),,,,,,,,---- -- ----- -- ------ - ------- --- ----------<br>------------- ------ ------ ---- ---- ------- ----- -- ----<br>-------- ------- -- ---------- But - --- ----- ----- ----<br>---- --- --- ----- --- ---- ---- ------- ----- ---- -------<br>--- --- -- ----- -- --- ---- -- --- ---- -- ------ ------<br>--- ----- -- ----,132065.05000000016,132063.99000000057,131458.69,131464.16000000044,131475.14,132075.216,,22,But
screen,html.Screen,2_1_0_1_23,2021-04-24T17:06:02.597Z,,,,,,,,,,,,,,,,,53,,,,,,,,,,,,,,348.0790000005218,,response,,,,99,,,,,,,Space,keypress(Space),,,,,,,,---- -- ----- -- ------ - ------- --- ----------<br>------------- ------ ------ ---- ---- ------- ----- -- ----<br>-------- ------- -- ---------- --- a --- ----- ----- ----<br>---- --- --- ----- --- ---- ---- ------- ----- ---- -------<br>--- --- -- ----- -- --- ---- -- --- ---- -- ------ ------<br>--- ----- -- ----,132424.28500000006,132423.2950000005,132058.695,132065.45499999993,132075.216,132442.05,,23,a
screen,html.Screen,2_1_0_1_24,2021-04-24T17:06:03.142Z,,,,,,,,,,,,,,,,,53,,,,,,,,,,,,,,526.3950000004261,,response,,,,99,,,,,,,Space,keypress(Space),,,,,,,,---- -- ----- -- ------ - ------- --- ----------<br>------------- ------ ------ ---- ---- ------- ----- -- ----<br>-------- ------- -- ---------- --- - new ----- ----- ----<br>---- --- --- ----- --- ---- ---- ------- ----- ---- -------<br>--- --- -- ----- -- --- ---- -- --- ---- -- ------ ------<br>--- ----- -- ----,132969.42500000022,132968.4450000004,132408.651,132424.56500000026,132442.05,132974.801,,24,new
screen,html.Screen,2_1_0_1_25,2021-04-24T17:06:03.699Z,,,,,,,,,,,,,,,,,53,,,,,,,,,,,,,,549.9190000003437,,response,,,,99,,,,,,,Space,keypress(Space),,,,,,,,---- -- ----- -- ------ - ------- --- ----------<br>------------- ------ ------ ---- ---- ------- ----- -- ----<br>-------- ------- -- ---------- --- - --- study ----- ----<br>---- --- --- ----- --- ---- ---- ------- ----- ---- -------<br>--- --- -- ----- -- --- ---- -- --- ---- -- ------ ------<br>--- ----- -- ----,133525.7449999999,133524.72000000035,132958.447,132969.7100000003,132974.801,133541.906,,25,study
screen,html.Screen,2_1_0_1_26,2021-04-24T17:06:04.137Z,,,,,,,,,,,,,,,,,53,,,,,,,,,,,,,,421.34400000071037,,response,,,,99,,,,,,,Space,keypress(Space),,,,,,,,---- -- ----- -- ------ - ------- --- ----------<br>------------- ------ ------ ---- ---- ------- ----- -- ----<br>-------- ------- -- ---------- --- - --- ----- finds ----<br>---- --- --- ----- --- ---- ---- ------- ----- ---- -------<br>--- --- -- ----- -- --- ---- -- --- ---- -- ------ ------<br>--- ----- -- ----,133964.2300000005,133963.2500000007,133525.069,133526.03,133541.906,133974.826,,26,finds
screen,html.Screen,2_1_0_1_27,2021-04-24T17:06:04.682Z,,,,,,,,,,,,,,,,,53,,,,,,,,,,,,,,533.6440000006696,,response,,,,99,,,,,,,Space,keypress(Space),,,,,,,,---- -- ----- -- ------ - ------- --- ----------<br>------------- ------ ------ ---- ---- ------- ----- -- ----<br>-------- ------- -- ---------- --- - --- ----- ----- that<br>---- --- --- ----- --- ---- ---- ------- ----- ---- -------<br>--- --- -- ----- -- --- ---- -- --- ---- -- ------ ------<br>--- ----- -- ----,134509.43000000005,134508.47000000067,133958.147,133964.51500000057,133974.826,134524.699,,27,that
screen,html.Screen,2_1_0_1_28,2021-04-24T17:06:05.443Z,,,,,,,,,,,,,,,,,53,,,,,,,,,,,,,,744.4360000004817,,response,,,,99,,,,,,,Space,keypress(Space),,,,,,,,---- -- ----- -- ------ - ------- --- ----------<br>------------- ------ ------ ---- ---- ------- ----- -- ----<br>-------- ------- -- ---------- --- - --- ----- ----- ----<br>it's --- --- ----- --- ---- ---- ------- ----- ---- -------<br>--- --- -- ----- -- --- ---- -- --- ---- -- ------ ------<br>--- ----- -- ----,135270.15000000029,135269.13500000047,134508.475,134509.72000000003,134524.699,135274.667,,28,it's
screen,html.Screen,2_1_0_1_29,2021-04-24T17:06:05.993Z,,,,,,,,,,,,,,,,,53,,,,,,,,,,,,,,544.5679999999411,,response,,,,99,,,,,,,Space,keypress(Space),,,,,,,,---- -- ----- -- ------ - ------- --- ----------<br>------------- ------ ------ ---- ---- ------- ----- -- ----<br>-------- ------- -- ---------- --- - --- ----- ----- ----<br>---- not --- ----- --- ---- ---- ------- ----- ---- -------<br>--- --- -- ----- -- --- ---- -- --- ---- -- ------ ------<br>--- ----- -- ----,135820.26000000042,135819.23499999993,135258.358,135270.44999999998,135274.667,135824.661,,29,not
screen,html.Screen,2_1_0_1_30,2021-04-24T17:06:06.247Z,,,,,,,,,,,,,,,,,53,,,,,,,,,,,,,,248.17900000073132,,response,,,,99,,,,,,,Space,keypress(Space),,,,,,,,---- -- ----- -- ------ - ------- --- ----------<br>------------- ------ ------ ---- ---- ------- ----- -- ----<br>-------- ------- -- ---------- --- - --- ----- ----- ----<br>---- --- how ----- --- ---- ---- ------- ----- ---- -------<br>--- --- -- ----- -- --- ---- -- --- ---- -- ------ ------<br>--- ----- -- ----,136073.7850000005,136072.84000000072,135808.44,135820.59500000015,135824.661,136091.665,,30,how
screen,html.Screen,2_1_0_1_31,2021-04-24T17:06:06.587Z,,,,,,,,,,,,,,,,,53,,,,,,,,,,,,,,321.7400000002235,,response,,,,99,,,,,,,Space,keypress(Space),,,,,,,,---- -- ----- -- ------ - ------- --- ----------<br>------------- ------ ------ ---- ---- ------- ----- -- ----<br>-------- ------- -- ---------- --- - --- ----- ----- ----<br>---- --- --- close --- ---- ---- ------- ----- ---- -------<br>--- --- -- ----- -- --- ---- -- --- ---- -- ------ ------<br>--- ----- -- ----,136414.34500000015,136413.40500000023,136058.4,136074.0650000007,136091.665,136424.895,,31,close
screen,html.Screen,2_1_0_1_32,2021-04-24T17:06:06.962Z,,,,,,,,,,,,,,,,,53,,,,,,,,,,,,,,363.3650000002817,,response,,,,99,,,,,,,Space,keypress(Space),,,,,,,,---- -- ----- -- ------ - ------- --- ----------<br>------------- ------ ------ ---- ---- ------- ----- -- ----<br>-------- ------- -- ---------- --- - --- ----- ----- ----<br>---- --- --- ----- you ---- ---- ------- ----- ---- -------<br>--- --- -- ----- -- --- ---- -- --- ---- -- ------ ------<br>--- ----- -- ----,136789.16000000027,136788.26000000027,136408.3,136414.62000000046,136424.895,136791.269,,32,you
screen,html.Screen,2_1_0_1_33,2021-04-24T17:06:07.225Z,,,,,,,,,,,,,,,,,53,,,,,,,,,,,,,,260.82600000000093,,response,,,,99,,,,,,,Space,keypress(Space),,,,,,,,---- -- ----- -- ------ - ------- --- ----------<br>------------- ------ ------ ---- ---- ------- ----- -- ----<br>-------- ------- -- ---------- --- - --- ----- ----- ----<br>---- --- --- ----- --- feel ---- ------- ----- ---- -------<br>--- --- -- ----- -- --- ---- -- --- ---- -- ------ ------<br>--- ----- -- ----,137052.60499999986,137052.095,136774.769,136789.44500000036,136791.269,137057.957,,33,feel
screen,html.Screen,2_1_0_1_34,2021-04-24T17:06:07.537Z,,,,,,,,,,,,,,,,,53,,,,,,,,,,,,,,304.94799999997485,,response,,,,99,,,,,,,Space,keypress(Space),,,,,,,,---- -- ----- -- ------ - ------- --- ----------<br>------------- ------ ------ ---- ---- ------- ----- -- ----<br>-------- ------- -- ---------- --- - --- ----- ----- ----<br>---- --- --- ----- --- ---- that ------- ----- ---- -------<br>--- --- -- ----- -- --- ---- -- --- ---- -- ------ ------<br>--- ----- -- ----,137364.1550000002,137362.90499999997,137041.218,137053.64499999996,137057.957,137374.799,,34,that
screen,html.Screen,2_1_0_1_35,2021-04-24T17:06:07.975Z,,,,,,,,,,,,,,,,,53,,,,,,,,,,,,,,425.92600000006496,,response,,,,99,,,,,,,Space,keypress(Space),,,,,,,,---- -- ----- -- ------ - ------- --- ----------<br>------------- ------ ------ ---- ---- ------- ----- -- ----<br>-------- ------- -- ---------- --- - --- ----- ----- ----<br>---- --- --- ----- --- ---- ---- matters ----- ---- -------<br>--- --- -- ----- -- --- ---- -- --- ---- -- ------ ------<br>--- ----- -- ----,137801.71500000052,137800.72500000006,137358.381,137364.42500000066,137374.799,137807.807,,35,matters
screen,html.Screen,2_1_0_1_36,2021-04-24T17:06:08.288Z,,,,,,,,,,,,,,,,,53,,,,,,,,,,,,,,306.1030000000319,,response,,,,99,,,,,,,Space,keypress(Space),,,,,,,,"---- -- ----- -- ------ - ------- --- ----------<br>------------- ------ ------ ---- ---- ------- ----- -- ----<br>-------- ------- -- ---------- --- - --- ----- ----- ----<br>---- --- --- ----- --- ---- ---- ------- most, ---- -------<br>--- --- -- ----- -- --- ---- -- --- ---- -- ------ ------<br>--- ----- -- ----",138115.19000000044,138113.91000000003,137791.622,137803.3949999999,137807.807,138124.73,,36,"most,"
screen,html.Screen,2_1_0_1_37,2021-04-24T17:06:08.613Z,,,,,,,,,,,,,,,,,53,,,,,,,,,,,,,,314.7600000006496,,response,,,,99,,,,,,,Space,keypress(Space),,,,,,,,---- -- ----- -- ------ - ------- --- ----------<br>------------- ------ ------ ---- ---- ------- ----- -- ----<br>-------- ------- -- ---------- --- - --- ----- ----- ----<br>---- --- --- ----- --- ---- ---- ------- ----- it's -------<br>--- --- -- ----- -- --- ---- -- --- ---- -- ------ ------<br>--- ----- -- ----,138440.47000000047,138439.49000000066,138108.357,138115.4550000001,138124.73,138458.2,,37,it's
screen,html.Screen,2_1_0_1_38,2021-04-24T17:06:09.331Z,,,,,,,,,,,,,,,,,53,,,,,,,,,,,,,,699.1400000006543,,response,,,,99,,,,,,,Space,keypress(Space),,,,,,,,---- -- ----- -- ------ - ------- --- ----------<br>------------- ------ ------ ---- ---- ------- ----- -- ----<br>-------- ------- -- ---------- --- - --- ----- ----- ----<br>---- --- --- ----- --- ---- ---- ------- ----- ---- whether<br>--- --- -- ----- -- --- ---- -- --- ---- -- ------ ------<br>--- ----- -- ----,139158.32000000047,139157.34000000067,138424.74,138440.74499999988,138458.2,139174.639,,38,whether
screen,html.Screen,2_1_0_1_39,2021-04-24T17:06:09.930Z,,,,,,,,,,,,,,,,,53,,,,,,,,,,,,,,582.0010000005132,,response,,,,99,,,,,,,Space,keypress(Space),,,,,,,,---- -- ----- -- ------ - ------- --- ----------<br>------------- ------ ------ ---- ---- ------- ----- -- ----<br>-------- ------- -- ---------- --- - --- ----- ----- ----<br>---- --- --- ----- --- ---- ---- ------- ----- ---- -------<br>you --- -- ----- -- --- ---- -- --- ---- -- ------ ------<br>--- ----- -- ----,139757.60500000068,139756.6400000005,139157.983,139158.60000000068,139174.639,139774.644,,39,you
screen,html.Screen,2_1_0_1_40,2021-04-24T17:06:10.206Z,,,,,,,,,,,,,,,,,53,,,,,,,,,,,,,,257.97100000007777,,response,,,,99,,,,,,,Space,keypress(Space),,,,,,,,---- -- ----- -- ------ - ------- --- ----------<br>------------- ------ ------ ---- ---- ------- ----- -- ----<br>-------- ------- -- ---------- --- - --- ----- ----- ----<br>---- --- --- ----- --- ---- ---- ------- ----- ---- -------<br>--- are -- ----- -- --- ---- -- --- ---- -- ------ ------<br>--- ----- -- ----,140033.5700000005,140032.61500000008,139758.012,139757.88499999998,139774.644,140041.393,,40,are
screen,html.Screen,2_1_0_1_41,2021-04-24T17:06:10.482Z,,,,,,,,,,,,,,,,,53,,,,,,,,,,,,,,267.78200000032666,,response,,,,99,,,,,,,Space,keypress(Space),,,,,,,,---- -- ----- -- ------ - ------- --- ----------<br>------------- ------ ------ ---- ---- ------- ----- -- ----<br>-------- ------- -- ---------- --- - --- ----- ----- ----<br>---- --- --- ----- --- ---- ---- ------- ----- ---- -------<br>--- --- as ----- -- --- ---- -- --- ---- -- ------ ------<br>--- ----- -- ----,140309.68000000028,140309.17500000034,140024.819,140033.84000000005,140041.393,140324.372,,41,as
screen,html.Screen,2_1_0_1_42,2021-04-24T17:06:10.797Z,,,,,,,,,,,,,,,,,53,,,,,,,,,,,,,,299.0630000004312,,response,,,,99,,,,,,,Space,keypress(Space),,,,,,,,---- -- ----- -- ------ - ------- --- ----------<br>------------- ------ ------ ---- ---- ------- ----- -- ----<br>-------- ------- -- ---------- --- - --- ----- ----- ----<br>---- --- --- ----- --- ---- ---- ------- ----- ---- -------<br>--- --- -- close -- --- ---- -- --- ---- -- ------ ------<br>--- ----- -- ----,140624.42999999985,140623.43500000043,140307.877,140309.76499999996,140324.372,140641.344,,42,close
screen,html.Screen,2_1_0_1_43,2021-04-24T17:06:11.192Z,,,,,,,,,,,,,,,,,53,,,,,,,,,,,,,,376.57600000020466,,response,,,,99,,,,,,,Space,keypress(Space),,,,,,,,---- -- ----- -- ------ - ------- --- ----------<br>------------- ------ ------ ---- ---- ------- ----- -- ----<br>-------- ------- -- ---------- --- - --- ----- ----- ----<br>---- --- --- ----- --- ---- ---- ------- ----- ---- -------<br>--- --- -- ----- as --- ---- -- --- ---- -- ------ ------<br>--- ----- -- ----,141018.90000000002,141017.92000000022,140624.754,140624.6950000004,140641.344,141024.338,,43,as
screen,html.Screen,2_1_0_1_44,2021-04-24T17:06:11.480Z,,,,,,,,,,,,,,,,,53,,,,,,,,,,,,,,281.597000000329,,response,,,,99,,,,,,,Space,keypress(Space),,,,,,,,---- -- ----- -- ------ - ------- --- ----------<br>------------- ------ ------ ---- ---- ------- ----- -- ----<br>-------- ------- -- ---------- --- - --- ----- ----- ----<br>---- --- --- ----- --- ---- ---- ------- ----- ---- -------<br>--- --- -- ----- -- you ---- -- --- ---- -- ------ ------<br>--- ----- -- ----,141306.89500000063,141305.93500000032,141007.866,141019.17500000037,141024.338,141324.633,,44,you
screen,html.Screen,2_1_0_1_45,2021-04-24T17:06:11.799Z,,,,,,,,,,,,,,,,,53,,,,,,,,,,,,,,300.72200000012526,,response,,,,99,,,,,,,Space,keypress(Space),,,,,,,,---- -- ----- -- ------ - ------- --- ----------<br>------------- ------ ------ ---- ---- ------- ----- -- ----<br>-------- ------- -- ---------- --- - --- ----- ----- ----<br>---- --- --- ----- --- ---- ---- ------- ----- ---- -------<br>--- --- -- ----- -- --- want -- --- ---- -- ------ ------<br>--- ----- -- ----,141626.64500000028,141625.35500000013,141291.387,141307.16500000015,141324.633,141641.348,,45,want
screen,html.Screen,2_1_0_1_46,2021-04-24T17:06:12.093Z,,,,,,,,,,,,,,,,,53,,,,,,,,,,,,,,278.1070000001928,,response,,,,99,,,,,,,Space,keypress(Space),,,,,,,,---- -- ----- -- ------ - ------- --- ----------<br>------------- ------ ------ ---- ---- ------- ----- -- ----<br>-------- ------- -- ---------- --- - --- ----- ----- ----<br>---- --- --- ----- --- ---- ---- ------- ----- ---- -------<br>--- --- -- ----- -- --- ---- to --- ---- -- ------ ------<br>--- ----- -- ----,141920.4200000004,141919.4550000002,141624.705,141626.91500000074,141641.348,141924.326,,46,to
screen,html.Screen,2_1_0_1_47,2021-04-24T17:06:12.430Z,,,,,,,,,,,,,,,,,53,,,,,,,,,,,,,,331.66400000057183,,response,,,,99,,,,,,,Space,keypress(Space),,,,,,,,"---- -- ----- -- ------ - ------- --- ----------<br>------------- ------ ------ ---- ---- ------- ----- -- ----<br>-------- ------- -- ---------- --- - --- ----- ----- ----<br>---- --- --- ----- --- ---- ---- ------- ----- ---- -------<br>--- --- -- ----- -- --- ---- -- be, ---- -- ------ ------<br>--- ----- -- ----",142257.09499999994,142255.99000000057,141907.661,141920.68500000006,141924.326,142291.271,,47,"be,"
screen,html.Screen,2_1_0_1_48,2021-04-24T17:06:12.921Z,,,,,,,,,,,,,,,,,53,,,,,,,,,,,,,,455.6190000003553,,response,,,,99,,,,,,,Space,keypress(Space),,,,,,,,---- -- ----- -- ------ - ------- --- ----------<br>------------- ------ ------ ---- ---- ------- ----- -- ----<br>-------- ------- -- ---------- --- - --- ----- ----- ----<br>---- --- --- ----- --- ---- ---- ------- ----- ---- -------<br>--- --- -- ----- -- --- ---- -- --- even -- ------ ------<br>--- ----- -- ----,142747.87000000014,142746.89000000036,142274.433,142257.45499999993,142291.271,142757.763,,48,even
screen,html.Screen,2_1_0_1_49,2021-04-24T17:06:13.204Z,,,,,,,,,,,,,,,,,53,,,,,,,,,,,,,,272.4520000006596,,response,,,,99,,,,,,,Space,keypress(Space),,,,,,,,---- -- ----- -- ------ - ------- --- ----------<br>------------- ------ ------ ---- ---- ------- ----- -- ----<br>-------- ------- -- ---------- --- - --- ----- ----- ----<br>---- --- --- ----- --- ---- ---- ------- ----- ---- -------<br>--- --- -- ----- -- --- ---- -- --- ---- if ------ ------<br>--- ----- -- ----,143031.15500000058,143030.21500000067,142741.207,142748.12500000006,142757.763,143040.856,,49,if
screen,html.Screen,2_1_0_1_50,2021-04-24T17:06:13.455Z,,,,,,,,,,,,,,,,,53,,,,,,,,,,,,,,240.17899999997462,,response,,,,99,,,,,,,Space,keypress(Space),,,,,,,,---- -- ----- -- ------ - ------- --- ----------<br>------------- ------ ------ ---- ---- ------- ----- -- ----<br>-------- ------- -- ---------- --- - --- ----- ----- ----<br>---- --- --- ----- --- ---- ---- ------- ----- ---- -------<br>--- --- -- ----- -- --- ---- -- --- ---- -- that's ------<br>--- ----- -- ----,143281.9900000004,143281.03499999997,143024.62,143031.4100000005,143040.856,143290.908,,50,that's
screen,html.Screen,2_1_0_1_51,2021-04-24T17:06:13.892Z,,,,,,,,,,,,,,,,,53,,,,,,,,,,,,,,427.5070000002743,,response,,,,99,,,,,,,Space,keypress(Space),,,,,,,,---- -- ----- -- ------ - ------- --- ----------<br>------------- ------ ------ ---- ---- ------- ----- -- ----<br>-------- ------- -- ---------- --- - --- ----- ----- ----<br>---- --- --- ----- --- ---- ---- ------- ----- ---- -------<br>--- --- -- ----- -- --- ---- -- --- ---- -- ------ really<br>--- ----- -- ----,143719.3500000003,143718.41500000027,143274.333,143282.24500000034,143290.908,143724.142,,51,really
screen,html.Screen,2_1_0_1_52,2021-04-24T17:06:14.323Z,,,,,,,,,,,,,,,,,53,,,,,,,,,,,,,,425.45800000065356,,response,,,,99,,,,,,,Space,keypress(Space),,,,,,,,---- -- ----- -- ------ - ------- --- ----------<br>------------- ------ ------ ---- ---- ------- ----- -- ----<br>-------- ------- -- ---------- --- - --- ----- ----- ----<br>---- --- --- ----- --- ---- ---- ------- ----- ---- -------<br>--- --- -- ----- -- --- ---- -- --- ---- -- ------ ------<br>not ----- -- ----,144150.59999999995,144149.60000000065,143707.875,143719.5900000006,143724.142,144157.487,,52,not
screen,html.Screen,2_1_0_1_53,2021-04-24T17:06:14.672Z,,,,,,,,,,,,,,,,,53,,,,,,,,,,,,,,340.7330000004149,,response,,,,99,,,,,,,Space,keypress(Space),,,,,,,,---- -- ----- -- ------ - ------- --- ----------<br>------------- ------ ------ ---- ---- ------- ----- -- ----<br>-------- ------- -- ---------- --- - --- ----- ----- ----<br>---- --- --- ----- --- ---- ---- ------- ----- ---- -------<br>--- --- -- ----- -- --- ---- -- --- ---- -- ------ ------<br>--- close -- ----,144499.135,144498.2200000004,144141.287,144150.86000000066,144157.487,144507.637,,53,close
screen,html.Screen,2_1_0_1_54,2021-04-24T17:06:15.039Z,,,,,,,,,,,,,,,,,53,,,,,,,,,,,,,,358.2280000006722,,response,,,,99,,,,,,,Space,keypress(Space),,,,,,,,---- -- ----- -- ------ - ------- --- ----------<br>------------- ------ ------ ---- ---- ------- ----- -- ----<br>-------- ------- -- ---------- --- - --- ----- ----- ----<br>---- --- --- ----- --- ---- ---- ------- ----- ---- -------<br>--- --- -- ----- -- --- ---- -- --- ---- -- ------ ------<br>--- ----- at ----,144866.32999999984,144865.86500000066,144491.247,144499.39500000072,144507.637,144874.181,,54,at
screen,html.Screen,2_1_0_1_55,2021-04-24T17:06:15.897Z,,,,,,,,,,,,,,,,,53,,,,,,,,,,,,,,848.6039999999048,,response,,,,99,,,,,,,Space,keypress(Space),,,,,,,,---- -- ----- -- ------ - ------- --- ----------<br>------------- ------ ------ ---- ---- ------- ----- -- ----<br>-------- ------- -- ---------- --- - --- ----- ----- ----<br>---- --- --- ----- --- ---- ---- ------- ----- ---- -------<br>--- --- -- ----- -- --- ---- -- --- ---- -- ------ ------<br>--- ----- -- all.,145723.8150000003,145722.78499999992,144857.872,144866.40500000067,144874.181,145740.899,,55,all.
Item 99,flow.Loop,2_1_0_1,2021-04-24T17:06:15.897Z,,,,,,,,,,,,,,,,,,,,,,,,,,,,,,,25030.51799999991,,completion,,,,,F,,,,,,,,,,,silence,,,,,145724.33499999988,145722.78499999992,120675.851,120677.20499999996,120692.267,145740.899,,,
Question 1,html.Screen,2_1_0_2,2021-04-24T17:06:21.536Z,,,,,,,,,,,,,,,,,,,,,,,,,,,,true,FALSE,,5620.416000000114,,response,,,,99,F,,,,,,FALSE,click #choice-2,,,,silence,,,,,151362.94499999986,151361.31500000012,145724.517,145724.5700000003,145740.899,151373.752,,,
Question 2,html.Screen,2_1_0_3,2021-04-24T17:06:30.195Z,,,,,,,,,,,,,,,,,,,,,,,,,,,,true,TRUE,,8646.66799999983,,response,,,,99,F,,,,,,TRUE,click #choice-1,,,,silence,,,,,160021.91500000027,160020.41999999984,151357.499,151363.22500000006,151373.752,160023.188,,,
Item 99,flow.Sequence,2_1_0,2021-04-24T17:06:30.195Z,,,,,,,,,,,,,,,,,,,,,,,,,,,,,,,49327.64799999984,,completion,,,,,,,,,,,,,,,,,,,,,160022.3300000007,160020.41999999984,110676.26,110687.04500000058,110692.772,160023.188,,,
Holding screen,html.Screen,2_1_1_0,2021-04-24T17:06:40.180Z,,,,,,,,,,,,,,,,,,,,,,,,,,,,,,,9999.363000000012,,timeout,,,,,,,,,,,,,,,,,,,,,170006.93500000035,170005.926,160006.745,160022.60000000024,160023.188,170022.551,,,
screen,html.Screen,2_1_1_1_0,2021-04-24T17:06:41.899Z,,,,,,,,,,,,,,,,,54,,,,,,,,,,,,,,1702.4940000001225,,response,,,,100,,,,,,,Space,keypress(Space),,,,,,,,At --- ---- --- ------ ----- ------- ---- -- --- ------- --<br>------- ---------- ------ -- ----- -- ----- -- ---- ------<br>--- ----- --- --- ------ -------- ----- --- ------ ----- --<br>----- ----- ---------- --- --- ------ ------ ---- -- ------<br>------- --- ------ ----- --- ---- ------- -- ---- --- --<br>------- ------,171726.14500000054,171725.04500000013,170005.926,170007.25500000044,170022.551,171739.59,,0,At
screen,html.Screen,2_1_1_1_1,2021-04-24T17:06:42.266Z,,,,,,,,,,,,,,,,,54,,,,,,,,,,,,,,352.5000000000873,,response,,,,100,,,,,,,Space,keypress(Space),,,,,,,,-- the ---- --- ------ ----- ------- ---- -- --- ------- --<br>------- ---------- ------ -- ----- -- ----- -- ---- ------<br>--- ----- --- --- ------ -------- ----- --- ------ ----- --<br>----- ----- ---------- --- --- ------ ------ ---- -- ------<br>------- --- ------ ----- --- ---- ------- -- ---- --- --<br>------- ------,172093.11500000057,172092.09000000008,171722.967,171726.50500000053,171739.59,172105.834,,1,the
screen,html.Screen,2_1_1_1_2,2021-04-24T17:06:42.517Z,,,,,,,,,,,,,,,,,54,,,,,,,,,,,,,,237.78100000068662,,response,,,,100,,,,,,,Space,keypress(Space),,,,,,,,-- --- time --- ------ ----- ------- ---- -- --- ------- --<br>------- ---------- ------ -- ----- -- ----- -- ---- ------<br>--- ----- --- --- ------ -------- ----- --- ------ ----- --<br>----- ----- ---------- --- --- ------ ------ ---- -- ------<br>------- --- ------ ----- --- ---- ------- -- ---- --- --<br>------- ------,172344.50500000003,172343.6150000007,172089.305,172093.42000000016,172105.834,172356.065,,2,time
screen,html.Screen,2_1_1_1_3,2021-04-24T17:06:42.788Z,,,,,,,,,,,,,,,,,54,,,,,,,,,,,,,,258.2250000004424,,response,,,,100,,,,,,,Space,keypress(Space),,,,,,,,-- --- ---- the ------ ----- ------- ---- -- --- ------- --<br>------- ---------- ------ -- ----- -- ----- -- ---- ------<br>--- ----- --- --- ------ -------- ----- --- ------ ----- --<br>----- ----- ---------- --- --- ------ ------ ---- -- ------<br>------- --- ------ ----- --- ---- ------- -- ---- --- --<br>------- ------,172615.27000000025,172614.29000000044,172339.197,172344.7700000006,172356.065,172622.411,,3,the
screen,html.Screen,2_1_1_1_4,2021-04-24T17:06:43.119Z,,,,,,,,,,,,,,,,,54,,,,,,,,,,,,,,322.444000000658,,response,,,,100,,,,,,,Space,keypress(Space),,,,,,,,-- --- ---- --- French ----- ------- ---- -- --- ------- --<br>------- ---------- ------ -- ----- -- ----- -- ---- ------<br>--- ----- --- --- ------ -------- ----- --- ------ ----- --<br>----- ----- ---------- --- --- ------ ------ ---- -- ------<br>------- --- ------ ----- --- ---- ------- -- ---- --- --<br>------- ------,172945.73500000025,172944.85500000065,172606.135,172615.53000000003,172622.411,172956.054,,4,French
screen,html.Screen,2_1_1_1_5,2021-04-24T17:06:43.501Z,,,,,,,,,,,,,,,,,54,,,,,,,,,,,,,,371.1810000006517,,response,,,,100,,,,,,,Space,keypress(Space),,,,,,,,-- --- ---- --- ------ crown ------- ---- -- --- ------- --<br>------- ---------- ------ -- ----- -- ----- -- ---- ------<br>--- ----- --- --- ------ -------- ----- --- ------ ----- --<br>----- ----- ---------- --- --- ------ ------ ---- -- ------<br>------- --- ------ ----- --- ---- ------- -- ---- --- --<br>------- ------,173328.5249999999,173327.23500000066,172939.398,172945.99500000005,172956.054,173339.358,,5,crown
screen,html.Screen,2_1_1_1_6,2021-04-24T17:06:43.969Z,,,,,,,,,,,,,,,,,54,,,,,,,,,,,,,,456.2720000005211,,response,,,,100,,,,,,,Space,keypress(Space),,,,,,,,-- --- ---- --- ------ ----- secured ---- -- --- ------- --<br>------- ---------- ------ -- ----- -- ----- -- ---- ------<br>--- ----- --- --- ------ -------- ----- --- ------ ----- --<br>----- ----- ---------- --- --- ------ ------ ---- -- ------<br>------- --- ------ ----- --- ---- ------- -- ---- --- --<br>------- ------,173796.58500000005,173795.63000000053,173322.797,173328.78000000073,173339.358,173806.021,,6,secured
screen,html.Screen,2_1_1_1_7,2021-04-24T17:06:44.383Z,,,,,,,,,,,,,,,,,54,,,,,,,,,,,,,,402.854000000254,,response,,,,100,,,,,,,Space,keypress(Space),,,,,,,,-- --- ---- --- ------ ----- ------- much -- --- ------- --<br>------- ---------- ------ -- ----- -- ----- -- ---- ------<br>--- ----- --- --- ------ -------- ----- --- ------ ----- --<br>----- ----- ---------- --- --- ------ ------ ---- -- ------<br>------- --- ------ ----- --- ---- ------- -- ---- --- --<br>------- ------,174209.84500000032,174208.87500000026,173789.246,173796.84499999986,173806.021,174222.45,,7,much
screen,html.Screen,2_1_1_1_8,2021-04-24T17:06:44.686Z,,,,,,,,,,,,,,,,,54,,,,,,,,,,,,,,289.61499999987427,,response,,,,100,,,,,,,Space,keypress(Space),,,,,,,,-- --- ---- --- ------ ----- ------- ---- of --- ------- --<br>------- ---------- ------ -- ----- -- ----- -- ---- ------<br>--- ----- --- --- ------ -------- ----- --- ------ ----- --<br>----- ----- ---------- --- --- ------ ------ ---- -- ------<br>------- --- ------ ----- --- ---- ------- -- ---- --- --<br>------- ------,174512.99000000017,174512.0649999999,174205.938,174210.11,174222.45,174522.503,,8,of
screen,html.Screen,2_1_1_1_9,2021-04-24T17:06:44.904Z,,,,,,,,,,,,,,,,,54,,,,,,,,,,,,,,208.07200000050943,,response,,,,100,,,,,,,Space,keypress(Space),,,,,,,,-- --- ---- --- ------ ----- ------- ---- -- its ------- --<br>------- ---------- ------ -- ----- -- ----- -- ---- ------<br>--- ----- --- --- ------ -------- ----- --- ------ ----- --<br>----- ----- ---------- --- --- ------ ------ ---- -- ------<br>------- --- ------ ----- --- ---- ------- -- ---- --- --<br>------- ------,174731.55000000042,174730.5750000005,174505.944,174513.24000000022,174522.503,174739.104,,9,its
screen,html.Screen,2_1_1_1_10,2021-04-24T17:06:45.347Z,,,,,,,,,,,,,,,,,54,,,,,,,,,,,,,,433.73600000017905,,response,,,,100,,,,,,,Space,keypress(Space),,,,,,,,-- --- ---- --- ------ ----- ------- ---- -- --- revenue --<br>------- ---------- ------ -- ----- -- ----- -- ---- ------<br>--- ----- --- --- ------ -------- ----- --- ------ ----- --<br>----- ----- ---------- --- --- ------ ------ ---- -- ------<br>------- --- ------ ----- --- ---- ------- -- ---- --- --<br>------- ------,175173.74999999994,175172.84000000017,174722.57,174731.81000000023,174739.104,175189.437,,10,revenue
screen,html.Screen,2_1_1_1_11,2021-04-24T17:06:45.669Z,,,,,,,,,,,,,,,,,54,,,,,,,,,,,,,,305.4879999999539,,response,,,,100,,,,,,,Space,keypress(Space),,,,,,,,-- --- ---- --- ------ ----- ------- ---- -- --- ------- by<br>------- ---------- ------ -- ----- -- ----- -- ---- ------<br>--- ----- --- --- ------ -------- ----- --- ------ ----- --<br>----- ----- ---------- --- --- ------ ------ ---- -- ------<br>------- --- ------ ----- --- ---- ------- -- ---- --- --<br>------- ------,175495.8400000005,175494.92499999996,175172.361,175173.99999999997,175189.437,175506.06,,11,by
screen,html.Screen,2_1_1_1_12,2021-04-24T17:06:45.986Z,,,,,,,,,,,,,,,,,54,,,,,,,,,,,,,,306.26499999986845,,response,,,,100,,,,,,,Space,keypress(Space),,,,,,,,-- --- ---- --- ------ ----- ------- ---- -- --- ------- --<br>issuing ---------- ------ -- ----- -- ----- -- ---- ------<br>--- ----- --- --- ------ -------- ----- --- ------ ----- --<br>----- ----- ---------- --- --- ------ ------ ---- -- ------<br>------- --- ------ ----- --- ---- ------- -- ---- --- --<br>------- ------,175813.2400000004,175812.32499999987,175489.048,175496.1000000003,175506.06,175822.161,,12,issuing
screen,html.Screen,2_1_1_1_13,2021-04-24T17:06:46.368Z,,,,,,,,,,,,,,,,,54,,,,,,,,,,,,,,372.55900000041584,,response,,,,100,,,,,,,Space,keypress(Space),,,,,,,,-- --- ---- --- ------ ----- ------- ---- -- --- ------- --<br>------- government ------ -- ----- -- ----- -- ---- ------<br>--- ----- --- --- ------ -------- ----- --- ------ ----- --<br>----- ----- ---------- --- --- ------ ------ ---- -- ------<br>------- --- ------ ----- --- ---- ------- -- ---- --- --<br>------- ------,176195.66000000032,176194.7200000004,175805.99,175813.49500000034,175822.161,176206.02,,13,government
screen,html.Screen,2_1_1_1_14,2021-04-24T17:06:46.629Z,,,,,,,,,,,,,,,,,54,,,,,,,,,,,,,,249.37000000008265,,response,,,,100,,,,,,,Space,keypress(Space),,,,,,,,-- --- ---- --- ------ ----- ------- ---- -- --- ------- --<br>------- ---------- bonds. -- ----- -- ----- -- ---- ------<br>--- ----- --- --- ------ -------- ----- --- ------ ----- --<br>----- ----- ---------- --- --- ------ ------ ---- -- ------<br>------- --- ------ ----- --- ---- ------- -- ---- --- --<br>------- ------,176456.3250000001,176455.39000000007,176189.253,176195.91500000024,176206.02,176472.219,,14,bonds.
screen,html.Screen,2_1_1_1_15,2021-04-24T17:06:47.101Z,,,,,,,,,,,,,,,,,54,,,,,,,,,,,,,,454.83600000009756,,response,,,,100,,,,,,,Space,keypress(Space),,,,,,,,-- --- ---- --- ------ ----- ------- ---- -- --- ------- --<br>------- ---------- ------ In ----- -- ----- -- ---- ------<br>--- ----- --- --- ------ -------- ----- --- ------ ----- --<br>----- ----- ---------- --- --- ------ ------ ---- -- ------<br>------- --- ------ ----- --- ---- ------- -- ---- --- --<br>------- ------,176928.00500000067,176927.0550000001,176455.942,176456.5849999999,176472.219,176939.365,,15,In
screen,html.Screen,2_1_1_1_16,2021-04-24T17:06:47.336Z,,,,,,,,,,,,,,,,,54,,,,,,,,,,,,,,222.99000000039814,,response,,,,100,,,,,,,Space,keypress(Space),,,,,,,,"-- --- ---- --- ------ ----- ------- ---- -- --- ------- --<br>------- ---------- ------ -- 1727, -- ----- -- ---- ------<br>--- ----- --- --- ------ -------- ----- --- ------ ----- --<br>----- ----- ---------- --- --- ------ ------ ---- -- ------<br>------- --- ------ ----- --- ---- ------- -- ---- --- --<br>------- ------",177163.28500000056,177162.3550000004,176922.579,176928.2600000006,176939.365,177172.264,,16,"1727,"
screen,html.Screen,2_1_1_1_17,2021-04-24T17:06:48.514Z,,,,,,,,,,,,,,,,,54,,,,,,,,,,,,,,1167.7010000001173,,response,,,,100,,,,,,,Space,keypress(Space),,,,,,,,-- --- ---- --- ------ ----- ------- ---- -- --- ------- --<br>------- ---------- ------ -- ----- in ----- -- ---- ------<br>--- ----- --- --- ------ -------- ----- --- ------ ----- --<br>----- ----- ---------- --- --- ------ ------ ---- -- ------<br>------- --- ------ ----- --- ---- ------- -- ---- --- --<br>------- ------,178340.94499999992,178339.9650000001,177155.632,177163.54500000033,177172.264,178355.687,,17,in
screen,html.Screen,2_1_1_1_18,2021-04-24T17:06:48.942Z,,,,,,,,,,,,,,,,,54,,,,,,,,,,,,,,412.4480000002368,,response,,,,100,,,,,,,Space,keypress(Space),,,,,,,,-- --- ---- --- ------ ----- ------- ---- -- --- ------- --<br>------- ---------- ------ -- ----- -- order -- ---- ------<br>--- ----- --- --- ------ -------- ----- --- ------ ----- --<br>----- ----- ---------- --- --- ------ ------ ---- -- ------<br>------- --- ------ ----- --- ---- ------- -- ---- --- --<br>------- ------,178769.1450000002,178768.13500000024,178339.182,178341.22999999998,178355.687,178772.076,,18,order
screen,html.Screen,2_1_1_1_19,2021-04-24T17:06:49.834Z,,,,,,,,,,,,,,,,,54,,,,,,,,,,,,,,887.7340000001132,,response,,,,100,,,,,,,Space,keypress(Space),,,,,,,,-- --- ---- --- ------ ----- ------- ---- -- --- ------- --<br>------- ---------- ------ -- ----- -- ----- to ---- ------<br>--- ----- --- --- ------ -------- ----- --- ------ ----- --<br>----- ----- ---------- --- --- ------ ------ ---- -- ------<br>------- --- ------ ----- --- ---- ------- -- ---- --- --<br>------- ------,179660.74500000014,179659.8100000001,178755.493,178769.39500000025,178772.076,179672.279,,19,to
screen,html.Screen,2_1_1_1_20,2021-04-24T17:06:50.190Z,,,,,,,,,,,,,,,,,54,,,,,,,,,,,,,,344.29600000055507,,response,,,,100,,,,,,,Space,keypress(Space),,,,,,,,-- --- ---- --- ------ ----- ------- ---- -- --- ------- --<br>------- ---------- ------ -- ----- -- ----- -- save ------<br>--- ----- --- --- ------ -------- ----- --- ------ ----- --<br>----- ----- ---------- --- --- ------ ------ ---- -- ------<br>------- --- ------ ----- --- ---- ------- -- ---- --- --<br>------- ------,180017.60999999987,180016.57500000056,179655.787,179661.02000000046,179672.279,180021.961,,20,save
screen,html.Screen,2_1_1_1_21,2021-04-24T17:06:50.632Z,,,,,,,,,,,,,,,,,54,,,,,,,,,,,,,,436.92399999999907,,response,,,,100,,,,,,,Space,keypress(Space),,,,,,,,"-- --- ---- --- ------ ----- ------- ---- -- --- ------- --<br>------- ---------- ------ -- ----- -- ----- -- ---- money,<br>--- ----- --- --- ------ -------- ----- --- ------ ----- --<br>----- ----- ---------- --- --- ------ ------ ---- -- ------<br>------- --- ------ ----- --- ---- ------- -- ---- --- --<br>------- ------",180459.8300000007,180458.885,180005.71,180017.87000000058,180021.961,180472.244,,21,"money,"
screen,html.Screen,2_1_1_1_22,2021-04-24T17:06:51.180Z,,,,,,,,,,,,,,,,,54,,,,,,,,,,,,,,535.2560000006051,,response,,,,100,,,,,,,Space,keypress(Space),,,,,,,,-- --- ---- --- ------ ----- ------- ---- -- --- ------- --<br>------- ---------- ------ -- ----- -- ----- -- ---- ------<br>the ----- --- --- ------ -------- ----- --- ------ ----- --<br>----- ----- ---------- --- --- ------ ------ ---- -- ------<br>------- --- ------ ----- --- ---- ------- -- ---- --- --<br>------- ------,181008.48000000042,181007.5000000006,180455.593,180460.14000000013,180472.244,181022.004,,22,the
screen,html.Screen,2_1_1_1_23,2021-04-24T17:06:51.510Z,,,,,,,,,,,,,,,,,54,,,,,,,,,,,,,,315.9010000003327,,response,,,,100,,,,,,,Space,keypress(Space),,,,,,,,-- --- ---- --- ------ ----- ------- ---- -- --- ------- --<br>------- ---------- ------ -- ----- -- ----- -- ---- ------<br>--- state --- --- ------ -------- ----- --- ------ ----- --<br>----- ----- ---------- --- --- ------ ------ ---- -- ------<br>------- --- ------ ----- --- ---- ------- -- ---- --- --<br>------- ------,181338.34000000026,181337.90500000032,181005.655,181008.74999999997,181022.004,181355.523,,23,state
screen,html.Screen,2_1_1_1_24,2021-04-24T17:06:51.858Z,,,,,,,,,,,,,,,,,54,,,,,,,,,,,,,,329.3270000005723,,response,,,,100,,,,,,,Space,keypress(Space),,,,,,,,-- --- ---- --- ------ ----- ------- ---- -- --- ------- --<br>------- ---------- ------ -- ----- -- ----- -- ---- ------<br>--- ----- cut --- ------ -------- ----- --- ------ ----- --<br>----- ----- ---------- --- --- ------ ------ ---- -- ------<br>------- --- ------ ----- --- ---- ------- -- ---- --- --<br>------- ------,181685.79500000033,181684.85000000056,181322.197,181338.4100000003,181355.523,181688.548,,24,cut
screen,html.Screen,2_1_1_1_25,2021-04-24T17:06:52.139Z,,,,,,,,,,,,,,,,,54,,,,,,,,,,,,,,277.1720000001369,,response,,,,100,,,,,,,Space,keypress(Space),,,,,,,,-- --- ---- --- ------ ----- ------- ---- -- --- ------- --<br>------- ---------- ------ -- ----- -- ----- -- ---- ------<br>--- ----- --- the ------ -------- ----- --- ------ ----- --<br>----- ----- ---------- --- --- ------ ------ ---- -- ------<br>------- --- ------ ----- --- ---- ------- -- ---- --- --<br>------- ------,181966.73999999985,181965.72000000015,181672.266,181686.05000000025,181688.548,181971.996,,25,the
screen,html.Screen,2_1_1_1_26,2021-04-24T17:06:52.326Z,,,,,,,,,,,,,,,,,54,,,,,,,,,,,,,,180.87900000065565,,response,,,,100,,,,,,,Space,keypress(Space),,,,,,,,-- --- ---- --- ------ ----- ------- ---- -- --- ------- --<br>------- ---------- ------ -- ----- -- ----- -- ---- ------<br>--- ----- --- --- bonds' -------- ----- --- ------ ----- --<br>----- ----- ---------- --- --- ------ ------ ---- -- ------<br>------- --- ------ ----- --- ---- ------- -- ---- --- --<br>------- ------,182153.82500000033,182152.87500000067,181955.659,181966.9950000007,181971.996,182188.37,,26,bonds'
screen,html.Screen,2_1_1_1_27,2021-04-24T17:06:52.873Z,,,,,,,,,,,,,,,,,54,,,,,,,,,,,,,,511.6350000005914,,response,,,,100,,,,,,,Space,keypress(Space),,,,,,,,-- --- ---- --- ------ ----- ------- ---- -- --- ------- --<br>------- ---------- ------ -- ----- -- ----- -- ---- ------<br>--- ----- --- --- ------ interest ----- --- ------ ----- --<br>----- ----- ---------- --- --- ------ ------ ---- -- ------<br>------- --- ------ ----- --- ---- ------- -- ---- --- --<br>------- ------,182700.92000000022,182700.0050000006,182138.932,182154.06500000064,182188.37,182705.167,,27,interest
screen,html.Screen,2_1_1_1_28,2021-04-24T17:06:53.272Z,,,,,,,,,,,,,,,,,54,,,,,,,,,,,,,,393.45800000053714,,response,,,,100,,,,,,,Space,keypress(Space),,,,,,,,-- --- ---- --- ------ ----- ------- ---- -- --- ------- --<br>------- ---------- ------ -- ----- -- ----- -- ---- ------<br>--- ----- --- --- ------ -------- rate. --- ------ ----- --<br>----- ----- ---------- --- --- ------ ------ ---- -- ------<br>------- --- ------ ----- --- ---- ------- -- ---- --- --<br>------- ------,183099.56500000044,183098.62500000052,182688.807,182701.17500000016,182705.167,183105.156,,28,rate.
screen,html.Screen,2_1_1_1_29,2021-04-24T17:06:53.804Z,,,,,,,,,,,,,,,,,54,,,,,,,,,,,,,,525.6740000000864,,response,,,,100,,,,,,,Space,keypress(Space),,,,,,,,-- --- ---- --- ------ ----- ------- ---- -- --- ------- --<br>------- ---------- ------ -- ----- -- ----- -- ---- ------<br>--- ----- --- --- ------ -------- ----- The ------ ----- --<br>----- ----- ---------- --- --- ------ ------ ---- -- ------<br>------- --- ------ ----- --- ---- ------- -- ---- --- --<br>------- ------,183631.79500000025,183630.83000000007,183088.784,183099.86000000028,183105.156,183638.407,,29,The
screen,html.Screen,2_1_1_1_30,2021-04-24T17:06:54.493Z,,,,,,,,,,,,,,,,,54,,,,,,,,,,,,,,682.0830000000424,,response,,,,100,,,,,,,Space,keypress(Space),,,,,,,,-- --- ---- --- ------ ----- ------- ---- -- --- ------- --<br>------- ---------- ------ -- ----- -- ----- -- ---- ------<br>--- ----- --- --- ------ -------- ----- --- market ----- --<br>----- ----- ---------- --- --- ------ ------ ---- -- ------<br>------- --- ------ ----- --- ---- ------- -- ---- --- --<br>------- ------,184321.465,184320.49000000005,183621.776,183632.15000000037,183638.407,184338.827,,30,market
screen,html.Screen,2_1_1_1_31,2021-04-24T17:06:55.007Z,,,,,,,,,,,,,,,,,54,,,,,,,,,,,,,,495.38799999986077,,response,,,,100,,,,,,,Space,keypress(Space),,,,,,,,-- --- ---- --- ------ ----- ------- ---- -- --- ------- --<br>------- ---------- ------ -- ----- -- ----- -- ---- ------<br>--- ----- --- --- ------ -------- ----- --- ------ value --<br>----- ----- ---------- --- --- ------ ------ ---- -- ------<br>------- --- ------ ----- --- ---- ------- -- ---- --- --<br>------- ------,184834.68500000073,184834.21499999985,184322.023,184321.7250000007,184338.827,184838.526,,31,value
screen,html.Screen,2_1_1_1_32,2021-04-24T17:06:55.357Z,,,,,,,,,,,,,,,,,54,,,,,,,,,,,,,,345.2289999999921,,response,,,,100,,,,,,,Space,keypress(Space),,,,,,,,-- --- ---- --- ------ ----- ------- ---- -- --- ------- --<br>------- ---------- ------ -- ----- -- ----- -- ---- ------<br>--- ----- --- --- ------ -------- ----- --- ------ ----- of<br>----- ----- ---------- --- --- ------ ------ ---- -- ------<br>------- --- ------ ----- --- ---- ------- -- ---- --- --<br>------- ------,185184.66500000068,185183.755,184821.849,184834.76000000065,184838.526,185188.385,,32,of
screen,html.Screen,2_1_1_1_33,2021-04-24T17:06:55.740Z,,,,,,,,,,,,,,,,,54,,,,,,,,,,,,,,378.6400000002759,,response,,,,100,,,,,,,Space,keypress(Space),,,,,,,,-- --- ---- --- ------ ----- ------- ---- -- --- ------- --<br>------- ---------- ------ -- ----- -- ----- -- ---- ------<br>--- ----- --- --- ------ -------- ----- --- ------ ----- --<br>these ----- ---------- --- --- ------ ------ ---- -- ------<br>------- --- ------ ----- --- ---- ------- -- ---- --- --<br>------- ------,185568.0000000002,185567.02500000029,185172.071,185184.9200000006,185188.385,185571.694,,33,these
screen,html.Screen,2_1_1_1_34,2021-04-24T17:06:56.066Z,,,,,,,,,,,,,,,,,54,,,,,,,,,,,,,,321.49600000071223,,response,,,,100,,,,,,,Space,keypress(Space),,,,,,,,-- --- ---- --- ------ ----- ------- ---- -- --- ------- --<br>------- ---------- ------ -- ----- -- ----- -- ---- ------<br>--- ----- --- --- ------ -------- ----- --- ------ ----- --<br>----- bonds ---------- --- --- ------ ------ ---- -- ------<br>------- --- ------ ----- --- ---- ------- -- ---- --- --<br>------- ------,185893.88000000053,185893.1900000007,185555.454,185568.25000000026,185571.694,185904.996,,34,bonds
screen,html.Screen,2_1_1_1_35,2021-04-24T17:06:56.558Z,,,,,,,,,,,,,,,,,54,,,,,,,,,,,,,,480.43900000012945,,response,,,,100,,,,,,,Space,keypress(Space),,,,,,,,"-- --- ---- --- ------ ----- ------- ---- -- --- ------- --<br>------- ---------- ------ -- ----- -- ----- -- ---- ------<br>--- ----- --- --- ------ -------- ----- --- ------ ----- --<br>----- ----- plummeted, --- --- ------ ------ ---- -- ------<br>------- --- ------ ----- --- ---- ------- -- ---- --- --<br>------- ------",186385.95500000066,186385.43500000014,185888.678,185894.04000000012,185904.996,186388.193,,35,"plummeted,"
screen,html.Screen,2_1_1_1_36,2021-04-24T17:06:56.912Z,,,,,,,,,,,,,,,,,54,,,,,,,,,,,,,,351.1120000000519,,response,,,,100,,,,,,,Space,keypress(Space),,,,,,,,-- --- ---- --- ------ ----- ------- ---- -- --- ------- --<br>------- ---------- ------ -- ----- -- ----- -- ---- ------<br>--- ----- --- --- ------ -------- ----- --- ------ ----- --<br>----- ----- ---------- and --- ------ ------ ---- -- ------<br>------- --- ------ ----- --- ---- ------- -- ---- --- --<br>------- ------,186739.80500000017,186739.30500000005,186371.94,186386.04000000033,186388.193,186754.864,,36,and
screen,html.Screen,2_1_1_1_37,2021-04-24T17:06:57.164Z,,,,,,,,,,,,,,,,,54,,,,,,,,,,,,,,235.74099999995087,,response,,,,100,,,,,,,Space,keypress(Space),,,,,,,,-- --- ---- --- ------ ----- ------- ---- -- --- ------- --<br>------- ---------- ------ -- ----- -- ----- -- ---- ------<br>--- ----- --- --- ------ -------- ----- --- ------ ----- --<br>----- ----- ---------- --- the ------ ------ ---- -- ------<br>------- --- ------ ----- --- ---- ------- -- ---- --- --<br>------- ------,186991.72499999986,186990.60499999995,186738.577,186739.88999999984,186754.864,187005.244,,37,the
screen,html.Screen,2_1_1_1_38,2021-04-24T17:06:57.383Z,,,,,,,,,,,,,,,,,54,,,,,,,,,,,,,,205.12099999989732,,response,,,,100,,,,,,,Space,keypress(Space),,,,,,,,-- --- ---- --- ------ ----- ------- ---- -- --- ------- --<br>------- ---------- ------ -- ----- -- ----- -- ---- ------<br>--- ----- --- --- ------ -------- ----- --- ------ ----- --<br>----- ----- ---------- --- --- market ------ ---- -- ------<br>------- --- ------ ----- --- ---- ------- -- ---- --- --<br>------- ------,187211.29999999993,187210.3649999999,186988.659,186992.05500000063,187005.244,187221.846,,38,market
screen,html.Screen,2_1_1_1_39,2021-04-24T17:06:57.801Z,,,,,,,,,,,,,,,,,54,,,,,,,,,,,,,,406.1640000003681,,response,,,,100,,,,,,,Space,keypress(Space),,,,,,,,-- --- ---- --- ------ ----- ------- ---- -- --- ------- --<br>------- ---------- ------ -- ----- -- ----- -- ---- ------<br>--- ----- --- --- ------ -------- ----- --- ------ ----- --<br>----- ----- ---------- --- --- ------ became ---- -- ------<br>------- --- ------ ----- --- ---- ------- -- ---- --- --<br>------- ------,187628.93500000064,187628.01000000036,187204.894,187211.56000000064,187221.846,187638.421,,39,became
screen,html.Screen,2_1_1_1_40,2021-04-24T17:06:58.115Z,,,,,,,,,,,,,,,,,54,,,,,,,,,,,,,,303.14400000008754,,response,,,,100,,,,,,,Space,keypress(Space),,,,,,,,-- --- ---- --- ------ ----- ------- ---- -- --- ------- --<br>------- ---------- ------ -- ----- -- ----- -- ---- ------<br>--- ----- --- --- ------ -------- ----- --- ------ ----- --<br>----- ----- ---------- --- --- ------ ------ wary -- ------<br>------- --- ------ ----- --- ---- ------- -- ---- --- --<br>------- ------,187942.53500000015,187941.5650000001,187621.776,187629.19000000056,187638.421,187955.11,,40,wary
screen,html.Screen,2_1_1_1_41,2021-04-24T17:06:58.588Z,,,,,,,,,,,,,,,,,54,,,,,,,,,,,,,,459.56999999989057,,response,,,,100,,,,,,,Space,keypress(Space),,,,,,,,-- --- ---- --- ------ ----- ------- ---- -- --- ------- --<br>------- ---------- ------ -- ----- -- ----- -- ---- ------<br>--- ----- --- --- ------ -------- ----- --- ------ ----- --<br>----- ----- ---------- --- --- ------ ------ ---- of ------<br>------- --- ------ ----- --- ---- ------- -- ---- --- --<br>------- ------,188415.6499999999,188414.67999999988,187938.318,187942.90499999988,187955.11,188421.448,,41,of
screen,html.Screen,2_1_1_1_42,2021-04-24T17:06:59.102Z,,,,,,,,,,,,,,,,,54,,,,,,,,,,,,,,507.5070000003034,,response,,,,100,,,,,,,Space,keypress(Space),,,,,,,,-- --- ---- --- ------ ----- ------- ---- -- --- ------- --<br>------- ---------- ------ -- ----- -- ----- -- ---- ------<br>--- ----- --- --- ------ -------- ----- --- ------ ----- --<br>----- ----- ---------- --- --- ------ ------ ---- -- French<br>------- --- ------ ----- --- ---- ------- -- ---- --- --<br>------- ------,188929.93000000023,188928.9550000003,188405.225,188415.91000000061,188421.448,188938.178,,42,French
screen,html.Screen,2_1_1_1_43,2021-04-24T17:06:59.888Z,,,,,,,,,,,,,,,,,54,,,,,,,,,,,,,,776.4570000002568,,response,,,,100,,,,,,,Space,keypress(Space),,,,,,,,-- --- ---- --- ------ ----- ------- ---- -- --- ------- --<br>------- ---------- ------ -- ----- -- ----- -- ---- ------<br>--- ----- --- --- ------ -------- ----- --- ------ ----- --<br>----- ----- ---------- --- --- ------ ------ ---- -- ------<br>credit. --- ------ ----- --- ---- ------- -- ---- --- --<br>------- ------,189715.61500000008,189714.63500000027,188921.712,188930.18000000028,188938.178,189721.408,,43,credit.
screen,html.Screen,2_1_1_1_44,2021-04-24T17:07:00.226Z,,,,,,,,,,,,,,,,,54,,,,,,,,,,,,,,331.55199999999604,,response,,,,100,,,,,,,Space,keypress(Space),,,,,,,,-- --- ---- --- ------ ----- ------- ---- -- --- ------- --<br>------- ---------- ------ -- ----- -- ----- -- ---- ------<br>--- ----- --- --- ------ -------- ----- --- ------ ----- --<br>----- ----- ---------- --- --- ------ ------ ---- -- ------<br>------- The ------ ----- --- ---- ------- -- ---- --- --<br>------- ------,190053.96999999994,190052.96,189705.178,189715.86000000025,189721.408,190071.78,,44,The
screen,html.Screen,2_1_1_1_45,2021-04-24T17:07:00.465Z,,,,,,,,,,,,,,,,,54,,,,,,,,,,,,,,219.8150000006135,,response,,,,100,,,,,,,Space,keypress(Space),,,,,,,,-- --- ---- --- ------ ----- ------- ---- -- --- ------- --<br>------- ---------- ------ -- ----- -- ----- -- ---- ------<br>--- ----- --- --- ------ -------- ----- --- ------ ----- --<br>----- ----- ---------- --- --- ------ ------ ---- -- ------<br>------- --- French ----- --- ---- ------- -- ---- --- --<br>------- ------,190292.59000000003,190291.5950000006,190038.308,190054.21999999997,190071.78,190304.843,,45,French
screen,html.Screen,2_1_1_1_46,2021-04-24T17:07:00.938Z,,,,,,,,,,,,,,,,,54,,,,,,,,,,,,,,460.5319999999483,,response,,,,100,,,,,,,Space,keypress(Space),,,,,,,,-- --- ---- --- ------ ----- ------- ---- -- --- ------- --<br>------- ---------- ------ -- ----- -- ----- -- ---- ------<br>--- ----- --- --- ------ -------- ----- --- ------ ----- --<br>----- ----- ---------- --- --- ------ ------ ---- -- ------<br>------- --- ------ state --- ---- ------- -- ---- --- --<br>------- ------,190766.35500000065,190765.37499999994,190288.365,190292.84499999994,190304.843,190771.344,,46,state
screen,html.Screen,2_1_1_1_47,2021-04-24T17:07:01.380Z,,,,,,,,,,,,,,,,,54,,,,,,,,,,,,,,436.08100000050035,,response,,,,100,,,,,,,Space,keypress(Space),,,,,,,,-- --- ---- --- ------ ----- ------- ---- -- --- ------- --<br>------- ---------- ------ -- ----- -- ----- -- ---- ------<br>--- ----- --- --- ------ -------- ----- --- ------ ----- --<br>----- ----- ---------- --- --- ------ ------ ---- -- ------<br>------- --- ------ ----- was ---- ------- -- ---- --- --<br>------- ------,191208.40000000043,191207.4250000005,190754.858,190766.61000000057,190771.344,191221.73,,47,was
screen,html.Screen,2_1_1_1_48,2021-04-24T17:07:01.711Z,,,,,,,,,,,,,,,,,54,,,,,,,,,,,,,,316.48000000059255,,response,,,,100,,,,,,,Space,keypress(Space),,,,,,,,-- --- ---- --- ------ ----- ------- ---- -- --- ------- --<br>------- ---------- ------ -- ----- -- ----- -- ---- ------<br>--- ----- --- --- ------ -------- ----- --- ------ ----- --<br>----- ----- ---------- --- --- ------ ------ ---- -- ------<br>------- --- ------ ----- --- left ------- -- ---- --- --<br>------- ------,191539.1900000004,191538.2100000006,191204.912,191208.65500000038,191221.73,191554.68,,48,left
screen,html.Screen,2_1_1_1_49,2021-04-24T17:07:02.166Z,,,,,,,,,,,,,,,,,54,,,,,,,,,,,,,,438.0200000007171,,response,,,,100,,,,,,,Space,keypress(Space),,,,,,,,-- --- ---- --- ------ ----- ------- ---- -- --- ------- --<br>------- ---------- ------ -- ----- -- ----- -- ---- ------<br>--- ----- --- --- ------ -------- ----- --- ------ ----- --<br>----- ----- ---------- --- --- ------ ------ ---- -- ------<br>------- --- ------ ----- --- ---- without -- ---- --- --<br>------- ------,191993.77000000005,191992.7000000007,191538.002,191539.44500000036,191554.68,192004.986,,49,without
screen,html.Screen,2_1_1_1_50,2021-04-24T17:07:02.525Z,,,,,,,,,,,,,,,,,54,,,,,,,,,,,,,,347.3739999998652,,response,,,,100,,,,,,,Space,keypress(Space),,,,,,,,-- --- ---- --- ------ ----- ------- ---- -- --- ------- --<br>------- ---------- ------ -- ----- -- ----- -- ---- ------<br>--- ----- --- --- ------ -------- ----- --- ------ ----- --<br>----- ----- ---------- --- --- ------ ------ ---- -- ------<br>------- --- ------ ----- --- ---- ------- an ---- --- --<br>------- ------,192353.2700000005,192352.35999999987,191988.345,191994.09500000003,192004.986,192377.121,,50,an
screen,html.Screen,2_1_1_1_51,2021-04-24T17:07:02.784Z,,,,,,,,,,,,,,,,,54,,,,,,,,,,,,,,234.1590000000724,,response,,,,100,,,,,,,Space,keypress(Space),,,,,,,,-- --- ---- --- ------ ----- ------- ---- -- --- ------- --<br>------- ---------- ------ -- ----- -- ----- -- ---- ------<br>--- ----- --- --- ------ -------- ----- --- ------ ----- --<br>----- ----- ---------- --- --- ------ ------ ---- -- ------<br>------- --- ------ ----- --- ---- ------- -- easy --- --<br>------- ------,192612.255,192611.2800000001,192338.129,192353.5350000002,192377.121,192621.624,,51,easy
screen,html.Screen,2_1_1_1_52,2021-04-24T17:07:03.193Z,,,,,,,,,,,,,,,,,54,,,,,,,,,,,,,,398.28100000010454,,response,,,,100,,,,,,,Space,keypress(Space),,,,,,,,-- --- ---- --- ------ ----- ------- ---- -- --- ------- --<br>------- ---------- ------ -- ----- -- ----- -- ---- ------<br>--- ----- --- --- ------ -------- ----- --- ------ ----- --<br>----- ----- ---------- --- --- ------ ------ ---- -- ------<br>------- --- ------ ----- --- ---- ------- -- ---- way --<br>------- ------,193020.86000000054,193019.90500000012,192604.935,192612.60000000038,192621.624,193038.309,,52,way
screen,html.Screen,2_1_1_1_53,2021-04-24T17:07:03.514Z,,,,,,,,,,,,,,,,,54,,,,,,,,,,,,,,302.3660000003583,,response,,,,100,,,,,,,Space,keypress(Space),,,,,,,,-- --- ---- --- ------ ----- ------- ---- -- --- ------- --<br>------- ---------- ------ -- ----- -- ----- -- ---- ------<br>--- ----- --- --- ------ -------- ----- --- ------ ----- --<br>----- ----- ---------- --- --- ------ ------ ---- -- ------<br>------- --- ------ ----- --- ---- ------- -- ---- --- of<br>------- ------,193341.65500000017,193340.67500000037,193021.44,193021.12000000034,193038.309,193354.771,,53,of
screen,html.Screen,2_1_1_1_54,2021-04-24T17:07:04.058Z,,,,,,,,,,,,,,,,,54,,,,,,,,,,,,,,530.7490000007092,,response,,,,100,,,,,,,Space,keypress(Space),,,,,,,,-- --- ---- --- ------ ----- ------- ---- -- --- ------- --<br>------- ---------- ------ -- ----- -- ----- -- ---- ------<br>--- ----- --- --- ------ -------- ----- --- ------ ----- --<br>----- ----- ---------- --- --- ------ ------ ---- -- ------<br>------- --- ------ ----- --- ---- ------- -- ---- --- --<br>raising ------,193886.50000000052,193885.52000000072,193338.271,193342.0350000006,193354.771,193908.375,,54,raising
screen,html.Screen,2_1_1_1_55,2021-04-24T17:07:04.441Z,,,,,,,,,,,,,,,,,54,,,,,,,,,,,,,,359.96000000066124,,response,,,,100,,,,,,,Space,keypress(Space),,,,,,,,-- --- ---- --- ------ ----- ------- ---- -- --- ------- --<br>------- ---------- ------ -- ----- -- ----- -- ---- ------<br>--- ----- --- --- ------ -------- ----- --- ------ ----- --<br>----- ----- ---------- --- --- ------ ------ ---- -- ------<br>------- --- ------ ----- --- ---- ------- -- ---- --- --<br>------- money.,194269.29999999993,194268.33500000066,193871.583,193886.7450000007,193908.375,194292.88,,55,money.
Item 100,flow.Loop,2_1_1_1,2021-04-24T17:07:04.442Z,,,,,,,,,,,,,,,,,,,,,,,,,,,,,,,24245.784000000654,,completion,,,,,F,,,,,,,,,,,silence,,,,,194269.78000000055,194268.33500000066,170005.926,170007.16999999987,170022.551,194292.88,,,
Question 1,html.Screen,2_1_1_2,2021-04-24T17:07:08.216Z,,,,,,,,,,,,,,,,,,,,,,,,,,,,true,TRUE,,3749.42499999993,,response,,,,100,F,,,,,,TRUE,click #choice-1,,,,silence,,,,,198043.77000000022,198042.30499999993,194254.872,194269.99500000058,194292.88,198054.225,,,
Question 2,html.Screen,2_1_1_3,2021-04-24T17:07:11.571Z,,,,,,,,,,,,,,,,,,,,,,,,,,,,true,FALSE,,3342.86000000051,,response,,,,100,F,,,,,,FALSE,click #choice-2,,,,silence,,,,,201398.60500000033,201397.08500000052,198037.659,198044.05000000042,198054.225,201403.979,,,
Item 100,flow.Sequence,2_1_1,2021-04-24T17:07:11.571Z,,,,,,,,,,,,,,,,,,,,,,,,,,,,,,,41373.89700000052,,completion,,,,,,,,,,,,,,,,,,,,,201399.03500000038,201397.08500000052,160006.745,160022.52000000043,160023.188,201403.979,,,
End of Practice,html.Page,2_1_2,2021-04-24T17:07:15.414Z,,,,,,,,,,,,,,,,,,,,,,,,,,,,,,,3837.876000000222,,form submission,,,,,,,,,,,,,,,,,,,,,205242.29999999987,205241.8550000002,201387.72,201399.2500000004,201403.979,205253.931,,,
Practice,flow.Sequence,2_1,2021-04-24T17:07:15.415Z,,,,,,,,,,,,,,,,,,,,,,,,,,,,,,,94549.08300000022,,completion,,,,,,,,,,,,,,,,,,,,,205242.7400000006,205241.8550000002,110676.26,110686.95000000024,110692.772,205253.931,,,
Trap_instruction,html.Page,2_2_0,2021-04-24T17:07:20.305Z,,,,,,,,,,,,,,,,,,,,,,,,,,,,,,,4878.448999999993,,form submission,,,,,,,,,,,,,,,,,,,,,210132.79500000045,210132.38,205237.553,205243.02500000066,205253.931,210153.469,,,
trap_trial,html.Screen,2_2_1,2021-04-24T17:07:25.233Z,,,,,,,,,,,,,,,,,,,,,,,,,,,,true,1,,4905.441000000632,,response,,,,,,,,,,,1,click #choice-1,,,,,,,,,215060.68000000052,215058.91000000064,210120.59,210133.04000000062,210153.469,215069.824,,,
end of trap trial,html.Page,2_2_2,2021-04-24T17:07:27.855Z,,,,,,,,,,,,,,,,,,,,,,,,,,,,,,,2612.350999999937,,form submission,,,,,,,,,,,,,,,,,,,,,217682.59000000035,217682.17499999993,215053.436,215060.95499999993,215069.824,217686.408,,,
Trap 1,flow.Sequence,2_2,2021-04-24T17:07:27.855Z,,,,,,,,,,,,,,,,,,,,,,,,,,,,,,,12428.243999999919,,completion,,,,,,,,,,,,,,,,,,,,,217682.97500000062,217682.17499999993,205237.553,205242.93500000023,205253.931,217686.408,,,
Standby,html.Page,2_3_0,2021-04-24T17:07:35.842Z,,,,,,,,,,,,,,,,,,,,,,,,,,,,,,,7999.679999999993,,timeout,,,,,,,,,,,,,,,,,,,,,225670.38000000047,225669.361,217669.746,217683.23500000042,217686.408,225686.088,,,
Holding screen,html.Screen,2_3_1_0_0,2021-04-24T17:07:42.842Z,,,,,,,,,,,,,,,,,,,,,,,,,,,,,,,6999.8000000000175,,timeout,,,,,,,,,,,,,,,,,,,,,232670.16500000044,232669.059,225669.361,225670.89000000033,225686.088,232685.888,,,
screen,html.Screen,2_3_1_0_1_0,2021-04-24T17:07:44.217Z,,,,,,,,,,,,,,,,,48,,,,,,,,,,,,,,1357.1820000006119,,response,,,,10,F,,,,,,Space,keypress(Space),,,,instrumental,,,,As -- --- ------ ------- --------- ----------- --------<br>--------- -------- --- ------- -- ------- ---- -- ------<br>-- --- -------- -------- ---------- ---- ---- ---- ------<br>-- --------- -- ---- -- --- -- --- ------- -- - -----<br>---------- -- -- -- ---- ----- -- ------ -- --- ------<br>-------,234044.72500000065,234043.07000000062,232669.059,232670.54499999995,232685.888,234052.095,,0,As
screen,html.Screen,2_3_1_0_1_1,2021-04-24T17:07:44.676Z,,,,,,,,,,,,,,,,,48,,,,,,,,,,,,,,450.96000000013737,,response,,,,10,F,,,,,,Space,keypress(Space),,,,instrumental,,,,-- in --- ------ ------- --------- ----------- --------<br>--------- -------- --- ------- -- ------- ---- -- ------<br>-- --- -------- -------- ---------- ---- ---- ---- ------<br>-- --------- -- ---- -- --- -- --- ------- -- - -----<br>---------- -- -- -- ---- ----- -- ------ -- --- ------<br>-------,234504.05000000045,234503.05500000014,234035.545,234045.0150000006,234052.095,234518.664,,1,in
screen,html.Screen,2_3_1_0_1_2,2021-04-24T17:07:45.171Z,,,,,,,,,,,,,,,,,48,,,,,,,,,,,,,,479.156000000512,,response,,,,10,F,,,,,,Space,keypress(Space),,,,instrumental,,,,-- -- the ------ ------- --------- ----------- --------<br>--------- -------- --- ------- -- ------- ---- -- ------<br>-- --- -------- -------- ---------- ---- ---- ---- ------<br>-- --------- -- ---- -- --- -- --- ------- -- - -----<br>---------- -- -- -- ---- ----- -- ------ -- --- ------<br>-------,234998.9000000005,234997.8200000005,234502.339,234504.3000000005,234518.664,235002.015,,2,the
screen,html.Screen,2_3_1_0_1_3,2021-04-24T17:07:45.726Z,,,,,,,,,,,,,,,,,48,,,,,,,,,,,,,,551.440000000206,,response,,,,10,F,,,,,,Space,keypress(Space),,,,instrumental,,,,-- -- --- United ------- --------- ----------- --------<br>--------- -------- --- ------- -- ------- ---- -- ------<br>-- --- -------- -------- ---------- ---- ---- ---- ------<br>-- --------- -- ---- -- --- -- --- ------- -- - -----<br>---------- -- -- -- ---- ----- -- ------ -- --- ------<br>-------,235554.45500000042,235553.45500000022,234985.709,234999.16500000018,235002.015,235568.629,,3,United
screen,html.Screen,2_3_1_0_1_4,2021-04-24T17:07:46.442Z,,,,,,,,,,,,,,,,,48,,,,,,,,,,,,,,700.0810000002966,,response,,,,10,F,,,,,,Space,keypress(Space),,,,instrumental,,,,"-- -- --- ------ States, --------- ----------- --------<br>--------- -------- --- ------- -- ------- ---- -- ------<br>-- --- -------- -------- ---------- ---- ---- ---- ------<br>-- --------- -- ---- -- --- -- --- ------- -- - -----<br>---------- -- -- -- ---- ----- -- ------ -- --- ------<br>-------",236269.88500000062,236268.71000000028,235552.149,235554.70500000048,235568.629,236285.659,,4,"States,"
screen,html.Screen,2_3_1_0_1_5,2021-04-24T17:07:47.000Z,,,,,,,,,,,,,,,,,48,,,,,,,,,,,,,,541.731000000349,,response,,,,10,F,,,,,,Space,keypress(Space),,,,instrumental,,,,-- -- --- ------ ------- Colombian ----------- --------<br>--------- -------- --- ------- -- ------- ---- -- ------<br>-- --- -------- -------- ---------- ---- ---- ---- ------<br>-- --------- -- ---- -- --- -- --- ------- -- - -----<br>---------- -- -- -- ---- ----- -- ------ -- --- ------<br>-------,236828.4000000003,236827.39000000036,236268.989,236270.2250000002,236285.659,236835.179,,5,Colombian
screen,html.Screen,2_3_1_0_1_6,2021-04-24T17:07:47.549Z,,,,,,,,,,,,,,,,,48,,,,,,,,,,,,,,540.685999999987,,response,,,,10,F,,,,,,Space,keypress(Space),,,,instrumental,,,,-- -- --- ------ ------- --------- legislation --------<br>--------- -------- --- ------- -- ------- ---- -- ------<br>-- --- -------- -------- ---------- ---- ---- ---- ------<br>-- --------- -- ---- -- --- -- --- ------- -- - -----<br>---------- -- -- -- ---- ----- -- ------ -- --- ------<br>-------,237376.89000000045,237375.865,236818.646,236828.65500000026,236835.179,237385.16,,6,legislation
screen,html.Screen,2_3_1_0_1_7,2021-04-24T17:07:47.976Z,,,,,,,,,,,,,,,,,48,,,,,,,,,,,,,,417.68000000028405,,response,,,,10,F,,,,,,Space,keypress(Space),,,,instrumental,,,,-- -- --- ------ ------- --------- ----------- requires<br>--------- -------- --- ------- -- ------- ---- -- ------<br>-- --- -------- -------- ---------- ---- ---- ---- ------<br>-- --------- -- ---- -- --- -- --- ------- -- - -----<br>---------- -- -- -- ---- ----- -- ------ -- --- ------<br>-------,237803.82499999995,237802.8400000003,237368.613,237377.13500000065,237385.16,237818.547,,7,requires
screen,html.Screen,2_3_1_0_1_8,2021-04-24T17:07:48.490Z,,,,,,,,,,,,,,,,,48,,,,,,,,,,,,,,497.9879999999248,,response,,,,10,F,,,,,,Space,keypress(Space),,,,instrumental,,,,-- -- --- ------ ------- --------- ----------- --------<br>travelers -------- --- ------- -- ------- ---- -- ------<br>-- --- -------- -------- ---------- ---- ---- ---- ------<br>-- --------- -- ---- -- --- -- --- ------- -- - -----<br>---------- -- -- -- ---- ----- -- ------ -- --- ------<br>-------,238317.5200000005,238316.53499999992,237801.892,237804.07000000012,237818.547,238335.366,,8,travelers
screen,html.Screen,2_3_1_0_1_9,2021-04-24T17:07:49.016Z,,,,,,,,,,,,,,,,,48,,,,,,,,,,,,,,507.2290000000794,,response,,,,10,F,,,,,,Space,keypress(Space),,,,instrumental,,,,-- -- --- ------ ------- --------- ----------- --------<br>--------- entering --- ------- -- ------- ---- -- ------<br>-- --- -------- -------- ---------- ---- ---- ---- ------<br>-- --------- -- ---- -- --- -- --- ------- -- - -----<br>---------- -- -- -- ---- ----- -- ------ -- --- ------<br>-------,238843.6150000007,238842.5950000001,238302.236,238317.76500000068,238335.366,238851.925,,9,entering
screen,html.Screen,2_3_1_0_1_10,2021-04-24T17:07:49.517Z,,,,,,,,,,,,,,,,,48,,,,,,,,,,,,,,492.1549999998533,,response,,,,10,F,,,,,,Space,keypress(Space),,,,instrumental,,,,-- -- --- ------ ------- --------- ----------- --------<br>--------- -------- the ------- -- ------- ---- -- ------<br>-- --- -------- -------- ---------- ---- ---- ---- ------<br>-- --------- -- ---- -- --- -- --- ------- -- - -----<br>---------- -- -- -- ---- ----- -- ------ -- --- ------<br>-------,239345.11000000022,239344.07999999984,238835.192,238843.85999999996,238851.925,239351.71,,10,the
screen,html.Screen,2_3_1_0_1_11,2021-04-24T17:07:50.078Z,,,,,,,,,,,,,,,,,48,,,,,,,,,,,,,,553.660000000411,,response,,,,10,F,,,,,,Space,keypress(Space),,,,instrumental,,,,-- -- --- ------ ------- --------- ----------- --------<br>--------- -------- --- country -- ------- ---- -- ------<br>-- --- -------- -------- ---------- ---- ---- ---- ------<br>-- --------- -- ---- -- --- -- --- ------- -- - -----<br>---------- -- -- -- ---- ----- -- ------ -- --- ------<br>-------,239906.0100000006,239905.3700000004,239335.265,239345.37,239351.71,239918.487,,11,country
screen,html.Screen,2_3_1_0_1_12,2021-04-24T17:07:50.449Z,,,,,,,,,,,,,,,,,48,,,,,,,,,,,,,,357.1980000005278,,response,,,,10,F,,,,,,Space,keypress(Space),,,,instrumental,,,,-- -- --- ------ ------- --------- ----------- --------<br>--------- -------- --- ------- to ------- ---- -- ------<br>-- --- -------- -------- ---------- ---- ---- ---- ------<br>-- --------- -- ---- -- --- -- --- ------- -- - -----<br>---------- -- -- -- ---- ----- -- ------ -- --- ------<br>-------,240276.7300000005,240275.68500000052,239902.024,239906.16000000044,239918.487,240285.049,,12,to
screen,html.Screen,2_3_1_0_1_13,2021-04-24T17:07:50.951Z,,,,,,,,,,,,,,,,,48,,,,,,,,,,,,,,494.2360000005283,,response,,,,10,F,,,,,,Space,keypress(Space),,,,instrumental,,,,-- -- --- ------ ------- --------- ----------- --------<br>--------- -------- --- ------- -- declare ---- -- ------<br>-- --- -------- -------- ---------- ---- ---- ---- ------<br>-- --------- -- ---- -- --- -- --- ------- -- - -----<br>---------- -- -- -- ---- ----- -- ------ -- --- ------<br>-------,240780.34000000026,240779.28500000053,240268.624,240276.98000000056,240285.049,240785.008,,13,declare
screen,html.Screen,2_3_1_0_1_14,2021-04-24T17:07:51.272Z,,,,,,,,,,,,,,,,,48,,,,,,,,,,,,,,315.0620000004128,,response,,,,10,F,,,,,,Space,keypress(Space),,,,instrumental,,,,-- -- --- ------ ------- --------- ----------- --------<br>--------- -------- --- ------- -- ------- cash -- ------<br>-- --- -------- -------- ---------- ---- ---- ---- ------<br>-- --------- -- ---- -- --- -- --- ------- -- - -----<br>---------- -- -- -- ---- ----- -- ------ -- --- ------<br>-------,241101.09499999997,241100.0700000004,240768.412,240780.58500000043,240785.008,241135.125,,14,cash
screen,html.Screen,2_3_1_0_1_15,2021-04-24T17:07:51.634Z,,,,,,,,,,,,,,,,,48,,,,,,,,,,,,,,327.5700000001816,,response,,,,10,F,,,,,,Space,keypress(Space),,,,instrumental,,,,-- -- --- ------ ------- --------- ----------- --------<br>--------- -------- --- ------- -- ------- ---- in ------<br>-- --- -------- -------- ---------- ---- ---- ---- ------<br>-- --------- -- ---- -- --- -- --- ------- -- - -----<br>---------- -- -- -- ---- ----- -- ------ -- --- ------<br>-------,241463.6900000005,241462.69500000018,241118.666,241101.33500000028,241135.125,241468.199,,15,in
screen,html.Screen,2_3_1_0_1_16,2021-04-24T17:07:52.017Z,,,,,,,,,,,,,,,,,48,,,,,,,,,,,,,,377.60599999994156,,response,,,,10,F,,,,,,Space,keypress(Space),,,,instrumental,,,,-- -- --- ------ ------- --------- ----------- --------<br>--------- -------- --- ------- -- ------- ---- -- excess<br>-- --- -------- -------- ---------- ---- ---- ---- ------<br>-- --------- -- ---- -- --- -- --- ------- -- - -----<br>---------- -- -- -- ---- ----- -- ------ -- --- ------<br>-------,241846.29000000042,241845.80499999993,241451.76,241463.94000000056,241468.199,241851.884,,16,excess
screen,html.Screen,2_3_1_0_1_17,2021-04-24T17:07:52.361Z,,,,,,,,,,,,,,,,,48,,,,,,,,,,,,,,337.37100000024657,,response,,,,10,F,,,,,,Space,keypress(Space),,,,instrumental,,,,-- -- --- ------ ------- --------- ----------- --------<br>--------- -------- --- ------- -- ------- ---- -- ------<br>of --- -------- -------- ---------- ---- ---- ---- ------<br>-- --------- -- ---- -- --- -- --- ------- -- - -----<br>---------- -- -- -- ---- ----- -- ------ -- --- ------<br>-------,242190.34999999986,242189.25500000024,241835.248,241846.36500000034,241851.884,242201.958,,17,of
screen,html.Screen,2_3_1_0_1_18,2021-04-24T17:07:52.669Z,,,,,,,,,,,,,,,,,48,,,,,,,,,,,,,,294.9770000001008,,response,,,,10,F,,,,,,Space,keypress(Space),,,,instrumental,,,,-- -- --- ------ ------- --------- ----------- --------<br>--------- -------- --- ------- -- ------- ---- -- ------<br>-- ten -------- -------- ---------- ---- ---- ---- ------<br>-- --------- -- ---- -- --- -- --- ------- -- - -----<br>---------- -- -- -- ---- ----- -- ------ -- --- ------<br>-------,242498.03500000053,242496.9350000001,242185.221,242190.61000000057,242201.958,242501.477,,18,ten
screen,html.Screen,2_3_1_0_1_19,2021-04-24T17:07:53.665Z,,,,,,,,,,,,,,,,,48,,,,,,,,,,,,,,991.7179999999935,,response,,,,10,F,,,,,,Space,keypress(Space),,,,instrumental,,,,-- -- --- ------ ------- --------- ----------- --------<br>--------- -------- --- ------- -- ------- ---- -- ------<br>-- --- thousand -------- ---------- ---- ---- ---- ------<br>-- --------- -- ---- -- --- -- --- ------- -- - -----<br>---------- -- -- -- ---- ----- -- ------ -- --- ------<br>-------,243494.2000000001,243493.195,242485.128,242498.31500000073,242501.477,243501.507,,19,thousand
screen,html.Screen,2_3_1_0_1_20,2021-04-24T17:07:54.459Z,,,,,,,,,,,,,,,,,48,,,,,,,,,,,,,,785.3380000005418,,response,,,,10,F,,,,,,Space,keypress(Space),,,,instrumental,,,,-- -- --- ------ ------- --------- ----------- --------<br>--------- -------- --- ------- -- ------- ---- -- ------<br>-- --- -------- dollars. ---------- ---- ---- ---- ------<br>-- --------- -- ---- -- --- -- --- ------- -- - -----<br>---------- -- -- -- ---- ----- -- ------ -- --- ------<br>-------,244287.8900000005,244286.84500000055,243485.137,243494.45000000013,243501.507,244301.821,,20,dollars.
screen,html.Screen,2_3_1_0_1_21,2021-04-24T17:07:55.493Z,,,,,,,,,,,,,,,,,48,,,,,,,,,,,,,,1019.2390000002342,,response,,,,10,F,,,,,,Space,keypress(Space),,,,instrumental,,,,-- -- --- ------ ------- --------- ----------- --------<br>--------- -------- --- ------- -- ------- ---- -- ------<br>-- --- -------- -------- Concealing ---- ---- ---- ------<br>-- --------- -- ---- -- --- -- --- ------- -- - -----<br>---------- -- -- -- ---- ----- -- ------ -- --- ------<br>-------,245322.0200000005,245321.06000000023,244285.066,244288.235,244301.821,245334.909,,21,Concealing
screen,html.Screen,2_3_1_0_1_22,2021-04-24T17:07:56.250Z,,,,,,,,,,,,,,,,,48,,,,,,,,,,,,,,743.2760000002745,,response,,,,10,F,,,,,,Space,keypress(Space),,,,instrumental,,,,-- -- --- ------ ------- --------- ----------- --------<br>--------- -------- --- ------- -- ------- ---- -- ------<br>-- --- -------- -------- ---------- more ---- ---- ------<br>-- --------- -- ---- -- --- -- --- ------- -- - -----<br>---------- -- -- -- ---- ----- -- ------ -- --- ------<br>-------,246079.2700000002,246078.1850000003,245318.37,245322.25999999992,245334.909,246084.822,,22,more
screen,html.Screen,2_3_1_0_1_23,2021-04-24T17:07:56.670Z,,,,,,,,,,,,,,,,,48,,,,,,,,,,,,,,413.52799999987474,,response,,,,10,F,,,,,,Space,keypress(Space),,,,instrumental,,,,-- -- --- ------ ------- --------- ----------- --------<br>--------- -------- --- ------- -- ------- ---- -- ------<br>-- --- -------- -------- ---------- ---- than ---- ------<br>-- --------- -- ---- -- --- -- --- ------- -- - -----<br>---------- -- -- -- ---- ----- -- ------ -- --- ------<br>-------,246499.28499999986,246498.34999999986,246068.352,246079.62000000043,246084.822,246501.311,,23,than
screen,html.Screen,2_3_1_0_1_24,2021-04-24T17:07:57.013Z,,,,,,,,,,,,,,,,,48,,,,,,,,,,,,,,339.46900000044843,,response,,,,10,F,,,,,,Space,keypress(Space),,,,instrumental,,,,-- -- --- ------ ------- --------- ----------- --------<br>--------- -------- --- ------- -- ------- ---- -- ------<br>-- --- -------- -------- ---------- ---- ---- that ------<br>-- --------- -- ---- -- --- -- --- ------- -- - -----<br>---------- -- -- -- ---- ----- -- ------ -- --- ------<br>-------,246841.735,246840.78000000044,246485.131,246499.53499999992,246501.311,246851.676,,24,that
screen,html.Screen,2_3_1_0_1_25,2021-04-24T17:07:57.416Z,,,,,,,,,,,,,,,,,48,,,,,,,,,,,,,,392.4640000007057,,response,,,,10,F,,,,,,Space,keypress(Space),,,,instrumental,,,,-- -- --- ------ ------- --------- ----------- --------<br>--------- -------- --- ------- -- ------- ---- -- ------<br>-- --- -------- -------- ---------- ---- ---- ---- amount<br>-- --------- -- ---- -- --- -- --- ------- -- - -----<br>---------- -- -- -- ---- ----- -- ------ -- --- ------<br>-------,247245.13000000024,247244.1400000007,246834.859,246841.98500000002,246851.676,247251.342,,25,amount
screen,html.Screen,2_3_1_0_1_26,2021-04-24T17:07:57.854Z,,,,,,,,,,,,,,,,,48,,,,,,,,,,,,,,431.1830000001646,,response,,,,10,F,,,,,,Space,keypress(Space),,,,instrumental,,,,-- -- --- ------ ------- --------- ----------- --------<br>--------- -------- --- ------- -- ------- ---- -- ------<br>-- --- -------- -------- ---------- ---- ---- ---- ------<br>to --------- -- ---- -- --- -- --- ------- -- - -----<br>---------- -- -- -- ---- ----- -- ------ -- --- ------<br>-------,247683.4800000006,247682.52500000017,247235.096,247245.3800000003,247251.342,247708.531,,26,to
screen,html.Screen,2_3_1_0_1_27,2021-04-24T17:07:58.282Z,,,,,,,,,,,,,,,,,48,,,,,,,,,,,,,,401.99400000006426,,response,,,,10,F,,,,,,Space,keypress(Space),,,,instrumental,,,,-- -- --- ------ ------- --------- ----------- --------<br>--------- -------- --- ------- -- ------- ---- -- ------<br>-- --- -------- -------- ---------- ---- ---- ---- ------<br>-- transport -- ---- -- --- -- --- ------- -- - -----<br>---------- -- -- -- ---- ----- -- ------ -- --- ------<br>-------,248111.46499999997,248110.52500000005,247668.192,247683.7450000003,247708.531,248118.045,,27,transport
screen,html.Screen,2_3_1_0_1_28,2021-04-24T17:07:58.564Z,,,,,,,,,,,,,,,,,48,,,,,,,,,,,,,,273.84499999985565,,response,,,,10,F,,,,,,Space,keypress(Space),,,,instrumental,,,,-- -- --- ------ ------- --------- ----------- --------<br>--------- -------- --- ------- -- ------- ---- -- ------<br>-- --- -------- -------- ---------- ---- ---- ---- ------<br>-- --------- it ---- -- --- -- --- ------- -- - -----<br>---------- -- -- -- ---- ----- -- ------ -- --- ------<br>-------,248392.89000000007,248391.88999999987,248101.475,248111.71000000014,248118.045,248401.167,,28,it
screen,html.Screen,2_3_1_0_1_29,2021-04-24T17:07:58.899Z,,,,,,,,,,,,,,,,,48,,,,,,,,,,,,,,326.16300000064075,,response,,,,10,F,,,,,,Space,keypress(Space),,,,instrumental,,,,-- -- --- ------ ------- --------- ----------- --------<br>--------- -------- --- ------- -- ------- ---- -- ------<br>-- --- -------- -------- ---------- ---- ---- ---- ------<br>-- --------- -- into -- --- -- --- ------- -- - -----<br>---------- -- -- -- ---- ----- -- ------ -- --- ------<br>-------,248728.3100000004,248727.33000000063,248384.857,248393.14999999988,248401.167,248734.477,,29,into
screen,html.Screen,2_3_1_0_1_30,2021-04-24T17:07:59.138Z,,,,,,,,,,,,,,,,,48,,,,,,,,,,,,,,231.81800000014482,,response,,,,10,F,,,,,,Space,keypress(Space),,,,instrumental,,,,-- -- --- ------ ------- --------- ----------- --------<br>--------- -------- --- ------- -- ------- ---- -- ------<br>-- --- -------- -------- ---------- ---- ---- ---- ------<br>-- --------- -- ---- or --- -- --- ------- -- - -----<br>---------- -- -- -- ---- ----- -- ------ -- --- ------<br>-------,248967.2900000005,248966.29500000016,248718.076,248728.5750000001,248734.477,249001.398,,30,or
screen,html.Screen,2_3_1_0_1_31,2021-04-24T17:07:59.448Z,,,,,,,,,,,,,,,,,48,,,,,,,,,,,,,,275.2819999999483,,response,,,,10,F,,,,,,Space,keypress(Space),,,,instrumental,,,,-- -- --- ------ ------- --------- ----------- --------<br>--------- -------- --- ------- -- ------- ---- -- ------<br>-- --- -------- -------- ---------- ---- ---- ---- ------<br>-- --------- -- ---- -- out -- --- ------- -- - -----<br>---------- -- -- -- ---- ----- -- ------ -- --- ------<br>-------,249277.66500000053,249276.67999999993,248984.863,248967.55500000017,249001.398,249284.494,,31,out
screen,html.Screen,2_3_1_0_1_32,2021-04-24T17:07:59.739Z,,,,,,,,,,,,,,,,,48,,,,,,,,,,,,,,282.48100000064005,,response,,,,10,F,,,,,,Space,keypress(Space),,,,instrumental,,,,-- -- --- ------ ------- --------- ----------- --------<br>--------- -------- --- ------- -- ------- ---- -- ------<br>-- --- -------- -------- ---------- ---- ---- ---- ------<br>-- --------- -- ---- -- --- of --- ------- -- - -----<br>---------- -- -- -- ---- ----- -- ------ -- --- ------<br>-------,249567.93999999992,249566.97500000065,249268.046,249277.92000000045,249284.494,249584.865,,32,of
screen,html.Screen,2_3_1_0_1_33,2021-04-24T17:08:00.015Z,,,,,,,,,,,,,,,,,48,,,,,,,,,,,,,,258.7300000002724,,response,,,,10,F,,,,,,Space,keypress(Space),,,,instrumental,,,,-- -- --- ------ ------- --------- ----------- --------<br>--------- -------- --- ------- -- ------- ---- -- ------<br>-- --- -------- -------- ---------- ---- ---- ---- ------<br>-- --------- -- ---- -- --- -- the ------- -- - -----<br>---------- -- -- -- ---- ----- -- ------ -- --- ------<br>-------,249844.0550000005,249843.59500000026,249568.089,249568.18500000008,249584.865,249851.061,,33,the
screen,html.Screen,2_3_1_0_1_34,2021-04-24T17:08:00.384Z,,,,,,,,,,,,,,,,,48,,,,,,,,,,,,,,361.0440000005183,,response,,,,10,F,,,,,,Space,keypress(Space),,,,instrumental,,,,-- -- --- ------ ------- --------- ----------- --------<br>--------- -------- --- ------- -- ------- ---- -- ------<br>-- --- -------- -------- ---------- ---- ---- ---- ------<br>-- --------- -- ---- -- --- -- --- country -- - -----<br>---------- -- -- -- ---- ----- -- ------ -- --- ------<br>-------,250213.06499999992,250212.1050000005,249834.855,249844.1900000007,249851.061,250217.749,,34,country
screen,html.Screen,2_3_1_0_1_35,2021-04-24T17:08:00.675Z,,,,,,,,,,,,,,,,,48,,,,,,,,,,,,,,285.47600000037346,,response,,,,10,F,,,,,,Space,keypress(Space),,,,instrumental,,,,-- -- --- ------ ------- --------- ----------- --------<br>--------- -------- --- ------- -- ------- ---- -- ------<br>-- --- -------- -------- ---------- ---- ---- ---- ------<br>-- --------- -- ---- -- --- -- --- ------- is - -----<br>---------- -- -- -- ---- ----- -- ------ -- --- ------<br>-------,250504.22000000073,250503.22500000038,250201.325,250213.30500000023,250217.749,250518.037,,35,is
screen,html.Screen,2_3_1_0_1_36,2021-04-24T17:08:00.929Z,,,,,,,,,,,,,,,,,48,,,,,,,,,,,,,,239.49299999984214,,response,,,,10,F,,,,,,Space,keypress(Space),,,,instrumental,,,,-- -- --- ------ ------- --------- ----------- --------<br>--------- -------- --- ------- -- ------- ---- -- ------<br>-- --- -------- -------- ---------- ---- ---- ---- ------<br>-- --------- -- ---- -- --- -- --- ------- -- a -----<br>---------- -- -- -- ---- ----- -- ------ -- --- ------<br>-------,250758.5050000007,250757.52999999985,250501.298,250504.47500000065,250518.037,250767.904,,36,a
screen,html.Screen,2_3_1_0_1_37,2021-04-24T17:08:01.274Z,,,,,,,,,,,,,,,,,48,,,,,,,,,,,,,,334.76100000031875,,response,,,,10,F,,,,,,Space,keypress(Space),,,,instrumental,,,,-- -- --- ------ ------- --------- ----------- --------<br>--------- -------- --- ------- -- ------- ---- -- ------<br>-- --- -------- -------- ---------- ---- ---- ---- ------<br>-- --------- -- ---- -- --- -- --- ------- -- - crime<br>---------- -- -- -- ---- ----- -- ------ -- --- ------<br>-------,251103.62500000064,251102.66500000033,250751.343,250758.76000000062,250767.904,251118.22,,37,crime
screen,html.Screen,2_3_1_0_1_38,2021-04-24T17:08:01.582Z,,,,,,,,,,,,,,,,,48,,,,,,,,,,,,,,292.2799999999406,,response,,,,10,F,,,,,,Space,keypress(Space),,,,instrumental,,,,-- -- --- ------ ------- --------- ----------- --------<br>--------- -------- --- ------- -- ------- ---- -- ------<br>-- --- -------- -------- ---------- ---- ---- ---- ------<br>-- --------- -- ---- -- --- -- --- ------- -- - -----<br>punishable -- -- -- ---- ----- -- ------ -- --- ------<br>-------,251411.5099999999,251410.49999999994,251101.216,251103.8699999999,251118.22,251417.693,,38,punishable
screen,html.Screen,2_3_1_0_1_39,2021-04-24T17:08:01.854Z,,,,,,,,,,,,,,,,,48,,,,,,,,,,,,,,264.3570000003383,,response,,,,10,F,,,,,,Space,keypress(Space),,,,instrumental,,,,-- -- --- ------ ------- --------- ----------- --------<br>--------- -------- --- ------- -- ------- ---- -- ------<br>-- --- -------- -------- ---------- ---- ---- ---- ------<br>-- --------- -- ---- -- --- -- --- ------- -- - -----<br>---------- by -- -- ---- ----- -- ------ -- --- ------<br>-------,251683.0399999999,251682.05000000034,251401.263,251411.7550000001,251417.693,251708.744,,39,by
screen,html.Screen,2_3_1_0_1_40,2021-04-24T17:08:02.071Z,,,,,,,,,,,,,,,,,48,,,,,,,,,,,,,,191.1810000006226,,response,,,,10,F,,,,,,Space,keypress(Space),,,,instrumental,,,,-- -- --- ------ ------- --------- ----------- --------<br>--------- -------- --- ------- -- ------- ---- -- ------<br>-- --- -------- -------- ---------- ---- ---- ---- ------<br>-- --------- -- ---- -- --- -- --- ------- -- - -----<br>---------- -- up -- ---- ----- -- ------ -- --- ------<br>-------,251900.52500000002,251899.92500000063,251667.957,251683.29500000074,251708.744,251918.018,,40,up
