sender,sender_type,sender_id,timestamp,meta,,Blues,Classical,Country,Dance,Electronic,Folk,Gospel,Hip-Hop,Jazz,Latin,Musical/Film,New-age,Pop,Prolific_id,Provo_ID,R&B,Rap,Reggae,Religious,Rock,Soul,Swing,Traditional,age,artist_name,correct,correctResponse,distraction,duration,education,ended_on,familiarity,gender,headphone_check_performance,item,list,music_frequency,offensiveness,pleasantness,position_correct,preference,response,response_action,snippet_file,song_name,song_rating,sound,stimulus_1,stimulus_2,stimulus_3,text,time_commit,time_end,time_render,time_run,time_show,time_switch,url,word,word_ID
Prolific ID,html.Form,0,2021-04-24T18:04:19.803Z,"{""labjs_version"":""20.2.2"",""labjs_build"":{""flavor"":""production"",""commit"":""a25486e0c714a0ae2ce03ff94b7bb6896854dcfa""},""location"":""https://run.pavlovia.org/mvasilev/prolific_music_e/"",""userAgent"":""Mozilla/5.0 (Macintosh; Intel Mac OS X 11_2_3) AppleWebKit/537.36 (KHTML, like Gecko) Chrome/89.0.4389.128 Safari/537.36"",""platform"":""MacIntel"",""language"":""en-US"",""locale"":""en-GB"",""timeZone"":""Europe/London"",""timezoneOffset"":-60,""screen_width"":1280,""screen_height"":800,""scroll_width"":1280,""scroll_height"":556,""window_innerWidth"":1280,""window_innerHeight"":604,""devicePixelRatio"":2}",,,,,,,,,,,,,,,6061ef11da123a1d9e55c6c8,,,,,,,,,,,,,,,23865.08999998463,,form submission,,,,,,,,,,,,,,,,,,,,,72372.2800000105,72370.99999998463,48455.888,48456.83499996085,48505.91,72380.147,{},,
Introduction,html.Screen,1_0,2021-04-24T18:04:31.363Z,,,,,,,,,,,,,,,,,,,,,,,,,,,,,,,11545.832999999984,,response,,,,,,,,,,,continue,click button,,,,,,,,,83931.83499999577,83925.97999999998,72363.473,72376.57999998191,72380.147,83934.463,,,
Volume calibration,html.Screen,1_1,2021-04-24T18:05:15.169Z,,,,,,,,,,,,,,,,,,,,,,,,,,,,,,,43793.65699998521,,response,,,,,,,,,,,continue,click button,,,,,,,,,127736.66499997489,127728.11999998521,83917.789,83932.10499995621,83934.463,127736.134,,,
Task instructions,html.Screen,1_2,2021-04-24T18:05:56.272Z,,,,,,,,,,,,,,,,,,,,,,,,,,,,,,,41098.745999980325,,response,,,,,,,,,,,continue,click button,,,,,,,,,168837.82999997493,168834.87999998033,127719.46,127737.25000000559,127736.134,168843.363,,,
Sounds,html.Screen,1_3_0_0,2021-04-24T18:06:00.518Z,,,,,,,,,,,,,,,,,,,,,,,,,,,,,,,4251.869999999995,,timeout,,,,,,,,,1,,,,,,,,S,I,O,,173083.6699999636,173078.559,168826.689,168838.28999998514,168843.363,173095.233,,,
Judgement,html.Screen,1_3_0_1,2021-04-24T18:06:01.635Z,,,,,,,,,,,,,,,,,,,,,,,,,,,,true,1,,1101.5719999559224,,response,,,,,,,,,1,,1,click #choice-1,,,,,S,I,O,,174201.44499995513,174196.80499995593,173078.559,173083.93999998225,173095.233,174212.391,,,
Trial,flow.Sequence,1_3_0,2021-04-24T18:06:01.636Z,,,,,,,,,,,,,,,,,,,,,,,,,,,,,,,5353.441999955918,,completion,,,,,,,,,1,,,,,,,,S,I,O,,174202.324999962,174196.80499995593,168826.689,168838.17000000272,168843.363,174212.391,,,
Sounds,html.Screen,1_3_1_0,2021-04-24T18:06:05.884Z,,,,,,,,,,,,,,,,,,,,,,,,,,,,,,,4251.869999999995,,timeout,,,,,,,,,2,,,,,,,,O,S,I,,178449.74000001093,178447.587,174195.717,174202.63999997405,174212.391,178464.261,,,
Judgement,html.Screen,1_3_1_1,2021-04-24T18:06:06.427Z,,,,,,,,,,,,,,,,,,,,,,,,,,,,true,2,,525.5839999745949,,response,,,,,,,,,2,,2,click #choice-2,,,,,O,S,I,,178992.94500000542,178989.8449999746,178447.587,178450.0199999893,178464.261,178996.836,,,
Trial,flow.Sequence,1_3_1,2021-04-24T18:06:06.427Z,,,,,,,,,,,,,,,,,,,,,,,,,,,,,,,4777.45399997459,,completion,,,,,,,,,2,,,,,,,,O,S,I,,178993.33999998635,178989.8449999746,174195.717,174202.54999998724,174212.391,178996.836,,,
Sounds,html.Screen,1_3_2_0,2021-04-24T18:06:10.669Z,,,,,,,,,,,,,,,,,,,,,,,,,,,,,,,4251.869999999995,,timeout,,,,,,,,,2,,,,,,,,I,S,O,,183234.3150000088,183232.032,178980.162,178993.58999996912,178996.836,183248.706,,,
Judgement,html.Screen,1_3_2_1,2021-04-24T18:06:11.750Z,,,,,,,,,,,,,,,,,,,,,,,,,,,,true,2,,1064.0639999604318,,response,,,,,,,,,2,,2,click #choice-2,,,,,I,S,O,,184316.07499998063,184312.76999996044,183232.032,183234.52499997802,183248.706,184332.516,,,
Trial,flow.Sequence,1_3_2,2021-04-24T18:06:11.752Z,,,,,,,,,,,,,,,,,,,,,,,,,,,,,,,5315.933999960427,,completion,,,,,,,,,2,,,,,,,,I,S,O,,184317.25999998162,184312.76999996044,178980.162,178993.50499996217,178996.836,184332.516,,,
Sounds,html.Screen,1_3_3_0,2021-04-24T18:06:16.005Z,,,,,,,,,,,,,,,,,,,,,,,,,,,,,,,4251.869999999995,,timeout,,,,,,,,,3,,,,,,,,O,I,S,,188570.4749999568,188567.712,184315.842,184318.0449999636,184332.516,188584.386,,,
Judgement,html.Screen,1_3_3_1,2021-04-24T18:06:16.707Z,,,,,,,,,,,,,,,,,,,,,,,,,,,,true,3,,685.2239999593585,,response,,,,,,,,,3,,3,click #choice-3,,,,,O,I,S,,189272.82499999274,189269.60999995936,188567.712,188570.68000000436,188584.386,189281.2,,,
Trial,flow.Sequence,1_3_3,2021-04-24T18:06:16.708Z,,,,,,,,,,,,,,,,,,,,,,,,,,,,,,,4937.093999959354,,completion,,,,,,,,,3,,,,,,,,O,I,S,,189273.14499998465,189269.60999995936,184315.842,184317.77999998303,184332.516,189281.2,,,
Sounds,html.Screen,1_3_4_0,2021-04-24T18:06:20.953Z,,,,,,,,,,,,,,,,,,,,,,,,,,,,,,,4251.869999999995,,timeout,,,,,,,,,1,,,,,,,,S,O,I,,193518.2049999712,193516.396,189264.526,189273.34999997402,189281.2,193533.07,,,
Judgement,html.Screen,1_3_4_1,2021-04-24T18:06:22.539Z,,,,,,,,,,,,,,,,,,,,,,,,,,,,true,1,,1567.9099999883329,,response,,,,,,,,,1,,1,click #choice-1,,,,,S,O,I,,195103.94499998074,195100.97999998834,193516.396,193518.39499996277,193533.07,195117.1,,,
Trial,flow.Sequence,1_3_4,2021-04-24T18:06:22.539Z,,,,,,,,,,,,,,,,,,,,,,,,,,,,,,,5819.779999988328,,completion,,,,,,,,,1,,,,,,,,S,O,I,,195104.25500001293,195100.97999998834,189264.526,189273.2899999828,189281.2,195117.1,,,
Sounds,html.Screen,1_3_5_0,2021-04-24T18:06:26.790Z,,,,,,,,,,,,,,,,,,,,,,,,,,,,,,,4251.869999999995,,timeout,,,,,,,,,3,,,,,,,,I,O,S,,199354.8899999587,199352.296,195100.426,195104.4600000023,195117.1,199368.97,,,
Judgement,html.Screen,1_3_5_1,2021-04-24T18:06:27.485Z,,,,,,,,,,,,,,,,,,,,,,,,,,,,true,3,,678.350000012404,,response,,,,,,,,,3,,3,click #choice-3,,,,,I,O,S,,200050.54999998538,200047.3200000124,199352.296,199355.07499997038,199368.97,200065.985,,,
Trial,flow.Sequence,1_3_5,2021-04-24T18:06:27.486Z,,,,,,,,,,,,,,,,,,,,,,,,,,,,,,,4930.220000012399,,completion,,,,,,,,,3,,,,,,,,I,O,S,,200050.98499997985,200047.3200000124,195100.426,195104.40000001108,195117.1,200065.985,,,
Task,flow.Loop,1_3,2021-04-24T18:06:27.495Z,,,,,,,,,,,,,,,,,,,,,,,,,,,,,,,31203.957000012393,,completion,,,1,,,,,,,,,,,,,,,,,,200060.53999997675,200047.3200000124,168826.689,168838.05500000017,168843.363,200065.985,,,
Trap,html.Screen,1_4,2021-04-24T18:06:27.501Z,,,,,,,,,,,,,,,,,,,,,,,,,,,,,,,NaN,,skipped,,,,,,,,,,,,,,,,,,,,,200066.70500000473,200047.3200000124,,200066.34499999927,,200065.985,,,
Thanks,html.Screen,1_5,2021-04-24T18:06:34.118Z,,,,,,,,,,,,,,,,,,,,,,,,,,,,,,,6614.15500001132,,response,,,,,,,,,,,continue,click button,,,,,,,,,206683.4449999733,206680.1400000113,200049.311,200066.98999996297,200065.985,210670.649,,,
Headphone screening,flow.Sequence,1,2021-04-24T18:06:34.119Z,,,,,,,,,,,,,,,,,,,,,,,,,,,,,,,134299.9930000113,,completion,,,,,,,,,,,,,,,,,,,,,206683.7499999674,206680.1400000113,72363.473,72376.4749999973,72380.147,210670.649,,,
Instructions,html.Page,2_0,2021-04-24T18:07:34.289Z,,,,,,,,,,,,,,,,,,,,,,,,,,,,,,,56181.51100000946,,form submission,,,,,,,,,,,,,,,,,,,,,266852.54499997245,266852.16000000946,210587.279,210664.56499998458,210670.649,266853.177,,,
Holding screen,html.Screen,2_1_0_0,2021-04-24T18:07:44.280Z,,,,,,,,,,,,,,,,,,,,,,,,,,,,,,,10021.073999999964,,timeout,,,,,,,,,,,,,,,,,,,,,276843.3649999788,276840.903,266836.503,266852.87999996217,266853.177,276874.251,,,
screen,html.Screen,2_1_0_1_0,2021-04-24T18:07:45.650Z,,,,,,,,,,,,,,,,,53,,,,,,,,,,,,,,1322.9040000016685,,response,,,,99,,,,,,,Space,keypress(Space),,,,,,,,When -- ----- -- ------ - ------- --- ----------<br>------------- ------ ------ ---- ---- ------- ----- -- ----<br>-------- ------- -- ---------- --- - --- ----- ----- ----<br>---- --- --- ----- --- ---- ---- ------- ----- ---- -------<br>--- --- -- ----- -- --- ---- -- --- ---- -- ------ ------<br>--- ----- -- ----,278212.4699999695,278197.15500000166,276840.903,276843.6600000132,276874.251,278224.845,,0,When
screen,html.Screen,2_1_0_1_1,2021-04-24T18:07:46.092Z,,,,,,,,,,,,,,,,,53,,,,,,,,,,,,,,424.0349999933969,,response,,,,99,,,,,,,Space,keypress(Space),,,,,,,,---- it ----- -- ------ - ------- --- ----------<br>------------- ------ ------ ---- ---- ------- ----- -- ----<br>-------- ------- -- ---------- --- - --- ----- ----- ----<br>---- --- --- ----- --- ---- ---- ------- ----- ---- -------<br>--- --- -- ----- -- --- ---- -- --- ---- -- ------ ------<br>--- ----- -- ----,278655.30499996385,278648.87999999337,278208.171,278213.1400000071,278224.845,278672.479,,1,it
screen,html.Screen,2_1_0_1_2,2021-04-24T18:07:46.630Z,,,,,,,,,,,,,,,,,53,,,,,,,,,,,,,,514.2909999711555,,response,,,,99,,,,,,,Space,keypress(Space),,,,,,,,---- -- comes -- ------ - ------- --- ----------<br>------------- ------ ------ ---- ---- ------- ----- -- ----<br>-------- ------- -- ---------- --- - --- ----- ----- ----<br>---- --- --- ----- --- ---- ---- ------- ----- ---- -------<br>--- --- -- ----- -- --- ---- -- --- ---- -- ------ ------<br>--- ----- -- ----,279192.9099999834,279186.76999997115,278655.805,278655.50499997335,278672.479,279206.047,,2,comes
screen,html.Screen,2_1_0_1_3,2021-04-24T18:07:47.047Z,,,,,,,,,,,,,,,,,53,,,,,,,,,,,,,,397.603000004543,,response,,,,99,,,,,,,Space,keypress(Space),,,,,,,,---- -- ----- to ------ - ------- --- ----------<br>------------- ------ ------ ---- ---- ------- ----- -- ----<br>-------- ------- -- ---------- --- - --- ----- ----- ----<br>---- --- --- ----- --- ---- ---- ------- ----- ---- -------<br>--- --- -- ----- -- --- ---- -- --- ---- -- ------ ------<br>--- ----- -- ----,279609.7849999787,279603.65000000456,279189.373,279193.089999957,279206.047,279622.897,,3,to
screen,html.Screen,2_1_0_1_4,2021-04-24T18:07:47.488Z,,,,,,,,,,,,,,,,,53,,,,,,,,,,,,,,421.75299999618437,,response,,,,99,,,,,,,Space,keypress(Space),,,,,,,,---- -- ----- -- having - ------- --- ----------<br>------------- ------ ------ ---- ---- ------- ----- -- ----<br>-------- ------- -- ---------- --- - --- ----- ----- ----<br>---- --- --- ----- --- ---- ---- ------- ----- ---- -------<br>--- --- -- ----- -- --- ---- -- --- ---- -- ------ ------<br>--- ----- -- ----,280051.0249999934,280044.6499999962,279606.223,279609.9749999703,279622.897,280056.421,,4,having
screen,html.Screen,2_1_0_1_5,2021-04-24T18:07:47.951Z,,,,,,,,,,,,,,,,,53,,,,,,,,,,,,,,451.19400000956375,,response,,,,99,,,,,,,Space,keypress(Space),,,,,,,,---- -- ----- -- ------ a ------- --- ----------<br>------------- ------ ------ ---- ---- ------- ----- -- ----<br>-------- ------- -- ---------- --- - --- ----- ----- ----<br>---- --- --- ----- --- ---- ---- ------- ----- ---- -------<br>--- --- -- ----- -- --- ---- -- --- ---- -- ------ ------<br>--- ----- -- ----,280513.49499996286,280507.61500000954,280039.747,280051.2199999648,280056.421,280523.293,,5,a
screen,html.Screen,2_1_0_1_6,2021-04-24T18:07:48.339Z,,,,,,,,,,,,,,,,,53,,,,,,,,,,,,,,372.29199999111006,,response,,,,99,,,,,,,Space,keypress(Space),,,,,,,,---- -- ----- -- ------ - lasting --- ----------<br>------------- ------ ------ ---- ---- ------- ----- -- ----<br>-------- ------- -- ---------- --- - --- ----- ----- ----<br>---- --- --- ----- --- ---- ---- ------- ----- ---- -------<br>--- --- -- ----- -- --- ---- -- --- ---- -- ------ ------<br>--- ----- -- ----,280901.5350000118,280895.5849999911,280506.619,280513.6850000126,280523.293,280906.795,,6,lasting
screen,html.Screen,2_1_0_1_7,2021-04-24T18:07:48.697Z,,,,,,,,,,,,,,,,,53,,,,,,,,,,,,,,346.7649999828427,,response,,,,99,,,,,,,Space,keypress(Space),,,,,,,,---- -- ----- -- ------ - ------- and ----------<br>------------- ------ ------ ---- ---- ------- ----- -- ----<br>-------- ------- -- ---------- --- - --- ----- ----- ----<br>---- --- --- ----- --- ---- ---- ------- ----- ---- -------<br>--- --- -- ----- -- --- ---- -- --- ---- -- ------ ------<br>--- ----- -- ----,281259.7550000064,281253.5599999828,280890.121,280901.7299999832,280906.795,281273.623,,7,and
screen,html.Screen,2_1_0_1_8,2021-04-24T18:07:49.115Z,,,,,,,,,,,,,,,,,53,,,,,,,,,,,,,,397.93699998792727,,response,,,,99,,,,,,,Space,keypress(Space),,,,,,,,---- -- ----- -- ------ - ------- --- fulfilling<br>------------- ------ ------ ---- ---- ------- ----- -- ----<br>-------- ------- -- ---------- --- - --- ----- ----- ----<br>---- --- --- ----- --- ---- ---- ------- ----- ---- -------<br>--- --- -- ----- -- --- ---- -- --- ---- -- ------ ------<br>--- ----- -- ----,281677.480000013,281671.55999998795,281256.949,281259.94999997783,281273.623,281690.473,,8,fulfilling
screen,html.Screen,2_1_0_1_9,2021-04-24T18:07:49.529Z,,,,,,,,,,,,,,,,,53,,,,,,,,,,,,,,395.0670000000391,,response,,,,99,,,,,,,Space,keypress(Space),,,,,,,,"---- -- ----- -- ------ - ------- --- ----------<br>relationship, ------ ------ ---- ---- ------- ----- -- ----<br>-------- ------- -- ---------- --- - --- ----- ----- ----<br>---- --- --- ----- --- ---- ---- ------- ----- ---- -------<br>--- --- -- ----- -- --- ---- -- --- ---- -- ------ ------<br>--- ----- -- ----",282091.43500000937,282085.54000000004,281673.799,281677.67499998445,281690.473,282107.323,,9,"relationship,"
screen,html.Screen,2_1_0_1_10,2021-04-24T18:07:49.949Z,,,,,,,,,,,,,,,,,53,,,,,,,,,,,,,,398.1869999881601,,response,,,,99,,,,,,,Space,keypress(Space),,,,,,,,---- -- ----- -- ------ - ------- --- ----------<br>------------- common ------ ---- ---- ------- ----- -- ----<br>-------- ------- -- ---------- --- - --- ----- ----- ----<br>---- --- --- ----- --- ---- ---- ------- ----- ---- -------<br>--- --- -- ----- -- --- ---- -- --- ---- -- ------ ------<br>--- ----- -- ----,282511.7650000029,282505.50999998813,282090.649,282091.6299999808,282107.323,282524.173,,10,common
screen,html.Screen,2_1_0_1_11,2021-04-24T18:07:50.274Z,,,,,,,,,,,,,,,,,53,,,,,,,,,,,,,,305.38699998374796,,response,,,,99,,,,,,,Space,keypress(Space),,,,,,,,---- -- ----- -- ------ - ------- --- ----------<br>------------- ------ wisdom ---- ---- ------- ----- -- ----<br>-------- ------- -- ---------- --- - --- ----- ----- ----<br>---- --- --- ----- --- ---- ---- ------- ----- ---- -------<br>--- --- -- ----- -- --- ---- -- --- ---- -- ------ ------<br>--- ----- -- ----,282836.6950000054,282829.55999998376,282507.499,282511.9549999945,282524.173,282840.979,,11,wisdom
screen,html.Screen,2_1_0_1_12,2021-04-24T18:07:50.678Z,,,,,,,,,,,,,,,,,53,,,,,,,,,,,,,,392.6010000000824,,response,,,,99,,,,,,,Space,keypress(Space),,,,,,,,---- -- ----- -- ------ - ------- --- ----------<br>------------- ------ ------ says ---- ------- ----- -- ----<br>-------- ------- -- ---------- --- - --- ----- ----- ----<br>---- --- --- ----- --- ---- ---- ------- ----- ---- -------<br>--- --- -- ----- -- --- ---- -- --- ---- -- ------ ------<br>--- ----- -- ----,283240.4699999606,283233.5800000001,282824.305,282836.8999999948,282840.979,283257.829,,12,says
screen,html.Screen,2_1_0_1_13,2021-04-24T18:07:50.998Z,,,,,,,,,,,,,,,,,53,,,,,,,,,,,,,,296.6359999937704,,response,,,,99,,,,,,,Space,keypress(Space),,,,,,,,---- -- ----- -- ------ - ------- --- ----------<br>------------- ------ ------ ---- that ------- ----- -- ----<br>-------- ------- -- ---------- --- - --- ----- ----- ----<br>---- --- --- ----- --- ---- ---- ------- ----- ---- -------<br>--- --- -- ----- -- --- ---- -- --- ---- -- ------ ------<br>--- ----- -- ----,283560.2749999962,283554.4649999938,283241.155,283240.6699999701,283257.829,283574.635,,13,that
screen,html.Screen,2_1_0_1_14,2021-04-24T18:07:51.371Z,,,,,,,,,,,,,,,,,53,,,,,,,,,,,,,,353.00500000896864,,response,,,,99,,,,,,,Space,keypress(Space),,,,,,,,---- -- ----- -- ------ - ------- --- ----------<br>------------- ------ ------ ---- ---- feeling ----- -- ----<br>-------- ------- -- ---------- --- - --- ----- ----- ----<br>---- --- --- ----- --- ---- ---- ------- ----- ---- -------<br>--- --- -- ----- -- --- ---- -- --- ---- -- ------ ------<br>--- ----- -- ----,283933.3350000088,283927.640000009,283557.961,283560.67999999505,283574.635,283941.463,,14,feeling
screen,html.Screen,2_1_0_1_15,2021-04-24T18:07:51.808Z,,,,,,,,,,,,,,,,,53,,,,,,,,,,,,,,422.1320000025444,,response,,,,99,,,,,,,Space,keypress(Space),,,,,,,,---- -- ----- -- ------ - ------- --- ----------<br>------------- ------ ------ ---- ---- ------- close -- ----<br>-------- ------- -- ---------- --- - --- ----- ----- ----<br>---- --- --- ----- --- ---- ---- ------- ----- ---- -------<br>--- --- -- ----- -- --- ---- -- --- ---- -- ------ ------<br>--- ----- -- ----,284370.36499998067,284363.59500000253,283924.789,283933.5250000004,283941.463,284374.987,,15,close
screen,html.Screen,2_1_0_1_16,2021-04-24T18:07:52.330Z,,,,,,,,,,,,,,,,,53,,,,,,,,,,,,,,511.5479999977979,,response,,,,99,,,,,,,Space,keypress(Space),,,,,,,,---- -- ----- -- ------ - ------- --- ----------<br>------------- ------ ------ ---- ---- ------- ----- to ----<br>-------- ------- -- ---------- --- - --- ----- ----- ----<br>---- --- --- ----- --- ---- ---- ------- ----- ---- -------<br>--- --- -- ----- -- --- ---- -- --- ---- -- ------ ------<br>--- ----- -- ----,284892.2049999819,284886.5349999978,284358.313,284370.96500000916,284374.987,284908.555,,16,to
screen,html.Screen,2_1_0_1_17,2021-04-24T18:07:52.675Z,,,,,,,,,,,,,,,,,53,,,,,,,,,,,,,,322.9949999676901,,response,,,,99,,,,,,,Space,keypress(Space),,,,,,,,---- -- ----- -- ------ - ------- --- ----------<br>------------- ------ ------ ---- ---- ------- ----- -- your<br>-------- ------- -- ---------- --- - --- ----- ----- ----<br>---- --- --- ----- --- ---- ---- ------- ----- ---- -------<br>--- --- -- ----- -- --- ---- -- --- ---- -- ------ ------<br>--- ----- -- ----,285237.4499999569,285231.5499999677,284891.881,284892.40000001155,284908.555,285242.035,,17,your
screen,html.Screen,2_1_0_1_18,2021-04-24T18:07:53.138Z,,,,,,,,,,,,,,,,,53,,,,,,,,,,,,,,452.315000005241,,response,,,,99,,,,,,,Space,keypress(Space),,,,,,,,---- -- ----- -- ------ - ------- --- ----------<br>------------- ------ ------ ---- ---- ------- ----- -- ----<br>romantic ------- -- ---------- --- - --- ----- ----- ----<br>---- --- --- ----- --- ---- ---- ------- ----- ---- -------<br>--- --- -- ----- -- --- ---- -- --- ---- -- ------ ------<br>--- ----- -- ----,285700.9449999896,285694.3500000052,285225.361,285237.64000000665,285242.035,285708.907,,18,romantic
screen,html.Screen,2_1_0_1_19,2021-04-24T18:07:53.464Z,,,,,,,,,,,,,,,,,53,,,,,,,,,,,,,,311.5179999951506,,response,,,,99,,,,,,,Space,keypress(Space),,,,,,,,---- -- ----- -- ------ - ------- --- ----------<br>------------- ------ ------ ---- ---- ------- ----- -- ----<br>-------- partner -- ---------- --- - --- ----- ----- ----<br>---- --- --- ----- --- ---- ---- ------- ----- ---- -------<br>--- --- -- ----- -- --- ---- -- --- ---- -- ------ ------<br>--- ----- -- ----,286026.19999996386,286020.42499999516,285692.233,285701.1300000013,285708.907,286042.387,,19,partner
screen,html.Screen,2_1_0_1_20,2021-04-24T18:07:53.848Z,,,,,,,,,,,,,,,,,53,,,,,,,,,,,,,,362.04299999505747,,response,,,,99,,,,,,,Space,keypress(Space),,,,,,,,---- -- ----- -- ------ - ------- --- ----------<br>------------- ------ ------ ---- ---- ------- ----- -- ----<br>-------- ------- is ---------- --- - --- ----- ----- ----<br>---- --- --- ----- --- ---- ---- ------- ----- ---- -------<br>--- --- -- ----- -- --- ---- -- --- ---- -- ------ ------<br>--- ----- -- ----,286410.4400000069,286404.42999999505,286025.713,286026.3949999935,286042.387,286425.889,,20,is
screen,html.Screen,2_1_0_1_21,2021-04-24T18:07:54.203Z,,,,,,,,,,,,,,,,,53,,,,,,,,,,,,,,333.5659999921336,,response,,,,99,,,,,,,Space,keypress(Space),,,,,,,,---- -- ----- -- ------ - ------- --- ----------<br>------------- ------ ------ ---- ---- ------- ----- -- ----<br>-------- ------- -- paramount. --- - --- ----- ----- ----<br>---- --- --- ----- --- ---- ---- ------- ----- ---- -------<br>--- --- -- ----- -- --- ---- -- --- ---- -- ------ ------<br>--- ----- -- ----,286765.26499999454,286759.45499999216,286409.215,286410.6299999985,286425.889,286776.043,,21,paramount.
screen,html.Screen,2_1_0_1_22,2021-04-24T18:07:54.766Z,,,,,,,,,,,,,,,,,53,,,,,,,,,,,,,,546.4019999979646,,response,,,,99,,,,,,,Space,keypress(Space),,,,,,,,---- -- ----- -- ------ - ------- --- ----------<br>------------- ------ ------ ---- ---- ------- ----- -- ----<br>-------- ------- -- ---------- But - --- ----- ----- ----<br>---- --- --- ----- --- ---- ---- ------- ----- ---- -------<br>--- --- -- ----- -- --- ---- -- --- ---- -- ------ ------<br>--- ----- -- ----,287328.3100000117,287322.44499999797,286759.369,286765.45999996597,286776.043,287342.959,,22,But
screen,html.Screen,2_1_0_1_23,2021-04-24T18:07:55.009Z,,,,,,,,,,,,,,,,,53,,,,,,,,,,,,,,222.32099998072954,,response,,,,99,,,,,,,Space,keypress(Space),,,,,,,,---- -- ----- -- ------ - ------- --- ----------<br>------------- ------ ------ ---- ---- ------- ----- -- ----<br>-------- ------- -- ---------- --- a --- ----- ----- ----<br>---- --- --- ----- --- ---- ---- ------- ----- ---- -------<br>--- --- -- ----- -- --- ---- -- --- ---- -- ------ ------<br>--- ----- -- ----,287571.2000000058,287565.2799999807,287326.285,287328.4949999652,287342.959,287576.395,,23,a
screen,html.Screen,2_1_0_1_24,2021-04-24T18:07:55.393Z,,,,,,,,,,,,,,,,,53,,,,,,,,,,,,,,372.87999996263534,,response,,,,99,,,,,,,Space,keypress(Space),,,,,,,,---- -- ----- -- ------ - ------- --- ----------<br>------------- ------ ------ ---- ---- ------- ----- -- ----<br>-------- ------- -- ---------- --- - new ----- ----- ----<br>---- --- --- ----- --- ---- ---- ------- ----- ---- -------<br>--- --- -- ----- -- --- ---- -- --- ---- -- ------ ------<br>--- ----- -- ----,287955.17500001006,287949.27499996265,287559.721,287571.3949999772,287576.395,287969.009,,24,new
screen,html.Screen,2_1_0_1_25,2021-04-24T18:07:55.683Z,,,,,,,,,,,,,,,,,53,,,,,,,,,,,,,,269.3309999816702,,response,,,,99,,,,,,,Space,keypress(Space),,,,,,,,---- -- ----- -- ------ - ------- --- ----------<br>------------- ------ ------ ---- ---- ------- ----- -- ----<br>-------- ------- -- ---------- --- - --- study ----- ----<br>---- --- --- ----- --- ---- ---- ------- ----- ---- -------<br>--- --- -- ----- -- --- ---- -- --- ---- -- ------ ------<br>--- ----- -- ----,288245.61499996344,288238.3399999817,287952.335,287955.3699999815,287969.009,288252.467,,25,study
screen,html.Screen,2_1_0_1_26,2021-04-24T18:07:56.006Z,,,,,,,,,,,,,,,,,53,,,,,,,,,,,,,,309.87799998390255,,response,,,,99,,,,,,,Space,keypress(Space),,,,,,,,---- -- ----- -- ------ - ------- --- ----------<br>------------- ------ ------ ---- ---- ------- ----- -- ----<br>-------- ------- -- ---------- --- - --- ----- finds ----<br>---- --- --- ----- --- ---- ---- ------- ----- ---- -------<br>--- --- -- ----- -- --- ---- -- --- ---- -- ------ ------<br>--- ----- -- ----,288568.86499997927,288562.3449999839,288235.793,288245.820000011,288252.467,288585.947,,26,finds
screen,html.Screen,2_1_0_1_27,2021-04-24T18:07:56.332Z,,,,,,,,,,,,,,,,,53,,,,,,,,,,,,,,302.3780000071856,,response,,,,99,,,,,,,Space,keypress(Space),,,,,,,,---- -- ----- -- ------ - ------- --- ----------<br>------------- ------ ------ ---- ---- ------- ----- -- ----<br>-------- ------- -- ---------- --- - --- ----- ----- that<br>---- --- --- ----- --- ---- ---- ------- ----- ---- -------<br>--- --- -- ----- -- --- ---- -- --- ---- -- ------ ------<br>--- ----- -- ----,288894.10499995574,288888.3250000072,288569.273,288569.05499997083,288585.947,288902.753,,27,that
screen,html.Screen,2_1_0_1_28,2021-04-24T18:07:56.734Z,,,,,,,,,,,,,,,,,53,,,,,,,,,,,,,,387.6069999844767,,response,,,,99,,,,,,,Space,keypress(Space),,,,,,,,---- -- ----- -- ------ - ------- --- ----------<br>------------- ------ ------ ---- ---- ------- ----- -- ----<br>-------- ------- -- ---------- --- - --- ----- ----- ----<br>it's --- --- ----- --- ---- ---- ------- ----- ---- -------<br>--- --- -- ----- -- --- ---- -- --- ---- -- ------ ------<br>--- ----- -- ----,289296.0650000023,289290.3599999845,288886.079,288894.2950000055,288902.753,289302.929,,28,it's
screen,html.Screen,2_1_0_1_29,2021-04-24T18:07:57.043Z,,,,,,,,,,,,,,,,,53,,,,,,,,,,,,,,296.4109999570064,,response,,,,99,,,,,,,Space,keypress(Space),,,,,,,,---- -- ----- -- ------ - ------- --- ----------<br>------------- ------ ------ ---- ---- ------- ----- -- ----<br>-------- ------- -- ---------- --- - --- ----- ----- ----<br>---- not --- ----- --- ---- ---- ------- ----- ---- -------<br>--- --- -- ----- -- --- ---- -- --- ---- -- ------ ------<br>--- ----- -- ----,289605.16999999527,289599.339999957,289286.255,289296.25499999383,289302.929,289619.735,,29,not
screen,html.Screen,2_1_0_1_30,2021-04-24T18:07:57.411Z,,,,,,,,,,,,,,,,,53,,,,,,,,,,,,,,347.58999997598585,,response,,,,99,,,,,,,Space,keypress(Space),,,,,,,,---- -- ----- -- ------ - ------- --- ----------<br>------------- ------ ------ ---- ---- ------- ----- -- ----<br>-------- ------- -- ---------- --- - --- ----- ----- ----<br>---- --- how ----- --- ---- ---- ------- ----- ---- -------<br>--- --- -- ----- -- --- ---- -- --- ---- -- ------ ------<br>--- ----- -- ----,289973.62999996403,289967.324999976,289603.061,289605.3649999667,289619.735,289986.563,,30,how
screen,html.Screen,2_1_0_1_31,2021-04-24T18:07:57.718Z,,,,,,,,,,,,,,,,,53,,,,,,,,,,,,,,287.7519999878132,,response,,,,99,,,,,,,Space,keypress(Space),,,,,,,,---- -- ----- -- ------ - ------- --- ----------<br>------------- ------ ------ ---- ---- ------- ----- -- ----<br>-------- ------- -- ---------- --- - --- ----- ----- ----<br>---- --- --- close --- ---- ---- ------- ----- ---- -------<br>--- --- -- ----- -- --- ---- -- --- ---- -- ------ ------<br>--- ----- -- ----,290280.19999997923,290274.31499998784,289969.889,289973.83999999147,289986.563,290286.695,,31,close
screen,html.Screen,2_1_0_1_32,2021-04-24T18:07:58.011Z,,,,,,,,,,,,,,,,,53,,,,,,,,,,,,,,280.574999999546,,response,,,,99,,,,,,,Space,keypress(Space),,,,,,,,---- -- ----- -- ------ - ------- --- ----------<br>------------- ------ ------ ---- ---- ------- ----- -- ----<br>-------- ------- -- ---------- --- - --- ----- ----- ----<br>---- --- --- ----- you ---- ---- ------- ----- ---- -------<br>--- --- -- ----- -- --- ---- -- --- ---- -- ------ ------<br>--- ----- -- ----,290573.2549999957,290567.26999999955,290270.021,290280.3849999909,290286.695,290586.827,,32,you
screen,html.Screen,2_1_0_1_33,2021-04-24T18:07:58.345Z,,,,,,,,,,,,,,,,,53,,,,,,,,,,,,,,315.4079999868409,,response,,,,99,,,,,,,Space,keypress(Space),,,,,,,,---- -- ----- -- ------ - ------- --- ----------<br>------------- ------ ------ ---- ---- ------- ----- -- ----<br>-------- ------- -- ---------- --- - --- ----- ----- ----<br>---- --- --- ----- --- feel ---- ------- ----- ---- -------<br>--- --- -- ----- -- --- ---- -- --- ---- -- ------ ------<br>--- ----- -- ----,290908.00999995554,290902.23499998683,290570.153,290573.4649999649,290586.827,290920.307,,33,feel
screen,html.Screen,2_1_0_1_34,2021-04-24T18:07:58.672Z,,,,,,,,,,,,,,,,,53,,,,,,,,,,,,,,307.86299995851004,,response,,,,99,,,,,,,Space,keypress(Space),,,,,,,,---- -- ----- -- ------ - ------- --- ----------<br>------------- ------ ------ ---- ---- ------- ----- -- ----<br>-------- ------- -- ---------- --- - --- ----- ----- ----<br>---- --- --- ----- --- ---- that ------- ----- ---- -------<br>--- --- -- ----- -- --- ---- -- --- ---- -- ------ ------<br>--- ----- -- ----,291234.2549999594,291228.1699999585,290903.633,290908.460000006,290920.307,291237.113,,34,that
screen,html.Screen,2_1_0_1_35,2021-04-24T18:07:59.011Z,,,,,,,,,,,,,,,,,53,,,,,,,,,,,,,,331.01199999067467,,response,,,,99,,,,,,,Space,keypress(Space),,,,,,,,---- -- ----- -- ------ - ------- --- ----------<br>------------- ------ ------ ---- ---- ------- ----- -- ----<br>-------- ------- -- ---------- --- - --- ----- ----- ----<br>---- --- --- ----- --- ---- ---- matters ----- ---- -------<br>--- --- -- ----- -- --- ---- -- --- ---- -- ------ ------<br>--- ----- -- ----,291573.90499999747,291568.1249999907,291220.439,291234.4349999912,291237.113,291587.267,,35,matters
screen,html.Screen,2_1_0_1_36,2021-04-24T18:07:59.333Z,,,,,,,,,,,,,,,,,53,,,,,,,,,,,,,,302.96799999894574,,response,,,,99,,,,,,,Space,keypress(Space),,,,,,,,"---- -- ----- -- ------ - ------- --- ----------<br>------------- ------ ------ ---- ---- ------- ----- -- ----<br>-------- ------- -- ---------- --- - --- ----- ----- ----<br>---- --- --- ----- --- ---- ---- ------- most, ---- -------<br>--- --- -- ----- -- --- ---- -- --- ---- -- ------ ------<br>--- ----- -- ----",291895.97999997204,291890.23499999894,291570.593,291574.0849999711,291587.267,291904.073,,36,"most,"
screen,html.Screen,2_1_0_1_37,2021-04-24T18:07:59.698Z,,,,,,,,,,,,,,,,,53,,,,,,,,,,,,,,350.1419999644859,,response,,,,99,,,,,,,Space,keypress(Space),,,,,,,,---- -- ----- -- ------ - ------- --- ----------<br>------------- ------ ------ ---- ---- ------- ----- -- ----<br>-------- ------- -- ---------- --- - --- ----- ----- ----<br>---- --- --- ----- --- ---- ---- ------- ----- it's -------<br>--- --- -- ----- -- --- ---- -- --- ---- -- ------ ------<br>--- ----- -- ----,292260.02499996684,292254.21499996446,291887.399,291896.1600000039,291904.073,292270.901,,37,it's
screen,html.Screen,2_1_0_1_38,2021-04-24T18:08:00.123Z,,,,,,,,,,,,,,,,,53,,,,,,,,,,,,,,408.3789999820874,,response,,,,99,,,,,,,Space,keypress(Space),,,,,,,,---- -- ----- -- ------ - ------- --- ----------<br>------------- ------ ------ ---- ---- ------- ----- -- ----<br>-------- ------- -- ---------- --- - --- ----- ----- ----<br>---- --- --- ----- --- ---- ---- ------- ----- ---- whether<br>--- --- -- ----- -- --- ---- -- --- ---- -- ------ ------<br>--- ----- -- ----,292684.97499998193,292679.2799999821,292254.227,292260.1999999606,292270.901,292687.751,,38,whether
screen,html.Screen,2_1_0_1_39,2021-04-24T18:08:00.438Z,,,,,,,,,,,,,,,,,53,,,,,,,,,,,,,,306.42899997968925,,response,,,,99,,,,,,,Space,keypress(Space),,,,,,,,---- -- ----- -- ------ - ------- --- ----------<br>------------- ------ ------ ---- ---- ------- ----- -- ----<br>-------- ------- -- ---------- --- - --- ----- ----- ----<br>---- --- --- ----- --- ---- ---- ------- ----- ---- -------<br>you --- -- ----- -- --- ---- -- --- ---- -- ------ ------<br>--- ----- -- ----,293000.0299999956,292994.1799999797,292671.077,292685.15999999363,292687.751,293004.557,,39,you
screen,html.Screen,2_1_0_1_40,2021-04-24T18:08:00.676Z,,,,,,,,,,,,,,,,,53,,,,,,,,,,,,,,227.6029999559396,,response,,,,99,,,,,,,Space,keypress(Space),,,,,,,,---- -- ----- -- ------ - ------- --- ----------<br>------------- ------ ------ ---- ---- ------- ----- -- ----<br>-------- ------- -- ---------- --- - --- ----- ----- ----<br>---- --- --- ----- --- ---- ---- ------- ----- ---- -------<br>--- are -- ----- -- --- ---- -- --- ---- -- ------ ------<br>--- ----- -- ----,293238.6449999758,293232.1599999559,292987.883,293000.2099999692,293004.557,293254.667,,40,are
screen,html.Screen,2_1_0_1_41,2021-04-24T18:08:01.101Z,,,,,,,,,,,,,,,,,53,,,,,,,,,,,,,,403.31299995991867,,response,,,,99,,,,,,,Space,keypress(Space),,,,,,,,---- -- ----- -- ------ - ------- --- ----------<br>------------- ------ ------ ---- ---- ------- ----- -- ----<br>-------- ------- -- ---------- --- - --- ----- ----- ----<br>---- --- --- ----- --- ---- ---- ------- ----- ---- -------<br>--- --- as ----- -- --- ---- -- --- ---- -- ------ ------<br>--- ----- -- ----,293663.9149999828,293657.97999995993,293237.993,293238.8299999875,293254.667,293671.517,,41,as
screen,html.Screen,2_1_0_1_42,2021-04-24T18:08:01.420Z,,,,,,,,,,,,,,,,,53,,,,,,,,,,,,,,304.64299996197224,,response,,,,99,,,,,,,Space,keypress(Space),,,,,,,,---- -- ----- -- ------ - ------- --- ----------<br>------------- ------ ------ ---- ---- ------- ----- -- ----<br>-------- ------- -- ---------- --- - --- ----- ----- ----<br>---- --- --- ----- --- ---- ---- ------- ----- ---- -------<br>--- --- -- close -- --- ---- -- --- ---- -- ------ ------<br>--- ----- -- ----,293982.2249999852,293976.15999996196,293654.843,293666.2199999555,293671.517,293988.323,,42,close
screen,html.Screen,2_1_0_1_43,2021-04-24T18:08:01.774Z,,,,,,,,,,,,,,,,,53,,,,,,,,,,,,,,342.71199998108204,,response,,,,99,,,,,,,Space,keypress(Space),,,,,,,,---- -- ----- -- ------ - ------- --- ----------<br>------------- ------ ------ ---- ---- ------- ----- -- ----<br>-------- ------- -- ---------- --- - --- ----- ----- ----<br>---- --- --- ----- --- ---- ---- ------- ----- ---- -------<br>--- --- -- ----- as --- ---- -- --- ---- -- ------ ------<br>--- ----- -- ----,294336.8799999589,294331.03499998106,293971.649,293982.42999997456,293988.323,294338.477,,43,as
screen,html.Screen,2_1_0_1_44,2021-04-24T18:08:02.182Z,,,,,,,,,,,,,,,,,53,,,,,,,,,,,,,,400.578000012727,,response,,,,99,,,,,,,Space,keypress(Space),,,,,,,,---- -- ----- -- ------ - ------- --- ----------<br>------------- ------ ------ ---- ---- ------- ----- -- ----<br>-------- ------- -- ---------- --- - --- ----- ----- ----<br>---- --- --- ----- --- ---- ---- ------- ----- ---- -------<br>--- --- -- ----- -- you ---- -- --- ---- -- ------ ------<br>--- ----- -- ----,294744.8250000016,294739.05500001274,294321.803,294337.0550000109,294338.477,294755.327,,44,you
screen,html.Screen,2_1_0_1_45,2021-04-24T18:08:02.526Z,,,,,,,,,,,,,,,,,53,,,,,,,,,,,,,,326.7479999838979,,response,,,,99,,,,,,,Space,keypress(Space),,,,,,,,---- -- ----- -- ------ - ------- --- ----------<br>------------- ------ ------ ---- ---- ------- ----- -- ----<br>-------- ------- -- ---------- --- - --- ----- ----- ----<br>---- --- --- ----- --- ---- ---- ------- ----- ---- -------<br>--- --- -- ----- -- --- want -- --- ---- -- ------ ------<br>--- ----- -- ----,295087.9749999731,295082.0749999839,294738.653,294745.0049999752,294755.327,295105.481,,45,want
screen,html.Screen,2_1_0_1_46,2021-04-24T18:08:02.860Z,,,,,,,,,,,,,,,,,53,,,,,,,,,,,,,,311.4239999909187,,response,,,,99,,,,,,,Space,keypress(Space),,,,,,,,---- -- ----- -- ------ - ------- --- ----------<br>------------- ------ ------ ---- ---- ------- ----- -- ----<br>-------- ------- -- ---------- --- - --- ----- ----- ----<br>---- --- --- ----- --- ---- ---- ------- ----- ---- -------<br>--- --- -- ----- -- --- ---- to --- ---- -- ------ ------<br>--- ----- -- ----,295422.52500000177,295416.90499999095,295088.807,295088.1550000049,295105.481,295438.961,,46,to
screen,html.Screen,2_1_0_1_47,2021-04-24T18:08:03.285Z,,,,,,,,,,,,,,,,,53,,,,,,,,,,,,,,402.96399995696265,,response,,,,99,,,,,,,Space,keypress(Space),,,,,,,,"---- -- ----- -- ------ - ------- --- ----------<br>------------- ------ ------ ---- ---- ------- ----- -- ----<br>-------- ------- -- ---------- --- - --- ----- ----- ----<br>---- --- --- ----- --- ---- ---- ------- ----- ---- -------<br>--- --- -- ----- -- --- ---- -- be, ---- -- ------ ------<br>--- ----- -- ----",295847.78499999084,295841.924999957,295422.287,295422.7049999754,295438.961,295855.811,,47,"be,"
screen,html.Screen,2_1_0_1_48,2021-04-24T18:08:03.626Z,,,,,,,,,,,,,,,,,53,,,,,,,,,,,,,,325.2990000050049,,response,,,,99,,,,,,,Space,keypress(Space),,,,,,,,---- -- ----- -- ------ - ------- --- ----------<br>------------- ------ ------ ---- ---- ------- ----- -- ----<br>-------- ------- -- ---------- --- - --- ----- ----- ----<br>---- --- --- ----- --- ---- ---- ------- ----- ---- -------<br>--- --- -- ----- -- --- ---- -- --- even -- ------ ------<br>--- ----- -- ----,296187.8799999831,296181.110000005,295839.137,295847.9599999846,295855.811,296189.291,,48,even
screen,html.Screen,2_1_0_1_49,2021-04-24T18:08:03.964Z,,,,,,,,,,,,,,,,,53,,,,,,,,,,,,,,331.7240000056918,,response,,,,99,,,,,,,Space,keypress(Space),,,,,,,,---- -- ----- -- ------ - ------- --- ----------<br>------------- ------ ------ ---- ---- ------- ----- -- ----<br>-------- ------- -- ---------- --- - --- ----- ----- ----<br>---- --- --- ----- --- ---- ---- ------- ----- ---- -------<br>--- --- -- ----- -- --- ---- -- --- ---- if ------ ------<br>--- ----- -- ----,296526.7799999565,296521.0150000057,296172.617,296188.1149999681,296189.291,296539.445,,49,if
screen,html.Screen,2_1_0_1_50,2021-04-24T18:08:04.248Z,,,,,,,,,,,,,,,,,53,,,,,,,,,,,,,,265.50999999960186,,response,,,,99,,,,,,,Space,keypress(Space),,,,,,,,---- -- ----- -- ------ - ------- --- ----------<br>------------- ------ ------ ---- ---- ------- ----- -- ----<br>-------- ------- -- ---------- --- - --- ----- ----- ----<br>---- --- --- ----- --- ---- ---- ------- ----- ---- -------<br>--- --- -- ----- -- --- ---- -- --- ---- -- that's ------<br>--- ----- -- ----,296810.72499998845,296804.9549999996,296522.771,296526.9499999704,296539.445,296822.903,,50,that's
screen,html.Screen,2_1_0_1_51,2021-04-24T18:08:04.555Z,,,,,,,,,,,,,,,,,53,,,,,,,,,,,,,,288.0869999573915,,response,,,,99,,,,,,,Space,keypress(Space),,,,,,,,---- -- ----- -- ------ - ------- --- ----------<br>------------- ------ ------ ---- ---- ------- ----- -- ----<br>-------- ------- -- ---------- --- - --- ----- ----- ----<br>---- --- --- ----- --- ---- ---- ------- ----- ---- -------<br>--- --- -- ----- -- --- ---- -- --- ---- -- ------ really<br>--- ----- -- ----,297117.21999995643,297110.9899999574,296806.229,296810.89500000235,296822.903,297123.035,,51,really
screen,html.Screen,2_1_0_1_52,2021-04-24T18:08:05.035Z,,,,,,,,,,,,,,,,,53,,,,,,,,,,,,,,468.92999997053994,,response,,,,99,,,,,,,Space,keypress(Space),,,,,,,,---- -- ----- -- ------ - ------- --- ----------<br>------------- ------ ------ ---- ---- ------- ----- -- ----<br>-------- ------- -- ---------- --- - --- ----- ----- ----<br>---- --- --- ----- --- ---- ---- ------- ----- ---- -------<br>--- --- -- ----- -- --- ---- -- --- ---- -- ------ ------<br>not ----- -- ----,297597.6249999949,297591.9649999705,297106.361,297117.40499996813,297123.035,297606.581,,52,not
screen,html.Screen,2_1_0_1_53,2021-04-24T18:08:05.326Z,,,,,,,,,,,,,,,,,53,,,,,,,,,,,,,,276.3240000058431,,response,,,,99,,,,,,,Space,keypress(Space),,,,,,,,---- -- ----- -- ------ - ------- --- ----------<br>------------- ------ ------ ---- ---- ------- ----- -- ----<br>-------- ------- -- ---------- --- - --- ----- ----- ----<br>---- --- --- ----- --- ---- ---- ------- ----- ---- -------<br>--- --- -- ----- -- --- ---- -- --- ---- -- ------ ------<br>--- close -- ----,297888.6449999991,297882.90500000585,297589.907,297597.8049999685,297606.581,297890.039,,53,close
screen,html.Screen,2_1_0_1_54,2021-04-24T18:08:05.722Z,,,,,,,,,,,,,,,,,53,,,,,,,,,,,,,,386.8959999725921,,response,,,,99,,,,,,,Space,keypress(Space),,,,,,,,---- -- ----- -- ------ - ------- --- ----------<br>------------- ------ ------ ---- ---- ------- ----- -- ----<br>-------- ------- -- ---------- --- - --- ----- ----- ----<br>---- --- --- ----- --- ---- ---- ------- ----- ---- -------<br>--- --- -- ----- -- --- ---- -- --- ---- -- ------ ------<br>--- ----- at ----,298284.14499998325,298276.9349999726,297873.365,297888.8249999727,297890.039,298291.832,,54,at
screen,html.Screen,2_1_0_1_55,2021-04-24T18:08:06.099Z,,,,,,,,,,,,,,,,,53,,,,,,,,,,,,,,364.037999958673,,response,,,,99,,,,,,,Space,keypress(Space),,,,,,,,---- -- ----- -- ------ - ------- --- ----------<br>------------- ------ ------ ---- ---- ------- ----- -- ----<br>-------- ------- -- ---------- --- - --- ----- ----- ----<br>---- --- --- ----- --- ---- ---- ------- ----- ---- -------<br>--- --- -- ----- -- --- ---- -- --- ---- -- ------ ------<br>--- ----- -- all.,298661.72999999253,298655.86999995867,298275.158,298284.3349999748,298291.832,298675.334,,55,all.
Item 99,flow.Loop,2_1_0_1,2021-04-24T18:08:06.100Z,,,,,,,,,,,,,,,,,,,,,,,,,,,,,,,21781.61899995868,,completion,,,,,E,,,,,,,,,,,silence,,,,,298662.1049999958,298655.86999995867,276840.903,276843.56999996817,276874.251,298675.334,,,
Question 1,html.Screen,2_1_0_2,2021-04-24T18:08:21.924Z,,,,,,,,,,,,,,,,,,,,,,,,,,,,false,FALSE,,15806.85600000975,,response,,,,99,E,,,,,,TRUE,click #choice-1,,,,silence,,,,,314485.5300000054,314482.1900000097,298658.66,298662.26499999175,298675.334,314501.27,,,
Question 2,html.Screen,2_1_0_3,2021-04-24T18:08:27.058Z,,,,,,,,,,,,,,,,,,,,,,,,,,,,true,TRUE,,5114.769999993499,,response,,,,99,E,,,,,,TRUE,click #choice-1,,,,silence,,,,,319619.59999997634,319616.0399999935,314484.596,314485.8149999636,314501.27,319623.696,,,
Item 99,flow.Sequence,2_1_0,2021-04-24T18:08:27.058Z,,,,,,,,,,,,,,,,,,,,,,,,,,,,,,,52762.86299999349,,completion,,,,,,,,,,,,,,,,,,,,,319619.9149999884,319616.0399999935,266836.503,266852.82500000903,266853.177,319623.696,,,
Holding screen,html.Screen,2_1_1_0,2021-04-24T18:08:37.052Z,,,,,,,,,,,,,,,,,,,,,,,,,,,,,,,10004.400000000023,,timeout,,,,,,,,,,,,,,,,,,,,,329613.704999967,329611.422,319607.022,319620.11999997776,319623.696,329628.096,,,
screen,html.Screen,2_1_1_1_0,2021-04-24T18:08:39.085Z,,,,,,,,,,,,,,,,,54,,,,,,,,,,,,,,2009.1890000043204,,response,,,,100,,,,,,,Space,keypress(Space),,,,,,,,At --- ---- --- ------ ----- ------- ---- -- --- ------- --<br>------- ---------- ------ -- ----- -- ----- -- ---- ------<br>--- ----- --- --- ------ -------- ----- --- ------ ----- --<br>----- ----- ---------- --- --- ------ ------ ---- -- ------<br>------- --- ------ ----- --- ---- ------- -- ---- --- --<br>------- ------,331646.29999996396,331637.28500000434,329611.422,329613.92999999225,329628.096,331654.626,,0,At
screen,html.Screen,2_1_1_1_1,2021-04-24T18:08:39.489Z,,,,,,,,,,,,,,,,,54,,,,,,,,,,,,,,390.37899996357737,,response,,,,100,,,,,,,Space,keypress(Space),,,,,,,,-- the ---- --- ------ ----- ------- ---- -- --- ------- --<br>------- ---------- ------ -- ----- -- ----- -- ---- ------<br>--- ----- --- --- ------ -------- ----- --- ------ ----- --<br>----- ----- ---------- --- --- ------ ------ ---- -- ------<br>------- --- ------ ----- --- ---- ------- -- ---- --- --<br>------- ------,332050.7199999993,332045.00499996357,331637.952,331646.52000000933,331654.626,332054.802,,1,the
screen,html.Screen,2_1_1_1_2,2021-04-24T18:08:39.893Z,,,,,,,,,,,,,,,,,54,,,,,,,,,,,,,,393.06299999461044,,response,,,,100,,,,,,,Space,keypress(Space),,,,,,,,-- --- time --- ------ ----- ------- ---- -- --- ------- --<br>------- ---------- ------ -- ----- -- ----- -- ---- ------<br>--- ----- --- --- ------ -------- ----- --- ------ ----- --<br>----- ----- ---------- --- --- ------ ------ ---- -- ------<br>------- --- ------ ----- --- ---- ------- -- ---- --- --<br>------- ------,332454.38000001013,332447.86499999464,332038.128,332050.8999999729,332054.802,332471.652,,2,time
screen,html.Screen,2_1_1_1_3,2021-04-24T18:08:40.325Z,,,,,,,,,,,,,,,,,54,,,,,,,,,,,,,,407.3579999750946,,response,,,,100,,,,,,,Space,keypress(Space),,,,,,,,-- --- ---- the ------ ----- ------- ---- -- --- ------- --<br>------- ---------- ------ -- ----- -- ----- -- ---- ------<br>--- ----- --- --- ------ -------- ----- --- ------ ----- --<br>----- ----- ---------- --- --- ------ ------ ---- -- ------<br>------- --- ------ ----- --- ---- ------- -- ---- --- --<br>------- ------,332886.0899999854,332879.0099999751,332454.978,332454.5550000039,332471.652,332905.176,,3,the
screen,html.Screen,2_1_1_1_4,2021-04-24T18:08:40.763Z,,,,,,,,,,,,,,,,,54,,,,,,,,,,,,,,413.6439999858849,,response,,,,100,,,,,,,Space,keypress(Space),,,,,,,,-- --- ---- --- French ----- ------- ---- -- --- ------- --<br>------- ---------- ------ -- ----- -- ----- -- ---- ------<br>--- ----- --- --- ------ -------- ----- --- ------ ----- --<br>----- ----- ---------- --- --- ------ ------ ---- -- ------<br>------- --- ------ ----- --- ---- ------- -- ---- --- --<br>------- ------,333324.51000000583,333318.81999998586,332888.502,332886.3499999861,332905.176,333338.7,,4,French
screen,html.Screen,2_1_1_1_5,2021-04-24T18:08:41.149Z,,,,,,,,,,,,,,,,,54,,,,,,,,,,,,,,366.1049999866518,,response,,,,100,,,,,,,Space,keypress(Space),,,,,,,,-- --- ---- --- ------ crown ------- ---- -- --- ------- --<br>------- ---------- ------ -- ----- -- ----- -- ---- ------<br>--- ----- --- --- ------ -------- ----- --- ------ ----- --<br>----- ----- ---------- --- --- ------ ------ ---- -- ------<br>------- --- ------ ----- --- ---- ------- -- ---- --- --<br>------- ------,333710.68999997806,333704.80499998666,333322.026,333324.6849999996,333338.7,333722.202,,5,crown
screen,html.Screen,2_1_1_1_6,2021-04-24T18:08:41.558Z,,,,,,,,,,,,,,,,,54,,,,,,,,,,,,,,390.62799999822164,,response,,,,100,,,,,,,Space,keypress(Space),,,,,,,,-- --- ---- --- ------ ----- secured ---- -- --- ------- --<br>------- ---------- ------ -- ----- -- ----- -- ---- ------<br>--- ----- --- --- ------ -------- ----- --- ------ ----- --<br>----- ----- ---------- --- --- ------ ------ ---- -- ------<br>------- --- ------ ----- --- ---- ------- -- ---- --- --<br>------- ------,334119.3649999914,334112.8299999982,333705.528,333710.85999999195,333722.202,334122.378,,6,secured
screen,html.Screen,2_1_1_1_7,2021-04-24T18:08:41.967Z,,,,,,,,,,,,,,,,,54,,,,,,,,,,,,,,399.5320000103675,,response,,,,100,,,,,,,Space,keypress(Space),,,,,,,,-- --- ---- --- ------ ----- ------- much -- --- ------- --<br>------- ---------- ------ -- ----- -- ----- -- ---- ------<br>--- ----- --- --- ------ -------- ----- --- ------ ----- --<br>----- ----- ---------- --- --- ------ ------ ---- -- ------<br>------- --- ------ ----- --- ---- ------- -- ---- --- --<br>------- ------,334527.70999999484,334521.9100000104,334105.704,334119.55499998294,334122.378,334539.228,,7,much
screen,html.Screen,2_1_1_1_8,2021-04-24T18:08:42.414Z,,,,,,,,,,,,,,,,,54,,,,,,,,,,,,,,430.70199996291194,,response,,,,100,,,,,,,Space,keypress(Space),,,,,,,,-- --- ---- --- ------ ----- ------- ---- of --- ------- --<br>------- ---------- ------ -- ----- -- ----- -- ---- ------<br>--- ----- --- --- ------ -------- ----- --- ------ ----- --<br>----- ----- ---------- --- --- ------ ------ ---- -- ------<br>------- --- ------ ----- --- ---- ------- -- ---- --- --<br>------- ------,334975.52999999607,334969.9299999629,334522.554,334527.88000000874,334539.228,334989.426,,8,of
screen,html.Screen,2_1_1_1_9,2021-04-24T18:08:42.791Z,,,,,,,,,,,,,,,,,54,,,,,,,,,,,,,,357.3239999678917,,response,,,,100,,,,,,,Space,keypress(Space),,,,,,,,-- --- ---- --- ------ ----- ------- ---- -- its ------- --<br>------- ---------- ------ -- ----- -- ----- -- ---- ------<br>--- ----- --- --- ------ -------- ----- --- ------ ----- --<br>----- ----- ---------- --- --- ------ ------ ---- -- ------<br>------- --- ------ ----- --- ---- ------- -- ---- --- --<br>------- ------,335352.5500000105,335346.74999996787,334972.752,334975.70499998983,334989.426,335356.254,,9,its
screen,html.Screen,2_1_1_1_10,2021-04-24T18:08:43.023Z,,,,,,,,,,,,,,,,,54,,,,,,,,,,,,,,222.63600000430597,,response,,,,100,,,,,,,Space,keypress(Space),,,,,,,,-- --- ---- --- ------ ----- ------- ---- -- --- revenue --<br>------- ---------- ------ -- ----- -- ----- -- ---- ------<br>--- ----- --- --- ------ -------- ----- --- ------ ----- --<br>----- ----- ---------- --- --- ------ ------ ---- -- ------<br>------- --- ------ ----- --- ---- ------- -- ---- --- --<br>------- ------,335584.60000000196,335578.8900000043,335339.58,335352.7250000043,335356.254,335589.69,,10,revenue
screen,html.Screen,2_1_1_1_11,2021-04-24T18:08:43.450Z,,,,,,,,,,,,,,,,,54,,,,,,,,,,,,,,400.0199999943725,,response,,,,100,,,,,,,Space,keypress(Space),,,,,,,,-- --- ---- --- ------ ----- ------- ---- -- --- ------- by<br>------- ---------- ------ -- ----- -- ----- -- ---- ------<br>--- ----- --- --- ------ -------- ----- --- ------ ----- --<br>----- ----- ---------- --- --- ------ ------ ---- -- ------<br>------- --- ------ ----- --- ---- ------- -- ---- --- --<br>------- ------,336010.81000000704,335989.7099999944,335573.016,335584.76999995764,335589.69,336023.214,,11,by
screen,html.Screen,2_1_1_1_12,2021-04-24T18:08:43.895Z,,,,,,,,,,,,,,,,,54,,,,,,,,,,,,,,426.4759999794769,,response,,,,100,,,,,,,Space,keypress(Space),,,,,,,,-- --- ---- --- ------ ----- ------- ---- -- --- ------- --<br>issuing ---------- ------ -- ----- -- ----- -- ---- ------<br>--- ----- --- --- ------ -------- ----- --- ------ ----- --<br>----- ----- ---------- --- --- ------ ------ ---- -- ------<br>------- --- ------ ----- --- ---- ------- -- ---- --- --<br>------- ------,336456.3649999909,336449.68999997946,336006.54,336010.97499998286,336023.214,336473.412,,12,issuing
screen,html.Screen,2_1_1_1_13,2021-04-24T18:08:44.190Z,,,,,,,,,,,,,,,,,54,,,,,,,,,,,,,,272.42300000879914,,response,,,,100,,,,,,,Space,keypress(Space),,,,,,,,-- --- ---- --- ------ ----- ------- ---- -- --- ------- --<br>------- government ------ -- ----- -- ----- -- ---- ------<br>--- ----- --- --- ------ -------- ----- --- ------ ----- --<br>----- ----- ---------- --- --- ------ ------ ---- -- ------<br>------- --- ------ ----- --- ---- ------- -- ---- --- --<br>------- ------,336751.63499999326,336745.8350000088,336456.738,336456.53999998467,336473.412,336756.87,,13,government
screen,html.Screen,2_1_1_1_14,2021-04-24T18:08:44.534Z,,,,,,,,,,,,,,,,,54,,,,,,,,,,,,,,332.94499995571095,,response,,,,100,,,,,,,Space,keypress(Space),,,,,,,,-- --- ---- --- ------ ----- ------- ---- -- --- ------- --<br>------- ---------- bonds. -- ----- -- ----- -- ---- ------<br>--- ----- --- --- ------ -------- ----- --- ------ ----- --<br>----- ----- ---------- --- --- ------ ------ ---- -- ------<br>------- --- ------ ----- --- ---- ------- -- ---- --- --<br>------- ------,337095.47499998007,337089.8149999557,336740.196,336751.80500000715,336756.87,337107.024,,14,bonds.
screen,html.Screen,2_1_1_1_15,2021-04-24T18:08:45.393Z,,,,,,,,,,,,,,,,,54,,,,,,,,,,,,,,839.9059999764431,,response,,,,100,,,,,,,Space,keypress(Space),,,,,,,,-- --- ---- --- ------ ----- ------- ---- -- --- ------- --<br>------- ---------- ------ In ----- -- ----- -- ---- ------<br>--- ----- --- --- ------ -------- ----- --- ------ ----- --<br>----- ----- ---------- --- --- ------ ------ ---- -- ------<br>------- --- ------ ----- --- ---- ------- -- ---- --- --<br>------- ------,337954.32999997865,337946.9299999764,337090.35,337095.64999997383,337107.024,337974.072,,15,In
screen,html.Screen,2_1_1_1_16,2021-04-24T18:08:45.891Z,,,,,,,,,,,,,,,,,54,,,,,,,,,,,,,,471.7629999622586,,response,,,,100,,,,,,,Space,keypress(Space),,,,,,,,"-- --- ---- --- ------ ----- ------- ---- -- --- ------- --<br>------- ---------- ------ -- 1727, -- ----- -- ---- ------<br>--- ----- --- --- ------ -------- ----- --- ------ ----- --<br>----- ----- ---------- --- --- ------ ------ ---- -- ------<br>------- --- ------ ----- --- ---- ------- -- ---- --- --<br>------- ------",338451.9250000012,338445.83499996224,337957.398,337954.60499997716,337974.072,338457.618,,16,"1727,"
screen,html.Screen,2_1_1_1_17,2021-04-24T18:08:46.366Z,,,,,,,,,,,,,,,,,54,,,,,,,,,,,,,,464.18699999083765,,response,,,,100,,,,,,,Space,keypress(Space),,,,,,,,-- --- ---- --- ------ ----- ------- ---- -- --- ------- --<br>------- ---------- ------ -- ----- in ----- -- ---- ------<br>--- ----- --- --- ------ -------- ----- --- ------ ----- --<br>----- ----- ---------- --- --- ------ ------ ---- -- ------<br>------- --- ------ ----- --- ---- ------- -- ---- --- --<br>------- ------,338927.5149999885,338921.80499999085,338440.944,338452.09999999497,338457.618,338941.164,,17,in
screen,html.Screen,2_1_1_1_18,2021-04-24T18:08:46.738Z,,,,,,,,,,,,,,,,,54,,,,,,,,,,,,,,352.54599999811035,,response,,,,100,,,,,,,Space,keypress(Space),,,,,,,,-- --- ---- --- ------ ----- ------- ---- -- --- ------- --<br>------- ---------- ------ -- ----- -- order -- ---- ------<br>--- ----- --- --- ------ -------- ----- --- ------ ----- --<br>----- ----- ---------- --- --- ------ ------ ---- -- ------<br>------- --- ------ ----- --- ---- ------- -- ---- --- --<br>------- ------,339299.41499995766,339293.7099999981,338924.49,338927.6850000024,338941.164,339307.992,,18,order
screen,html.Screen,2_1_1_1_19,2021-04-24T18:08:47.057Z,,,,,,,,,,,,,,,,,54,,,,,,,,,,,,,,304.6979999798932,,response,,,,100,,,,,,,Space,keypress(Space),,,,,,,,-- --- ---- --- ------ ----- ------- ---- -- --- ------- --<br>------- ---------- ------ -- ----- -- ----- to ---- ------<br>--- ----- --- --- ------ -------- ----- --- ------ ----- --<br>----- ----- ---------- --- --- ------ ------ ---- -- ------<br>------- --- ------ ----- --- ---- ------- -- ---- --- --<br>------- ------,339618.45999996876,339612.6899999799,339291.318,339299.58499997156,339307.992,339634.109,,19,to
screen,html.Screen,2_1_1_1_20,2021-04-24T18:08:47.420Z,,,,,,,,,,,,,,,,,54,,,,,,,,,,,,,,341.6159999675001,,response,,,,100,,,,,,,Space,keypress(Space),,,,,,,,-- --- ---- --- ------ ----- ------- ---- -- --- ------- --<br>------- ---------- ------ -- ----- -- ----- -- save ------<br>--- ----- --- --- ------ -------- ----- --- ------ ----- --<br>----- ----- ---------- --- --- ------ ------ ---- -- ------<br>------- --- ------ ----- --- ---- ------- -- ---- --- --<br>------- ------,339981.4899999765,339975.7249999675,339617.435,339618.62999998266,339634.109,339984.263,,20,save
screen,html.Screen,2_1_1_1_21,2021-04-24T18:08:47.778Z,,,,,,,,,,,,,,,,,54,,,,,,,,,,,,,,348.35199996299343,,response,,,,100,,,,,,,Space,keypress(Space),,,,,,,,"-- --- ---- --- ------ ----- ------- ---- -- --- ------- --<br>------- ---------- ------ -- ----- -- ----- -- ---- money,<br>--- ----- --- --- ------ -------- ----- --- ------ ----- --<br>----- ----- ---------- --- --- ------ ------ ---- -- ------<br>------- --- ------ ----- --- ---- ------- -- ---- --- --<br>------- ------",340338.63999997266,340332.61499996297,339967.589,339981.65999999037,339984.263,340351.091,,21,"money,"
screen,html.Screen,2_1_1_1_22,2021-04-24T18:08:48.391Z,,,,,,,,,,,,,,,,,54,,,,,,,,,,,,,,594.3889999948442,,response,,,,100,,,,,,,Space,keypress(Space),,,,,,,,-- --- ---- --- ------ ----- ------- ---- -- --- ------- --<br>------- ---------- ------ -- ----- -- ----- -- ---- ------<br>the ----- --- --- ------ -------- ----- --- ------ ----- --<br>----- ----- ---------- --- --- ------ ------ ---- -- ------<br>------- --- ------ ----- --- ---- ------- -- ---- --- --<br>------- ------,340952.34999997774,340945.47999999486,340334.417,340338.80999998655,340351.091,340968.029,,22,the
screen,html.Screen,2_1_1_1_23,2021-04-24T18:08:48.743Z,,,,,,,,,,,,,,,,,54,,,,,,,,,,,,,,330.5809999980265,,response,,,,100,,,,,,,Space,keypress(Space),,,,,,,,-- --- ---- --- ------ ----- ------- ---- -- --- ------- --<br>------- ---------- ------ -- ----- -- ----- -- ---- ------<br>--- state --- --- ------ -------- ----- --- ------ ----- --<br>----- ----- ---------- --- --- ------ ------ ---- -- ------<br>------- --- ------ ----- --- ---- ------- -- ---- --- --<br>------- ------,341304.29999995977,341298.609999998,340951.355,340952.5249999715,340968.029,341318.183,,23,state
screen,html.Screen,2_1_1_1_24,2021-04-24T18:08:49.129Z,,,,,,,,,,,,,,,,,54,,,,,,,,,,,,,,364.34699999092845,,response,,,,100,,,,,,,Space,keypress(Space),,,,,,,,-- --- ---- --- ------ ----- ------- ---- -- --- ------- --<br>------- ---------- ------ -- ----- -- ----- -- ---- ------<br>--- ----- cut --- ------ -------- ----- --- ------ ----- --<br>----- ----- ---------- --- --- ------ ------ ---- -- ------<br>------- --- ------ ----- --- ---- ------- -- ---- --- --<br>------- ------,341689.50499995844,341682.52999999095,341301.509,341304.4799999916,341318.183,341701.685,,24,cut
screen,html.Screen,2_1_1_1_25,2021-04-24T18:08:49.666Z,,,,,,,,,,,,,,,,,54,,,,,,,,,,,,,,519.8899999741116,,response,,,,100,,,,,,,Space,keypress(Space),,,,,,,,-- --- ---- --- ------ ----- ------- ---- -- --- ------- --<br>------- ---------- ------ -- ----- -- ----- -- ---- ------<br>--- ----- --- the ------ -------- ----- --- ------ ----- --<br>----- ----- ---------- --- --- ------ ------ ---- -- ------<br>------- --- ------ ----- --- ---- ------- -- ---- --- --<br>------- ------,342227.19499998493,342221.5749999741,341685.011,341689.6800000104,341701.685,342235.253,,25,the
screen,html.Screen,2_1_1_1_26,2021-04-24T18:08:49.989Z,,,,,,,,,,,,,,,,,54,,,,,,,,,,,,,,309.30199997127056,,response,,,,100,,,,,,,Space,keypress(Space),,,,,,,,-- --- ---- --- ------ ----- ------- ---- -- --- ------- --<br>------- ---------- ------ -- ----- -- ----- -- ---- ------<br>--- ----- --- --- bonds' -------- ----- --- ------ ----- --<br>----- ----- ---------- --- --- ------ ------ ---- -- ------<br>------- --- ------ ----- --- ---- ------- -- ---- --- --<br>------- ------,342550.28999998467,342544.5549999713,342218.579,342227.3699999787,342235.253,342552.059,,26,bonds'
screen,html.Screen,2_1_1_1_27,2021-04-24T18:08:50.295Z,,,,,,,,,,,,,,,,,54,,,,,,,,,,,,,,298.4859999938635,,response,,,,100,,,,,,,Space,keypress(Space),,,,,,,,-- --- ---- --- ------ ----- ------- ---- -- --- ------- --<br>------- ---------- ------ -- ----- -- ----- -- ---- ------<br>--- ----- --- --- ------ interest ----- --- ------ ----- --<br>----- ----- ---------- --- --- ------ ------ ---- -- ------<br>------- --- ------ ----- --- ---- ------- -- ---- --- --<br>------- ------,342856.3950000098,342850.5449999939,342535.385,342550.46499997843,342552.059,342868.865,,27,interest
screen,html.Screen,2_1_1_1_28,2021-04-24T18:08:50.653Z,,,,,,,,,,,,,,,,,54,,,,,,,,,,,,,,339.65000000572763,,response,,,,100,,,,,,,Space,keypress(Space),,,,,,,,-- --- ---- --- ------ ----- ------- ---- -- --- ------- --<br>------- ---------- ------ -- ----- -- ----- -- ---- ------<br>--- ----- --- --- ------ -------- rate. --- ------ ----- --<br>----- ----- ---------- --- --- ------ ------ ---- -- ------<br>------- --- ------ ----- --- ---- ------- -- ---- --- --<br>------- ------,343214.13499995833,343208.5150000057,342852.191,342856.57000000356,342868.865,343219.019,,28,rate.
screen,html.Screen,2_1_1_1_29,2021-04-24T18:08:51.309Z,,,,,,,,,,,,,,,,,54,,,,,,,,,,,,,,644.3710000131978,,response,,,,100,,,,,,,Space,keypress(Space),,,,,,,,-- --- ---- --- ------ ----- ------- ---- -- --- ------- --<br>------- ---------- ------ -- ----- -- ----- -- ---- ------<br>--- ----- --- --- ------ -------- ----- The ------ ----- --<br>----- ----- ---------- --- --- ------ ------ ---- -- ------<br>------- --- ------ ----- --- ---- ------- -- ---- --- --<br>------- ------,343869.55499998294,343863.39000001317,343202.345,343214.3049999722,343219.019,343885.979,,29,The
screen,html.Screen,2_1_1_1_30,2021-04-24T18:08:51.598Z,,,,,,,,,,,,,,,,,54,,,,,,,,,,,,,,266.87100001313956,,response,,,,100,,,,,,,Space,keypress(Space),,,,,,,,-- --- ---- --- ------ ----- ------- ---- -- --- ------- --<br>------- ---------- ------ -- ----- -- ----- -- ---- ------<br>--- ----- --- --- ------ -------- ----- --- market ----- --<br>----- ----- ---------- --- --- ------ ------ ---- -- ------<br>------- --- ------ ----- --- ---- ------- -- ---- --- --<br>------- ------,344158.5699999705,344152.85000001313,343869.305,343869.7299999767,343885.979,344169.437,,30,market
screen,html.Screen,2_1_1_1_31,2021-04-24T18:08:51.907Z,,,,,,,,,,,,,,,,,54,,,,,,,,,,,,,,292.98799997608876,,response,,,,100,,,,,,,Space,keypress(Space),,,,,,,,-- --- ---- --- ------ ----- ------- ---- -- --- ------- --<br>------- ---------- ------ -- ----- -- ----- -- ---- ------<br>--- ----- --- --- ------ -------- ----- --- ------ value --<br>----- ----- ---------- --- --- ------ ------ ---- -- ------<br>------- --- ------ ----- --- ---- ------- -- ---- --- --<br>------- ------,344468.27999997186,344462.42499997607,344152.763,344158.7500000023,344169.437,344469.569,,31,value
screen,html.Screen,2_1_1_1_32,2021-04-24T18:08:52.245Z,,,,,,,,,,,,,,,,,54,,,,,,,,,,,,,,330.83599998720456,,response,,,,100,,,,,,,Space,keypress(Space),,,,,,,,-- --- ---- --- ------ ----- ------- ---- -- --- ------- --<br>------- ---------- ------ -- ----- -- ----- -- ---- ------<br>--- ----- --- --- ------ -------- ----- --- ------ ----- of<br>----- ----- ---------- --- --- ------ ------ ---- -- ------<br>------- --- ------ ----- --- ---- ------- -- ---- --- --<br>------- ------,344805.9699999867,344800.4049999872,344452.895,344468.44999998575,344469.569,344819.723,,32,of
screen,html.Screen,2_1_1_1_33,2021-04-24T18:08:52.612Z,,,,,,,,,,,,,,,,,54,,,,,,,,,,,,,,347.6619999788236,,response,,,,100,,,,,,,Space,keypress(Space),,,,,,,,-- --- ---- --- ------ ----- ------- ---- -- --- ------- --<br>------- ---------- ------ -- ----- -- ----- -- ---- ------<br>--- ----- --- --- ------ -------- ----- --- ------ ----- --<br>these ----- ---------- --- --- ------ ------ ---- -- ------<br>------- --- ------ ----- --- ---- ------- -- ---- --- --<br>------- ------,345173.37500001304,345167.3849999788,344803.049,344806.14499998046,344819.723,345186.551,,33,these
screen,html.Screen,2_1_1_1_34,2021-04-24T18:08:52.879Z,,,,,,,,,,,,,,,,,54,,,,,,,,,,,,,,247.82400001166388,,response,,,,100,,,,,,,Space,keypress(Space),,,,,,,,-- --- ---- --- ------ ----- ------- ---- -- --- ------- --<br>------- ---------- ------ -- ----- -- ----- -- ---- ------<br>--- ----- --- --- ------ -------- ----- --- ------ ----- --<br>----- bonds ---------- --- --- ------ ------ ---- -- ------<br>------- --- ------ ----- --- ---- ------- -- ---- --- --<br>------- ------,345440.2049999917,345434.37500001164,345169.877,345173.5500000068,345186.551,345453.335,,34,bonds
screen,html.Screen,2_1_1_1_35,2021-04-24T18:08:53.195Z,,,,,,,,,,,,,,,,,54,,,,,,,,,,,,,,297.05500000104075,,response,,,,100,,,,,,,Space,keypress(Space),,,,,,,,"-- --- ---- --- ------ ----- ------- ---- -- --- ------- --<br>------- ---------- ------ -- ----- -- ----- -- ---- ------<br>--- ----- --- --- ------ -------- ----- --- ------ ----- --<br>----- ----- plummeted, --- --- ------ ------ ---- -- ------<br>------- --- ------ ----- --- ---- ------- -- ---- --- --<br>------- ------",345756.22999999905,345750.39000000106,345436.661,345440.3750000056,345453.335,345770.141,,35,"plummeted,"
screen,html.Screen,2_1_1_1_36,2021-04-24T18:08:53.541Z,,,,,,,,,,,,,,,,,54,,,,,,,,,,,,,,326.2039999690023,,response,,,,100,,,,,,,Space,keypress(Space),,,,,,,,-- --- ---- --- ------ ----- ------- ---- -- --- ------- --<br>------- ---------- ------ -- ----- -- ----- -- ---- ------<br>--- ----- --- --- ------ -------- ----- --- ------ ----- --<br>----- ----- ---------- and --- ------ ------ ---- -- ------<br>------- --- ------ ----- --- ---- ------- -- ---- --- --<br>------- ------,346102.1399999736,346096.344999969,345753.467,345756.40000001295,345770.141,346103.621,,36,and
screen,html.Screen,2_1_1_1_37,2021-04-24T18:08:53.868Z,,,,,,,,,,,,,,,,,54,,,,,,,,,,,,,,318.6889999944833,,response,,,,100,,,,,,,Space,keypress(Space),,,,,,,,-- --- ---- --- ------ ----- ------- ---- -- --- ------- --<br>------- ---------- ------ -- ----- -- ----- -- ---- ------<br>--- ----- --- --- ------ -------- ----- --- ------ ----- --<br>----- ----- ---------- --- the ------ ------ ---- -- ------<br>------- --- ------ ----- --- ---- ------- -- ---- --- --<br>------- ------,346428.3849999774,346422.30999999447,346086.947,346102.31499996735,346103.621,346437.101,,37,the
screen,html.Screen,2_1_1_1_38,2021-04-24T18:08:54.259Z,,,,,,,,,,,,,,,,,54,,,,,,,,,,,,,,377.2389999825973,,response,,,,100,,,,,,,Space,keypress(Space),,,,,,,,-- --- ---- --- ------ ----- ------- ---- -- --- ------- --<br>------- ---------- ------ -- ----- -- ----- -- ---- ------<br>--- ----- --- --- ------ -------- ----- --- ------ ----- --<br>----- ----- ---------- --- --- market ------ ---- -- ------<br>------- --- ------ ----- --- ---- ------- -- ---- --- --<br>------- ------,346820.0099999667,346814.3399999826,346420.427,346428.5549999913,346437.101,346837.277,,38,market
screen,html.Screen,2_1_1_1_39,2021-04-24T18:08:54.559Z,,,,,,,,,,,,,,,,,54,,,,,,,,,,,,,,277.0579999911133,,response,,,,100,,,,,,,Space,keypress(Space),,,,,,,,-- --- ---- --- ------ ----- ------- ---- -- --- ------- --<br>------- ---------- ------ -- ----- -- ----- -- ---- ------<br>--- ----- --- --- ------ -------- ----- --- ------ ----- --<br>----- ----- ---------- --- --- ------ became ---- -- ------<br>------- --- ------ ----- --- ---- ------- -- ---- --- --<br>------- ------,347120.2499999781,347114.3349999911,346820.603,346820.1849999605,346837.277,347137.409,,39,became
screen,html.Screen,2_1_1_1_40,2021-04-24T18:08:54.871Z,,,,,,,,,,,,,,,,,54,,,,,,,,,,,,,,288.91600000765175,,response,,,,100,,,,,,,Space,keypress(Space),,,,,,,,-- --- ---- --- ------ ----- ------- ---- -- --- ------- --<br>------- ---------- ------ -- ----- -- ----- -- ---- ------<br>--- ----- --- --- ------ -------- ----- --- ------ ----- --<br>----- ----- ---------- --- --- ------ ------ wary -- ------<br>------- --- ------ ----- --- ---- ------- -- ---- --- --<br>------- ------,347432.1049999562,347426.32500000764,347120.735,347120.43000000995,347137.409,347437.541,,40,wary
screen,html.Screen,2_1_1_1_41,2021-04-24T18:08:55.182Z,,,,,,,,,,,,,,,,,54,,,,,,,,,,,,,,298.784000005282,,response,,,,100,,,,,,,Space,keypress(Space),,,,,,,,-- --- ---- --- ------ ----- ------- ---- -- --- ------- --<br>------- ---------- ------ -- ----- -- ----- -- ---- ------<br>--- ----- --- --- ------ -------- ----- --- ------ ----- --<br>----- ----- ---------- --- --- ------ ------ ---- of ------<br>------- --- ------ ----- --- ---- ------- -- ---- --- --<br>------- ------,347742.36999999266,347736.3250000053,347420.867,347432.28499998804,347437.541,347754.347,,41,of
screen,html.Screen,2_1_1_1_42,2021-04-24T18:08:55.496Z,,,,,,,,,,,,,,,,,54,,,,,,,,,,,,,,296.90299996040994,,response,,,,100,,,,,,,Space,keypress(Space),,,,,,,,-- --- ---- --- ------ ----- ------- ---- -- --- ------- --<br>------- ---------- ------ -- ----- -- ----- -- ---- ------<br>--- ----- --- --- ------ -------- ----- --- ------ ----- --<br>----- ----- ---------- --- --- ------ ------ ---- -- French<br>------- --- ------ ----- --- ---- ------- -- ---- --- --<br>------- ------,348057.06999998074,348051.2499999604,347737.673,347742.5499999663,347754.347,348071.153,,42,French
screen,html.Screen,2_1_1_1_43,2021-04-24T18:08:55.815Z,,,,,,,,,,,,,,,,,54,,,,,,,,,,,,,,298.98699995543575,,response,,,,100,,,,,,,Space,keypress(Space),,,,,,,,-- --- ---- --- ------ ----- ------- ---- -- --- ------- --<br>------- ---------- ------ -- ----- -- ----- -- ---- ------<br>--- ----- --- --- ------ -------- ----- --- ------ ----- --<br>----- ----- ---------- --- --- ------ ------ ---- -- ------<br>credit. --- ------ ----- --- ---- ------- -- ---- --- --<br>------- ------,348375.9100000025,348370.1399999554,348054.479,348057.2449999745,348071.153,348387.959,,43,credit.
screen,html.Screen,2_1_1_1_44,2021-04-24T18:08:56.162Z,,,,,,,,,,,,,,,,,54,,,,,,,,,,,,,,328.3159999552299,,response,,,,100,,,,,,,Space,keypress(Space),,,,,,,,-- --- ---- --- ------ ----- ------- ---- -- --- ------- --<br>------- ---------- ------ -- ----- -- ----- -- ---- ------<br>--- ----- --- --- ------ -------- ----- --- ------ ----- --<br>----- ----- ---------- --- --- ------ ------ ---- -- ------<br>------- The ------ ----- --- ---- ------- -- ---- --- --<br>------- ------,348723.0499999714,348716.2749999552,348371.285,348376.07999995816,348387.959,348738.113,,44,The
screen,html.Screen,2_1_1_1_45,2021-04-24T18:08:56.562Z,,,,,,,,,,,,,,,,,54,,,,,,,,,,,,,,379.13199997216,,response,,,,100,,,,,,,Space,keypress(Space),,,,,,,,-- --- ---- --- ------ ----- ------- ---- -- --- ------- --<br>------- ---------- ------ -- ----- -- ----- -- ---- ------<br>--- ----- --- --- ------ -------- ----- --- ------ ----- --<br>----- ----- ---------- --- --- ------ ------ ---- -- ------<br>------- --- French ----- --- ---- ------- -- ---- --- --<br>------- ------,349122.9900000035,349117.2449999722,348721.439,348723.22499996517,348738.113,349138.289,,45,French
screen,html.Screen,2_1_1_1_46,2021-04-24T18:08:56.839Z,,,,,,,,,,,,,,,,,54,,,,,,,,,,,,,,255.9459999561077,,response,,,,100,,,,,,,Space,keypress(Space),,,,,,,,-- --- ---- --- ------ ----- ------- ---- -- --- ------- --<br>------- ---------- ------ -- ----- -- ----- -- ---- ------<br>--- ----- --- --- ------ -------- ----- --- ------ ----- --<br>----- ----- ---------- --- --- ------ ------ ---- -- ------<br>------- --- ------ state --- ---- ------- -- ---- --- --<br>------- ------,349399.92999995593,349394.2349999561,349121.615,349123.16499999724,349138.289,349405.073,,46,state
screen,html.Screen,2_1_1_1_47,2021-04-24T18:08:57.118Z,,,,,,,,,,,,,,,,,54,,,,,,,,,,,,,,268.1469999969704,,response,,,,100,,,,,,,Space,keypress(Space),,,,,,,,-- --- ---- --- ------ ----- ------- ---- -- --- ------- --<br>------- ---------- ------ -- ----- -- ----- -- ---- ------<br>--- ----- --- --- ------ -------- ----- --- ------ ----- --<br>----- ----- ---------- --- --- ------ ------ ---- -- ------<br>------- --- ------ ----- was ---- ------- -- ---- --- --<br>------- ------,349678.9449999924,349673.21999999695,349388.399,349400.1050000079,349405.073,349689.961,,47,was
screen,html.Screen,2_1_1_1_48,2021-04-24T18:08:57.419Z,,,,,,,,,,,,,,,,,54,,,,,,,,,,,,,,283.2439999874914,,response,,,,100,,,,,,,Space,keypress(Space),,,,,,,,-- --- ---- --- ------ ----- ------- ---- -- --- ------- --<br>------- ---------- ------ -- ----- -- ----- -- ---- ------<br>--- ----- --- --- ------ -------- ----- --- ------ ----- --<br>----- ----- ---------- --- --- ------ ------ ---- -- ------<br>------- --- ------ ----- --- left ------- -- ---- --- --<br>------- ------,349979.33999996167,349973.2049999875,349673.287,349679.1150000063,349689.961,349990.093,,48,left
screen,html.Screen,2_1_1_1_49,2021-04-24T18:08:57.703Z,,,,,,,,,,,,,,,,,54,,,,,,,,,,,,,,268.1020000021672,,response,,,,100,,,,,,,Space,keypress(Space),,,,,,,,-- --- ---- --- ------ ----- ------- ---- -- --- ------- --<br>------- ---------- ------ -- ----- -- ----- -- ---- ------<br>--- ----- --- --- ------ -------- ----- --- ------ ----- --<br>----- ----- ---------- --- --- ------ ------ ---- -- ------<br>------- --- ------ ----- --- ---- without -- ---- --- --<br>------- ------,350264.0299999621,350258.19500000216,349973.419,349979.5199999935,349990.093,350273.551,,49,without
screen,html.Screen,2_1_1_1_50,2021-04-24T18:08:58.012Z,,,,,,,,,,,,,,,,,54,,,,,,,,,,,,,,293.62900001276284,,response,,,,100,,,,,,,Space,keypress(Space),,,,,,,,-- --- ---- --- ------ ----- ------- ---- -- --- ------- --<br>------- ---------- ------ -- ----- -- ----- -- ---- ------<br>--- ----- --- --- ------ -------- ----- --- ------ ----- --<br>----- ----- ---------- --- --- ------ ------ ---- -- ------<br>------- --- ------ ----- --- ---- ------- an ---- --- --<br>------- ------,350572.9149999679,350567.18000001274,350256.877,350264.199999976,350273.551,350590.357,,50,an
screen,html.Screen,2_1_1_1_51,2021-04-24T18:08:58.346Z,,,,,,,,,,,,,,,,,54,,,,,,,,,,,,,,310.6379999744822,,response,,,,100,,,,,,,Space,keypress(Space),,,,,,,,-- --- ---- --- ------ ----- ------- ---- -- --- ------- --<br>------- ---------- ------ -- ----- -- ----- -- ---- ------<br>--- ----- --- --- ------ -------- ----- --- ------ ----- --<br>----- ----- ---------- --- --- ------ ------ ---- -- ------<br>------- --- ------ ----- --- ---- ------- -- easy --- --<br>------- ------,350906.68999997433,350900.9949999745,350573.683,350573.09499999974,350590.357,350923.837,,51,easy
screen,html.Screen,2_1_1_1_52,2021-04-24T18:08:58.648Z,,,,,,,,,,,,,,,,,54,,,,,,,,,,,,,,279.1479999817093,,response,,,,100,,,,,,,Space,keypress(Space),,,,,,,,-- --- ---- --- ------ ----- ------- ---- -- --- ------- --<br>------- ---------- ------ -- ----- -- ----- -- ---- ------<br>--- ----- --- --- ------ -------- ----- --- ------ ----- --<br>----- ----- ---------- --- --- ------ ------ ---- -- ------<br>------- --- ------ ----- --- ---- ------- -- ---- way --<br>------- ------,351208.82999995956,351202.9849999817,350907.163,350906.87000000617,350923.837,351223.969,,52,way
screen,html.Screen,2_1_1_1_53,2021-04-24T18:08:59.063Z,,,,,,,,,,,,,,,,,54,,,,,,,,,,,,,,394.15599997906247,,response,,,,100,,,,,,,Space,keypress(Space),,,,,,,,-- --- ---- --- ------ ----- ------- ---- -- --- ------- --<br>------- ---------- ------ -- ----- -- ----- -- ---- ------<br>--- ----- --- --- ------ -------- ----- --- ------ ----- --<br>----- ----- ---------- --- --- ------ ------ ---- -- ------<br>------- --- ------ ----- --- ---- ------- -- ---- --- of<br>------- ------,351624.0450000041,351618.12499997905,351207.295,351209.00500001153,351223.969,351640.819,,53,of
screen,html.Screen,2_1_1_1_54,2021-04-24T18:08:59.411Z,,,,,,,,,,,,,,,,,54,,,,,,,,,,,,,,324.2860000102082,,response,,,,100,,,,,,,Space,keypress(Space),,,,,,,,-- --- ---- --- ------ ----- ------- ---- -- --- ------- --<br>------- ---------- ------ -- ----- -- ----- -- ---- ------<br>--- ----- --- --- ------ -------- ----- --- ------ ----- --<br>----- ----- ---------- --- --- ------ ------ ---- -- ------<br>------- --- ------ ----- --- ---- ------- -- ---- --- --<br>raising ------,351972.1150000114,351965.1050000102,351624.145,351624.2199999979,351640.819,351974.299,,54,raising
screen,html.Screen,2_1_1_1_55,2021-04-24T18:08:59.904Z,,,,,,,,,,,,,,,,,54,,,,,,,,,,,,,,484.7859999804059,,response,,,,100,,,,,,,Space,keypress(Space),,,,,,,,-- --- ---- --- ------ ----- ------- ---- -- --- ------- --<br>------- ---------- ------ -- ----- -- ----- -- ---- ------<br>--- ----- --- --- ------ -------- ----- --- ------ ----- --<br>----- ----- ---------- --- --- ------ ------ ---- -- ------<br>------- --- ------ ----- --- ---- ------- -- ---- --- --<br>------- money.,352465.0649999967,352459.0849999804,351957.625,351972.30500000296,351974.299,352474.519,,55,money.
Item 100,flow.Loop,2_1_1_1,2021-04-24T18:08:59.905Z,,,,,,,,,,,,,,,,,,,,,,,,,,,,,,,22830.988999980385,,completion,,,,,E,,,,,,,,,,,silence,,,,,352465.39500000654,352459.0849999804,329611.422,329613.86499996297,329628.096,352474.519,,,
Question 1,html.Screen,2_1_1_2,2021-04-24T18:09:03.286Z,,,,,,,,,,,,,,,,,,,,,,,,,,,,true,TRUE,,3368.540999984718,,response,,,,100,E,,,,,,TRUE,click #choice-1,,,,silence,,,,,355846.2549999822,355843.0599999847,352457.845,352465.5349999666,352474.519,355859.341,,,
Question 2,html.Screen,2_1_1_3,2021-04-24T18:09:06.040Z,,,,,,,,,,,,,,,,,,,,,,,,,,,,false,FALSE,,2738.1139999809675,,response,,,,100,E,,,,,,TRUE,click #choice-1,,,,silence,,,,,358600.7249999675,358597.454999981,355842.667,355846.42999997595,355859.341,358610.551,,,
Item 100,flow.Sequence,2_1_1,2021-04-24T18:09:06.041Z,,,,,,,,,,,,,,,,,,,,,,,,,,,,,,,38973.758999980986,,completion,,,,,,,,,,,,,,,,,,,,,358600.99499998614,358597.454999981,319607.022,319620.0649999664,319623.696,358610.551,,,
End of Practice,html.Page,2_1_2,2021-04-24T18:09:26.028Z,,,,,,,,,,,,,,,,,,,,,,,,,,,,,,,19992.126000000047,,timeout,,,,,,,,,,,,,,,,,,,,,378587.835000013,378586.003,358593.877,358601.1249999865,358610.551,378602.677,,,
Practice,flow.Sequence,2_1,2021-04-24T18:09:26.028Z,,,,,,,,,,,,,,,,,,,,,,,,,,,,,,,111732.826,,completion,,,,,,,,,,,,,,,,,,,,,378588.1100000115,378586.003,266836.503,266852.75999997975,266853.177,378602.677,,,
Trap_instruction,html.Page,2_2_0,2021-04-24T18:09:33.031Z,,,,,,,,,,,,,,,,,,,,,,,,,,,,,,,6987.302999989712,,form submission,,,,,,,,,,,,,,,,,,,,,385590.32999997726,385589.97999998974,378586.003,378588.3000000031,378602.677,385604.722,,,
trap_trial,html.Screen,2_2_1,2021-04-24T18:09:36.637Z,,,,,,,,,,,,,,,,,,,,,,,,,,,,true,1,,3588.1680000057095,,response,,,,,,,,,,,1,click #choice-1,,,,,,,,,389196.2699999567,389192.8900000057,385588.048,385590.5499999644,385604.722,389206.306,,,
end of trap trial,html.Page,2_2_2,2021-04-24T18:09:38.607Z,,,,,,,,,,,,,,,,,,,,,,,,,,,,,,,1959.558999988134,,form submission,,,,,,,,,,,,,,,,,,,,,391166.344999976,391165.8649999881,389189.632,389196.4600000065,389206.306,391178.997,,,
Trap 1,flow.Sequence,2_2,2021-04-24T18:09:38.607Z,,,,,,,,,,,,,,,,,,,,,,,,,,,,,,,12563.187999988091,,completion,,,,,,,,,,,,,,,,,,,,,391166.7299999972,391165.8649999881,378586.003,378588.24000001187,378602.677,391178.997,,,
Standby,html.Page,2_3_0,2021-04-24T18:09:46.608Z,,,,,,,,,,,,,,,,,,,,,,,,,,,,,,,8003.520000000019,,timeout,,,,,,,,,,,,,,,,,,,,,399167.27499995613,399165.843,391162.323,391166.9549999642,391178.997,399182.517,,,
Holding screen,html.Screen,2_3_1_0_0,2021-04-24T18:09:53.617Z,,,,,,,,,,,,,,,,,,,,,,,,,,,,,,,7007.689000000013,,timeout,,,,,,,,,,,,,,,,,,,,,406176.2499999604,406173.532,399165.843,399167.5399999949,399182.517,406190.206,,,
screen,html.Screen,2_3_1_0_1_0,2021-04-24T18:09:54.535Z,,,,,,,,,,,,,,,,,15,,,,,,,,,,,,,,894.6839999982622,,response,,,,7,E,,,,,,Space,keypress(Space),,,,lyrical,,,,Greg --------- ---------- - --- ------- -- --- ------------<br>----- -- -------- ------- ---- ------ - -------- ---- -----<br>--- ------- ---- -- --- -------- --- - ----- ------ ---- --<br>-------- --- -------- -------- --- -------- ---- -- ----- -<br>-------- ---- --- ---------- --------- -- ------- ------ -<br>--------- ----- -----,407094.21999996994,407084.88999999827,406173.532,406176.4850000036,406190.206,407107.276,,0,Greg
screen,html.Screen,2_3_1_0_1_1,2021-04-24T18:09:54.913Z,,,,,,,,,,,,,,,,,15,,,,,,,,,,,,,,358.42400000063935,,response,,,,7,E,,,,,,Space,keypress(Space),,,,lyrical,,,,"---- Anderson, ---------- - --- ------- -- --- ------------<br>----- -- -------- ------- ---- ------ - -------- ---- -----<br>--- ------- ---- -- --- -------- --- - ----- ------ ---- --<br>-------- --- -------- -------- --- -------- ---- -- ----- -<br>-------- ---- --- ---------- --------- -- ------- ------ -<br>--------- ----- -----",407471.53499996057,407465.70000000065,407090.602,407094.4249999593,407107.276,407474.104,,1,"Anderson,"
screen,html.Screen,2_3_1_0_1_2,2021-04-24T18:09:55.230Z,,,,,,,,,,,,,,,,,15,,,,,,,,,,,,,,308.6159999592346,,response,,,,7,E,,,,,,Space,keypress(Space),,,,lyrical,,,,---- --------- considered - --- ------- -- --- ------------<br>----- -- -------- ------- ---- ------ - -------- ---- -----<br>--- ------- ---- -- --- -------- --- - ----- ------ ---- --<br>-------- --- -------- -------- --- -------- ---- -- ----- -<br>-------- ---- --- ---------- --------- -- ------- ------ -<br>--------- ----- -----,407788.76999998465,407782.7199999592,407457.43,407471.71000001254,407474.104,407807.584,,2,considered
screen,html.Screen,2_3_1_0_1_3,2021-04-24T18:09:55.642Z,,,,,,,,,,,,,,,,,15,,,,,,,,,,,,,,385.99099998298334,,response,,,,7,E,,,,,,Space,keypress(Space),,,,lyrical,,,,---- --------- ---------- a --- ------- -- --- ------------<br>----- -- -------- ------- ---- ------ - -------- ---- -----<br>--- ------- ---- -- --- -------- --- - ----- ------ ---- --<br>-------- --- -------- -------- --- -------- ---- -- ----- -<br>-------- ---- --- ---------- --------- -- ------- ------ -<br>--------- ----- -----,408201.26000000164,408193.57499998296,407790.91,407788.9449999784,407807.584,408207.76,,3,a
screen,html.Screen,2_3_1_0_1_4,2021-04-24T18:09:56.018Z,,,,,,,,,,,,,,,,,15,,,,,,,,,,,,,,363.0399999867659,,response,,,,7,E,,,,,,Space,keypress(Space),,,,lyrical,,,,---- --------- ---------- - key ------- -- --- ------------<br>----- -- -------- ------- ---- ------ - -------- ---- -----<br>--- ------- ---- -- --- -------- --- - ----- ------ ---- --<br>-------- --- -------- -------- --- -------- ---- -- ----- -<br>-------- ---- --- ---------- --------- -- ------- ------ -<br>--------- ----- -----,408577.1850000019,408570.7999999868,408191.086,408201.5449999599,408207.76,408591.262,,4,key
screen,html.Screen,2_3_1_0_1_5,2021-04-24T18:09:56.343Z,,,,,,,,,,,,,,,,,15,,,,,,,,,,,,,,304.53799999842886,,response,,,,7,E,,,,,,Space,keypress(Space),,,,lyrical,,,,---- --------- ---------- - --- witness -- --- ------------<br>----- -- -------- ------- ---- ------ - -------- ---- -----<br>--- ------- ---- -- --- -------- --- - ----- ------ ---- --<br>-------- --- -------- -------- --- -------- ---- -- ----- -<br>-------- ---- --- ---------- --------- -- ------- ------ -<br>--------- ----- -----,408902.00000000186,408895.7999999984,408574.588,408577.3599999957,408591.262,408908.068,,5,witness
screen,html.Screen,2_3_1_0_1_6,2021-04-24T18:09:56.702Z,,,,,,,,,,,,,,,,,15,,,,,,,,,,,,,,346.5519999632961,,response,,,,7,E,,,,,,Space,keypress(Space),,,,lyrical,,,,---- --------- ---------- - --- ------- by --- ------------<br>----- -- -------- ------- ---- ------ - -------- ---- -----<br>--- ------- ---- -- --- -------- --- - ----- ------ ---- --<br>-------- --- -------- -------- --- -------- ---- -- ----- -<br>-------- ---- --- ---------- --------- -- ------- ------ -<br>--------- ----- -----,409260.56500000414,409254.6199999633,408891.394,408902.18499995535,408908.068,409274.896,,6,by
screen,html.Screen,2_3_1_0_1_7,2021-04-24T18:09:57.106Z,,,,,,,,,,,,,,,,,15,,,,,,,,,,,,,,383.69400000636233,,response,,,,7,E,,,,,,Space,keypress(Space),,,,lyrical,,,,---- --------- ---------- - --- ------- -- the ------------<br>----- -- -------- ------- ---- ------ - -------- ---- -----<br>--- ------- ---- -- --- -------- --- - ----- ------ ---- --<br>-------- --- -------- -------- --- -------- ---- -- ----- -<br>-------- ---- --- ---------- --------- -- ------- ------ -<br>--------- ----- -----,409664.5499999868,409658.59000000637,409258.222,409260.72999997996,409274.896,409675.072,,7,the
screen,html.Screen,2_3_1_0_1_8,2021-04-24T18:09:57.546Z,,,,,,,,,,,,,,,,,15,,,,,,,,,,,,,,424.4430000089924,,response,,,,7,E,,,,,,Space,keypress(Space),,,,lyrical,,,,"---- --------- ---------- - --- ------- -- --- prosecution,<br>----- -- -------- ------- ---- ------ - -------- ---- -----<br>--- ------- ---- -- --- -------- --- - ----- ------ ---- --<br>-------- --- -------- -------- --- -------- ---- -- ----- -<br>-------- ---- --- ---------- --------- -- ------- ------ -<br>--------- ----- -----",410105.27,410099.515000009,409658.398,409664.72000000067,409675.072,410109.692,,8,"prosecution,"
screen,html.Screen,2_3_1_0_1_9,2021-04-24T18:09:58.120Z,,,,,,,,,,,,,,,,,15,,,,,,,,,,,,,,562.7730000105803,,response,,,,7,E,,,,,,Space,keypress(Space),,,,lyrical,,,,---- --------- ---------- - --- ------- -- --- ------------<br>vowed -- -------- ------- ---- ------ - -------- ---- -----<br>--- ------- ---- -- --- -------- --- - ----- ------ ---- --<br>-------- --- -------- -------- --- -------- ---- -- ----- -<br>-------- ---- --- ---------- --------- -- ------- ------ -<br>--------- ----- -----,410678.5449999734,410672.46500001056,410093.018,410105.4399999557,410109.692,410693.282,,9,vowed
screen,html.Screen,2_3_1_0_1_10,2021-04-24T18:09:58.507Z,,,,,,,,,,,,,,,,,15,,,,,,,,,,,,,,365.9179999596672,,response,,,,7,E,,,,,,Space,keypress(Space),,,,lyrical,,,,---- --------- ---------- - --- ------- -- --- ------------<br>----- he -------- ------- ---- ------ - -------- ---- -----<br>--- ------- ---- -- --- -------- --- - ----- ------ ---- --<br>-------- --- -------- -------- --- -------- ---- -- ----- -<br>-------- ---- --- ---------- --------- -- ------- ------ -<br>--------- ----- -----,411065.7399999909,411059.1999999597,410676.608,410678.71999996714,410693.282,411076.784,,10,he
screen,html.Screen,2_3_1_0_1_11,2021-04-24T18:09:58.793Z,,,,,,,,,,,,,,,,,15,,,,,,,,,,,,,,268.8860000097193,,response,,,,7,E,,,,,,Space,keypress(Space),,,,lyrical,,,,---- --------- ---------- - --- ------- -- --- ------------<br>----- -- wouldn't ------- ---- ------ - -------- ---- -----<br>--- ------- ---- -- --- -------- --- - ----- ------ ---- --<br>-------- --- -------- -------- --- -------- ---- -- ----- -<br>-------- ---- --- ---------- --------- -- ------- ------ -<br>--------- ----- -----,411351.4599999762,411345.6700000097,411060.11,411065.9100000048,411076.784,411360.242,,11,wouldn't
screen,html.Screen,2_3_1_0_1_12,2021-04-24T18:09:59.076Z,,,,,,,,,,,,,,,,,15,,,,,,,,,,,,,,268.29800000513205,,response,,,,7,E,,,,,,Space,keypress(Space),,,,lyrical,,,,---- --------- ---------- - --- ------- -- --- ------------<br>----- -- -------- testify ---- ------ - -------- ---- -----<br>--- ------- ---- -- --- -------- --- - ----- ------ ---- --<br>-------- --- -------- -------- --- -------- ---- -- ----- -<br>-------- ---- --- ---------- --------- -- ------- ------ -<br>--------- ----- -----,411634.5250000013,411628.54000000516,411343.568,411351.63499997,411360.242,411643.7,,12,testify
screen,html.Screen,2_3_1_0_1_13,2021-04-24T18:09:59.404Z,,,,,,,,,,,,,,,,,15,,,,,,,,,,,,,,312.9099999938044,,response,,,,7,E,,,,,,Space,keypress(Space),,,,lyrical,,,,---- --------- ---------- - --- ------- -- --- ------------<br>----- -- -------- ------- when ------ - -------- ---- -----<br>--- ------- ---- -- --- -------- --- - ----- ------ ---- --<br>-------- --- -------- -------- --- -------- ---- -- ----- -<br>-------- ---- --- ---------- --------- -- ------- ------ -<br>--------- ----- -----,411962.52000000095,411956.6099999938,411627.026,411634.710000013,411643.7,411977.18,,13,when
screen,html.Screen,2_3_1_0_1_14,2021-04-24T18:09:59.738Z,,,,,,,,,,,,,,,,,15,,,,,,,,,,,,,,313.4299999672803,,response,,,,7,E,,,,,,Space,keypress(Space),,,,lyrical,,,,---- --------- ---------- - --- ------- -- --- ------------<br>----- -- -------- ------- ---- served - -------- ---- -----<br>--- ------- ---- -- --- -------- --- - ----- ------ ---- --<br>-------- --- -------- -------- --- -------- ---- -- ----- -<br>-------- ---- --- ---------- --------- -- ------- ------ -<br>--------- ----- -----,412296.6099999612,412290.6099999673,411960.506,411962.6949999947,411977.18,412310.66,,14,served
screen,html.Screen,2_3_1_0_1_15,2021-04-24T18:10:00.044Z,,,,,,,,,,,,,,,,,15,,,,,,,,,,,,,,285.8799999986659,,response,,,,7,E,,,,,,Space,keypress(Space),,,,lyrical,,,,---- --------- ---------- - --- ------- -- --- ------------<br>----- -- -------- ------- ---- ------ a -------- ---- -----<br>--- ------- ---- -- --- -------- --- - ----- ------ ---- --<br>-------- --- -------- -------- --- -------- ---- -- ----- -<br>-------- ---- --- ---------- --------- -- ------- ------ -<br>--------- ----- -----,412602.5500000105,412596.53999999864,412293.986,412296.7850000132,412310.66,412610.792,,15,a
screen,html.Screen,2_3_1_0_1_16,2021-04-24T18:10:00.372Z,,,,,,,,,,,,,,,,,15,,,,,,,,,,,,,,313.80299998947885,,response,,,,7,E,,,,,,Space,keypress(Space),,,,lyrical,,,,---- --------- ---------- - --- ------- -- --- ------------<br>----- -- -------- ------- ---- ------ - subpoena ---- -----<br>--- ------- ---- -- --- -------- --- - ----- ------ ---- --<br>-------- --- -------- -------- --- -------- ---- -- ----- -<br>-------- ---- --- ---------- --------- -- ------- ------ -<br>--------- ----- -----,412931.19500001194,412924.5949999895,412594.118,412602.71499998635,412610.792,412944.272,,16,subpoena
screen,html.Screen,2_3_1_0_1_17,2021-04-24T18:10:00.759Z,,,,,,,,,,,,,,,,,15,,,,,,,,,,,,,,367.1979999569012,,response,,,,7,E,,,,,,Space,keypress(Space),,,,lyrical,,,,---- --------- ---------- - --- ------- -- --- ------------<br>----- -- -------- ------- ---- ------ - -------- last -----<br>--- ------- ---- -- --- -------- --- - ----- ------ ---- --<br>-------- --- -------- -------- --- -------- ---- -- ----- -<br>-------- ---- --- ---------- --------- -- ------- ------ -<br>--------- ----- -----,413317.51500000246,413311.4699999569,412927.598,412931.3700000057,412944.272,413327.774,,17,last
screen,html.Screen,2_3_1_0_1_18,2021-04-24T18:10:01.209Z,,,,,,,,,,,,,,,,,15,,,,,,,,,,,,,,434.67100000032224,,response,,,,7,E,,,,,,Space,keypress(Space),,,,lyrical,,,,---- --------- ---------- - --- ------- -- --- ------------<br>----- -- -------- ------- ---- ------ - -------- ---- week.<br>--- ------- ---- -- --- -------- --- - ----- ------ ---- --<br>-------- --- -------- -------- --- -------- ---- -- ----- -<br>-------- ---- --- ---------- --------- -- ------- ------ -<br>--------- ----- -----,413768.1599999778,413762.4450000003,413311.1,413317.68499995815,413327.774,413777.972,,18,week.
screen,html.Screen,2_3_1_0_1_19,2021-04-24T18:10:01.629Z,,,,,,,,,,,,,,,,,15,,,,,,,,,,,,,,403.41799998335773,,response,,,,7,E,,,,,,Space,keypress(Space),,,,lyrical,,,,---- --------- ---------- - --- ------- -- --- ------------<br>----- -- -------- ------- ---- ------ - -------- ---- -----<br>His ------- ---- -- --- -------- --- - ----- ------ ---- --<br>-------- --- -------- -------- --- -------- ---- -- ----- -<br>-------- ---- --- ---------- --------- -- ------- ------ -<br>--------- ----- -----,414187.4550000066,414181.38999998337,413761.298,413768.3299999917,413777.972,414194.822,,19,His
screen,html.Screen,2_3_1_0_1_20,2021-04-24T18:10:01.902Z,,,,,,,,,,,,,,,,,15,,,,,,,,,,,,,,260.4429999968852,,response,,,,7,E,,,,,,Space,keypress(Space),,,,lyrical,,,,---- --------- ---------- - --- ------- -- --- ------------<br>----- -- -------- ------- ---- ------ - -------- ---- -----<br>--- lawyers ---- -- --- -------- --- - ----- ------ ---- --<br>-------- --- -------- -------- --- -------- ---- -- ----- -<br>-------- ---- --- ---------- --------- -- ------- ------ -<br>--------- ----- -----,414461.1249999725,414455.26499999687,414178.148,414187.63000000035,414194.822,414478.28,,20,lawyers
screen,html.Screen,2_3_1_0_1_21,2021-04-24T18:10:02.200Z,,,,,,,,,,,,,,,,,15,,,,,,,,,,,,,,275.04499999783,,response,,,,7,E,,,,,,Space,keypress(Space),,,,lyrical,,,,---- --------- ---------- - --- ------- -- --- ------------<br>----- -- -------- ------- ---- ------ - -------- ---- -----<br>--- ------- said -- --- -------- --- - ----- ------ ---- --<br>-------- --- -------- -------- --- -------- ---- -- ----- -<br>-------- ---- --- ---------- --------- -- ------- ------ -<br>--------- ----- -----,414759.23999998486,414753.32499999786,414461.606,414461.2949999864,414478.28,414761.738,,21,said
screen,html.Screen,2_3_1_0_1_22,2021-04-24T18:10:02.472Z,,,,,,,,,,,,,,,,,15,,,,,,,,,,,,,,262.68700001051184,,response,,,,7,E,,,,,,Space,keypress(Space),,,,lyrical,,,,---- --------- ---------- - --- ------- -- --- ------------<br>----- -- -------- ------- ---- ------ - -------- ---- -----<br>--- ------- ---- he --- -------- --- - ----- ------ ---- --<br>-------- --- -------- -------- --- -------- ---- -- ----- -<br>-------- ---- --- ---------- --------- -- ------- ------ -<br>--------- ----- -----,415030.60999995796,415024.4250000105,414745.064,414759.4149999786,414761.738,415045.196,,22,he
screen,html.Screen,2_3_1_0_1_23,2021-04-24T18:10:02.807Z,,,,,,,,,,,,,,,,,15,,,,,,,,,,,,,,314.1939999978058,,response,,,,7,E,,,,,,Space,keypress(Space),,,,lyrical,,,,---- --------- ---------- - --- ------- -- --- ------------<br>----- -- -------- ------- ---- ------ - -------- ---- -----<br>--- ------- ---- -- was -------- --- - ----- ------ ---- --<br>-------- --- -------- -------- --- -------- ---- -- ----- -<br>-------- ---- --- ---------- --------- -- ------- ------ -<br>--------- ----- -----,415365.3199999826,415359.3899999978,415028.522,415030.7899999898,415045.196,415378.676,,23,was
screen,html.Screen,2_3_1_0_1_24,2021-04-24T18:10:03.085Z,,,,,,,,,,,,,,,,,15,,,,,,,,,,,,,,259.6739999647252,,response,,,,7,E,,,,,,Space,keypress(Space),,,,lyrical,,,,---- --------- ---------- - --- ------- -- --- ------------<br>----- -- -------- ------- ---- ------ - -------- ---- -----<br>--- ------- ---- -- --- prepared --- - ----- ------ ---- --<br>-------- --- -------- -------- --- -------- ---- -- ----- -<br>-------- ---- --- ---------- --------- -- ------- ------ -<br>--------- ----- -----,415644.2349999561,415638.3499999647,415362.002,415365.4849999584,415378.676,415645.46,,24,prepared
screen,html.Screen,2_3_1_0_1_25,2021-04-24T18:10:03.628Z,,,,,,,,,,,,,,,,,15,,,,,,,,,,,,,,534.8700000028475,,response,,,,7,E,,,,,,Space,keypress(Space),,,,lyrical,,,,---- --------- ---------- - --- ------- -- --- ------------<br>----- -- -------- ------- ---- ------ - -------- ---- -----<br>--- ------- ---- -- --- -------- for - ----- ------ ---- --<br>-------- --- -------- -------- --- -------- ---- -- ----- -<br>-------- ---- --- ---------- --------- -- ------- ------ -<br>--------- ----- -----,416186.30999996094,416180.33000000287,415628.786,415644.3999999901,415645.46,416195.702,,25,for
screen,html.Screen,2_3_1_0_1_26,2021-04-24T18:10:03.903Z,,,,,,,,,,,,,,,,,15,,,,,,,,,,,,,,260.49799995688954,,response,,,,7,E,,,,,,Space,keypress(Space),,,,lyrical,,,,---- --------- ---------- - --- ------- -- --- ------------<br>----- -- -------- ------- ---- ------ - -------- ---- -----<br>--- ------- ---- -- --- -------- --- a ----- ------ ---- --<br>-------- --- -------- -------- --- -------- ---- -- ----- -<br>-------- ---- --- ---------- --------- -- ------- ------ -<br>--------- ----- -----,416462.1449999977,416456.1999999569,416179.028,416186.87499995576,416195.702,416479.16,,26,a
screen,html.Screen,2_3_1_0_1_27,2021-04-24T18:10:04.146Z,,,,,,,,,,,,,,,,,15,,,,,,,,,,,,,,218.34000000933884,,response,,,,7,E,,,,,,Space,keypress(Space),,,,lyrical,,,,---- --------- ---------- - --- ------- -- --- ------------<br>----- -- -------- ------- ---- ------ - -------- ---- -----<br>--- ------- ---- -- --- -------- --- - third ------ ---- --<br>-------- --- -------- -------- --- -------- ---- -- ----- -<br>-------- ---- --- ---------- --------- -- ------- ------ -<br>--------- ----- -----,416704.46999999695,416697.5000000093,416462.486,416462.39499998046,416479.16,416712.596,,27,third
screen,html.Screen,2_3_1_0_1_28,2021-04-24T18:10:04.445Z,,,,,,,,,,,,,,,,,15,,,,,,,,,,,,,,274.5889999762876,,response,,,,7,E,,,,,,Space,keypress(Space),,,,lyrical,,,,---- --------- ---------- - --- ------- -- --- ------------<br>----- -- -------- ------- ---- ------ - -------- ---- -----<br>--- ------- ---- -- --- -------- --- - ----- prison ---- --<br>-------- --- -------- -------- --- -------- ---- -- ----- -<br>-------- ---- --- ---------- --------- -- ------- ------ -<br>--------- ----- -----,417003.58999997843,416987.1849999763,416695.922,416704.6449999907,416712.596,417012.728,,28,prison
screen,html.Screen,2_3_1_0_1_29,2021-04-24T18:10:04.739Z,,,,,,,,,,,,,,,,,15,,,,,,,,,,,,,,277.3869999815943,,response,,,,7,E,,,,,,Space,keypress(Space),,,,lyrical,,,,---- --------- ---------- - --- ------- -- --- ------------<br>----- -- -------- ------- ---- ------ - -------- ---- -----<br>--- ------- ---- -- --- -------- --- - ----- ------ stay --<br>-------- --- -------- -------- --- -------- ---- -- ----- -<br>-------- ---- --- ---------- --------- -- ------- ------ -<br>--------- ----- -----,417297.2299999674,417290.1149999816,416996.054,417003.77000001026,417012.728,417312.86,,29,stay
screen,html.Screen,2_3_1_0_1_30,2021-04-24T18:10:05.120Z,,,,,,,,,,,,,,,,,15,,,,,,,,,,,,,,359.3399999717949,,response,,,,7,E,,,,,,Space,keypress(Space),,,,lyrical,,,,---- --------- ---------- - --- ------- -- --- ------------<br>----- -- -------- ------- ---- ------ - -------- ---- -----<br>--- ------- ---- -- --- -------- --- - ----- ------ ---- to<br>-------- --- -------- -------- --- -------- ---- -- ----- -<br>-------- ---- --- ---------- --------- -- ------- ------ -<br>--------- ----- -----,417678.55000001146,417672.1999999718,417296.186,417297.3999999813,417312.86,417696.362,,30,to
screen,html.Screen,2_3_1_0_1_31,2021-04-24T18:10:05.429Z,,,,,,,,,,,,,,,,,15,,,,,,,,,,,,,,285.87799998297123,,response,,,,7,E,,,,,,Space,keypress(Space),,,,lyrical,,,,---- --------- ---------- - --- ------- -- --- ------------<br>----- -- -------- ------- ---- ------ - -------- ---- -----<br>--- ------- ---- -- --- -------- --- - ----- ------ ---- --<br>maintain --- -------- -------- --- -------- ---- -- ----- -<br>-------- ---- --- ---------- --------- -- ------- ------ -<br>--------- ----- -----,417988.1349999923,417982.239999983,417679.688,417678.79499995615,417696.362,417996.494,,31,maintain
screen,html.Screen,2_3_1_0_1_32,2021-04-24T18:10:05.723Z,,,,,,,,,,,,,,,,,15,,,,,,,,,,,,,,279.14600000710925,,response,,,,7,E,,,,,,Space,keypress(Space),,,,lyrical,,,,---- --------- ---------- - --- ------- -- --- ------------<br>----- -- -------- ------- ---- ------ - -------- ---- -----<br>--- ------- ---- -- --- -------- --- - ----- ------ ---- --<br>-------- his -------- -------- --- -------- ---- -- ----- -<br>-------- ---- --- ---------- --------- -- ------- ------ -<br>--------- ----- -----,418281.46999998717,418275.6400000071,417979.82,417989.06499997247,417996.494,418296.626,,32,his
screen,html.Screen,2_3_1_0_1_33,2021-04-24T18:10:06.002Z,,,,,,,,,,,,,,,,,15,,,,,,,,,,,,,,257.58900001103757,,response,,,,7,E,,,,,,Space,keypress(Space),,,,lyrical,,,,---- --------- ---------- - --- ------- -- --- ------------<br>----- -- -------- ------- ---- ------ - -------- ---- -----<br>--- ------- ---- -- --- -------- --- - ----- ------ ---- --<br>-------- --- silence. -------- --- -------- ---- -- ----- -<br>-------- ---- --- ---------- --------- -- ------- ------ -<br>--------- ----- -----,418560.364999983,418554.215000011,418279.952,418281.64000000106,418296.626,418563.41,,33,silence.
screen,html.Screen,2_3_1_0_1_34,2021-04-24T18:10:06.306Z,,,,,,,,,,,,,,,,,15,,,,,,,,,,,,,,293.91999996983213,,response,,,,7,E,,,,,,Space,keypress(Space),,,,lyrical,,,,---- --------- ---------- - --- ------- -- --- ------------<br>----- -- -------- ------- ---- ------ - -------- ---- -----<br>--- ------- ---- -- --- -------- --- - ----- ------ ---- --<br>-------- --- -------- Anderson --- -------- ---- -- ----- -<br>-------- ---- --- ---------- --------- -- ------- ------ -<br>--------- ----- -----,418864.43499999586,418857.3299999698,418546.736,418560.5499999947,418563.41,418880.216,,34,Anderson
screen,html.Screen,2_3_1_0_1_35,2021-04-24T18:10:06.684Z,,,,,,,,,,,,,,,,,15,,,,,,,,,,,,,,357.0139999696985,,response,,,,7,E,,,,,,Space,keypress(Space),,,,lyrical,,,,---- --------- ---------- - --- ------- -- --- ------------<br>----- -- -------- ------- ---- ------ - -------- ---- -----<br>--- ------- ---- -- --- -------- --- - ----- ------ ---- --<br>-------- --- -------- -------- was -------- ---- -- ----- -<br>-------- ---- --- ---------- --------- -- ------- ------ -<br>--------- ----- -----,419242.9949999787,419237.2299999697,418863.542,418864.6149999695,418880.216,419247.044,,35,was
screen,html.Screen,2_3_1_0_1_36,2021-04-24T18:10:06.950Z,,,,,,,,,,,,,,,,,15,,,,,,,,,,,,,,256.08099998836406,,response,,,,7,E,,,,,,Space,keypress(Space),,,,lyrical,,,,---- --------- ---------- - --- ------- -- --- ------------<br>----- -- -------- ------- ---- ------ - -------- ---- -----<br>--- ------- ---- -- --- -------- --- - ----- ------ ---- --<br>-------- --- -------- -------- --- released ---- -- ----- -<br>-------- ---- --- ---------- --------- -- ------- ------ -<br>--------- ----- -----,419509.06999997096,419503.12499998836,419230.37,419243.1649999926,419247.044,419513.828,,36,released
screen,html.Screen,2_3_1_0_1_37,2021-04-24T18:10:07.266Z,,,,,,,,,,,,,,,,,15,,,,,,,,,,,,,,304.37199997971766,,response,,,,7,E,,,,,,Space,keypress(Space),,,,lyrical,,,,---- --------- ---------- - --- ------- -- --- ------------<br>----- -- -------- ------- ---- ------ - -------- ---- -----<br>--- ------- ---- -- --- -------- --- - ----- ------ ---- --<br>-------- --- -------- -------- --- -------- July -- ----- -<br>-------- ---- --- ---------- --------- -- ------- ------ -<br>--------- ----- -----,419824.16999997804,419818.1999999797,419497.154,419509.2449999647,419513.828,419830.634,,37,July
screen,html.Screen,2_3_1_0_1_38,2021-04-24T18:10:07.591Z,,,,,,,,,,,,,,,,,15,,,,,,,,,,,,,,312.54599995544413,,response,,,,7,E,,,,,,Space,keypress(Space),,,,lyrical,,,,---- --------- ---------- - --- ------- -- --- ------------<br>----- -- -------- ------- ---- ------ - -------- ---- -----<br>--- ------- ---- -- --- -------- --- - ----- ------ ---- --<br>-------- --- -------- -------- --- -------- ---- 20 ----- -<br>-------- ---- --- ---------- --------- -- ------- ------ -<br>--------- ----- -----,420149.35999998124,420143.17999995546,419813.96,419824.3500000099,419830.634,420160.972,,38,20
