sender,sender_type,sender_id,timestamp,meta,,Blues,Classical,Country,Dance,Electronic,Folk,Gospel,Hip-Hop,Jazz,Latin,Musical/Film,New-age,Pop,Prolific_id,Provo_ID,R&B,Rap,Reggae,Religious,Rock,Soul,Swing,Traditional,age,artist_name,correct,correctResponse,distraction,duration,education,ended_on,familiarity,gender,headphone_check_performance,item,list,music_frequency,offensiveness,pleasantness,position_correct,preference,response,response_action,snippet_file,song_name,song_rating,sound,stimulus_1,stimulus_2,stimulus_3,text,time_commit,time_end,time_render,time_run,time_show,time_switch,url,word,word_ID
Prolific ID,html.Form,0,2021-04-24T17:14:05.893Z,"{""labjs_version"":""20.2.2"",""labjs_build"":{""flavor"":""production"",""commit"":""a25486e0c714a0ae2ce03ff94b7bb6896854dcfa""},""location"":""https://run.pavlovia.org/mvasilev/prolific_music_f/"",""userAgent"":""Mozilla/5.0 (Windows NT 10.0; Win64; x64) AppleWebKit/537.36 (KHTML, like Gecko) Chrome/90.0.4430.85 Safari/537.36"",""platform"":""Win32"",""language"":""en-GB"",""locale"":""en-GB"",""timeZone"":""Europe/London"",""timezoneOffset"":-60,""screen_width"":1366,""screen_height"":768,""scroll_width"":1366,""scroll_height"":577,""window_innerWidth"":1366,""window_innerHeight"":625,""devicePixelRatio"":1}",,,,,,,,,,,,,,,5a6e4286e6cc4a0001b6d281,,,,,,,,,,,,,,,22659.995999951978,,form submission,,,,,,,,,,,,,,,,,,,,,79848.86999998707,79848.31499995198,57171.005,57181.01000005845,57188.319,79854.075,{},,
Introduction,html.Screen,1_0,2021-04-24T17:14:14.508Z,,,,,,,,,,,,,,,,,,,,,,,,,,,,,,,8606.640000052008,,response,,,,,,,,,,,continue,click button,,,,,,,,,88463.86000001803,88460.715000052,79837.494,79849.51500000898,79854.075,88486.892,,,
Volume calibration,html.Screen,1_1,2021-04-24T17:14:30.547Z,,,,,,,,,,,,,,,,,,,,,,,,,,,,,,,16012.617999994181,,response,,,,,,,,,,,continue,click button,,,,,,,,,104503.06000001729,104499.50999999419,88470.211,88464.07500002533,88486.892,104519.525,,,
Task instructions,html.Screen,1_2,2021-04-24T17:14:39.868Z,,,,,,,,,,,,,,,,,,,,,,,,,,,,,,,9303.609999955079,,response,,,,,,,,,,,continue,click button,,,,,,,,,113823.75500001945,113823.13499995507,104502.79,104503.29000002239,104519.525,113852.62,,,
Sounds,html.Screen,1_3_0_0,2021-04-24T17:14:44.134Z,,,,,,,,,,,,,,,,,,,,,,,,,,,,,,,4249.654999999999,,timeout,,,,,,,,,2,,,,,,,,O,S,I,,118089.9399999762,118085.655,113835.695,113824.07500001136,113852.62,118102.275,,,
Judgement,html.Screen,1_3_0_1,2021-04-24T17:14:45.489Z,,,,,,,,,,,,,,,,,,,,,,,,,,,,true,2,,1341.904999991326,,response,,,,,,,,,2,,2,click #choice-2,,,,,O,S,I,,119445.16500004102,119444.17999999132,118085.655,118090.07999999449,118102.275,119452.163,,,
Trial,flow.Sequence,1_3_0,2021-04-24T17:14:45.490Z,,,,,,,,,,,,,,,,,,,,,,,,,,,,,,,5591.559999991325,,completion,,,,,,,,,2,,,,,,,,O,S,I,,119445.58000005782,119444.17999999132,113835.695,113824.02499997988,113852.62,119452.163,,,
Sounds,html.Screen,1_3_1_0,2021-04-24T17:14:49.731Z,,,,,,,,,,,,,,,,,,,,,,,,,,,,,,,4249.709000000003,,timeout,,,,,,,,,2,,,,,,,,I,S,O,,123686.73499999568,123685.294,119435.526,119445.7799999509,119452.163,123701.872,,,
Judgement,html.Screen,1_3_1_1,2021-04-24T17:14:50.429Z,,,,,,,,,,,,,,,,,,,,,,,,,,,,true,2,,681.7179999830842,,response,,,,,,,,,2,,2,click #choice-2,,,,,I,S,O,,124384.45999997202,124383.58999998309,123685.294,123687.09000002127,123701.872,124385.198,,,
Trial,flow.Sequence,1_3_1,2021-04-24T17:14:50.429Z,,,,,,,,,,,,,,,,,,,,,,,,,,,,,,,4931.426999983087,,completion,,,,,,,,,2,,,,,,,,I,S,O,,124384.7400000086,124383.58999998309,119435.526,119445.72499999776,119452.163,124385.198,,,
Sounds,html.Screen,1_3_2_0,2021-04-24T17:14:54.664Z,,,,,,,,,,,,,,,,,,,,,,,,,,,,,,,4249.815000000002,,timeout,,,,,,,,,3,,,,,,,,I,O,S,,128620.25000003632,128618.556,124368.589,124384.93000005838,124385.198,128635.013,,,
Judgement,html.Screen,1_3_2_1,2021-04-24T17:14:55.285Z,,,,,,,,,,,,,,,,,,,,,,,,,,,,true,3,,605.4820000345644,,response,,,,,,,,,3,,3,click #choice-3,,,,,I,O,S,,129241.32499995176,129240.49500003457,128618.556,128620.5749999499,128635.013,129251.729,,,
Trial,flow.Sequence,1_3_2,2021-04-24T17:14:55.286Z,,,,,,,,,,,,,,,,,,,,,,,,,,,,,,,4855.297000034567,,completion,,,,,,,,,3,,,,,,,,I,O,S,,129241.58499995247,129240.49500003457,124368.589,124384.87499998882,124385.198,129251.729,,,
Sounds,html.Screen,1_3_3_0,2021-04-24T17:14:59.530Z,,,,,,,,,,,,,,,,,,,,,,,,,,,,,,,4249.784,,timeout,,,,,,,,,1,,,,,,,,S,I,O,,133486.23000003863,133484.84,129243.021,129241.78000004031,129251.729,133501.513,,,
Judgement,html.Screen,1_3_3_1,2021-04-24T17:15:00.232Z,,,,,,,,,,,,,,,,,,,,,,,,,,,,true,1,,685.5119999919843,,response,,,,,,,,,1,,1,click #choice-1,,,,,S,I,O,,134187.7450000029,134187.024999992,133484.84,133486.50500003714,133501.513,134218.156,,,
Trial,flow.Sequence,1_3_3,2021-04-24T17:15:00.232Z,,,,,,,,,,,,,,,,,,,,,,,,,,,,,,,4935.295999991984,,completion,,,,,,,,,1,,,,,,,,S,I,O,,134187.99999996554,134187.024999992,129243.021,129241.7200000491,129251.729,134218.156,,,
Sounds,html.Screen,1_3_4_0,2021-04-24T17:15:04.497Z,,,,,,,,,,,,,,,,,,,,,,,,,,,,,,,4249.755000000005,,timeout,,,,,,,,,1,,,,,,,,S,O,I,,138452.87000003736,138451.325,134201.425,134188.16500005778,134218.156,138467.911,,,
Judgement,html.Screen,1_3_4_1,2021-04-24T17:15:05.224Z,,,,,,,,,,,,,,,,,,,,,,,,,,,,true,1,,710.5240000089107,,response,,,,,,,,,1,,1,click #choice-1,,,,,S,O,I,,139179.3250000337,139178.4350000089,138451.325,138453.19000002928,138467.911,139201.265,,,
Trial,flow.Sequence,1_3_4,2021-04-24T17:15:05.224Z,,,,,,,,,,,,,,,,,,,,,,,,,,,,,,,4960.279000008915,,completion,,,,,,,,,1,,,,,,,,S,O,I,,139179.55999996047,139178.4350000089,134201.425,134188.11999994796,134218.156,139201.265,,,
Sounds,html.Screen,1_3_5_0,2021-04-24T17:15:09.481Z,,,,,,,,,,,,,,,,,,,,,,,,,,,,,,,4249.915999999997,,timeout,,,,,,,,,3,,,,,,,,O,I,S,,143436.42000004184,143434.64,139184.525,139179.7250000527,139201.265,143451.181,,,
Judgement,html.Screen,1_3_5_1,2021-04-24T17:15:10.199Z,,,,,,,,,,,,,,,,,,,,,,,,,,,,true,3,,702.2839999812131,,response,,,,,,,,,3,,3,click #choice-3,,,,,O,I,S,,144154.30499997456,144153.46499998122,143434.64,143436.74999999348,143451.181,144167.626,,,
Trial,flow.Sequence,1_3_5,2021-04-24T17:15:10.199Z,,,,,,,,,,,,,,,,,,,,,,,,,,,,,,,4952.199999981211,,completion,,,,,,,,,3,,,,,,,,O,I,S,,144154.5600000536,144153.46499998122,139184.525,139179.6800000593,139201.265,144167.626,,,
Task,flow.Loop,1_3,2021-04-24T17:15:10.204Z,,,,,,,,,,,,,,,,,,,,,,,,,,,,,,,30300.84499998123,,completion,,,1,,,,,,,,,,,,,,,,,,144160.0000000326,144153.46499998122,113835.695,113823.97000002675,113852.62,144167.626,,,
Trap,html.Screen,1_4,2021-04-24T17:15:10.207Z,,,,,,,,,,,,,,,,,,,,,,,,,,,,,,,NaN,,skipped,,,,,,,,,,,,,,,,,,,,,144162.80000004917,144153.46499998122,,144162.639999995,,144167.626,,,
Thanks,html.Screen,1_5,2021-04-24T17:15:13.643Z,,,,,,,,,,,,,,,,,,,,,,,,,,,,,,,3430.564000047918,,response,,,,,,,,,,,continue,click button,,,,,,,,,147599.00000004563,147598.1900000479,144151.004,144162.93999995105,144167.626,149850.657,,,
Headphone screening,flow.Sequence,1,2021-04-24T17:15:13.643Z,,,,,,,,,,,,,,,,,,,,,,,,,,,,,,,67744.11500004791,,completion,,,,,,,,,,,,,,,,,,,,,147599.23000005074,147598.1900000479,79837.494,79849.49000005145,79854.075,149850.657,,,
Instructions,html.Page,2_0,2021-04-24T17:15:38.997Z,,,,,,,,,,,,,,,,,,,,,,,,,,,,,,,23101.47800002864,,form submission,,,,,,,,,,,,,,,,,,,,,172952.4499999825,172952.13500002865,149834.133,149851.00499994587,149850.657,172982.994,,,
Holding screen,html.Screen,2_1_0_0,2021-04-24T17:15:49.012Z,,,,,,,,,,,,,,,,,,,,,,,,,,,,,,,9999.5,,timeout,,,,,,,,,,,,,,,,,,,,,182967.53999998327,182965.859,172966.346,172952.72000005934,172982.994,182982.494,,,
screen,html.Screen,2_1_0_1_0,2021-04-24T17:15:50.133Z,,,,,,,,,,,,,,,,,53,,,,,,,,,,,,,,1105.0660000144853,,response,,,,99,,,,,,,Space,keypress(Space),,,,,,,,When -- ----- -- ------ - ------- --- ----------<br>------------- ------ ------ ---- ---- ------- ----- -- ----<br>-------- ------- -- ---------- --- - --- ----- ----- ----<br>---- --- --- ----- --- ---- ---- ------- ----- ---- -------<br>--- --- -- ----- -- --- ---- -- --- ---- -- ------ ------<br>--- ----- -- ----,184089.20000004582,184087.5600000145,182965.859,182967.65000000596,182982.494,184099.059,,0,When
screen,html.Screen,2_1_0_1_1,2021-04-24T17:15:50.625Z,,,,,,,,,,,,,,,,,53,,,,,,,,,,,,,,481.03599998296704,,response,,,,99,,,,,,,Space,keypress(Space),,,,,,,,---- it ----- -- ------ - ------- --- ----------<br>------------- ------ ------ ---- ---- ------- ----- -- ----<br>-------- ------- -- ---------- --- - --- ----- ----- ----<br>---- --- --- ----- --- ---- ---- ------- ----- ---- -------<br>--- --- -- ----- -- --- ---- -- --- ---- -- ------ ------<br>--- ----- -- ----,184581.1349999858,184580.09499998298,184082.587,184089.33500002604,184099.059,184607.828,,1,it
screen,html.Screen,2_1_0_1_2,2021-04-24T17:15:51.230Z,,,,,,,,,,,,,,,,,53,,,,,,,,,,,,,,577.0920000287879,,response,,,,99,,,,,,,Space,keypress(Space),,,,,,,,---- -- comes -- ------ - ------- --- ----------<br>------------- ------ ------ ---- ---- ------- ----- -- ----<br>-------- ------- -- ---------- --- - --- ----- ----- ----<br>---- --- --- ----- --- ---- ---- ------- ----- ---- -------<br>--- --- -- ----- -- --- ---- -- --- ---- -- ------ ------<br>--- ----- -- ----,185185.3200000478,185184.9200000288,184565.674,184581.445000018,184607.828,185199.003,,2,comes
screen,html.Screen,2_1_0_1_3,2021-04-24T17:15:51.667Z,,,,,,,,,,,,,,,,,53,,,,,,,,,,,,,,423.1469999519468,,response,,,,99,,,,,,,Space,keypress(Space),,,,,,,,---- -- ----- to ------ - ------- --- ----------<br>------------- ------ ------ ---- ---- ------- ----- -- ----<br>-------- ------- -- ---------- --- - --- ----- ----- ----<br>---- --- --- ----- --- ---- ---- ------- ----- ---- -------<br>--- --- -- ----- -- --- ---- -- --- ---- -- ------ ------<br>--- ----- -- ----,185623.24500002433,185622.14999995194,185182.374,185185.41999999434,185199.003,185632.489,,3,to
screen,html.Screen,2_1_0_1_4,2021-04-24T17:15:52.066Z,,,,,,,,,,,,,,,,,53,,,,,,,,,,,,,,388.1609999621869,,response,,,,99,,,,,,,Space,keypress(Space),,,,,,,,---- -- ----- -- having - ------- --- ----------<br>------------- ------ ------ ---- ---- ------- ----- -- ----<br>-------- ------- -- ---------- --- - --- ----- ----- ----<br>---- --- --- ----- --- ---- ---- ------- ----- ---- -------<br>--- --- -- ----- -- --- ---- -- --- ---- -- ------ ------<br>--- ----- -- ----,186021.68500004336,186020.6499999622,185615.617,185623.55000001844,185632.489,186032.549,,4,having
screen,html.Screen,2_1_0_1_5,2021-04-24T17:15:52.631Z,,,,,,,,,,,,,,,,,53,,,,,,,,,,,,,,553.6560000578174,,response,,,,99,,,,,,,Space,keypress(Space),,,,,,,,---- -- ----- -- ------ a ------- --- ----------<br>------------- ------ ------ ---- ---- ------- ----- -- ----<br>-------- ------- -- ---------- --- - --- ----- ----- ----<br>---- --- --- ----- --- ---- ---- ------- ----- ---- -------<br>--- --- -- ----- -- --- ---- -- --- ---- -- ------ ------<br>--- ----- -- ----,186587.19999995083,186586.20500005782,186015.771,186021.99499995913,186032.549,186599.197,,5,a
screen,html.Screen,2_1_0_1_6,2021-04-24T17:15:53.011Z,,,,,,,,,,,,,,,,,53,,,,,,,,,,,,,,366.5330000544782,,response,,,,99,,,,,,,Space,keypress(Space),,,,,,,,---- -- ----- -- ------ - lasting --- ----------<br>------------- ------ ------ ---- ---- ------- ----- -- ----<br>-------- ------- -- ---------- --- - --- ----- ----- ----<br>---- --- --- ----- --- ---- ---- ------- ----- ---- -------<br>--- --- -- ----- -- --- ---- -- --- ---- -- ------ ------<br>--- ----- -- ----,186966.81999997236,186965.73000005446,186582.398,186587.509999983,186599.197,186982.526,,6,lasting
screen,html.Screen,2_1_0_1_7,2021-04-24T17:15:53.343Z,,,,,,,,,,,,,,,,,53,,,,,,,,,,,,,,315.02900005556876,,response,,,,99,,,,,,,Space,keypress(Space),,,,,,,,---- -- ----- -- ------ - ------- and ----------<br>------------- ------ ------ ---- ---- ------- ----- -- ----<br>-------- ------- -- ---------- --- - --- ----- ----- ----<br>---- --- --- ----- --- ---- ---- ------- ----- ---- -------<br>--- --- -- ----- -- --- ---- -- --- ---- -- ------ ------<br>--- ----- -- ----,187298.61000005621,187297.55500005558,186965.687,186967.13500004262,186982.526,187315.827,,7,and
screen,html.Screen,2_1_0_1_8,2021-04-24T17:15:53.713Z,,,,,,,,,,,,,,,,,53,,,,,,,,,,,,,,351.5529999989667,,response,,,,99,,,,,,,Space,keypress(Space),,,,,,,,---- -- ----- -- ------ - ------- --- fulfilling<br>------------- ------ ------ ---- ---- ------- ----- -- ----<br>-------- ------- -- ---------- --- - --- ----- ----- ----<br>---- --- --- ----- --- ---- ---- ------- ----- ---- -------<br>--- --- -- ----- -- --- ---- -- --- ---- -- ------ ------<br>--- ----- -- ----,187668.3549999725,187667.37999999896,187299.011,187298.919999972,187315.827,187682.533,,8,fulfilling
screen,html.Screen,2_1_0_1_9,2021-04-24T17:15:54.223Z,,,,,,,,,,,,,,,,,53,,,,,,,,,,,,,,494.9369999950868,,response,,,,99,,,,,,,Space,keypress(Space),,,,,,,,"---- -- ----- -- ------ - ------- --- ----------<br>relationship, ------ ------ ---- ---- ------- ----- -- ----<br>-------- ------- -- ---------- --- - --- ----- ----- ----<br>---- --- --- ----- --- ---- ---- ------- ----- ---- -------<br>--- --- -- ----- -- --- ---- -- --- ---- -- ------ ------<br>--- ----- -- ----",188178.4650000045,188177.46999999508,187665.708,187668.6650000047,187682.533,188182.299,,9,"relationship,"
screen,html.Screen,2_1_0_1_10,2021-04-24T17:15:54.671Z,,,,,,,,,,,,,,,,,53,,,,,,,,,,,,,,443.12100005487446,,response,,,,99,,,,,,,Space,keypress(Space),,,,,,,,---- -- ----- -- ------ - ------- --- ----------<br>------------- common ------ ---- ---- ------- ----- -- ----<br>-------- ------- -- ---------- --- - --- ----- ----- ----<br>---- --- --- ----- --- ---- ---- ------- ----- ---- -------<br>--- --- -- ----- -- --- ---- -- --- ---- -- ------ ------<br>--- ----- -- ----,188626.39500002842,188625.42000005487,188165.613,188178.77999995835,188182.299,188632.429,,10,common
screen,html.Screen,2_1_0_1_11,2021-04-24T17:15:55.217Z,,,,,,,,,,,,,,,,,53,,,,,,,,,,,,,,539.3410000153817,,response,,,,99,,,,,,,Space,keypress(Space),,,,,,,,---- -- ----- -- ------ - ------- --- ----------<br>------------- ------ wisdom ---- ---- ------- ----- -- ----<br>-------- ------- -- ---------- --- - --- ----- ----- ----<br>---- --- --- ----- --- ---- ---- ------- ----- ---- -------<br>--- --- -- ----- -- --- ---- -- --- ---- -- ------ ------<br>--- ----- -- ----,189172.7650000248,189171.7700000154,188615.641,188626.70999998227,188632.429,189182.421,,11,wisdom
screen,html.Screen,2_1_0_1_12,2021-04-24T17:15:55.571Z,,,,,,,,,,,,,,,,,53,,,,,,,,,,,,,,343.1039999463537,,response,,,,99,,,,,,,Space,keypress(Space),,,,,,,,---- -- ----- -- ------ - ------- --- ----------<br>------------- ------ ------ says ---- ------- ----- -- ----<br>-------- ------- -- ---------- --- - --- ----- ----- ----<br>---- --- --- ----- --- ---- ---- ------- ----- ---- -------<br>--- --- -- ----- -- --- ---- -- --- ---- -- ------ ------<br>--- ----- -- ----,189526.55499998946,189525.52499994636,189165.56,189173.07999997865,189182.421,189532.298,,12,says
screen,html.Screen,2_1_0_1_13,2021-04-24T17:15:55.939Z,,,,,,,,,,,,,,,,,53,,,,,,,,,,,,,,361.5319999572239,,response,,,,99,,,,,,,Space,keypress(Space),,,,,,,,---- -- ----- -- ------ - ------- --- ----------<br>------------- ------ ------ ---- that ------- ----- -- ----<br>-------- ------- -- ---------- --- - --- ----- ----- ----<br>---- --- --- ----- --- ---- ---- ------- ----- ---- -------<br>--- --- -- ----- -- --- ---- -- --- ---- -- ------ ------<br>--- ----- -- ----,189894.28999996744,189893.82999995723,189515.676,189526.87499998137,189532.298,189898.988,,13,that
screen,html.Screen,2_1_0_1_14,2021-04-24T17:15:56.306Z,,,,,,,,,,,,,,,,,53,,,,,,,,,,,,,,362.2220000260277,,response,,,,99,,,,,,,Space,keypress(Space),,,,,,,,---- -- ----- -- ------ - ------- --- ----------<br>------------- ------ ------ ---- ---- feeling ----- -- ----<br>-------- ------- -- ---------- --- - --- ----- ----- ----<br>---- --- --- ----- --- ---- ---- ------- ----- ---- -------<br>--- --- -- ----- -- --- ---- -- --- ---- -- ------ ------<br>--- ----- -- ----,190262.19000003766,190261.21000002604,189882.214,189894.38499999233,189898.988,190265.525,,14,feeling
screen,html.Screen,2_1_0_1_15,2021-04-24T17:15:56.594Z,,,,,,,,,,,,,,,,,53,,,,,,,,,,,,,,283.0299999866693,,response,,,,99,,,,,,,Space,keypress(Space),,,,,,,,---- -- ----- -- ------ - ------- --- ----------<br>------------- ------ ------ ---- ---- ------- close -- ----<br>-------- ------- -- ---------- --- - --- ----- ----- ----<br>---- --- --- ----- --- ---- ---- ------- ----- ---- -------<br>--- --- -- ----- -- --- ---- -- --- ---- -- ------ ------<br>--- ----- -- ----,190549.61999994703,190548.55499998666,190248.913,190262.51000002958,190265.525,190565.582,,15,close
screen,html.Screen,2_1_0_1_16,2021-04-24T17:15:56.959Z,,,,,,,,,,,,,,,,,53,,,,,,,,,,,,,,348.5780000439263,,response,,,,99,,,,,,,Space,keypress(Space),,,,,,,,---- -- ----- -- ------ - ------- --- ----------<br>------------- ------ ------ ---- ---- ------- ----- to ----<br>-------- ------- -- ---------- --- - --- ----- ----- ----<br>---- --- --- ----- --- ---- ---- ------- ----- ---- -------<br>--- --- -- ----- -- --- ---- -- --- ---- -- ------ ------<br>--- ----- -- ----,190914.78500002995,190914.16000004392,190548.848,190549.94499997701,190565.582,190946.039,,16,to
screen,html.Screen,2_1_0_1_17,2021-04-24T17:15:57.287Z,,,,,,,,,,,,,,,,,53,,,,,,,,,,,,,,296.15600005711894,,response,,,,99,,,,,,,Space,keypress(Space),,,,,,,,---- -- ----- -- ------ - ------- --- ----------<br>------------- ------ ------ ---- ---- ------- ----- -- your<br>-------- ------- -- ---------- --- - --- ----- ----- ----<br>---- --- --- ----- --- ---- ---- ------- ----- ---- -------<br>--- --- -- ----- -- --- ---- -- --- ---- -- ------ ------<br>--- ----- -- ----,191243.2249999838,191242.1950000571,190898.882,190914.8849999765,190946.039,191248.808,,17,your
screen,html.Screen,2_1_0_1_18,2021-04-24T17:15:57.713Z,,,,,,,,,,,,,,,,,53,,,,,,,,,,,,,,419.5919999659236,,response,,,,99,,,,,,,Space,keypress(Space),,,,,,,,---- -- ----- -- ------ - ------- --- ----------<br>------------- ------ ------ ---- ---- ------- ----- -- ----<br>romantic ------- -- ---------- --- - --- ----- ----- ----<br>---- --- --- ----- --- ---- ---- ------- ----- ---- -------<br>--- --- -- ----- -- --- ---- -- --- ---- -- ------ ------<br>--- ----- -- ----,191668.91999996733,191668.3999999659,191232.143,191243.54000005405,191248.808,191682.052,,18,romantic
screen,html.Screen,2_1_0_1_19,2021-04-24T17:15:58.050Z,,,,,,,,,,,,,,,,,53,,,,,,,,,,,,,,322.9330000068585,,response,,,,99,,,,,,,Space,keypress(Space),,,,,,,,---- -- ----- -- ------ - ------- --- ----------<br>------------- ------ ------ ---- ---- ------- ----- -- ----<br>-------- partner -- ---------- --- - --- ----- ----- ----<br>---- --- --- ----- --- ---- ---- ------- ----- ---- -------<br>--- --- -- ----- -- --- ---- -- --- ---- -- ------ ------<br>--- ----- -- ----,192006.01500004996,192004.98500000685,191665.504,191668.99499995634,191682.052,192015.452,,19,partner
screen,html.Screen,2_1_0_1_20,2021-04-24T17:15:58.408Z,,,,,,,,,,,,,,,,,53,,,,,,,,,,,,,,347.07800004218007,,response,,,,99,,,,,,,Space,keypress(Space),,,,,,,,---- -- ----- -- ------ - ------- --- ----------<br>------------- ------ ------ ---- ---- ------- ----- -- ----<br>-------- ------- is ---------- --- - --- ----- ----- ----<br>---- --- --- ----- --- ---- ---- ------- ----- ---- -------<br>--- --- -- ----- -- --- ---- -- --- ---- -- ------ ------<br>--- ----- -- ----,192363.55000000913,192362.53000004217,191998.683,192006.49499997962,192015.452,192390.847,,20,is
screen,html.Screen,2_1_0_1_21,2021-04-24T17:15:58.730Z,,,,,,,,,,,,,,,,,53,,,,,,,,,,,,,,294.1429999797256,,response,,,,99,,,,,,,Space,keypress(Space),,,,,,,,---- -- ----- -- ------ - ------- --- ----------<br>------------- ------ ------ ---- ---- ------- ----- -- ----<br>-------- ------- -- paramount. --- - --- ----- ----- ----<br>---- --- --- ----- --- ---- ---- ------- ----- ---- -------<br>--- --- -- ----- -- --- ---- -- --- ---- -- ------ ------<br>--- ----- -- ----,192685.94500003383,192684.98999997973,192348.805,192363.85500000324,192390.847,192698.917,,21,paramount.
screen,html.Screen,2_1_0_1_22,2021-04-24T17:15:59.428Z,,,,,,,,,,,,,,,,,53,,,,,,,,,,,,,,683.9079999787791,,response,,,,99,,,,,,,Space,keypress(Space),,,,,,,,---- -- ----- -- ------ - ------- --- ----------<br>------------- ------ ------ ---- ---- ------- ----- -- ----<br>-------- ------- -- ---------- But - --- ----- ----- ----<br>---- --- --- ----- --- ---- ---- ------- ----- ---- -------<br>--- --- -- ----- -- --- ---- -- --- ---- -- ------ ------<br>--- ----- -- ----,193383.84000002407,193382.82499997877,192682.086,192686.26500002574,192698.917,193398.823,,22,But
screen,html.Screen,2_1_0_1_23,2021-04-24T17:15:59.766Z,,,,,,,,,,,,,,,,,53,,,,,,,,,,,,,,322.3020000400429,,response,,,,99,,,,,,,Space,keypress(Space),,,,,,,,---- -- ----- -- ------ - ------- --- ----------<br>------------- ------ ------ ---- ---- ------- ----- -- ----<br>-------- ------- -- ---------- --- a --- ----- ----- ----<br>---- --- --- ----- --- ---- ---- ------- ----- ---- -------<br>--- --- -- ----- -- --- ---- -- --- ---- -- ------ ------<br>--- ----- -- ----,193722.1300000092,193721.12500004005,193382.045,193384.16000001598,193398.823,193732.126,,23,a
screen,html.Screen,2_1_0_1_24,2021-04-24T17:16:00.067Z,,,,,,,,,,,,,,,,,53,,,,,,,,,,,,,,290.71900002862094,,response,,,,99,,,,,,,Space,keypress(Space),,,,,,,,---- -- ----- -- ------ - ------- --- ----------<br>------------- ------ ------ ---- ---- ------- ----- -- ----<br>-------- ------- -- ---------- --- - new ----- ----- ----<br>---- --- --- ----- --- ---- ---- ------- ----- ---- -------<br>--- --- -- ----- -- --- ---- -- --- ---- -- ------ ------<br>--- ----- -- ----,194023.32499995828,194022.8450000286,193715.343,193722.45000000112,193732.126,194032.139,,24,new
screen,html.Screen,2_1_0_1_25,2021-04-24T17:16:00.394Z,,,,,,,,,,,,,,,,,53,,,,,,,,,,,,,,317.1610000016808,,response,,,,99,,,,,,,Space,keypress(Space),,,,,,,,---- -- ----- -- ------ - ------- --- ----------<br>------------- ------ ------ ---- ---- ------- ----- -- ----<br>-------- ------- -- ---------- --- - --- study ----- ----<br>---- --- --- ----- --- ---- ---- ------- ----- ---- -------<br>--- --- -- ----- -- --- ---- -- --- ---- -- ------ ------<br>--- ----- -- ----,194350.3400000045,194349.30000000168,194015.405,194023.42500002123,194032.139,194365.436,,25,study
screen,html.Screen,2_1_0_1_26,2021-04-24T17:16:01.039Z,,,,,,,,,,,,,,,,,53,,,,,,,,,,,,,,629.2889999968465,,response,,,,99,,,,,,,Space,keypress(Space),,,,,,,,---- -- ----- -- ------ - ------- --- ----------<br>------------- ------ ------ ---- ---- ------- ----- -- ----<br>-------- ------- -- ---------- --- - --- ----- finds ----<br>---- --- --- ----- --- ---- ---- ------- ----- ---- -------<br>--- --- -- ----- -- --- ---- -- --- ---- -- ------ ------<br>--- ----- -- ----,194995.1900000451,194994.72499999683,194348.706,194350.6500000367,194365.436,194998.724,,26,finds
screen,html.Screen,2_1_0_1_27,2021-04-24T17:16:01.349Z,,,,,,,,,,,,,,,,,53,,,,,,,,,,,,,,305.47600001323735,,response,,,,99,,,,,,,Space,keypress(Space),,,,,,,,---- -- ----- -- ------ - ------- --- ----------<br>------------- ------ ------ ---- ---- ------- ----- -- ----<br>-------- ------- -- ---------- --- - --- ----- ----- that<br>---- --- --- ----- --- ---- ---- ------- ----- ---- -------<br>--- --- -- ----- -- --- ---- -- --- ---- -- ------ ------<br>--- ----- -- ----,195305.26000005193,195304.20000001322,194982.018,194995.28999999166,194998.724,195315.374,,27,that
screen,html.Screen,2_1_0_1_28,2021-04-24T17:16:01.900Z,,,,,,,,,,,,,,,,,53,,,,,,,,,,,,,,539.1560000114259,,response,,,,99,,,,,,,Space,keypress(Space),,,,,,,,---- -- ----- -- ------ - ------- --- ----------<br>------------- ------ ------ ---- ---- ------- ----- -- ----<br>-------- ------- -- ---------- --- - --- ----- ----- ----<br>it's --- --- ----- --- ---- ---- ------- ----- ---- -------<br>--- --- -- ----- -- --- ---- -- --- ---- -- ------ ------<br>--- ----- -- ----,195855.58500001207,195854.53000001144,195298.685,195305.58000004385,195315.374,195865.429,,28,it's
screen,html.Screen,2_1_0_1_29,2021-04-24T17:16:02.177Z,,,,,,,,,,,,,,,,,53,,,,,,,,,,,,,,266.06599997961894,,response,,,,99,,,,,,,Space,keypress(Space),,,,,,,,---- -- ----- -- ------ - ------- --- ----------<br>------------- ------ ------ ---- ---- ------- ----- -- ----<br>-------- ------- -- ---------- --- - --- ----- ----- ----<br>---- not --- ----- --- ---- ---- ------- ----- ---- -------<br>--- --- -- ----- -- --- ---- -- --- ---- -- ------ ------<br>--- ----- -- ----,196132.56499997806,196131.49499997962,195848.626,195855.91000004206,195865.429,196148.759,,29,not
screen,html.Screen,2_1_0_1_30,2021-04-24T17:16:02.482Z,,,,,,,,,,,,,,,,,53,,,,,,,,,,,,,,288.47100003957166,,response,,,,99,,,,,,,Space,keypress(Space),,,,,,,,---- -- ----- -- ------ - ------- --- ----------<br>------------- ------ ------ ---- ---- ------- ----- -- ----<br>-------- ------- -- ---------- --- - --- ----- ----- ----<br>---- --- how ----- --- ---- ---- ------- ----- ---- -------<br>--- --- -- ----- -- --- ---- -- --- ---- -- ------ ------<br>--- ----- -- ----,196438.225000049,196437.23000003956,196131.955,196132.88000004832,196148.759,196448.665,,30,how
screen,html.Screen,2_1_0_1_31,2021-04-24T17:16:02.752Z,,,,,,,,,,,,,,,,,53,,,,,,,,,,,,,,258.60500001351465,,response,,,,99,,,,,,,Space,keypress(Space),,,,,,,,---- -- ----- -- ------ - ------- --- ----------<br>------------- ------ ------ ---- ---- ------- ----- -- ----<br>-------- ------- -- ---------- --- - --- ----- ----- ----<br>---- --- --- close --- ---- ---- ------- ----- ---- -------<br>--- --- -- ----- -- --- ---- -- --- ---- -- ------ ------<br>--- ----- -- ----,196708.37000000756,196707.27000001352,196431.956,196438.5600000387,196448.665,196715.199,,31,close
screen,html.Screen,2_1_0_1_32,2021-04-24T17:16:03.141Z,,,,,,,,,,,,,,,,,53,,,,,,,,,,,,,,380.5209999829822,,response,,,,99,,,,,,,Space,keypress(Space),,,,,,,,---- -- ----- -- ------ - ------- --- ----------<br>------------- ------ ------ ---- ---- ------- ----- -- ----<br>-------- ------- -- ---------- --- - --- ----- ----- ----<br>---- --- --- ----- you ---- ---- ------- ----- ---- -------<br>--- --- -- ----- -- --- ---- -- --- ---- -- ------ ------<br>--- ----- -- ----,197096.6100000078,197095.71999998298,196698.753,196708.68000003975,196715.199,197115.3,,32,you
screen,html.Screen,2_1_0_1_33,2021-04-24T17:16:03.494Z,,,,,,,,,,,,,,,,,53,,,,,,,,,,,,,,333.2900000436348,,response,,,,99,,,,,,,Space,keypress(Space),,,,,,,,---- -- ----- -- ------ - ------- --- ----------<br>------------- ------ ------ ---- ---- ------- ----- -- ----<br>-------- ------- -- ---------- --- - --- ----- ----- ----<br>---- --- --- ----- --- feel ---- ------- ----- ---- -------<br>--- --- -- ----- -- --- ---- -- --- ---- -- ------ ------<br>--- ----- -- ----,197449.64500004426,197448.59000004362,197098.587,197098.60000002664,197115.3,197465.42,,33,feel
screen,html.Screen,2_1_0_1_34,2021-04-24T17:16:03.768Z,,,,,,,,,,,,,,,,,53,,,,,,,,,,,,,,257.7950000054261,,response,,,,99,,,,,,,Space,keypress(Space),,,,,,,,---- -- ----- -- ------ - ------- --- ----------<br>------------- ------ ------ ---- ---- ------- ----- -- ----<br>-------- ------- -- ---------- --- - --- ----- ----- ----<br>---- --- --- ----- --- ---- that ------- ----- ---- -------<br>--- --- -- ----- -- --- ---- -- --- ---- -- ------ ------<br>--- ----- -- ----,197724.19500001706,197723.21500000544,197448.569,197452.79999997,197465.42,197731.992,,34,that
screen,html.Screen,2_1_0_1_35,2021-04-24T17:16:04.110Z,,,,,,,,,,,,,,,,,53,,,,,,,,,,,,,,332.25800005401834,,response,,,,99,,,,,,,Space,keypress(Space),,,,,,,,---- -- ----- -- ------ - ------- --- ----------<br>------------- ------ ------ ---- ---- ------- ----- -- ----<br>-------- ------- -- ---------- --- - --- ----- ----- ----<br>---- --- --- ----- --- ---- ---- matters ----- ---- -------<br>--- --- -- ----- -- --- ---- -- --- ---- -- ------ ------<br>--- ----- -- ----,198065.4499999946,198064.25000005402,197715.298,197724.50500004925,197731.992,198082.012,,35,matters
screen,html.Screen,2_1_0_1_36,2021-04-24T17:16:04.468Z,,,,,,,,,,,,,,,,,53,,,,,,,,,,,,,,341.40800000645686,,response,,,,99,,,,,,,Space,keypress(Space),,,,,,,,"---- -- ----- -- ------ - ------- --- ----------<br>------------- ------ ------ ---- ---- ------- ----- -- ----<br>-------- ------- -- ---------- --- - --- ----- ----- ----<br>---- --- --- ----- --- ---- ---- ------- most, ---- -------<br>--- --- -- ----- -- --- ---- -- --- ---- -- ------ ------<br>--- ----- -- ----",198423.90499997418,198423.42000000644,198065.242,198067.58000003174,198082.012,198431.905,,36,"most,"
screen,html.Screen,2_1_0_1_37,2021-04-24T17:16:04.777Z,,,,,,,,,,,,,,,,,53,,,,,,,,,,,,,,299.97499997753766,,response,,,,99,,,,,,,Space,keypress(Space),,,,,,,,---- -- ----- -- ------ - ------- --- ----------<br>------------- ------ ------ ---- ---- ------- ----- -- ----<br>-------- ------- -- ---------- --- - --- ----- ----- ----<br>---- --- --- ----- --- ---- ---- ------- ----- it's -------<br>--- --- -- ----- -- --- ---- -- --- ---- -- ------ ------<br>--- ----- -- ----,198732.9150000587,198731.87999997754,198415.25,198424.0249999566,198431.905,198748.631,,37,it's
screen,html.Screen,2_1_0_1_38,2021-04-24T17:16:05.089Z,,,,,,,,,,,,,,,,,53,,,,,,,,,,,,,,294.6990000149817,,response,,,,99,,,,,,,Space,keypress(Space),,,,,,,,---- -- ----- -- ------ - ------- --- ----------<br>------------- ------ ------ ---- ---- ------- ----- -- ----<br>-------- ------- -- ---------- --- - --- ----- ----- ----<br>---- --- --- ----- --- ---- ---- ------- ----- ---- whether<br>--- --- -- ----- -- --- ---- -- --- ---- -- ------ ------<br>--- ----- -- ----,199044.48499996215,199043.33000001498,198731.854,198733.21500001475,198748.631,199048.505,,38,whether
screen,html.Screen,2_1_0_1_39,2021-04-24T17:16:05.438Z,,,,,,,,,,,,,,,,,53,,,,,,,,,,,,,,344.63999997999053,,response,,,,99,,,,,,,Space,keypress(Space),,,,,,,,---- -- ----- -- ------ - ------- --- ----------<br>------------- ------ ------ ---- ---- ------- ----- -- ----<br>-------- ------- -- ---------- --- - --- ----- ----- ----<br>---- --- --- ----- --- ---- ---- ------- ----- ---- -------<br>you --- -- ----- -- --- ---- -- --- ---- -- ------ ------<br>--- ----- -- ----,199394.04000004288,199393.14499998,199031.811,199044.82499998994,199048.505,199398.44,,39,you
screen,html.Screen,2_1_0_1_40,2021-04-24T17:16:05.732Z,,,,,,,,,,,,,,,,,53,,,,,,,,,,,,,,288.9600000534556,,response,,,,99,,,,,,,Space,keypress(Space),,,,,,,,---- -- ----- -- ------ - ------- --- ----------<br>------------- ------ ------ ---- ---- ------- ----- -- ----<br>-------- ------- -- ---------- --- - --- ----- ----- ----<br>---- --- --- ----- --- ---- ---- ------- ----- ---- -------<br>--- are -- ----- -- --- ---- -- --- ---- -- ------ ------<br>--- ----- -- ----,199688.40999994427,199687.40000005346,199381.832,199394.31000000332,199398.44,199698.611,,40,are
screen,html.Screen,2_1_0_1_41,2021-04-24T17:16:06.098Z,,,,,,,,,,,,,,,,,53,,,,,,,,,,,,,,353.9289999460161,,response,,,,99,,,,,,,Space,keypress(Space),,,,,,,,---- -- ----- -- ------ - ------- --- ----------<br>------------- ------ ------ ---- ---- ------- ----- -- ----<br>-------- ------- -- ---------- --- - --- ----- ----- ----<br>---- --- --- ----- --- ---- ---- ------- ----- ---- -------<br>--- --- as ----- -- --- ---- -- --- ---- -- ------ ------<br>--- ----- -- ----,200053.51999995764,200052.53999994602,199681.794,199688.70499997865,199698.611,200065.159,,41,as
screen,html.Screen,2_1_0_1_42,2021-04-24T17:16:06.477Z,,,,,,,,,,,,,,,,,53,,,,,,,,,,,,,,366.8560000275902,,response,,,,99,,,,,,,Space,keypress(Space),,,,,,,,---- -- ----- -- ------ - ------- --- ----------<br>------------- ------ ------ ---- ---- ------- ----- -- ----<br>-------- ------- -- ---------- --- - --- ----- ----- ----<br>---- --- --- ----- --- ---- ---- ------- ----- ---- -------<br>--- --- -- close -- --- ---- -- --- ---- -- ------ ------<br>--- ----- -- ----,200433.0899999477,200432.0150000276,200048.449,200053.8200000301,200065.159,200448.461,,42,close
screen,html.Screen,2_1_0_1_43,2021-04-24T17:16:06.822Z,,,,,,,,,,,,,,,,,53,,,,,,,,,,,,,,328.24900000554044,,response,,,,99,,,,,,,Space,keypress(Space),,,,,,,,---- -- ----- -- ------ - ------- --- ----------<br>------------- ------ ------ ---- ---- ------- ----- -- ----<br>-------- ------- -- ---------- --- - --- ----- ----- ----<br>---- --- --- ----- --- ---- ---- ------- ----- ---- -------<br>--- --- -- ----- as --- ---- -- --- ---- -- ------ ------<br>--- ----- -- ----,200777.74000004865,200776.71000000555,200431.761,200433.38499998208,200448.461,200781.703,,43,as
screen,html.Screen,2_1_0_1_44,2021-04-24T17:16:07.153Z,,,,,,,,,,,,,,,,,53,,,,,,,,,,,,,,325.9569999796513,,response,,,,99,,,,,,,Space,keypress(Space),,,,,,,,---- -- ----- -- ------ - ------- --- ----------<br>------------- ------ ------ ---- ---- ------- ----- -- ----<br>-------- ------- -- ---------- --- - --- ----- ----- ----<br>---- --- --- ----- --- ---- ---- ------- ----- ---- -------<br>--- --- -- ----- -- you ---- -- --- ---- -- ------ ------<br>--- ----- -- ----,201108.87500003446,201107.65999997966,200765.066,200778.04500004277,200781.703,201114.983,,44,you
screen,html.Screen,2_1_0_1_45,2021-04-24T17:16:07.505Z,,,,,,,,,,,,,,,,,53,,,,,,,,,,,,,,345.00199996493757,,response,,,,99,,,,,,,Space,keypress(Space),,,,,,,,---- -- ----- -- ------ - ------- --- ----------<br>------------- ------ ------ ---- ---- ------- ----- -- ----<br>-------- ------- -- ---------- --- - --- ----- ----- ----<br>---- --- --- ----- --- ---- ---- ------- ----- ---- -------<br>--- --- -- ----- -- --- want -- --- ---- -- ------ ------<br>--- ----- -- ----,201461.3449999597,201459.98499996495,201098.398,201112.97500005458,201114.983,201464.998,,45,want
screen,html.Screen,2_1_0_1_46,2021-04-24T17:16:07.878Z,,,,,,,,,,,,,,,,,53,,,,,,,,,,,,,,367.4169999534788,,response,,,,99,,,,,,,Space,keypress(Space),,,,,,,,---- -- ----- -- ------ - ------- --- ----------<br>------------- ------ ------ ---- ---- ------- ----- -- ----<br>-------- ------- -- ---------- --- - --- ----- ----- ----<br>---- --- --- ----- --- ---- ---- ------- ----- ---- -------<br>--- --- -- ----- -- --- ---- to --- ---- -- ------ ------<br>--- ----- -- ----,201833.564999979,201832.41499995347,201448.252,201461.64500003215,201464.998,201848.489,,46,to
screen,html.Screen,2_1_0_1_47,2021-04-24T17:16:08.192Z,,,,,,,,,,,,,,,,,53,,,,,,,,,,,,,,298.901000056474,,response,,,,99,,,,,,,Space,keypress(Space),,,,,,,,"---- -- ----- -- ------ - ------- --- ----------<br>------------- ------ ------ ---- ---- ------- ----- -- ----<br>-------- ------- -- ---------- --- - --- ----- ----- ----<br>---- --- --- ----- --- ---- ---- ------- ----- ---- -------<br>--- --- -- ----- -- --- ---- -- be, ---- -- ------ ------<br>--- ----- -- ----",202148.38000002783,202147.39000005648,201831.712,201833.86000001337,201848.489,202165.119,,47,"be,"
screen,html.Screen,2_1_0_1_48,2021-04-24T17:16:08.513Z,,,,,,,,,,,,,,,,,53,,,,,,,,,,,,,,303.01100005203625,,response,,,,99,,,,,,,Space,keypress(Space),,,,,,,,---- -- ----- -- ------ - ------- --- ----------<br>------------- ------ ------ ---- ---- ------- ----- -- ----<br>-------- ------- -- ---------- --- - --- ----- ----- ----<br>---- --- --- ----- --- ---- ---- ------- ----- ---- -------<br>--- --- -- ----- -- --- ---- -- --- even -- ------ ------<br>--- ----- -- ----,202468.62000005785,202468.13000005204,202148.273,202148.6749999458,202165.119,202481.788,,48,even
screen,html.Screen,2_1_0_1_49,2021-04-24T17:16:08.875Z,,,,,,,,,,,,,,,,,53,,,,,,,,,,,,,,348.3770000503282,,response,,,,99,,,,,,,Space,keypress(Space),,,,,,,,---- -- ----- -- ------ - ------- --- ----------<br>------------- ------ ------ ---- ---- ------- ----- -- ----<br>-------- ------- -- ---------- --- - --- ----- ----- ----<br>---- --- --- ----- --- ---- ---- ------- ----- ---- -------<br>--- --- -- ----- -- --- ---- -- --- ---- if ------ ------<br>--- ----- -- ----,202831.12999994773,202830.16500005033,202464.978,202468.71000004467,202481.788,202848.357,,49,if
screen,html.Screen,2_1_0_1_50,2021-04-24T17:16:09.188Z,,,,,,,,,,,,,,,,,53,,,,,,,,,,,,,,294.7279999887978,,response,,,,99,,,,,,,Space,keypress(Space),,,,,,,,---- -- ----- -- ------ - ------- --- ----------<br>------------- ------ ------ ---- ---- ------- ----- -- ----<br>-------- ------- -- ---------- --- - --- ----- ----- ----<br>---- --- --- ----- --- ---- ---- ------- ----- ---- -------<br>--- --- -- ----- -- --- ---- -- --- ---- -- that's ------<br>--- ----- -- ----,203144.0500000026,203143.0849999888,202831.648,202831.4150000224,202848.357,203148.268,,50,that's
screen,html.Screen,2_1_0_1_51,2021-04-24T17:16:09.472Z,,,,,,,,,,,,,,,,,53,,,,,,,,,,,,,,278.63199996217736,,response,,,,99,,,,,,,Space,keypress(Space),,,,,,,,---- -- ----- -- ------ - ------- --- ----------<br>------------- ------ ------ ---- ---- ------- ----- -- ----<br>-------- ------- -- ---------- --- - --- ----- ----- ----<br>---- --- --- ----- --- ---- ---- ------- ----- ---- -------<br>--- --- -- ----- -- --- ---- -- --- ---- -- ------ really<br>--- ----- -- ----,203427.8799999738,203426.8999999622,203131.634,203144.345000037,203148.268,203431.604,,51,really
screen,html.Screen,2_1_0_1_52,2021-04-24T17:16:09.836Z,,,,,,,,,,,,,,,,,53,,,,,,,,,,,,,,359.80599994707154,,response,,,,99,,,,,,,Space,keypress(Space),,,,,,,,---- -- ----- -- ------ - ------- --- ----------<br>------------- ------ ------ ---- ---- ------- ----- -- ----<br>-------- ------- -- ---------- --- - --- ----- ----- ----<br>---- --- --- ----- --- ---- ---- ------- ----- ---- -------<br>--- --- -- ----- -- --- ---- -- --- ---- -- ------ ------<br>not ----- -- ----,203792.37499996088,203791.40999994706,203414.913,203428.1600000104,203431.604,203798.226,,52,not
screen,html.Screen,2_1_0_1_53,2021-04-24T17:16:10.160Z,,,,,,,,,,,,,,,,,53,,,,,,,,,,,,,,316.39400000756723,,response,,,,99,,,,,,,Space,keypress(Space),,,,,,,,---- -- ----- -- ------ - ------- --- ----------<br>------------- ------ ------ ---- ---- ------- ----- -- ----<br>-------- ------- -- ---------- --- - --- ----- ----- ----<br>---- --- --- ----- --- ---- ---- ------- ----- ---- -------<br>--- --- -- ----- -- --- ---- -- --- ---- -- ------ ------<br>--- close -- ----,204115.7799999928,204114.62000000756,203781.582,203792.65499999747,203798.226,204131.571,,53,close
screen,html.Screen,2_1_0_1_54,2021-04-24T17:16:10.533Z,,,,,,,,,,,,,,,,,53,,,,,,,,,,,,,,355.9140000487678,,response,,,,99,,,,,,,Space,keypress(Space),,,,,,,,---- -- ----- -- ------ - ------- --- ----------<br>------------- ------ ------ ---- ---- ------- ----- -- ----<br>-------- ------- -- ---------- --- - --- ----- ----- ----<br>---- --- --- ----- --- ---- ---- ------- ----- ---- -------<br>--- --- -- ----- -- --- ---- -- --- ---- -- ------ ------<br>--- ----- at ----,204488.46999998204,204487.48500004876,204115.043,204116.07999994885,204131.571,204498.411,,54,at
screen,html.Screen,2_1_0_1_55,2021-04-24T17:16:10.936Z,,,,,,,,,,,,,,,,,53,,,,,,,,,,,,,,392.31899998462177,,response,,,,99,,,,,,,Space,keypress(Space),,,,,,,,---- -- ----- -- ------ - ------- --- ----------<br>------------- ------ ------ ---- ---- ------- ----- -- ----<br>-------- ------- -- ---------- --- - --- ----- ----- ----<br>---- --- --- ----- --- ---- ---- ------- ----- ---- -------<br>--- --- -- ----- -- --- ---- -- --- ---- -- ------ ------<br>--- ----- -- all.,204891.6850000387,204890.7299999846,204481.607,204488.74499998055,204498.411,204898.114,,55,all.
Item 99,flow.Loop,2_1_0_1,2021-04-24T17:16:10.937Z,,,,,,,,,,,,,,,,,,,,,,,,,,,,,,,21908.23599998461,,completion,,,,,F,,,,,,,,,,,silence,,,,,204892.42499996908,204890.7299999846,182965.859,182967.61499997228,182982.494,204898.114,,,
Question 1,html.Screen,2_1_0_2,2021-04-24T17:16:18.660Z,,,,,,,,,,,,,,,,,,,,,,,,,,,,true,FALSE,,7716.691000019258,,response,,,,99,F,,,,,,FALSE,click #choice-2,,,,silence,,,,,212615.6600000104,212614.80500001926,204881.58,204892.74999999907,204898.114,212647.975,,,
Question 2,html.Screen,2_1_0_3,2021-04-24T17:16:22.497Z,,,,,,,,,,,,,,,,,,,,,,,,,,,,true,TRUE,,3803.8649999942572,,response,,,,99,F,,,,,,TRUE,click #choice-1,,,,silence,,,,,216452.74500001688,216451.83999999426,212631.35,212615.8150000265,212647.975,216464.219,,,
Item 99,flow.Sequence,2_1_0,2021-04-24T17:16:22.497Z,,,,,,,,,,,,,,,,,,,,,,,,,,,,,,,43468.84599999426,,completion,,,,,,,,,,,,,,,,,,,,,216452.96499994583,216451.83999999426,172966.346,172952.6799999876,172982.994,216464.219,,,
Holding screen,html.Screen,2_1_1_0,2021-04-24T17:16:32.493Z,,,,,,,,,,,,,,,,,,,,,,,,,,,,,,,9999.746999999974,,timeout,,,,,,,,,,,,,,,,,,,,,226448.6699999543,226447.278,216447.781,216453.1100000022,216464.219,226463.966,,,
screen,html.Screen,2_1_1_1_0,2021-04-24T17:16:33.533Z,,,,,,,,,,,,,,,,,54,,,,,,,,,,,,,,1024.1590000326105,,response,,,,100,,,,,,,Space,keypress(Space),,,,,,,,At --- ---- --- ------ ----- ------- ---- -- --- ------- --<br>------- ---------- ------ -- ----- -- ----- -- ---- ------<br>--- ----- --- --- ------ -------- ----- --- ------ ----- --<br>----- ----- ---------- --- --- ------ ------ ---- -- ------<br>------- --- ------ ----- --- ---- ------- -- ---- --- --<br>------- ------,227489.17499999516,227488.1250000326,226447.278,226449.09000000916,226463.966,227497.124,,0,At
screen,html.Screen,2_1_1_1_1,2021-04-24T17:16:33.939Z,,,,,,,,,,,,,,,,,54,,,,,,,,,,,,,,396.9010000450653,,response,,,,100,,,,,,,Space,keypress(Space),,,,,,,,-- the ---- --- ------ ----- ------- ---- -- --- ------- --<br>------- ---------- ------ -- ----- -- ----- -- ---- ------<br>--- ----- --- --- ------ -------- ----- --- ------ ----- --<br>----- ----- ---------- --- --- ------ ------ ---- -- ------<br>------- --- ------ ----- --- ---- ------- -- ---- --- --<br>------- ------,227894.4800000172,227894.02500004508,227480.493,227489.4599999534,227497.124,227897.303,,1,the
screen,html.Screen,2_1_1_1_2,2021-04-24T17:16:34.323Z,,,,,,,,,,,,,,,,,54,,,,,,,,,,,,,,380.62200006033527,,response,,,,100,,,,,,,Space,keypress(Space),,,,,,,,-- --- time --- ------ ----- ------- ---- -- --- ------- --<br>------- ---------- ------ -- ----- -- ----- -- ---- ------<br>--- ----- --- --- ------ -------- ----- --- ------ ----- --<br>----- ----- ---------- --- --- ------ ------ ---- -- ------<br>------- --- ------ ----- --- ---- ------- -- ---- --- --<br>------- ------,228278.8850000361,228277.92500006035,227880.482,227894.56499996595,227897.303,228298.985,,2,time
screen,html.Screen,2_1_1_1_3,2021-04-24T17:16:34.677Z,,,,,,,,,,,,,,,,,54,,,,,,,,,,,,,,333.300000057905,,response,,,,100,,,,,,,Space,keypress(Space),,,,,,,,-- --- ---- the ------ ----- ------- ---- -- --- ------- --<br>------- ---------- ------ -- ----- -- ----- -- ---- ------<br>--- ----- --- --- ------ -------- ----- --- ------ ----- --<br>----- ----- ---------- --- --- ------ ------ ---- -- ------<br>------- --- ------ ----- --- ---- ------- -- ---- --- --<br>------- ------,228633.2799999509,228632.2850000579,228263.823,228279.16999999434,228298.985,228647.222,,3,the
screen,html.Screen,2_1_1_1_4,2021-04-24T17:16:35.030Z,,,,,,,,,,,,,,,,,54,,,,,,,,,,,,,,337.9879999552504,,response,,,,100,,,,,,,Space,keypress(Space),,,,,,,,-- --- ---- --- French ----- ------- ---- -- --- ------- --<br>------- ---------- ------ -- ----- -- ----- -- ---- ------<br>--- ----- --- --- ------ -------- ----- --- ------ ----- --<br>----- ----- ---------- --- --- ------ ------ ---- -- ------<br>------- --- ------ ----- --- ---- ------- -- ---- --- --<br>------- ------,228985.61500001233,228985.20999995526,228630.47,228633.56500002556,228647.222,228997.159,,4,French
screen,html.Screen,2_1_1_1_5,2021-04-24T17:16:35.336Z,,,,,,,,,,,,,,,,,54,,,,,,,,,,,,,,294.22099995144526,,response,,,,100,,,,,,,Space,keypress(Space),,,,,,,,-- --- ---- --- ------ crown ------- ---- -- --- ------- --<br>------- ---------- ------ -- ----- -- ----- -- ---- ------<br>--- ----- --- --- ------ -------- ----- --- ------ ----- --<br>----- ----- ---------- --- --- ------ ------ ---- -- ------<br>------- --- ------ ----- --- ---- ------- -- ---- --- --<br>------- ------,229292.31499996968,229291.37999995146,228980.416,228985.71000003722,228997.159,229313.816,,5,crown
screen,html.Screen,2_1_1_1_6,2021-04-24T17:16:35.695Z,,,,,,,,,,,,,,,,,54,,,,,,,,,,,,,,336.399000030593,,response,,,,100,,,,,,,Space,keypress(Space),,,,,,,,-- --- ---- --- ------ ----- secured ---- -- --- ------- --<br>------- ---------- ------ -- ----- -- ----- -- ---- ------<br>--- ----- --- --- ------ -------- ----- --- ------ ----- --<br>----- ----- ---------- --- --- ------ ------ ---- -- ------<br>------- --- ------ ----- --- ---- ------- -- ---- --- --<br>------- ------,229651.18499996606,229650.21500003058,229280.404,229292.60000004433,229313.816,229663.878,,6,secured
screen,html.Screen,2_1_1_1_7,2021-04-24T17:16:36.131Z,,,,,,,,,,,,,,,,,54,,,,,,,,,,,,,,421.7219999912486,,response,,,,100,,,,,,,Space,keypress(Space),,,,,,,,-- --- ---- --- ------ ----- ------- much -- --- ------- --<br>------- ---------- ------ -- ----- -- ----- -- ---- ------<br>--- ----- --- --- ------ -------- ----- --- ------ ----- --<br>----- ----- ---------- --- --- ------ ------ ---- -- ------<br>------- --- ------ ----- --- ---- ------- -- ---- --- --<br>------- ------,230086.64500003215,230085.59999999125,229647.084,229651.45999996457,229663.878,230097.18,,7,much
screen,html.Screen,2_1_1_1_8,2021-04-24T17:16:36.415Z,,,,,,,,,,,,,,,,,54,,,,,,,,,,,,,,273.16999998287065,,response,,,,100,,,,,,,Space,keypress(Space),,,,,,,,-- --- ---- --- ------ ----- ------- ---- of --- ------- --<br>------- ---------- ------ -- ----- -- ----- -- ---- ------<br>--- ----- --- --- ------ -------- ----- --- ------ ----- --<br>----- ----- ---------- --- --- ------ ------ ---- -- ------<br>------- --- ------ ----- --- ---- ------- -- ---- --- --<br>------- ------,230371.33500003256,230370.34999998286,230080.355,230086.92000003066,230097.18,230380.317,,8,of
screen,html.Screen,2_1_1_1_9,2021-04-24T17:16:36.659Z,,,,,,,,,,,,,,,,,54,,,,,,,,,,,,,,233.6729999834497,,response,,,,100,,,,,,,Space,keypress(Space),,,,,,,,-- --- ---- --- ------ ----- ------- ---- -- its ------- --<br>------- ---------- ------ -- ----- -- ----- -- ---- ------<br>--- ----- --- --- ------ -------- ----- --- ------ ----- --<br>----- ----- ---------- --- --- ------ ------ ---- -- ------<br>------- --- ------ ----- --- ---- ------- -- ---- --- --<br>------- ------,230615.0149999885,230613.98999998346,230363.697,230371.64499994833,230380.317,230630.417,,9,its
screen,html.Screen,2_1_1_1_10,2021-04-24T17:16:37.013Z,,,,,,,,,,,,,,,,,54,,,,,,,,,,,,,,337.96299997661845,,response,,,,100,,,,,,,Space,keypress(Space),,,,,,,,-- --- ---- --- ------ ----- ------- ---- -- --- revenue --<br>------- ---------- ------ -- ----- -- ----- -- ---- ------<br>--- ----- --- --- ------ -------- ----- --- ------ ----- --<br>----- ----- ---------- --- --- ------ ------ ---- -- ------<br>------- --- ------ ----- --- ---- ------- -- ---- --- --<br>------- ------,230968.8399999868,230968.3799999766,230613.709,230615.29500002507,230630.417,230980.382,,10,revenue
screen,html.Screen,2_1_1_1_11,2021-04-24T17:16:37.333Z,,,,,,,,,,,,,,,,,54,,,,,,,,,,,,,,307.12300001477706,,response,,,,100,,,,,,,Space,keypress(Space),,,,,,,,-- --- ---- --- ------ ----- ------- ---- -- --- ------- by<br>------- ---------- ------ -- ----- -- ----- -- ---- ------<br>--- ----- --- --- ------ -------- ----- --- ------ ----- --<br>----- ----- ---------- --- --- ------ ------ ---- -- ------<br>------- --- ------ ----- --- ---- ------- -- ---- --- --<br>------- ------,231288.51500002202,231287.5050000148,230963.679,230969.00000004098,230980.382,231297.013,,11,by
screen,html.Screen,2_1_1_1_12,2021-04-24T17:16:37.686Z,,,,,,,,,,,,,,,,,54,,,,,,,,,,,,,,343.66699995312956,,response,,,,100,,,,,,,Space,keypress(Space),,,,,,,,-- --- ---- --- ------ ----- ------- ---- -- --- ------- --<br>issuing ---------- ------ -- ----- -- ----- -- ---- ------<br>--- ----- --- --- ------ -------- ----- --- ------ ----- --<br>----- ----- ---------- --- --- ------ ------ ---- -- ------<br>------- --- ------ ----- --- ---- ------- -- ---- --- --<br>------- ------,231641.56000001822,231640.67999995314,231280.315,231288.79000002053,231297.013,231646.922,,12,issuing
screen,html.Screen,2_1_1_1_13,2021-04-24T17:16:37.994Z,,,,,,,,,,,,,,,,,54,,,,,,,,,,,,,,301.6630000055593,,response,,,,100,,,,,,,Space,keypress(Space),,,,,,,,-- --- ---- --- ------ ----- ------- ---- -- --- ------- --<br>------- government ------ -- ----- -- ----- -- ---- ------<br>--- ----- --- --- ------ -------- ----- --- ------ ----- --<br>----- ----- ---------- --- --- ------ ------ ---- -- ------<br>------- --- ------ ----- --- ---- ------- -- ---- --- --<br>------- ------,231949.47500003036,231948.58500000555,231630.336,231641.80500002112,231646.922,231963.59,,13,government
screen,html.Screen,2_1_1_1_14,2021-04-24T17:16:38.643Z,,,,,,,,,,,,,,,,,54,,,,,,,,,,,,,,634.3449999688601,,response,,,,100,,,,,,,Space,keypress(Space),,,,,,,,-- --- ---- --- ------ ----- ------- ---- -- --- ------- --<br>------- ---------- bonds. -- ----- -- ----- -- ---- ------<br>--- ----- --- --- ------ -------- ----- --- ------ ----- --<br>----- ----- ---------- --- --- ------ ------ ---- -- ------<br>------- --- ------ ----- --- ---- ------- -- ---- --- --<br>------- ------,232598.90500002075,232597.93499996886,231946.961,231949.72499995492,231963.59,232613.729,,14,bonds.
screen,html.Screen,2_1_1_1_15,2021-04-24T17:16:39.202Z,,,,,,,,,,,,,,,,,54,,,,,,,,,,,,,,542.7909999604453,,response,,,,100,,,,,,,Space,keypress(Space),,,,,,,,-- --- ---- --- ------ ----- ------- ---- -- --- ------- --<br>------- ---------- ------ In ----- -- ----- -- ---- ------<br>--- ----- --- --- ------ -------- ----- --- ------ ----- --<br>----- ----- ---------- --- --- ------ ------ ---- -- ------<br>------- --- ------ ----- --- ---- ------- -- ---- --- --<br>------- ------,233157.47500001453,233156.51999996044,232596.949,232599.20000005513,232613.729,233163.604,,15,In
screen,html.Screen,2_1_1_1_16,2021-04-24T17:16:39.609Z,,,,,,,,,,,,,,,,,54,,,,,,,,,,,,,,399.9659999984433,,response,,,,100,,,,,,,Space,keypress(Space),,,,,,,,"-- --- ---- --- ------ ----- ------- ---- -- --- ------- --<br>------- ---------- ------ -- 1727, -- ----- -- ---- ------<br>--- ----- --- --- ------ -------- ----- --- ------ ----- --<br>----- ----- ---------- --- --- ------ ------ ---- -- ------<br>------- --- ------ ----- --- ---- ------- -- ---- --- --<br>------- ------",233564.51000005472,233563.56999999844,233146.89,233157.75999997277,233163.604,233580.257,,16,"1727,"
screen,html.Screen,2_1_1_1_17,2021-04-24T17:16:39.969Z,,,,,,,,,,,,,,,,,54,,,,,,,,,,,,,,343.47799996027607,,response,,,,100,,,,,,,Space,keypress(Space),,,,,,,,-- --- ---- --- ------ ----- ------- ---- -- --- ------- --<br>------- ---------- ------ -- ----- in ----- -- ---- ------<br>--- ----- --- --- ------ -------- ----- --- ------ ----- --<br>----- ----- ---------- --- --- ------ ------ ---- -- ------<br>------- --- ------ ----- --- ---- ------- -- ---- --- --<br>------- ------,233924.86499994993,233923.7349999603,233563.664,233564.7599999793,233580.257,233930.172,,17,in
screen,html.Screen,2_1_1_1_18,2021-04-24T17:16:40.255Z,,,,,,,,,,,,,,,,,54,,,,,,,,,,,,,,279.53799996644375,,response,,,,100,,,,,,,Space,keypress(Space),,,,,,,,-- --- ---- --- ------ ----- ------- ---- -- --- ------- --<br>------- ---------- ------ -- ----- -- order -- ---- ------<br>--- ----- --- --- ------ -------- ----- --- ------ ----- --<br>----- ----- ---------- --- --- ------ ------ ---- -- ------<br>------- --- ------ ----- --- ---- ------- -- ---- --- --<br>------- ------,234210.7300000498,234209.70999996644,233913.474,233925.15999998432,233930.172,234213.478,,18,order
screen,html.Screen,2_1_1_1_19,2021-04-24T17:16:40.633Z,,,,,,,,,,,,,,,,,54,,,,,,,,,,,,,,374.5770000583725,,response,,,,100,,,,,,,Space,keypress(Space),,,,,,,,-- --- ---- --- ------ ----- ------- ---- -- --- ------- --<br>------- ---------- ------ -- ----- -- ----- to ---- ------<br>--- ----- --- --- ------ -------- ----- --- ------ ----- --<br>----- ----- ---------- --- --- ------ ------ ---- -- ------<br>------- --- ------ ----- --- ---- ------- -- ---- --- --<br>------- ------,234589.01999995578,234588.05500005838,234196.988,234211.01500000805,234213.478,234596.961,,19,to
screen,html.Screen,2_1_1_1_20,2021-04-24T17:16:40.971Z,,,,,,,,,,,,,,,,,54,,,,,,,,,,,,,,329.30900005449075,,response,,,,100,,,,,,,Space,keypress(Space),,,,,,,,-- --- ---- --- ------ ----- ------- ---- -- --- ------- --<br>------- ---------- ------ -- ----- -- ----- -- save ------<br>--- ----- --- --- ------ -------- ----- --- ------ ----- --<br>----- ----- ---------- --- --- ------ ------ ---- -- ------<br>------- --- ------ ----- --- ---- ------- -- ---- --- --<br>------- ------,234927.23999998998,234926.2700000545,234580.179,234589.30500003044,234596.961,234930.112,,20,save
screen,html.Screen,2_1_1_1_21,2021-04-24T17:16:41.280Z,,,,,,,,,,,,,,,,,54,,,,,,,,,,,,,,305.54800000574323,,response,,,,100,,,,,,,Space,keypress(Space),,,,,,,,"-- --- ---- --- ------ ----- ------- ---- -- --- ------- --<br>------- ---------- ------ -- ----- -- ----- -- ---- money,<br>--- ----- --- --- ------ -------- ----- --- ------ ----- --<br>----- ----- ---------- --- --- ------ ------ ---- -- ------<br>------- --- ------ ----- --- ---- ------- -- ---- --- --<br>------- ------",235236.14000005182,235235.66000000574,234913.455,234927.52000002656,234930.112,235246.757,,21,"money,"
screen,html.Screen,2_1_1_1_22,2021-04-24T17:16:41.731Z,,,,,,,,,,,,,,,,,54,,,,,,,,,,,,,,438.68300003019976,,response,,,,100,,,,,,,Space,keypress(Space),,,,,,,,-- --- ---- --- ------ ----- ------- ---- -- --- ------- --<br>------- ---------- ------ -- ----- -- ----- -- ---- ------<br>the ----- --- --- ------ -------- ----- --- ------ ----- --<br>----- ----- ---------- --- --- ------ ------ ---- -- ------<br>------- --- ------ ----- --- ---- ------- -- ---- --- --<br>------- ------,235686.4249999635,235685.4400000302,235230.11,235236.23000003863,235246.757,235696.743,,22,the
screen,html.Screen,2_1_1_1_23,2021-04-24T17:16:42.032Z,,,,,,,,,,,,,,,,,54,,,,,,,,,,,,,,290.46200001219404,,response,,,,100,,,,,,,Space,keypress(Space),,,,,,,,-- --- ---- --- ------ ----- ------- ---- -- --- ------- --<br>------- ---------- ------ -- ----- -- ----- -- ---- ------<br>--- state --- --- ------ -------- ----- --- ------ ----- --<br>----- ----- ---------- --- --- ------ ------ ---- -- ------<br>------- --- ------ ----- --- ---- ------- -- ---- --- --<br>------- ------,235988.29999996815,235987.20500001218,235680.05,235686.699999962,235696.743,235996.75,,23,state
screen,html.Screen,2_1_1_1_24,2021-04-24T17:16:42.310Z,,,,,,,,,,,,,,,,,54,,,,,,,,,,,,,,268.44499998539686,,response,,,,100,,,,,,,Space,keypress(Space),,,,,,,,-- --- ---- --- ------ ----- ------- ---- -- --- ------- --<br>------- ---------- ------ -- ----- -- ----- -- ---- ------<br>--- ----- cut --- ------ -------- ----- --- ------ ----- --<br>----- ----- ---------- --- --- ------ ------ ---- -- ------<br>------- --- ------ ----- --- ---- ------- -- ---- --- --<br>------- ------,236266.18999999482,236265.1949999854,235980.117,235988.64999995567,235996.75,236280.13,,24,cut
screen,html.Screen,2_1_1_1_25,2021-04-24T17:16:42.673Z,,,,,,,,,,,,,,,,,54,,,,,,,,,,,,,,348.1499999462394,,response,,,,100,,,,,,,Space,keypress(Space),,,,,,,,-- --- ---- --- ------ ----- ------- ---- -- --- ------- --<br>------- ---------- ------ -- ----- -- ----- -- ---- ------<br>--- ----- --- the ------ -------- ----- --- ------ ----- --<br>----- ----- ---------- --- --- ------ ------ ---- -- ------<br>------- --- ------ ----- --- ---- ------- -- ---- --- --<br>------- ------,236629.25999995787,236628.27999994624,236263.508,236266.46499999333,236280.13,236646.736,,25,the
screen,html.Screen,2_1_1_1_26,2021-04-24T17:16:43.014Z,,,,,,,,,,,,,,,,,54,,,,,,,,,,,,,,321.9390000109852,,response,,,,100,,,,,,,Space,keypress(Space),,,,,,,,-- --- ---- --- ------ ----- ------- ---- -- --- ------- --<br>------- ---------- ------ -- ----- -- ----- -- ---- ------<br>--- ----- --- --- bonds' -------- ----- --- ------ ----- --<br>----- ----- ---------- --- --- ------ ------ ---- -- ------<br>------- --- ------ ----- --- ---- ------- -- ---- --- --<br>------- ------,236969.65999994427,236968.675000011,236630.052,236629.54999995418,236646.736,236980.056,,26,bonds'
screen,html.Screen,2_1_1_1_27,2021-04-24T17:16:43.290Z,,,,,,,,,,,,,,,,,54,,,,,,,,,,,,,,265.3740000099351,,response,,,,100,,,,,,,Space,keypress(Space),,,,,,,,-- --- ---- --- ------ ----- ------- ---- -- --- ------- --<br>------- ---------- ------ -- ----- -- ----- -- ---- ------<br>--- ----- --- --- ------ interest ----- --- ------ ----- --<br>----- ----- ---------- --- --- ------ ------ ---- -- ------<br>------- --- ------ ----- --- ---- ------- -- ---- --- --<br>------- ------,237245.81500003114,237245.43000000995,236963.424,236969.93999998085,236980.056,237279.42,,27,interest
screen,html.Screen,2_1_1_1_28,2021-04-24T17:16:43.584Z,,,,,,,,,,,,,,,,,54,,,,,,,,,,,,,,259.31999998903484,,response,,,,100,,,,,,,Space,keypress(Space),,,,,,,,-- --- ---- --- ------ ----- ------- ---- -- --- ------- --<br>------- ---------- ------ -- ----- -- ----- -- ---- ------<br>--- ----- --- --- ------ -------- rate. --- ------ ----- --<br>----- ----- ---------- --- --- ------ ------ ---- -- ------<br>------- --- ------ ----- --- ---- ------- -- ---- --- --<br>------- ------,237539.60000001825,237538.73999998905,237230.01,237245.89500005823,237279.42,237546.79,,28,rate.
screen,html.Screen,2_1_1_1_29,2021-04-24T17:16:43.966Z,,,,,,,,,,,,,,,,,54,,,,,,,,,,,,,,374.14000002204557,,response,,,,100,,,,,,,Space,keypress(Space),,,,,,,,-- --- ---- --- ------ ----- ------- ---- -- --- ------- --<br>------- ---------- ------ -- ----- -- ----- -- ---- ------<br>--- ----- --- --- ------ -------- ----- The ------ ----- --<br>----- ----- ---------- --- --- ------ ------ ---- -- ------<br>------- --- ------ ----- --- ---- ------- -- ---- --- --<br>------- ------,237921.92999995314,237920.93000002205,237530.044,237539.84500002116,237546.79,237930.091,,29,The
screen,html.Screen,2_1_1_1_30,2021-04-24T17:16:44.230Z,,,,,,,,,,,,,,,,,54,,,,,,,,,,,,,,254.56399999003042,,response,,,,100,,,,,,,Space,keypress(Space),,,,,,,,-- --- ---- --- ------ ----- ------- ---- -- --- ------- --<br>------- ---------- ------ -- ----- -- ----- -- ---- ------<br>--- ----- --- --- ------ -------- ----- --- market ----- --<br>----- ----- ---------- --- --- ------ ------ ---- -- ------<br>------- --- ------ ----- --- ---- ------- -- ---- --- --<br>------- ------,238185.62999996357,238184.65499999002,237913.347,237922.3800000036,237930.091,238196.727,,30,market
screen,html.Screen,2_1_1_1_31,2021-04-24T17:16:44.608Z,,,,,,,,,,,,,,,,,54,,,,,,,,,,,,,,366.4780000130995,,response,,,,100,,,,,,,Space,keypress(Space),,,,,,,,-- --- ---- --- ------ ----- ------- ---- -- --- ------- --<br>------- ---------- ------ -- ----- -- ----- -- ---- ------<br>--- ----- --- --- ------ -------- ----- --- ------ value --<br>----- ----- ---------- --- --- ------ ------ ---- -- ------<br>------- --- ------ ----- --- ---- ------- -- ---- --- --<br>------- ------,238564.36499999836,238563.2050000131,238180.011,238185.91000000015,238196.727,238580.055,,31,value
screen,html.Screen,2_1_1_1_32,2021-04-24T17:16:44.826Z,,,,,,,,,,,,,,,,,54,,,,,,,,,,,,,,200.45499995321734,,response,,,,100,,,,,,,Space,keypress(Space),,,,,,,,-- --- ---- --- ------ ----- ------- ---- -- --- ------- --<br>------- ---------- ------ -- ----- -- ----- -- ---- ------<br>--- ----- --- --- ------ -------- ----- --- ------ ----- of<br>----- ----- ---------- --- --- ------ ------ ---- -- ------<br>------- --- ------ ----- --- ---- ------- -- ---- --- --<br>------- ------,238781.54500003438,238780.5099999532,238563.313,238564.64500003494,238580.055,238796.715,,32,of
screen,html.Screen,2_1_1_1_33,2021-04-24T17:16:45.201Z,,,,,,,,,,,,,,,,,54,,,,,,,,,,,,,,359.57499995533726,,response,,,,100,,,,,,,Space,keypress(Space),,,,,,,,-- --- ---- --- ------ ----- ------- ---- -- --- ------- --<br>------- ---------- ------ -- ----- -- ----- -- ---- ------<br>--- ----- --- --- ------ -------- ----- --- ------ ----- --<br>these ----- ---------- --- --- ------ ------ ---- -- ------<br>------- --- ------ ----- --- ---- ------- -- ---- --- --<br>------- ------,239157.1550000226,239156.28999995533,238780.01,238781.82499995455,238796.715,239163.376,,33,these
screen,html.Screen,2_1_1_1_34,2021-04-24T17:16:45.564Z,,,,,,,,,,,,,,,,,54,,,,,,,,,,,,,,355.88900000992,,response,,,,100,,,,,,,Space,keypress(Space),,,,,,,,-- --- ---- --- ------ ----- ------- ---- -- --- ------- --<br>------- ---------- ------ -- ----- -- ----- -- ---- ------<br>--- ----- --- --- ------ -------- ----- --- ------ ----- --<br>----- bonds ---------- --- --- ------ ------ ---- -- ------<br>------- --- ------ ----- --- ---- ------- -- ---- --- --<br>------- ------,239520.25499998126,239519.2650000099,239146.644,239157.40499994718,239163.376,239529.977,,34,bonds
screen,html.Screen,2_1_1_1_35,2021-04-24T17:16:45.952Z,,,,,,,,,,,,,,,,,54,,,,,,,,,,,,,,376.4480000519543,,response,,,,100,,,,,,,Space,keypress(Space),,,,,,,,"-- --- ---- --- ------ ----- ------- ---- -- --- ------- --<br>------- ---------- ------ -- ----- -- ----- -- ---- ------<br>--- ----- --- --- ------ -------- ----- --- ------ ----- --<br>----- ----- plummeted, --- --- ------ ------ ---- -- ------<br>------- --- ------ ----- --- ---- ------- -- ---- --- --<br>------- ------",239907.450000057,239906.42500005197,239513.205,239520.53500001784,239529.977,239913.31,,35,"plummeted,"
screen,html.Screen,2_1_1_1_36,2021-04-24T17:16:46.393Z,,,,,,,,,,,,,,,,,54,,,,,,,,,,,,,,434.44499999523396,,response,,,,100,,,,,,,Space,keypress(Space),,,,,,,,-- --- ---- --- ------ ----- ------- ---- -- --- ------- --<br>------- ---------- ------ -- ----- -- ----- -- ---- ------<br>--- ----- --- --- ------ -------- ----- --- ------ ----- --<br>----- ----- ---------- and --- ------ ------ ---- -- ------<br>------- --- ------ ----- --- ---- ------- -- ---- --- --<br>------- ------,240348.74499996658,240347.75499999523,239896.611,239907.72999997716,239913.31,240363.26,,36,and
screen,html.Screen,2_1_1_1_37,2021-04-24T17:16:46.740Z,,,,,,,,,,,,,,,,,54,,,,,,,,,,,,,,331.5400000556838,,response,,,,100,,,,,,,Space,keypress(Space),,,,,,,,-- --- ---- --- ------ ----- ------- ---- -- --- ------- --<br>------- ---------- ------ -- ----- -- ----- -- ---- ------<br>--- ----- --- --- ------ -------- ----- --- ------ ----- --<br>----- ----- ---------- --- the ------ ------ ---- -- ------<br>------- --- ------ ----- --- ---- ------- -- ---- --- --<br>------- ------,240695.69500000216,240694.8000000557,240346.556,240348.9899999695,240363.26,240729.903,,37,the
screen,html.Screen,2_1_1_1_38,2021-04-24T17:16:46.962Z,,,,,,,,,,,,,,,,,54,,,,,,,,,,,,,,186.7269999924465,,response,,,,100,,,,,,,Space,keypress(Space),,,,,,,,-- --- ---- --- ------ ----- ------- ---- -- --- ------- --<br>------- ---------- ------ -- ----- -- ----- -- ---- ------<br>--- ----- --- --- ------ -------- ----- --- ------ ----- --<br>----- ----- ---------- --- --- market ------ ---- -- ------<br>------- --- ------ ----- --- ---- ------- -- ---- --- --<br>------- ------,240917.61000000406,240916.62999999244,240713.199,240695.94000000507,240729.903,240929.977,,38,market
screen,html.Screen,2_1_1_1_39,2021-04-24T17:16:47.295Z,,,,,,,,,,,,,,,,,54,,,,,,,,,,,,,,319.9380000512465,,response,,,,100,,,,,,,Space,keypress(Space),,,,,,,,-- --- ---- --- ------ ----- ------- ---- -- --- ------- --<br>------- ---------- ------ -- ----- -- ----- -- ---- ------<br>--- ----- --- --- ------ -------- ----- --- ------ ----- --<br>----- ----- ---------- --- --- ------ became ---- -- ------<br>------- --- ------ ----- --- ---- ------- -- ---- --- --<br>------- ------,241250.78999996185,241249.91500005126,240913.231,240917.8949999623,240929.977,241263.239,,39,became
screen,html.Screen,2_1_1_1_40,2021-04-24T17:16:47.581Z,,,,,,,,,,,,,,,,,54,,,,,,,,,,,,,,272.33599998714635,,response,,,,100,,,,,,,Space,keypress(Space),,,,,,,,-- --- ---- --- ------ ----- ------- ---- -- --- ------- --<br>------- ---------- ------ -- ----- -- ----- -- ---- ------<br>--- ----- --- --- ------ -------- ----- --- ------ ----- --<br>----- ----- ---------- --- --- ------ ------ wary -- ------<br>------- --- ------ ----- --- ---- ------- -- ---- --- --<br>------- ------,241537.3050000053,241535.57499998715,241246.503,241251.03499996476,241263.239,241546.546,,40,wary
screen,html.Screen,2_1_1_1_41,2021-04-24T17:16:47.891Z,,,,,,,,,,,,,,,,,54,,,,,,,,,,,,,,299.3739999924728,,response,,,,100,,,,,,,Space,keypress(Space),,,,,,,,-- --- ---- --- ------ ----- ------- ---- -- --- ------- --<br>------- ---------- ------ -- ----- -- ----- -- ---- ------<br>--- ----- --- --- ------ -------- ----- --- ------ ----- --<br>----- ----- ---------- --- --- ------ ------ ---- of ------<br>------- --- ------ ----- --- ---- ------- -- ---- --- --<br>------- ------,241846.9299999997,241845.91999999247,241529.82,241537.47500001919,241546.546,241863.224,,41,of
screen,html.Screen,2_1_1_1_42,2021-04-24T17:16:48.263Z,,,,,,,,,,,,,,,,,54,,,,,,,,,,,,,,355.2410000417731,,response,,,,100,,,,,,,Space,keypress(Space),,,,,,,,-- --- ---- --- ------ ----- ------- ---- -- --- ------- --<br>------- ---------- ------ -- ----- -- ----- -- ---- ------<br>--- ----- --- --- ------ -------- ----- --- ------ ----- --<br>----- ----- ---------- --- --- ------ ------ ---- -- French<br>------- --- ------ ----- --- ---- ------- -- ---- --- --<br>------- ------,242219.09999998752,242218.46500004176,241846.53,241847.21000003628,241863.224,242229.829,,42,French
screen,html.Screen,2_1_1_1_43,2021-04-24T17:16:48.618Z,,,,,,,,,,,,,,,,,54,,,,,,,,,,,,,,343.73599996967823,,response,,,,100,,,,,,,Space,keypress(Space),,,,,,,,-- --- ---- --- ------ ----- ------- ---- -- --- ------- --<br>------- ---------- ------ -- ----- -- ----- -- ---- ------<br>--- ----- --- --- ------ -------- ----- --- ------ ----- --<br>----- ----- ---------- --- --- ------ ------ ---- -- ------<br>credit. --- ------ ----- --- ---- ------- -- ---- --- --<br>------- ------,242574.12000000477,242573.56499996968,242213.162,242219.27999996115,242229.829,242579.791,,43,credit.
screen,html.Screen,2_1_1_1_44,2021-04-24T17:16:49.085Z,,,,,,,,,,,,,,,,,54,,,,,,,,,,,,,,459.7589999867778,,response,,,,100,,,,,,,Space,keypress(Space),,,,,,,,-- --- ---- --- ------ ----- ------- ---- -- --- ------- --<br>------- ---------- ------ -- ----- -- ----- -- ---- ------<br>--- ----- --- --- ------ -------- ----- --- ------ ----- --<br>----- ----- ---------- --- --- ------ ------ ---- -- ------<br>------- The ------ ----- --- ---- ------- -- ---- --- --<br>------- ------,243040.59500002768,243039.54999998678,242563.133,242574.254999985,242579.791,243046.404,,44,The
screen,html.Screen,2_1_1_1_45,2021-04-24T17:16:49.409Z,,,,,,,,,,,,,,,,,54,,,,,,,,,,,,,,317.8259999482834,,response,,,,100,,,,,,,Space,keypress(Space),,,,,,,,-- --- ---- --- ------ ----- ------- ---- -- --- ------- --<br>------- ---------- ------ -- ----- -- ----- -- ---- ------<br>--- ----- --- --- ------ -------- ----- --- ------ ----- --<br>----- ----- ---------- --- --- ------ ------ ---- -- ------<br>------- --- French ----- --- ---- ------- -- ---- --- --<br>------- ------,243365.20500003826,243364.2299999483,243029.771,243040.87999998592,243046.404,243379.824,,45,French
screen,html.Screen,2_1_1_1_46,2021-04-24T17:16:49.731Z,,,,,,,,,,,,,,,,,54,,,,,,,,,,,,,,306.5060000550293,,response,,,,100,,,,,,,Space,keypress(Space),,,,,,,,-- --- ---- --- ------ ----- ------- ---- -- --- ------- --<br>------- ---------- ------ -- ----- -- ----- -- ---- ------<br>--- ----- --- --- ------ -------- ----- --- ------ ----- --<br>----- ----- ---------- --- --- ------ ------ ---- -- ------<br>------- --- ------ state --- ---- ------- -- ---- --- --<br>------- ------,243686.8699999759,243686.33000005502,243363.126,243365.49999995623,243379.824,243696.435,,46,state
screen,html.Screen,2_1_1_1_47,2021-04-24T17:16:50.072Z,,,,,,,,,,,,,,,,,54,,,,,,,,,,,,,,330.190000056813,,response,,,,100,,,,,,,Space,keypress(Space),,,,,,,,-- --- ---- --- ------ ----- ------- ---- -- --- ------- --<br>------- ---------- ------ -- ----- -- ----- -- ---- ------<br>--- ----- --- --- ------ -------- ----- --- ------ ----- --<br>----- ----- ---------- --- --- ------ ------ ---- -- ------<br>------- --- ------ ----- was ---- ------- -- ---- --- --<br>------- ------,244027.5949999923,244026.6250000568,243679.748,243687.0099999942,243696.435,244029.672,,47,was
screen,html.Screen,2_1_1_1_48,2021-04-24T17:16:50.310Z,,,,,,,,,,,,,,,,,54,,,,,,,,,,,,,,235.67800000149873,,response,,,,100,,,,,,,Space,keypress(Space),,,,,,,,-- --- ---- --- ------ ----- ------- ---- -- --- ------- --<br>------- ---------- ------ -- ----- -- ----- -- ---- ------<br>--- ----- --- --- ------ -------- ----- --- ------ ----- --<br>----- ----- ---------- --- --- ------ ------ ---- -- ------<br>------- --- ------ ----- --- left ------- -- ---- --- --<br>------- ------,244266.3350000512,244265.3500000015,244013.071,244027.87999995053,244029.672,244279.77,,48,left
screen,html.Screen,2_1_1_1_49,2021-04-24T17:16:50.627Z,,,,,,,,,,,,,,,,,54,,,,,,,,,,,,,,302.0499999630556,,response,,,,100,,,,,,,Space,keypress(Space),,,,,,,,-- --- ---- --- ------ ----- ------- ---- -- --- ------- --<br>------- ---------- ------ -- ----- -- ----- -- ---- ------<br>--- ----- --- --- ------ -------- ----- --- ------ ----- --<br>----- ----- ---------- --- --- ------ ------ ---- -- ------<br>------- --- ------ ----- --- ---- without -- ---- --- --<br>------- ------,244582.81499997247,244581.81999996305,244263.182,244266.73999999184,244279.77,244596.535,,49,without
screen,html.Screen,2_1_1_1_50,2021-04-24T17:16:50.948Z,,,,,,,,,,,,,,,,,54,,,,,,,,,,,,,,306.8900000258873,,response,,,,100,,,,,,,Space,keypress(Space),,,,,,,,-- --- ---- --- ------ ----- ------- ---- -- --- ------- --<br>------- ---------- ------ -- ----- -- ----- -- ---- ------<br>--- ----- --- --- ------ -------- ----- --- ------ ----- --<br>----- ----- ---------- --- --- ------ ------ ---- -- ------<br>------- --- ------ ----- --- ---- ------- an ---- --- --<br>------- ------,244904.40999995917,244903.4250000259,244579.653,244583.09500000905,244596.535,244913.012,,50,an
screen,html.Screen,2_1_1_1_51,2021-04-24T17:16:51.246Z,,,,,,,,,,,,,,,,,54,,,,,,,,,,,,,,287.77299999364186,,response,,,,100,,,,,,,Space,keypress(Space),,,,,,,,-- --- ---- --- ------ ----- ------- ---- -- --- ------- --<br>------- ---------- ------ -- ----- -- ----- -- ---- ------<br>--- ----- --- --- ------ -------- ----- --- ------ ----- --<br>----- ----- ---------- --- --- ------ ------ ---- -- ------<br>------- --- ------ ----- --- ---- ------- -- easy --- --<br>------- ------,245201.78999996278,245200.78499999363,244896.33,244904.68499995768,244913.012,245213.102,,51,easy
screen,html.Screen,2_1_1_1_52,2021-04-24T17:16:51.563Z,,,,,,,,,,,,,,,,,54,,,,,,,,,,,,,,305.2030000341474,,response,,,,100,,,,,,,Space,keypress(Space),,,,,,,,-- --- ---- --- ------ ----- ------- ---- -- --- ------- --<br>------- ---------- ------ -- ----- -- ----- -- ---- ------<br>--- ----- --- --- ------ -------- ----- --- ------ ----- --<br>----- ----- ---------- --- --- ------ ------ ---- -- ------<br>------- --- ------ ----- --- ---- ------- -- ---- way --<br>------- ------,245519.27499996964,245518.30500003416,245196.369,245202.0799999591,245213.102,245529.702,,52,way
screen,html.Screen,2_1_1_1_53,2021-04-24T17:16:51.892Z,,,,,,,,,,,,,,,,,54,,,,,,,,,,,,,,317.76299999892944,,response,,,,100,,,,,,,Space,keypress(Space),,,,,,,,-- --- ---- --- ------ ----- ------- ---- -- --- ------- --<br>------- ---------- ------ -- ----- -- ----- -- ---- ------<br>--- ----- --- --- ------ -------- ----- --- ------ ----- --<br>----- ----- ---------- --- --- ------ ------ ---- -- ------<br>------- --- ------ ----- --- ---- ------- -- ---- --- of<br>------- ------,245848.3750000596,245847.46499999892,245513.013,245519.55500000622,245529.702,245863.105,,53,of
screen,html.Screen,2_1_1_1_54,2021-04-24T17:16:52.226Z,,,,,,,,,,,,,,,,,54,,,,,,,,,,,,,,317.60499998598243,,response,,,,100,,,,,,,Space,keypress(Space),,,,,,,,-- --- ---- --- ------ ----- ------- ---- -- --- ------- --<br>------- ---------- ------ -- ----- -- ----- -- ---- ------<br>--- ----- --- --- ------ -------- ----- --- ------ ----- --<br>----- ----- ---------- --- --- ------ ------ ---- -- ------<br>------- --- ------ ----- --- ---- ------- -- ---- --- --<br>raising ------,246181.68999999762,246180.709999986,245846.324,245848.62499998417,245863.105,246196.348,,54,raising
screen,html.Screen,2_1_1_1_55,2021-04-24T17:16:53.308Z,,,,,,,,,,,,,,,,,54,,,,,,,,,,,,,,1067.4170000397135,,response,,,,100,,,,,,,Space,keypress(Space),,,,,,,,-- --- ---- --- ------ ----- ------- ---- -- --- ------- --<br>------- ---------- ------ -- ----- -- ----- -- ---- ------<br>--- ----- --- --- ------ -------- ----- --- ------ ----- --<br>----- ----- ---------- --- --- ------ ------ ---- -- ------<br>------- --- ------ ----- --- ---- ------- -- ---- --- --<br>------- money.,247264.34500003234,247263.7650000397,246179.601,246181.9700000342,246196.348,247279.775,,55,money.
Item 100,flow.Loop,2_1_1_1,2021-04-24T17:16:53.309Z,,,,,,,,,,,,,,,,,,,,,,,,,,,,,,,20799.799000039726,,completion,,,,,F,,,,,,,,,,,silence,,,,,247264.47499997448,247263.7650000397,226447.278,226448.97999998648,226463.966,247279.775,,,
Question 1,html.Screen,2_1_1_2,2021-04-24T17:16:56.692Z,,,,,,,,,,,,,,,,,,,,,,,,,,,,true,TRUE,,3367.5549999488576,,response,,,,100,F,,,,,,TRUE,click #choice-1,,,,silence,,,,,250648.215000052,250647.32999994885,247262.813,247264.52500000596,247279.775,250662.774,,,
Question 2,html.Screen,2_1_1_3,2021-04-24T17:16:59.228Z,,,,,,,,,,,,,,,,,,,,,,,,,,,,true,FALSE,,2519.980999957974,,response,,,,100,F,,,,,,FALSE,click #choice-2,,,,silence,,,,,253183.53999999817,253182.75499995798,250646.099,250648.36999995168,250662.774,253195.894,,,
Item 100,flow.Sequence,2_1_1,2021-04-24T17:16:59.228Z,,,,,,,,,,,,,,,,,,,,,,,,,,,,,,,36718.53599995797,,completion,,,,,,,,,,,,,,,,,,,,,253183.77500004135,253182.75499995798,216447.781,216453.07000004686,216464.219,253195.894,,,
End of Practice,html.Page,2_1_2,2021-04-24T17:17:06.736Z,,,,,,,,,,,,,,,,,,,,,,,,,,,,,,,7498.330999984726,,form submission,,,,,,,,,,,,,,,,,,,,,260694.4600000279,260694.22499998473,253179.386,253183.8899999857,253195.894,260695.576,,,
Practice,flow.Sequence,2_1,2021-04-24T17:17:06.736Z,,,,,,,,,,,,,,,,,,,,,,,,,,,,,,,87711.23099998472,,completion,,,,,,,,,,,,,,,,,,,,,260694.68499999493,260694.22499998473,172966.346,172952.62500003446,172982.994,260695.576,,,
Trap_instruction,html.Page,2_2_0,2021-04-24T17:17:09.741Z,,,,,,,,,,,,,,,,,,,,,,,,,,,,,,,3003.7539999739965,,form submission,,,,,,,,,,,,,,,,,,,,,263699.5149999857,263699.329999974,260678.953,260694.83499997295,260695.576,263728.708,,,
trap_trial,html.Screen,2_2_1,2021-04-24T17:17:13.585Z,,,,,,,,,,,,,,,,,,,,,,,,,,,,true,1,,3814.4570000391686,,response,,,,,,,,,,,1,click #choice-1,,,,,,,,,267543.9900000347,267543.16500003915,263712.295,263699.5749999769,263728.708,267561.934,,,
end of trap trial,html.Page,2_2_2,2021-04-24T17:17:15.360Z,,,,,,,,,,,,,,,,,,,,,,,,,,,,,,,1756.0959999657935,,form submission,,,,,,,,,,,,,,,,,,,,,269318.2950000046,269318.0299999658,267545.238,267544.1450000508,267561.934,269345.17,,,
Trap 1,flow.Sequence,2_2,2021-04-24T17:17:15.360Z,,,,,,,,,,,,,,,,,,,,,,,,,,,,,,,8622.4539999658,,completion,,,,,,,,,,,,,,,,,,,,,269318.5049999738,269318.0299999658,260678.953,260694.78999997955,260695.576,269345.17,,,
Standby,html.Page,2_3_0,2021-04-24T17:17:23.371Z,,,,,,,,,,,,,,,,,,,,,,,,,,,,,,,7999.813000000024,,timeout,,,,,,,,,,,,,,,,,,,,,277329.7500000335,277328.239,269328.445,269318.6500000302,269345.17,277344.983,,,
Holding screen,html.Screen,2_3_1_0_0,2021-04-24T17:17:30.370Z,,,,,,,,,,,,,,,,,,,,,,,,,,,,,,,6999.4220000000205,,timeout,,,,,,,,,,,,,,,,,,,,,284329.08499997575,284327.895,277328.239,277330.19500004593,277344.983,284344.405,,,
screen,html.Screen,2_3_1_0_1_0,2021-04-24T17:17:31.445Z,,,,,,,,,,,,,,,,,51,,,,,,,,,,,,,,1057.9099999556784,,response,,,,13,F,,,,,,Space,keypress(Space),,,,instrumental,,,,American -------- --- --- ---- --- --- ------ -- --------<br>---- --------- --- ------- ------------ ---------- ---------<br>--- ---------- ------- ---------- ------- -- -------- ----<br>---- --- ------ ----- ------ -- ---- --- ----- -- - -------<br>-------- -- --- --- -- ----- ----------- ----- -----------<br>---- --- ---------- --- ---- --- -- ----------,285403.3050000435,285402.3149999557,284327.895,284329.4949999545,284344.405,285411.13,,0,American
screen,html.Screen,2_3_1_0_1_1,2021-04-24T17:17:31.795Z,,,,,,,,,,,,,,,,,51,,,,,,,,,,,,,,341.4949999646051,,response,,,,13,F,,,,,,Space,keypress(Space),,,,instrumental,,,,-------- industry --- --- ---- --- --- ------ -- --------<br>---- --------- --- ------- ------------ ---------- ---------<br>--- ---------- ------- ---------- ------- -- -------- ----<br>---- --- ------ ----- ------ -- ---- --- ----- -- - -------<br>-------- -- --- --- -- ----- ----------- ----- -----------<br>---- --- ---------- --- ---- --- -- ----------,285753.6550000077,285752.6249999646,285394.508,285403.5950000398,285411.13,285761.27,,1,industry
screen,html.Screen,2_3_1_0_1_2,2021-04-24T17:17:32.170Z,,,,,,,,,,,,,,,,,51,,,,,,,,,,,,,,366.2750000539236,,response,,,,13,F,,,,,,Space,keypress(Space),,,,instrumental,,,,-------- -------- may --- ---- --- --- ------ -- --------<br>---- --------- --- ------- ------------ ---------- ---------<br>--- ---------- ------- ---------- ------- -- -------- ----<br>---- --- ------ ----- ------ -- ---- --- ----- -- - -------<br>-------- -- --- --- -- ----- ----------- ----- -----------<br>---- --- ---------- --- ---- --- -- ----------,286128.5950000165,286127.54500005394,285744.51,285753.9500000421,285761.27,286144.475,,2,may
screen,html.Screen,2_3_1_0_1_3,2021-04-24T17:17:32.529Z,,,,,,,,,,,,,,,,,51,,,,,,,,,,,,,,342.6550000231946,,response,,,,13,F,,,,,,Space,keypress(Space),,,,instrumental,,,,-------- -------- --- not ---- --- --- ------ -- --------<br>---- --------- --- ------- ------------ ---------- ---------<br>--- ---------- ------- ---------- ------- -- -------- ----<br>---- --- ------ ----- ------ -- ---- --- ----- -- - -------<br>-------- -- --- --- -- ----- ----------- ----- -----------<br>---- --- ---------- --- ---- --- -- ----------,286488.0150000099,286487.1300000232,286127.785,286128.8850000128,286144.475,286494.464,,3,not
screen,html.Screen,2_3_1_0_1_4,2021-04-24T17:17:32.818Z,,,,,,,,,,,,,,,,,51,,,,,,,,,,,,,,281.51600003492786,,response,,,,13,F,,,,,,Space,keypress(Space),,,,instrumental,,,,-------- -------- --- --- know --- --- ------ -- --------<br>---- --------- --- ------- ------------ ---------- ---------<br>--- ---------- ------- ---------- ------- -- -------- ----<br>---- --- ------ ----- ------ -- ---- --- ----- -- - -------<br>-------- -- --- --- -- ----- ----------- ----- -----------<br>---- --- ---------- --- ---- --- -- ----------,286776.53999999166,286775.9800000349,286477.803,286488.2650000509,286494.464,286798.765,,4,know
screen,html.Screen,2_3_1_0_1_5,2021-04-24T17:17:33.162Z,,,,,,,,,,,,,,,,,51,,,,,,,,,,,,,,321.4599999623606,,response,,,,13,F,,,,,,Space,keypress(Space),,,,instrumental,,,,"-------- -------- --- --- ---- it, --- ------ -- --------<br>---- --------- --- ------- ------------ ---------- ---------<br>--- ---------- ------- ---------- ------- -- -------- ----<br>---- --- ------ ----- ------ -- ---- --- ----- -- - -------<br>-------- -- --- --- -- ----- ----------- ----- -----------<br>---- --- ---------- --- ---- --- -- ----------",287121.1599999806,287120.2249999624,286761.113,286776.685000048,286798.765,287127.665,,5,"it,"
screen,html.Screen,2_3_1_0_1_6,2021-04-24T17:17:33.515Z,,,,,,,,,,,,,,,,,51,,,,,,,,,,,,,,344.7550000055344,,response,,,,13,F,,,,,,Space,keypress(Space),,,,instrumental,,,,-------- -------- --- --- ---- --- but ------ -- --------<br>---- --------- --- ------- ------------ ---------- ---------<br>--- ---------- ------- ---------- ------- -- -------- ----<br>---- --- ------ ----- ------ -- ---- --- ----- -- - -------<br>-------- -- --- --- -- ----- ----------- ----- -----------<br>---- --- ---------- --- ---- --- -- ----------,287473.3100000303,287472.4200000055,287111.081,287121.44500005525,287127.665,287477.667,,6,but
screen,html.Screen,2_3_1_0_1_7,2021-04-24T17:17:33.815Z,,,,,,,,,,,,,,,,,51,,,,,,,,,,,,,,294.81300004327204,,response,,,,13,F,,,,,,Space,keypress(Space),,,,instrumental,,,,-------- -------- --- --- ---- --- --- debate -- --------<br>---- --------- --- ------- ------------ ---------- ---------<br>--- ---------- ------- ---------- ------- -- -------- ----<br>---- --- ------ ----- ------ -- ---- --- ----- -- - -------<br>-------- -- --- --- -- ----- ----------- ----- -----------<br>---- --- ---------- --- ---- --- -- ----------,287773.3549999539,287772.4800000433,287461.036,287473.55500003323,287477.667,287777.709,,7,debate
screen,html.Screen,2_3_1_0_1_8,2021-04-24T17:17:34.142Z,,,,,,,,,,,,,,,,,51,,,,,,,,,,,,,,321.45099998341175,,response,,,,13,F,,,,,,Space,keypress(Space),,,,instrumental,,,,-------- -------- --- --- ---- --- --- ------ in --------<br>---- --------- --- ------- ------------ ---------- ---------<br>--- ---------- ------- ---------- ------- -- -------- ----<br>---- --- ------ ----- ------ -- ---- --- ----- -- - -------<br>-------- -- --- --- -- ----- ----------- ----- -----------<br>---- --- ---------- --- ---- --- -- ----------,288100.19499994814,288099.1599999834,287761.03,287773.5999999568,287777.709,288110.988,,8,in
screen,html.Screen,2_3_1_0_1_9,2021-04-24T17:17:34.442Z,,,,,,,,,,,,,,,,,51,,,,,,,,,,,,,,288.806999975699,,response,,,,13,F,,,,,,Space,keypress(Space),,,,instrumental,,,,-------- -------- --- --- ---- --- --- ------ -- Congress<br>---- --------- --- ------- ------------ ---------- ---------<br>--- ---------- ------- ---------- ------- -- -------- ----<br>---- --- ------ ----- ------ -- ---- --- ----- -- - -------<br>-------- -- --- --- -- ----- ----------- ----- -----------<br>---- --- ---------- --- ---- --- -- ----------,288400.735000032,288399.7949999757,288094.342,288100.5000000587,288110.988,288410.991,,9,Congress
screen,html.Screen,2_3_1_0_1_10,2021-04-24T17:17:34.797Z,,,,,,,,,,,,,,,,,51,,,,,,,,,,,,,,344.05900003615534,,response,,,,13,F,,,,,,Space,keypress(Space),,,,instrumental,,,,-------- -------- --- --- ---- --- --- ------ -- --------<br>over --------- --- ------- ------------ ---------- ---------<br>--- ---------- ------- ---------- ------- -- -------- ----<br>---- --- ------ ----- ------ -- ---- --- ----- -- - -------<br>-------- -- --- --- -- ----- ----------- ----- -----------<br>---- --- ---------- --- ---- --- -- ----------,288756.04500004556,288755.05000003614,288394.369,288400.9950000327,288410.991,288760.926,,10,over
screen,html.Screen,2_3_1_0_1_11,2021-04-24T17:17:35.073Z,,,,,,,,,,,,,,,,,51,,,,,,,,,,,,,,269.45900004915893,,response,,,,13,F,,,,,,Space,keypress(Space),,,,instrumental,,,,-------- -------- --- --- ---- --- --- ------ -- --------<br>---- reforming --- ------- ------------ ---------- ---------<br>--- ---------- ------- ---------- ------- -- -------- ----<br>---- --- ------ ----- ------ -- ---- --- ----- -- - -------<br>-------- -- --- --- -- ----- ----------- ----- -----------<br>---- --- ---------- --- ---- --- -- ----------,289031.3699999824,289030.38500004914,288744.331,288756.3249999657,288760.926,289044.456,,11,reforming
screen,html.Screen,2_3_1_0_1_12,2021-04-24T17:17:35.418Z,,,,,,,,,,,,,,,,,51,,,,,,,,,,,,,,331.96399998595007,,response,,,,13,F,,,,,,Space,keypress(Space),,,,instrumental,,,,-------- -------- --- --- ---- --- --- ------ -- --------<br>---- --------- the ------- ------------ ---------- ---------<br>--- ---------- ------- ---------- ------- -- -------- ----<br>---- --- ------ ----- ------ -- ---- --- ----- -- - -------<br>-------- -- --- --- -- ----- ----------- ----- -----------<br>---- --- ---------- --- ---- --- -- ----------,289376.8899999559,289376.41999998596,289027.626,289031.6650000168,289044.456,289418.54,,12,the
screen,html.Screen,2_3_1_0_1_13,2021-04-24T17:17:35.705Z,,,,,,,,,,,,,,,,,51,,,,,,,,,,,,,,244.28500000672648,,response,,,,13,F,,,,,,Space,keypress(Space),,,,instrumental,,,,-------- -------- --- --- ---- --- --- ------ -- --------<br>---- --------- --- federal ------------ ---------- ---------<br>--- ---------- ------- ---------- ------- -- -------- ----<br>---- --- ------ ----- ------ -- ---- --- ----- -- - -------<br>-------- -- --- --- -- ----- ----------- ----- -----------<br>---- --- ---------- --- ---- --- -- ----------,289663.6850000359,289662.8250000067,289360.978,289376.9950000569,289418.54,289677.669,,13,federal
screen,html.Screen,2_3_1_0_1_14,2021-04-24T17:17:36.079Z,,,,,,,,,,,,,,,,,51,,,,,,,,,,,,,,359.21100002876483,,response,,,,13,F,,,,,,Space,keypress(Space),,,,instrumental,,,,-------- -------- --- --- ---- --- --- ------ -- --------<br>---- --------- --- ------- government's ---------- ---------<br>--- ---------- ------- ---------- ------- -- -------- ----<br>---- --- ------ ----- ------ -- ---- --- ----- -- - -------<br>-------- -- --- --- -- ----- ----------- ----- -----------<br>---- --- ---------- --- ---- --- -- ----------,290037.74000005797,290036.88000002876,289660.924,289663.93999999855,289677.669,290044.308,,14,government's
screen,html.Screen,2_3_1_0_1_15,2021-04-24T17:17:36.512Z,,,,,,,,,,,,,,,,,51,,,,,,,,,,,,,,425.19700004457263,,response,,,,13,F,,,,,,Space,keypress(Space),,,,instrumental,,,,-------- -------- --- --- ---- --- --- ------ -- --------<br>---- --------- --- ------- ------------ regulatory ---------<br>--- ---------- ------- ---------- ------- -- -------- ----<br>---- --- ------ ----- ------ -- ---- --- ----- -- - -------<br>-------- -- --- --- -- ----- ----------- ----- -----------<br>---- --- ---------- --- ---- --- -- ----------,290470.41499998886,290469.5050000446,290027.572,290038.0100000184,290044.308,290477.737,,15,regulatory
screen,html.Screen,2_3_1_0_1_16,2021-04-24T17:17:37.224Z,,,,,,,,,,,,,,,,,51,,,,,,,,,,,,,,703.8930000063847,,response,,,,13,F,,,,,,Space,keypress(Space),,,,instrumental,,,,-------- -------- --- --- ---- --- --- ------ -- --------<br>---- --------- --- ------- ------------ ---------- apparatus<br>--- ---------- ------- ---------- ------- -- -------- ----<br>---- --- ------ ----- ------ -- ---- --- ----- -- - -------<br>-------- -- --- --- -- ----- ----------- ----- -----------<br>---- --- ---------- --- ---- --- -- ----------,291182.58999998216,291181.6300000064,290460.929,290470.6699999515,290477.737,291194.387,,16,apparatus
screen,html.Screen,2_3_1_0_1_17,2021-04-24T17:17:37.635Z,,,,,,,,,,,,,,,,,51,,,,,,,,,,,,,,399.0930000395747,,response,,,,13,F,,,,,,Space,keypress(Space),,,,instrumental,,,,-------- -------- --- --- ---- --- --- ------ -- --------<br>---- --------- --- ------- ------------ ---------- ---------<br>may ---------- ------- ---------- ------- -- -------- ----<br>---- --- ------ ----- ------ -- ---- --- ----- -- - -------<br>-------- -- --- --- -- ----- ----------- ----- -----------<br>---- --- ---------- --- ---- --- -- ----------,291594.06499995384,291593.48000003956,291177.487,291182.89499997627,291194.387,291610.829,,17,may
screen,html.Screen,2_3_1_0_1_18,2021-04-24T17:17:38.148Z,,,,,,,,,,,,,,,,,51,,,,,,,,,,,,,,495.17599995050114,,response,,,,13,F,,,,,,Space,keypress(Space),,,,instrumental,,,,-------- -------- --- --- ---- --- --- ------ -- --------<br>---- --------- --- ------- ------------ ---------- ---------<br>--- profoundly ------- ---------- ------- -- -------- ----<br>---- --- ------ ----- ------ -- ---- --- ----- -- - -------<br>-------- -- --- --- -- ----- ----------- ----- -----------<br>---- --- ---------- --- ---- --- -- ----------,292107.1000000229,292106.0049999505,291594.215,291594.81499996036,291610.829,292110.789,,18,profoundly
screen,html.Screen,2_3_1_0_1_19,2021-04-24T17:17:38.698Z,,,,,,,,,,,,,,,,,51,,,,,,,,,,,,,,545.0259999473346,,response,,,,13,F,,,,,,Space,keypress(Space),,,,instrumental,,,,-------- -------- --- --- ---- --- --- ------ -- --------<br>---- --------- --- ------- ------------ ---------- ---------<br>--- ---------- improve ---------- ------- -- -------- ----<br>---- --- ------ ----- ------ -- ---- --- ----- -- - -------<br>-------- -- --- --- -- ----- ----------- ----- -----------<br>---- --- ---------- --- ---- --- -- ----------,292656.76499996334,292655.8149999473,292094.184,292107.3800000595,292110.789,292660.779,,19,improve
screen,html.Screen,2_3_1_0_1_20,2021-04-24T17:17:39.267Z,,,,,,,,,,,,,,,,,51,,,,,,,,,,,,,,563.7110000514658,,response,,,,13,F,,,,,,Space,keypress(Space),,,,instrumental,,,,-------- -------- --- --- ---- --- --- ------ -- --------<br>---- --------- --- ------- ------------ ---------- ---------<br>--- ---------- ------- companies' ------- -- -------- ----<br>---- --- ------ ----- ------ -- ---- --- ----- -- - -------<br>-------- -- --- --- -- ----- ----------- ----- -----------<br>---- --- ---------- --- ---- --- -- ----------,293225.4149999935,293224.49000005145,292644.141,292657.0200000424,292660.779,293227.388,,20,companies'
screen,html.Screen,2_3_1_0_1_21,2021-04-24T17:17:40.017Z,,,,,,,,,,,,,,,,,51,,,,,,,,,,,,,,747.2319999936153,,response,,,,13,F,,,,,,Space,keypress(Space),,,,instrumental,,,,-------- -------- --- --- ---- --- --- ------ -- --------<br>---- --------- --- ------- ------------ ---------- ---------<br>--- ---------- ------- ---------- ability -- -------- ----<br>---- --- ------ ----- ------ -- ---- --- ----- -- - -------<br>-------- -- --- --- -- ----- ----------- ----- -----------<br>---- --- ---------- --- ---- --- -- ----------,293975.5750000477,293974.6199999936,293210.776,293225.6599999964,293227.388,293998.433,,21,ability
screen,html.Screen,2_3_1_0_1_22,2021-04-24T17:17:40.375Z,,,,,,,,,,,,,,,,,51,,,,,,,,,,,,,,334.11700005008606,,response,,,,13,F,,,,,,Space,keypress(Space),,,,instrumental,,,,-------- -------- --- --- ---- --- --- ------ -- --------<br>---- --------- --- ------- ------------ ---------- ---------<br>--- ---------- ------- ---------- ------- to -------- ----<br>---- --- ------ ----- ------ -- ---- --- ----- -- - -------<br>-------- -- --- --- -- ----- ----------- ----- -----------<br>---- --- ---------- --- ---- --- -- ----------,294333.54000002146,294332.5500000501,293960.688,293975.8750000037,293998.433,294344.104,,22,to
screen,html.Screen,2_3_1_0_1_23,2021-04-24T17:17:40.765Z,,,,,,,,,,,,,,,,,51,,,,,,,,,,,,,,379.09600000764476,,response,,,,13,F,,,,,,Space,keypress(Space),,,,instrumental,,,,-------- -------- --- --- ---- --- --- ------ -- --------<br>---- --------- --- ------- ------------ ---------- ---------<br>--- ---------- ------- ---------- ------- -- survive. ----<br>---- --- ------ ----- ------ -- ---- --- ----- -- - -------<br>-------- -- --- --- -- ----- ----------- ----- -----------<br>---- --- ---------- --- ---- --- -- ----------,294724.1599999834,294723.20000000764,294327.405,294333.81500001997,294344.104,294727.337,,23,survive.
screen,html.Screen,2_3_1_0_1_24,2021-04-24T17:17:41.298Z,,,,,,,,,,,,,,,,,51,,,,,,,,,,,,,,527.9580000390415,,response,,,,13,F,,,,,,Space,keypress(Space),,,,instrumental,,,,-------- -------- --- --- ---- --- --- ------ -- --------<br>---- --------- --- ------- ------------ ---------- ---------<br>--- ---------- ------- ---------- ------- -- -------- This<br>---- --- ------ ----- ------ -- ---- --- ----- -- - -------<br>-------- -- --- --- -- ----- ----------- ----- -----------<br>---- --- ---------- --- ---- --- -- ----------,295256.3099999679,295255.29500003904,294710.711,294724.44500005804,294727.337,295260.574,,24,This
screen,html.Screen,2_3_1_0_1_25,2021-04-24T17:17:41.864Z,,,,,,,,,,,,,,,,,51,,,,,,,,,,,,,,560.8460000511259,,response,,,,13,F,,,,,,Space,keypress(Space),,,,instrumental,,,,-------- -------- --- --- ---- --- --- ------ -- --------<br>---- --------- --- ------- ------------ ---------- ---------<br>--- ---------- ------- ---------- ------- -- -------- ----<br>week --- ------ ----- ------ -- ---- --- ----- -- - -------<br>-------- -- --- --- -- ----- ----------- ----- -----------<br>---- --- ---------- --- ---- --- -- ----------,295822.3650000291,295821.42000005115,295244.081,295256.58499996644,295260.574,295827.31,,25,week
screen,html.Screen,2_3_1_0_1_26,2021-04-24T17:17:42.233Z,,,,,,,,,,,,,,,,,51,,,,,,,,,,,,,,363.54999997332925,,response,,,,13,F,,,,,,Space,keypress(Space),,,,instrumental,,,,-------- -------- --- --- ---- --- --- ------ -- --------<br>---- --------- --- ------- ------------ ---------- ---------<br>--- ---------- ------- ---------- ------- -- -------- ----<br>---- the ------ ----- ------ -- ---- --- ----- -- - -------<br>-------- -- --- --- -- ----- ----------- ----- -----------<br>---- --- ---------- --- ---- --- -- ----------,296191.8900000164,296190.8599999733,295810.665,295822.64999998733,295827.31,296193.934,,26,the
screen,html.Screen,2_3_1_0_1_27,2021-04-24T17:17:42.558Z,,,,,,,,,,,,,,,,,51,,,,,,,,,,,,,,322.13600001239683,,response,,,,13,F,,,,,,Space,keypress(Space),,,,instrumental,,,,-------- -------- --- --- ---- --- --- ------ -- --------<br>---- --------- --- ------- ------------ ---------- ---------<br>--- ---------- ------- ---------- ------- -- -------- ----<br>---- --- Senate ----- ------ -- ---- --- ----- -- - -------<br>-------- -- --- --- -- ----- ----------- ----- -----------<br>---- --- ---------- --- ---- --- -- ----------,296517.04499998596,296516.0700000124,296177.233,296192.17499997467,296193.934,296527.215,,27,Senate
screen,html.Screen,2_3_1_0_1_28,2021-04-24T17:17:43.044Z,,,,,,,,,,,,,,,,,51,,,,,,,,,,,,,,474.094999963243,,response,,,,13,F,,,,,,Space,keypress(Space),,,,instrumental,,,,-------- -------- --- --- ---- --- --- ------ -- --------<br>---- --------- --- ------- ------------ ---------- ---------<br>--- ---------- ------- ---------- ------- -- -------- ----<br>---- --- ------ seems ------ -- ---- --- ----- -- - -------<br>-------- -- --- --- -- ----- ----------- ----- -----------<br>---- --- ---------- --- ---- --- -- ----------,297002.25000001956,297001.30999996327,296510.657,296517.33499998227,296527.215,297010.655,,28,seems
screen,html.Screen,2_3_1_0_1_29,2021-04-24T17:17:43.378Z,,,,,,,,,,,,,,,,,51,,,,,,,,,,,,,,325.2199999897275,,response,,,,13,F,,,,,,Space,keypress(Space),,,,instrumental,,,,-------- -------- --- --- ---- --- --- ------ -- --------<br>---- --------- --- ------- ------------ ---------- ---------<br>--- ---------- ------- ---------- ------- -- -------- ----<br>---- --- ------ ----- poised -- ---- --- ----- -- - -------<br>-------- -- --- --- -- ----- ----------- ----- -----------<br>---- --- ---------- --- ---- --- -- ----------,297336.8550000014,297335.87499998976,296993.976,297002.53000005614,297010.655,297343.866,,29,poised
screen,html.Screen,2_3_1_0_1_30,2021-04-24T17:17:43.803Z,,,,,,,,,,,,,,,,,51,,,,,,,,,,,,,,417.0289999558008,,response,,,,13,F,,,,,,Space,keypress(Space),,,,instrumental,,,,-------- -------- --- --- ---- --- --- ------ -- --------<br>---- --------- --- ------- ------------ ---------- ---------<br>--- ---------- ------- ---------- ------- -- -------- ----<br>---- --- ------ ----- ------ to ---- --- ----- -- - -------<br>-------- -- --- --- -- ----- ----------- ----- -----------<br>---- --- ---------- --- ---- --- -- ----------,297761.9349999586,297760.8949999558,297327.274,297337.1449999977,297343.866,297777.3,,30,to
screen,html.Screen,2_3_1_0_1_31,2021-04-24T17:17:44.165Z,,,,,,,,,,,,,,,,,51,,,,,,,,,,,,,,345.66499998775544,,response,,,,13,F,,,,,,Space,keypress(Space),,,,instrumental,,,,-------- -------- --- --- ---- --- --- ------ -- --------<br>---- --------- --- ------- ------------ ---------- ---------<br>--- ---------- ------- ---------- ------- -- -------- ----<br>---- --- ------ ----- ------ -- join --- ----- -- - -------<br>-------- -- --- --- -- ----- ----------- ----- -----------<br>---- --- ---------- --- ---- --- -- ----------,298124.0299999481,298122.96499998774,297760.589,297762.22000003327,297777.3,298127.267,,31,join
screen,html.Screen,2_3_1_0_1_32,2021-04-24T17:17:44.450Z,,,,,,,,,,,,,,,,,51,,,,,,,,,,,,,,280.52299996837974,,response,,,,13,F,,,,,,Space,keypress(Space),,,,instrumental,,,,-------- -------- --- --- ---- --- --- ------ -- --------<br>---- --------- --- ------- ------------ ---------- ---------<br>--- ---------- ------- ---------- ------- -- -------- ----<br>---- --- ------ ----- ------ -- ---- the ----- -- - -------<br>-------- -- --- --- -- ----- ----------- ----- -----------<br>---- --- ---------- --- ---- --- -- ----------,298408.844999969,298407.7899999684,298110.509,298124.31500002276,298127.267,298428.669,,32,the
screen,html.Screen,2_3_1_0_1_33,2021-04-24T17:17:44.731Z,,,,,,,,,,,,,,,,,51,,,,,,,,,,,,,,260.27600005990826,,response,,,,13,F,,,,,,Space,keypress(Space),,,,instrumental,,,,-------- -------- --- --- ---- --- --- ------ -- --------<br>---- --------- --- ------- ------------ ---------- ---------<br>--- ---------- ------- ---------- ------- -- -------- ----<br>---- --- ------ ----- ------ -- ---- --- House -- - -------<br>-------- -- --- --- -- ----- ----------- ----- -----------<br>---- --- ---------- --- ---- --- -- ----------,298689.9749999866,298688.9450000599,298393.843,298409.1250000056,298428.669,298693.791,,33,House
screen,html.Screen,2_3_1_0_1_34,2021-04-24T17:17:45.056Z,,,,,,,,,,,,,,,,,51,,,,,,,,,,,,,,320.2889999935287,,response,,,,13,F,,,,,,Space,keypress(Space),,,,instrumental,,,,-------- -------- --- --- ---- --- --- ------ -- --------<br>---- --------- --- ------- ------------ ---------- ---------<br>--- ---------- ------- ---------- ------- -- -------- ----<br>---- --- ------ ----- ------ -- ---- --- ----- in - -------<br>-------- -- --- --- -- ----- ----------- ----- -----------<br>---- --- ---------- --- ---- --- -- ----------,299015.0549999671,299014.07999999356,298677.225,298690.270000021,298693.791,299027.334,,34,in
screen,html.Screen,2_3_1_0_1_35,2021-04-24T17:17:45.607Z,,,,,,,,,,,,,,,,,51,,,,,,,,,,,,,,538.0659999631462,,response,,,,13,F,,,,,,Space,keypress(Space),,,,instrumental,,,,-------- -------- --- --- ---- --- --- ------ -- --------<br>---- --------- --- ------- ------------ ---------- ---------<br>--- ---------- ------- ---------- ------- -- -------- ----<br>---- --- ------ ----- ------ -- ---- --- ----- -- a -------<br>-------- -- --- --- -- ----- ----------- ----- -----------<br>---- --- ---------- --- ---- --- -- ----------,299565.8800000092,299565.3999999631,299010.525,299015.3350000037,299027.334,299577.191,,35,a
screen,html.Screen,2_3_1_0_1_36,2021-04-24T17:17:45.900Z,,,,,,,,,,,,,,,,,51,,,,,,,,,,,,,,280.29899996577296,,response,,,,13,F,,,,,,Space,keypress(Space),,,,instrumental,,,,-------- -------- --- --- ---- --- --- ------ -- --------<br>---- --------- --- ------- ------------ ---------- ---------<br>--- ---------- ------- ---------- ------- -- -------- ----<br>---- --- ------ ----- ------ -- ---- --- ----- -- - massive<br>-------- -- --- --- -- ----- ----------- ----- -----------<br>---- --- ---------- --- ---- --- -- ----------,299858.51000004914,299857.48999996576,299560.412,299565.9900000319,299577.191,299860.435,,36,massive
