sender,sender_type,sender_id,timestamp,meta,,Blues,Classical,Country,Dance,Electronic,Folk,Gospel,Hip-Hop,Jazz,Latin,Musical/Film,New-age,Pop,Prolific_id,Provo_ID,R&B,Rap,Reggae,Religious,Rock,Soul,Swing,Traditional,age,artist_name,correct,correctResponse,distraction,duration,education,ended_on,familiarity,gender,headphone_check_performance,item,list,music_frequency,offensiveness,pleasantness,position_correct,preference,response,response_action,snippet_file,song_name,song_rating,sound,stimulus_1,stimulus_2,stimulus_3,text,time_commit,time_end,time_render,time_run,time_show,time_switch,url,word,word_ID
Prolific ID,html.Form,0,2021-04-24T19:33:53.369Z,"{""labjs_version"":""20.2.2"",""labjs_build"":{""flavor"":""production"",""commit"":""a25486e0c714a0ae2ce03ff94b7bb6896854dcfa""},""location"":""https://run.pavlovia.org/mvasilev/prolific_music_a/"",""userAgent"":""Mozilla/5.0 (Windows NT 10.0; Win64; x64) AppleWebKit/537.36 (KHTML, like Gecko) Chrome/89.0.4389.128 Safari/537.36"",""platform"":""Win32"",""language"":""en-US"",""locale"":""en-US"",""timeZone"":""Europe/London"",""timezoneOffset"":-60,""screen_width"":1366,""screen_height"":768,""scroll_width"":1366,""scroll_height"":609,""window_innerWidth"":1366,""window_innerHeight"":657,""devicePixelRatio"":1}",,,,,,,,,,,,,,,5d8cef3c28e183001a335ab0,,,,,,,,,,,,,,,9335.724000001675,,form submission,,,,,,,,,,,,,,,,,,,,,39010.64999998198,39005.55000000168,29602.817,29604.005000001052,29669.826,39071.241,{},,
Introduction,html.Screen,1_0,2021-04-24T19:33:59.769Z,,,,,,,,,,,,,,,,,,,,,,,,,,,,,,,6330.73899999509,,response,,,,,,,,,,,continue,click button,,,,,,,,,45411.01999999955,45401.97999999509,38969.683,39013.22500000242,39071.241,45452.51,,,
Volume calibration,html.Screen,1_1,2021-04-24T19:34:18.668Z,,,,,,,,,,,,,,,,,,,,,,,,,,,,,,,18845.984999995453,,response,,,,,,,,,,,continue,click button,,,,,,,,,64310.06499999785,64298.494999995455,45402.487,45411.68999997899,45452.51,64327.319,,,
Task instructions,html.Screen,1_2,2021-04-24T19:34:22.749Z,,,,,,,,,,,,,,,,,,,,,,,,,,,,,,,4062.1409999766765,,response,,,,,,,,,,,continue,click button,,,,,,,,,68390.78499999596,68389.45999997668,64286.142,64310.56499999249,64327.319,68401.874,,,
Sounds,html.Screen,1_3_0_0,2021-04-24T19:34:27.004Z,,,,,,,,,,,,,,,,,,,,,,,,,,,,,,,4251.006999999998,,timeout,,,,,,,,,2,,,,,,,,O,S,I,,72645.67499997793,72635.019,68385.322,68391.11499997671,68401.874,72652.881,,,
Judgement,html.Screen,1_3_0_1,2021-04-24T19:34:27.704Z,,,,,,,,,,,,,,,,,,,,,,,,,,,,true,2,,690.3539999784552,,response,,,,,,,,,2,,2,click #choice-2,,,,,O,S,I,,73345.71500000311,73343.23499997845,72635.019,72646.28499999526,72652.881,73351.583,,,
Trial,flow.Sequence,1_3_0,2021-04-24T19:34:27.705Z,,,,,,,,,,,,,,,,,,,,,,,,,,,,,,,4941.360999978453,,completion,,,,,,,,,2,,,,,,,,O,S,I,,73346.70999998343,73343.23499997845,68385.322,68391.0399999877,68401.874,73351.583,,,
Sounds,html.Screen,1_3_1_0,2021-04-24T19:34:31.950Z,,,,,,,,,,,,,,,,,,,,,,,,,,,,,,,4250.918000000005,,timeout,,,,,,,,,1,,,,,,,,S,O,I,,77591.67999998317,77584.359,73334.735,73347.24000000278,73351.583,77602.501,,,
Judgement,html.Screen,1_3_1_1,2021-04-24T19:34:32.512Z,,,,,,,,,,,,,,,,,,,,,,,,,,,,true,1,,547.3090000026132,,response,,,,,,,,,1,,1,click #choice-1,,,,,S,O,I,,78154.24999999232,78149.81000000262,77584.359,77592.21000000252,77602.501,78169.198,,,
Trial,flow.Sequence,1_3_1,2021-04-24T19:34:32.513Z,,,,,,,,,,,,,,,,,,,,,,,,,,,,,,,4798.227000002618,,completion,,,,,,,,,1,,,,,,,,S,O,I,,78154.95499997633,78149.81000000262,73334.735,73347.06999998889,73351.583,78169.198,,,
Sounds,html.Screen,1_3_2_0,2021-04-24T19:34:36.761Z,,,,,,,,,,,,,,,,,,,,,,,,,,,,,,,4249.739000000001,,timeout,,,,,,,,,1,,,,,,,,S,I,O,,82402.48999997857,82400.863,78152.103,78155.6500000006,78169.198,82418.937,,,
Judgement,html.Screen,1_3_2_1,2021-04-24T19:34:37.256Z,,,,,,,,,,,,,,,,,,,,,,,,,,,,true,1,,476.80299997809925,,response,,,,,,,,,1,,1,click #choice-1,,,,,S,I,O,,82897.99499997753,82895.7399999781,82400.863,82402.90499999537,82418.937,82900.878,,,
Trial,flow.Sequence,1_3_2,2021-04-24T19:34:37.257Z,,,,,,,,,,,,,,,,,,,,,,,,,,,,,,,4726.541999978101,,completion,,,,,,,,,1,,,,,,,,S,I,O,,82898.6900000018,82895.7399999781,78152.103,78155.28499998618,78169.198,82900.878,,,
Sounds,html.Screen,1_3_3_0,2021-04-24T19:34:41.493Z,,,,,,,,,,,,,,,,,,,,,,,,,,,,,,,4249.748000000007,,timeout,,,,,,,,,3,,,,,,,,I,O,S,,87135.23499999428,87133.879,82884.324,82899.17999997851,82900.878,87150.626,,,
Judgement,html.Screen,1_3_3_1,2021-04-24T19:34:41.990Z,,,,,,,,,,,,,,,,,,,,,,,,,,,,true,3,,477.8989999782498,,response,,,,,,,,,3,,3,click #choice-3,,,,,I,O,S,,87632.23999997717,87628.52499997825,87133.879,87135.39999999921,87150.626,87634.323,,,
Trial,flow.Sequence,1_3_3,2021-04-24T19:34:41.991Z,,,,,,,,,,,,,,,,,,,,,,,,,,,,,,,4727.646999978257,,completion,,,,,,,,,3,,,,,,,,I,O,S,,87632.97499998589,87628.52499997825,82884.324,82899.00499998475,82900.878,87634.323,,,
Sounds,html.Screen,1_3_4_0,2021-04-24T19:34:46.238Z,,,,,,,,,,,,,,,,,,,,,,,,,,,,,,,4249.793999999994,,timeout,,,,,,,,,2,,,,,,,,I,S,O,,91879.39999997616,91867.563,87617.313,87633.51499999408,87634.323,91884.117,,,
Judgement,html.Screen,1_3_4_1,2021-04-24T19:34:46.764Z,,,,,,,,,,,,,,,,,,,,,,,,,,,,true,2,,518.6829999816546,,response,,,,,,,,,2,,2,click #choice-2,,,,,I,S,O,,92405.32999997959,92402.79999998165,91867.563,91879.6849999926,91884.117,92421.145,,,
Trial,flow.Sequence,1_3_4,2021-04-24T19:34:46.764Z,,,,,,,,,,,,,,,,,,,,,,,,,,,,,,,4768.476999981649,,completion,,,,,,,,,2,,,,,,,,I,S,O,,92406.0649999883,92402.79999998165,87617.313,87633.35499999812,87634.323,92421.145,,,
Sounds,html.Screen,1_3_5_0,2021-04-24T19:34:51.011Z,,,,,,,,,,,,,,,,,,,,,,,,,,,,,,,4249.3369999999995,,timeout,,,,,,,,,3,,,,,,,,O,I,S,,96653.07499998016,96650.783,92400.539,92406.6349999921,92421.145,96670.482,,,
Judgement,html.Screen,1_3_5_1,2021-04-24T19:34:51.623Z,,,,,,,,,,,,,,,,,,,,,,,,,,,,true,3,,592.1929999762942,,response,,,,,,,,,3,,3,click #choice-3,,,,,O,I,S,,97265.2399999788,97262.6749999763,96650.783,96653.51999999257,96670.482,97318.05,,,
Trial,flow.Sequence,1_3_5,2021-04-24T19:34:51.624Z,,,,,,,,,,,,,,,,,,,,,,,,,,,,,,,4841.529999976294,,completion,,,,,,,,,3,,,,,,,,O,I,S,,97265.92999999411,97262.6749999763,92400.539,92406.45999999833,92421.145,97318.05,,,
Task,flow.Loop,1_3,2021-04-24T19:34:51.643Z,,,,,,,,,,,,,,,,,,,,,,,,,,,,,,,28860.8009999763,,completion,,,1,,,,,,,,,,,,,,,,,,97285.0749999925,97262.6749999763,68385.322,68390.95499998075,68401.874,97318.05,,,
Trap,html.Screen,1_4,2021-04-24T19:34:51.657Z,,,,,,,,,,,,,,,,,,,,,,,,,,,,,,,NaN,,skipped,,,,,,,,,,,,,,,,,,,,,97298.45499998191,97262.6749999763,,97297.80000000028,,97318.05,,,
Thanks,html.Screen,1_5,2021-04-24T19:34:54.031Z,,,,,,,,,,,,,,,,,,,,,,,,,,,,,,,2352.5999999854685,,response,,,,,,,,,,,continue,click button,,,,,,,,,99672.60999997961,99670.64999998547,97250.126,97298.98999998113,97318.05,105854.069,,,
Headphone screening,flow.Sequence,1,2021-04-24T19:34:54.031Z,,,,,,,,,,,,,,,,,,,,,,,,,,,,,,,60599.40899998547,,completion,,,,,,,,,,,,,,,,,,,,,99673.15999997663,99670.64999998547,38969.683,39013.054999988526,39071.241,105854.069,,,
Instructions,html.Page,2_0,2021-04-24T19:35:11.536Z,,,,,,,,,,,,,,,,,,,,,,,,,,,,,,,11321.896000002176,,form submission,,,,,,,,,,,,,,,,,,,,,117178.12499997672,117175.96500000218,105833.41,105858.95500000333,105854.069,117200.253,,,
Holding screen,html.Screen,2_1_0_0,2021-04-24T19:35:21.545Z,,,,,,,,,,,,,,,,,,,,,,,,,,,,,,,10065.142999999996,,timeout,,,,,,,,,,,,,,,,,,,,,127183.87999999686,127182.272,117166.079,117178.98999998579,117200.253,127265.396,,,
screen,html.Screen,2_1_0_1_0,2021-04-24T19:35:23.180Z,,,,,,,,,,,,,,,,,53,,,,,,,,,,,,,,1543.933999989138,,response,,,,99,,,,,,,Space,keypress(Space),,,,,,,,When -- ----- -- ------ - ------- --- ----------<br>------------- ------ ------ ---- ---- ------- ----- -- ----<br>-------- ------- -- ---------- --- - --- ----- ----- ----<br>---- --- --- ----- --- ---- ---- ------- ----- ---- -------<br>--- --- -- ----- -- --- ---- -- --- ---- -- ------ ------<br>--- ----- -- ----,128819.04999999097,128809.32999998913,127182.272,127184.5650000032,127265.396,128833.165,,0,When
screen,html.Screen,2_1_0_1_1,2021-04-24T19:35:23.566Z,,,,,,,,,,,,,,,,,53,,,,,,,,,,,,,,370.11999999596446,,response,,,,99,,,,,,,Space,keypress(Space),,,,,,,,---- it ----- -- ------ - ------- --- ----------<br>------------- ------ ------ ---- ---- ------- ----- -- ----<br>-------- ------- -- ---------- --- - --- ----- ----- ----<br>---- --- --- ----- --- ---- ---- ------- ----- ---- -------<br>--- --- -- ----- -- --- ---- -- --- ---- -- ------ ------<br>--- ----- -- ----,129205.13999997638,129203.28499999596,128815.421,128819.60999997682,128833.165,129215.297,,1,it
screen,html.Screen,2_1_0_1_2,2021-04-24T19:35:23.934Z,,,,,,,,,,,,,,,,,53,,,,,,,,,,,,,,355.60800000048766,,response,,,,99,,,,,,,Space,keypress(Space),,,,,,,,---- -- comes -- ------ - ------- --- ----------<br>------------- ------ ------ ---- ---- ------- ----- -- ----<br>-------- ------- -- ---------- --- - --- ----- ----- ----<br>---- --- --- ----- --- ---- ---- ------- ----- ---- -------<br>--- --- -- ----- -- --- ---- -- --- ---- -- ------ ------<br>--- ----- -- ----,129572.79499998549,129570.9050000005,129198.824,129205.56499998202,129215.297,129583.196,,2,comes
screen,html.Screen,2_1_0_1_3,2021-04-24T19:35:24.288Z,,,,,,,,,,,,,,,,,53,,,,,,,,,,,,,,342.0489999912679,,response,,,,99,,,,,,,Space,keypress(Space),,,,,,,,---- -- ----- to ------ - ------- --- ----------<br>------------- ------ ------ ---- ---- ------- ----- -- ----<br>-------- ------- -- ---------- --- - --- ----- ----- ----<br>---- --- --- ----- --- ---- ---- ------- ----- ---- -------<br>--- --- -- ----- -- --- ---- -- --- ---- -- ------ ------<br>--- ----- -- ----,129927.07499998505,129925.24499999126,129566.449,129573.22999997996,129583.196,129931.937,,3,to
screen,html.Screen,2_1_0_1_4,2021-04-24T19:35:24.614Z,,,,,,,,,,,,,,,,,53,,,,,,,,,,,,,,318.7929999997432,,response,,,,99,,,,,,,Space,keypress(Space),,,,,,,,---- -- ----- -- having - ------- --- ----------<br>------------- ------ ------ ---- ---- ------- ----- -- ----<br>-------- ------- -- ---------- --- - --- ----- ----- ----<br>---- --- --- ----- --- ---- ---- ------- ----- ---- -------<br>--- --- -- ----- -- --- ---- -- --- ---- -- ------ ------<br>--- ----- -- ----,130253.04499999038,130250.72999999975,129915.453,129927.59499998647,129931.937,130266.274,,4,having
screen,html.Screen,2_1_0_1_5,2021-04-24T19:35:24.876Z,,,,,,,,,,,,,,,,,53,,,,,,,,,,,,,,248.22599999021622,,response,,,,99,,,,,,,Space,keypress(Space),,,,,,,,---- -- ----- -- ------ a ------- --- ----------<br>------------- ------ ------ ---- ---- ------- ----- -- ----<br>-------- ------- -- ---------- --- - --- ----- ----- ----<br>---- --- --- ----- --- ---- ---- ------- ----- ---- -------<br>--- --- -- ----- -- --- ---- -- --- ---- -- ------ ------<br>--- ----- -- ----,130515.34499999252,130514.49999999022,130248.765,130253.50500000059,130266.274,130531.962,,5,a
screen,html.Screen,2_1_0_1_6,2021-04-24T19:35:25.086Z,,,,,,,,,,,,,,,,,53,,,,,,,,,,,,,,192.68799998919712,,response,,,,99,,,,,,,Space,keypress(Space),,,,,,,,---- -- ----- -- ------ - lasting --- ----------<br>------------- ------ ------ ---- ---- ------- ----- -- ----<br>-------- ------- -- ---------- --- - --- ----- ----- ----<br>---- --- --- ----- --- ---- ---- ------- ----- ---- -------<br>--- --- -- ----- -- --- ---- -- --- ---- -- ------ ------<br>--- ----- -- ----,130725.48999998253,130724.6499999892,130515.163,130515.51999998628,130531.962,130732.344,,6,lasting
screen,html.Screen,2_1_0_1_7,2021-04-24T19:35:25.431Z,,,,,,,,,,,,,,,,,53,,,,,,,,,,,,,,336.48599997469864,,response,,,,99,,,,,,,Space,keypress(Space),,,,,,,,---- -- ----- -- ------ - ------- and ----------<br>------------- ------ ------ ---- ---- ------- ----- -- ----<br>-------- ------- -- ---------- --- - --- ----- ----- ----<br>---- --- --- ----- --- ---- ---- ------- ----- ---- -------<br>--- --- -- ----- -- --- ---- -- --- ---- -- ------ ------<br>--- ----- -- ----,131069.94499999564,131068.8299999747,130715.669,130725.64499999862,130732.344,131081.993,,7,and
screen,html.Screen,2_1_0_1_8,2021-04-24T19:35:25.789Z,,,,,,,,,,,,,,,,,53,,,,,,,,,,,,,,345.58699998867814,,response,,,,99,,,,,,,Space,keypress(Space),,,,,,,,---- -- ----- -- ------ - ------- --- fulfilling<br>------------- ------ ------ ---- ---- ------- ----- -- ----<br>-------- ------- -- ---------- --- - --- ----- ----- ----<br>---- --- --- ----- --- ---- ---- ------- ----- ---- -------<br>--- --- -- ----- -- --- ---- -- --- ---- -- ------ ------<br>--- ----- -- ----,131428.42499999097,131427.57999998867,131065.259,131070.11000000057,131081.993,131432.038,,8,fulfilling
screen,html.Screen,2_1_0_1_9,2021-04-24T19:35:26.420Z,,,,,,,,,,,,,,,,,53,,,,,,,,,,,,,,626.0869999813731,,response,,,,99,,,,,,,Space,keypress(Space),,,,,,,,"---- -- ----- -- ------ - ------- --- ----------<br>relationship, ------ ------ ---- ---- ------- ----- -- ----<br>-------- ------- -- ---------- --- - --- ----- ----- ----<br>---- --- --- ----- --- ---- ---- ------- ----- ---- -------<br>--- --- -- ----- -- --- ---- -- --- ---- -- ------ ------<br>--- ----- -- ----",132059.32999998913,132058.12499998137,131415.414,131429.15999999968,131432.038,132065.166,,9,"relationship,"
screen,html.Screen,2_1_0_1_10,2021-04-24T19:35:26.875Z,,,,,,,,,,,,,,,,,53,,,,,,,,,,,,,,446.583999976021,,response,,,,99,,,,,,,Space,keypress(Space),,,,,,,,---- -- ----- -- ------ - ------- --- ----------<br>------------- common ------ ---- ---- ------- ----- -- ----<br>-------- ------- -- ---------- --- - --- ----- ----- ----<br>---- --- --- ----- --- ---- ---- ------- ----- ---- -------<br>--- --- -- ----- -- --- ---- -- --- ---- -- ------ ------<br>--- ----- -- ----,132513.57499998994,132511.74999997602,132048.763,132059.48499997612,132065.166,132537.94,,10,common
screen,html.Screen,2_1_0_1_11,2021-04-24T19:35:27.201Z,,,,,,,,,,,,,,,,,53,,,,,,,,,,,,,,299.67499999672873,,response,,,,99,,,,,,,Space,keypress(Space),,,,,,,,---- -- ----- -- ------ - ------- --- ----------<br>------------- ------ wisdom ---- ---- ------- ----- -- ----<br>-------- ------- -- ---------- --- - --- ----- ----- ----<br>---- --- --- ----- --- ---- ---- ------- ----- ---- -------<br>--- --- -- ----- -- --- ---- -- --- ---- -- ------ ------<br>--- ----- -- ----,132840.14499999466,132837.61499999673,132499.003,132514.01499999338,132537.94,132850.311,,11,wisdom
screen,html.Screen,2_1_0_1_12,2021-04-24T19:35:27.558Z,,,,,,,,,,,,,,,,,53,,,,,,,,,,,,,,345.26399999065325,,response,,,,99,,,,,,,Space,keypress(Space),,,,,,,,---- -- ----- -- ------ - ------- --- ----------<br>------------- ------ ------ says ---- ------- ----- -- ----<br>-------- ------- -- ---------- --- - --- ----- ----- ----<br>---- --- --- ----- --- ---- ---- ------- ----- ---- -------<br>--- --- -- ----- -- --- ---- -- --- ---- -- ------ ------<br>--- ----- -- ----,133197.3949999956,133195.57499999064,132831.986,132840.5999999959,132850.311,133215.206,,12,says
screen,html.Screen,2_1_0_1_13,2021-04-24T19:35:27.922Z,,,,,,,,,,,,,,,,,53,,,,,,,,,,,,,,344.0389999821782,,response,,,,99,,,,,,,Space,keypress(Space),,,,,,,,---- -- ----- -- ------ - ------- --- ----------<br>------------- ------ ------ ---- that ------- ----- -- ----<br>-------- ------- -- ---------- --- - --- ----- ----- ----<br>---- --- --- ----- --- ---- ---- ------- ----- ---- -------<br>--- --- -- ----- -- --- ---- -- --- ---- -- ------ ------<br>--- ----- -- ----,133561.51999998838,133559.24499998218,133198.628,133198.36999999825,133215.206,133565.091,,13,that
screen,html.Screen,2_1_0_1_14,2021-04-24T19:35:28.203Z,,,,,,,,,,,,,,,,,53,,,,,,,,,,,,,,274.663999993616,,response,,,,99,,,,,,,Space,keypress(Space),,,,,,,,---- -- ----- -- ------ - ------- --- ----------<br>------------- ------ ------ ---- ---- feeling ----- -- ----<br>-------- ------- -- ---------- --- - --- ----- ----- ----<br>---- --- --- ----- --- ---- ---- ------- ----- ---- -------<br>--- --- -- ----- -- --- ---- -- --- ---- -- ------ ------<br>--- ----- -- ----,133841.63499998976,133839.7549999936,133549.66,133561.9599999918,133565.091,133850.169,,14,feeling
screen,html.Screen,2_1_0_1_15,2021-04-24T19:35:28.377Z,,,,,,,,,,,,,,,,,53,,,,,,,,,,,,,,163.89599999575876,,response,,,,99,,,,,,,Space,keypress(Space),,,,,,,,---- -- ----- -- ------ - ------- --- ----------<br>------------- ------ ------ ---- ---- ------- close -- ----<br>-------- ------- -- ---------- --- - --- ----- ----- ----<br>---- --- --- ----- --- ---- ---- ------- ----- ---- -------<br>--- --- -- ----- -- --- ---- -- --- ---- -- ------ ------<br>--- ----- -- ----,134015.98999998532,134014.06499999575,133832.9,133842.06499997526,133850.169,134031.797,,15,close
screen,html.Screen,2_1_0_1_16,2021-04-24T19:35:28.739Z,,,,,,,,,,,,,,,,,53,,,,,,,,,,,,,,344.4029999987979,,response,,,,99,,,,,,,Space,keypress(Space),,,,,,,,---- -- ----- -- ------ - ------- --- ----------<br>------------- ------ ------ ---- ---- ------- ----- to ----<br>-------- ------- -- ---------- --- - --- ----- ----- ----<br>---- --- --- ----- --- ---- ---- ------- ----- ---- -------<br>--- --- -- ----- -- --- ---- -- --- ---- -- ------ ------<br>--- ----- -- ----,134378.00499997684,134376.1999999988,134016.154,134016.19999998366,134031.797,134381.717,,16,to
screen,html.Screen,2_1_0_1_17,2021-04-24T19:35:28.974Z,,,,,,,,,,,,,,,,,53,,,,,,,,,,,,,,229.48299998481525,,response,,,,99,,,,,,,Space,keypress(Space),,,,,,,,---- -- ----- -- ------ - ------- --- ----------<br>------------- ------ ------ ---- ---- ------- ----- -- your<br>-------- ------- -- ---------- --- - --- ----- ----- ----<br>---- --- --- ----- --- ---- ---- ------- ----- ---- -------<br>--- --- -- ----- -- --- ---- -- --- ---- -- ------ ------<br>--- ----- -- ----,134612.96499997843,134611.19999998482,134365.034,134378.5349999962,134381.717,134615.263,,17,your
screen,html.Screen,2_1_0_1_18,2021-04-24T19:35:29.313Z,,,,,,,,,,,,,,,,,53,,,,,,,,,,,,,,333.1469999826804,,response,,,,99,,,,,,,Space,keypress(Space),,,,,,,,---- -- ----- -- ------ - ------- --- ----------<br>------------- ------ ------ ---- ---- ------- ----- -- ----<br>romantic ------- -- ---------- --- - --- ----- ----- ----<br>---- --- --- ----- --- ---- ---- ------- ----- ---- -------<br>--- --- -- ----- -- --- ---- -- --- ---- -- ------ ------<br>--- ----- -- ----,134951.78000000305,134948.4099999827,134598.579,134613.40999999084,134615.263,134965.338,,18,romantic
screen,html.Screen,2_1_0_1_19,2021-04-24T19:35:29.545Z,,,,,,,,,,,,,,,,,53,,,,,,,,,,,,,,217.08699997724034,,response,,,,99,,,,,,,Space,keypress(Space),,,,,,,,---- -- ----- -- ------ - ------- --- ----------<br>------------- ------ ------ ---- ---- ------- ----- -- ----<br>-------- partner -- ---------- --- - --- ----- ----- ----<br>---- --- --- ----- --- ---- ---- ------- ----- ---- -------<br>--- --- -- ----- -- --- ---- -- --- ---- -- ------ ------<br>--- ----- -- ----,135184.5199999807,135182.42499997723,134949.726,134952.2199999774,134965.338,135199.849,,19,partner
screen,html.Screen,2_1_0_1_20,2021-04-24T19:35:29.776Z,,,,,,,,,,,,,,,,,53,,,,,,,,,,,,,,213.26600000303006,,response,,,,99,,,,,,,Space,keypress(Space),,,,,,,,---- -- ----- -- ------ - ------- --- ----------<br>------------- ------ ------ ---- ---- ------- ----- -- ----<br>-------- ------- is ---------- --- - --- ----- ----- ----<br>---- --- --- ----- --- ---- ---- ------- ----- ---- -------<br>--- --- -- ----- -- --- ---- -- --- ---- -- ------ ------<br>--- ----- -- ----,135415.0999999838,135413.11500000302,135183.071,135184.97000000207,135199.849,135431.998,,20,is
screen,html.Screen,2_1_0_1_21,2021-04-24T19:35:30.040Z,,,,,,,,,,,,,,,,,53,,,,,,,,,,,,,,245.53199998629862,,response,,,,99,,,,,,,Space,keypress(Space),,,,,,,,---- -- ----- -- ------ - ------- --- ----------<br>------------- ------ ------ ---- ---- ------- ----- -- ----<br>-------- ------- -- paramount. --- - --- ----- ----- ----<br>---- --- --- ----- --- ---- ---- ------- ----- ---- -------<br>--- --- -- ----- -- --- ---- -- --- ---- -- ------ ------<br>--- ----- -- ----,135679.4200000004,135677.5299999863,135415.209,135415.56500000297,135431.998,135682.145,,21,paramount.
screen,html.Screen,2_1_0_1_22,2021-04-24T19:35:30.601Z,,,,,,,,,,,,,,,,,53,,,,,,,,,,,,,,555.6349999958475,,response,,,,99,,,,,,,Space,keypress(Space),,,,,,,,---- -- ----- -- ------ - ------- --- ----------<br>------------- ------ ------ ---- ---- ------- ----- -- ----<br>-------- ------- -- ---------- But - --- ----- ----- ----<br>---- --- --- ----- --- ---- ---- ------- ----- ---- -------<br>--- --- -- ----- -- --- ---- -- --- ---- -- ------ ------<br>--- ----- -- ----,136240.38499998278,136237.77999999584,135665.197,135679.99999999302,135682.145,136250.37,,22,But
screen,html.Screen,2_1_0_1_23,2021-04-24T19:35:30.899Z,,,,,,,,,,,,,,,,,53,,,,,,,,,,,,,,285.87499999569263,,response,,,,99,,,,,,,Space,keypress(Space),,,,,,,,---- -- ----- -- ------ - ------- --- ----------<br>------------- ------ ------ ---- ---- ------- ----- -- ----<br>-------- ------- -- ---------- --- a --- ----- ----- ----<br>---- --- --- ----- --- ---- ---- ------- ----- ---- -------<br>--- --- -- ----- -- --- ---- -- --- ---- -- ------ ------<br>--- ----- -- ----,136538.14499999862,136536.2449999957,136231.821,136240.844999993,136250.37,136550.76,,23,a
screen,html.Screen,2_1_0_1_24,2021-04-24T19:35:31.079Z,,,,,,,,,,,,,,,,,53,,,,,,,,,,,,,,165.35999999730848,,response,,,,99,,,,,,,Space,keypress(Space),,,,,,,,---- -- ----- -- ------ - ------- --- ----------<br>------------- ------ ------ ---- ---- ------- ----- -- ----<br>-------- ------- -- ---------- --- - new ----- ----- ----<br>---- --- --- ----- --- ---- ---- ------- ----- ---- -------<br>--- --- -- ----- -- --- ---- -- --- ---- -- ------ ------<br>--- ----- -- ----,136718.06499999366,136716.11999999732,136531.818,136538.5799999931,136550.76,136731.86,,24,new
screen,html.Screen,2_1_0_1_25,2021-04-24T19:35:31.254Z,,,,,,,,,,,,,,,,,53,,,,,,,,,,,,,,158.9799999782117,,response,,,,99,,,,,,,Space,keypress(Space),,,,,,,,---- -- ----- -- ------ - ------- --- ----------<br>------------- ------ ------ ---- ---- ------- ----- -- ----<br>-------- ------- -- ---------- --- - --- study ----- ----<br>---- --- --- ----- --- ---- ---- ------- ----- ---- -------<br>--- --- -- ----- -- --- ---- -- --- ---- -- ------ ------<br>--- ----- -- ----,136892.61999999871,136890.8399999782,136715.141,136718.50999997696,136731.86,136898.242,,25,study
screen,html.Screen,2_1_0_1_26,2021-04-24T19:35:31.479Z,,,,,,,,,,,,,,,,,53,,,,,,,,,,,,,,217.17799998735427,,response,,,,99,,,,,,,Space,keypress(Space),,,,,,,,---- -- ----- -- ------ - ------- --- ----------<br>------------- ------ ------ ---- ---- ------- ----- -- ----<br>-------- ------- -- ---------- --- - --- ----- finds ----<br>---- --- --- ----- --- ---- ---- ------- ----- ---- -------<br>--- --- -- ----- -- --- ---- -- --- ---- -- ------ ------<br>--- ----- -- ----,137117.579999991,137115.41999998735,136881.811,136893.05499999318,136898.242,137131.682,,26,finds
screen,html.Screen,2_1_0_1_27,2021-04-24T19:35:31.883Z,,,,,,,,,,,,,,,,,53,,,,,,,,,,,,,,388.9979999868956,,response,,,,99,,,,,,,Space,keypress(Space),,,,,,,,---- -- ----- -- ------ - ------- --- ----------<br>------------- ------ ------ ---- ---- ------- ----- -- ----<br>-------- ------- -- ---------- --- - --- ----- ----- that<br>---- --- --- ----- --- ---- ---- ------- ----- ---- -------<br>--- --- -- ----- -- --- ---- -- --- ---- -- ------ ------<br>--- ----- -- ----,137522.43499999167,137520.6799999869,137115.128,137118.03499999223,137131.682,137531.607,,27,that
screen,html.Screen,2_1_0_1_28,2021-04-24T19:35:32.237Z,,,,,,,,,,,,,,,,,53,,,,,,,,,,,,,,342.23299998565926,,response,,,,99,,,,,,,Space,keypress(Space),,,,,,,,---- -- ----- -- ------ - ------- --- ----------<br>------------- ------ ------ ---- ---- ------- ----- -- ----<br>-------- ------- -- ---------- --- - --- ----- ----- ----<br>it's --- --- ----- --- ---- ---- ------- ----- ---- -------<br>--- --- -- ----- -- --- ---- -- --- ---- -- ------ ------<br>--- ----- -- ----,137875.63999998383,137873.83999998565,137515.229,137528.0550000025,137531.607,137881.547,,28,it's
screen,html.Screen,2_1_0_1_29,2021-04-24T19:35:32.510Z,,,,,,,,,,,,,,,,,53,,,,,,,,,,,,,,264.65799999728915,,response,,,,99,,,,,,,Space,keypress(Space),,,,,,,,---- -- ----- -- ------ - ------- --- ----------<br>------------- ------ ------ ---- ---- ------- ----- -- ----<br>-------- ------- -- ---------- --- - --- ----- ----- ----<br>---- not --- ----- --- ---- ---- ------- ----- ---- -------<br>--- --- -- ----- -- --- ---- -- --- ---- -- ------ ------<br>--- ----- -- ----,138149.40999998362,138146.20499999728,137865.096,137876.0749999783,137881.547,138164.899,,29,not
screen,html.Screen,2_1_0_1_30,2021-04-24T19:35:32.695Z,,,,,,,,,,,,,,,,,53,,,,,,,,,,,,,,167.1659999950498,,response,,,,99,,,,,,,Space,keypress(Space),,,,,,,,---- -- ----- -- ------ - ------- --- ----------<br>------------- ------ ------ ---- ---- ------- ----- -- ----<br>-------- ------- -- ---------- --- - --- ----- ----- ----<br>---- --- how ----- --- ---- ---- ------- ----- ---- -------<br>--- --- -- ----- -- --- ---- -- --- ---- -- ------ ------<br>--- ----- -- ----,138334.07499999157,138332.06499999505,138148.405,138150.0449999876,138164.899,138349.68,,30,how
screen,html.Screen,2_1_0_1_31,2021-04-24T19:35:32.913Z,,,,,,,,,,,,,,,,,53,,,,,,,,,,,,,,197.30499999359017,,response,,,,99,,,,,,,Space,keypress(Space),,,,,,,,---- -- ----- -- ------ - ------- --- ----------<br>------------- ------ ------ ---- ---- ------- ----- -- ----<br>-------- ------- -- ---------- --- - --- ----- ----- ----<br>---- --- --- close --- ---- ---- ------- ----- ---- -------<br>--- --- -- ----- -- --- ---- -- --- ---- -- ------ ------<br>--- ----- -- ----,138551.68999999296,138546.98499999358,138331.547,138334.4849999994,138349.68,138566.162,,31,close
screen,html.Screen,2_1_0_1_32,2021-04-24T19:35:33.142Z,,,,,,,,,,,,,,,,,53,,,,,,,,,,,,,,212.58299998869188,,response,,,,99,,,,,,,Space,keypress(Space),,,,,,,,---- -- ----- -- ------ - ------- --- ----------<br>------------- ------ ------ ---- ---- ------- ----- -- ----<br>-------- ------- -- ---------- --- - --- ----- ----- ----<br>---- --- --- ----- you ---- ---- ------- ----- ---- -------<br>--- --- -- ----- -- --- ---- -- --- ---- -- ------ ------<br>--- ----- -- ----,138781.1399999773,138778.7449999887,138548.399,138552.12499998743,138566.162,138815.18,,32,you
screen,html.Screen,2_1_0_1_33,2021-04-24T19:35:33.343Z,,,,,,,,,,,,,,,,,53,,,,,,,,,,,,,,164.88000000169268,,response,,,,99,,,,,,,Space,keypress(Space),,,,,,,,---- -- ----- -- ------ - ------- --- ----------<br>------------- ------ ------ ---- ---- ------- ----- -- ----<br>-------- ------- -- ---------- --- - --- ----- ----- ----<br>---- --- --- ----- --- feel ---- ------- ----- ---- -------<br>--- --- -- ----- -- --- ---- -- --- ---- -- ------ ------<br>--- ----- -- ----,138981.9149999821,138980.0600000017,138798.22,138781.56000000308,138815.18,138999.437,,33,feel
screen,html.Screen,2_1_0_1_34,2021-04-24T19:35:33.592Z,,,,,,,,,,,,,,,,,53,,,,,,,,,,,,,,230.2879999828583,,response,,,,99,,,,,,,Space,keypress(Space),,,,,,,,---- -- ----- -- ------ - ------- --- ----------<br>------------- ------ ------ ---- ---- ------- ----- -- ----<br>-------- ------- -- ---------- --- - --- ----- ----- ----<br>---- --- --- ----- --- ---- that ------- ----- ---- -------<br>--- --- -- ----- -- --- ---- -- --- ---- -- ------ ------<br>--- ----- -- ----,139231.4999999944,139229.72499998286,138982.812,138982.33499997878,138999.437,139248.288,,34,that
screen,html.Screen,2_1_0_1_35,2021-04-24T19:35:33.798Z,,,,,,,,,,,,,,,,,53,,,,,,,,,,,,,,187.09199998079566,,response,,,,99,,,,,,,Space,keypress(Space),,,,,,,,---- -- ----- -- ------ - ------- --- ----------<br>------------- ------ ------ ---- ---- ------- ----- -- ----<br>-------- ------- -- ---------- --- - --- ----- ----- ----<br>---- --- --- ----- --- ---- ---- matters ----- ---- -------<br>--- --- -- ----- -- --- ---- -- --- ---- -- ------ ------<br>--- ----- -- ----,139437.11999998777,139435.3799999808,139231.501,139231.88999999547,139248.288,139450.348,,35,matters
screen,html.Screen,2_1_0_1_36,2021-04-24T19:35:33.995Z,,,,,,,,,,,,,,,,,53,,,,,,,,,,,,,,181.8269999769982,,response,,,,99,,,,,,,Space,keypress(Space),,,,,,,,"---- -- ----- -- ------ - ------- --- ----------<br>------------- ------ ------ ---- ---- ------- ----- -- ----<br>-------- ------- -- ---------- --- - --- ----- ----- ----<br>---- --- --- ----- --- ---- ---- ------- most, ---- -------<br>--- --- -- ----- -- --- ---- -- --- ---- -- ------ ------<br>--- ----- -- ----",139634.23999998486,139632.174999977,139431.693,139437.59499999578,139450.348,139649.471,,36,"most,"
screen,html.Screen,2_1_0_1_37,2021-04-24T19:35:34.278Z,,,,,,,,,,,,,,,,,53,,,,,,,,,,,,,,265.5489999858255,,response,,,,99,,,,,,,Space,keypress(Space),,,,,,,,---- -- ----- -- ------ - ------- --- ----------<br>------------- ------ ------ ---- ---- ------- ----- -- ----<br>-------- ------- -- ---------- --- - --- ----- ----- ----<br>---- --- --- ----- --- ---- ---- ------- ----- it's -------<br>--- --- -- ----- -- --- ---- -- --- ---- -- ------ ------<br>--- ----- -- ----,139917.11499998928,139915.01999998582,139631.68,139634.6499999927,139649.471,139931.606,,37,it's
screen,html.Screen,2_1_0_1_38,2021-04-24T19:35:34.619Z,,,,,,,,,,,,,,,,,53,,,,,,,,,,,,,,324.30399997803033,,response,,,,99,,,,,,,Space,keypress(Space),,,,,,,,---- -- ----- -- ------ - ------- --- ----------<br>------------- ------ ------ ---- ---- ------- ----- -- ----<br>-------- ------- -- ---------- --- - --- ----- ----- ----<br>---- --- --- ----- --- ---- ---- ------- ----- ---- whether<br>--- --- -- ----- -- --- ---- -- --- ---- -- ------ ------<br>--- ----- -- ----,140257.71999999415,140255.90999997803,139914.84,139917.58499998832,139931.606,140264.784,,38,whether
screen,html.Screen,2_1_0_1_39,2021-04-24T19:35:34.892Z,,,,,,,,,,,,,,,,,53,,,,,,,,,,,,,,264.5409999813128,,response,,,,99,,,,,,,Space,keypress(Space),,,,,,,,---- -- ----- -- ------ - ------- --- ----------<br>------------- ------ ------ ---- ---- ------- ----- -- ----<br>-------- ------- -- ---------- --- - --- ----- ----- ----<br>---- --- --- ----- --- ---- ---- ------- ----- ---- -------<br>you --- -- ----- -- --- ---- -- --- ---- -- ------ ------<br>--- ----- -- ----,140531.41499997582,140529.32499998133,140248.319,140258.13000000198,140264.784,140549.452,,39,you
screen,html.Screen,2_1_0_1_40,2021-04-24T19:35:35.126Z,,,,,,,,,,,,,,,,,53,,,,,,,,,,,,,,213.41799997683847,,response,,,,99,,,,,,,Space,keypress(Space),,,,,,,,---- -- ----- -- ------ - ------- --- ----------<br>------------- ------ ------ ---- ---- ------- ----- -- ----<br>-------- ------- -- ---------- --- - --- ----- ----- ----<br>---- --- --- ----- --- ---- ---- ------- ----- ---- -------<br>--- are -- ----- -- --- ---- -- --- ---- -- ------ ------<br>--- ----- -- ----,140764.78999998653,140762.86999997683,140517.836,140531.82999999262,140549.452,140781.75,,40,are
screen,html.Screen,2_1_0_1_41,2021-04-24T19:35:35.442Z,,,,,,,,,,,,,,,,,53,,,,,,,,,,,,,,296.79499999666587,,response,,,,99,,,,,,,Space,keypress(Space),,,,,,,,---- -- ----- -- ------ - ------- --- ----------<br>------------- ------ ------ ---- ---- ------- ----- -- ----<br>-------- ------- -- ---------- --- - --- ----- ----- ----<br>---- --- --- ----- --- ---- ---- ------- ----- ---- -------<br>--- --- as ----- -- --- ---- -- --- ---- -- ------ ------<br>--- ----- -- ----,141081.15499999258,141078.54499999667,140764.965,140765.20500000333,140781.75,141099.357,,41,as
screen,html.Screen,2_1_0_1_42,2021-04-24T19:35:35.678Z,,,,,,,,,,,,,,,,,53,,,,,,,,,,,,,,213.9880000023113,,response,,,,99,,,,,,,Space,keypress(Space),,,,,,,,---- -- ----- -- ------ - ------- --- ----------<br>------------- ------ ------ ---- ---- ------- ----- -- ----<br>-------- ------- -- ---------- --- - --- ----- ----- ----<br>---- --- --- ----- --- ---- ---- ------- ----- ---- -------<br>--- --- -- close -- --- ---- -- --- ---- -- ------ ------<br>--- ----- -- ----,141317.25999998162,141313.3450000023,141081.613,141081.5650000004,141099.357,141331.382,,42,close
screen,html.Screen,2_1_0_1_43,2021-04-24T19:35:35.873Z,,,,,,,,,,,,,,,,,53,,,,,,,,,,,,,,179.14799999954994,,response,,,,99,,,,,,,Space,keypress(Space),,,,,,,,---- -- ----- -- ------ - ------- --- ----------<br>------------- ------ ------ ---- ---- ------- ----- -- ----<br>-------- ------- -- ---------- --- - --- ----- ----- ----<br>---- --- --- ----- --- ---- ---- ------- ----- ---- -------<br>--- --- -- ----- as --- ---- -- --- ---- -- ------ ------<br>--- ----- -- ----,141512.38000000012,141510.52999999956,141314.945,141326.5899999824,141331.382,141514.718,,43,as
screen,html.Screen,2_1_0_1_44,2021-04-24T19:35:36.083Z,,,,,,,,,,,,,,,,,53,,,,,,,,,,,,,,205.88699998043012,,response,,,,99,,,,,,,Space,keypress(Space),,,,,,,,---- -- ----- -- ------ - ------- --- ----------<br>------------- ------ ------ ---- ---- ------- ----- -- ----<br>-------- ------- -- ---------- --- - --- ----- ----- ----<br>---- --- --- ----- --- ---- ---- ------- ----- ---- -------<br>--- --- -- ----- -- you ---- -- --- ---- -- ------ ------<br>--- ----- -- ----,141722.3449999874,141720.60499998042,141498.248,141512.77499998105,141514.718,141732.942,,44,you
screen,html.Screen,2_1_0_1_45,2021-04-24T19:35:36.288Z,,,,,,,,,,,,,,,,,53,,,,,,,,,,,,,,191.76299998306786,,response,,,,99,,,,,,,Space,keypress(Space),,,,,,,,---- -- ----- -- ------ - ------- --- ----------<br>------------- ------ ------ ---- ---- ------- ----- -- ----<br>-------- ------- -- ---------- --- - --- ----- ----- ----<br>---- --- --- ----- --- ---- ---- ------- ----- ---- -------<br>--- --- -- ----- -- --- want -- --- ---- -- ------ ------<br>--- ----- -- ----,141926.84999998892,141924.70499998308,141714.742,141722.7299999795,141732.942,141931.405,,45,want
screen,html.Screen,2_1_0_1_46,2021-04-24T19:35:36.472Z,,,,,,,,,,,,,,,,,53,,,,,,,,,,,,,,176.76499999224325,,response,,,,99,,,,,,,Space,keypress(Space),,,,,,,,---- -- ----- -- ------ - ------- --- ----------<br>------------- ------ ------ ---- ---- ------- ----- -- ----<br>-------- ------- -- ---------- --- - --- ----- ----- ----<br>---- --- --- ----- --- ---- ---- ------- ----- ---- -------<br>--- --- -- ----- -- --- ---- to --- ---- -- ------ ------<br>--- ----- -- ----,142110.77999998815,142108.16999999224,141914.917,141927.25499998778,141931.405,142114.697,,46,to
screen,html.Screen,2_1_0_1_47,2021-04-24T19:35:36.704Z,,,,,,,,,,,,,,,,,53,,,,,,,,,,,,,,226.49799998634262,,response,,,,99,,,,,,,Space,keypress(Space),,,,,,,,"---- -- ----- -- ------ - ------- --- ----------<br>------------- ------ ------ ---- ---- ------- ----- -- ----<br>-------- ------- -- ---------- --- - --- ----- ----- ----<br>---- --- --- ----- --- ---- ---- ------- ----- ---- -------<br>--- --- -- ----- -- --- ---- -- be, ---- -- ------ ------<br>--- ----- -- ----",142342.89499997976,142341.19499998633,142098.027,142111.17999997805,142114.697,142350.042,,47,"be,"
screen,html.Screen,2_1_0_1_48,2021-04-24T19:35:36.973Z,,,,,,,,,,,,,,,,,53,,,,,,,,,,,,,,259.578000002919,,response,,,,99,,,,,,,Space,keypress(Space),,,,,,,,---- -- ----- -- ------ - ------- --- ----------<br>------------- ------ ------ ---- ---- ------- ----- -- ----<br>-------- ------- -- ---------- --- - --- ----- ----- ----<br>---- --- --- ----- --- ---- ---- ------- ----- ---- -------<br>--- --- -- ----- -- --- ---- -- --- even -- ------ ------<br>--- ----- -- ----,142611.6499999771,142609.6200000029,142331.382,142343.28499998082,142350.042,142614.671,,48,even
screen,html.Screen,2_1_0_1_49,2021-04-24T19:35:37.265Z,,,,,,,,,,,,,,,,,53,,,,,,,,,,,,,,287.9889999924635,,response,,,,99,,,,,,,Space,keypress(Space),,,,,,,,---- -- ----- -- ------ - ------- --- ----------<br>------------- ------ ------ ---- ---- ------- ----- -- ----<br>-------- ------- -- ---------- --- - --- ----- ----- ----<br>---- --- --- ----- --- ---- ---- ------- ----- ---- -------<br>--- --- -- ----- -- --- ---- -- --- ---- if ------ ------<br>--- ----- -- ----,142904.4199999771,142902.65999999247,142598.213,142612.0349999983,142614.671,142916.145,,49,if
screen,html.Screen,2_1_0_1_50,2021-04-24T19:35:37.522Z,,,,,,,,,,,,,,,,,53,,,,,,,,,,,,,,242.8650000030466,,response,,,,99,,,,,,,Space,keypress(Space),,,,,,,,---- -- ----- -- ------ - ------- --- ----------<br>------------- ------ ------ ---- ---- ------- ----- -- ----<br>-------- ------- -- ---------- --- - --- ----- ----- ----<br>---- --- --- ----- --- ---- ---- ------- ----- ---- -------<br>--- --- -- ----- -- --- ---- -- --- ---- -- that's ------<br>--- ----- -- ----,143161.24999997555,143159.01000000304,142899.129,142904.8049999983,142916.145,143164.645,,50,that's
screen,html.Screen,2_1_0_1_51,2021-04-24T19:35:37.904Z,,,,,,,,,,,,,,,,,53,,,,,,,,,,,,,,376.39499998188694,,response,,,,99,,,,,,,Space,keypress(Space),,,,,,,,---- -- ----- -- ------ - ------- --- ----------<br>------------- ------ ------ ---- ---- ------- ----- -- ----<br>-------- ------- -- ---------- --- - --- ----- ----- ----<br>---- --- --- ----- --- ---- ---- ------- ----- ---- -------<br>--- --- -- ----- -- --- ---- -- --- ---- -- ------ really<br>--- ----- -- ----,143542.79499998665,143541.03999998188,143148.024,143161.64999999455,143164.645,143549.592,,51,really
screen,html.Screen,2_1_0_1_52,2021-04-24T19:35:38.317Z,,,,,,,,,,,,,,,,,53,,,,,,,,,,,,,,404.74299998761853,,response,,,,99,,,,,,,Space,keypress(Space),,,,,,,,---- -- ----- -- ------ - ------- --- ----------<br>------------- ------ ------ ---- ---- ------- ----- -- ----<br>-------- ------- -- ---------- --- - --- ----- ----- ----<br>---- --- --- ----- --- ---- ---- ------- ----- ---- -------<br>--- --- -- ----- -- --- ---- -- --- ---- -- ------ ------<br>not ----- -- ----,143956.11499997904,143954.33499998762,143531.317,143543.19999998552,143549.592,143965.714,,52,not
screen,html.Screen,2_1_0_1_53,2021-04-24T19:35:38.717Z,,,,,,,,,,,,,,,,,53,,,,,,,,,,,,,,388.88099998250254,,response,,,,99,,,,,,,Space,keypress(Space),,,,,,,,---- -- ----- -- ------ - ------- --- ----------<br>------------- ------ ------ ---- ---- ------- ----- -- ----<br>-------- ------- -- ---------- --- - --- ----- ----- ----<br>---- --- --- ----- --- ---- ---- ------- ----- ---- -------<br>--- --- -- ----- -- --- ---- -- --- ---- -- ------ ------<br>--- close -- ----,144356.32500000065,144354.5949999825,143948.14,143956.52499998687,143965.714,144365.875,,53,close
screen,html.Screen,2_1_0_1_54,2021-04-24T19:35:39.105Z,,,,,,,,,,,,,,,,,53,,,,,,,,,,,,,,376.52499998826534,,response,,,,99,,,,,,,Space,keypress(Space),,,,,,,,---- -- ----- -- ------ - ------- --- ----------<br>------------- ------ ------ ---- ---- ------- ----- -- ----<br>-------- ------- -- ---------- --- - --- ----- ----- ----<br>---- --- --- ----- --- ---- ---- ------- ----- ---- -------<br>--- --- -- ----- -- --- ---- -- --- ---- -- ------ ------<br>--- ----- at ----,144743.94999997457,144742.39999998827,144347.951,144356.71999998158,144365.875,144747.899,,54,at
screen,html.Screen,2_1_0_1_55,2021-04-24T19:35:39.478Z,,,,,,,,,,,,,,,,,53,,,,,,,,,,,,,,366.7559999830264,,response,,,,99,,,,,,,Space,keypress(Space),,,,,,,,---- -- ----- -- ------ - ------- --- ----------<br>------------- ------ ------ ---- ---- ------- ----- -- ----<br>-------- ------- -- ---------- --- - --- ----- ----- ----<br>---- --- --- ----- --- ---- ---- ------- ----- ---- -------<br>--- --- -- ----- -- --- ---- -- --- ---- -- ------ ------<br>--- ----- -- all.,145116.7949999799,145114.65499998303,144731.239,144744.314999989,144747.899,145147.897,,55,all.
Item 99,flow.Loop,2_1_0_1,2021-04-24T19:35:39.479Z,,,,,,,,,,,,,,,,,,,,,,,,,,,,,,,17849.258999983038,,completion,,,,,A,,,,,,,,,,,silence,,,,,145117.6099999866,145114.65499998303,127182.272,127184.35999998474,127265.396,145147.897,,,
Question 1,html.Screen,2_1_0_2,2021-04-24T19:35:42.113Z,,,,,,,,,,,,,,,,,,,,,,,,,,,,true,FALSE,,2601.84799997916,,response,,,,99,A,,,,,,FALSE,click #choice-2,,,,silence,,,,,147752.4249999842,147749.74499997916,145114.733,145118.04499998107,145147.897,147764.444,,,
Question 2,html.Screen,2_1_0_3,2021-04-24T19:35:46.032Z,,,,,,,,,,,,,,,,,,,,,,,,,,,,true,TRUE,,3904.000999988435,,response,,,,99,A,,,,,,TRUE,click #choice-1,,,,silence,,,,,151671.49999999674,151668.44499998842,147747.975,147752.85499999882,147764.444,151680.91,,,
Item 99,flow.Sequence,2_1_0,2021-04-24T19:35:46.033Z,,,,,,,,,,,,,,,,,,,,,,,,,,,,,,,34468.19199998843,,completion,,,,,,,,,,,,,,,,,,,,,151672.2899999877,151668.44499998842,117166.079,117178.83999997866,117200.253,151680.91,,,
Holding screen,html.Screen,2_1_1_0,2021-04-24T19:35:56.027Z,,,,,,,,,,,,,,,,,,,,,,,,,,,,,,,9999.891000000003,,timeout,,,,,,,,,,,,,,,,,,,,,161665.58000000077,161664.012,151664.277,151672.8449999937,151680.91,161680.801,,,
screen,html.Screen,2_1_1_1_0,2021-04-24T19:35:57.185Z,,,,,,,,,,,,,,,,,54,,,,,,,,,,,,,,1140.4589999969758,,response,,,,100,,,,,,,Space,keypress(Space),,,,,,,,At --- ---- --- ------ ----- ------- ---- -- --- ------- --<br>------- ---------- ------ -- ----- -- ----- -- ---- ------<br>--- ----- --- --- ------ -------- ----- --- ------ ----- --<br>----- ----- ---------- --- --- ------ ------ ---- -- ------<br>------- --- ------ ----- --- ---- ------- -- ---- --- --<br>------- ------,162823.79999998375,162821.25999999698,161664.012,161666.10499998205,161680.801,162831.491,,0,At
screen,html.Screen,2_1_1_1_1,2021-04-24T19:35:57.510Z,,,,,,,,,,,,,,,,,54,,,,,,,,,,,,,,314.76399999964633,,response,,,,100,,,,,,,Space,keypress(Space),,,,,,,,-- the ---- --- ------ ----- ------- ---- -- --- ------- --<br>------- ---------- ------ -- ----- -- ----- -- ---- ------<br>--- ----- --- --- ------ -------- ----- --- ------ ----- --<br>----- ----- ---------- --- --- ------ ------ ---- -- ------<br>------- --- ------ ----- --- ---- ------- -- ---- --- --<br>------- ------,163148.76499999082,163146.25499999966,162813.732,162824.20000000275,162831.491,163164.094,,1,the
screen,html.Screen,2_1_1_1_2,2021-04-24T19:35:57.769Z,,,,,,,,,,,,,,,,,54,,,,,,,,,,,,,,241.6860000009474,,response,,,,100,,,,,,,Space,keypress(Space),,,,,,,,-- --- time --- ------ ----- ------- ---- -- --- ------- --<br>------- ---------- ------ -- ----- -- ----- -- ---- ------<br>--- ----- --- --- ------ -------- ----- --- ------ ----- --<br>----- ----- ---------- --- --- ------ ------ ---- -- ------<br>------- --- ------ ----- --- ---- ------- -- ---- --- --<br>------- ------,163407.68999999273,163405.78000000096,163147.258,163149.15499999188,163164.094,163413.709,,2,time
screen,html.Screen,2_1_1_1_3,2021-04-24T19:35:58.004Z,,,,,,,,,,,,,,,,,54,,,,,,,,,,,,,,227.2410000008822,,response,,,,100,,,,,,,Space,keypress(Space),,,,,,,,-- --- ---- the ------ ----- ------- ---- -- --- ------- --<br>------- ---------- ------ -- ----- -- ----- -- ---- ------<br>--- ----- --- --- ------ -------- ----- --- ------ ----- --<br>----- ----- ---------- --- --- ------ ------ ---- -- ------<br>------- --- ------ ----- --- ---- ------- -- ---- --- --<br>------- ------,163642.65999998315,163640.95000000088,163397.354,163410.53999998257,163413.709,163647.033,,3,the
screen,html.Screen,2_1_1_1_4,2021-04-24T19:35:58.178Z,,,,,,,,,,,,,,,,,54,,,,,,,,,,,,,,168.64199999073753,,response,,,,100,,,,,,,Space,keypress(Space),,,,,,,,-- --- ---- --- French ----- ------- ---- -- --- ------- --<br>------- ---------- ------ -- ----- -- ----- -- ---- ------<br>--- ----- --- --- ------ -------- ----- --- ------ ----- --<br>----- ----- ---------- --- --- ------ ------ ---- -- ------<br>------- --- ------ ----- --- ---- ------- -- ---- --- --<br>------- ------,163817.40999998874,163815.67499999073,163630.581,163643.0499999842,163647.033,163830.42,,4,French
screen,html.Screen,2_1_1_1_5,2021-04-24T19:35:58.445Z,,,,,,,,,,,,,,,,,54,,,,,,,,,,,,,,251.4999999968859,,response,,,,100,,,,,,,Space,keypress(Space),,,,,,,,-- --- ---- --- ------ crown ------- ---- -- --- ------- --<br>------- ---------- ------ -- ----- -- ----- -- ---- ------<br>--- ----- --- --- ------ -------- ----- --- ------ ----- --<br>----- ----- ---------- --- --- ------ ------ ---- -- ------<br>------- --- ------ ----- --- ---- ------- -- ---- --- --<br>------- ------,164083.64499997697,164081.9199999969,163813.793,163817.9699999746,163830.42,164097.383,,5,crown
screen,html.Screen,2_1_1_1_6,2021-04-24T19:35:58.727Z,,,,,,,,,,,,,,,,,54,,,,,,,,,,,,,,266.6020000035933,,response,,,,100,,,,,,,Space,keypress(Space),,,,,,,,-- --- ---- --- ------ ----- secured ---- -- --- ------- --<br>------- ---------- ------ -- ----- -- ----- -- ---- ------<br>--- ----- --- --- ------ -------- ----- --- ------ ----- --<br>----- ----- ---------- --- --- ------ ------ ---- -- ------<br>------- --- ------ ----- --- ---- ------- -- ---- --- --<br>------- ------,164366.05499999132,164363.9850000036,164080.552,164084.04499999597,164097.383,164382.148,,6,secured
screen,html.Screen,2_1_1_1_7,2021-04-24T19:35:59.029Z,,,,,,,,,,,,,,,,,54,,,,,,,,,,,,,,285.3819999769912,,response,,,,100,,,,,,,Space,keypress(Space),,,,,,,,-- --- ---- --- ------ ----- ------- much -- --- ------- --<br>------- ---------- ------ -- ----- -- ----- -- ---- ------<br>--- ----- --- --- ------ -------- ----- --- ------ ----- --<br>----- ----- ---------- --- --- ------ ------ ---- -- ------<br>------- --- ------ ----- --- ---- ------- -- ---- --- --<br>------- ------,164668.42499998165,164667.52999997698,164363.699,164366.4399999834,164382.148,164680.35,,7,much
screen,html.Screen,2_1_1_1_8,2021-04-24T19:35:59.261Z,,,,,,,,,,,,,,,,,54,,,,,,,,,,,,,,216.60499997469014,,response,,,,100,,,,,,,Space,keypress(Space),,,,,,,,-- --- ---- --- ------ ----- ------- ---- of --- ------- --<br>------- ---------- ------ -- ----- -- ----- -- ---- ------<br>--- ----- --- --- ------ -------- ----- --- ------ ----- --<br>----- ----- ---------- --- --- ------ ------ ---- -- ------<br>------- --- ------ ----- --- ---- ------- -- ---- --- --<br>------- ------,164900.30999999726,164896.9549999747,164663.861,164668.60999999335,164680.35,164913.735,,8,of
screen,html.Screen,2_1_1_1_9,2021-04-24T19:35:59.804Z,,,,,,,,,,,,,,,,,54,,,,,,,,,,,,,,527.8949999866309,,response,,,,100,,,,,,,Space,keypress(Space),,,,,,,,-- --- ---- --- ------ ----- ------- ---- -- its ------- --<br>------- ---------- ------ -- ----- -- ----- -- ---- ------<br>--- ----- --- --- ------ -------- ----- --- ------ ----- --<br>----- ----- ---------- --- --- ------ ------ ---- -- ------<br>------- --- ------ ----- --- ---- ------- -- ---- --- --<br>------- ------,165443.37999998243,165441.62999998662,164897.285,164900.6899999804,164913.735,165446.954,,9,its
screen,html.Screen,2_1_1_1_10,2021-04-24T19:36:00.015Z,,,,,,,,,,,,,,,,,54,,,,,,,,,,,,,,205.66599997892627,,response,,,,100,,,,,,,Space,keypress(Space),,,,,,,,-- --- ---- --- ------ ----- ------- ---- -- --- revenue --<br>------- ---------- ------ -- ----- -- ----- -- ---- ------<br>--- ----- --- --- ------ -------- ----- --- ------ ----- --<br>----- ----- ---------- --- --- ------ ------ ---- -- ------<br>------- --- ------ ----- --- ---- ------- -- ---- --- --<br>------- ------,165654.39499999047,165652.61999997892,165430.474,165443.76500000362,165446.954,165664.857,,10,revenue
screen,html.Screen,2_1_1_1_11,2021-04-24T19:36:00.509Z,,,,,,,,,,,,,,,,,54,,,,,,,,,,,,,,480.9329999804904,,response,,,,100,,,,,,,Space,keypress(Space),,,,,,,,-- --- ---- --- ------ ----- ------- ---- -- --- ------- by<br>------- ---------- ------ -- ----- -- ----- -- ---- ------<br>--- ----- --- --- ------ -------- ----- --- ------ ----- --<br>----- ----- ---------- --- --- ------ ------ ---- -- ------<br>------- --- ------ ----- --- ---- ------- -- ---- --- --<br>------- ------,166147.8449999995,166145.78999998048,165647.594,165654.77999998257,165664.857,166164.749,,11,by
screen,html.Screen,2_1_1_1_12,2021-04-24T19:36:01.138Z,,,,,,,,,,,,,,,,,54,,,,,,,,,,,,,,610.5059999859077,,response,,,,100,,,,,,,Space,keypress(Space),,,,,,,,-- --- ---- --- ------ ----- ------- ---- -- --- ------- --<br>issuing ---------- ------ -- ----- -- ----- -- ---- ------<br>--- ----- --- --- ------ -------- ----- --- ------ ----- --<br>----- ----- ---------- --- --- ------ ------ ---- -- ------<br>------- --- ------ ----- --- ---- ------- -- ---- --- --<br>------- ------,166777.04499999527,166775.25499998592,166147.113,166148.3699999808,166164.749,166780.608,,12,issuing
screen,html.Screen,2_1_1_1_13,2021-04-24T19:36:01.485Z,,,,,,,,,,,,,,,,,54,,,,,,,,,,,,,,341.9769999755081,,response,,,,100,,,,,,,Space,keypress(Space),,,,,,,,-- --- ---- --- ------ ----- ------- ---- -- --- ------- --<br>------- government ------ -- ----- -- ----- -- ---- ------<br>--- ----- --- --- ------ -------- ----- --- ------ ----- --<br>----- ----- ---------- --- --- ------ ------ ---- -- ------<br>------- --- ------ ----- --- ---- ------- -- ---- --- --<br>------- ------,167124.444999994,167122.58499997552,166763.743,166777.49499998754,166780.608,167131.093,,13,government
screen,html.Screen,2_1_1_1_14,2021-04-24T19:36:01.861Z,,,,,,,,,,,,,,,,,54,,,,,,,,,,,,,,366.01199998764787,,response,,,,100,,,,,,,Space,keypress(Space),,,,,,,,-- --- ---- --- ------ ----- ------- ---- -- --- ------- --<br>------- ---------- bonds. -- ----- -- ----- -- ---- ------<br>--- ----- --- --- ------ -------- ----- --- ------ ----- --<br>----- ----- ---------- --- --- ------ ------ ---- -- ------<br>------- --- ------ ----- --- ---- ------- -- ---- --- --<br>------- ------,167499.72999998135,167497.10499998764,167113.737,167124.8599999817,167131.093,167513.709,,14,bonds.
screen,html.Screen,2_1_1_1_15,2021-04-24T19:36:02.317Z,,,,,,,,,,,,,,,,,54,,,,,,,,,,,,,,440.8759999994945,,response,,,,100,,,,,,,Space,keypress(Space),,,,,,,,-- --- ---- --- ------ ----- ------- ---- -- --- ------- --<br>------- ---------- ------ In ----- -- ----- -- ---- ------<br>--- ----- --- --- ------ -------- ----- --- ------ ----- --<br>----- ----- ---------- --- --- ------ ------ ---- -- ------<br>------- --- ------ ----- --- ---- ------- -- ---- --- --<br>------- ------,167956.3499999931,167954.5849999995,167496.829,167500.26499998057,167513.709,167963.581,,15,In
screen,html.Screen,2_1_1_1_16,2021-04-24T19:36:02.558Z,,,,,,,,,,,,,,,,,54,,,,,,,,,,,,,,231.39900000020862,,response,,,,100,,,,,,,Space,keypress(Space),,,,,,,,"-- --- ---- --- ------ ----- ------- ---- -- --- ------- --<br>------- ---------- ------ -- 1727, -- ----- -- ---- ------<br>--- ----- --- --- ------ -------- ----- --- ------ ----- --<br>----- ----- ---------- --- --- ------ ------ ---- -- ------<br>------- --- ------ ----- --- ---- ------- -- ---- --- --<br>------- ------",168196.83499998064,168194.9800000002,167947.031,167956.74500000314,167963.581,168213.823,,16,"1727,"
screen,html.Screen,2_1_1_1_17,2021-04-24T19:36:02.882Z,,,,,,,,,,,,,,,,,54,,,,,,,,,,,,,,305.5670000012906,,response,,,,100,,,,,,,Space,keypress(Space),,,,,,,,-- --- ---- --- ------ ----- ------- ---- -- --- ------- --<br>------- ---------- ------ -- ----- in ----- -- ---- ------<br>--- ----- --- --- ------ -------- ----- --- ------ ----- --<br>----- ----- ---------- --- --- ------ ------ ---- -- ------<br>------- --- ------ ----- --- ---- ------- -- ---- --- --<br>------- ------,168521.35999998427,168519.3900000013,168197.028,168197.22999999067,168213.823,168531.209,,17,in
screen,html.Screen,2_1_1_1_18,2021-04-24T19:36:03.093Z,,,,,,,,,,,,,,,,,54,,,,,,,,,,,,,,198.89099998612073,,response,,,,100,,,,,,,Space,keypress(Space),,,,,,,,-- --- ---- --- ------ ----- ------- ---- -- --- ------- --<br>------- ---------- ------ -- ----- -- order -- ---- ------<br>--- ----- --- --- ------ -------- ----- --- ------ ----- --<br>----- ----- ---------- --- --- ------ ------ ---- -- ------<br>------- --- ------ ----- --- ---- ------- -- ---- --- --<br>------- ------,168732.4099999969,168730.09999998612,168513.714,168521.7549999943,168531.209,168746.881,,18,order
screen,html.Screen,2_1_1_1_19,2021-04-24T19:36:03.351Z,,,,,,,,,,,,,,,,,54,,,,,,,,,,,,,,240.38899998326087,,response,,,,100,,,,,,,Space,keypress(Space),,,,,,,,-- --- ---- --- ------ ----- ------- ---- -- --- ------- --<br>------- ---------- ------ -- ----- -- ----- to ---- ------<br>--- ----- --- --- ------ -------- ----- --- ------ ----- --<br>----- ----- ---------- --- --- ------ ------ ---- -- ------<br>------- --- ------ ----- --- ---- ------- -- ---- --- --<br>------- ------,168989.56499999622,168987.26999998325,168730.332,168732.79999999795,168746.881,169000.031,,19,to
screen,html.Screen,2_1_1_1_20,2021-04-24T19:36:03.540Z,,,,,,,,,,,,,,,,,54,,,,,,,,,,,,,,176.3689999966591,,response,,,,100,,,,,,,Space,keypress(Space),,,,,,,,-- --- ---- --- ------ ----- ------- ---- -- --- ------- --<br>------- ---------- ------ -- ----- -- ----- -- save ------<br>--- ----- --- --- ------ -------- ----- --- ------ ----- --<br>----- ----- ---------- --- --- ------ ------ ---- -- ------<br>------- --- ------ ----- --- ---- ------- -- ---- --- --<br>------- ------,169178.55499999132,169176.39999999665,168980.144,168990.03499999526,169000.031,169213.524,,20,save
screen,html.Screen,2_1_1_1_21,2021-04-24T19:36:03.802Z,,,,,,,,,,,,,,,,,54,,,,,,,,,,,,,,224.26099998733844,,response,,,,100,,,,,,,Space,keypress(Space),,,,,,,,"-- --- ---- --- ------ ----- ------- ---- -- --- ------- --<br>------- ---------- ------ -- ----- -- ----- -- ---- money,<br>--- ----- --- --- ------ -------- ----- --- ------ ----- --<br>----- ----- ---------- --- --- ------ ------ ---- -- ------<br>------- --- ------ ----- --- ---- ------- -- ---- --- --<br>------- ------",169440.56999997701,169437.78499998734,169196.81,169178.95499998122,169213.524,169447.856,,21,"money,"
screen,html.Screen,2_1_1_1_22,2021-04-24T19:36:04.329Z,,,,,,,,,,,,,,,,,54,,,,,,,,,,,,,,518.6240000027756,,response,,,,100,,,,,,,Space,keypress(Space),,,,,,,,-- --- ---- --- ------ ----- ------- ---- -- --- ------- --<br>------- ---------- ------ -- ----- -- ----- -- ---- ------<br>the ----- --- --- ------ -------- ----- --- ------ ----- --<br>----- ----- ---------- --- --- ------ ------ ---- -- ------<br>------- --- ------ ----- --- ---- ------- -- ---- --- --<br>------- ------,169968.29999997863,169966.48000000278,169430.1,169440.94499998027,169447.856,169981.38,,22,the
screen,html.Screen,2_1_1_1_23,2021-04-24T19:36:04.774Z,,,,,,,,,,,,,,,,,54,,,,,,,,,,,,,,429.324999987497,,response,,,,100,,,,,,,Space,keypress(Space),,,,,,,,-- --- ---- --- ------ ----- ------- ---- -- --- ------- --<br>------- ---------- ------ -- ----- -- ----- -- ---- ------<br>--- state --- --- ------ -------- ----- --- ------ ----- --<br>----- ----- ---------- --- --- ------ ------ ---- -- ------<br>------- --- ------ ----- --- ---- ------- -- ---- --- --<br>------- ------,170412.67499999958,170410.7049999875,169964.612,169968.80499998224,169981.38,170430.829,,23,state
screen,html.Screen,2_1_1_1_24,2021-04-24T19:36:05.154Z,,,,,,,,,,,,,,,,,54,,,,,,,,,,,,,,360.25099999542,,response,,,,100,,,,,,,Space,keypress(Space),,,,,,,,-- --- ---- --- ------ ----- ------- ---- -- --- ------- --<br>------- ---------- ------ -- ----- -- ----- -- ---- ------<br>--- ----- cut --- ------ -------- ----- --- ------ ----- --<br>----- ----- ---------- --- --- ------ ------ ---- -- ------<br>------- --- ------ ----- --- ---- ------- -- ---- --- --<br>------- ------,170792.82499998226,170791.07999999542,170413.586,170413.0699999805,170430.829,170796.709,,24,cut
screen,html.Screen,2_1_1_1_25,2021-04-24T19:36:05.417Z,,,,,,,,,,,,,,,,,54,,,,,,,,,,,,,,257.85099998957594,,response,,,,100,,,,,,,Space,keypress(Space),,,,,,,,-- --- ---- --- ------ ----- ------- ---- -- --- ------- --<br>------- ---------- ------ -- ----- -- ----- -- ---- ------<br>--- ----- --- the ------ -------- ----- --- ------ ----- --<br>----- ----- ---------- --- --- ------ ------ ---- -- ------<br>------- --- ------ ----- --- ---- ------- -- ---- --- --<br>------- ------,171056.30499997642,171054.55999998958,170780.239,170793.2049999945,170796.709,171064.089,,25,the
screen,html.Screen,2_1_1_1_26,2021-04-24T19:36:05.728Z,,,,,,,,,,,,,,,,,54,,,,,,,,,,,,,,300.9059999817109,,response,,,,100,,,,,,,Space,keypress(Space),,,,,,,,-- --- ---- --- ------ ----- ------- ---- -- --- ------- --<br>------- ---------- ------ -- ----- -- ----- -- ---- ------<br>--- ----- --- --- bonds' -------- ----- --- ------ ----- --<br>----- ----- ---------- --- --- ------ ------ ---- -- ------<br>------- --- ------ ----- --- ---- ------- -- ---- --- --<br>------- ------,171366.7649999843,171364.99499998172,171046.816,171056.69499997748,171064.089,171380.168,,26,bonds'
screen,html.Screen,2_1_1_1_27,2021-04-24T19:36:06.033Z,,,,,,,,,,,,,,,,,54,,,,,,,,,,,,,,289.3269999800832,,response,,,,100,,,,,,,Space,keypress(Space),,,,,,,,-- --- ---- --- ------ ----- ------- ---- -- --- ------- --<br>------- ---------- ------ -- ----- -- ----- -- ---- ------<br>--- ----- --- --- ------ interest ----- --- ------ ----- --<br>----- ----- ---------- --- --- ------ ------ ---- -- ------<br>------- --- ------ ----- --- ---- ------- -- ---- --- --<br>------- ------,171671.56499999692,171669.4949999801,171363.553,171367.1499999764,171380.168,171681.062,,27,interest
screen,html.Screen,2_1_1_1_28,2021-04-24T19:36:06.406Z,,,,,,,,,,,,,,,,,54,,,,,,,,,,,,,,361.9179999983462,,response,,,,100,,,,,,,Space,keypress(Space),,,,,,,,-- --- ---- --- ------ ----- ------- ---- -- --- ------- --<br>------- ---------- ------ -- ----- -- ----- -- ---- ------<br>--- ----- --- --- ------ -------- rate. --- ------ ----- --<br>----- ----- ---------- --- --- ------ ------ ---- -- ------<br>------- --- ------ ----- --- ---- ------- -- ---- --- --<br>------- ------,172044.71499999636,172042.97999999835,171663.529,171672.0599999826,171681.062,172047.214,,28,rate.
screen,html.Screen,2_1_1_1_29,2021-04-24T19:36:06.610Z,,,,,,,,,,,,,,,,,54,,,,,,,,,,,,,,198.85599999377155,,response,,,,100,,,,,,,Space,keypress(Space),,,,,,,,-- --- ---- --- ------ ----- ------- ---- -- --- ------- --<br>------- ---------- ------ -- ----- -- ----- -- ---- ------<br>--- ----- --- --- ------ -------- ----- The ------ ----- --<br>----- ----- ---------- --- --- ------ ------ ---- -- ------<br>------- --- ------ ----- --- ---- ------- -- ---- --- --<br>------- ------,172248.60500000068,172246.06999999378,172030.247,172045.10499999742,172047.214,172263.597,,29,The
screen,html.Screen,2_1_1_1_30,2021-04-24T19:36:06.996Z,,,,,,,,,,,,,,,,,54,,,,,,,,,,,,,,369.0429999961634,,response,,,,100,,,,,,,Space,keypress(Space),,,,,,,,-- --- ---- --- ------ ----- ------- ---- -- --- ------- --<br>------- ---------- ------ -- ----- -- ----- -- ---- ------<br>--- ----- --- --- ------ -------- ----- --- market ----- --<br>----- ----- ---------- --- --- ------ ------ ---- -- ------<br>------- --- ------ ----- --- ---- ------- -- ---- --- --<br>------- ------,172634.57999998354,172632.63999999617,172246.974,172249.00499999058,172263.597,172646.672,,30,market
screen,html.Screen,2_1_1_1_31,2021-04-24T19:36:07.187Z,,,,,,,,,,,,,,,,,54,,,,,,,,,,,,,,177.56299997822498,,response,,,,100,,,,,,,Space,keypress(Space),,,,,,,,-- --- ---- --- ------ ----- ------- ---- -- --- ------- --<br>------- ---------- ------ -- ----- -- ----- -- ---- ------<br>--- ----- --- --- ------ -------- ----- --- ------ value --<br>----- ----- ---------- --- --- ------ ------ ---- -- ------<br>------- --- ------ ----- --- ---- ------- -- ---- --- --<br>------- ------,172826.01499999873,172824.23499997822,172630.148,172634.9849999824,172646.672,172830.339,,31,value
screen,html.Screen,2_1_1_1_32,2021-04-24T19:36:07.478Z,,,,,,,,,,,,,,,,,54,,,,,,,,,,,,,,285.3909999904281,,response,,,,100,,,,,,,Space,keypress(Space),,,,,,,,-- --- ---- --- ------ ----- ------- ---- -- --- ------- --<br>------- ---------- ------ -- ----- -- ----- -- ---- ------<br>--- ----- --- --- ------ -------- ----- --- ------ ----- of<br>----- ----- ---------- --- --- ------ ------ ---- -- ------<br>------- --- ------ ----- --- ---- ------- -- ---- --- --<br>------- ------,173117.42999998387,173115.72999999044,172813.228,172826.4049999998,172830.339,173130.423,,32,of
screen,html.Screen,2_1_1_1_33,2021-04-24T19:36:07.693Z,,,,,,,,,,,,,,,,,54,,,,,,,,,,,,,,199.25199998629978,,response,,,,100,,,,,,,Space,keypress(Space),,,,,,,,-- --- ---- --- ------ ----- ------- ---- -- --- ------- --<br>------- ---------- ------ -- ----- -- ----- -- ---- ------<br>--- ----- --- --- ------ -------- ----- --- ------ ----- --<br>these ----- ---------- --- --- ------ ------ ---- -- ------<br>------- --- ------ ----- --- ---- ------- -- ---- --- --<br>------- ------,173332.24999997765,173329.6749999863,173113.468,173117.97500000102,173130.423,173346.707,,33,these
screen,html.Screen,2_1_1_1_34,2021-04-24T19:36:07.932Z,,,,,,,,,,,,,,,,,54,,,,,,,,,,,,,,222.4029999821796,,response,,,,100,,,,,,,Space,keypress(Space),,,,,,,,-- --- ---- --- ------ ----- ------- ---- -- --- ------- --<br>------- ---------- ------ -- ----- -- ----- -- ---- ------<br>--- ----- --- --- ------ -------- ----- --- ------ ----- --<br>----- bonds ---------- --- --- ------ ------ ---- -- ------<br>------- --- ------ ----- --- ---- ------- -- ---- --- --<br>------- ------,173571.4900000021,173569.10999998217,173330.128,173332.6399999787,173346.707,173581.687,,34,bonds
screen,html.Screen,2_1_1_1_35,2021-04-24T19:36:08.272Z,,,,,,,,,,,,,,,,,54,,,,,,,,,,,,,,326.4279999983555,,response,,,,100,,,,,,,Space,keypress(Space),,,,,,,,"-- --- ---- --- ------ ----- ------- ---- -- --- ------- --<br>------- ---------- ------ -- ----- -- ----- -- ---- ------<br>--- ----- --- --- ------ -------- ----- --- ------ ----- --<br>----- ----- plummeted, --- --- ------ ------ ---- -- ------<br>------- --- ------ ----- --- ---- ------- -- ---- --- --<br>------- ------",173910.80499999225,173908.11499999836,173563.352,173571.884999983,173581.687,173913.222,,35,"plummeted,"
screen,html.Screen,2_1_1_1_36,2021-04-24T19:36:08.567Z,,,,,,,,,,,,,,,,,54,,,,,,,,,,,,,,290.6229999818024,,response,,,,100,,,,,,,Space,keypress(Space),,,,,,,,-- --- ---- --- ------ ----- ------- ---- -- --- ------- --<br>------- ---------- ------ -- ----- -- ----- -- ---- ------<br>--- ----- --- --- ------ -------- ----- --- ------ ----- --<br>----- ----- ---------- and --- ------ ------ ---- -- ------<br>------- --- ------ ----- --- ---- ------- -- ---- --- --<br>------- ------,174205.56999999098,174203.8449999818,173896.761,173911.1949999933,173913.222,174214.786,,36,and
screen,html.Screen,2_1_1_1_37,2021-04-24T19:36:08.795Z,,,,,,,,,,,,,,,,,54,,,,,,,,,,,,,,217.3239999942889,,response,,,,100,,,,,,,Space,keypress(Space),,,,,,,,-- --- ---- --- ------ ----- ------- ---- -- --- ------- --<br>------- ---------- ------ -- ----- -- ----- -- ---- ------<br>--- ----- --- --- ------ -------- ----- --- ------ ----- --<br>----- ----- ---------- --- the ------ ------ ---- -- ------<br>------- --- ------ ----- --- ---- ------- -- ---- --- --<br>------- ------,174433.90000000363,174432.10999999428,174196.747,174205.96500000102,174214.786,174446.634,,37,the
screen,html.Screen,2_1_1_1_38,2021-04-24T19:36:09.001Z,,,,,,,,,,,,,,,,,54,,,,,,,,,,,,,,190.48599999942235,,response,,,,100,,,,,,,Space,keypress(Space),,,,,,,,-- --- ---- --- ------ ----- ------- ---- -- --- ------- --<br>------- ---------- ------ -- ----- -- ----- -- ---- ------<br>--- ----- --- --- ------ -------- ----- --- ------ ----- --<br>----- ----- ---------- --- --- market ------ ---- -- ------<br>------- --- ------ ----- --- ---- ------- -- ---- --- --<br>------- ------,174639.89500000025,174637.1199999994,174430.074,174434.28499999573,174446.634,174647.49,,38,market
screen,html.Screen,2_1_1_1_39,2021-04-24T19:36:09.250Z,,,,,,,,,,,,,,,,,54,,,,,,,,,,,,,,238.01499998383224,,response,,,,100,,,,,,,Space,keypress(Space),,,,,,,,-- --- ---- --- ------ ----- ------- ---- -- --- ------- --<br>------- ---------- ------ -- ----- -- ----- -- ---- ------<br>--- ----- --- --- ------ -------- ----- --- ------ ----- --<br>----- ----- ---------- --- --- ------ became ---- -- ------<br>------- --- ------ ----- --- ---- ------- -- ---- --- --<br>------- ------,174889.4900000014,174885.50499998382,174630.16,174640.30999998795,174647.49,174897.65,,39,became
screen,html.Screen,2_1_1_1_40,2021-04-24T19:36:09.562Z,,,,,,,,,,,,,,,,,54,,,,,,,,,,,,,,302.12999999537715,,response,,,,100,,,,,,,Space,keypress(Space),,,,,,,,-- --- ---- --- ------ ----- ------- ---- -- --- ------- --<br>------- ---------- ------ -- ----- -- ----- -- ---- ------<br>--- ----- --- --- ------ -------- ----- --- ------ ----- --<br>----- ----- ---------- --- --- ------ ------ wary -- ------<br>------- --- ------ ----- --- ---- ------- -- ---- --- --<br>------- ------,175201.52000000235,175199.77999999537,174880.871,174889.88000000245,174897.65,175213.413,,40,wary
screen,html.Screen,2_1_1_1_41,2021-04-24T19:36:09.843Z,,,,,,,,,,,,,,,,,54,,,,,,,,,,,,,,265.271999980032,,response,,,,100,,,,,,,Space,keypress(Space),,,,,,,,-- --- ---- --- ------ ----- ------- ---- -- --- ------- --<br>------- ---------- ------ -- ----- -- ----- -- ---- ------<br>--- ----- --- --- ------ -------- ----- --- ------ ----- --<br>----- ----- ---------- --- --- ------ ------ ---- of ------<br>------- --- ------ ----- --- ---- ------- -- ---- --- --<br>------- ------,175481.76499997498,175478.68499998003,175197.264,175201.91499998327,175213.413,175496.819,,41,of
screen,html.Screen,2_1_1_1_42,2021-04-24T19:36:10.104Z,,,,,,,,,,,,,,,,,54,,,,,,,,,,,,,,244.04099999080063,,response,,,,100,,,,,,,Space,keypress(Space),,,,,,,,-- --- ---- --- ------ ----- ------- ---- -- --- ------- --<br>------- ---------- ------ -- ----- -- ----- -- ---- ------<br>--- ----- --- --- ------ -------- ----- --- ------ ----- --<br>----- ----- ---------- --- --- ------ ------ ---- -- French<br>------- --- ------ ----- --- ---- ------- -- ---- --- --<br>------- ------,175742.81499997596,175740.8599999908,175480.022,175482.15499997605,175496.819,175746.473,,42,French
screen,html.Screen,2_1_1_1_43,2021-04-24T19:36:10.442Z,,,,,,,,,,,,,,,,,54,,,,,,,,,,,,,,331.5070000018459,,response,,,,100,,,,,,,Space,keypress(Space),,,,,,,,-- --- ---- --- ------ ----- ------- ---- -- --- ------- --<br>------- ---------- ------ -- ----- -- ----- -- ---- ------<br>--- ----- --- --- ------ -------- ----- --- ------ ----- --<br>----- ----- ---------- --- --- ------ ------ ---- -- ------<br>credit. --- ------ ----- --- ---- ------- -- ---- --- --<br>------- ------,176080.90999998967,176077.98000000184,175730.758,175743.21499999496,175746.473,176096.791,,43,credit.
screen,html.Screen,2_1_1_1_44,2021-04-24T19:36:10.763Z,,,,,,,,,,,,,,,,,54,,,,,,,,,,,,,,302.7839999885473,,response,,,,100,,,,,,,Space,keypress(Space),,,,,,,,-- --- ---- --- ------ ----- ------- ---- -- --- ------- --<br>------- ---------- ------ -- ----- -- ----- -- ---- ------<br>--- ----- --- --- ------ -------- ----- --- ------ ----- --<br>----- ----- ---------- --- --- ------ ------ ---- -- ------<br>------- The ------ ----- --- ---- ------- -- ---- --- --<br>------- ------,176401.595000003,176399.57499998854,176080.72,176081.3049999997,176096.791,176413.092,,44,The
screen,html.Screen,2_1_1_1_45,2021-04-24T19:36:11.023Z,,,,,,,,,,,,,,,,,54,,,,,,,,,,,,,,247.12799999065464,,response,,,,100,,,,,,,Space,keypress(Space),,,,,,,,-- --- ---- --- ------ ----- ------- ---- -- --- ------- --<br>------- ---------- ------ -- ----- -- ----- -- ---- ------<br>--- ----- --- --- ------ -------- ----- --- ------ ----- --<br>----- ----- ---------- --- --- ------ ------ ---- -- ------<br>------- --- French ----- --- ---- ------- -- ---- --- --<br>------- ------,176662.24999999395,176660.21999999066,176396.989,176401.98499997496,176413.092,176680.219,,45,French
screen,html.Screen,2_1_1_1_46,2021-04-24T19:36:11.201Z,,,,,,,,,,,,,,,,,54,,,,,,,,,,,,,,157.10600000040722,,response,,,,100,,,,,,,Space,keypress(Space),,,,,,,,-- --- ---- --- ------ ----- ------- ---- -- --- ------- --<br>------- ---------- ------ -- ----- -- ----- -- ---- ------<br>--- ----- --- --- ------ -------- ----- --- ------ ----- --<br>----- ----- ---------- --- --- ------ ------ ---- -- ------<br>------- --- ------ state --- ---- ------- -- ---- --- --<br>------- ------,176839.9099999806,176837.32500000042,176663.301,176662.62999997707,176680.219,176847.098,,46,state
screen,html.Screen,2_1_1_1_47,2021-04-24T19:36:11.474Z,,,,,,,,,,,,,,,,,54,,,,,,,,,,,,,,264.5119999926537,,response,,,,100,,,,,,,Space,keypress(Space),,,,,,,,-- --- ---- --- ------ ----- ------- ---- -- --- ------- --<br>------- ---------- ------ -- ----- -- ----- -- ---- ------<br>--- ----- --- --- ------ -------- ----- --- ------ ----- --<br>----- ----- ---------- --- --- ------ ------ ---- -- ------<br>------- --- ------ ----- was ---- ------- -- ---- --- --<br>------- ------,177113.3399999817,177111.60999999265,176829.968,176840.31499997946,176847.098,177130.784,,47,was
screen,html.Screen,2_1_1_1_48,2021-04-24T19:36:11.712Z,,,,,,,,,,,,,,,,,54,,,,,,,,,,,,,,217.0560000021651,,response,,,,100,,,,,,,Space,keypress(Space),,,,,,,,-- --- ---- --- ------ ----- ------- ---- -- --- ------- --<br>------- ---------- ------ -- ----- -- ----- -- ---- ------<br>--- ----- --- --- ------ -------- ----- --- ------ ----- --<br>----- ----- ---------- --- --- ------ ------ ---- -- ------<br>------- --- ------ ----- --- left ------- -- ---- --- --<br>------- ------,177350.55999999167,177347.84000000218,177113.11,177113.73499999172,177130.784,177363.044,,48,left
screen,html.Screen,2_1_1_1_49,2021-04-24T19:36:12.005Z,,,,,,,,,,,,,,,,,54,,,,,,,,,,,,,,278.7209999784827,,response,,,,100,,,,,,,Space,keypress(Space),,,,,,,,-- --- ---- --- ------ ----- ------- ---- -- --- ------- --<br>------- ---------- ------ -- ----- -- ----- -- ---- ------<br>--- ----- --- --- ------ -------- ----- --- ------ ----- --<br>----- ----- ---------- --- --- ------ ------ ---- -- ------<br>------- --- ------ ----- --- ---- without -- ---- --- --<br>------- ------,177643.5300000012,177641.76499997848,177347.472,177350.94499998377,177363.044,177646.388,,49,without
screen,html.Screen,2_1_1_1_50,2021-04-24T19:36:12.158Z,,,,,,,,,,,,,,,,,54,,,,,,,,,,,,,,148.37199998975848,,response,,,,100,,,,,,,Space,keypress(Space),,,,,,,,-- --- ---- --- ------ ----- ------- ---- -- --- ------- --<br>------- ---------- ------ -- ----- -- ----- -- ---- ------<br>--- ----- --- --- ------ -------- ----- --- ------ ----- --<br>----- ----- ---------- --- --- ------ ------ ---- -- ------<br>------- --- ------ ----- --- ---- ------- an ---- --- --<br>------- ------,177796.58499997458,177794.75999998976,177630.699,177643.91499999329,177646.388,177813.378,,50,an
screen,html.Screen,2_1_1_1_51,2021-04-24T19:36:12.316Z,,,,,,,,,,,,,,,,,54,,,,,,,,,,,,,,140.30699998585624,,response,,,,100,,,,,,,Space,keypress(Space),,,,,,,,-- --- ---- --- ------ ----- ------- ---- -- --- ------- --<br>------- ---------- ------ -- ----- -- ----- -- ---- ------<br>--- ----- --- --- ------ -------- ----- --- ------ ----- --<br>----- ----- ---------- --- --- ------ ------ ---- -- ------<br>------- --- ------ ----- --- ---- ------- -- easy --- --<br>------- ------,177955.47999997507,177953.68499998585,177796.623,177796.9799999846,177813.378,177964.553,,51,easy
screen,html.Screen,2_1_1_1_52,2021-04-24T19:36:12.597Z,,,,,,,,,,,,,,,,,54,,,,,,,,,,,,,,269.092000000237,,response,,,,100,,,,,,,Space,keypress(Space),,,,,,,,-- --- ---- --- ------ ----- ------- ---- -- --- ------- --<br>------- ---------- ------ -- ----- -- ----- -- ---- ------<br>--- ----- --- --- ------ -------- ----- --- ------ ----- --<br>----- ----- ---------- --- --- ------ ------ ---- -- ------<br>------- --- ------ ----- --- ---- ------- -- ---- way --<br>------- ------,178235.8649999951,178233.64500000025,177946.584,177955.86999997613,177964.553,178249.112,,52,way
screen,html.Screen,2_1_1_1_53,2021-04-24T19:36:12.867Z,,,,,,,,,,,,,,,,,54,,,,,,,,,,,,,,255.57299999261159,,response,,,,100,,,,,,,Space,keypress(Space),,,,,,,,-- --- ---- --- ------ ----- ------- ---- -- --- ------- --<br>------- ---------- ------ -- ----- -- ----- -- ---- ------<br>--- ----- --- --- ------ -------- ----- --- ------ ----- --<br>----- ----- ---------- --- --- ------ ------ ---- -- ------<br>------- --- ------ ----- --- ---- ------- -- ---- --- of<br>------- ------,178506.44999998622,178504.6849999926,178229.896,178236.3400000031,178249.112,178514.088,,53,of
screen,html.Screen,2_1_1_1_54,2021-04-24T19:36:13.178Z,,,,,,,,,,,,,,,,,54,,,,,,,,,,,,,,301.16199998511,,response,,,,100,,,,,,,Space,keypress(Space),,,,,,,,-- --- ---- --- ------ ----- ------- ---- -- --- ------- --<br>------- ---------- ------ -- ----- -- ----- -- ---- ------<br>--- ----- --- --- ------ -------- ----- --- ------ ----- --<br>----- ----- ---------- --- --- ------ ------ ---- -- ------<br>------- --- ------ ----- --- ---- ------- -- ---- --- --<br>raising ------,178816.97499999427,178815.2499999851,178496.565,178506.83999998728,178514.088,178830.905,,54,raising
screen,html.Screen,2_1_1_1_55,2021-04-24T19:36:13.593Z,,,,,,,,,,,,,,,,,54,,,,,,,,,,,,,,398.52499997758423,,response,,,,100,,,,,,,Space,keypress(Space),,,,,,,,-- --- ---- --- ------ ----- ------- ---- -- --- ------- --<br>------- ---------- ------ -- ----- -- ----- -- ---- ------<br>--- ----- --- --- ------ -------- ----- --- ------ ----- --<br>----- ----- ---------- --- --- ------ ------ ---- -- ------<br>------- --- ------ ----- --- ---- ------- -- ---- --- --<br>------- money.,179232.1149999916,179229.42999997758,178813.19,178817.45000000228,178830.905,179246.336,,55,money.
Item 100,flow.Loop,2_1_1_1,2021-04-24T19:36:13.594Z,,,,,,,,,,,,,,,,,,,,,,,,,,,,,,,17548.628999977576,,completion,,,,,A,,,,,,,,,,,silence,,,,,179232.80499997782,179229.42999997758,161664.012,161665.95499997493,161680.801,179246.336,,,
Question 1,html.Screen,2_1_1_2,2021-04-24T19:36:15.753Z,,,,,,,,,,,,,,,,,,,,,,,,,,,,true,TRUE,,2142.088999982807,,response,,,,100,A,,,,,,TRUE,click #choice-1,,,,silence,,,,,181391.82999997865,181388.42499998282,179229.842,179233.1449999765,179246.336,181396.234,,,
Question 2,html.Screen,2_1_1_3,2021-04-24T19:36:17.921Z,,,,,,,,,,,,,,,,,,,,,,,,,,,,true,FALSE,,2161.760999981023,,response,,,,100,A,,,,,,FALSE,click #choice-2,,,,silence,,,,,183559.75999997463,183557.99499998102,181380.6,181392.2399999865,181396.234,183562.729,,,
Item 100,flow.Sequence,2_1_1,2021-04-24T19:36:17.921Z,,,,,,,,,,,,,,,,,,,,,,,,,,,,,,,31877.084999981016,,completion,,,,,,,,,,,,,,,,,,,,,183559.9949999887,183557.99499998102,151664.277,151672.6449999842,151680.91,183562.729,,,
End of Practice,html.Page,2_1_2,2021-04-24T19:36:22.514Z,,,,,,,,,,,,,,,,,,,,,,,,,,,,,,,4589.485999980068,,form submission,,,,,,,,,,,,,,,,,,,,,188152.8849999886,188152.21499998006,183547.031,183560.10000000242,183562.729,188162.587,,,
Practice,flow.Sequence,2_1,2021-04-24T19:36:22.515Z,,,,,,,,,,,,,,,,,,,,,,,,,,,,,,,70951.96199998006,,completion,,,,,,,,,,,,,,,,,,,,,188153.5149999836,188152.21499998006,117166.079,117178.6649999849,117200.253,188162.587,,,
Trap_instruction,html.Page,2_2_0,2021-04-24T19:36:25.226Z,,,,,,,,,,,,,,,,,,,,,,,,,,,,,,,2701.77799998672,,form submission,,,,,,,,,,,,,,,,,,,,,190865.0599999819,190864.36499998672,188145.872,188153.96999998484,188162.587,190912.469,,,
trap_trial,html.Screen,2_2_1,2021-04-24T19:36:29.509Z,,,,,,,,,,,,,,,,,,,,,,,,,,,,true,1,,4234.035999982414,,response,,,,,,,,,,,1,click #choice-1,,,,,,,,,195147.93499998632,195146.50499998243,190846.923,190865.43499998515,190912.469,195162.263,,,
end of trap trial,html.Page,2_2_2,2021-04-24T19:36:33.055Z,,,,,,,,,,,,,,,,,,,,,,,,,,,,,,,3530.696999985754,,form submission,,,,,,,,,,,,,,,,,,,,,198693.92499999958,198692.95999998576,195146.701,195148.13499999582,195162.263,198695.411,,,
Trap 1,flow.Sequence,2_2,2021-04-24T19:36:33.056Z,,,,,,,,,,,,,,,,,,,,,,,,,,,,,,,10530.37299998576,,completion,,,,,,,,,,,,,,,,,,,,,198694.6299999836,198692.95999998576,188145.872,188153.82999999565,188162.587,198695.411,,,
Standby,html.Page,2_3_0,2021-04-24T19:36:41.043Z,,,,,,,,,,,,,,,,,,,,,,,,,,,,,,,8000.7179999999935,,timeout,,,,,,,,,,,,,,,,,,,,,206681.69499997748,206679.493,198678.946,198695.16000000294,198695.411,206696.129,,,
Holding screen,html.Screen,2_3_1_0_0,2021-04-24T19:36:48.042Z,,,,,,,,,,,,,,,,,,,,,,,,,,,,,,,7001.929000000004,,timeout,,,,,,,,,,,,,,,,,,,,,213680.85999999312,213679.272,206679.493,206682.54499998875,206696.129,213698.058,,,
screen,html.Screen,2_3_1_0_1_0,2021-04-24T19:36:49.676Z,,,,,,,,,,,,,,,,,15,,,,,,,,,,,,,,1614.0119999854069,,response,,,,7,A,,,,,,Space,keypress(Space),,,,silence,,,,Greg --------- ---------- - --- ------- -- --- ------------<br>----- -- -------- ------- ---- ------ - -------- ---- -----<br>--- ------- ---- -- --- -------- --- - ----- ------ ---- --<br>-------- --- -------- -------- --- -------- ---- -- ----- -<br>-------- ---- --- ---------- --------- -- ------- ------ -<br>--------- ----- -----,215314.8799999908,215312.0699999854,213679.272,213681.47999999928,213698.058,215332.278,,0,Greg
screen,html.Screen,2_3_1_0_1_1,2021-04-24T19:36:50.063Z,,,,,,,,,,,,,,,,,15,,,,,,,,,,,,,,366.7519999888609,,response,,,,7,A,,,,,,Space,keypress(Space),,,,silence,,,,"---- Anderson, ---------- - --- ------- -- --- ------------<br>----- -- -------- ------- ---- ------ - -------- ---- -----<br>--- ------- ---- -- --- -------- --- - ----- ------ ---- --<br>-------- --- -------- -------- --- -------- ---- -- ----- -<br>-------- ---- --- ---------- --------- -- ------- ------ -<br>--------- ----- -----",215701.81499997852,215699.02999998885,215311.235,215315.3250000032,215332.278,215712.396,,1,"Anderson,"
screen,html.Screen,2_3_1_0_1_2,2021-04-24T19:36:50.676Z,,,,,,,,,,,,,,,,,15,,,,,,,,,,,,,,601.133999984886,,response,,,,7,A,,,,,,Space,keypress(Space),,,,silence,,,,---- --------- considered - --- ------- -- --- ------------<br>----- -- -------- ------- ---- ------ - -------- ---- -----<br>--- ------- ---- -- --- -------- --- - ----- ------ ---- --<br>-------- --- -------- -------- --- -------- ---- -- ----- -<br>-------- ---- --- ---------- --------- -- ------- ------ -<br>--------- ----- -----,216315.2799999807,216313.5299999849,215694.827,215702.21499999752,215712.396,216328.043,,2,considered
screen,html.Screen,2_3_1_0_1_3,2021-04-24T19:36:51.033Z,,,,,,,,,,,,,,,,,15,,,,,,,,,,,,,,341.45699998905184,,response,,,,7,A,,,,,,Space,keypress(Space),,,,silence,,,,---- --------- ---------- a --- ------- -- --- ------------<br>----- -- -------- ------- ---- ------ - -------- ---- -----<br>--- ------- ---- -- --- -------- --- - ----- ------ ---- --<br>-------- --- -------- -------- --- -------- ---- -- ----- -<br>-------- ---- --- ---------- --------- -- ------- ------ -<br>--------- ----- -----,216672.03499999596,216669.49999998906,216311.452,216315.65999999293,216328.043,216677.898,,3,a
screen,html.Screen,2_3_1_0_1_4,2021-04-24T19:36:51.305Z,,,,,,,,,,,,,,,,,15,,,,,,,,,,,,,,263.27699998539174,,response,,,,7,A,,,,,,Space,keypress(Space),,,,silence,,,,---- --------- ---------- - key ------- -- --- ------------<br>----- -- -------- ------- ---- ------ - -------- ---- -----<br>--- ------- ---- -- --- -------- --- - ----- ------ ---- --<br>-------- --- -------- -------- --- -------- ---- -- ----- -<br>-------- ---- --- ---------- --------- -- ------- ------ -<br>--------- ----- -----,216943.36499998462,216941.17499998538,216661.454,216672.41499997908,216677.898,216961.566,,4,key
screen,html.Screen,2_3_1_0_1_5,2021-04-24T19:36:51.542Z,,,,,,,,,,,,,,,,,15,,,,,,,,,,,,,,216.18400000256952,,response,,,,7,A,,,,,,Space,keypress(Space),,,,silence,,,,---- --------- ---------- - --- witness -- --- ------------<br>----- -- -------- ------- ---- ------ - -------- ---- -----<br>--- ------- ---- -- --- -------- --- - ----- ------ ---- --<br>-------- --- -------- -------- --- -------- ---- -- ----- -<br>-------- ---- --- ---------- --------- -- ------- ------ -<br>--------- ----- -----,217181.24999999418,217177.75000000256,216944.769,216943.91000000178,216961.566,217194.708,,5,witness
screen,html.Screen,2_3_1_0_1_6,2021-04-24T19:36:51.808Z,,,,,,,,,,,,,,,,,15,,,,,,,,,,,,,,250.4719999805966,,response,,,,7,A,,,,,,Space,keypress(Space),,,,silence,,,,---- --------- ---------- - --- ------- by --- ------------<br>----- -- -------- ------- ---- ------ - -------- ---- -----<br>--- ------- ---- -- --- -------- --- - ----- ------ ---- --<br>-------- --- -------- -------- --- -------- ---- -- ----- -<br>-------- ---- --- ---------- --------- -- ------- ------ -<br>--------- ----- -----,217447.1499999927,217445.1799999806,217178.105,217181.66999999085,217194.708,217461.704,,6,by
screen,html.Screen,2_3_1_0_1_7,2021-04-24T19:36:52.152Z,,,,,,,,,,,,,,,,,15,,,,,,,,,,,,,,326.3259999960719,,response,,,,7,A,,,,,,Space,keypress(Space),,,,silence,,,,---- --------- ---------- - --- ------- -- the ------------<br>----- -- -------- ------- ---- ------ - -------- ---- -----<br>--- ------- ---- -- --- -------- --- - ----- ------ ---- --<br>-------- --- -------- -------- --- -------- ---- -- ----- -<br>-------- ---- --- ---------- --------- -- ------- ------ -<br>--------- ----- -----,217790.8349999925,217788.02999999607,217444.625,217447.6250000007,217461.704,217794.537,,7,the
screen,html.Screen,2_3_1_0_1_8,2021-04-24T19:36:52.383Z,,,,,,,,,,,,,,,,,15,,,,,,,,,,,,,,225.33799999812618,,response,,,,7,A,,,,,,Space,keypress(Space),,,,silence,,,,"---- --------- ---------- - --- ------- -- --- prosecution,<br>----- -- -------- ------- ---- ------ - -------- ---- -----<br>--- ------- ---- -- --- -------- --- - ----- ------ ---- --<br>-------- --- -------- -------- --- -------- ---- -- ----- -<br>-------- ---- --- ---------- --------- -- ------- ------ -<br>--------- ----- -----",218021.92999998806,218019.87499999814,217778.069,217791.23000000254,217794.537,218030.038,,8,"prosecution,"
screen,html.Screen,2_3_1_0_1_9,2021-04-24T19:36:53.097Z,,,,,,,,,,,,,,,,,15,,,,,,,,,,,,,,704.5320000005304,,response,,,,7,A,,,,,,Space,keypress(Space),,,,silence,,,,---- --------- ---------- - --- ------- -- --- ------------<br>vowed -- -------- ------- ---- ------ - -------- ---- -----<br>--- ------- ---- -- --- -------- --- - ----- ------ ---- --<br>-------- --- -------- -------- --- -------- ---- -- ----- -<br>-------- ---- --- ---------- --------- -- ------- ------ -<br>--------- ----- -----,218735.43999998947,218734.57000000053,218012.668,218022.31999998912,218030.038,218744.472,,9,vowed
screen,html.Screen,2_3_1_0_1_10,2021-04-24T19:36:53.430Z,,,,,,,,,,,,,,,,,15,,,,,,,,,,,,,,322.5730000034091,,response,,,,7,A,,,,,,Space,keypress(Space),,,,silence,,,,---- --------- ---------- - --- ------- -- --- ------------<br>----- he -------- ------- ---- ------ - -------- ---- -----<br>--- ------- ---- -- --- -------- --- - ----- ------ ---- --<br>-------- --- -------- -------- --- -------- ---- -- ----- -<br>-------- ---- --- ---------- --------- -- ------- ------ -<br>--------- ----- -----,219068.94999998622,219067.04500000342,218728.001,218735.57999997865,218744.472,219080.328,,10,he
screen,html.Screen,2_3_1_0_1_11,2021-04-24T19:36:53.646Z,,,,,,,,,,,,,,,,,15,,,,,,,,,,,,,,202.92199997857097,,response,,,,7,A,,,,,,Space,keypress(Space),,,,silence,,,,---- --------- ---------- - --- ------- -- --- ------------<br>----- -- wouldn't ------- ---- ------ - -------- ---- -----<br>--- ------- ---- -- --- -------- --- - ----- ------ ---- --<br>-------- --- -------- -------- --- -------- ---- -- ----- -<br>-------- ---- --- ---------- --------- -- ------- ------ -<br>--------- ----- -----,219285.0150000013,219283.24999997858,219061.125,219069.34499999625,219080.328,219295.816,,11,wouldn't
screen,html.Screen,2_3_1_0_1_12,2021-04-24T19:36:53.833Z,,,,,,,,,,,,,,,,,15,,,,,,,,,,,,,,173.3240000010701,,response,,,,7,A,,,,,,Space,keypress(Space),,,,silence,,,,---- --------- ---------- - --- ------- -- --- ------------<br>----- -- -------- testify ---- ------ - -------- ---- -----<br>--- ------- ---- -- --- -------- --- - ----- ------ ---- --<br>-------- --- -------- -------- --- -------- ---- -- ----- -<br>-------- ---- --- ---------- --------- -- ------- ------ -<br>--------- ----- -----,219471.85000000172,219469.14000000106,219277.838,219285.40999998222,219295.816,219477.765,,12,testify
screen,html.Screen,2_3_1_0_1_13,2021-04-24T19:36:54.018Z,,,,,,,,,,,,,,,,,15,,,,,,,,,,,,,,177.5749999975087,,response,,,,7,A,,,,,,Space,keypress(Space),,,,silence,,,,---- --------- ---------- - --- ------- -- --- ------------<br>----- -- -------- ------- when ------ - -------- ---- -----<br>--- ------- ---- -- --- -------- --- - ----- ------ ---- --<br>-------- --- -------- -------- --- -------- ---- -- ----- -<br>-------- ---- --- ---------- --------- -- ------- ------ -<br>--------- ----- -----,219657.12999997777,219655.33999999752,219462.439,219472.23499999382,219477.765,219661.125,,13,when
screen,html.Screen,2_3_1_0_1_14,2021-04-24T19:36:54.190Z,,,,,,,,,,,,,,,,,15,,,,,,,,,,,,,,165.18499997491017,,response,,,,7,A,,,,,,Space,keypress(Space),,,,silence,,,,---- --------- ---------- - --- ------- -- --- ------------<br>----- -- -------- ------- ---- served - -------- ---- -----<br>--- ------- ---- -- --- -------- --- - ----- ------ ---- --<br>-------- --- -------- -------- --- -------- ---- -- ----- -<br>-------- ---- --- ---------- --------- -- ------- ------ -<br>--------- ----- -----,219828.32999998936,219826.3099999749,219644.657,219657.51999997883,219661.125,219844.767,,14,served
screen,html.Screen,2_3_1_0_1_15,2021-04-24T19:36:54.623Z,,,,,,,,,,,,,,,,,15,,,,,,,,,,,,,,415.5729999789037,,response,,,,7,A,,,,,,Space,keypress(Space),,,,silence,,,,---- --------- ---------- - --- ------- -- --- ------------<br>----- -- -------- ------- ---- ------ a -------- ---- -----<br>--- ------- ---- -- --- -------- --- - ----- ------ ---- --<br>-------- --- -------- -------- --- -------- ---- -- ----- -<br>-------- ---- --- ---------- --------- -- ------- ------ -<br>--------- ----- -----,220261.29999998375,220260.3399999789,219828.91,219829.31499998085,219844.767,220277.742,,15,a
screen,html.Screen,2_3_1_0_1_16,2021-04-24T19:36:55.224Z,,,,,,,,,,,,,,,,,15,,,,,,,,,,,,,,582.7229999761039,,response,,,,7,A,,,,,,Space,keypress(Space),,,,silence,,,,---- --------- ---------- - --- ------- -- --- ------------<br>----- -- -------- ------- ---- ------ - subpoena ---- -----<br>--- ------- ---- -- --- -------- --- - ----- ------ ---- --<br>-------- --- -------- -------- --- -------- ---- -- ----- -<br>-------- ---- --- ---------- --------- -- ------- ------ -<br>--------- ----- -----,220863.03999999654,220860.4649999761,220261.3,220261.44999999087,220277.742,220878.029,,16,subpoena
screen,html.Screen,2_3_1_0_1_17,2021-04-24T19:36:55.588Z,,,,,,,,,,,,,,,,,15,,,,,,,,,,,,,,346.8060000008845,,response,,,,7,A,,,,,,Space,keypress(Space),,,,silence,,,,---- --------- ---------- - --- ------- -- --- ------------<br>----- -- -------- ------- ---- ------ - -------- last -----<br>--- ------- ---- -- --- -------- --- - ----- ------ ---- --<br>-------- --- -------- -------- --- -------- ---- -- ----- -<br>-------- ---- --- ---------- --------- -- ------- ------ -<br>--------- ----- -----,221226.62000000128,221224.8350000009,220861.021,220863.4299999976,220878.029,221261.369,,17,last
screen,html.Screen,2_3_1_0_1_18,2021-04-24T19:36:55.948Z,,,,,,,,,,,,,,,,,15,,,,,,,,,,,,,,323.3459999753977,,response,,,,7,A,,,,,,Space,keypress(Space),,,,silence,,,,---- --------- ---------- - --- ------- -- --- ------------<br>----- -- -------- ------- ---- ------ - -------- ---- week.<br>--- ------- ---- -- --- -------- --- - ----- ------ ---- --<br>-------- --- -------- -------- --- -------- ---- -- ----- -<br>-------- ---- --- ---------- --------- -- ------- ------ -<br>--------- ----- -----,221586.50499998475,221584.7149999754,221244.596,221227.00499999337,221261.369,221594.393,,18,week.
screen,html.Screen,2_3_1_0_1_19,2021-04-24T19:36:56.559Z,,,,,,,,,,,,,,,,,15,,,,,,,,,,,,,,601.5269999982847,,response,,,,7,A,,,,,,Space,keypress(Space),,,,silence,,,,---- --------- ---------- - --- ------- -- --- ------------<br>----- -- -------- ------- ---- ------ - -------- ---- -----<br>His ------- ---- -- --- -------- --- - ----- ------ ---- --<br>-------- --- -------- -------- --- -------- ---- -- ----- -<br>-------- ---- --- ---------- --------- -- ------- ------ -<br>--------- ----- -----,222197.82999999006,222195.9199999983,221578.009,221586.89499998582,221594.393,222212.077,,19,His
screen,html.Screen,2_3_1_0_1_20,2021-04-24T19:36:56.925Z,,,,,,,,,,,,,,,,,15,,,,,,,,,,,,,,349.6529999867198,,response,,,,7,A,,,,,,Space,keypress(Space),,,,silence,,,,---- --------- ---------- - --- ------- -- --- ------------<br>----- -- -------- ------- ---- ------ - -------- ---- -----<br>--- lawyers ---- -- --- -------- --- - ----- ------ ---- --<br>-------- --- -------- -------- --- -------- ---- -- ----- -<br>-------- ---- --- ---------- --------- -- ------- ------ -<br>--------- ----- -----,222563.6499999964,222561.7299999867,222195.854,222198.70999999694,222212.077,222610.923,,20,lawyers
screen,html.Screen,2_3_1_0_1_21,2021-04-24T19:36:57.243Z,,,,,,,,,,,,,,,,,15,,,,,,,,,,,,,,269.4970000013127,,response,,,,7,A,,,,,,Space,keypress(Space),,,,silence,,,,---- --------- ---------- - --- ------- -- --- ------------<br>----- -- -------- ------- ---- ------ - -------- ---- -----<br>--- ------- said -- --- -------- --- - ----- ------ ---- --<br>-------- --- -------- -------- --- -------- ---- -- ----- -<br>-------- ---- --- ---------- --------- -- ------- ------ -<br>--------- ----- -----,222882.16499998816,222880.42000000132,222561.17,222564.02999997954,222610.923,222894.451,,21,said
screen,html.Screen,2_3_1_0_1_22,2021-04-24T19:36:57.568Z,,,,,,,,,,,,,,,,,15,,,,,,,,,,,,,,310.26399999985006,,response,,,,7,A,,,,,,Space,keypress(Space),,,,silence,,,,---- --------- ---------- - --- ------- -- --- ------------<br>----- -- -------- ------- ---- ------ - -------- ---- -----<br>--- ------- ---- he --- -------- --- - ----- ------ ---- --<br>-------- --- -------- -------- --- -------- ---- -- ----- -<br>-------- ---- --- ---------- --------- -- ------- ------ -<br>--------- ----- -----,223206.50000000023,223204.71499999985,222877.606,222882.55499998922,222894.451,223212.289,,22,he
screen,html.Screen,2_3_1_0_1_23,2021-04-24T19:36:57.830Z,,,,,,,,,,,,,,,,,15,,,,,,,,,,,,,,254.7709999954095,,response,,,,7,A,,,,,,Space,keypress(Space),,,,silence,,,,---- --------- ---------- - --- ------- -- --- ------------<br>----- -- -------- ------- ---- ------ - -------- ---- -----<br>--- ------- ---- -- was -------- --- - ----- ------ ---- --<br>-------- --- -------- -------- --- -------- ---- -- ----- -<br>-------- ---- --- ---------- --------- -- ------- ------ -<br>--------- ----- -----,223469.11499998532,223467.0599999954,223195.68,223206.88499999233,223212.289,223480.18,,23,was
screen,html.Screen,2_3_1_0_1_24,2021-04-24T19:36:58.020Z,,,,,,,,,,,,,,,,,15,,,,,,,,,,,,,,176.89499999553664,,response,,,,7,A,,,,,,Space,keypress(Space),,,,silence,,,,---- --------- ---------- - --- ------- -- --- ------------<br>----- -- -------- ------- ---- ------ - -------- ---- -----<br>--- ------- ---- -- --- prepared --- - ----- ------ ---- --<br>-------- --- -------- -------- --- -------- ---- -- ----- -<br>-------- ---- --- ---------- --------- -- ------- ------ -<br>--------- ----- -----,223659.04999998747,223657.07499999553,223461.151,223469.50999999535,223480.18,223687.623,,24,prepared
screen,html.Screen,2_3_1_0_1_25,2021-04-24T19:36:58.222Z,,,,,,,,,,,,,,,,,15,,,,,,,,,,,,,,170.56199999005185,,response,,,,7,A,,,,,,Space,keypress(Space),,,,silence,,,,---- --------- ---------- - --- ------- -- --- ------------<br>----- -- -------- ------- ---- ------ - -------- ---- -----<br>--- ------- ---- -- --- -------- for - ----- ------ ---- --<br>-------- --- -------- -------- --- -------- ---- -- ----- -<br>-------- ---- --- ---------- --------- -- ------- ------ -<br>--------- ----- -----,223860.6499999878,223858.18499999004,223644.471,223659.4449999975,223687.623,223877.966,,25,for
screen,html.Screen,2_3_1_0_1_26,2021-04-24T19:36:58.569Z,,,,,,,,,,,,,,,,,15,,,,,,,,,,,,,,328.2189999881957,,response,,,,7,A,,,,,,Space,keypress(Space),,,,silence,,,,---- --------- ---------- - --- ------- -- --- ------------<br>----- -- -------- ------- ---- ------ - -------- ---- -----<br>--- ------- ---- -- --- -------- --- a ----- ------ ---- --<br>-------- --- -------- -------- --- -------- ---- -- ----- -<br>-------- ---- --- ---------- --------- -- ------- ------ -<br>--------- ----- -----,224208.0699999933,224206.18499998818,223861.128,223861.17499999818,223877.966,224237.66,,26,a
screen,html.Screen,2_3_1_0_1_27,2021-04-24T19:36:58.835Z,,,,,,,,,,,,,,,,,15,,,,,,,,,,,,,,233.87999999863678,,response,,,,7,A,,,,,,Space,keypress(Space),,,,silence,,,,---- --------- ---------- - --- ------- -- --- ------------<br>----- -- -------- ------- ---- ------ - -------- ---- -----<br>--- ------- ---- -- --- -------- --- - third ------ ---- --<br>-------- --- -------- -------- --- -------- ---- -- ----- -<br>-------- ---- --- ---------- --------- -- ------- ------ -<br>--------- ----- -----,224473.29999998328,224471.53999999864,224194.443,224208.53000000352,224237.66,224477.615,,27,third
screen,html.Screen,2_3_1_0_1_28,2021-04-24T19:36:59.029Z,,,,,,,,,,,,,,,,,15,,,,,,,,,,,,,,187.95999999181367,,response,,,,7,A,,,,,,Space,keypress(Space),,,,silence,,,,---- --------- ---------- - --- ------- -- --- ------------<br>----- -- -------- ------- ---- ------ - -------- ---- -----<br>--- ------- ---- -- --- -------- --- - ----- prison ---- --<br>-------- --- -------- -------- --- -------- ---- -- ----- -<br>-------- ---- --- ---------- --------- -- ------- ------ -<br>--------- ----- -----,224667.35000000335,224665.5749999918,224460.899,224473.68999998434,224477.615,224680.233,,28,prison
screen,html.Screen,2_3_1_0_1_29,2021-04-24T19:36:59.345Z,,,,,,,,,,,,,,,,,15,,,,,,,,,,,,,,301.8519999959972,,response,,,,7,A,,,,,,Space,keypress(Space),,,,silence,,,,---- --------- ---------- - --- ------- -- --- ------------<br>----- -- -------- ------- ---- ------ - -------- ---- -----<br>--- ------- ---- -- --- -------- --- - ----- ------ stay --<br>-------- --- -------- -------- --- -------- ---- -- ----- -<br>-------- ---- --- ---------- --------- -- ------- ------ -<br>--------- ----- -----,224983.899999992,224982.084999996,224661.204,224667.77999998885,224680.233,224995.471,,29,stay
screen,html.Screen,2_3_1_0_1_30,2021-04-24T19:37:00.264Z,,,,,,,,,,,,,,,,,15,,,,,,,,,,,,,,905.2189999803959,,response,,,,7,A,,,,,,Space,keypress(Space),,,,silence,,,,---- --------- ---------- - --- ------- -- --- ------------<br>----- -- -------- ------- ---- ------ - -------- ---- -----<br>--- ------- ---- -- --- -------- --- - ----- ------ ---- to<br>-------- --- -------- -------- --- -------- ---- -- ----- -<br>-------- ---- --- ---------- --------- -- ------- ------ -<br>--------- ----- -----,225902.30499999598,225900.6899999804,224977.723,224984.28499998408,224995.471,225910.84,,30,to
screen,html.Screen,2_3_1_0_1_31,2021-04-24T19:37:00.672Z,,,,,,,,,,,,,,,,,15,,,,,,,,,,,,,,397.89499999870895,,response,,,,7,A,,,,,,Space,keypress(Space),,,,silence,,,,---- --------- ---------- - --- ------- -- --- ------------<br>----- -- -------- ------- ---- ------ - -------- ---- -----<br>--- ------- ---- -- --- -------- --- - ----- ------ ---- --<br>maintain --- -------- -------- --- -------- ---- -- ----- -<br>-------- ---- --- ---------- --------- -- ------- ------ -<br>--------- ----- -----,226311.26499999664,226308.7349999987,225894.447,225902.4550000031,225910.84,226329.54,,31,maintain
screen,html.Screen,2_3_1_0_1_32,2021-04-24T19:37:00.974Z,,,,,,,,,,,,,,,,,15,,,,,,,,,,,,,,280.55999999077176,,response,,,,7,A,,,,,,Space,keypress(Space),,,,silence,,,,---- --------- ---------- - --- ------- -- --- ------------<br>----- -- -------- ------- ---- ------ - -------- ---- -----<br>--- ------- ---- -- --- -------- --- - ----- ------ ---- --<br>-------- his -------- -------- --- -------- ---- -- ----- -<br>-------- ---- --- ---------- --------- -- ------- ------ -<br>--------- ----- -----,226612.78999998467,226610.09999999078,226310.999,226311.67499997537,226329.54,226627.866,,32,his
screen,html.Screen,2_3_1_0_1_33,2021-04-24T19:37:01.158Z,,,,,,,,,,,,,,,,,15,,,,,,,,,,,,,,167.14899998149485,,response,,,,7,A,,,,,,Space,keypress(Space),,,,silence,,,,---- --------- ---------- - --- ------- -- --- ------------<br>----- -- -------- ------- ---- ------ - -------- ---- -----<br>--- ------- ---- -- --- -------- --- - ----- ------ ---- --<br>-------- --- silence. -------- --- -------- ---- -- ----- -<br>-------- ---- --- ---------- --------- -- ------- ------ -<br>--------- ----- -----,226797.0599999826,226795.0149999815,226611.007,226613.1849999947,226627.866,226811.11,,33,silence.
screen,html.Screen,2_3_1_0_1_34,2021-04-24T19:37:01.951Z,,,,,,,,,,,,,,,,,15,,,,,,,,,,,,,,776.4849999899743,,response,,,,7,A,,,,,,Space,keypress(Space),,,,silence,,,,---- --------- ---------- - --- ------- -- --- ------------<br>----- -- -------- ------- ---- ------ - -------- ---- -----<br>--- ------- ---- -- --- -------- --- - ----- ------ ---- --<br>-------- --- -------- Anderson --- -------- ---- -- ----- -<br>-------- ---- --- ---------- --------- -- ------- ------ -<br>--------- ----- -----,227589.4499999995,227587.59499998996,226794.339,226797.51499998383,226811.11,227594.087,,34,Anderson
screen,html.Screen,2_3_1_0_1_35,2021-04-24T19:37:02.320Z,,,,,,,,,,,,,,,,,15,,,,,,,,,,,,,,362.61299998062896,,response,,,,7,A,,,,,,Space,keypress(Space),,,,silence,,,,---- --------- ---------- - --- ------- -- --- ------------<br>----- -- -------- ------- ---- ------ - -------- ---- -----<br>--- ------- ---- -- --- -------- --- - ----- ------ ---- --<br>-------- --- -------- -------- was -------- ---- -- ----- -<br>-------- ---- --- ---------- --------- -- ------- ------ -<br>--------- ----- -----,227958.61999999033,227956.69999998063,227577.592,227589.85499999835,227594.087,227987.684,,35,was
screen,html.Screen,2_3_1_0_1_36,2021-04-24T19:37:02.494Z,,,,,,,,,,,,,,,,,15,,,,,,,,,,,,,,143.73099998163525,,response,,,,7,A,,,,,,Space,keypress(Space),,,,silence,,,,---- --------- ---------- - --- ------- -- --- ------------<br>----- -- -------- ------- ---- ------ - -------- ---- -----<br>--- ------- ---- -- --- -------- --- - ----- ------ ---- --<br>-------- --- -------- -------- --- released ---- -- ----- -<br>-------- ---- --- ---------- --------- -- ------- ------ -<br>--------- ----- -----,228133.16999998642,228131.41499998164,227944.392,227959.0249999892,227987.684,228145.15,,36,released
screen,html.Screen,2_3_1_0_1_37,2021-04-24T19:37:02.853Z,,,,,,,,,,,,,,,,,15,,,,,,,,,,,,,,343.4249999957683,,response,,,,7,A,,,,,,Space,keypress(Space),,,,silence,,,,---- --------- ---------- - --- ------- -- --- ------------<br>----- -- -------- ------- ---- ------ - -------- ---- -----<br>--- ------- ---- -- --- -------- --- - ----- ------ ---- --<br>-------- --- -------- -------- --- -------- July -- ----- -<br>-------- ---- --- ---------- --------- -- ------- ------ -<br>--------- ----- -----,228491.32999998983,228488.57499999576,228128.228,228133.56999997632,228145.15,228494.046,,37,July
screen,html.Screen,2_3_1_0_1_38,2021-04-24T19:37:03.166Z,,,,,,,,,,,,,,,,,15,,,,,,,,,,,,,,309.363999993162,,response,,,,7,A,,,,,,Space,keypress(Space),,,,silence,,,,---- --------- ---------- - --- ------- -- --- ------------<br>----- -- -------- ------- ---- ------ - -------- ---- -----<br>--- ------- ---- -- --- -------- --- - ----- ------ ---- --<br>-------- --- -------- -------- --- -------- ---- 20 ----- -<br>-------- ---- --- ---------- --------- -- ------- ------ -<br>--------- ----- -----,228805.18999998458,228803.40999999316,228477.574,228491.7199999909,228494.046,228811.317,,38,20
